##NAMES=Emeleusite
##RRUFFID=R061034
##IDEAL CHEMISTRY=Na_2_LiFe^3+^Si_6_O_15_
##LOCALITY=Igdlutalig, Ilimaussaq, Greenland
##OWNER=RRUFF
##SOURCE=Michael Scott
##DESCRIPTION=Light pink massive associated with albite and aegirine, co-type specimen
##STATUS=The identification of this mineral has been confirmed by X-ray diffraction and chemical analysis
##URL=rruff.info/R061034
##MEASURED CHEMISTRY=(Na_1.57_K_0.43_)_Σ=2_Li_1.00_(Fe^3+^_0.77_Al_0.18_Ti_0.02_Mg_0.02_)_Σ=1_Si_6.00_O_15_; (lighter areas) Li estimated by difference; dark: albite
128.7548, 4373.575
129.2369, 4527.160
129.7190, 4677.003
130.2011, 4821.710
130.6832, 4954.840
131.1654, 5075.136
131.6475, 5192.654
132.1296, 5321.549
132.6117, 5461.583
133.0938, 5600.690
133.5759, 5730.821
134.0581, 5853.607
134.5402, 5981.683
135.0223, 6116.343
135.5044, 6256.812
135.9865, 6400.055
136.4686, 6545.363
136.9508, 6693.523
137.4329, 6842.684
137.9150, 6990.010
138.3971, 7153.710
138.8792, 7344.619
139.3613, 7551.407
139.8434, 7729.436
140.3256, 7873.889
140.8077, 8003.385
141.2898, 8130.378
141.7719, 8247.803
142.2540, 8380.576
142.7361, 8532.385
143.2183, 8704.483
143.7004, 8886.502
144.1825, 9083.263
144.6646, 9285.014
145.1467, 9479.234
145.6288, 9670.117
146.1110, 9849.094
146.5931, 10010.10
147.0752, 10148.48
147.5573, 10295.38
148.0394, 10468.04
148.5215, 10641.73
149.0037, 10782.41
149.4858, 10874.93
149.9679, 10947.28
150.4500, 11013.23
150.9321, 11104.79
151.4142, 11127.17
151.8964, 11060.93
152.3785, 10926.22
152.8606, 10767.65
153.3427, 10563.57
153.8248, 10354.35
154.3069, 10156.30
154.7890, 9960.534
155.2712, 9787.390
155.7533, 9639.708
156.2354, 9517.802
156.7175, 9417.082
157.1996, 9336.553
157.6817, 9275.806
158.1639, 9234.163
158.6460, 9221.187
159.1281, 9216.979
159.6102, 9214.231
160.0923, 9213.479
160.5744, 9223.932
161.0566, 9260.537
161.5387, 9304.010
162.0208, 9336.959
162.5029, 9360.482
162.9850, 9366.004
163.4671, 9346.713
163.9493, 9302.021
164.4314, 9245.083
164.9135, 9183.541
165.3956, 9113.295
165.8777, 9029.073
166.3598, 8897.355
166.8420, 8772.550
167.3241, 8690.629
167.8062, 8656.566
168.2883, 8653.691
168.7704, 8692.078
169.2525, 8753.751
169.7346, 8804.576
170.2168, 8828.207
170.6989, 8832.931
171.1810, 8826.812
171.6631, 8812.179
172.1452, 8783.063
172.6273, 8722.990
173.1095, 8641.854
173.5916, 8567.078
174.0737, 8503.986
174.5558, 8459.627
175.0379, 8444.561
175.5201, 8461.813
176.0022, 8505.858
176.4843, 8574.544
176.9664, 8665.883
177.4485, 8772.188
177.9306, 8889.639
178.4128, 9017.587
178.8949, 9158.579
179.3770, 9319.273
179.8591, 9487.405
180.3412, 9644.421
180.8233, 9792.249
181.3055, 9938.958
181.7876, 10100.42
182.2697, 10268.03
182.7518, 10421.45
183.2339, 10551.13
183.7160, 10663.44
184.1982, 10774.42
184.6803, 10885.00
185.1624, 10972.31
185.6445, 11019.44
186.1266, 11025.91
186.6087, 10991.35
187.0908, 10910.20
187.5730, 10787.73
188.0551, 10637.04
188.5372, 10452.66
189.0193, 10259.01
189.5014, 10087.05
189.9835, 9932.938
190.4657, 9765.590
190.9478, 9566.585
191.4299, 9340.149
191.9120, 9120.524
192.3941, 8906.834
192.8762, 8703.050
193.3584, 8515.585
193.8405, 8345.306
194.3226, 8184.672
194.8047, 8032.098
195.2868, 7887.665
195.7689, 7749.530
196.2511, 7612.103
196.7332, 7488.091
197.2153, 7400.973
197.6974, 7351.366
198.1795, 7327.949
198.6616, 7332.484
199.1438, 7366.200
199.6259, 7392.890
200.1080, 7405.191
200.5901, 7416.192
201.0722, 7457.432
201.5543, 7533.334
202.0364, 7618.839
202.5186, 7696.354
203.0007, 7762.856
203.4828, 7848.247
203.9649, 7956.732
204.4470, 8084.418
204.9291, 8223.492
205.4113, 8381.413
205.8934, 8528.210
206.3755, 8641.701
206.8576, 8716.220
207.3397, 8789.299
207.8218, 8873.604
208.3040, 8957.566
208.7861, 8997.904
209.2682, 8997.938
209.7503, 8947.174
210.2324, 8833.204
210.7145, 8649.732
211.1967, 8433.020
211.6788, 8180.745
212.1609, 7898.344
212.6430, 7612.718
213.1251, 7316.318
213.6072, 7035.049
214.0894, 6787.973
214.5715, 6580.353
215.0536, 6389.112
215.5357, 6209.011
216.0178, 6040.863
216.4999, 5908.759
216.9820, 5825.044
217.4642, 5760.734
217.9463, 5689.182
218.4284, 5604.492
218.9105, 5528.858
219.3926, 5465.632
219.8747, 5415.220
220.3569, 5376.541
220.8390, 5355.798
221.3211, 5339.450
221.8032, 5313.901
222.2853, 5276.593
222.7674, 5236.496
223.2496, 5194.160
223.7317, 5149.065
224.2138, 5111.298
224.6959, 5083.866
225.1780, 5060.526
225.6601, 5033.347
226.1423, 4999.084
226.6244, 4968.060
227.1065, 4942.889
227.5886, 4923.576
228.0707, 4907.383
228.5528, 4895.841
229.0350, 4885.595
229.5171, 4872.056
229.9992, 4850.381
230.4813, 4833.757
230.9634, 4825.964
231.4455, 4827.963
231.9276, 4831.359
232.4098, 4838.177
232.8919, 4844.816
233.3740, 4846.086
233.8561, 4838.859
234.3382, 4831.876
234.8203, 4825.929
235.3025, 4819.812
235.7846, 4823.063
236.2667, 4839.775
236.7488, 4862.964
237.2309, 4882.861
237.7130, 4896.603
238.1952, 4911.704
238.6773, 4930.013
239.1594, 4951.653
239.6415, 4974.864
240.1236, 4992.817
240.6057, 5017.227
241.0879, 5067.441
241.5700, 5157.109
242.0521, 5248.459
242.5342, 5327.918
243.0163, 5389.003
243.4984, 5470.194
243.9806, 5582.604
244.4627, 5707.748
244.9448, 5815.191
245.4269, 5886.131
245.9090, 5970.626
246.3911, 6088.151
246.8732, 6248.892
247.3554, 6395.054
247.8375, 6517.341
248.3196, 6630.708
248.8017, 6760.189
249.2838, 6916.106
249.7659, 7067.959
250.2481, 7208.815
250.7302, 7339.164
251.2123, 7461.291
251.6944, 7597.736
252.1765, 7710.516
252.6586, 7741.189
253.1408, 7668.620
253.6229, 7552.908
254.1050, 7400.844
254.5871, 7201.429
255.0692, 7028.266
255.5513, 6882.085
256.0334, 6761.729
256.5156, 6662.209
256.9977, 6579.658
257.4798, 6525.215
257.9619, 6505.396
258.4440, 6524.877
258.9261, 6552.804
259.4083, 6591.134
259.8904, 6636.129
260.3725, 6678.171
260.8546, 6706.456
261.3367, 6756.743
261.8188, 6845.274
262.3010, 6980.051
262.7831, 7103.670
263.2652, 7211.962
263.7473, 7314.170
264.2294, 7426.702
264.7115, 7552.105
265.1937, 7679.195
265.6758, 7810.819
266.1579, 7949.214
266.6400, 8047.356
267.1221, 8091.735
267.6042, 8111.908
268.0864, 8149.916
268.5685, 8214.151
269.0506, 8272.392
269.5327, 8320.451
270.0148, 8359.859
270.4969, 8359.068
270.9791, 8308.719
271.4612, 8233.774
271.9433, 8163.070
272.4254, 8094.315
272.9075, 8040.351
273.3896, 8004.600
273.8718, 7987.355
274.3539, 7990.563
274.8360, 8015.889
275.3181, 8058.503
275.8002, 8110.521
276.2823, 8169.908
276.7645, 8249.739
277.2466, 8351.263
277.7287, 8475.764
278.2108, 8638.337
278.6929, 8841.525
279.1750, 9077.438
279.6572, 9336.053
280.1393, 9616.479
280.6214, 9929.584
281.1035, 10282.49
281.5856, 10671.42
282.0677, 11075.87
282.5499, 11497.57
283.0320, 11927.32
283.5141, 12356.10
283.9962, 12783.84
284.4783, 13212.53
284.9604, 13636.87
285.4425, 14065.14
285.9247, 14530.22
286.4068, 15035.00
286.8889, 15543.65
287.3710, 16019.55
287.8531, 16464.87
288.3352, 16909.81
288.8174, 17389.94
289.2995, 17862.04
289.7816, 18221.30
290.2637, 18463.38
290.7458, 18567.23
291.2279, 18517.84
291.7101, 18314.01
292.1922, 17939.90
292.6743, 17368.72
293.1564, 16651.58
293.6385, 15853.31
294.1206, 14979.17
294.6028, 14125.95
295.0849, 13356.51
295.5670, 12662.29
296.0491, 12012.07
296.5312, 11401.04
297.0133, 10840.00
297.4955, 10349.65
297.9776, 9936.238
298.4597, 9575.741
298.9418, 9260.603
299.4239, 8990.201
299.9060, 8770.837
300.3882, 8616.695
300.8703, 8493.063
301.3524, 8359.345
301.8345, 8219.330
302.3166, 8092.153
302.7987, 7994.307
303.2809, 7914.482
303.7630, 7832.353
304.2451, 7742.062
304.7272, 7657.514
305.2093, 7598.239
305.6914, 7557.426
306.1736, 7517.513
306.6557, 7459.305
307.1378, 7400.150
307.6199, 7362.719
308.1020, 7354.756
308.5841, 7348.414
309.0663, 7320.706
309.5484, 7278.629
310.0305, 7237.867
310.5126, 7192.816
310.9947, 7159.937
311.4768, 7158.087
311.9590, 7193.104
312.4411, 7231.390
312.9232, 7254.856
313.4053, 7268.195
313.8874, 7278.361
314.3695, 7272.858
314.8517, 7277.026
315.3337, 7311.074
315.8159, 7378.576
316.2980, 7444.016
316.7801, 7491.728
317.2622, 7529.675
317.7443, 7567.545
318.2264, 7589.513
318.7086, 7628.833
319.1907, 7705.977
319.6728, 7821.378
320.1549, 7934.576
320.6370, 8036.461
321.1191, 8129.764
321.6013, 8217.108
322.0834, 8288.522
322.5655, 8363.449
323.0476, 8440.848
323.5297, 8522.063
324.0118, 8622.096
324.4940, 8744.271
324.9761, 8885.208
325.4582, 9042.783
325.9403, 9236.312
326.4224, 9424.034
326.9045, 9602.627
327.3867, 9772.902
327.8688, 9939.697
328.3509, 10141.15
328.8330, 10308.83
329.3151, 10414.74
329.7972, 10453.81
330.2794, 10437.10
330.7615, 10342.63
331.2436, 10193.34
331.7257, 10051.93
332.2078, 9911.041
332.6899, 9786.183
333.1721, 9682.982
333.6542, 9603.564
334.1363, 9541.783
334.6184, 9494.121
335.1005, 9466.074
335.5826, 9469.368
336.0648, 9514.915
336.5469, 9568.920
337.0290, 9623.766
337.5111, 9681.012
337.9932, 9724.796
338.4753, 9751.757
338.9575, 9769.718
339.4396, 9788.639
339.9217, 9809.193
340.4038, 9827.434
340.8859, 9846.483
341.3680, 9863.920
341.8502, 9854.592
342.3323, 9813.847
342.8144, 9764.149
343.2965, 9733.199
343.7786, 9720.771
344.2607, 9693.033
344.7429, 9642.442
345.2250, 9571.385
345.7071, 9478.772
346.1892, 9362.048
346.6713, 9250.046
347.1534, 9167.591
347.6355, 9108.681
348.1176, 9045.049
348.5998, 8970.871
349.0819, 8889.159
349.5640, 8805.380
350.0461, 8717.657
350.5282, 8623.087
351.0103, 8506.744
351.4925, 8383.676
351.9746, 8282.017
352.4567, 8208.236
352.9388, 8147.996
353.4209, 8091.110
353.9030, 8036.399
354.3852, 7980.623
354.8673, 7916.737
355.3494, 7854.099
355.8315, 7802.881
356.3136, 7764.513
356.7957, 7733.371
357.2779, 7705.983
357.7600, 7683.690
358.2421, 7668.716
358.7242, 7663.470
359.2063, 7664.402
359.6884, 7670.202
360.1706, 7680.699
360.6527, 7693.958
361.1348, 7707.696
361.6169, 7724.328
362.0990, 7745.840
362.5811, 7775.740
363.0633, 7807.471
363.5454, 7839.712
364.0275, 7872.187
364.5096, 7903.970
364.9917, 7936.366
365.4738, 7966.883
365.9560, 7994.765
366.4381, 8025.555
366.9202, 8045.010
367.4023, 8043.285
367.8844, 8029.216
368.3665, 8024.640
368.8487, 8043.694
369.3308, 8060.851
369.8129, 8069.570
370.2950, 8072.536
370.7771, 8059.155
371.2592, 8021.304
371.7414, 7971.437
372.2235, 7926.671
372.7056, 7893.721
373.1877, 7853.313
373.6698, 7797.896
374.1519, 7727.083
374.6341, 7663.801
375.1162, 7610.932
375.5983, 7561.647
376.0804, 7510.695
376.5625, 7459.226
377.0446, 7401.245
377.5267, 7331.859
378.0089, 7256.447
378.4910, 7201.402
378.9731, 7169.682
379.4552, 7143.738
379.9373, 7112.397
380.4194, 7075.856
380.9016, 7039.536
381.3837, 7003.753
381.8658, 6968.731
382.3479, 6930.817
382.8300, 6891.323
383.3121, 6862.002
383.7943, 6860.732
384.2764, 6873.982
384.7585, 6864.596
385.2406, 6827.984
385.7227, 6786.698
386.2048, 6763.763
386.6870, 6755.306
387.1691, 6752.458
387.6512, 6759.184
388.1333, 6764.962
388.6154, 6751.640
389.0975, 6720.639
389.5797, 6699.010
390.0618, 6713.572
390.5439, 6744.870
391.0260, 6770.734
391.5081, 6782.489
391.9902, 6790.558
392.4724, 6801.415
392.9545, 6813.834
393.4366, 6823.300
393.9187, 6822.168
394.4008, 6821.894
394.8829, 6829.417
395.3651, 6846.986
395.8472, 6869.934
396.3293, 6901.687
396.8114, 6937.306
397.2935, 6968.768
397.7756, 6994.994
398.2578, 7016.402
398.7399, 7034.766
399.2220, 7051.727
399.7041, 7055.636
400.1862, 7036.491
400.6683, 7010.333
401.1505, 6991.202
401.6326, 6981.054
402.1147, 6974.588
402.5968, 6969.265
403.0789, 6966.426
403.5610, 6975.371
404.0432, 6996.882
404.5253, 7028.990
405.0074, 7071.773
405.4895, 7127.086
405.9716, 7187.260
406.4537, 7255.444
406.9359, 7323.688
407.4180, 7373.724
407.9001, 7404.130
408.3822, 7430.068
408.8643, 7466.741
409.3464, 7509.091
409.8285, 7511.110
410.3106, 7466.545
410.7928, 7414.622
411.2749, 7391.172
411.7570, 7395.548
412.2391, 7425.843
412.7212, 7491.291
413.2033, 7574.833
413.6855, 7643.254
414.1676, 7699.297
414.6497, 7769.861
415.1318, 7885.587
415.6139, 8023.525
416.0960, 8152.703
416.5782, 8271.483
417.0603, 8372.050
417.5424, 8437.209
418.0245, 8478.340
418.5066, 8521.068
418.9887, 8556.140
419.4709, 8612.138
419.9530, 8707.663
420.4351, 8845.237
420.9172, 9011.658
421.3993, 9204.384
421.8814, 9421.982
422.3636, 9662.970
422.8457, 9923.856
423.3278, 10211.66
423.8099, 10528.53
424.2920, 10876.19
424.7741, 11239.68
425.2563, 11619.33
425.7384, 12016.38
426.2205, 12421.97
426.7026, 12813.16
427.1847, 13260.55
427.6668, 13788.08
428.1490, 14359.52
428.6311, 14895.71
429.1132, 15389.35
429.5953, 15879.88
430.0774, 16390.35
430.5595, 16922.54
431.0417, 17392.33
431.5238, 17808.09
432.0059, 18130.56
432.4880, 18310.42
432.9701, 18348.16
433.4522, 18297.65
433.9344, 18170.68
434.4165, 17963.35
434.8986, 17638.52
435.3807, 17200.34
435.8628, 16736.38
436.3449, 16289.78
436.8271, 15864.39
437.3092, 15466.37
437.7913, 15099.91
438.2734, 14763.02
438.7555, 14441.17
439.2376, 14148.30
439.7197, 13915.34
440.2018, 13783.68
440.6840, 13698.46
441.1661, 13612.62
441.6482, 13526.16
442.1303, 13475.43
442.6124, 13482.50
443.0945, 13532.13
443.5767, 13610.47
444.0588, 13721.02
444.5409, 13851.79
445.0230, 14005.97
445.5051, 14179.83
445.9872, 14358.67
446.4694, 14570.34
446.9515, 14759.98
447.4336, 14902.58
447.9157, 14982.34
448.3978, 15067.59
448.8799, 15191.21
449.3621, 15298.20
449.8442, 15315.86
450.3263, 15208.36
450.8084, 15095.79
451.2905, 15014.58
451.7726, 14951.32
452.2548, 14805.69
452.7369, 14562.26
453.2190, 14281.61
453.7011, 13995.69
454.1832, 13705.67
454.6653, 13418.19
455.1475, 13131.97
455.6296, 12846.96
456.1117, 12551.62
456.5938, 12251.07
457.0759, 11961.72
457.5580, 11692.52
458.0402, 11442.19
458.5223, 11207.30
459.0044, 10986.03
459.4865, 10787.64
459.9686, 10620.63
460.4507, 10478.92
460.9329, 10348.15
461.4150, 10215.17
461.8971, 10111.36
462.3792, 10066.93
462.8613, 10068.65
463.3434, 10079.34
463.8256, 10073.23
464.3077, 10080.14
464.7898, 10119.90
465.2719, 10201.39
465.7540, 10285.00
466.2361, 10343.45
466.7183, 10409.13
467.2004, 10514.65
467.6825, 10678.18
468.1646, 10862.19
468.6467, 11072.15
469.1288, 11303.63
469.6110, 11523.17
470.0930, 11710.94
470.5752, 11919.43
471.0573, 12183.90
471.5394, 12516.85
472.0215, 12836.92
472.5036, 13129.79
472.9857, 13431.04
473.4679, 13805.49
473.9500, 14251.55
474.4321, 14699.52
474.9142, 15126.06
475.3963, 15537.82
475.8784, 15959.64
476.3606, 16391.35
476.8427, 16806.85
477.3248, 17219.73
477.8069, 17593.53
478.2890, 17868.13
478.7711, 18050.85
479.2533, 18080.68
479.7354, 17892.60
480.2175, 17510.72
480.6996, 16982.85
481.1817, 16245.96
481.6638, 15443.17
482.1460, 14631.64
482.6281, 13822.12
483.1102, 13065.21
483.5923, 12365.17
484.0744, 11732.73
484.5565, 11173.48
485.0387, 10699.46
485.5208, 10293.14
486.0029, 9967.690
486.4850, 9705.509
486.9671, 9471.108
487.4492, 9262.601
487.9314, 9088.693
488.4135, 8953.063
488.8956, 8857.324
489.3777, 8791.010
489.8598, 8751.750
490.3419, 8746.247
490.8241, 8785.150
491.3062, 8870.780
491.7883, 8971.392
492.2704, 9079.865
492.7525, 9205.011
493.2346, 9368.165
493.7168, 9565.953
494.1989, 9792.477
494.6810, 10041.68
495.1631, 10316.54
495.6452, 10626.55
496.1273, 10969.09
496.6095, 11355.03
497.0916, 11796.72
497.5737, 12276.64
498.0558, 12774.83
498.5379, 13270.00
499.0201, 13794.64
499.5022, 14358.17
499.9843, 14963.82
500.4664, 15607.92
500.9485, 16278.52
501.4306, 16989.95
501.9127, 17744.09
502.3948, 18540.92
502.8770, 19372.45
503.3591, 20248.28
503.8412, 21144.34
504.3233, 22058.25
504.8054, 23038.61
505.2875, 23946.29
505.7697, 24805.91
506.2518, 25580.70
506.7339, 26144.55
507.2160, 26526.98
507.6981, 26589.94
508.1802, 26236.04
508.6624, 25475.62
509.1445, 24466.03
509.6266, 23185.00
510.1087, 21776.66
510.5908, 20328.23
511.0729, 18870.29
511.5551, 17505.57
512.0372, 16250.57
512.5193, 15113.37
513.0014, 14121.56
513.4835, 13265.71
513.9656, 12530.81
514.4478, 11956.10
514.9299, 11466.94
515.4120, 11007.85
515.8941, 10572.14
516.3762, 10177.16
516.8583, 9841.389
517.3405, 9547.751
517.8226, 9282.224
518.3047, 9046.560
518.7868, 8833.753
519.2689, 8648.913
519.7510, 8486.766
520.2332, 8331.709
520.7153, 8183.153
521.1974, 8047.629
521.6795, 7929.189
522.1616, 7828.888
522.6437, 7735.010
523.1259, 7649.433
523.6080, 7568.384
524.0901, 7488.976
524.5722, 7410.613
525.0543, 7333.560
525.5364, 7254.866
526.0186, 7180.415
526.5007, 7123.405
526.9828, 7081.691
527.4649, 7040.973
527.9470, 6996.034
528.4291, 6946.725
528.9113, 6886.927
529.3934, 6817.338
529.8755, 6754.668
530.3576, 6712.683
530.8397, 6681.832
531.3218, 6652.607
531.8040, 6625.628
532.2861, 6595.792
532.7682, 6557.497
533.2503, 6515.978
533.7324, 6482.477
534.2145, 6468.202
534.6967, 6451.930
535.1788, 6427.436
535.6609, 6394.847
536.1430, 6363.392
536.6251, 6330.460
537.1072, 6303.699
537.5894, 6292.196
538.0715, 6299.824
538.5536, 6296.398
539.0357, 6278.024
539.5178, 6251.613
539.9999, 6225.211
540.4821, 6199.399
540.9642, 6177.678
541.4463, 6161.982
541.9284, 6150.362
542.4105, 6139.033
542.8926, 6128.211
543.3748, 6119.661
543.8569, 6120.047
544.3390, 6120.536
544.8211, 6109.162
545.3032, 6080.462
545.7853, 6056.767
546.2675, 6061.029
546.7495, 6072.296
547.2316, 6065.698
547.7137, 6007.566
548.1959, 5962.069
548.6780, 5947.211
549.1601, 5957.408
549.6422, 5964.530
550.1243, 5972.519
550.6064, 5971.949
551.0886, 5955.035
551.5707, 5917.690
552.0528, 5899.093
552.5349, 5904.536
553.0170, 5916.502
553.4991, 5915.694
553.9813, 5902.868
554.4634, 5894.916
554.9455, 5897.043
555.4276, 5901.386
555.9097, 5894.389
556.3918, 5878.183
556.8740, 5860.869
557.3561, 5842.734
557.8382, 5828.068
558.3203, 5821.094
558.8024, 5821.920
559.2845, 5829.219
559.7667, 5852.070
560.2488, 5875.164
560.7309, 5886.027
561.2130, 5875.798
561.6951, 5866.266
562.1772, 5861.803
562.6594, 5860.208
563.1415, 5857.704
563.6236, 5848.279
564.1057, 5847.001
564.5878, 5858.276
565.0699, 5880.030
565.5521, 5903.984
566.0342, 5933.644
566.5163, 5953.776
566.9984, 5944.738
567.4805, 5911.325
567.9626, 5918.173
568.4448, 5972.486
568.9269, 6030.167
569.4090, 6033.805
569.8911, 6004.878
570.3732, 5998.782
570.8553, 6041.997
571.3375, 6093.581
571.8196, 6108.689
572.3017, 6102.457
572.7838, 6109.722
573.2659, 6162.078
573.7480, 6217.063
574.2302, 6252.987
574.7123, 6268.061
575.1944, 6283.731
575.6765, 6303.656
576.1586, 6325.318
576.6407, 6348.135
577.1229, 6378.081
577.6050, 6396.306
578.0871, 6399.102
578.5692, 6394.403
579.0513, 6394.215
579.5334, 6399.644
580.0156, 6401.934
580.4977, 6400.415
580.9798, 6393.012
581.4619, 6375.208
581.9440, 6347.110
582.4261, 6308.395
582.9083, 6244.155
583.3904, 6175.669
583.8725, 6136.682
584.3546, 6129.388
584.8367, 6125.294
585.3188, 6109.605
585.8010, 6085.920
586.2831, 6056.593
586.7652, 6011.780
587.2473, 5978.145
587.7294, 5970.699
588.2115, 5977.133
588.6937, 5974.672
589.1758, 5953.518
589.6579, 5936.123
590.1400, 5928.732
590.6221, 5929.643
591.1042, 5925.839
591.5864, 5916.842
592.0685, 5904.921
592.5506, 5886.492
593.0327, 5863.439
593.5148, 5861.286
593.9969, 5883.454
594.4791, 5908.288
594.9612, 5914.600
595.4433, 5906.675
595.9254, 5892.542
596.4075, 5871.221
596.8896, 5850.181
597.3718, 5830.699
597.8539, 5816.444
598.3360, 5815.148
598.8181, 5846.452
599.3002, 5875.618
599.7823, 5885.791
600.2645, 5877.468
600.7466, 5872.989
601.2287, 5877.691
601.7108, 5882.771
602.1929, 5882.957
602.6750, 5874.884
603.1572, 5877.178
603.6393, 5893.844
604.1214, 5913.191
604.6035, 5921.234
605.0856, 5918.282
605.5677, 5916.691
606.0499, 5919.020
606.5320, 5923.377
607.0141, 5926.242
607.4962, 5928.438
607.9783, 5932.872
608.4604, 5942.483
608.9425, 5953.791
609.4246, 5960.309
609.9067, 5963.730
610.3889, 5976.696
610.8710, 6017.155
611.3531, 6059.386
611.8352, 6087.291
612.3173, 6093.992
612.7994, 6102.795
613.2816, 6118.614
613.7637, 6134.235
614.2458, 6140.969
614.7279, 6132.186
615.2100, 6136.207
615.6921, 6156.834
616.1743, 6191.199
616.6564, 6240.888
617.1385, 6304.968
617.6206, 6353.102
618.1027, 6363.026
618.5848, 6355.598
619.0670, 6370.474
619.5491, 6404.853
620.0312, 6440.675
620.5133, 6464.245
620.9954, 6485.796
621.4775, 6515.778
621.9597, 6556.899
622.4418, 6595.282
622.9239, 6627.615
623.4060, 6654.367
623.8881, 6676.157
624.3702, 6692.270
624.8524, 6703.826
625.3345, 6708.346
625.8166, 6709.828
626.2987, 6713.756
626.7808, 6718.882
627.2629, 6732.792
627.7451, 6759.914
628.2272, 6795.833
628.7093, 6833.345
629.1914, 6871.479
629.6735, 6894.183
630.1556, 6884.456
630.6378, 6856.267
631.1199, 6825.706
631.6020, 6793.771
632.0841, 6765.985
632.5662, 6747.922
633.0483, 6734.365
633.5305, 6720.220
634.0126, 6701.727
634.4947, 6689.424
634.9768, 6695.157
635.4589, 6703.740
635.9410, 6696.390
636.4232, 6665.863
636.9053, 6633.125
637.3874, 6597.647
637.8695, 6563.558
638.3516, 6543.612
638.8337, 6538.482
639.3159, 6534.950
639.7980, 6524.691
640.2801, 6512.555
640.7622, 6514.286
641.2443, 6528.552
641.7264, 6540.371
642.2086, 6542.140
642.6907, 6534.805
643.1728, 6514.649
643.6549, 6478.064
644.1370, 6452.394
644.6191, 6458.237
645.1013, 6474.916
645.5834, 6484.038
646.0655, 6484.222
646.5476, 6474.539
647.0297, 6449.272
647.5118, 6417.311
647.9940, 6394.347
648.4761, 6381.912
648.9582, 6370.791
649.4403, 6360.608
649.9224, 6348.090
650.4045, 6320.716
650.8867, 6279.683
651.3688, 6241.533
651.8509, 6221.454
652.3330, 6206.769
652.8151, 6179.893
653.2972, 6141.505
653.7794, 6101.654
654.2615, 6060.351
654.7436, 6024.297
655.2257, 5999.050
655.7078, 5987.356
656.1899, 5980.237
656.6721, 5980.620
657.1542, 5982.463
657.6363, 5980.526
658.1184, 5973.772
658.6005, 5965.950
659.0826, 5956.953
659.5648, 5947.512
660.0469, 5939.387
660.5290, 5932.441
661.0111, 5924.729
661.4932, 5917.000
661.9753, 5906.934
662.4575, 5888.989
662.9396, 5865.116
663.4217, 5842.565
663.9038, 5827.114
664.3859, 5813.197
664.8680, 5795.146
665.3502, 5772.883
665.8323, 5757.860
666.3144, 5761.753
666.7965, 5766.352
667.2786, 5760.765
667.7607, 5739.632
668.2429, 5726.072
668.7250, 5722.941
669.2071, 5721.942
669.6892, 5714.376
670.1713, 5700.133
670.6534, 5684.785
671.1355, 5668.673
671.6176, 5652.586
672.0997, 5635.078
672.5818, 5618.748
673.0640, 5610.007
673.5461, 5617.064
674.0282, 5626.757
674.5103, 5633.392
674.9924, 5636.238
675.4745, 5632.850
675.9567, 5619.601
676.4388, 5603.375
676.9209, 5584.089
677.4030, 5562.610
677.8851, 5549.541
678.3672, 5547.478
678.8494, 5548.824
679.3315, 5549.018
679.8136, 5547.977
680.2957, 5552.144
680.7778, 5561.694
681.2599, 5572.418
681.7421, 5580.725
682.2242, 5587.006
682.7063, 5593.134
683.1884, 5600.622
683.6705, 5602.150
684.1526, 5583.283
684.6348, 5559.213
685.1169, 5547.718
685.5990, 5560.954
686.0811, 5578.584
686.5632, 5607.065
687.0453, 5635.700
687.5275, 5643.738
688.0096, 5620.124
688.4917, 5603.129
688.9738, 5602.661
689.4559, 5614.333
689.9380, 5625.552
690.4202, 5636.188
690.9023, 5643.643
691.3844, 5642.929
691.8665, 5639.441
692.3486, 5641.914
692.8307, 5649.911
693.3129, 5659.374
693.7950, 5671.858
694.2771, 5681.870
694.7592, 5684.248
695.2413, 5676.686
695.7234, 5670.992
696.2056, 5672.664
696.6877, 5673.849
697.1698, 5668.696
697.6519, 5654.081
698.1340, 5645.125
698.6161, 5644.462
699.0983, 5645.172
699.5804, 5636.736
700.0625, 5621.120
700.5446, 5610.407
701.0267, 5610.134
701.5089, 5608.750
701.9910, 5586.591
702.4731, 5554.364
702.9552, 5533.232
703.4373, 5542.828
703.9194, 5553.721
704.4016, 5551.702
704.8837, 5540.775
705.3658, 5536.029
705.8479, 5541.411
706.3300, 5549.054
706.8121, 5558.431
707.2943, 5568.733
707.7764, 5571.226
708.2585, 5564.070
708.7406, 5561.260
709.2227, 5580.493
709.7048, 5609.925
710.1870, 5609.447
710.6691, 5579.020
711.1512, 5551.778
711.6333, 5559.260
712.1154, 5576.815
712.5975, 5576.436
713.0797, 5547.386
713.5618, 5533.870
714.0439, 5563.512
714.5260, 5604.944
715.0081, 5632.334
715.4902, 5638.748
715.9724, 5644.998
716.4545, 5651.675
716.9366, 5657.836
717.4187, 5660.681
717.9008, 5660.586
718.3829, 5664.892
718.8651, 5676.144
719.3472, 5690.376
719.8293, 5702.284
720.3114, 5713.411
720.7935, 5727.495
721.2756, 5761.252
721.7578, 5783.202
722.2399, 5766.852
722.7220, 5724.859
723.2041, 5697.382
723.6862, 5702.366
724.1683, 5707.070
724.6505, 5703.547
725.1326, 5693.222
725.6147, 5683.009
726.0968, 5671.359
726.5789, 5668.452
727.0610, 5687.751
727.5432, 5719.387
728.0253, 5731.538
728.5074, 5725.288
728.9895, 5715.243
729.4716, 5708.130
729.9537, 5704.494
730.4359, 5705.879
730.9180, 5713.044
731.4001, 5719.891
731.8822, 5726.453
732.3643, 5730.861
732.8464, 5731.059
733.3285, 5722.846
733.8106, 5722.582
734.2927, 5730.876
734.7748, 5745.781
735.2570, 5768.617
735.7391, 5797.826
736.2212, 5822.971
736.7033, 5844.173
737.1854, 5853.881
737.6675, 5831.564
738.1497, 5795.184
738.6318, 5774.078
739.1139, 5785.424
739.5960, 5802.090
740.0781, 5813.520
740.5602, 5823.658
741.0424, 5840.086
741.5245, 5867.876
742.0066, 5894.216
742.4887, 5917.051
742.9708, 5936.960
743.4529, 5955.592
743.9351, 5972.803
744.4172, 5987.951
744.8993, 5997.252
745.3814, 6007.021
745.8635, 6031.307
746.3456, 6066.420
746.8278, 6098.895
747.3099, 6119.191
747.7920, 6136.111
748.2741, 6150.911
748.7562, 6164.914
749.2383, 6190.109
749.7205, 6239.010
750.2026, 6286.855
750.6847, 6326.802
751.1668, 6359.302
751.6489, 6368.675
752.1310, 6348.307
752.6132, 6346.193
753.0953, 6407.303
753.5774, 6511.798
754.0595, 6605.340
754.5416, 6686.553
755.0237, 6766.771
755.5059, 6850.135
755.9880, 6939.114
756.4701, 7039.904
756.9522, 7158.113
757.4343, 7266.291
757.9164, 7354.813
758.3986, 7435.032
758.8807, 7513.517
759.3628, 7586.953
759.8449, 7672.720
760.3270, 7775.667
760.8091, 7877.793
761.2913, 7963.131
761.7734, 8031.208
762.2555, 8084.093
762.7376, 8123.584
763.2197, 8145.854
763.7018, 8152.816
764.1840, 8139.140
764.6661, 8097.364
765.1482, 8021.233
765.6303, 7922.241
766.1124, 7784.959
766.5945, 7632.925
767.0767, 7499.419
767.5588, 7386.769
768.0409, 7283.335
768.5230, 7186.644
769.0051, 7098.133
769.4872, 7020.662
769.9694, 6952.305
770.4515, 6887.632
770.9336, 6822.422
771.4157, 6762.531
771.8978, 6715.246
772.3799, 6677.295
772.8621, 6641.598
773.3442, 6601.696
773.8263, 6568.519
774.3084, 6550.901
774.7905, 6542.372
775.2726, 6519.310
775.7548, 6475.322
776.2369, 6438.900
776.7190, 6421.654
777.2011, 6418.450
777.6832, 6416.879
778.1653, 6416.685
778.6475, 6415.978
779.1296, 6415.178
779.6117, 6412.132
780.0938, 6403.761
780.5759, 6390.791
781.0580, 6377.682
781.5402, 6360.297
782.0223, 6348.528
782.5044, 6347.669
782.9865, 6357.035
783.4686, 6363.378
783.9507, 6366.766
784.4329, 6366.675
784.9150, 6359.920
785.3971, 6349.395
785.8792, 6345.743
786.3613, 6348.945
786.8434, 6358.090
787.3256, 6375.983
787.8077, 6397.252
788.2898, 6419.303
788.7719, 6442.028
789.2540, 6458.826
789.7361, 6468.473
790.2183, 6470.560
790.7004, 6460.264
791.1825, 6433.124
791.6646, 6431.998
792.1467, 6461.212
792.6288, 6498.130
793.1110, 6528.994
793.5930, 6552.785
794.0751, 6564.119
794.5573, 6561.964
795.0394, 6562.712
795.5215, 6580.966
796.0036, 6606.018
796.4857, 6629.554
796.9678, 6650.716
797.4500, 6668.247
797.9321, 6671.682
798.4142, 6682.250
798.8963, 6718.033
799.3784, 6784.506
799.8605, 6843.388
800.3427, 6893.448
800.8248, 6938.326
801.3069, 6981.740
801.7890, 7023.167
802.2711, 7057.466
802.7532, 7079.945
803.2354, 7117.752
803.7175, 7201.826
804.1996, 7301.792
804.6817, 7389.055
805.1638, 7447.485
805.6459, 7514.042
806.1281, 7586.499
806.6102, 7670.309
807.0923, 7768.083
807.5744, 7880.157
808.0565, 8019.976
808.5386, 8193.466
809.0208, 8369.729
809.5029, 8507.595
809.9850, 8624.448
810.4671, 8748.937
810.9492, 8891.880
811.4313, 9030.734
811.9135, 9160.657
812.3956, 9278.877
812.8777, 9383.165
813.3598, 9477.277
813.8419, 9552.995
814.3240, 9617.873
814.8062, 9650.914
815.2883, 9618.026
815.7704, 9526.138
816.2525, 9415.844
816.7346, 9293.669
817.2167, 9158.863
817.6989, 9007.148
818.1810, 8843.416
818.6631, 8673.142
819.1452, 8483.520
819.6273, 8308.545
820.1094, 8162.410
820.5916, 8032.204
821.0737, 7903.645
821.5558, 7773.542
822.0379, 7664.809
822.5200, 7583.553
823.0021, 7517.526
823.4843, 7446.855
823.9664, 7377.143
824.4485, 7324.132
824.9306, 7297.370
825.4127, 7273.397
825.8948, 7224.356
826.3770, 7173.087
826.8591, 7147.699
827.3412, 7195.627
827.8233, 7209.827
828.3054, 7172.821
828.7875, 7114.843
829.2697, 7073.828
829.7518, 7049.449
830.2339, 7046.441
830.7160, 7071.124
831.1981, 7097.520
831.6802, 7091.349
832.1624, 7066.127
832.6445, 7045.331
833.1266, 7041.969
833.6087, 7032.159
834.0908, 6993.542
834.5729, 6950.966
835.0551, 6935.156
835.5372, 6957.994
836.0193, 6978.067
836.5014, 6994.469
836.9835, 7002.217
837.4656, 6986.361
837.9478, 6954.236
838.4299, 6936.604
838.9120, 6944.420
839.3941, 6952.249
839.8762, 6932.830
840.3583, 6903.771
840.8405, 6886.550
841.3226, 6896.252
841.8047, 6903.145
842.2868, 6908.349
842.7689, 6907.221
843.2510, 6888.771
843.7332, 6850.546
844.2153, 6834.984
844.6974, 6851.061
845.1795, 6874.247
845.6616, 6877.457
846.1437, 6866.864
846.6259, 6851.219
847.1080, 6829.395
847.5901, 6811.939
848.0722, 6806.819
848.5543, 6806.295
849.0364, 6802.854
849.5186, 6797.399
850.0007, 6785.286
850.4828, 6763.585
850.9649, 6742.135
851.4470, 6733.033
851.9291, 6733.906
852.4113, 6736.658
852.8934, 6741.060
853.3755, 6741.368
853.8576, 6725.815
854.3397, 6708.109
854.8218, 6702.346
855.3040, 6716.152
855.7860, 6729.619
856.2681, 6747.291
856.7502, 6756.940
857.2324, 6741.559
857.7145, 6700.184
858.1966, 6686.873
858.6787, 6706.362
859.1608, 6733.087
859.6429, 6746.934
860.1251, 6751.604
860.6072, 6751.801
861.0893, 6747.771
861.5714, 6741.462
862.0535, 6726.816
862.5356, 6715.763
863.0178, 6717.345
863.4999, 6734.823
863.9820, 6743.107
864.4641, 6740.336
864.9462, 6735.410
865.4283, 6735.457
865.9105, 6738.645
866.3926, 6741.318
866.8747, 6743.217
867.3568, 6742.501
867.8389, 6731.310
868.3210, 6722.715
868.8032, 6729.515
869.2853, 6755.610
869.7674, 6764.304
870.2495, 6746.880
870.7316, 6728.739
871.2137, 6721.217
871.6959, 6723.958
872.1780, 6742.854
872.6601, 6775.798
873.1422, 6792.865
873.6243, 6756.872
874.1064, 6709.512
874.5886, 6684.122
875.0707, 6681.270
875.5528, 6692.897
876.0349, 6732.703
876.5170, 6768.648
876.9991, 6792.131
877.4813, 6804.095
877.9634, 6809.448
878.4455, 6808.189
878.9276, 6799.723
879.4097, 6776.647
879.8918, 6752.381
880.3740, 6746.035
880.8561, 6754.096
881.3382, 6765.826
881.8203, 6786.962
882.3024, 6800.023
882.7845, 6794.319
883.2667, 6777.534
883.7488, 6767.353
884.2309, 6764.982
884.7130, 6761.811
885.1951, 6752.776
885.6772, 6746.348
886.1594, 6761.268
886.6415, 6790.360
887.1236, 6816.108
887.6057, 6835.678
888.0878, 6845.458
888.5699, 6834.264
889.0521, 6815.375
889.5342, 6811.087
890.0163, 6831.159
890.4984, 6841.046
890.9805, 6833.068
891.4626, 6822.857
891.9448, 6836.563
892.4269, 6867.395
892.9090, 6892.351
893.3911, 6905.068
893.8732, 6915.993
894.3553, 6936.609
894.8375, 6956.985
895.3196, 6965.620
895.8017, 6949.735
896.2838, 6946.259
896.7659, 6963.209
897.2480, 6979.125
897.7302, 6972.014
898.2123, 6945.474
898.6944, 6921.507
899.1765, 6901.953
899.6586, 6885.320
900.1407, 6863.776
900.6229, 6849.582
901.1050, 6860.369
901.5871, 6903.385
902.0692, 6928.138
902.5513, 6919.863
903.0334, 6907.161
903.5156, 6904.674
903.9977, 6911.177
904.4798, 6909.257
904.9619, 6898.977
905.4440, 6891.971
905.9261, 6897.628
906.4083, 6909.059
906.8904, 6920.854
907.3725, 6932.419
907.8546, 6942.355
908.3367, 6954.969
908.8188, 6959.248
909.3010, 6945.161
909.7831, 6921.923
910.2652, 6930.796
910.7473, 6972.234
911.2294, 7005.214
911.7115, 7010.948
912.1937, 7004.681
912.6758, 7005.855
913.1579, 7010.238
913.6400, 7008.756
914.1221, 6991.653
914.6042, 6976.245
915.0864, 6963.188
915.5685, 6955.417
916.0506, 6959.063
916.5327, 6975.240
917.0148, 6993.286
917.4969, 7012.774
917.9790, 7029.818
918.4611, 7040.444
918.9432, 7045.310
919.4254, 7043.740
919.9075, 7030.986
920.3896, 7025.138
920.8717, 7034.788
921.3538, 7051.830
921.8359, 7071.692
922.3181, 7096.247
922.8002, 7110.914
923.2823, 7114.118
923.7644, 7114.879
924.2465, 7116.750
924.7286, 7123.014
925.2108, 7141.789
925.6929, 7173.298
926.1750, 7202.006
926.6571, 7222.544
927.1392, 7237.516
927.6213, 7245.490
928.1035, 7247.609
928.5856, 7264.427
929.0677, 7299.336
929.5498, 7325.291
930.0319, 7324.265
930.5140, 7309.622
930.9962, 7295.710
931.4783, 7286.470
931.9604, 7294.706
932.4425, 7341.683
932.9246, 7389.009
933.4067, 7429.012
933.8889, 7459.404
934.3710, 7471.340
934.8531, 7460.099
935.3352, 7461.590
935.8173, 7485.839
936.2994, 7519.440
936.7816, 7542.886
937.2637, 7562.016
937.7458, 7587.873
938.2279, 7627.328
938.7100, 7664.954
939.1921, 7694.697
939.6743, 7720.363
940.1564, 7744.695
940.6385, 7766.263
941.1206, 7797.869
941.6027, 7843.219
942.0848, 7880.059
942.5670, 7874.748
943.0491, 7853.892
943.5312, 7864.554
944.0133, 7910.660
944.4954, 7939.062
944.9775, 7897.136
945.4597, 7865.144
945.9418, 7884.276
946.4239, 7949.646
946.9060, 8006.654
947.3881, 8057.131
947.8702, 8078.210
948.3524, 8035.347
948.8345, 7976.013
949.3166, 7972.149
949.7987, 8007.394
950.2808, 8037.340
950.7629, 8035.817
951.2451, 8038.479
951.7272, 8056.164
952.2093, 8080.966
952.6914, 8100.282
953.1735, 8114.063
953.6556, 8118.273
954.1378, 8108.508
954.6199, 8101.624
955.1020, 8121.479
955.5841, 8153.995
956.0662, 8180.255
956.5483, 8195.146
957.0305, 8206.604
957.5126, 8214.036
957.9947, 8221.033
958.4768, 8229.437
958.9589, 8239.322
959.4410, 8251.550
959.9232, 8266.113
960.4053, 8287.853
960.8874, 8331.100
961.3695, 8375.804
961.8516, 8394.082
962.3337, 8389.223
962.8159, 8404.273
963.2980, 8459.345
963.7801, 8517.723
964.2622, 8571.541
964.7443, 8621.279
965.2264, 8662.946
965.7086, 8698.934
966.1907, 8747.486
966.6728, 8822.654
967.1549, 8902.021
967.6370, 8973.745
968.1191, 9035.203
968.6013, 9079.840
969.0834, 9084.829
969.5655, 9114.784
970.0476, 9183.117
970.5297, 9256.590
971.0118, 9288.362
971.4940, 9292.730
971.9761, 9333.665
972.4582, 9420.197
972.9403, 9502.818
973.4224, 9544.429
973.9045, 9574.471
974.3867, 9619.357
974.8688, 9682.616
975.3509, 9714.180
975.8330, 9702.332
976.3151, 9696.181
976.7972, 9725.023
977.2794, 9772.550
977.7615, 9803.433
978.2436, 9820.457
978.7257, 9834.409
979.2078, 9857.243
979.6899, 9869.858
980.1720, 9859.223
980.6541, 9834.970
981.1362, 9812.525
981.6183, 9791.447
982.1005, 9775.831
982.5826, 9767.520
983.0647, 9760.673
983.5468, 9738.842
984.0289, 9717.358
984.5110, 9720.839
984.9932, 9754.983
985.4753, 9807.699
985.9574, 9894.878
986.4395, 9981.501
986.9216, 10045.04
987.4037, 10086.34
987.8859, 10147.59
988.3680, 10228.27
988.8501, 10324.20
989.3322, 10430.63
989.8143, 10552.36
990.2964, 10701.37
990.7786, 10870.27
991.2607, 11037.74
991.7428, 11191.37
992.2249, 11352.19
992.7070, 11520.71
993.1891, 11702.01
993.6713, 11906.33
994.1534, 12130.85
994.6355, 12356.38
995.1176, 12576.03
995.5997, 12809.75
996.0818, 13080.95
996.5640, 13367.80
997.0461, 13647.04
997.5282, 13906.79
998.0103, 14193.83
998.4924, 14514.54
998.9745, 14846.45
999.4567, 15172.59
999.9388, 15500.24
1000.421, 15828.45
1000.903, 16163.73
1001.385, 16535.09
1001.867, 17008.66
1002.349, 17460.62
1002.831, 17833.44
1003.314, 18147.57
1003.796, 18440.73
1004.278, 18713.71
1004.760, 18987.78
1005.242, 19280.29
1005.724, 19544.98
1006.206, 19731.88
1006.688, 19857.35
1007.171, 19950.25
1007.653, 20025.62
1008.135, 20041.71
1008.617, 19986.48
1009.099, 19888.73
1009.581, 19762.35
1010.063, 19607.10
1010.545, 19440.84
1011.027, 19263.11
1011.510, 19065.33
1011.992, 18838.56
1012.474, 18594.90
1012.956, 18338.27
1013.438, 18069.75
1013.920, 17803.82
1014.402, 17555.04
1014.884, 17271.59
1015.367, 16925.47
1015.849, 16571.66
1016.331, 16312.54
1016.813, 16109.51
1017.295, 15871.17
1017.777, 15566.75
1018.259, 15271.89
1018.741, 15022.85
1019.223, 14791.30
1019.706, 14553.80
1020.188, 14309.95
1020.670, 14090.16
1021.152, 13894.72
1021.634, 13716.92
1022.116, 13557.66
1022.598, 13411.78
1023.080, 13271.50
1023.563, 13139.42
1024.045, 13028.92
1024.527, 12966.90
1025.009, 12882.26
1025.491, 12750.78
1025.973, 12612.99
1026.455, 12549.55
1026.937, 12539.66
1027.419, 12498.59
1027.901, 12404.97
1028.384, 12312.00
1028.866, 12265.28
1029.348, 12225.10
1029.830, 12156.20
1030.312, 12056.75
1030.794, 11975.43
1031.276, 11914.51
1031.758, 11859.65
1032.241, 11800.64
1032.723, 11745.39
1033.205, 11715.79
1033.687, 11699.67
1034.169, 11663.06
1034.651, 11573.45
1035.133, 11490.27
1035.615, 11424.21
1036.098, 11366.38
1036.580, 11309.06
1037.062, 11250.17
1037.544, 11168.49
1038.026, 11058.63
1038.508, 10952.23
1038.990, 10879.11
1039.472, 10813.21
1039.954, 10733.91
1040.437, 10639.59
1040.919, 10543.01
1041.401, 10443.82
1041.883, 10341.45
1042.365, 10231.08
1042.847, 10121.56
1043.329, 10032.23
1043.811, 9955.643
1044.293, 9874.415
1044.776, 9774.158
1045.258, 9681.271
1045.740, 9604.093
1046.222, 9533.527
1046.704, 9458.271
1047.186, 9378.881
1047.668, 9313.983
1048.150, 9264.262
1048.633, 9212.455
1049.115, 9138.181
1049.597, 9063.494
1050.079, 9006.252
1050.561, 8966.213
1051.043, 8925.702
1051.525, 8883.801
1052.007, 8846.771
1052.490, 8819.582
1052.972, 8791.755
1053.454, 8738.838
1053.936, 8673.746
1054.418, 8622.332
1054.900, 8595.447
1055.382, 8572.452
1055.864, 8551.964
1056.346, 8528.883
1056.828, 8496.658
1057.311, 8456.348
1057.793, 8434.146
1058.275, 8428.741
1058.757, 8419.797
1059.239, 8391.442
1059.721, 8358.336
1060.203, 8325.171
1060.685, 8296.295
1061.168, 8283.618
1061.650, 8296.251
1062.132, 8296.767
1062.614, 8279.490
1063.096, 8251.873
1063.578, 8208.450
1064.060, 8166.902
1064.542, 8162.848
1065.025, 8205.177
1065.507, 8234.219
1065.989, 8226.604
1066.471, 8207.039
1066.953, 8179.485
1067.435, 8148.208
1067.917, 8131.207
1068.399, 8127.667
1068.881, 8133.898
1069.364, 8152.999
1069.846, 8174.084
1070.328, 8193.969
1070.810, 8209.753
1071.292, 8216.476
1071.774, 8209.583
1072.256, 8212.154
1072.738, 8225.836
1073.220, 8239.514
1073.703, 8234.429
1074.185, 8229.307
1074.667, 8255.461
1075.149, 8307.738
1075.631, 8347.083
1076.113, 8358.418
1076.595, 8363.860
1077.077, 8363.902
1077.559, 8365.333
1078.042, 8386.339
1078.524, 8419.331
1079.006, 8436.248
1079.488, 8426.748
1079.970, 8425.748
1080.452, 8461.675
1080.934, 8504.264
1081.416, 8532.938
1081.899, 8548.378
1082.381, 8566.316
1082.863, 8586.562
1083.345, 8611.697
1083.827, 8646.235
1084.309, 8681.880
1084.791, 8704.360
1085.273, 8724.648
1085.755, 8763.849
1086.238, 8829.900
1086.720, 8904.693
1087.202, 8993.616
1087.684, 9072.862
1088.166, 9111.605
1088.648, 9128.184
1089.130, 9153.941
1089.612, 9191.898
1090.094, 9247.897
1090.577, 9340.797
1091.059, 9432.364
1091.541, 9509.895
1092.023, 9581.654
1092.505, 9670.777
1092.987, 9772.700
1093.469, 9862.847
1093.951, 9931.240
1094.434, 10008.75
1094.916, 10126.03
1095.398, 10253.46
1095.880, 10368.81
1096.362, 10472.51
1096.844, 10557.17
1097.326, 10622.05
1097.808, 10682.87
1098.291, 10752.40
1098.773, 10816.68
1099.255, 10857.72
1099.737, 10881.44
1100.219, 10897.46
1100.701, 10920.15
1101.183, 10909.07
1101.665, 10854.57
1102.147, 10789.58
1102.630, 10739.64
1103.112, 10704.37
1103.594, 10686.61
1104.076, 10684.30
1104.558, 10682.40
1105.040, 10683.18
1105.522, 10670.22
1106.004, 10627.51
1106.486, 10579.91
1106.969, 10585.44
1107.451, 10633.96
1107.933, 10664.53
1108.415, 10661.52
1108.897, 10668.91
1109.379, 10745.62
1109.861, 10818.43
1110.343, 10821.43
1110.826, 10763.85
1111.308, 10764.01
1111.790, 10824.97
1112.272, 10885.06
1112.754, 10918.25
1113.236, 10942.11
1113.718, 10968.38
1114.200, 11000.07
1114.682, 11044.12
1115.165, 11119.00
1115.647, 11156.33
1116.129, 11145.17
1116.611, 11131.19
1117.093, 11161.38
1117.575, 11205.81
1118.057, 11202.14
1118.539, 11163.00
1119.021, 11139.91
1119.504, 11167.44
1119.986, 11189.48
1120.468, 11197.02
1120.950, 11197.78
1121.432, 11194.89
1121.914, 11194.57
1122.396, 11218.06
1122.878, 11267.98
1123.361, 11335.64
1123.843, 11438.33
1124.325, 11533.54
1124.807, 11592.46
1125.289, 11632.52
1125.771, 11710.88
1126.253, 11826.50
1126.735, 11972.11
1127.218, 12155.27
1127.700, 12334.83
1128.182, 12462.44
1128.664, 12581.19
1129.146, 12741.49
1129.628, 12946.17
1130.110, 13117.42
1130.592, 13251.62
1131.074, 13385.76
1131.557, 13548.36
1132.039, 13711.70
1132.521, 13846.13
1133.003, 13954.94
1133.485, 14040.65
1133.967, 14104.43
1134.449, 14144.58
1134.931, 14158.32
1135.413, 14160.85
1135.896, 14189.54
1136.378, 14204.19
1136.860, 14122.64
1137.342, 13958.65
1137.824, 13786.82
1138.306, 13615.07
1138.788, 13460.62
1139.270, 13331.23
1139.752, 13208.38
1140.235, 13064.98
1140.717, 12905.26
1141.199, 12729.75
1141.681, 12539.02
1142.163, 12374.29
1142.645, 12286.10
1143.127, 12194.86
1143.609, 12069.82
1144.092, 11920.42
1144.574, 11775.59
1145.056, 11635.41
1145.538, 11507.98
1146.020, 11400.71
1146.502, 11290.25
1146.984, 11156.66
1147.466, 11022.83
1147.948, 10904.19
1148.431, 10801.21
1148.913, 10708.15
1149.395, 10624.01
1149.877, 10539.38
1150.359, 10451.52
1150.841, 10357.93
1151.323, 10244.92
1151.805, 10127.68
1152.287, 10029.24
1152.770, 9958.211
1153.252, 9868.071
1153.734, 9753.669
1154.216, 9651.748
1154.698, 9603.598
1155.180, 9572.607
1155.662, 9526.506
1156.144, 9465.784
1156.627, 9392.680
1157.109, 9300.977
1157.591, 9217.765
1158.073, 9146.266
1158.555, 9082.172
1159.037, 9016.448
1159.519, 8956.453
1160.001, 8917.171
1160.484, 8897.586
1160.966, 8871.303
1161.448, 8831.524
1161.930, 8787.902
1162.412, 8740.565
1162.894, 8693.362
1163.376, 8649.469
1163.858, 8611.344
1164.340, 8587.554
1164.823, 8581.842
1165.305, 8570.451
1165.787, 8545.183
1166.269, 8515.628
1166.751, 8480.632
1167.233, 8448.559
1167.715, 8455.021
1168.197, 8484.189
1168.679, 8483.026
1169.162, 8416.060
1169.644, 8365.662
1170.126, 8374.369
1170.608, 8393.703
1171.090, 8395.733
1171.572, 8383.456
1172.054, 8376.602
1172.536, 8374.265
1173.019, 8372.327
1173.501, 8371.735
1173.983, 8367.066
1174.465, 8352.898
1174.947, 8335.790
1175.429, 8316.139
1175.911, 8294.952
1176.393, 8311.721
1176.875, 8364.084
1177.358, 8406.170
1177.840, 8400.618
1178.322, 8385.376
1178.804, 8376.034
1179.286, 8373.029
1179.768, 8378.482
1180.250, 8392.547
1180.732, 8402.193
1181.214, 8405.807
1181.697, 8411.896
1182.179, 8437.664
1182.661, 8458.514
1183.143, 8448.538
1183.625, 8418.982
1184.107, 8410.653
1184.589, 8425.385
1185.071, 8432.900
1185.554, 8427.622
1186.036, 8413.041
1186.518, 8378.411
1187.000, 8346.639
1187.482, 8345.872
1187.964, 8373.145
1188.446, 8380.234
1188.928, 8365.499
1189.411, 8345.810
1189.893, 8324.362
1190.375, 8306.205
1190.857, 8297.400
1191.339, 8294.865
1191.821, 8297.438
1192.303, 8306.268
1192.785, 8304.652
1193.267, 8290.756
1193.750, 8278.361
1194.232, 8276.091
1194.714, 8274.737
1195.196, 8254.072
1195.678, 8230.819
1196.160, 8234.106
1196.642, 8284.592
1197.124, 8299.253
1197.606, 8270.928
1198.089, 8244.685
1198.571, 8262.356
1199.053, 8288.313
1199.535, 8270.250
1200.017, 8227.474
1200.499, 8201.189
1200.981, 8206.866
1201.463, 8204.943
1201.945, 8191.210
1202.428, 8184.929
1202.910, 8217.589
1203.392, 8256.169
1203.874, 8252.462
1204.356, 8216.627
1204.838, 8187.128
1205.320, 8166.859
1205.802, 8160.779
1206.285, 8172.616
1206.767, 8185.907
1207.249, 8180.681
1207.731, 8168.231
1208.213, 8161.380
1208.695, 8161.383
1209.177, 8171.986
1209.659, 8204.957
1210.141, 8215.956
1210.624, 8192.169
1211.106, 8160.601
1211.588, 8144.854
1212.070, 8147.244
1212.552, 8186.511
1213.034, 8260.896
1213.516, 8282.850
1213.998, 8222.576
1214.480, 8173.084
1214.963, 8158.075
1215.445, 8160.540
1215.927, 8160.233
1216.409, 8158.993
1216.891, 8160.753
1217.373, 8166.808
1217.855, 8164.862
1218.337, 8146.461
1218.820, 8145.008
1219.302, 8181.253
1219.784, 8222.110
1220.266, 8203.402
1220.748, 8159.327
1221.230, 8143.648
1221.712, 8174.309
1222.194, 8196.834
1222.677, 8209.812
1223.159, 8209.975
1223.641, 8189.648
1224.123, 8164.344
1224.605, 8161.176
1225.087, 8169.029
1225.569, 8169.269
1226.051, 8152.589
1226.533, 8142.667
1227.016, 8140.288
1227.498, 8142.772
1227.980, 8146.791
1228.462, 8156.506
1228.944, 8188.215
1229.426, 8227.580
1229.908, 8247.520
1230.390, 8233.513
1230.872, 8218.655
1231.355, 8202.275
1231.837, 8188.759
1232.319, 8181.939
1232.801, 8179.527
1233.283, 8177.012
1233.765, 8176.763
1234.247, 8185.554
1234.729, 8213.281
1235.212, 8224.630
1235.694, 8216.345
1236.176, 8203.056
1236.658, 8190.619
1237.140, 8184.170
1237.622, 8201.983
1238.104, 8229.797
1238.586, 8222.487
1239.068, 8156.092
1239.551, 8135.920
1240.033, 8176.108
1240.515, 8218.359
1240.997, 8196.995
1241.479, 8165.208
1241.961, 8191.817
1242.443, 8254.671
1242.925, 8269.244
1243.407, 8219.051
1243.890, 8188.407
1244.372, 8187.282
1244.854, 8199.232
1245.336, 8216.813
1245.818, 8233.733
1246.300, 8244.272
1246.782, 8248.342
1247.264, 8246.214
1247.747, 8235.180
1248.229, 8240.746
1248.711, 8268.442
1249.193, 8297.226
1249.675, 8314.305
1250.157, 8321.118
1250.639, 8316.703
1251.121, 8303.384
1251.604, 8284.619
1252.086, 8260.341
1252.568, 8246.526
1253.050, 8247.329
1253.532, 8250.705
1254.014, 8247.768
1254.496, 8243.221
1254.978, 8236.284
1255.460, 8230.911
1255.943, 8243.871
1256.425, 8273.540
1256.907, 8299.884
1257.389, 8319.821
1257.871, 8328.464
1258.353, 8312.774
1258.835, 8294.037
1259.317, 8284.933
1259.799, 8282.703
1260.281, 8273.287
1260.764, 8260.705
1261.246, 8274.322
1261.728, 8331.101
1262.210, 8363.043
1262.692, 8302.992
1263.174, 8245.581
1263.656, 8239.106
1264.138, 8267.090
1264.621, 8285.458
1265.103, 8295.067
1265.585, 8297.368
1266.067, 8291.414
1266.549, 8284.172
1267.031, 8271.117
1267.513, 8267.081
1267.995, 8281.942
1268.478, 8306.263
1268.960, 8315.642
1269.442, 8315.459
1269.924, 8318.974
1270.406, 8329.968
1270.888, 8342.507
1271.370, 8357.605
1271.852, 8367.872
1272.334, 8365.876
1272.817, 8361.120
1273.299, 8380.689
1273.781, 8408.891
1274.263, 8414.694
1274.745, 8378.648
1275.227, 8361.609
1275.709, 8369.637
1276.191, 8383.632
1276.673, 8395.948
1277.156, 8407.153
1277.638, 8418.749
1278.120, 8429.805
1278.602, 8438.110
1279.084, 8441.238
1279.566, 8458.124
1280.048, 8493.408
1280.530, 8506.617
1281.013, 8461.754
1281.495, 8408.438
1281.977, 8393.213
1282.459, 8401.023
1282.941, 8416.719
1283.423, 8441.590
1283.905, 8436.393
1284.387, 8401.362
1284.870, 8387.006
1285.352, 8440.029
1285.834, 8490.420
1286.316, 8482.992
1286.798, 8455.698
1287.280, 8447.272
1287.762, 8457.279
1288.244, 8472.311
1288.726, 8490.067
1289.208, 8495.282
1289.691, 8466.753
1290.173, 8445.580
##END=



