##NAMES=Emmonsite
##RRUFFID=R060802
##IDEAL CHEMISTRY=Fe^3+^_2_(Te^4+^O_3_)_3_&#183;2H_2_O
##LOCALITY=Moctezuma mine, Moctezuma, Sonora, Mexico
##OWNER=RRUFF
##SOURCE=Michael Scott
##DESCRIPTION=Spray of green globular aggregates associated with pale yellow schmitterite, R060524
##STATUS=The identification of this mineral is confirmed by single-crystal X-ray diffraction and chemical analysis.
##URL=rruff.info/R060802
##MEASURED CHEMISTRY=(Fe^3+^_1.89_Al_0.11_)_Σ=2_(Te^4+^_1.00_O_3_)_3_·2.01H_2_O; H_2_O estimated by difference
147.4850, 1472.457
147.9671, 1473.564
148.4492, 1477.648
148.9313, 1482.906
149.4134, 1487.387
149.8955, 1490.948
150.3777, 1498.723
150.8598, 1516.960
151.3419, 1534.439
151.8240, 1548.278
152.3061, 1558.112
152.7882, 1564.603
153.2704, 1568.535
153.7525, 1570.152
154.2346, 1567.792
154.7167, 1560.150
155.1988, 1550.514
155.6809, 1540.023
156.1631, 1529.162
156.6452, 1518.618
157.1273, 1509.268
157.6094, 1501.135
158.0915, 1494.587
158.5736, 1488.986
159.0558, 1485.225
159.5379, 1484.110
160.0200, 1485.867
160.5021, 1490.311
160.9842, 1497.379
161.4663, 1506.665
161.9485, 1518.884
162.4306, 1535.447
162.9127, 1554.986
163.3948, 1575.015
163.8769, 1594.522
164.3590, 1614.666
164.8412, 1637.274
165.3233, 1662.802
165.8054, 1688.600
166.2875, 1713.280
166.7696, 1736.995
167.2517, 1760.030
167.7339, 1781.995
168.2160, 1803.689
168.6981, 1825.642
169.1802, 1847.881
169.6623, 1870.275
170.1444, 1893.130
170.6266, 1916.804
171.1087, 1938.398
171.5908, 1956.092
172.0729, 1971.758
172.5550, 1986.813
173.0371, 2001.680
173.5193, 2015.118
174.0014, 2024.810
174.4835, 2028.564
174.9656, 2033.105
175.4477, 2043.596
175.9298, 2053.361
176.4120, 2055.670
176.8941, 2047.689
177.3762, 2033.174
177.8583, 2022.632
178.3404, 2020.252
178.8225, 2016.615
179.3047, 2009.601
179.7868, 2001.279
180.2689, 1993.786
180.7510, 1988.235
181.2331, 1984.528
181.7152, 1982.434
182.1973, 1985.733
182.6795, 1986.353
183.1616, 1982.938
183.6437, 1975.922
184.1258, 1966.477
184.6079, 1955.521
185.0900, 1942.398
185.5722, 1922.804
186.0543, 1898.367
186.5364, 1867.760
187.0185, 1829.054
187.5006, 1783.598
187.9827, 1734.229
188.4649, 1682.191
188.9470, 1627.676
189.4291, 1573.010
189.9112, 1515.790
190.3933, 1460.182
190.8754, 1409.151
191.3576, 1362.428
191.8397, 1319.260
192.3218, 1279.346
192.8039, 1242.904
193.2860, 1209.329
193.7681, 1178.387
194.2503, 1150.463
194.7324, 1126.035
195.2145, 1105.093
195.6966, 1087.067
196.1787, 1072.655
196.6608, 1060.748
197.1430, 1050.467
197.6251, 1041.572
198.1072, 1034.158
198.5893, 1028.566
199.0714, 1025.164
199.5535, 1022.657
200.0357, 1020.156
200.5178, 1018.217
200.9999, 1017.673
201.4820, 1019.135
201.9641, 1021.934
202.4462, 1024.214
202.9284, 1025.794
203.4105, 1027.109
203.8926, 1027.465
204.3747, 1027.892
204.8568, 1029.807
205.3389, 1034.138
205.8211, 1040.313
206.3032, 1045.687
206.7853, 1050.222
207.2674, 1053.866
207.7495, 1055.563
208.2316, 1056.638
208.7138, 1058.939
209.1959, 1063.630
209.6780, 1070.409
210.1601, 1076.948
210.6422, 1083.524
211.1243, 1089.543
211.6065, 1094.059
212.0886, 1098.037
212.5707, 1102.980
213.0528, 1109.845
213.5349, 1118.488
214.0170, 1127.503
214.4992, 1136.953
214.9813, 1146.609
215.4634, 1156.761
215.9455, 1167.037
216.4276, 1176.694
216.9097, 1185.053
217.3918, 1192.377
217.8740, 1201.117
218.3561, 1213.333
218.8382, 1224.492
219.3203, 1232.457
219.8024, 1237.868
220.2845, 1242.700
220.7667, 1248.216
221.2488, 1254.091
221.7309, 1258.650
222.2130, 1261.452
222.6951, 1263.556
223.1772, 1265.449
223.6594, 1267.093
224.1415, 1268.246
224.6236, 1268.649
225.1057, 1268.479
225.5878, 1268.448
226.0699, 1268.299
226.5521, 1268.559
227.0342, 1269.582
227.5163, 1271.348
227.9984, 1273.625
228.4805, 1276.326
228.9626, 1279.534
229.4448, 1283.230
229.9269, 1287.302
230.4090, 1292.012
230.8911, 1297.685
231.3732, 1304.299
231.8553, 1311.473
232.3375, 1319.259
232.8196, 1327.425
233.3017, 1335.559
233.7838, 1343.486
234.2659, 1351.677
234.7480, 1360.660
235.2302, 1370.504
235.7123, 1380.515
236.1944, 1390.759
236.6765, 1400.899
237.1586, 1410.654
237.6407, 1419.974
238.1229, 1428.891
238.6050, 1437.390
239.0871, 1445.383
239.5692, 1453.227
240.0513, 1461.049
240.5334, 1468.761
241.0156, 1476.470
241.4977, 1484.161
241.9798, 1491.525
242.4619, 1498.059
242.9440, 1503.642
243.4261, 1508.882
243.9083, 1514.588
244.3904, 1519.504
244.8725, 1522.812
245.3546, 1524.351
245.8367, 1524.434
246.3188, 1523.247
246.8010, 1520.355
247.2831, 1517.512
247.7652, 1515.304
248.2473, 1512.853
248.7294, 1509.625
249.2115, 1505.543
249.6937, 1500.927
250.1758, 1496.096
250.6579, 1490.801
251.1400, 1485.913
251.6221, 1481.273
252.1042, 1477.069
252.5863, 1473.093
253.0685, 1469.487
253.5506, 1467.010
254.0327, 1466.744
254.5148, 1469.585
254.9969, 1471.843
255.4790, 1473.223
255.9612, 1474.390
256.4433, 1475.341
256.9254, 1476.290
257.4075, 1477.756
257.8896, 1480.188
258.3718, 1483.375
258.8539, 1488.665
259.3360, 1497.499
259.8181, 1506.691
260.3002, 1514.422
260.7823, 1520.857
261.2645, 1527.400
261.7466, 1535.378
262.2287, 1544.972
262.7108, 1554.751
263.1929, 1564.237
263.6750, 1574.259
264.1572, 1585.873
264.6393, 1598.622
265.1214, 1610.878
265.6035, 1621.330
266.0856, 1629.875
266.5677, 1639.015
267.0499, 1650.978
267.5320, 1661.337
268.0141, 1667.755
268.4962, 1670.918
268.9783, 1673.240
269.4604, 1676.498
269.9425, 1680.422
270.4247, 1681.419
270.9068, 1678.963
271.3889, 1674.896
271.8710, 1670.343
272.3531, 1664.748
272.8352, 1656.740
273.3174, 1645.527
273.7995, 1631.301
274.2816, 1614.731
274.7637, 1595.362
275.2458, 1574.818
275.7279, 1553.648
276.2101, 1531.613
276.6922, 1508.149
277.1743, 1482.633
277.6564, 1456.027
278.1385, 1430.440
278.6206, 1406.336
279.1028, 1382.407
279.5849, 1357.920
280.0670, 1333.541
280.5491, 1310.399
281.0312, 1288.958
281.5133, 1268.671
281.9955, 1248.480
282.4776, 1228.204
282.9597, 1208.525
283.4418, 1188.950
283.9239, 1170.065
284.4060, 1152.859
284.8882, 1137.591
285.3703, 1123.702
285.8524, 1110.746
286.3345, 1098.673
286.8166, 1086.794
287.2987, 1074.975
287.7809, 1063.314
288.2630, 1051.612
288.7451, 1039.799
289.2272, 1028.995
289.7093, 1021.315
290.1914, 1016.497
290.6736, 1010.496
291.1557, 1001.277
291.6378, 991.3449
292.1199, 983.3842
292.6020, 977.7018
293.0841, 973.0506
293.5663, 968.7082
294.0484, 964.6370
294.5305, 960.6414
295.0126, 956.2365
295.4947, 952.2324
295.9768, 949.5452
296.4590, 948.1488
296.9411, 946.9241
297.4232, 945.0183
297.9053, 942.8400
298.3874, 941.5144
298.8695, 941.1011
299.3517, 941.5082
299.8338, 942.8419
300.3159, 945.0294
300.7980, 947.5551
301.2801, 950.0560
301.7622, 952.9017
302.2444, 956.7084
302.7265, 961.7257
303.2086, 967.0876
303.6907, 972.2655
304.1728, 977.3951
304.6549, 982.9357
305.1371, 989.2325
305.6192, 995.7802
306.1013, 1001.472
306.5834, 1006.053
307.0655, 1011.757
307.5476, 1020.624
308.0298, 1031.277
308.5119, 1040.315
308.9940, 1046.552
309.4761, 1052.259
309.9582, 1060.374
310.4403, 1070.560
310.9225, 1080.142
311.4046, 1087.462
311.8867, 1093.977
312.3688, 1102.235
312.8509, 1112.814
313.3330, 1123.406
313.8152, 1131.532
314.2973, 1137.933
314.7794, 1144.810
315.2615, 1153.403
315.7436, 1162.241
316.2257, 1169.495
316.7079, 1175.111
317.1900, 1180.658
317.6721, 1187.600
318.1542, 1194.977
318.6363, 1200.608
319.1184, 1203.962
319.6006, 1205.957
320.0827, 1207.490
320.5648, 1208.421
321.0469, 1207.620
321.5290, 1204.344
322.0111, 1199.104
322.4933, 1193.207
322.9754, 1186.682
323.4575, 1179.476
323.9396, 1171.573
324.4217, 1162.947
324.9038, 1153.581
325.3860, 1143.391
325.8681, 1132.486
326.3502, 1120.850
326.8323, 1108.394
327.3144, 1096.203
327.7965, 1084.973
328.2787, 1074.144
328.7608, 1062.741
329.2429, 1050.515
329.7250, 1038.316
330.2071, 1027.063
330.6892, 1016.632
331.1714, 1006.339
331.6535, 995.8370
332.1356, 985.5456
332.6177, 976.0055
333.0998, 967.2441
333.5819, 958.8625
334.0641, 950.4733
334.5462, 942.3491
335.0283, 935.0717
335.5104, 928.8406
335.9925, 923.3041
336.4746, 918.5170
336.9568, 914.3292
337.4389, 910.0697
337.9210, 905.1591
338.4031, 900.2288
338.8852, 896.6918
339.3673, 894.7299
339.8495, 893.4387
340.3315, 892.5511
340.8137, 892.0922
341.2958, 892.1887
341.7779, 892.9445
342.2600, 894.0253
342.7421, 894.9355
343.2242, 895.6215
343.7064, 896.5710
344.1885, 897.9548
344.6706, 899.6100
345.1527, 901.1584
345.6348, 902.5636
346.1169, 904.5903
346.5991, 908.1380
347.0812, 913.3230
347.5633, 917.9649
348.0454, 921.4794
348.5275, 924.9770
349.0096, 929.2805
349.4918, 934.2863
349.9739, 939.2281
350.4560, 943.5661
350.9381, 947.5321
351.4202, 952.3105
351.9023, 958.5262
352.3845, 964.6448
352.8666, 970.0062
353.3487, 975.0004
353.8308, 980.2131
354.3129, 985.8419
354.7950, 991.9744
355.2772, 998.9548
355.7593, 1007.442
356.2414, 1015.280
356.7235, 1021.717
357.2056, 1027.719
357.6877, 1034.226
358.1699, 1041.415
358.6520, 1048.781
359.1341, 1055.789
359.6162, 1062.307
360.0983, 1069.206
360.5804, 1076.655
361.0626, 1084.297
361.5447, 1092.234
362.0268, 1100.300
362.5089, 1107.906
362.9910, 1114.488
363.4731, 1120.326
363.9553, 1127.782
364.4374, 1138.824
364.9195, 1149.160
365.4016, 1157.485
365.8837, 1164.701
366.3658, 1172.174
366.8480, 1180.488
367.3301, 1189.026
367.8122, 1196.339
368.2943, 1200.661
368.7764, 1206.526
369.2585, 1214.403
369.7407, 1223.357
370.2228, 1232.892
370.7049, 1242.827
371.1870, 1253.044
371.6691, 1263.516
372.1512, 1274.314
372.6334, 1284.584
373.1155, 1292.805
373.5976, 1301.950
374.0797, 1313.507
374.5618, 1326.827
375.0439, 1340.552
375.5261, 1353.833
376.0082, 1366.750
376.4903, 1379.759
376.9724, 1392.245
377.4545, 1405.871
377.9366, 1421.266
378.4188, 1437.691
378.9009, 1454.386
379.3830, 1471.065
379.8651, 1488.189
380.3472, 1506.366
380.8293, 1526.150
381.3115, 1545.562
381.7936, 1563.134
382.2757, 1581.335
382.7578, 1602.096
383.2399, 1625.110
383.7220, 1648.247
384.2042, 1669.738
384.6863, 1689.753
385.1684, 1710.128
385.6505, 1731.609
386.1326, 1752.631
386.6147, 1772.623
387.0969, 1791.870
387.5790, 1810.999
388.0611, 1830.800
388.5432, 1850.076
389.0253, 1866.224
389.5074, 1878.452
389.9896, 1891.375
390.4717, 1908.372
390.9538, 1925.599
391.4359, 1939.483
391.9180, 1949.442
392.4001, 1958.262
392.8823, 1968.630
393.3644, 1980.033
393.8465, 1989.444
394.3286, 1996.174
394.8107, 2000.952
395.2928, 2004.008
395.7750, 2005.672
396.2571, 2006.998
396.7392, 2008.671
397.2213, 2010.109
397.7034, 2010.383
398.1855, 2009.428
398.6677, 2008.092
399.1498, 2007.290
399.6319, 2006.195
400.1140, 2003.129
400.5961, 1997.488
401.0782, 1990.810
401.5604, 1983.581
402.0425, 1975.951
402.5246, 1968.431
403.0067, 1961.358
403.4888, 1953.962
403.9709, 1944.782
404.4531, 1933.572
404.9352, 1922.768
405.4173, 1913.033
405.8994, 1903.729
406.3815, 1894.332
406.8636, 1884.783
407.3458, 1875.226
407.8279, 1866.000
408.3100, 1857.007
408.7921, 1846.989
409.2742, 1835.411
409.7563, 1823.613
410.2385, 1811.493
410.7206, 1799.638
411.2027, 1789.160
411.6848, 1780.539
412.1669, 1773.374
412.6490, 1766.931
413.1311, 1761.949
413.6133, 1756.469
414.0954, 1749.723
414.5775, 1743.065
415.0596, 1737.909
415.5417, 1734.094
416.0238, 1729.968
416.5060, 1723.831
416.9881, 1715.627
417.4702, 1708.546
417.9523, 1703.609
418.4344, 1698.686
418.9165, 1692.542
419.3987, 1686.325
419.8808, 1681.776
420.3629, 1679.747
420.8450, 1679.250
421.3271, 1678.302
421.8092, 1676.778
422.2914, 1675.112
422.7735, 1672.899
423.2556, 1670.906
423.7377, 1669.411
424.2198, 1668.547
424.7019, 1668.559
425.1841, 1669.866
425.6662, 1672.362
426.1483, 1674.940
426.6304, 1677.663
427.1125, 1680.356
427.5946, 1682.642
428.0768, 1684.940
428.5589, 1687.822
429.0410, 1691.476
429.5231, 1695.856
430.0052, 1701.415
430.4873, 1708.212
430.9695, 1713.898
431.4516, 1717.537
431.9337, 1719.940
432.4158, 1721.833
432.8979, 1723.213
433.3800, 1725.093
433.8622, 1729.302
434.3443, 1733.941
434.8264, 1735.341
435.3085, 1732.907
435.7906, 1729.215
436.2727, 1726.080
436.7549, 1723.184
437.2370, 1719.260
437.7191, 1714.063
438.2012, 1708.024
438.6833, 1701.478
439.1654, 1694.240
439.6476, 1685.846
440.1297, 1676.127
440.6118, 1665.149
441.0939, 1652.889
441.5760, 1638.857
442.0581, 1624.803
442.5403, 1609.780
443.0224, 1595.496
443.5045, 1583.893
443.9866, 1574.598
444.4687, 1565.509
444.9508, 1554.995
445.4330, 1543.225
445.9151, 1531.545
446.3972, 1521.419
446.8793, 1509.681
447.3614, 1493.598
447.8435, 1476.641
448.3257, 1463.112
448.8078, 1454.225
449.2899, 1447.270
449.7720, 1438.245
450.2541, 1426.380
450.7362, 1415.201
451.2184, 1405.973
451.7005, 1396.267
452.1826, 1384.323
452.6647, 1371.082
453.1468, 1358.787
453.6289, 1349.110
454.1111, 1340.880
454.5932, 1330.918
455.0753, 1318.620
455.5574, 1306.170
456.0395, 1294.281
456.5216, 1282.541
457.0038, 1270.676
457.4859, 1258.544
457.9680, 1246.543
458.4501, 1235.030
458.9322, 1223.854
459.4143, 1212.617
459.8965, 1201.244
460.3786, 1189.941
460.8607, 1178.654
461.3428, 1167.566
461.8249, 1157.223
462.3070, 1147.825
462.7892, 1139.106
463.2713, 1130.843
463.7534, 1123.105
464.2355, 1116.353
464.7176, 1110.906
465.1997, 1106.093
465.6819, 1100.652
466.1640, 1094.328
466.6461, 1088.515
467.1282, 1083.635
467.6103, 1079.129
468.0924, 1074.513
468.5746, 1069.807
469.0567, 1065.241
469.5388, 1060.974
470.0209, 1057.044
470.5030, 1053.633
470.9851, 1052.058
471.4673, 1049.394
471.9494, 1044.795
472.4315, 1039.226
472.9136, 1033.396
473.3957, 1027.606
473.8778, 1022.150
474.3600, 1017.564
474.8421, 1014.070
475.3242, 1009.792
475.8063, 1004.402
476.2884, 998.4626
476.7705, 991.9865
477.2527, 985.1123
477.7348, 978.1176
478.2169, 971.2052
478.6990, 963.9389
479.1811, 955.6330
479.6632, 946.2025
480.1454, 936.1320
480.6275, 925.0046
481.1096, 913.7120
481.5917, 903.1647
482.0738, 893.2816
482.5559, 883.0529
483.0380, 871.8287
483.5201, 859.9791
484.0023, 847.9102
484.4844, 835.6172
484.9665, 823.9258
485.4486, 813.4958
485.9307, 803.9261
486.4128, 794.0843
486.8950, 784.3825
487.3771, 773.6642
487.8592, 760.1930
488.3413, 746.0345
488.8234, 734.0978
489.3055, 724.8395
489.7877, 716.5823
490.2698, 707.8048
490.7519, 698.4540
491.2340, 688.9380
491.7161, 678.9411
492.1982, 669.0608
492.6804, 658.9153
493.1625, 649.1354
493.6446, 640.8914
494.1267, 634.5324
494.6088, 628.7963
495.0909, 621.4874
495.5731, 611.8276
496.0552, 603.0757
496.5373, 595.8360
497.0194, 588.9573
497.5015, 581.8923
497.9836, 574.8657
498.4658, 568.4891
498.9479, 563.2197
499.4300, 558.5483
499.9121, 553.4922
500.3942, 548.0700
500.8763, 542.2946
501.3585, 535.6024
501.8406, 529.0747
502.3227, 523.7476
502.8048, 519.6049
503.2869, 515.5427
503.7690, 510.7452
504.2512, 505.8194
504.7333, 501.9789
505.2154, 499.2529
505.6975, 496.2653
506.1796, 492.0740
506.6617, 487.1047
507.1439, 482.6954
507.6260, 478.7017
508.1081, 475.3470
508.5902, 473.2187
509.0723, 471.4906
509.5544, 469.1044
510.0366, 465.9522
510.5187, 462.7357
511.0008, 460.1315
511.4829, 458.1378
511.9650, 455.9660
512.4471, 453.3289
512.9293, 450.8564
513.4114, 448.7432
513.8935, 446.8275
514.3756, 445.0287
514.8577, 443.2824
515.3398, 441.2989
515.8220, 438.3946
516.3041, 434.3729
516.7862, 431.6747
517.2683, 431.3051
517.7504, 431.0309
518.2325, 429.7404
518.7147, 427.8795
519.1968, 426.2491
519.6789, 425.2041
520.1610, 424.2742
520.6431, 422.9438
521.1252, 421.2504
521.6074, 419.3866
522.0895, 417.1748
522.5716, 415.2700
523.0537, 414.6783
523.5358, 415.2044
524.0179, 415.4659
524.5001, 415.3996
524.9822, 414.8526
525.4643, 413.5030
525.9464, 411.5596
526.4285, 409.5980
526.9106, 407.8431
527.3928, 406.2574
527.8749, 404.7349
528.3570, 402.9904
528.8391, 402.0195
529.3212, 402.6905
529.8033, 403.2790
530.2855, 402.6415
530.7676, 401.1089
531.2497, 399.6772
531.7318, 398.9371
532.2139, 398.6528
532.6960, 398.1867
533.1782, 397.4078
533.6603, 396.8222
534.1424, 397.1599
534.6245, 397.1937
535.1066, 395.7948
535.5887, 393.2793
536.0709, 391.2102
536.5530, 390.8331
537.0351, 391.3242
537.5172, 391.1449
537.9993, 390.2692
538.4814, 389.2971
538.9636, 388.4136
539.4457, 387.6235
539.9278, 386.9529
540.4099, 386.4357
540.8920, 385.8356
541.3741, 384.8115
541.8563, 383.8545
542.3384, 383.5576
542.8205, 383.8590
543.3026, 384.2439
543.7847, 384.4188
544.2668, 384.3732
544.7490, 384.0691
545.2311, 383.7211
545.7132, 382.7598
546.1953, 380.0449
546.6774, 377.5828
547.1595, 377.2323
547.6417, 378.7236
548.1238, 380.2436
548.6059, 380.4067
549.0880, 379.5285
549.5701, 378.8263
550.0522, 378.2773
550.5344, 377.9745
551.0165, 378.3260
551.4986, 378.6931
551.9807, 378.5042
552.4628, 377.7368
552.9449, 376.9590
553.4271, 376.6348
553.9092, 376.4682
554.3913, 375.7768
554.8734, 374.5281
555.3555, 373.6526
555.8376, 373.7920
556.3198, 374.5187
556.8019, 374.7346
557.2840, 374.3656
557.7661, 373.7923
558.2482, 372.8526
558.7303, 371.9043
559.2125, 371.1564
559.6946, 370.6856
560.1767, 370.7006
560.6588, 371.4396
561.1409, 372.5942
561.6230, 372.7631
562.1052, 370.9038
562.5873, 369.8504
563.0694, 370.5861
563.5515, 371.5568
564.0336, 371.4671
564.5157, 370.4531
564.9979, 369.7463
565.4800, 370.5540
565.9621, 372.0776
566.4442, 371.9609
566.9263, 369.8716
567.4084, 368.4413
567.8906, 369.0211
568.3727, 370.4304
568.8548, 371.1985
569.3369, 371.3252
569.8190, 370.9798
570.3011, 369.6797
570.7833, 368.3032
571.2654, 367.8549
571.7475, 368.2280
572.2296, 368.7411
572.7117, 369.1064
573.1938, 369.1687
573.6760, 368.4760
574.1581, 365.7943
574.6402, 364.7022
575.1223, 366.4814
575.6044, 368.5785
576.0865, 369.5480
576.5687, 369.5518
577.0508, 369.3699
577.5329, 369.4202
578.0150, 369.6366
578.4971, 369.9085
578.9792, 370.2564
579.4614, 370.5299
579.9435, 370.6803
580.4256, 370.7666
580.9077, 370.8326
581.3898, 370.8763
581.8719, 370.8832
582.3541, 370.6760
582.8362, 370.5894
583.3183, 371.2894
583.8004, 372.4575
584.2825, 372.7555
584.7646, 371.6508
585.2468, 370.0450
585.7289, 368.9930
586.2110, 368.5160
586.6931, 368.7061
587.1752, 370.1064
587.6573, 371.5391
588.1394, 372.5536
588.6215, 373.2845
589.1036, 373.9127
589.5858, 374.5205
590.0679, 375.2435
590.5500, 376.4020
591.0321, 378.0890
591.5142, 379.1870
591.9963, 379.4298
592.4785, 379.4488
592.9606, 379.1618
593.4427, 378.9661
593.9248, 379.5356
594.4069, 381.1626
594.8890, 382.8751
595.3712, 383.9622
595.8533, 384.6090
596.3354, 385.2243
596.8175, 385.8620
597.2996, 386.4900
597.7817, 386.9614
598.2639, 387.4238
598.7460, 388.7044
599.2281, 391.8999
599.7102, 394.3154
600.1923, 394.9982
600.6744, 395.1129
601.1566, 395.5991
601.6387, 396.5708
602.1208, 397.6976
602.6029, 398.6960
603.0850, 399.6994
603.5671, 401.2892
604.0493, 403.6936
604.5314, 406.0819
605.0135, 408.4166
605.4956, 410.5659
605.9777, 412.1540
606.4598, 413.3417
606.9420, 415.0829
607.4241, 418.4425
607.9062, 422.1641
608.3883, 424.4837
608.8704, 425.6839
609.3525, 427.3103
609.8347, 429.9593
610.3168, 433.0526
610.7989, 435.7596
611.2810, 437.9264
611.7631, 440.5812
612.2452, 443.9983
612.7274, 447.5834
613.2095, 451.3046
613.6916, 454.9630
614.1737, 458.1116
614.6558, 460.6402
615.1379, 463.2137
615.6201, 466.6917
616.1022, 471.0702
616.5843, 475.7882
617.0664, 481.0507
617.5485, 486.2263
618.0306, 490.7984
618.5128, 495.1808
618.9949, 499.9306
619.4770, 505.1270
619.9591, 510.5580
620.4412, 516.1011
620.9233, 521.8099
621.4055, 527.6855
621.8876, 533.7617
622.3697, 540.0607
622.8518, 546.5378
623.3339, 553.3612
623.8160, 561.0365
624.2982, 569.9913
624.7803, 579.1643
625.2624, 588.3598
625.7445, 597.9537
626.2266, 608.3849
626.7087, 619.3819
627.1909, 630.1034
627.6730, 639.9976
628.1551, 649.7546
628.6372, 660.3427
629.1193, 671.7806
629.6014, 684.0914
630.0836, 697.4436
630.5657, 711.2996
631.0478, 725.2805
631.5299, 739.3691
632.0120, 753.6580
632.4941, 767.7521
632.9763, 782.5696
633.4584, 798.5208
633.9405, 815.5172
634.4226, 833.4396
634.9047, 852.2155
635.3868, 871.5838
635.8690, 891.3909
636.3511, 911.5572
636.8332, 931.5320
637.3153, 951.2684
637.7974, 970.9067
638.2795, 989.6769
638.7617, 1008.884
639.2438, 1029.762
639.7259, 1052.054
640.2080, 1074.156
640.6901, 1095.029
641.1722, 1115.563
641.6544, 1137.409
642.1365, 1160.432
642.6186, 1182.928
643.1007, 1204.340
643.5828, 1225.098
644.0649, 1245.447
644.5471, 1265.434
645.0292, 1285.933
645.5113, 1308.309
645.9934, 1329.594
646.4755, 1348.462
646.9576, 1365.820
647.4398, 1382.588
647.9219, 1399.013
648.4040, 1414.662
648.8861, 1428.850
649.3682, 1441.844
649.8503, 1455.799
650.3325, 1471.835
650.8146, 1485.492
651.2967, 1494.891
651.7788, 1501.521
652.2609, 1506.413
652.7430, 1509.656
653.2252, 1512.219
653.7073, 1515.010
654.1894, 1516.819
654.6715, 1517.374
655.1536, 1516.036
655.6357, 1510.739
656.1179, 1500.740
656.6000, 1487.899
657.0821, 1474.328
657.5642, 1459.798
658.0463, 1446.157
658.5284, 1436.419
659.0106, 1423.871
659.4927, 1405.713
659.9748, 1384.999
660.4569, 1364.403
660.9390, 1344.621
661.4211, 1325.431
661.9033, 1307.090
662.3854, 1289.206
662.8675, 1270.930
663.3496, 1252.228
663.8317, 1233.734
664.3138, 1215.680
664.7960, 1197.983
665.2781, 1180.088
665.7602, 1161.765
666.2423, 1145.197
666.7244, 1131.615
667.2065, 1118.541
667.6887, 1104.817
668.1708, 1090.865
668.6529, 1077.276
669.1350, 1064.289
669.6171, 1051.773
670.0992, 1039.829
670.5814, 1028.273
671.0635, 1016.087
671.5456, 1003.015
672.0277, 989.9840
672.5098, 977.3168
672.9919, 964.8062
673.4741, 952.1542
673.9562, 939.3732
674.4383, 926.7908
674.9204, 914.4066
675.4025, 902.1920
675.8846, 890.6617
676.3668, 879.2001
676.8489, 866.1439
677.3310, 851.0422
677.8131, 835.2167
678.2952, 820.3908
678.7773, 806.5964
679.2595, 792.9317
679.7416, 779.5400
680.2237, 766.1796
680.7058, 753.2068
681.1879, 739.9862
681.6700, 725.4063
682.1522, 709.5725
682.6343, 694.9803
683.1164, 683.9119
683.5985, 674.2709
684.0806, 663.6697
684.5627, 652.2798
685.0449, 641.1404
685.5270, 630.5590
686.0091, 620.4788
686.4912, 610.9626
686.9733, 602.0953
687.4554, 592.8310
687.9376, 582.1174
688.4197, 572.2371
688.9018, 563.8332
689.3839, 556.3214
689.8660, 549.3033
690.3481, 542.6118
690.8303, 536.0258
691.3124, 529.1940
691.7945, 522.4882
692.2766, 516.6682
692.7587, 511.7033
693.2408, 506.9137
693.7230, 502.1827
694.2051, 497.3761
694.6872, 492.2621
695.1693, 486.7919
695.6514, 482.0529
696.1335, 478.4193
696.6157, 474.9657
697.0978, 471.4789
697.5799, 468.0450
698.0620, 464.6875
698.5441, 461.4668
699.0262, 458.5454
699.5084, 456.0714
699.9905, 453.9366
700.4726, 452.0601
700.9547, 450.4477
701.4368, 448.2568
701.9189, 444.9517
702.4011, 441.7211
702.8832, 439.8091
703.3653, 439.1123
703.8474, 438.2470
704.3295, 436.7666
704.8116, 435.6692
705.2938, 435.8468
705.7759, 436.1467
706.2580, 435.2290
706.7401, 433.1804
707.2222, 431.0496
707.7043, 429.4600
708.1865, 428.4315
708.6686, 428.0811
709.1507, 428.4529
709.6328, 429.0054
710.1149, 429.7583
710.5970, 430.4918
711.0792, 431.0536
711.5613, 431.4643
712.0434, 431.7665
712.5255, 431.7764
713.0076, 432.0071
713.4897, 432.6236
713.9719, 433.5354
714.4540, 434.8958
714.9361, 436.4898
715.4182, 437.5947
715.9003, 437.7503
716.3824, 437.7021
716.8646, 438.9960
717.3467, 441.7838
717.8288, 444.2897
718.3109, 446.2750
718.7930, 448.2443
719.2751, 450.5406
719.7573, 452.9853
720.2394, 455.1584
720.7215, 456.7719
721.2036, 459.1515
721.6857, 463.7567
722.1678, 468.4872
722.6500, 471.1404
723.1321, 472.3706
723.6142, 473.9783
724.0963, 476.7276
724.5784, 480.5068
725.0605, 485.4971
725.5427, 491.7568
726.0248, 496.7348
726.5069, 499.6955
726.9890, 503.0215
727.4711, 507.5868
727.9532, 513.0326
728.4353, 519.2288
728.9174, 526.1758
729.3995, 532.5474
729.8817, 537.2744
730.3638, 541.9214
730.8459, 547.5153
731.3280, 553.8625
731.8101, 560.5407
732.2922, 567.4246
732.7744, 574.5579
733.2565, 581.9666
733.7386, 589.6807
734.2207, 597.7602
734.7028, 606.3713
735.1849, 614.8288
735.6671, 622.6329
736.1492, 630.6555
736.6313, 639.7112
737.1134, 649.5955
737.5955, 659.3589
738.0776, 668.4055
738.5598, 677.7584
739.0419, 688.4081
739.5240, 699.2928
740.0061, 708.8016
740.4882, 716.9586
740.9703, 725.0216
741.4525, 733.8137
741.9346, 743.1191
742.4167, 752.4444
742.8988, 761.7435
743.3809, 771.3585
743.8630, 781.4462
744.3452, 791.7196
744.8273, 802.4550
745.3094, 813.1384
745.7915, 822.5911
746.2736, 830.2484
746.7557, 838.3505
747.2379, 848.6895
747.7200, 858.8146
748.2021, 866.1768
748.6842, 871.6506
749.1663, 877.4413
749.6484, 884.4159
750.1306, 891.9080
750.6127, 899.2000
751.0948, 906.2355
751.5769, 912.6649
752.0590, 918.6329
752.5411, 923.2206
753.0233, 925.1027
753.5054, 926.3754
753.9875, 930.2640
754.4696, 936.7247
754.9517, 941.9215
755.4338, 944.8718
755.9160, 947.0526
756.3981, 948.4723
756.8802, 949.8578
757.3623, 952.5007
757.8444, 956.2256
758.3265, 959.3088
758.8087, 960.4076
759.2908, 960.0590
759.7729, 959.3723
760.2550, 958.3470
760.7371, 957.0994
761.2192, 955.6476
761.7014, 953.9792
762.1835, 952.1824
762.6656, 950.1591
763.1477, 947.4052
763.6298, 943.0983
764.1119, 939.5779
764.5941, 937.9052
765.0762, 936.3810
765.5583, 934.1563
766.0404, 931.1472
766.5225, 927.0232
767.0046, 921.6431
767.4868, 916.8650
767.9689, 915.1657
768.4510, 915.6191
768.9331, 915.5459
769.4152, 914.8336
769.8973, 913.4759
770.3795, 911.1056
770.8616, 909.0536
771.3437, 909.3165
771.8258, 912.1984
772.3079, 915.1826
772.7900, 917.8864
773.2722, 921.1547
773.7543, 925.3245
774.2364, 930.0385
774.7185, 934.9120
775.2006, 939.9670
775.6827, 945.5433
776.1649, 952.0538
776.6470, 958.8636
777.1291, 965.3263
777.6112, 971.5322
778.0933, 977.8474
778.5754, 984.3000
779.0576, 990.1884
779.5397, 994.8893
780.0218, 998.9512
780.5039, 1004.180
780.9860, 1011.663
781.4681, 1017.473
781.9503, 1021.587
782.4324, 1023.831
782.9145, 1023.764
783.3966, 1022.042
783.8787, 1019.422
784.3608, 1015.977
784.8430, 1012.201
785.3251, 1009.895
785.8072, 1006.033
786.2893, 996.7888
786.7714, 983.8853
787.2535, 971.6414
787.7357, 961.2363
788.2178, 950.2490
788.6999, 936.0449
789.1820, 919.1736
789.6641, 903.0549
790.1462, 888.0051
790.6284, 872.1198
791.1105, 854.6850
791.5926, 836.6432
792.0747, 818.2449
792.5568, 799.7958
793.0389, 782.8007
793.5211, 768.1871
794.0032, 753.6483
794.4853, 738.8058
794.9674, 723.8300
795.4495, 708.5013
795.9316, 693.1763
796.4138, 678.3107
796.8959, 664.1400
797.3780, 650.8216
797.8601, 638.8249
798.3422, 627.8378
798.8243, 616.7889
799.3065, 605.6640
799.7886, 594.1176
800.2707, 581.8193
800.7528, 569.6037
801.2349, 558.3474
801.7170, 548.0645
802.1992, 538.6379
802.6813, 531.5861
803.1634, 523.3492
803.6455, 511.6526
804.1276, 500.0200
804.6097, 491.4482
805.0919, 485.3777
805.5740, 479.1810
806.0561, 471.8038
806.5382, 464.0046
807.0203, 456.0194
807.5024, 448.1657
807.9846, 441.0017
808.4667, 434.5255
808.9488, 428.3521
809.4309, 422.3105
809.9130, 416.4454
810.3951, 410.8821
810.8773, 405.6505
811.3594, 400.2231
811.8415, 394.3955
812.3236, 388.8557
812.8057, 383.8833
813.2878, 379.3272
813.7700, 374.9596
814.2521, 370.8014
814.7342, 367.0044
815.2163, 363.9420
815.6984, 360.7870
816.1805, 356.9873
816.6627, 353.0935
817.1448, 349.7995
817.6269, 346.9970
818.1090, 344.0207
818.5911, 340.4594
819.0732, 336.7968
819.5554, 333.7598
820.0375, 331.1747
820.5196, 328.2887
821.0017, 325.0431
821.4838, 322.0593
821.9659, 319.7263
822.4481, 317.5822
822.9302, 314.7611
823.4123, 311.0411
823.8944, 308.1422
824.3765, 306.4402
824.8586, 305.0630
825.3408, 304.0882
825.8229, 303.1405
826.3050, 301.9361
826.7871, 300.4635
827.2692, 298.8123
827.7513, 297.0538
828.2335, 295.0675
828.7156, 292.3875
829.1977, 289.6485
829.6798, 287.8715
830.1619, 286.8846
830.6440, 285.6089
831.1262, 283.4843
831.6083, 281.1661
832.0904, 279.7564
832.5725, 279.1671
833.0546, 278.1852
833.5367, 276.7588
834.0189, 275.1434
834.5010, 273.2626
834.9831, 271.5466
835.4652, 270.6383
835.9473, 270.5809
836.4294, 270.0120
836.9116, 268.8257
837.3937, 267.3142
837.8758, 264.8041
838.3579, 262.6036
838.8400, 262.0709
839.3221, 262.6543
839.8043, 262.8407
840.2864, 262.1290
840.7685, 260.7813
841.2506, 258.4680
841.7327, 255.9559
842.2148, 254.4105
842.6970, 253.7130
843.1791, 253.2309
843.6612, 252.7092
844.1433, 252.0252
844.6254, 250.9900
845.1075, 249.6648
845.5897, 248.4754
846.0718, 247.3685
846.5539, 246.7023
847.0360, 246.7995
847.5181, 246.9318
848.0002, 246.5215
848.4824, 245.6388
848.9645, 244.6194
849.4466, 243.1601
849.9287, 242.1321
850.4108, 242.0694
850.8929, 242.0100
851.3751, 241.3152
851.8572, 240.2982
852.3393, 239.5088
852.8214, 239.0703
853.3035, 238.6541
853.7856, 237.9408
854.2678, 237.1971
854.7499, 236.8019
855.2320, 236.6492
855.7141, 236.5754
856.1962, 236.4965
856.6783, 236.0278
857.1605, 234.8148
857.6426, 233.1890
858.1247, 232.0029
858.6068, 231.2810
859.0889, 230.8505
859.5710, 230.8686
860.0532, 230.7250
860.5353, 229.9131
861.0174, 228.9202
861.4995, 228.6958
861.9816, 229.4092
862.4637, 229.6202
862.9459, 228.6882
863.4280, 227.9829
863.9101, 228.0778
864.3922, 228.4797
864.8743, 229.0147
865.3564, 229.4333
865.8386, 229.0567
866.3207, 227.3238
866.8028, 225.5098
867.2849, 224.7665
867.7670, 224.6044
868.2491, 224.2154
868.7313, 223.6422
869.2134, 223.4360
869.6954, 223.8136
870.1776, 224.2737
870.6597, 224.2235
871.1418, 223.6949
871.6239, 222.7916
872.1060, 221.4038
872.5881, 220.4131
873.0703, 220.0464
873.5524, 220.0977
874.0345, 220.5751
874.5166, 221.3120
874.9987, 221.5822
875.4808, 221.1553
875.9630, 220.6521
876.4451, 219.9278
876.9272, 219.2921
877.4093, 219.0030
877.8914, 218.8222
878.3735, 218.4412
878.8557, 217.8161
879.3378, 217.1164
879.8199, 216.2810
880.3020, 215.5470
880.7841, 215.0469
881.2662, 214.8018
881.7484, 215.0594
882.2305, 215.6551
882.7126, 215.8609
883.1947, 215.2383
883.6768, 214.2383
884.1589, 213.3558
884.6411, 212.6678
885.1232, 212.8358
885.6053, 213.9207
886.0874, 214.5924
886.5695, 214.3441
887.0516, 213.4981
887.5338, 212.2910
888.0159, 210.7769
888.4980, 210.0175
888.9801, 210.4844
889.4622, 210.7624
889.9443, 210.5914
890.4265, 210.2991
890.9086, 209.8692
891.3907, 209.5005
891.8728, 209.7098
892.3549, 210.7793
892.8370, 211.2090
893.3192, 209.9037
893.8013, 208.5907
894.2834, 208.3582
894.7655, 208.6566
895.2476, 208.7528
895.7297, 208.5607
896.2119, 208.4404
896.6940, 208.6877
897.1761, 208.8625
897.6582, 208.4348
898.1403, 207.5561
898.6224, 206.3115
899.1046, 204.8690
899.5867, 204.1462
900.0688, 204.5572
900.5509, 205.2924
901.0330, 205.2678
901.5151, 204.5810
901.9973, 204.0624
902.4794, 203.7322
902.9615, 203.4483
903.4436, 203.1269
903.9257, 203.0037
904.4078, 203.4424
904.8900, 204.1507
905.3721, 204.1172
905.8542, 202.8535
906.3363, 201.9279
906.8184, 201.5034
907.3005, 201.2054
907.7827, 200.9071
908.2648, 200.6646
908.7469, 200.5922
909.2290, 200.6667
909.7111, 200.6619
910.1932, 200.3201
910.6754, 200.1343
911.1575, 200.5371
911.6396, 201.0971
912.1217, 201.4395
912.6038, 201.5231
913.0859, 201.2735
913.5681, 200.6820
914.0502, 200.2516
914.5323, 200.9114
915.0144, 201.8611
915.4965, 201.2847
915.9786, 199.5302
916.4608, 198.0286
916.9429, 197.1203
917.4250, 196.6700
917.9071, 196.6396
918.3892, 196.8064
918.8713, 196.5266
919.3535, 195.7159
919.8356, 195.5428
920.3177, 196.3431
920.7998, 196.7134
921.2819, 195.9314
921.7640, 194.7298
922.2462, 193.8947
922.7283, 193.4294
923.2104, 193.2676
923.6925, 193.6218
924.1746, 193.9724
924.6567, 194.6236
925.1389, 194.9169
925.6210, 194.0942
926.1031, 192.8260
926.5852, 192.3399
927.0673, 192.8891
927.5494, 193.1965
928.0316, 192.3497
928.5137, 191.6567
928.9958, 192.3682
929.4779, 193.3663
929.9600, 193.0514
930.4421, 191.6288
930.9243, 190.5823
931.4064, 190.6751
931.8885, 191.0157
932.3706, 190.4659
932.8527, 189.6838
933.3348, 190.0301
933.8170, 191.2250
934.2991, 192.1229
934.7812, 192.3717
935.2633, 192.1158
935.7454, 191.4344
936.2275, 190.4570
936.7097, 189.4327
937.1918, 188.3667
937.6739, 187.6001
938.1560, 187.1524
938.6381, 187.2222
939.1202, 188.1044
939.6024, 189.0032
940.0845, 188.5675
940.5666, 186.7519
941.0487, 186.2643
941.5308, 188.0379
942.0129, 189.1336
942.4951, 188.8294
942.9772, 188.0034
943.4593, 186.8166
943.9414, 185.6265
944.4235, 185.2429
944.9056, 185.9146
945.3878, 186.5031
945.8699, 186.8700
946.3520, 187.1322
946.8341, 187.5502
947.3162, 187.7226
947.7983, 186.9341
948.2805, 185.5096
948.7626, 184.7267
949.2447, 185.1657
949.7268, 185.8145
950.2089, 186.2287
950.6910, 186.4451
951.1732, 186.5740
951.6553, 186.5040
952.1374, 185.8527
952.6195, 184.6584
953.1016, 183.6566
953.5837, 183.4043
954.0659, 183.5145
954.5480, 183.4604
955.0301, 183.3411
955.5122, 183.5467
955.9943, 183.9940
956.4764, 183.9598
956.9586, 183.1414
957.4407, 182.1615
957.9228, 181.7227
958.4049, 181.7591
958.8870, 182.0883
959.3691, 182.7192
959.8513, 183.1416
960.3334, 183.2901
960.8155, 183.0700
961.2976, 182.3234
961.7797, 181.3870
962.2618, 180.8867
962.7440, 180.8489
963.2261, 181.0257
963.7082, 181.5837
964.1903, 181.9734
964.6724, 182.1517
965.1545, 182.0012
965.6367, 181.1498
966.1188, 179.9245
966.6009, 179.4417
967.0830, 179.9396
967.5651, 180.5046
968.0472, 181.5493
968.5294, 182.1037
969.0115, 181.3770
969.4936, 180.3684
969.9757, 180.1304
970.4578, 180.5184
970.9399, 180.6455
971.4221, 180.3036
971.9042, 179.6774
972.3863, 178.2628
972.8684, 177.1664
973.3505, 177.5142
973.8326, 178.5317
974.3148, 179.0946
974.7969, 179.0028
975.2790, 178.5947
975.7611, 177.8689
976.2432, 177.2399
976.7253, 177.2337
977.2075, 177.4252
977.6896, 177.1101
978.1717, 176.4870
978.6538, 176.3009
979.1359, 176.7470
979.6180, 177.2549
980.1002, 177.3899
980.5823, 177.1965
981.0644, 176.4083
981.5465, 175.3920
982.0286, 175.5448
982.5107, 176.8340
982.9929, 177.7884
983.4750, 177.7318
983.9571, 177.0901
984.4392, 176.3222
984.9213, 175.4738
985.4034, 174.6703
985.8856, 173.9094
986.3677, 173.7061
986.8498, 174.2080
987.3319, 174.6997
987.8140, 174.7534
988.2961, 174.5423
988.7783, 174.3542
989.2604, 174.1873
989.7425, 174.0857
990.2246, 174.1018
990.7067, 173.9294
991.1888, 173.2319
991.6710, 172.9592
992.1531, 174.1716
992.6352, 176.0132
993.1173, 176.2931
993.5994, 174.5269
994.0815, 173.1356
994.5637, 172.0562
995.0458, 171.4600
995.5279, 171.7908
996.0100, 172.2549
996.4921, 172.1677
996.9742, 171.7557
997.4564, 171.7264
997.9385, 172.3956
998.4206, 172.6275
998.9027, 171.8946
999.3848, 171.2021
999.8669, 170.9324
1000.349, 170.8713
1000.831, 170.8715
1001.313, 170.8840
1001.795, 170.7890
1002.278, 170.4565
1002.760, 170.3269
1003.242, 170.9267
1003.724, 171.3792
1004.206, 170.9486
1004.688, 170.1484
1005.170, 169.5248
1005.652, 169.2105
1006.134, 169.3376
1006.617, 170.1710
1007.099, 170.7767
1007.581, 170.1784
1008.063, 169.3661
1008.545, 169.4669
1009.027, 170.0254
1009.509, 170.1715
1009.991, 169.7585
1010.473, 169.0693
1010.956, 168.1221
1011.438, 167.4611
1011.920, 167.9047
1012.402, 168.8421
1012.884, 169.5079
1013.366, 169.7984
1013.848, 169.4456
1014.330, 168.5031
1014.813, 167.7384
1015.295, 167.7638
1015.777, 168.1371
1016.259, 168.2735
1016.741, 168.1966
1017.223, 167.8531
1017.705, 167.3309
1018.187, 166.9952
1018.669, 166.9724
1019.152, 167.3876
1019.634, 168.5173
1020.116, 169.6861
1020.598, 169.0080
1021.080, 166.9082
1021.562, 166.0607
1022.044, 166.5891
1022.526, 167.1481
1023.008, 167.2612
1023.491, 167.2327
1023.973, 167.3785
1024.455, 167.5757
1024.937, 167.3857
1025.419, 166.8054
1025.901, 166.2569
1026.383, 165.7400
1026.865, 165.6280
1027.348, 166.1435
1027.830, 166.7403
1028.312, 166.8285
1028.794, 166.5256
1029.276, 166.3813
1029.758, 166.4533
1030.240, 166.2859
1030.722, 165.7706
1031.204, 165.2975
1031.687, 164.9665
1032.169, 164.8739
1032.651, 165.2416
1033.133, 165.9108
1033.615, 165.8739
1034.097, 164.7373
1034.579, 164.1649
1035.061, 164.4238
1035.544, 164.8161
1036.026, 165.1473
1036.508, 165.4007
1036.990, 165.5770
1037.472, 165.6634
1037.954, 165.5438
1038.436, 164.9630
1038.918, 164.7549
1039.401, 165.4585
1039.883, 165.7075
1040.365, 164.6413
1040.847, 163.2216
1041.329, 162.3497
1041.811, 162.0152
1042.293, 162.1754
1042.775, 163.4452
1043.257, 164.1343
1043.740, 163.8004
1044.222, 163.4389
1044.704, 163.4348
1045.186, 163.5180
1045.668, 163.4539
1046.150, 163.2440
1046.632, 162.9157
1047.114, 162.3708
1047.596, 161.9086
1048.079, 161.3442
1048.561, 161.1191
1049.043, 161.7218
1049.525, 162.4947
1050.007, 162.7837
1050.489, 162.6552
1050.971, 162.5085
1051.453, 162.3584
1051.936, 162.2766
1052.418, 162.3966
1052.900, 162.4378
1053.382, 162.0789
1053.864, 161.7452
1054.346, 162.0085
1054.828, 162.6717
1055.310, 162.9832
1055.792, 162.7754
1056.275, 162.3186
1056.757, 161.2757
1057.239, 160.4920
1057.721, 160.4725
1058.203, 160.7844
1058.685, 161.1518
1059.167, 161.4567
1059.649, 161.4344
1060.131, 160.9100
1060.614, 160.6296
1061.096, 161.2161
1061.578, 161.6196
1062.060, 161.1032
1062.542, 160.3745
1063.024, 160.1122
1063.506, 160.2209
1063.988, 160.2951
1064.471, 160.2365
1064.953, 160.2142
1065.435, 160.5214
1065.917, 160.5926
1066.399, 159.8972
1066.881, 159.0568
1067.363, 158.6168
1067.845, 158.5075
1068.328, 158.4221
1068.810, 158.2859
1069.292, 158.3968
1069.774, 159.2990
1070.256, 159.9341
1070.738, 159.7204
1071.220, 159.0653
1071.702, 157.9346
1072.184, 156.7911
1072.667, 156.5313
1073.149, 157.2949
1073.631, 158.0597
1074.113, 158.6388
1074.595, 158.8034
1075.077, 157.9666
1075.559, 157.1176
1076.041, 157.2583
1076.523, 157.9003
1077.006, 158.0919
1077.488, 157.7296
1077.970, 157.5344
1078.452, 157.9728
1078.934, 158.3320
1079.416, 158.1136
1079.898, 157.8439
1080.380, 158.0993
1080.863, 158.4788
1081.345, 158.2420
1081.827, 157.4389
1082.309, 156.9415
1082.791, 157.1755
1083.273, 157.4871
1083.755, 157.7503
1084.237, 157.7948
1084.719, 157.1626
1085.202, 156.4624
1085.684, 156.6288
1086.166, 157.4779
1086.648, 157.9778
1087.130, 157.7798
1087.612, 157.3159
1088.094, 156.5789
1088.576, 155.8601
1089.058, 155.2187
1089.541, 154.7867
1090.023, 154.8213
1090.505, 155.1653
1090.987, 155.3176
1091.469, 155.0978
1091.951, 155.1766
1092.433, 156.4532
1092.915, 157.2981
1093.397, 156.4554
1093.880, 155.2232
1094.362, 154.8402
1094.844, 154.9748
1095.326, 154.6447
1095.808, 153.6638
1096.290, 153.0560
1096.772, 153.4177
1097.254, 153.8673
1097.737, 154.1393
1098.219, 154.3065
1098.701, 154.3120
1099.183, 154.3053
1099.665, 154.5758
1100.147, 155.1111
1100.629, 155.4479
1101.111, 155.4548
1101.594, 155.2560
1102.076, 154.6894
1102.558, 154.1488
1103.040, 153.7761
1103.522, 153.6086
1104.004, 153.8608
1104.486, 154.3823
1104.968, 154.4033
1105.450, 153.3708
1105.932, 152.8994
1106.415, 154.1913
1106.897, 154.9939
1107.379, 153.6626
1107.861, 152.0845
1108.343, 152.1192
1108.825, 153.2934
1109.307, 154.0768
1109.789, 154.2448
1110.272, 154.3754
1110.754, 154.7837
1111.236, 154.8144
1111.718, 153.8936
1112.200, 152.9680
1112.682, 152.7239
1113.164, 152.8776
1113.646, 152.8713
1114.129, 152.6556
1114.611, 152.7565
1115.093, 153.7801
1115.575, 154.2084
1116.057, 153.5109
1116.539, 152.7111
1117.021, 152.1970
1117.503, 151.8542
1117.985, 151.5594
1118.468, 151.3128
1118.950, 151.1134
1119.432, 150.8315
1119.914, 150.8937
1120.396, 151.6230
1120.878, 152.0915
1121.360, 151.7979
1121.842, 151.4470
1122.324, 151.7116
1122.807, 152.3591
1123.289, 152.7033
1123.771, 152.7073
1124.253, 152.6093
1124.735, 152.4221
1125.217, 152.0879
1125.699, 151.5446
1126.181, 150.9659
1126.664, 150.3939
1127.146, 149.9688
1127.628, 149.9660
1128.110, 150.3574
1128.592, 150.5795
1129.074, 150.5984
1129.556, 150.6510
1130.038, 150.7641
1130.521, 150.9184
1131.003, 151.1251
1131.485, 151.2771
1131.967, 151.2541
1132.449, 151.0859
1132.931, 150.8415
1133.413, 150.5238
1133.895, 150.2688
1134.377, 150.0799
1134.859, 150.3893
1135.342, 151.3429
1135.824, 151.9320
1136.306, 151.3617
1136.788, 150.3528
1137.270, 150.3037
1137.752, 150.9471
1138.234, 150.8696
1138.716, 150.2293
1139.199, 150.0758
1139.681, 150.5054
1140.163, 150.6767
1140.645, 150.1978
1141.127, 149.6744
1141.609, 149.8458
1142.091, 150.2853
1142.573, 150.0095
1143.056, 149.3828
1143.538, 149.4084
1144.020, 149.9502
1144.502, 150.1777
1144.984, 149.9030
1145.466, 149.6271
1145.948, 149.6772
1146.430, 149.9077
1146.912, 150.2796
1147.395, 150.6347
1147.877, 150.8655
1148.359, 150.8659
1148.841, 150.1988
1149.323, 149.1223
1149.805, 148.7371
1150.287, 149.5063
1150.769, 150.0909
1151.251, 149.0900
1151.734, 148.1145
1152.216, 148.7749
1152.698, 149.7672
1153.180, 149.4836
1153.662, 148.5174
1154.144, 148.2754
1154.626, 148.9365
1155.108, 149.5243
1155.591, 149.5969
1156.073, 149.6864
1156.555, 150.2243
1157.037, 150.5805
1157.519, 150.2818
1158.001, 149.6765
1158.483, 148.9797
1158.965, 148.3413
1159.448, 148.1416
1159.930, 148.5418
1160.412, 148.9064
1160.894, 149.3817
1161.376, 149.4848
1161.858, 148.6703
1162.340, 147.9224
1162.822, 147.9682
1163.304, 148.3578
1163.786, 148.3748
1164.269, 148.0438
1164.751, 148.1506
1165.233, 149.1107
1165.715, 149.4645
1166.197, 148.9103
1166.679, 148.2740
1167.161, 147.6921
1167.643, 147.4924
1168.126, 148.1531
1168.608, 149.1422
1169.090, 148.9360
1169.572, 147.4469
1170.054, 146.9830
1170.536, 147.6915
1171.018, 147.6817
1171.500, 146.5369
1171.983, 145.7531
1172.465, 146.1305
1172.947, 146.9218
1173.429, 147.3045
1173.911, 147.2703
1174.393, 146.4630
1174.875, 145.1858
1175.357, 145.2788
1175.839, 146.5224
1176.322, 146.8101
1176.804, 145.7024
1177.286, 144.7205
1177.768, 144.8443
1178.250, 145.5794
1178.732, 146.6883
1179.214, 147.7393
1179.696, 148.0015
1180.178, 147.6951
1180.661, 147.0789
1181.143, 146.3286
1181.625, 145.7169
1182.107, 145.3374
1182.589, 145.1597
1183.071, 145.2077
1183.553, 145.3696
1184.035, 145.6774
1184.518, 145.9498
1185.000, 146.2118
1185.482, 146.2175
1185.964, 145.3630
1186.446, 143.9430
1186.928, 143.1681
1187.410, 143.4257
1187.892, 143.7560
1188.375, 143.9018
1188.857, 144.0736
1189.339, 144.3923
1189.821, 144.7043
1190.303, 145.0434
1190.785, 145.2356
1191.267, 144.9221
1191.749, 144.1528
1192.231, 143.5763
1192.714, 143.0914
1193.196, 143.0529
1193.678, 143.6532
1194.160, 144.2761
1194.642, 144.7624
1195.124, 145.2112
1195.606, 145.7748
1196.088, 146.1891
1196.570, 145.8416
1197.053, 144.8092
1197.535, 144.3717
1198.017, 144.5485
1198.499, 144.2753
1198.981, 143.4322
1199.463, 143.1093
1199.945, 143.7327
1200.427, 144.5911
1200.910, 145.1192
1201.392, 145.2688
1201.874, 144.7619
1202.356, 143.8937
1202.838, 143.3514
1203.320, 143.1268
1203.802, 143.1134
1204.284, 143.3097
1204.766, 143.9552
1205.249, 145.0996
1205.731, 145.8107
1206.213, 145.0381
1206.695, 144.0744
1207.177, 144.2371
1207.659, 144.5952
1208.141, 143.8808
1208.623, 142.8905
1209.105, 143.3114
1209.588, 144.8002
1210.070, 145.0399
1210.552, 143.0496
1211.034, 141.6067
1211.516, 141.9834
1211.998, 142.3834
1212.480, 141.8834
1212.962, 141.5785
1213.445, 142.6769
1213.927, 144.1012
1214.409, 144.1157
1214.891, 142.9260
1215.373, 142.3796
1215.855, 142.7887
1216.337, 142.9506
1216.819, 142.8479
1217.302, 142.4782
1217.784, 141.7500
1218.266, 141.0769
1218.748, 140.7266
1219.230, 140.6166
1219.712, 140.6550
1220.194, 140.7993
1220.676, 140.7868
1221.158, 140.6767
1221.641, 141.0257
1222.123, 141.7769
1222.605, 142.2706
1223.087, 142.3172
1223.569, 142.0416
1224.051, 141.5007
1224.533, 140.9121
1225.015, 140.3651
1225.497, 140.0657
1225.979, 140.5004
1226.462, 141.2240
1226.944, 141.6193
1227.426, 141.6994
1227.908, 141.7751
1228.390, 141.8432
1228.872, 141.3040
1229.354, 139.3846
1229.836, 138.1180
1230.319, 138.8171
1230.801, 139.7470
1231.283, 140.1711
1231.765, 140.3226
1232.247, 140.3825
1232.729, 140.3580
1233.211, 140.2230
1233.693, 139.9778
1234.176, 139.7231
1234.658, 139.2541
1235.140, 139.4186
1235.622, 140.7214
1236.104, 141.2006
1236.586, 139.9661
1237.068, 138.7182
1237.550, 138.8161
1238.032, 139.5102
1238.515, 139.3692
1238.997, 138.6116
1239.479, 138.5260
1239.961, 138.9581
1240.443, 138.9088
1240.925, 138.3955
1241.407, 138.1206
1241.889, 138.2933
1242.371, 138.6977
1242.854, 139.2500
1243.336, 139.6208
1243.818, 139.1677
1244.300, 138.6522
1244.782, 139.1647
1245.264, 139.9297
1245.746, 139.7596
1246.228, 139.0624
1246.711, 139.0820
1247.193, 139.9020
1247.675, 140.0936
1248.157, 138.8755
1248.639, 137.7940
1249.121, 136.8457
1249.603, 136.5692
1250.085, 137.9065
1250.568, 139.1764
1251.050, 139.1069
1251.532, 138.3947
1252.014, 138.1674
1252.496, 138.3792
1252.978, 138.5303
1253.460, 138.6399
1253.942, 138.5099
1254.424, 138.1079
1254.906, 137.6825
1255.389, 137.2880
1255.871, 137.3869
1256.353, 138.3085
1256.835, 139.2153
1257.317, 138.9193
1257.799, 137.9997
1258.281, 137.6738
1258.763, 137.5603
1259.246, 136.6202
1259.728, 135.3201
1260.210, 135.0021
1260.692, 135.7304
1261.174, 136.5891
1261.656, 137.2705
1262.138, 137.5644
1262.620, 137.1457
1263.103, 136.6060
1263.585, 135.8880
1264.067, 135.5160
1264.549, 136.3073
1265.031, 137.3481
1265.513, 137.2357
1265.995, 136.2893
1266.477, 136.0470
1266.959, 136.7240
1267.442, 137.0497
1267.924, 136.9133
1268.406, 136.8428
1268.888, 136.9422
1269.370, 137.0059
1269.852, 136.9548
1270.334, 136.7022
1270.816, 136.0970
1271.298, 135.4908
1271.781, 135.9104
1272.263, 136.7738
1272.745, 136.2358
1273.227, 134.8001
##END=



