##NAMES=Emmonsite
##RRUFFID=R060802
##IDEAL CHEMISTRY=Fe^3+^_2_(Te^4+^O_3_)_3_&#183;2H_2_O
##LOCALITY=Moctezuma mine, Moctezuma, Sonora, Mexico
##OWNER=RRUFF
##SOURCE=Michael Scott
##DESCRIPTION=Spray of green globular aggregates associated with pale yellow schmitterite, R060524
##STATUS=The identification of this mineral is confirmed by single-crystal X-ray diffraction and chemical analysis.
##URL=rruff.info/R060802
##MEASURED CHEMISTRY=(Fe^3+^_1.89_Al_0.11_)_Σ=2_(Te^4+^_1.00_O_3_)_3_·2.01H_2_O; H_2_O estimated by difference
141.9265, 2134.283
142.4086, 2186.731
142.8907, 2229.983
143.3728, 2264.085
143.8550, 2289.397
144.3371, 2300.719
144.8192, 2294.309
145.3013, 2276.962
145.7834, 2258.728
146.2655, 2238.997
146.7477, 2218.972
147.2298, 2197.958
147.7119, 2173.468
148.1940, 2155.473
148.6761, 2144.423
149.1582, 2139.775
149.6404, 2140.711
150.1225, 2148.353
150.6046, 2160.320
151.0867, 2175.906
151.5688, 2199.073
152.0509, 2220.157
152.5331, 2239.872
153.0152, 2257.723
153.4973, 2271.676
153.9794, 2283.691
154.4615, 2290.061
154.9436, 2289.215
155.4258, 2277.234
155.9079, 2262.412
156.3900, 2243.996
156.8721, 2222.769
157.3542, 2202.145
157.8363, 2181.977
158.3185, 2163.350
158.8006, 2146.770
159.2827, 2130.578
159.7648, 2118.444
160.2469, 2111.233
160.7290, 2108.886
161.2112, 2110.805
161.6933, 2116.854
162.1754, 2127.056
162.6575, 2141.424
163.1396, 2160.429
163.6217, 2183.153
164.1039, 2209.557
164.5860, 2239.590
165.0681, 2272.224
165.5502, 2306.525
166.0323, 2343.182
166.5145, 2383.444
166.9966, 2430.216
167.4787, 2478.813
167.9608, 2526.159
168.4429, 2571.995
168.9250, 2618.965
169.4071, 2668.867
169.8893, 2720.963
170.3714, 2774.186
170.8535, 2831.847
171.3356, 2888.698
171.8177, 2939.812
172.2998, 2984.381
172.7820, 3026.910
173.2641, 3072.399
173.7462, 3118.484
174.2283, 3160.362
174.7104, 3195.336
175.1925, 3225.472
175.6747, 3252.922
176.1568, 3278.318
176.6389, 3299.997
177.1210, 3314.392
177.6031, 3323.197
178.0852, 3331.953
178.5674, 3343.351
179.0495, 3356.804
179.5316, 3371.129
180.0137, 3385.637
180.4958, 3402.719
180.9779, 3425.274
181.4601, 3453.226
181.9422, 3485.397
182.4243, 3523.852
182.9064, 3565.771
183.3885, 3605.821
183.8706, 3643.887
184.3528, 3678.600
184.8349, 3712.779
185.3170, 3744.991
185.7991, 3764.087
186.2812, 3763.284
186.7633, 3742.937
187.2455, 3704.274
187.7276, 3646.522
188.2097, 3571.523
188.6918, 3478.332
189.1739, 3367.332
189.6560, 3247.503
190.1382, 3120.043
190.6203, 2987.026
191.1024, 2857.428
191.5845, 2731.476
192.0666, 2611.815
192.5487, 2502.326
193.0309, 2403.621
193.5130, 2315.128
193.9951, 2236.875
194.4772, 2168.663
194.9593, 2105.389
195.4414, 2045.194
195.9236, 1988.863
196.4057, 1941.423
196.8878, 1903.276
197.3699, 1871.345
197.8520, 1843.465
198.3341, 1819.281
198.8163, 1798.935
199.2984, 1782.321
199.7805, 1769.344
200.2626, 1760.174
200.7447, 1755.264
201.2268, 1752.404
201.7090, 1749.297
202.1911, 1745.680
202.6732, 1744.360
203.1553, 1746.172
203.6374, 1750.857
204.1195, 1756.907
204.6017, 1764.513
205.0838, 1773.013
205.5659, 1782.023
206.0480, 1791.727
206.5301, 1800.884
207.0122, 1808.676
207.4944, 1815.392
207.9765, 1824.101
208.4586, 1835.314
208.9407, 1847.449
209.4228, 1858.673
209.9049, 1868.507
210.3871, 1879.379
210.8692, 1892.059
211.3513, 1906.401
211.8334, 1920.148
212.3155, 1932.712
212.7976, 1945.665
213.2798, 1960.676
213.7619, 1978.006
214.2440, 1996.805
214.7261, 2017.115
215.2082, 2038.767
215.6903, 2062.101
216.1725, 2087.532
216.6546, 2113.697
217.1367, 2139.060
217.6188, 2163.689
218.1009, 2187.460
218.5830, 2210.383
219.0651, 2232.595
219.5473, 2254.736
220.0294, 2278.177
220.5115, 2300.351
220.9936, 2317.845
221.4757, 2329.575
221.9578, 2339.437
222.4400, 2348.744
222.9221, 2357.776
223.4042, 2362.950
223.8863, 2363.802
224.3684, 2361.452
224.8505, 2356.997
225.3327, 2350.108
225.8148, 2341.906
226.2969, 2332.234
226.7790, 2320.717
227.2611, 2311.203
227.7432, 2304.341
228.2254, 2298.711
228.7075, 2292.414
229.1896, 2283.991
229.6717, 2277.708
230.1538, 2274.255
230.6359, 2273.613
231.1181, 2276.595
231.6002, 2284.563
232.0823, 2294.841
232.5644, 2304.237
233.0465, 2311.512
233.5286, 2320.366
234.0108, 2331.601
234.4929, 2345.393
234.9750, 2360.549
235.4571, 2377.328
235.9392, 2394.907
236.4213, 2412.740
236.9035, 2431.397
237.3856, 2449.011
237.8677, 2464.802
238.3498, 2478.739
238.8319, 2493.433
239.3140, 2508.887
239.7962, 2525.135
240.2783, 2542.323
240.7604, 2560.073
241.2425, 2579.630
241.7246, 2602.261
242.2067, 2628.539
242.6889, 2650.523
243.1710, 2666.191
243.6531, 2679.468
244.1352, 2694.683
244.6173, 2714.016
245.0994, 2731.054
245.5816, 2744.542
246.0637, 2754.443
246.5458, 2762.178
247.0279, 2767.587
247.5100, 2771.012
247.9921, 2772.777
248.4743, 2773.099
248.9564, 2771.369
249.4385, 2767.096
249.9206, 2760.349
250.4027, 2753.501
250.8848, 2746.502
251.3670, 2739.464
251.8491, 2732.328
252.3312, 2724.074
252.8133, 2717.788
253.2954, 2713.974
253.7775, 2712.564
254.2597, 2712.555
254.7418, 2713.921
255.2239, 2716.688
255.7060, 2720.989
256.1881, 2727.326
256.6702, 2733.944
257.1523, 2740.293
257.6345, 2746.586
258.1166, 2754.839
258.5987, 2765.307
259.0808, 2777.196
259.5629, 2789.813
260.0450, 2802.244
260.5272, 2817.292
261.0093, 2835.327
261.4914, 2856.192
261.9735, 2878.838
262.4556, 2903.276
262.9377, 2929.168
263.4199, 2956.073
263.9020, 2983.990
264.3841, 3012.840
264.8662, 3042.864
265.3483, 3073.847
265.8304, 3106.410
266.3126, 3140.864
266.7947, 3175.756
267.2768, 3209.976
267.7589, 3244.179
268.2410, 3277.063
268.7231, 3309.600
269.2053, 3340.839
269.6874, 3368.342
270.1695, 3392.266
270.6516, 3412.777
271.1337, 3430.827
271.6158, 3447.643
272.0980, 3456.062
272.5801, 3454.988
273.0622, 3446.051
273.5443, 3433.349
274.0264, 3417.498
274.5085, 3395.504
274.9907, 3365.499
275.4728, 3326.981
275.9549, 3283.875
276.4370, 3235.411
276.9191, 3183.536
277.4012, 3131.961
277.8834, 3081.097
278.3655, 3028.601
278.8476, 2972.836
279.3297, 2913.205
279.8118, 2855.861
280.2939, 2801.823
280.7761, 2749.420
281.2582, 2695.666
281.7403, 2640.184
282.2224, 2587.930
282.7045, 2541.014
283.1866, 2499.192
283.6688, 2460.137
284.1509, 2424.019
284.6330, 2389.628
285.1151, 2354.177
285.5972, 2317.638
286.0793, 2284.216
286.5615, 2256.101
287.0436, 2232.288
287.5257, 2208.004
288.0078, 2182.916
288.4899, 2158.700
288.9720, 2136.859
289.4542, 2117.285
289.9363, 2098.784
290.4184, 2080.890
290.9005, 2063.950
291.3826, 2048.799
291.8647, 2035.476
292.3469, 2022.552
292.8290, 2008.196
293.3111, 1992.934
293.7932, 1978.640
294.2753, 1966.047
294.7574, 1954.329
295.2396, 1941.748
295.7217, 1928.335
296.2038, 1915.638
296.6859, 1905.365
297.1680, 1896.898
297.6501, 1888.276
298.1323, 1878.839
298.6144, 1869.676
299.0965, 1861.826
299.5786, 1855.311
300.0607, 1850.629
300.5428, 1848.628
301.0250, 1848.465
301.5071, 1848.348
301.9892, 1847.734
302.4713, 1847.974
302.9534, 1850.920
303.4355, 1856.045
303.9177, 1861.786
304.3998, 1866.683
304.8819, 1871.795
305.3640, 1878.479
305.8461, 1887.015
306.3282, 1896.474
306.8104, 1905.978
307.2925, 1915.868
307.7746, 1926.640
308.2567, 1938.360
308.7388, 1951.181
309.2209, 1965.888
309.7031, 1982.557
310.1852, 1999.181
310.6673, 2014.005
311.1494, 2028.157
311.6315, 2043.258
312.1136, 2060.428
312.5958, 2078.541
313.0779, 2097.367
313.5600, 2116.727
314.0421, 2135.988
314.5242, 2154.079
315.0063, 2171.928
315.4885, 2190.398
315.9706, 2210.951
316.4527, 2231.118
316.9348, 2250.008
317.4169, 2267.709
317.8990, 2284.689
318.3812, 2301.563
318.8633, 2317.583
319.3454, 2332.127
319.8275, 2345.489
320.3096, 2356.878
320.7917, 2367.240
321.2739, 2375.708
321.7560, 2380.019
322.2381, 2376.919
322.7202, 2371.678
323.2023, 2366.984
323.6844, 2364.343
324.1666, 2359.374
324.6487, 2352.405
325.1308, 2342.461
325.6129, 2328.023
326.0950, 2304.109
326.5771, 2280.019
327.0593, 2259.096
327.5414, 2242.891
328.0235, 2223.616
328.5056, 2197.842
328.9877, 2170.089
329.4698, 2145.493
329.9520, 2128.450
330.4341, 2109.149
330.9162, 2084.592
331.3983, 2054.502
331.8804, 2028.226
332.3625, 2007.643
332.8447, 1989.605
333.3268, 1971.752
333.8089, 1954.024
334.2910, 1936.520
334.7731, 1918.510
335.2552, 1900.465
335.7374, 1885.577
336.2195, 1874.926
336.7016, 1865.475
337.1837, 1855.052
337.6658, 1842.680
338.1479, 1833.072
338.6301, 1827.446
339.1122, 1824.047
339.5943, 1818.434
340.0764, 1809.542
340.5585, 1802.031
341.0406, 1798.639
341.5227, 1799.616
342.0049, 1799.813
342.4870, 1798.937
342.9691, 1797.883
343.4512, 1798.025
343.9333, 1799.436
344.4154, 1801.065
344.8976, 1802.235
345.3797, 1803.308
345.8618, 1805.987
346.3439, 1810.380
346.8260, 1815.874
347.3081, 1822.431
347.7903, 1829.840
348.2724, 1836.675
348.7545, 1842.024
349.2366, 1847.161
349.7187, 1855.165
350.2008, 1865.918
350.6830, 1876.532
351.1651, 1883.651
351.6472, 1889.161
352.1293, 1897.602
352.6114, 1910.230
353.0935, 1924.349
353.5757, 1937.120
354.0578, 1948.842
354.5399, 1960.744
355.0220, 1972.785
355.5041, 1985.726
355.9862, 2000.799
356.4684, 2018.222
356.9505, 2035.823
357.4326, 2052.276
357.9147, 2067.664
358.3968, 2082.071
358.8789, 2094.897
359.3611, 2107.373
359.8432, 2120.121
360.3253, 2133.227
360.8074, 2147.020
361.2895, 2161.830
361.7716, 2177.445
362.2538, 2193.701
362.7359, 2211.431
363.2180, 2228.852
363.7001, 2244.547
364.1822, 2259.303
364.6643, 2275.573
365.1465, 2296.181
365.6286, 2317.181
366.1107, 2336.452
366.5928, 2353.061
367.0749, 2369.408
367.5570, 2385.048
368.0392, 2400.887
368.5213, 2418.551
369.0034, 2441.736
369.4855, 2463.072
369.9676, 2479.343
370.4497, 2488.530
370.9319, 2501.998
371.4140, 2522.918
371.8961, 2546.027
372.3782, 2565.905
372.8603, 2579.966
373.3424, 2594.932
373.8246, 2611.575
374.3067, 2629.782
374.7888, 2650.101
375.2709, 2673.261
375.7530, 2697.466
376.2351, 2721.971
376.7173, 2746.680
377.1994, 2771.526
377.6815, 2795.933
378.1636, 2821.484
378.6457, 2851.325
379.1278, 2886.081
379.6100, 2923.379
380.0921, 2963.331
380.5742, 3005.685
381.0563, 3047.296
381.5384, 3087.555
382.0205, 3128.821
382.5027, 3172.910
382.9848, 3220.133
383.4669, 3269.878
383.9490, 3323.278
384.4311, 3378.887
384.9132, 3433.787
385.3954, 3487.768
385.8775, 3542.552
386.3596, 3599.485
386.8417, 3657.437
387.3238, 3715.185
387.8059, 3772.406
388.2881, 3828.448
388.7702, 3883.271
389.2523, 3936.443
389.7344, 3986.459
390.2165, 4031.206
390.6986, 4073.649
391.1808, 4117.647
391.6629, 4164.589
392.1450, 4208.394
392.6271, 4244.587
393.1092, 4275.246
393.5913, 4302.753
394.0735, 4326.839
394.5556, 4349.444
395.0377, 4372.743
395.5198, 4396.333
396.0019, 4415.454
396.4840, 4426.183
396.9662, 4433.481
397.4483, 4440.628
397.9304, 4449.489
398.4125, 4456.395
398.8946, 4460.438
399.3767, 4462.085
399.8589, 4462.525
400.3410, 4463.125
400.8231, 4461.112
401.3052, 4455.388
401.7873, 4445.269
402.2694, 4433.881
402.7516, 4421.945
403.2337, 4408.153
403.7158, 4390.600
404.1979, 4366.891
404.6800, 4344.658
405.1621, 4326.175
405.6443, 4310.505
406.1264, 4290.683
406.6085, 4265.185
407.0906, 4239.465
407.5727, 4218.383
408.0548, 4202.631
408.5370, 4182.391
409.0191, 4156.122
409.5012, 4127.067
409.9833, 4101.232
410.4654, 4078.565
410.9475, 4056.786
411.4297, 4035.813
411.9118, 4015.027
412.3939, 3991.059
412.8760, 3963.907
413.3581, 3938.894
413.8402, 3923.196
414.3224, 3913.969
414.8045, 3903.808
415.2866, 3890.826
415.7687, 3875.718
416.2508, 3857.678
416.7329, 3837.574
417.2151, 3818.867
417.6972, 3803.935
418.1793, 3791.140
418.6614, 3778.794
419.1435, 3766.849
419.6256, 3755.099
420.1078, 3742.692
420.5899, 3730.673
421.0720, 3720.115
421.5541, 3712.106
422.0362, 3705.145
422.5183, 3698.101
423.0005, 3691.054
423.4826, 3686.249
423.9647, 3685.202
424.4468, 3685.985
424.9289, 3687.362
425.4110, 3688.258
425.8932, 3690.854
426.3753, 3695.115
426.8574, 3701.011
427.3395, 3708.751
427.8216, 3719.219
428.3037, 3730.135
428.7859, 3740.571
429.2680, 3750.234
429.7501, 3761.008
430.2322, 3772.678
430.7143, 3785.649
431.1964, 3800.392
431.6786, 3817.140
432.1607, 3834.832
432.6428, 3854.518
433.1249, 3874.382
433.6070, 3888.093
434.0891, 3895.410
434.5713, 3900.137
435.0534, 3904.363
435.5355, 3908.084
436.0176, 3911.331
436.4997, 3914.304
436.9818, 3916.166
437.4640, 3917.080
437.9461, 3916.307
438.4282, 3911.367
438.9103, 3899.269
439.3924, 3883.716
439.8745, 3869.427
440.3566, 3856.180
440.8387, 3841.318
441.3209, 3823.589
441.8030, 3803.086
442.2851, 3779.256
442.7672, 3750.064
443.2493, 3721.694
443.7314, 3698.575
444.2136, 3678.427
444.6957, 3657.692
445.1778, 3635.420
445.6599, 3611.911
446.1420, 3586.557
446.6241, 3558.967
447.1063, 3533.090
447.5884, 3510.504
448.0705, 3488.945
448.5526, 3466.883
449.0347, 3441.330
449.5168, 3419.370
449.9990, 3403.410
450.4811, 3390.847
450.9632, 3374.470
451.4453, 3352.860
451.9274, 3329.987
452.4095, 3307.084
452.8917, 3284.582
453.3738, 3261.782
453.8559, 3239.019
454.3380, 3215.786
454.8201, 3191.469
455.3022, 3166.282
455.7844, 3140.845
456.2665, 3116.179
456.7486, 3090.820
457.2307, 3059.663
457.7128, 3023.430
458.1949, 2987.929
458.6771, 2958.443
459.1592, 2932.164
459.6413, 2903.750
460.1234, 2872.513
460.6055, 2841.661
461.0876, 2813.727
461.5698, 2787.918
462.0519, 2762.807
462.5340, 2737.910
463.0161, 2713.268
463.4982, 2688.251
463.9803, 2663.094
464.4625, 2639.085
464.9446, 2615.647
465.4267, 2593.786
465.9088, 2574.368
466.3909, 2558.056
466.8730, 2542.055
467.3552, 2524.516
467.8373, 2507.401
468.3194, 2493.246
468.8015, 2484.597
469.2836, 2475.873
469.7657, 2465.654
470.2479, 2454.195
470.7300, 2445.366
471.2121, 2440.599
471.6942, 2436.145
472.1763, 2429.787
472.6584, 2421.199
473.1406, 2412.626
473.6227, 2403.917
474.1048, 2395.722
474.5869, 2389.849
475.0690, 2386.393
475.5511, 2381.112
476.0333, 2372.361
476.5154, 2361.091
476.9975, 2349.111
477.4796, 2336.467
477.9617, 2323.716
478.4438, 2311.374
478.9260, 2299.189
479.4081, 2286.771
479.8902, 2274.070
480.3723, 2260.856
480.8544, 2247.985
481.3365, 2234.162
481.8187, 2217.173
482.3008, 2193.622
482.7829, 2168.793
483.2650, 2144.688
483.7471, 2121.365
484.2292, 2099.678
484.7114, 2081.654
485.1935, 2063.814
485.6756, 2044.170
486.1577, 2021.120
486.6398, 1998.856
487.1219, 1978.296
487.6041, 1958.341
488.0862, 1938.224
488.5683, 1917.929
489.0504, 1896.911
489.5325, 1874.802
490.0146, 1851.800
490.4968, 1830.309
490.9789, 1810.840
491.4610, 1792.027
491.9431, 1772.878
492.4252, 1753.690
492.9073, 1735.141
493.3895, 1717.284
493.8716, 1699.918
494.3537, 1682.566
494.8358, 1665.348
495.3179, 1647.829
495.8000, 1629.328
496.2822, 1611.142
496.7643, 1595.784
497.2464, 1582.752
497.7285, 1569.996
498.2106, 1555.617
498.6927, 1540.998
499.1749, 1527.383
499.6570, 1515.119
500.1391, 1503.275
500.6212, 1491.127
501.1033, 1479.204
501.5854, 1467.977
502.0676, 1458.621
502.5497, 1449.006
503.0318, 1438.190
503.5139, 1426.416
503.9960, 1415.239
504.4781, 1404.145
504.9603, 1394.050
505.4424, 1385.455
505.9245, 1378.641
506.4066, 1371.996
506.8887, 1365.786
507.3708, 1359.481
507.8530, 1352.192
508.3351, 1343.746
508.8172, 1335.933
509.2993, 1329.114
509.7814, 1323.072
510.2635, 1317.625
510.7457, 1312.706
511.2278, 1307.305
511.7099, 1300.124
512.1920, 1292.148
512.6741, 1285.586
513.1563, 1280.498
513.6384, 1276.302
514.1205, 1272.549
514.6026, 1269.366
515.0847, 1267.193
515.5668, 1267.267
516.0490, 1266.345
516.5311, 1261.129
517.0132, 1253.558
517.4953, 1247.543
517.9774, 1246.023
518.4595, 1244.886
518.9417, 1242.487
519.4238, 1238.683
519.9059, 1234.815
520.3880, 1230.195
520.8701, 1226.162
521.3522, 1223.563
521.8344, 1223.739
522.3165, 1222.446
522.7986, 1218.840
523.2807, 1214.412
523.7628, 1211.919
524.2449, 1211.743
524.7271, 1211.315
525.2092, 1209.868
525.6913, 1207.639
526.1734, 1205.443
526.6555, 1203.290
527.1376, 1200.869
527.6198, 1197.189
528.1019, 1193.200
528.5840, 1191.354
529.0661, 1192.085
529.5482, 1193.386
530.0303, 1193.989
530.5125, 1193.826
530.9946, 1192.745
531.4767, 1189.842
531.9588, 1187.014
532.4409, 1185.243
532.9230, 1184.348
533.4052, 1183.767
533.8873, 1184.094
534.3694, 1184.020
534.8515, 1182.699
535.3336, 1179.672
535.8157, 1177.698
536.2979, 1177.293
536.7800, 1177.536
537.2621, 1177.939
537.7442, 1179.020
538.2263, 1178.860
538.7084, 1177.034
539.1906, 1174.226
539.6727, 1171.422
540.1548, 1168.490
540.6369, 1166.948
541.1190, 1168.156
541.6011, 1170.853
542.0833, 1170.707
542.5654, 1167.858
543.0475, 1165.280
543.5296, 1165.706
544.0117, 1167.612
544.4938, 1168.564
544.9760, 1168.148
545.4581, 1167.474
545.9402, 1167.293
546.4223, 1167.336
546.9044, 1167.266
547.3865, 1166.983
547.8687, 1166.523
548.3508, 1165.688
548.8329, 1164.644
549.3150, 1163.943
549.7971, 1164.462
550.2792, 1164.553
550.7614, 1163.490
551.2435, 1161.135
551.7256, 1159.676
552.2077, 1159.563
552.6898, 1159.749
553.1719, 1159.478
553.6541, 1158.741
554.1362, 1157.629
554.6183, 1155.909
555.1004, 1154.348
555.5825, 1154.363
556.0646, 1155.758
556.5468, 1157.407
557.0289, 1159.391
557.5110, 1160.948
557.9931, 1160.432
558.4752, 1158.200
558.9573, 1156.205
559.4395, 1155.484
559.9216, 1155.580
560.4037, 1156.258
560.8858, 1157.557
561.3679, 1158.811
561.8500, 1160.479
562.3322, 1161.601
562.8143, 1161.364
563.2964, 1157.614
563.7785, 1155.071
564.2606, 1154.410
564.7427, 1155.020
565.2249, 1155.853
565.7070, 1157.251
566.1891, 1158.071
566.6712, 1157.705
567.1533, 1156.436
567.6354, 1156.227
568.1176, 1157.217
568.5997, 1158.411
569.0818, 1159.444
569.5639, 1160.165
570.0460, 1159.640
570.5281, 1157.653
571.0103, 1155.860
571.4924, 1156.173
571.9745, 1157.783
572.4566, 1159.318
572.9387, 1160.479
573.4208, 1161.275
573.9030, 1161.472
574.3851, 1161.324
574.8672, 1161.389
575.3493, 1161.979
575.8314, 1162.677
576.3135, 1163.654
576.7957, 1164.887
577.2778, 1164.818
577.7599, 1161.836
578.2420, 1159.280
578.7241, 1159.125
579.2062, 1162.207
579.6884, 1164.240
580.1705, 1165.063
580.6526, 1165.205
581.1347, 1165.171
581.6168, 1164.975
582.0989, 1164.842
582.5811, 1164.777
583.0632, 1164.898
583.5453, 1165.440
584.0274, 1166.346
584.5095, 1167.381
584.9916, 1168.454
585.4738, 1169.577
585.9559, 1170.814
586.4380, 1172.129
586.9201, 1173.332
587.4022, 1173.864
587.8843, 1174.594
588.3664, 1176.104
588.8485, 1178.600
589.3306, 1181.421
589.8127, 1185.885
590.2949, 1189.786
590.7770, 1190.945
591.2591, 1187.858
591.7412, 1185.459
592.2233, 1184.051
592.7054, 1183.751
593.1876, 1185.082
593.6697, 1188.166
594.1518, 1191.528
594.6339, 1194.653
595.1160, 1197.608
595.5981, 1200.648
596.0803, 1203.718
596.5624, 1206.246
597.0445, 1207.489
597.5266, 1208.150
598.0087, 1208.662
598.4908, 1208.976
598.9730, 1210.611
599.4551, 1216.110
599.9372, 1222.430
600.4193, 1226.601
600.9014, 1225.615
601.3835, 1226.053
601.8657, 1230.276
602.3478, 1236.008
602.8299, 1239.801
603.3120, 1240.257
603.7941, 1241.594
604.2762, 1245.168
604.7584, 1250.184
605.2405, 1253.184
605.7226, 1253.865
606.2047, 1254.942
606.6868, 1258.051
607.1689, 1262.732
607.6511, 1267.603
608.1332, 1272.685
608.6153, 1277.935
609.0974, 1283.531
609.5795, 1289.266
610.0616, 1294.930
610.5438, 1300.501
611.0259, 1305.866
611.5080, 1310.314
611.9901, 1314.688
612.4722, 1320.055
612.9543, 1328.067
613.4365, 1335.389
613.9186, 1340.397
614.4007, 1344.380
614.8828, 1350.488
615.3649, 1359.597
615.8470, 1368.948
616.3292, 1378.041
616.8113, 1386.743
617.2934, 1393.871
617.7755, 1399.213
618.2576, 1405.401
618.7397, 1414.734
619.2219, 1426.277
619.7040, 1437.573
620.1861, 1448.390
620.6682, 1459.647
621.1503, 1473.039
621.6324, 1486.889
622.1146, 1499.100
622.5967, 1507.664
623.0788, 1517.804
623.5609, 1533.285
624.0430, 1551.323
624.5251, 1567.932
625.0073, 1580.586
625.4894, 1594.012
625.9715, 1608.563
626.4536, 1624.375
626.9357, 1642.432
627.4178, 1663.141
627.9000, 1684.697
628.3821, 1706.378
628.8642, 1728.371
629.3463, 1751.160
629.8284, 1774.612
630.3105, 1799.137
630.7927, 1824.745
631.2748, 1851.608
631.7569, 1880.409
632.2390, 1911.307
632.7211, 1942.800
633.2032, 1972.425
633.6854, 2002.486
634.1675, 2035.013
634.6496, 2071.457
635.1317, 2109.186
635.6138, 2147.705
636.0959, 2187.271
636.5781, 2227.680
637.0602, 2268.525
637.5423, 2311.463
638.0244, 2357.582
638.5065, 2405.870
638.9886, 2454.640
639.4708, 2503.906
639.9529, 2553.649
640.4350, 2602.959
640.9171, 2652.704
641.3992, 2704.260
641.8813, 2757.334
642.3635, 2811.792
642.8456, 2867.656
643.3277, 2923.983
643.8098, 2979.469
644.2919, 3033.401
644.7740, 3087.922
645.2562, 3143.928
645.7383, 3200.048
646.2204, 3254.063
646.7025, 3304.818
647.1846, 3355.760
647.6667, 3408.039
648.1489, 3460.312
648.6310, 3512.493
649.1131, 3564.853
649.5952, 3613.476
650.0773, 3657.842
650.5594, 3698.421
651.0416, 3737.381
651.5237, 3774.491
652.0058, 3808.841
652.4879, 3840.942
652.9700, 3869.783
653.4521, 3894.533
653.9343, 3915.468
654.4164, 3932.774
654.8985, 3948.301
655.3806, 3959.025
655.8627, 3962.560
656.3448, 3958.596
656.8270, 3949.536
657.3091, 3934.001
657.7912, 3914.890
658.2733, 3894.361
658.7554, 3873.702
659.2375, 3847.226
659.7197, 3813.821
660.2018, 3776.361
660.6839, 3736.851
661.1660, 3695.328
661.6481, 3655.535
662.1302, 3618.663
662.6124, 3581.793
663.0945, 3539.840
663.5766, 3494.727
664.0587, 3451.075
664.5408, 3410.923
665.0229, 3373.177
665.5051, 3337.766
665.9872, 3304.327
666.4693, 3271.935
666.9514, 3240.612
667.4335, 3210.073
667.9156, 3179.650
668.3978, 3149.815
668.8799, 3122.959
669.3620, 3100.260
669.8441, 3078.253
670.3262, 3054.845
670.8083, 3030.205
671.2905, 3008.086
671.7726, 2988.702
672.2547, 2969.618
672.7368, 2950.317
673.2189, 2929.855
673.7010, 2906.263
674.1832, 2879.020
674.6653, 2850.464
675.1474, 2821.408
675.6295, 2791.869
676.1116, 2762.230
676.5938, 2733.543
677.0759, 2703.038
677.5580, 2669.381
678.0401, 2633.868
678.5222, 2597.770
679.0043, 2560.801
679.4865, 2523.787
679.9686, 2486.824
680.4507, 2449.618
680.9328, 2409.104
681.4149, 2365.658
681.8970, 2322.637
682.3792, 2280.865
682.8613, 2240.855
683.3434, 2202.931
683.8255, 2167.350
684.3076, 2132.106
684.7897, 2096.833
685.2719, 2061.468
685.7540, 2025.513
686.2361, 1989.335
686.7182, 1955.648
687.2003, 1927.469
687.6824, 1900.218
688.1646, 1871.318
688.6467, 1840.139
689.1288, 1812.318
689.6109, 1788.332
690.0930, 1767.085
690.5751, 1748.458
691.0573, 1732.229
691.5394, 1713.951
692.0215, 1693.258
692.5036, 1672.508
692.9857, 1655.137
693.4678, 1639.498
693.9500, 1622.447
694.4321, 1601.962
694.9142, 1582.839
695.3963, 1568.989
695.8784, 1557.867
696.3605, 1546.295
696.8427, 1532.242
697.3248, 1519.591
697.8069, 1509.612
698.2890, 1501.006
698.7711, 1490.905
699.2532, 1478.647
699.7354, 1467.560
700.2175, 1458.588
700.6996, 1451.159
701.1817, 1444.214
701.6638, 1437.670
702.1459, 1430.882
702.6281, 1422.889
703.1102, 1414.918
703.5923, 1408.404
704.0744, 1403.090
704.5565, 1397.712
705.0386, 1390.813
705.5208, 1384.452
706.0029, 1379.907
706.4850, 1377.461
706.9671, 1374.410
707.4492, 1369.820
707.9313, 1365.955
708.4135, 1364.461
708.8956, 1365.525
709.3777, 1364.974
709.8598, 1362.629
710.3419, 1359.764
710.8240, 1357.059
711.3062, 1354.787
711.7883, 1353.790
712.2704, 1354.306
712.7525, 1354.976
713.2346, 1354.999
713.7167, 1354.565
714.1989, 1353.826
714.6810, 1352.616
715.1631, 1351.555
715.6452, 1350.391
716.1273, 1349.656
716.6094, 1349.937
717.0916, 1351.398
717.5737, 1353.480
718.0558, 1356.332
718.5379, 1359.454
719.0200, 1361.943
719.5021, 1363.857
719.9843, 1365.709
720.4664, 1367.431
720.9485, 1369.464
721.4306, 1372.119
721.9127, 1375.499
722.3948, 1379.739
722.8770, 1386.108
723.3591, 1392.138
723.8412, 1396.326
724.3233, 1399.193
724.8054, 1402.903
725.2875, 1408.010
725.7697, 1413.122
726.2518, 1417.426
726.7339, 1421.330
727.2160, 1427.916
727.6981, 1437.396
728.1802, 1446.392
728.6624, 1452.217
729.1445, 1456.552
729.6266, 1463.139
730.1087, 1471.760
730.5908, 1480.884
731.0729, 1489.979
731.5551, 1499.044
732.0372, 1507.970
732.5193, 1516.725
733.0014, 1526.041
733.4835, 1535.744
733.9656, 1546.548
734.4478, 1558.776
734.9299, 1572.589
735.4120, 1587.412
735.8941, 1603.623
736.3762, 1619.552
736.8583, 1632.907
737.3405, 1644.704
737.8226, 1658.809
738.3047, 1675.781
738.7868, 1693.250
739.2689, 1708.835
739.7510, 1723.961
740.2332, 1740.455
740.7153, 1759.476
741.1974, 1777.770
741.6795, 1793.480
742.1616, 1808.365
742.6437, 1824.111
743.1259, 1840.861
743.6080, 1857.671
744.0901, 1874.467
744.5722, 1891.328
745.0543, 1908.708
745.5364, 1926.595
746.0186, 1943.338
746.5007, 1958.756
746.9828, 1973.247
747.4649, 1987.125
747.9470, 2000.397
748.4291, 2013.316
748.9113, 2026.260
749.3934, 2038.582
749.8755, 2049.992
750.3576, 2060.639
750.8397, 2070.762
751.3218, 2079.991
751.8040, 2089.226
752.2861, 2098.756
752.7682, 2108.198
753.2503, 2116.647
753.7324, 2123.999
754.2145, 2132.084
754.6967, 2142.550
755.1788, 2152.723
755.6609, 2157.628
756.1430, 2158.905
756.6251, 2160.992
757.1072, 2166.599
757.5894, 2172.870
758.0715, 2179.811
758.5536, 2186.641
759.0357, 2190.092
759.5178, 2188.011
759.9999, 2185.963
760.4821, 2185.793
760.9642, 2186.877
761.4463, 2186.121
761.9284, 2183.456
762.4105, 2180.612
762.8926, 2179.073
763.3748, 2177.575
763.8569, 2174.015
764.3390, 2168.472
764.8211, 2161.748
765.3032, 2153.194
765.7853, 2144.506
766.2675, 2136.398
766.7496, 2128.991
767.2317, 2122.303
767.7138, 2116.198
768.1959, 2111.069
768.6780, 2107.586
769.1602, 2105.567
769.6423, 2101.947
770.1244, 2096.561
770.6065, 2092.009
771.0886, 2089.851
771.5707, 2089.762
772.0529, 2091.539
772.5350, 2095.048
773.0171, 2099.140
773.4992, 2102.590
773.9813, 2106.758
774.4634, 2112.676
774.9456, 2120.614
775.4277, 2128.709
775.9098, 2136.352
776.3919, 2144.813
776.8740, 2155.180
777.3561, 2167.421
777.8383, 2179.081
778.3204, 2190.100
778.8025, 2201.718
779.2846, 2215.783
779.7667, 2230.970
780.2488, 2244.459
780.7310, 2256.141
781.2131, 2268.270
781.6952, 2283.175
782.1773, 2298.359
782.6594, 2312.311
783.1415, 2325.106
783.6237, 2335.436
784.1058, 2343.002
784.5879, 2348.403
785.0699, 2352.347
785.5521, 2354.814
786.0342, 2353.388
786.5163, 2347.954
786.9984, 2338.664
787.4805, 2323.913
787.9626, 2306.106
788.4448, 2288.904
788.9269, 2273.105
789.4090, 2254.456
789.8911, 2229.468
790.3732, 2201.714
790.8553, 2173.323
791.3375, 2143.445
791.8196, 2115.739
792.3017, 2090.604
792.7838, 2066.179
793.2659, 2040.782
793.7480, 2014.585
794.2302, 1986.554
794.7123, 1956.352
795.1944, 1927.395
795.6765, 1902.944
796.1586, 1880.873
796.6407, 1858.055
797.1229, 1833.931
797.6050, 1810.192
798.0871, 1786.715
798.5692, 1764.191
799.0513, 1743.039
799.5334, 1723.511
800.0156, 1704.762
800.4977, 1687.088
800.9798, 1669.632
801.4619, 1651.395
801.9440, 1632.767
802.4261, 1615.803
802.9083, 1600.796
803.3904, 1586.129
803.8725, 1570.542
804.3546, 1554.500
804.8367, 1538.396
805.3188, 1522.222
805.8010, 1506.381
806.2831, 1491.005
806.7652, 1476.043
807.2473, 1461.613
807.7294, 1447.584
808.2115, 1434.477
808.6937, 1422.439
809.1758, 1410.790
809.6579, 1398.534
810.1400, 1386.169
810.6221, 1375.603
811.1042, 1367.156
811.5864, 1358.137
812.0685, 1345.656
812.5506, 1332.499
813.0327, 1320.961
813.5148, 1311.630
813.9969, 1303.185
814.4791, 1295.615
814.9612, 1288.764
815.4433, 1282.753
815.9254, 1277.682
816.4075, 1271.183
816.8896, 1263.023
817.3718, 1255.046
817.8539, 1249.305
818.3360, 1244.682
818.8181, 1239.465
819.3002, 1233.406
819.7823, 1227.296
820.2645, 1221.216
820.7466, 1215.449
821.2287, 1210.088
821.7108, 1205.014
822.1929, 1200.907
822.6750, 1198.192
823.1572, 1195.284
823.6393, 1190.701
824.1214, 1184.835
824.6035, 1179.849
825.0856, 1175.843
825.5677, 1172.307
826.0499, 1169.367
826.5320, 1166.455
827.0141, 1162.878
827.4962, 1158.531
827.9783, 1154.666
828.4604, 1152.171
828.9426, 1149.701
829.4247, 1146.706
829.9068, 1143.182
830.3889, 1139.433
830.8710, 1135.414
831.3531, 1131.658
831.8353, 1128.496
832.3174, 1125.915
832.7995, 1124.275
833.2816, 1123.457
833.7637, 1122.295
834.2458, 1119.942
834.7280, 1117.242
835.2101, 1114.693
835.6922, 1112.333
836.1743, 1109.519
836.6564, 1105.855
837.1385, 1102.451
837.6207, 1099.941
838.1028, 1098.086
838.5849, 1095.585
839.0670, 1092.531
839.5491, 1090.001
840.0313, 1089.850
840.5134, 1089.628
840.9955, 1085.962
841.4776, 1079.792
841.9597, 1075.595
842.4418, 1077.535
842.9240, 1078.432
843.4061, 1075.470
843.8882, 1069.835
844.3703, 1066.724
844.8524, 1066.357
845.3345, 1066.937
845.8167, 1068.497
846.2988, 1069.834
846.7809, 1068.182
847.2630, 1064.415
847.7451, 1061.123
848.2272, 1059.724
848.7094, 1058.862
849.1915, 1058.146
849.6736, 1057.505
850.1557, 1056.735
850.6378, 1055.726
851.1199, 1054.887
851.6021, 1054.406
852.0842, 1053.994
852.5663, 1053.092
853.0484, 1051.730
853.5305, 1049.921
854.0126, 1047.205
854.4948, 1044.938
854.9769, 1044.515
855.4590, 1045.261
855.9411, 1046.203
856.4232, 1048.049
856.9053, 1048.630
857.3875, 1047.124
857.8696, 1044.905
858.3517, 1044.024
858.8338, 1044.578
859.3159, 1043.904
859.7980, 1041.375
860.2802, 1038.735
860.7623, 1038.201
861.2444, 1038.813
861.7265, 1039.094
862.2086, 1038.722
862.6907, 1038.080
863.1729, 1037.301
863.6550, 1036.329
864.1371, 1035.147
864.6192, 1033.709
865.1013, 1032.047
865.5834, 1029.958
866.0656, 1028.261
866.5477, 1027.876
867.0298, 1028.406
867.5119, 1028.791
867.9940, 1028.926
868.4761, 1029.321
868.9583, 1031.062
869.4404, 1032.574
869.9225, 1032.688
870.4046, 1031.100
870.8867, 1029.090
871.3688, 1026.029
871.8510, 1023.866
872.3331, 1024.364
872.8152, 1026.721
873.2973, 1025.901
873.7794, 1022.209
874.2615, 1019.263
874.7437, 1020.106
875.2258, 1022.084
875.7079, 1023.406
876.1900, 1023.965
876.6721, 1023.665
877.1542, 1022.017
877.6364, 1019.959
878.1185, 1017.237
878.6006, 1014.398
879.0827, 1013.616
879.5648, 1014.883
880.0469, 1016.631
880.5291, 1018.859
881.0112, 1020.459
881.4933, 1019.538
881.9754, 1016.988
882.4575, 1014.641
882.9396, 1012.394
883.4218, 1011.415
883.9039, 1012.832
884.3860, 1015.191
884.8681, 1016.579
885.3502, 1016.967
885.8323, 1016.392
886.3145, 1014.642
886.7966, 1012.686
887.2787, 1011.854
887.7608, 1011.704
888.2429, 1011.424
888.7250, 1010.776
889.2072, 1010.203
889.6893, 1009.853
890.1714, 1009.692
890.6535, 1009.686
891.1356, 1009.826
891.6177, 1010.188
892.0999, 1010.864
892.5820, 1011.432
893.0641, 1011.589
893.5462, 1011.346
894.0283, 1010.663
894.5104, 1009.561
894.9926, 1008.267
895.4747, 1006.247
895.9568, 1004.654
896.4389, 1004.534
896.9210, 1005.914
897.4031, 1006.437
897.8853, 1005.802
898.3674, 1005.033
898.8495, 1004.512
899.3316, 1004.188
899.8137, 1003.791
900.2958, 1003.407
900.7780, 1003.437
901.2601, 1004.788
901.7422, 1005.957
902.2243, 1005.638
902.7064, 1004.430
903.1885, 1003.914
903.6707, 1004.788
904.1528, 1005.259
904.6349, 1004.991
905.1170, 1004.285
905.5991, 1003.590
906.0812, 1002.907
906.5634, 1002.218
907.0455, 1001.484
907.5276, 1000.809
908.0097, 1000.291
908.4918, 999.8637
908.9739, 999.4754
909.4561, 999.2269
909.9382, 998.7652
910.4203, 997.9539
910.9024, 997.1561
911.3845, 996.7033
911.8666, 996.5820
912.3488, 996.6138
912.8309, 996.8066
913.3130, 996.8552
913.7951, 996.3126
914.2772, 995.6823
914.7593, 995.5513
915.2415, 995.9341
915.7236, 995.8758
916.2057, 994.9443
916.6878, 993.9266
917.1699, 992.9538
917.6520, 992.1185
918.1342, 991.8519
918.6163, 992.1409
919.0984, 993.0236
919.5805, 995.2814
920.0626, 997.2816
920.5447, 997.0603
921.0269, 995.4494
921.5090, 994.2103
921.9911, 994.6442
922.4732, 994.2895
922.9553, 992.4240
923.4374, 990.1838
923.9196, 989.3613
924.4017, 989.8916
924.8838, 990.5656
925.3659, 991.2310
925.8480, 991.8123
926.3301, 992.6307
926.8123, 993.1096
927.2944, 992.3969
927.7765, 989.8423
928.2586, 988.0630
928.7407, 987.5924
929.2228, 987.5607
929.7050, 987.3711
930.1871, 987.0694
930.6692, 987.8373
931.1513, 989.6454
931.6334, 990.9759
932.1155, 990.3095
932.5977, 989.0886
933.0798, 988.8556
933.5619, 989.3483
934.0440, 989.0499
934.5261, 986.6965
935.0082, 984.7451
935.4904, 983.6322
935.9725, 983.2598
936.4546, 983.6558
936.9367, 984.7010
937.4188, 985.2737
937.9009, 985.0701
938.3831, 984.2368
938.8652, 981.8270
939.3473, 979.2994
939.8294, 978.6996
940.3115, 982.0519
940.7936, 984.5079
941.2758, 985.8795
941.7579, 986.3839
942.2400, 986.0326
942.7221, 984.9147
943.2042, 983.5588
943.6863, 982.0108
944.1685, 980.7152
944.6506, 980.0071
945.1327, 979.6788
945.6148, 979.8142
946.0969, 980.3638
946.5790, 980.1255
947.0612, 978.3221
947.5433, 977.0594
948.0254, 977.1570
948.5075, 978.1962
948.9896, 979.3098
949.4717, 980.3436
949.9539, 980.4617
950.4360, 978.6926
950.9181, 976.8242
951.4002, 976.0967
951.8823, 976.0486
952.3644, 975.9406
952.8466, 975.3588
953.3287, 975.5979
953.8108, 977.1226
954.2929, 978.6253
954.7750, 978.3763
955.2571, 976.8884
955.7393, 975.6570
956.2214, 974.8327
956.7035, 974.4633
957.1856, 974.8881
957.6677, 975.5195
958.1498, 976.0839
958.6320, 976.5418
959.1141, 976.3406
959.5962, 975.2084
960.0783, 974.3086
960.5604, 974.1252
961.0425, 974.5211
961.5247, 975.7004
962.0068, 977.2383
962.4889, 977.8915
962.9710, 976.0120
963.4531, 974.4045
963.9352, 974.3947
964.4174, 975.1566
964.8995, 975.5572
965.3816, 975.6008
965.8637, 975.2205
966.3458, 974.3432
966.8279, 973.4344
967.3101, 973.0609
967.7922, 972.9946
968.2743, 972.9188
968.7564, 972.8026
969.2385, 972.5717
969.7206, 971.8737
970.2028, 971.3878
970.6849, 971.4012
971.1670, 971.8770
971.6491, 972.6394
972.1312, 973.6703
972.6133, 974.7727
973.0955, 976.2687
973.5776, 977.2772
974.0597, 976.1253
974.5418, 973.7955
975.0239, 972.2794
975.5060, 972.9088
975.9882, 973.4426
976.4703, 974.0334
976.9524, 974.0074
977.4345, 971.9781
977.9166, 968.2849
978.3987, 966.0140
978.8809, 965.5399
979.3630, 966.1293
979.8451, 968.4113
980.3272, 970.6446
980.8093, 971.0079
981.2914, 969.2076
981.7736, 968.3099
982.2557, 968.5947
982.7377, 969.3874
983.2198, 970.6589
983.7020, 972.0453
984.1841, 972.6367
984.6662, 972.4717
985.1483, 971.7221
985.6304, 970.0058
986.1125, 968.2791
986.5947, 966.2311
987.0768, 964.8254
987.5589, 965.6331
988.0410, 969.8484
988.5231, 971.7000
989.0052, 970.5494
989.4874, 968.5439
989.9695, 967.7192
990.4516, 967.5419
990.9337, 967.1063
991.4158, 966.3547
991.8979, 965.7502
992.3801, 966.0208
992.8622, 965.8666
993.3443, 964.4651
993.8264, 962.3112
994.3085, 961.8273
994.7906, 962.9850
995.2728, 963.8973
995.7549, 963.8035
996.2370, 963.3403
996.7191, 963.0923
997.2012, 962.9393
997.6833, 962.6690
998.1655, 961.3939
998.6476, 961.6652
999.1297, 964.3950
999.6118, 967.1873
1000.094, 967.5453
1000.576, 966.0464
1001.058, 965.4069
1001.540, 965.6702
1002.022, 966.2531
1002.505, 967.3589
1002.987, 968.1125
1003.469, 967.7266
1003.951, 966.4590
1004.433, 965.4971
1004.915, 964.8672
1005.397, 964.5046
1005.879, 964.5134
1006.361, 964.5234
1006.844, 963.7695
1007.326, 962.6818
1007.808, 962.0309
1008.290, 962.0968
1008.772, 962.3289
1009.254, 962.6216
1009.736, 962.9920
1010.218, 963.6865
1010.701, 964.6827
1011.183, 963.9188
1011.665, 961.4344
1012.147, 959.4388
1012.629, 959.4050
1013.111, 960.3855
1013.593, 962.3522
1014.075, 964.6430
1014.557, 965.2914
1015.040, 962.5359
1015.522, 961.1927
1016.004, 962.2972
1016.486, 964.0551
1016.968, 963.8846
1017.450, 962.3491
1017.932, 961.0084
1018.414, 960.0753
1018.896, 959.7181
1019.379, 960.6882
1019.861, 961.6716
1020.343, 961.6888
1020.825, 960.8760
1021.307, 960.7045
1021.789, 961.1947
1022.271, 962.2691
1022.753, 964.5674
1023.236, 966.4716
1023.718, 965.2153
1024.200, 962.1930
1024.682, 959.8445
1025.164, 959.0605
1025.646, 958.8196
1026.128, 959.5704
1026.610, 960.0460
1027.093, 958.5505
1027.575, 955.5906
1028.057, 954.5576
1028.539, 955.5014
1029.021, 957.0223
1029.503, 959.1321
1029.985, 960.6215
1030.467, 960.2331
1030.949, 958.5004
1031.432, 957.6620
1031.914, 957.9300
1032.396, 958.0379
1032.878, 957.5625
1033.360, 957.2372
1033.842, 958.8860
1034.324, 961.0616
1034.806, 961.2429
1035.288, 958.4701
1035.771, 956.0671
1036.253, 954.3903
1036.735, 953.8781
1037.217, 955.3320
1037.699, 958.2169
1038.181, 958.9080
1038.663, 957.6464
1039.145, 956.2079
1039.628, 955.3535
1040.110, 954.7783
1040.592, 954.4236
1041.074, 954.1615
1041.556, 953.7289
1042.038, 952.9143
1042.520, 952.4941
1043.002, 952.4672
1043.484, 952.9733
1043.967, 954.5379
1044.449, 956.5286
1044.931, 958.3229
1045.413, 959.7491
1045.895, 959.8824
1046.377, 956.7446
1046.859, 954.2438
1047.341, 953.4525
1047.823, 953.9783
1048.306, 955.4097
1048.788, 957.4904
1049.270, 958.3900
1049.752, 957.4918
1050.234, 956.0700
1050.716, 954.5051
1051.198, 953.2751
1051.680, 953.1570
1052.163, 954.3822
1052.645, 954.1500
1053.127, 952.1528
1053.609, 950.2805
1054.091, 949.4600
1054.573, 949.4850
1055.055, 950.5596
1055.537, 952.1571
1056.020, 953.0807
1056.502, 952.6534
1056.984, 951.7548
1057.466, 949.7197
1057.948, 948.2935
1058.430, 950.1847
1058.912, 954.5790
1059.394, 956.1578
1059.876, 954.7181
1060.359, 952.8663
1060.841, 951.7350
1061.323, 951.2314
1061.805, 951.7616
1062.287, 952.8782
1062.769, 953.0347
1063.251, 952.0167
1063.733, 951.6941
1064.215, 952.6380
1064.698, 953.8094
1065.180, 954.0714
1065.662, 953.7943
1066.144, 953.2042
1066.626, 952.1232
1067.108, 952.4423
1067.590, 955.5670
1068.072, 957.5157
1068.555, 955.8028
1069.037, 952.0310
1069.519, 950.7862
1070.001, 951.5696
1070.483, 952.7098
1070.965, 954.0550
1071.447, 954.8060
1071.929, 954.4130
1072.411, 953.4214
1072.894, 952.0705
1073.376, 950.2589
1073.858, 950.0290
1074.340, 951.4328
1074.822, 952.7039
1075.304, 952.2063
1075.786, 951.3639
1076.268, 951.4577
1076.750, 952.2366
1077.233, 952.7405
1077.715, 952.9277
1078.197, 952.7696
1078.679, 952.1630
1079.161, 951.5143
1079.643, 951.3556
1080.125, 951.4889
1080.607, 951.4755
1081.090, 951.2523
1081.572, 951.5152
1082.054, 953.2946
1082.536, 954.5870
1083.018, 954.5752
1083.500, 953.7899
1083.982, 953.8594
1084.464, 954.5558
1084.946, 954.7297
1085.429, 953.9424
1085.911, 952.9140
1086.393, 951.4869
1086.875, 950.4740
1087.357, 950.7740
1087.839, 952.5026
1088.321, 952.9424
1088.803, 952.0106
1089.286, 951.3018
1089.768, 951.8611
1090.250, 952.8710
1090.732, 953.8953
1091.214, 954.6578
1091.696, 954.5727
1092.178, 952.8058
1092.660, 951.6804
1093.142, 951.2144
1093.625, 951.4860
1094.107, 953.2675
1094.589, 955.5563
1095.071, 956.1256
1095.553, 955.1638
1096.035, 954.3204
1096.517, 954.7002
1096.999, 954.6036
1097.481, 953.2009
1097.964, 951.6416
1098.446, 952.3534
1098.928, 954.7476
1099.410, 955.5746
1099.892, 954.2668
1100.374, 952.8846
1100.856, 952.7924
1101.338, 952.9772
1101.821, 952.5087
1102.303, 951.7344
1102.785, 952.8797
1103.267, 956.0242
1103.749, 958.1702
1104.231, 958.2754
1104.713, 957.3809
1105.195, 955.4542
1105.677, 953.7142
1106.160, 953.9415
1106.642, 957.1609
1107.124, 957.7532
1107.606, 954.9223
1108.088, 952.5746
1108.570, 953.1740
1109.052, 955.0254
1109.534, 955.3083
1110.016, 954.5948
1110.499, 954.1023
1110.981, 954.3752
1111.463, 954.6871
1111.945, 955.2439
1112.427, 955.3774
1112.909, 953.7332
1113.391, 951.2704
1113.873, 952.3458
1114.356, 956.2940
1114.838, 958.7145
1115.320, 955.2955
1115.802, 952.7656
1116.284, 954.2254
1116.766, 957.0294
1117.248, 957.2865
1117.730, 955.2151
1118.213, 954.4113
1118.695, 955.2221
1119.177, 956.2981
1119.659, 957.1827
1120.141, 957.4988
1120.623, 956.6232
1121.105, 954.9471
1121.587, 953.7714
1122.069, 953.1027
1122.552, 952.9219
1123.034, 953.3163
1123.516, 953.7824
1123.998, 953.3471
1124.480, 953.0106
1124.962, 954.2851
1125.444, 957.5476
1125.926, 958.6982
1126.408, 957.2611
1126.891, 955.1911
1127.373, 952.7274
1127.855, 950.8289
1128.337, 951.7712
1128.819, 954.0939
1129.301, 955.2729
1129.783, 954.1810
1130.265, 953.6074
1130.748, 953.9559
1131.230, 954.5110
1131.712, 954.8391
1132.194, 955.0977
1132.676, 956.0576
1133.158, 957.3381
1133.640, 957.8441
1134.122, 956.2177
1134.604, 955.2233
1135.087, 955.7766
1135.569, 956.8192
1136.051, 957.6648
1136.533, 958.2779
1137.015, 958.3887
1137.497, 958.0273
1137.979, 957.4553
1138.461, 956.9084
1138.943, 956.0689
1139.426, 954.0886
1139.908, 952.1570
1140.390, 952.0564
1140.872, 953.7953
1141.354, 955.1675
1141.836, 956.0123
1142.318, 956.2612
1142.800, 955.0310
1143.283, 953.9695
1143.765, 954.8131
1144.247, 956.7137
1144.729, 956.7471
1145.211, 954.4705
1145.693, 954.1732
1146.175, 956.7591
1146.657, 959.5686
1147.140, 959.8320
1147.622, 959.1445
1148.104, 958.8958
1148.586, 959.1923
1149.068, 959.7279
1149.550, 960.6676
1150.032, 960.9472
1150.514, 960.0274
1150.996, 959.1332
1151.479, 960.9645
1151.961, 963.2350
1152.443, 962.4000
1152.925, 957.3902
1153.407, 954.6387
1153.889, 955.1501
1154.371, 956.2660
1154.853, 957.1588
1155.335, 957.8630
1155.818, 958.7634
1156.300, 959.4053
1156.782, 958.6165
1157.264, 955.0982
1157.746, 953.8316
1158.228, 956.7214
1158.710, 959.1013
1159.192, 958.0673
1159.675, 955.0641
1160.157, 953.4880
1160.639, 953.1189
1161.121, 953.4462
1161.603, 954.9510
1162.085, 955.8427
1162.567, 955.4560
1163.049, 954.8093
1163.531, 954.4789
1164.014, 954.4871
1164.496, 954.9874
1164.978, 955.9319
1165.460, 957.1135
1165.942, 959.6723
1166.424, 960.7861
1166.906, 958.4807
1167.388, 955.5838
1167.870, 954.8171
1168.353, 955.9133
1168.835, 956.6793
1169.317, 957.0298
1169.799, 956.8842
1170.281, 955.4104
1170.763, 954.3307
1171.245, 954.6494
1171.727, 955.6249
1172.210, 956.5107
1172.692, 957.2882
1173.174, 957.6974
1173.656, 957.7239
1174.138, 957.6508
1174.620, 957.3196
1175.102, 957.3091
1175.584, 958.3460
1176.067, 959.7895
1176.549, 960.6241
1177.031, 960.8519
1177.513, 960.0461
1177.995, 958.1213
1178.477, 956.2108
1178.959, 954.8167
1179.441, 954.1458
1179.923, 954.8692
1180.406, 956.3873
1180.888, 956.9340
1181.370, 956.4687
1181.852, 955.4113
1182.334, 953.6429
1182.816, 952.5941
1183.298, 954.1323
1183.780, 956.3986
1184.262, 958.1797
1184.745, 959.2960
1185.227, 958.9886
1185.709, 957.0626
1186.191, 956.2601
1186.673, 957.6360
1187.155, 958.6861
1187.637, 956.3115
1188.119, 952.9234
1188.602, 950.7487
1189.084, 949.9036
1189.566, 949.9468
1190.048, 951.0013
1190.530, 951.9545
1191.012, 952.5508
1191.494, 952.6708
1191.976, 951.8522
1192.458, 950.6994
1192.941, 949.6709
1193.423, 948.7578
1193.905, 949.3254
1194.387, 951.6412
1194.869, 953.3900
1195.351, 953.5981
1195.833, 952.8891
1196.315, 951.0751
1196.797, 949.2369
1197.280, 948.9377
1197.762, 950.6179
1198.244, 951.3631
1198.726, 950.9875
1199.208, 951.0424
1199.690, 952.7819
1200.172, 954.5079
1200.654, 953.6678
1201.137, 951.8710
1201.619, 951.6041
1202.101, 953.8356
1202.583, 954.1879
1203.065, 952.3676
1203.547, 950.7257
1204.029, 950.7781
1204.511, 951.4273
1204.994, 951.5748
1205.476, 951.3901
1205.958, 951.0179
1206.440, 949.9823
1206.922, 950.8605
1207.404, 954.0466
1207.886, 956.4032
1208.368, 955.2011
1208.850, 952.7664
1209.333, 951.5980
1209.815, 951.1383
1210.297, 950.3262
1210.779, 948.4255
1211.261, 948.3884
1211.743, 950.5558
1212.225, 952.2839
1212.707, 951.3546
1213.189, 949.3814
1213.672, 947.2218
1214.154, 945.5424
1214.636, 945.8765
1215.118, 949.2343
1215.600, 951.1866
1216.082, 951.5351
1216.564, 951.1980
1217.046, 950.1182
1217.529, 949.3561
1218.011, 950.6723
1218.493, 952.9431
1218.975, 953.3873
1219.457, 951.1161
1219.939, 950.2772
1220.421, 951.1865
1220.903, 952.3984
1221.385, 952.9507
1221.868, 953.0726
1222.350, 952.5214
1222.832, 951.7884
1223.314, 952.2821
1223.796, 954.7075
1224.278, 954.4244
1224.760, 950.8478
1225.242, 948.0671
1225.724, 950.8782
1226.207, 954.4313
1226.689, 954.3983
1227.171, 951.9655
1227.653, 950.5247
1228.135, 950.1960
1228.617, 950.5253
1229.099, 951.5363
1229.581, 952.1009
1230.064, 950.7077
1230.546, 949.1183
1231.028, 948.6400
1231.510, 948.9857
1231.992, 949.4299
1232.474, 949.9864
1232.956, 950.0824
1233.438, 949.6392
1233.921, 949.4660
1234.403, 950.7159
1234.885, 951.9025
1235.367, 951.7103
1235.849, 950.8372
1236.331, 950.8310
1236.813, 951.7070
1237.295, 951.4600
1237.777, 949.9183
1238.260, 948.2722
1238.742, 947.1813
1239.224, 946.4797
1239.706, 946.1342
1240.188, 946.1213
1240.670, 946.7136
1241.152, 947.7880
1241.634, 947.5589
1242.116, 945.8743
1242.599, 944.9720
1243.081, 947.6656
1243.563, 949.7360
1244.045, 948.5901
1244.527, 946.3580
1245.009, 947.2462
1245.491, 950.4001
1245.973, 950.5455
1246.456, 947.2927
1246.938, 944.9407
1247.420, 946.8406
1247.902, 948.6625
1248.384, 949.1210
1248.866, 948.6811
1249.348, 947.5255
1249.830, 946.1356
1250.313, 946.5137
1250.795, 948.6938
1251.277, 950.5610
1251.759, 951.3402
1252.241, 951.3555
1252.723, 950.3428
1253.205, 949.2397
1253.687, 950.0618
1254.169, 951.6338
1254.651, 951.0199
1255.134, 948.2114
1255.616, 945.7405
1256.098, 943.9055
1256.580, 943.3050
1257.062, 944.1494
1257.544, 946.0090
1258.026, 949.3367
1258.508, 952.7374
1258.991, 953.6497
1259.473, 952.1828
1259.955, 950.9124
1260.437, 950.0726
1260.919, 949.9055
1261.401, 950.6754
1261.883, 951.2206
1262.365, 949.3680
1262.848, 947.2125
1263.330, 947.9109
1263.812, 950.9039
1264.294, 951.8783
1264.776, 950.2952
1265.258, 948.1692
1265.740, 945.6187
1266.222, 943.7507
1266.704, 944.3109
1267.187, 945.4573
1267.669, 945.4324
1268.151, 944.5870
1268.633, 944.2585
1269.115, 944.3671
1269.597, 946.2602
1270.079, 950.2146
1270.561, 953.5804
1271.043, 954.1075
1271.526, 953.5583
1272.008, 952.6984
1272.490, 951.7236
1272.972, 950.8174
1273.454, 950.0076
1273.936, 949.7503
1274.418, 950.0717
1274.900, 950.1953
1275.383, 950.0465
1275.865, 949.0245
1276.347, 946.0978
1276.829, 943.1290
1277.311, 943.2521
1277.793, 945.6832
1278.275, 947.5139
1278.757, 948.4926
1279.239, 948.6566
1279.722, 947.6964
1280.204, 946.2225
1280.686, 943.9899
1281.168, 942.0433
1281.650, 941.6953
1282.132, 942.5180
1282.614, 944.0232
1283.096, 945.9243
1283.578, 947.0955
1284.061, 947.1592
1284.543, 946.4147
1285.025, 944.5565
1285.507, 943.0251
1285.989, 943.8694
1286.471, 945.4144
1286.953, 945.1029
1287.435, 943.5882
1287.917, 943.5095
1288.400, 945.7895
1288.882, 946.4391
1289.364, 945.0465
##END=



