##NAMES=Emplectite
##RRUFFID=R070307
##IDEAL CHEMISTRY=Cu^1+^Bi^3+^S^2-^_2_
##LOCALITY=Schwarzenberg District, Erzgebirge, Saxony, Germany
##OWNER=RRUFF
##SOURCE=James Shigley
##DESCRIPTION=Pale yellow metallic prisms associated with siderite and quartz
##STATUS=The identification of this mineral is confirmed by single-crystal X-ray diffraction and chemical analysis.
##URL=rruff.info/R070307
##MEASURED CHEMISTRY=Cu^1+^_1.00_Bi_1.00_S_2.00_
134.7162, 702.0835
135.1983, 724.6333
135.6804, 749.8380
136.1626, 778.8567
136.6447, 808.5447
137.1268, 831.8243
137.6089, 846.7424
138.0910, 861.5158
138.5731, 880.4144
139.0553, 904.8033
139.5374, 928.6983
140.0195, 954.4253
140.5016, 978.9511
140.9837, 986.6680
141.4658, 966.6143
141.9480, 947.1144
142.4301, 949.4139
142.9122, 986.6896
143.3943, 1017.565
143.8764, 1035.608
144.3585, 1040.974
144.8407, 1048.921
145.3228, 1061.487
145.8049, 1075.034
146.2870, 1085.976
146.7691, 1091.658
147.2512, 1098.016
147.7334, 1105.691
148.2155, 1114.514
148.6976, 1125.841
149.1797, 1143.978
149.6618, 1163.411
150.1439, 1176.733
150.6261, 1170.645
151.1082, 1170.229
151.5903, 1184.266
152.0724, 1223.996
152.5545, 1253.167
153.0366, 1262.209
153.5188, 1259.065
154.0009, 1259.351
154.4830, 1271.439
154.9651, 1282.830
155.4472, 1288.136
155.9293, 1284.954
156.4115, 1278.177
156.8936, 1266.660
157.3757, 1251.736
157.8578, 1237.875
158.3399, 1226.495
158.8221, 1216.538
159.3042, 1207.166
159.7863, 1193.814
160.2684, 1185.305
160.7505, 1188.515
161.2326, 1201.628
161.7148, 1210.368
162.1969, 1205.375
162.6790, 1194.388
163.1611, 1184.964
163.6432, 1180.994
164.1253, 1178.017
164.6075, 1173.343
165.0896, 1166.863
165.5717, 1161.285
166.0538, 1157.684
166.5359, 1156.021
167.0180, 1156.200
167.5002, 1159.985
167.9823, 1164.459
168.4644, 1168.113
168.9465, 1171.115
169.4286, 1171.355
169.9107, 1163.399
170.3929, 1151.388
170.8750, 1143.842
171.3571, 1151.307
171.8392, 1162.860
172.3213, 1165.572
172.8034, 1155.689
173.2856, 1143.935
173.7677, 1139.469
174.2498, 1141.269
174.7319, 1145.856
175.2140, 1155.144
175.6961, 1164.973
176.1783, 1167.891
176.6604, 1159.919
177.1425, 1149.338
177.6246, 1147.167
178.1067, 1152.296
178.5888, 1157.357
179.0710, 1154.920
179.5531, 1148.455
180.0352, 1145.922
180.5173, 1150.453
180.9994, 1158.564
181.4815, 1165.404
181.9637, 1171.014
182.4458, 1174.775
182.9279, 1175.406
183.4100, 1173.566
183.8921, 1171.700
184.3742, 1170.221
184.8564, 1169.286
185.3385, 1169.573
185.8206, 1171.167
186.3027, 1172.985
186.7848, 1173.660
187.2669, 1173.397
187.7491, 1173.885
188.2312, 1177.347
188.7133, 1182.088
189.1954, 1180.765
189.6775, 1172.412
190.1596, 1162.330
190.6418, 1156.633
191.1239, 1155.288
191.6060, 1155.491
192.0881, 1156.747
192.5702, 1158.876
193.0524, 1160.029
193.5345, 1159.840
194.0166, 1159.612
194.4987, 1161.699
194.9808, 1166.259
195.4629, 1170.758
195.9451, 1175.877
196.4272, 1181.550
196.9093, 1177.925
197.3914, 1161.288
197.8735, 1140.709
198.3556, 1134.034
198.8378, 1142.761
199.3199, 1155.781
199.8020, 1168.816
200.2841, 1182.012
200.7662, 1191.061
201.2483, 1194.880
201.7305, 1195.176
202.2126, 1196.366
202.6947, 1199.016
203.1768, 1200.450
203.6589, 1198.060
204.1410, 1190.956
204.6232, 1186.358
205.1053, 1184.656
205.5874, 1185.971
206.0695, 1191.723
206.5516, 1203.617
207.0337, 1215.467
207.5159, 1222.018
207.9980, 1221.277
208.4801, 1225.058
208.9622, 1238.356
209.4443, 1257.208
209.9264, 1259.365
210.4086, 1237.195
210.8907, 1213.601
211.3728, 1208.800
211.8549, 1230.195
212.3370, 1244.640
212.8191, 1245.628
213.3013, 1234.912
213.7834, 1226.406
214.2655, 1218.567
214.7476, 1215.432
215.2297, 1222.511
215.7118, 1245.579
216.1940, 1262.766
216.6761, 1268.509
217.1582, 1263.479
217.6403, 1261.666
218.1224, 1263.284
218.6045, 1267.840
219.0867, 1275.754
219.5688, 1289.459
220.0509, 1300.664
220.5330, 1307.572
221.0151, 1310.251
221.4972, 1309.154
221.9794, 1300.741
222.4615, 1292.487
222.9436, 1293.817
223.4257, 1312.165
223.9078, 1324.571
224.3899, 1323.491
224.8721, 1307.347
225.3542, 1298.716
225.8363, 1300.938
226.3184, 1307.423
226.8005, 1309.870
227.2827, 1304.537
227.7648, 1302.397
228.2469, 1307.329
228.7290, 1320.659
229.2111, 1330.322
229.6932, 1334.154
230.1754, 1335.959
230.6575, 1341.543
231.1396, 1355.519
231.6217, 1364.862
232.1038, 1364.189
232.5859, 1350.413
233.0681, 1343.445
233.5502, 1345.647
234.0323, 1352.943
234.5144, 1359.816
234.9965, 1366.601
235.4786, 1372.232
235.9608, 1375.484
236.4429, 1374.767
236.9250, 1379.378
237.4071, 1393.259
237.8892, 1409.990
238.3713, 1419.003
238.8535, 1416.327
239.3356, 1412.583
239.8177, 1411.378
240.2998, 1413.975
240.7819, 1414.301
241.2640, 1412.360
241.7462, 1408.153
242.2283, 1400.907
242.7104, 1386.716
243.1925, 1375.912
243.6746, 1372.112
244.1567, 1376.705
244.6389, 1384.199
245.1210, 1397.167
245.6031, 1411.491
246.0852, 1419.532
246.5673, 1418.769
247.0494, 1415.988
247.5316, 1413.241
248.0137, 1410.297
248.4958, 1408.276
248.9779, 1407.870
249.4600, 1408.008
249.9421, 1406.731
250.4243, 1403.709
250.9064, 1399.818
251.3885, 1394.654
251.8706, 1386.480
252.3527, 1383.358
252.8348, 1388.083
253.3170, 1396.119
253.7991, 1397.819
254.2812, 1388.222
254.7633, 1381.832
255.2454, 1386.414
255.7275, 1408.030
256.2097, 1416.550
256.6918, 1404.600
257.1739, 1384.529
257.6560, 1380.728
258.1381, 1401.430
258.6202, 1421.413
259.1024, 1429.807
259.5845, 1422.031
260.0666, 1421.909
260.5487, 1432.702
261.0308, 1448.676
261.5129, 1458.206
261.9951, 1456.161
262.4772, 1459.862
262.9593, 1479.563
263.4414, 1521.978
263.9235, 1547.701
264.4056, 1550.887
264.8878, 1543.079
265.3699, 1545.163
265.8520, 1560.412
266.3341, 1576.186
266.8162, 1585.144
267.2983, 1583.942
267.7805, 1598.590
268.2626, 1634.512
268.7447, 1680.173
269.2268, 1714.388
269.7089, 1733.227
270.1910, 1754.559
270.6732, 1785.451
271.1553, 1826.353
271.6374, 1871.345
272.1195, 1920.045
272.6016, 1973.515
273.0837, 2032.257
273.5659, 2097.037
274.0480, 2164.309
274.5301, 2233.601
275.0122, 2304.629
275.4943, 2375.846
275.9764, 2444.776
276.4586, 2518.561
276.9407, 2610.003
277.4228, 2719.319
277.9049, 2833.843
278.3870, 2947.775
278.8691, 3061.322
279.3513, 3178.482
279.8334, 3298.436
280.3155, 3424.114
280.7976, 3559.576
281.2798, 3703.670
281.7619, 3857.224
282.2440, 4025.738
282.7261, 4206.094
283.2082, 4370.107
283.6903, 4513.138
284.1725, 4656.914
284.6546, 4833.462
285.1367, 5040.081
285.6188, 5246.057
286.1009, 5444.562
286.5830, 5633.835
287.0652, 5803.695
287.5473, 5950.666
288.0294, 6089.729
288.5115, 6236.971
288.9936, 6391.749
289.4757, 6544.259
289.9579, 6711.030
290.4400, 6869.225
290.9221, 6956.892
291.4042, 6971.995
291.8863, 6941.922
292.3684, 6888.834
292.8506, 6812.337
293.3327, 6711.453
293.8148, 6588.905
294.2969, 6439.586
294.7790, 6242.390
295.2611, 5996.282
295.7433, 5735.813
296.2254, 5484.912
296.7075, 5238.642
297.1896, 4992.145
297.6717, 4732.996
298.1538, 4475.778
298.6360, 4243.485
299.1181, 4033.969
299.6002, 3846.972
300.0823, 3683.426
300.5644, 3540.083
301.0465, 3409.458
301.5287, 3290.414
302.0108, 3182.339
302.4929, 3089.392
302.9750, 3009.392
303.4571, 2935.120
303.9392, 2860.308
304.4214, 2788.041
304.9035, 2721.179
305.3856, 2663.543
305.8677, 2608.927
306.3498, 2552.355
306.8319, 2495.134
307.3141, 2440.601
307.7962, 2393.689
308.2783, 2349.865
308.7604, 2304.566
309.2425, 2258.935
309.7246, 2209.251
310.2068, 2148.934
310.6889, 2081.994
311.1710, 2018.195
311.6531, 1962.544
312.1352, 1911.551
312.6173, 1863.083
313.0995, 1817.032
313.5816, 1774.390
314.0637, 1735.855
314.5458, 1700.854
315.0279, 1667.957
315.5100, 1637.012
315.9922, 1607.730
316.4743, 1580.648
316.9564, 1556.707
317.4385, 1531.303
317.9206, 1497.582
318.4027, 1462.698
318.8849, 1436.650
319.3670, 1430.198
319.8491, 1425.934
320.3312, 1416.541
320.8133, 1400.008
321.2954, 1387.201
321.7776, 1385.272
322.2597, 1386.072
322.7418, 1380.916
323.2239, 1363.732
323.7060, 1345.295
324.1881, 1326.628
324.6703, 1307.421
325.1524, 1292.774
325.6345, 1285.758
326.1166, 1282.177
326.5987, 1278.582
327.0808, 1273.105
327.5630, 1269.844
328.0451, 1271.538
328.5272, 1277.706
329.0093, 1277.364
329.4914, 1263.668
329.9735, 1249.692
330.4557, 1244.466
330.9378, 1255.110
331.4199, 1262.219
331.9020, 1264.552
332.3841, 1262.267
332.8662, 1255.135
333.3484, 1238.903
333.8305, 1224.380
334.3126, 1218.183
334.7947, 1223.676
335.2768, 1227.475
335.7589, 1229.321
336.2411, 1228.884
336.7232, 1223.954
337.2053, 1212.036
337.6874, 1203.035
338.1695, 1203.542
338.6516, 1215.268
339.1338, 1220.967
339.6159, 1218.849
340.0980, 1212.949
340.5801, 1209.459
341.0622, 1208.370
341.5443, 1209.586
342.0265, 1213.949
342.5086, 1221.017
342.9907, 1227.791
343.4728, 1234.767
343.9549, 1239.266
344.4370, 1235.907
344.9192, 1225.619
345.4013, 1217.055
345.8834, 1213.596
346.3655, 1214.031
346.8476, 1215.954
347.3297, 1219.399
347.8119, 1223.094
348.2940, 1227.441
348.7761, 1231.274
349.2582, 1230.582
349.7403, 1221.344
350.2225, 1210.028
350.7046, 1206.620
351.1867, 1210.271
351.6688, 1214.649
352.1509, 1215.739
352.6331, 1214.506
353.1152, 1212.196
353.5973, 1208.572
354.0794, 1204.908
354.5615, 1201.948
355.0436, 1199.801
355.5258, 1198.797
356.0079, 1201.490
356.4900, 1204.090
356.9721, 1202.058
357.4542, 1192.508
357.9363, 1185.744
358.4185, 1190.939
358.9006, 1202.473
359.3827, 1210.620
359.8648, 1206.601
360.3469, 1202.174
360.8290, 1206.287
361.3112, 1221.969
361.7933, 1229.183
362.2754, 1213.443
362.7575, 1189.079
363.2396, 1171.591
363.7217, 1169.946
364.2039, 1170.270
364.6860, 1168.919
365.1681, 1165.755
365.6502, 1164.343
366.1323, 1167.851
366.6144, 1171.557
367.0966, 1172.171
367.5787, 1164.570
368.0608, 1160.097
368.5429, 1161.761
369.0250, 1167.845
369.5071, 1169.177
369.9893, 1160.843
370.4714, 1153.470
370.9535, 1153.073
371.4356, 1165.566
371.9177, 1171.277
372.3998, 1167.657
372.8820, 1158.277
373.3641, 1150.723
373.8462, 1144.969
374.3283, 1141.167
374.8104, 1140.204
375.2925, 1142.499
375.7747, 1142.319
376.2568, 1139.043
376.7389, 1134.520
377.2210, 1131.355
377.7031, 1129.664
378.1852, 1127.588
378.6674, 1123.841
379.1495, 1119.283
379.6316, 1117.524
380.1137, 1118.675
380.5958, 1121.725
381.0779, 1127.420
381.5601, 1134.840
382.0422, 1138.883
382.5243, 1137.746
383.0064, 1133.680
383.4885, 1130.095
383.9706, 1126.887
384.4528, 1123.539
384.9349, 1118.791
385.4170, 1113.872
385.8991, 1110.881
386.3812, 1110.430
386.8633, 1110.863
387.3455, 1111.920
387.8276, 1112.746
388.3097, 1111.368
388.7918, 1102.730
389.2739, 1094.099
389.7560, 1091.958
390.2382, 1097.232
390.7203, 1103.829
391.2024, 1112.716
391.6845, 1119.677
392.1666, 1119.908
392.6487, 1102.203
393.1309, 1086.403
393.6130, 1080.858
394.0951, 1085.015
394.5772, 1091.412
395.0593, 1101.524
395.5414, 1111.150
396.0236, 1117.562
396.5057, 1118.389
396.9878, 1118.368
397.4699, 1118.224
397.9520, 1117.558
398.4341, 1115.052
398.9163, 1107.265
399.3984, 1101.215
399.8805, 1099.735
400.3626, 1104.529
400.8447, 1108.926
401.3268, 1113.136
401.8090, 1116.787
402.2911, 1119.411
402.7732, 1120.892
403.2553, 1121.493
403.7374, 1120.690
404.2195, 1118.670
404.7017, 1119.283
405.1838, 1123.286
405.6659, 1127.896
406.1480, 1130.712
406.6301, 1131.738
407.1122, 1131.917
407.5944, 1131.382
408.0765, 1130.125
408.5586, 1126.703
409.0407, 1121.188
409.5228, 1118.770
410.0049, 1128.196
410.4871, 1143.500
410.9692, 1145.258
411.4513, 1128.563
411.9334, 1110.221
412.4155, 1112.714
412.8976, 1129.664
413.3798, 1142.511
413.8619, 1139.485
414.3440, 1130.217
414.8261, 1123.382
415.3082, 1119.235
415.7903, 1118.424
416.2725, 1124.103
416.7546, 1132.285
417.2367, 1138.632
417.7188, 1142.025
418.2009, 1142.869
418.6830, 1139.511
419.1652, 1133.216
419.6473, 1128.758
420.1294, 1128.377
420.6115, 1129.735
421.0937, 1131.748
421.5758, 1134.756
422.0579, 1137.303
422.5400, 1139.288
423.0221, 1140.690
423.5042, 1141.524
423.9864, 1142.469
424.4685, 1142.002
424.9506, 1137.930
425.4327, 1129.448
425.9148, 1129.380
426.3969, 1143.667
426.8791, 1159.592
427.3612, 1165.458
427.8433, 1158.004
428.3254, 1150.533
428.8075, 1144.303
429.2896, 1139.522
429.7718, 1138.176
430.2539, 1141.310
430.7360, 1142.410
431.2181, 1134.093
431.7002, 1117.619
432.1823, 1114.183
432.6645, 1127.993
433.1466, 1144.324
433.6287, 1137.783
434.1108, 1113.563
434.5929, 1097.802
435.0750, 1107.863
435.5572, 1130.396
436.0393, 1142.172
436.5214, 1143.560
437.0035, 1142.375
437.4856, 1144.108
437.9677, 1147.241
438.4499, 1149.822
438.9320, 1151.899
439.4141, 1152.382
439.8962, 1148.357
440.3783, 1141.937
440.8604, 1138.457
441.3426, 1140.110
441.8247, 1145.543
442.3068, 1155.902
442.7889, 1173.378
443.2710, 1185.700
443.7531, 1184.024
444.2353, 1177.681
444.7174, 1176.961
445.1995, 1193.421
445.6816, 1204.497
446.1637, 1202.449
446.6458, 1189.104
447.1280, 1184.221
447.6101, 1192.765
448.0922, 1204.337
448.5743, 1213.395
449.0564, 1219.467
449.5385, 1224.220
450.0207, 1226.787
450.5028, 1228.872
450.9849, 1234.478
451.4670, 1244.575
451.9491, 1252.972
452.4312, 1256.627
452.9134, 1256.219
453.3955, 1257.111
453.8776, 1259.358
454.3597, 1262.457
454.8418, 1266.847
455.3239, 1271.928
455.8061, 1274.391
456.2882, 1271.591
456.7703, 1268.881
457.2524, 1275.762
457.7345, 1290.067
458.2166, 1303.140
458.6988, 1307.755
459.1809, 1309.378
459.6630, 1313.867
460.1451, 1322.141
460.6272, 1331.271
461.1093, 1340.599
461.5915, 1349.308
462.0736, 1356.186
462.5557, 1360.235
463.0378, 1362.988
463.5199, 1364.712
464.0020, 1365.476
464.4842, 1365.750
464.9663, 1364.327
465.4484, 1363.397
465.9305, 1364.094
466.4126, 1366.717
466.8947, 1370.649
467.3769, 1377.687
467.8590, 1385.235
468.3411, 1389.238
468.8232, 1389.465
469.3053, 1386.328
469.7874, 1378.909
470.2696, 1367.534
470.7517, 1358.766
471.2338, 1353.606
471.7159, 1348.055
472.1980, 1338.379
472.6801, 1324.620
473.1623, 1310.538
473.6444, 1296.073
474.1265, 1282.464
474.6086, 1272.610
475.0907, 1265.986
475.5728, 1259.201
476.0550, 1250.024
476.5371, 1239.657
477.0192, 1230.064
477.5013, 1221.266
477.9834, 1213.037
478.4655, 1203.284
478.9477, 1194.568
479.4298, 1190.652
479.9119, 1197.050
480.3940, 1202.857
480.8761, 1200.242
481.3582, 1192.243
481.8404, 1187.621
482.3225, 1196.043
482.8046, 1202.873
483.2867, 1199.541
483.7688, 1180.291
484.2509, 1168.406
484.7331, 1171.982
485.2152, 1180.665
485.6973, 1185.209
486.1794, 1185.598
486.6615, 1181.368
487.1436, 1169.427
487.6258, 1152.646
488.1079, 1145.152
488.5900, 1148.961
489.0721, 1156.683
489.5542, 1166.941
490.0363, 1179.889
490.5185, 1182.266
491.0006, 1171.458
491.4827, 1157.601
491.9648, 1155.515
492.4470, 1162.940
492.9291, 1167.747
493.4112, 1166.206
493.8933, 1159.392
494.3754, 1143.639
494.8575, 1121.228
495.3397, 1107.443
495.8218, 1120.031
496.3039, 1142.661
496.7860, 1156.871
497.2681, 1158.219
497.7502, 1158.706
498.2324, 1167.004
498.7145, 1177.685
499.1966, 1183.521
499.6787, 1175.783
500.1608, 1169.457
500.6429, 1170.606
501.1251, 1178.694
501.6072, 1183.687
502.0893, 1184.857
502.5714, 1182.879
503.0535, 1176.995
503.5356, 1161.953
504.0178, 1156.348
504.4999, 1164.751
504.9820, 1178.491
505.4641, 1184.158
505.9462, 1180.330
506.4283, 1175.831
506.9105, 1173.402
507.3926, 1172.189
507.8747, 1167.440
508.3568, 1158.820
508.8389, 1152.732
509.3210, 1156.356
509.8032, 1166.112
510.2853, 1171.910
510.7674, 1172.022
511.2495, 1170.169
511.7316, 1169.982
512.2137, 1170.655
512.6959, 1170.559
513.1780, 1166.359
513.6601, 1163.365
514.1422, 1167.169
514.6243, 1176.472
515.1064, 1182.311
515.5886, 1176.320
516.0707, 1169.186
516.5528, 1167.921
517.0349, 1177.381
517.5170, 1184.363
517.9991, 1187.641
518.4813, 1187.726
518.9634, 1184.402
519.4455, 1172.216
519.9276, 1166.440
520.4097, 1173.493
520.8918, 1190.275
521.3740, 1195.162
521.8561, 1184.396
522.3382, 1174.192
522.8203, 1177.487
523.3024, 1193.160
523.7845, 1201.703
524.2667, 1201.164
524.7488, 1196.935
525.2309, 1195.588
525.7130, 1196.142
526.1951, 1194.973
526.6772, 1188.025
527.1594, 1181.395
527.6415, 1184.340
528.1236, 1194.719
528.6057, 1203.194
529.0878, 1204.459
529.5699, 1201.686
530.0521, 1195.746
530.5342, 1185.074
531.0163, 1178.758
531.4984, 1183.531
531.9805, 1192.432
532.4626, 1198.069
532.9448, 1192.516
533.4269, 1192.251
533.9090, 1203.843
534.3911, 1222.576
534.8732, 1228.721
535.3553, 1215.944
535.8375, 1202.466
536.3196, 1196.396
536.8017, 1198.002
537.2838, 1199.402
537.7659, 1200.367
538.2480, 1201.927
538.7302, 1206.295
539.2123, 1212.830
539.6944, 1216.634
540.1765, 1216.067
540.6586, 1213.385
541.1407, 1211.008
541.6229, 1209.049
542.1050, 1207.872
542.5871, 1208.512
543.0692, 1209.472
543.5513, 1209.586
544.0334, 1208.783
544.5156, 1207.067
544.9977, 1201.238
545.4798, 1196.335
545.9619, 1196.520
546.4440, 1205.417
546.9261, 1215.182
547.4083, 1229.578
547.8904, 1243.198
548.3725, 1245.519
548.8546, 1228.001
549.3367, 1213.068
549.8188, 1205.253
550.3010, 1204.513
550.7831, 1213.730
551.2652, 1237.706
551.7473, 1255.624
552.2294, 1245.090
552.7115, 1210.232
553.1937, 1195.573
553.6758, 1207.738
554.1579, 1227.218
554.6400, 1229.628
555.1221, 1219.705
555.6042, 1210.962
556.0864, 1208.493
556.5685, 1208.912
557.0506, 1210.723
557.5327, 1213.147
558.0148, 1213.237
558.4969, 1207.055
558.9791, 1199.961
559.4612, 1194.137
559.9433, 1188.935
560.4254, 1189.700
560.9075, 1204.576
561.3896, 1221.808
561.8718, 1231.046
562.3539, 1226.372
562.8360, 1224.065
563.3181, 1227.693
563.8002, 1233.289
564.2823, 1230.384
564.7645, 1217.285
565.2466, 1203.192
565.7287, 1190.035
566.2108, 1178.780
566.6929, 1175.964
567.1750, 1181.887
567.6572, 1189.932
568.1393, 1193.871
568.6214, 1195.989
569.1035, 1201.859
569.5856, 1213.859
570.0677, 1223.664
570.5499, 1221.949
571.0320, 1214.068
571.5141, 1208.503
571.9962, 1207.572
572.4783, 1210.316
572.9604, 1220.128
573.4426, 1234.687
573.9247, 1242.482
574.4068, 1234.433
574.8889, 1225.759
575.3710, 1222.327
575.8531, 1225.201
576.3353, 1228.156
576.8174, 1232.007
577.2995, 1234.689
577.7816, 1233.109
578.2637, 1226.588
578.7458, 1223.834
579.2280, 1227.419
579.7101, 1232.896
580.1922, 1230.547
580.6743, 1222.033
581.1564, 1216.741
581.6385, 1222.450
582.1207, 1231.995
582.6028, 1235.083
583.0849, 1232.565
583.5670, 1231.337
584.0491, 1236.662
584.5313, 1244.136
585.0134, 1249.725
585.4955, 1251.120
585.9776, 1256.173
586.4597, 1276.169
586.9418, 1296.874
587.4240, 1301.283
587.9061, 1273.566
588.3882, 1254.094
588.8703, 1250.078
589.3524, 1256.270
589.8345, 1256.653
590.3167, 1249.314
590.7988, 1243.513
591.2809, 1243.665
591.7630, 1248.759
592.2451, 1255.531
592.7272, 1264.212
593.2094, 1268.875
593.6915, 1260.852
594.1736, 1246.056
594.6557, 1236.042
595.1378, 1233.617
595.6199, 1232.783
596.1021, 1227.511
596.5842, 1221.450
597.0663, 1219.801
597.5485, 1230.531
598.0306, 1239.386
598.5127, 1240.860
598.9948, 1236.427
599.4769, 1232.699
599.9590, 1230.094
600.4412, 1228.248
600.9233, 1227.493
601.4054, 1228.010
601.8875, 1226.115
602.3696, 1220.457
602.8517, 1215.745
603.3339, 1217.288
603.8160, 1224.473
604.2981, 1228.940
604.7802, 1229.354
605.2623, 1228.195
605.7444, 1231.375
606.2266, 1235.718
606.7087, 1232.084
607.1908, 1205.176
607.6729, 1181.398
608.1550, 1189.549
608.6371, 1219.536
609.1193, 1238.834
609.6014, 1223.495
610.0835, 1203.621
610.5656, 1193.389
611.0477, 1194.863
611.5298, 1197.434
612.0120, 1206.196
612.4941, 1210.491
612.9762, 1200.549
613.4583, 1168.781
613.9404, 1150.789
614.4225, 1150.014
614.9047, 1160.003
615.3868, 1176.319
615.8689, 1197.976
616.3510, 1209.098
616.8331, 1200.495
617.3152, 1185.009
617.7974, 1183.016
618.2795, 1191.650
618.7616, 1199.588
619.2437, 1200.374
619.7258, 1198.253
620.2079, 1196.212
620.6901, 1194.425
621.1722, 1191.768
621.6543, 1185.986
622.1364, 1180.503
622.6185, 1177.678
623.1006, 1178.507
623.5828, 1180.074
624.0649, 1183.141
624.5470, 1186.245
625.0291, 1187.493
625.5112, 1186.556
625.9933, 1185.344
626.4755, 1183.803
626.9576, 1182.721
627.4397, 1184.088
627.9218, 1187.659
628.4039, 1191.578
628.8860, 1197.903
629.3682, 1202.489
629.8503, 1195.277
630.3324, 1178.473
630.8145, 1168.837
631.2966, 1185.987
631.7787, 1207.025
632.2609, 1214.567
632.7430, 1202.544
633.2251, 1192.243
633.7072, 1188.399
634.1893, 1187.610
634.6714, 1187.237
635.1536, 1187.865
635.6357, 1187.498
636.1178, 1185.541
636.5999, 1183.006
637.0820, 1182.095
637.5641, 1182.910
638.0463, 1182.743
638.5284, 1179.824
639.0105, 1176.162
639.4926, 1176.480
639.9747, 1180.102
640.4568, 1183.093
640.9390, 1180.287
641.4211, 1177.592
641.9032, 1182.078
642.3853, 1194.196
642.8674, 1203.999
643.3495, 1207.451
643.8317, 1207.217
644.3138, 1205.234
644.7959, 1202.604
645.2780, 1195.796
645.7601, 1180.594
646.2422, 1164.938
646.7244, 1158.156
647.2065, 1161.293
647.6886, 1169.120
648.1707, 1182.915
648.6528, 1197.782
649.1349, 1204.145
649.6171, 1202.524
650.0992, 1196.936
650.5813, 1180.874
651.0634, 1167.066
651.5455, 1178.679
652.0276, 1210.157
652.5098, 1231.070
652.9919, 1213.939
653.4740, 1189.953
653.9561, 1179.286
654.4382, 1186.523
654.9203, 1191.056
655.4025, 1187.891
655.8846, 1183.262
656.3667, 1181.210
656.8488, 1182.321
657.3309, 1185.260
657.8130, 1192.215
658.2952, 1196.969
658.7773, 1185.818
659.2594, 1160.748
659.7415, 1148.003
660.2236, 1158.988
660.7057, 1177.795
661.1879, 1179.653
661.6700, 1170.349
662.1521, 1166.005
662.6342, 1185.389
663.1163, 1202.762
663.5984, 1196.721
664.0806, 1170.639
664.5627, 1154.522
665.0448, 1166.600
665.5269, 1180.500
666.0090, 1184.565
666.4911, 1177.138
666.9733, 1171.945
667.4554, 1169.412
667.9375, 1168.265
668.4196, 1167.787
668.9017, 1167.947
669.3839, 1167.851
669.8660, 1167.434
670.3481, 1166.697
670.8302, 1164.686
671.3123, 1162.433
671.7944, 1162.152
672.2766, 1164.587
672.7587, 1169.088
673.2408, 1177.719
673.7229, 1187.827
674.2050, 1194.397
674.6871, 1193.958
675.1693, 1192.015
675.6514, 1189.378
676.1335, 1186.302
676.6156, 1184.079
677.0977, 1182.869
677.5798, 1182.136
678.0620, 1181.377
678.5441, 1180.763
679.0262, 1182.301
679.5083, 1186.096
679.9904, 1190.537
680.4725, 1194.536
680.9547, 1198.235
681.4368, 1203.076
681.9189, 1209.711
682.4010, 1212.350
682.8831, 1202.019
683.3652, 1188.147
683.8474, 1180.760
684.3295, 1189.799
684.8116, 1193.103
685.2937, 1180.990
685.7758, 1164.318
686.2579, 1157.628
686.7401, 1164.391
687.2222, 1171.932
687.7043, 1178.883
688.1864, 1184.454
688.6685, 1183.878
689.1506, 1177.889
689.6328, 1178.680
690.1149, 1201.996
690.5970, 1228.592
691.0791, 1222.828
691.5612, 1191.260
692.0433, 1167.489
692.5255, 1177.651
693.0076, 1194.468
693.4897, 1200.700
693.9718, 1194.097
694.4539, 1187.833
694.9360, 1180.934
695.4182, 1177.433
695.9003, 1180.977
696.3824, 1194.851
696.8645, 1201.030
697.3466, 1198.036
697.8287, 1191.216
698.3109, 1185.548
698.7930, 1180.912
699.2751, 1176.394
699.7572, 1171.549
700.2393, 1168.020
700.7214, 1166.483
701.2036, 1167.677
701.6857, 1172.995
702.1678, 1190.521
702.6499, 1203.389
703.1320, 1202.035
703.6141, 1191.449
704.0963, 1184.043
704.5784, 1179.748
705.0605, 1179.959
705.5426, 1186.802
706.0247, 1198.278
706.5068, 1205.856
706.9890, 1209.620
707.4711, 1209.183
707.9532, 1200.823
708.4353, 1188.874
708.9174, 1185.398
709.3995, 1189.768
709.8817, 1196.159
710.3638, 1201.485
710.8459, 1206.438
711.3280, 1212.178
711.8101, 1219.249
712.2922, 1223.552
712.7744, 1222.711
713.2565, 1219.579
713.7386, 1215.752
714.2207, 1209.473
714.7028, 1207.836
715.1849, 1213.315
715.6671, 1219.102
716.1492, 1217.249
716.6313, 1208.275
717.1134, 1196.716
717.5955, 1181.601
718.0776, 1170.070
718.5598, 1175.538
719.0419, 1190.504
719.5240, 1200.308
720.0061, 1195.639
720.4882, 1189.747
720.9703, 1188.952
721.4525, 1191.340
721.9346, 1192.519
722.4167, 1189.443
722.8988, 1188.498
723.3809, 1192.191
723.8630, 1198.768
724.3452, 1200.438
724.8273, 1196.420
725.3094, 1193.031
725.7915, 1192.772
726.2736, 1195.445
726.7557, 1204.288
727.2379, 1217.759
727.7200, 1223.731
728.2021, 1204.067
728.6842, 1180.904
729.1663, 1174.415
729.6484, 1186.830
730.1306, 1196.612
730.6127, 1193.048
731.0948, 1189.030
731.5769, 1192.423
732.0590, 1206.311
732.5411, 1214.560
733.0233, 1215.996
733.5054, 1214.432
733.9875, 1213.259
734.4696, 1212.254
734.9517, 1209.910
735.4338, 1206.076
735.9160, 1200.751
736.3981, 1189.510
736.8802, 1178.169
737.3623, 1176.506
737.8444, 1194.229
738.3266, 1208.093
738.8087, 1205.291
739.2908, 1194.736
739.7729, 1189.673
740.2551, 1195.565
740.7372, 1197.526
741.2193, 1191.401
741.7014, 1182.520
742.1835, 1183.424
742.6656, 1194.233
743.1478, 1203.642
743.6299, 1206.618
744.1120, 1208.072
744.5941, 1218.983
745.0762, 1235.368
745.5583, 1245.199
746.0405, 1234.784
746.5226, 1223.261
747.0047, 1223.393
747.4868, 1232.767
747.9689, 1236.137
748.4510, 1228.407
748.9332, 1218.561
749.4153, 1207.693
749.8974, 1196.426
750.3795, 1192.783
750.8616, 1197.713
751.3438, 1202.904
751.8259, 1201.900
752.3080, 1197.548
752.7901, 1196.761
753.2722, 1199.577
753.7543, 1203.254
754.2365, 1208.560
754.7186, 1212.189
755.2007, 1210.031
755.6828, 1200.018
756.1649, 1194.140
756.6470, 1199.797
757.1292, 1205.302
757.6113, 1201.907
758.0934, 1185.109
758.5755, 1181.113
759.0576, 1192.441
759.5397, 1208.082
760.0219, 1216.730
760.5040, 1220.303
760.9861, 1225.539
761.4682, 1234.351
761.9503, 1239.803
762.4324, 1231.301
762.9146, 1218.527
763.3967, 1213.107
763.8788, 1223.009
764.3609, 1231.981
764.8430, 1237.352
765.3251, 1240.470
765.8073, 1243.537
766.2894, 1248.127
766.7715, 1245.775
767.2536, 1233.633
767.7357, 1217.237
768.2178, 1202.604
768.7000, 1191.034
769.1821, 1188.700
769.6642, 1200.956
770.1463, 1217.529
770.6284, 1235.229
771.1105, 1250.123
771.5927, 1254.610
772.0748, 1233.405
772.5569, 1216.386
773.0390, 1208.574
773.5211, 1210.052
774.0032, 1226.060
774.4854, 1264.675
774.9675, 1286.440
775.4496, 1274.758
775.9317, 1242.889
776.4138, 1218.979
776.8959, 1203.626
777.3781, 1198.938
777.8602, 1219.226
778.3423, 1240.077
778.8244, 1237.780
779.3065, 1217.295
779.7886, 1200.524
780.2708, 1197.061
780.7529, 1195.237
781.2350, 1188.995
781.7171, 1179.756
782.1992, 1182.539
782.6813, 1200.238
783.1635, 1218.403
783.6456, 1230.668
784.1277, 1237.536
784.6098, 1240.279
785.0919, 1239.077
785.5740, 1235.980
786.0562, 1229.899
786.5383, 1224.219
787.0204, 1222.021
787.5025, 1223.460
787.9846, 1225.794
788.4667, 1233.009
788.9489, 1236.249
789.4310, 1229.436
789.9131, 1211.559
790.3952, 1205.074
790.8773, 1211.999
791.3594, 1221.155
791.8416, 1223.304
792.3237, 1221.358
792.8058, 1223.749
793.2879, 1230.828
793.7700, 1237.269
794.2521, 1238.830
794.7343, 1238.572
795.2164, 1239.893
795.6985, 1244.807
796.1806, 1243.260
796.6627, 1227.984
797.1448, 1213.084
797.6270, 1208.916
798.1091, 1217.442
798.5912, 1219.800
799.0733, 1214.718
799.5554, 1209.771
800.0375, 1214.858
800.5197, 1224.660
801.0018, 1227.331
801.4839, 1220.088
801.9660, 1215.906
802.4481, 1227.003
802.9302, 1241.911
803.4124, 1251.357
803.8945, 1254.233
804.3766, 1249.594
804.8587, 1231.447
805.3408, 1213.704
805.8229, 1211.005
806.3051, 1223.231
806.7872, 1232.064
807.2693, 1235.987
807.7514, 1236.303
808.2335, 1230.363
808.7156, 1223.142
809.1978, 1223.943
809.6799, 1238.685
810.1620, 1247.968
810.6441, 1239.075
811.1262, 1223.458
811.6083, 1211.845
812.0905, 1202.166
812.5726, 1203.134
813.0547, 1219.074
813.5368, 1237.609
814.0189, 1243.884
814.5010, 1239.509
814.9832, 1232.700
815.4653, 1223.760
815.9474, 1217.623
816.4295, 1222.389
816.9116, 1231.093
817.3937, 1234.753
817.8759, 1227.939
818.3580, 1222.335
818.8401, 1219.784
819.3222, 1219.877
819.8043, 1224.085
820.2864, 1235.336
820.7686, 1234.821
821.2507, 1217.325
821.7328, 1198.559
822.2149, 1203.508
822.6970, 1223.093
823.1791, 1233.408
823.6613, 1226.290
824.1434, 1218.324
824.6255, 1221.679
825.1076, 1229.657
825.5897, 1234.757
826.0718, 1231.582
826.5540, 1231.678
827.0361, 1237.195
827.5182, 1243.564
828.0003, 1244.661
828.4824, 1240.555
828.9645, 1238.652
829.4467, 1240.714
829.9288, 1242.342
830.4109, 1236.340
830.8930, 1227.302
831.3751, 1222.497
831.8572, 1225.429
832.3394, 1229.104
832.8215, 1231.524
833.3036, 1233.268
833.7857, 1235.561
834.2678, 1240.472
834.7499, 1238.742
835.2321, 1227.386
835.7142, 1214.947
836.1963, 1211.165
836.6784, 1215.258
837.1605, 1226.707
837.6426, 1247.686
838.1248, 1265.055
838.6069, 1265.472
839.0890, 1258.163
839.5711, 1253.399
840.0532, 1256.648
840.5353, 1256.064
841.0175, 1248.970
841.4996, 1239.930
841.9817, 1232.040
842.4638, 1224.981
842.9459, 1227.904
843.4280, 1243.512
843.9102, 1259.526
844.3923, 1261.163
844.8744, 1254.583
845.3565, 1249.338
845.8386, 1247.288
846.3207, 1246.729
846.8029, 1249.899
847.2850, 1252.339
847.7671, 1249.376
848.2492, 1235.794
848.7313, 1231.811
849.2134, 1239.950
849.6956, 1251.342
850.1777, 1259.271
850.6598, 1263.248
851.1419, 1259.155
851.6240, 1245.421
852.1061, 1234.837
852.5883, 1241.208
853.0704, 1252.667
853.5525, 1258.496
854.0346, 1255.765
854.5167, 1250.419
854.9988, 1238.087
855.4810, 1229.440
855.9631, 1235.133
856.4452, 1255.547
856.9273, 1264.941
857.4094, 1262.217
857.8915, 1255.188
858.3737, 1247.737
858.8558, 1241.559
859.3379, 1240.252
859.8200, 1244.734
860.3021, 1246.297
860.7842, 1237.554
861.2664, 1228.498
861.7485, 1224.094
862.2306, 1224.262
862.7127, 1231.260
863.1948, 1246.989
863.6769, 1261.430
864.1591, 1265.445
864.6412, 1263.432
865.1233, 1268.644
865.6054, 1280.498
866.0875, 1285.602
866.5696, 1267.476
867.0518, 1247.186
867.5339, 1238.924
868.0160, 1244.269
868.4981, 1247.555
868.9802, 1249.579
869.4623, 1247.479
869.9445, 1236.520
870.4266, 1220.530
870.9087, 1218.755
871.3908, 1230.188
871.8729, 1244.098
872.3550, 1256.089
872.8372, 1266.151
873.3193, 1275.991
873.8014, 1284.601
874.2835, 1285.988
874.7656, 1268.732
875.2477, 1256.250
875.7299, 1255.874
876.2120, 1264.389
876.6941, 1270.154
877.1762, 1273.163
877.6583, 1272.805
878.1404, 1265.836
878.6226, 1258.445
879.1047, 1260.897
879.5869, 1269.575
880.0690, 1275.227
880.5511, 1268.114
881.0332, 1264.767
881.5153, 1273.888
881.9974, 1288.628
882.4796, 1295.075
882.9617, 1291.999
883.4438, 1286.717
883.9259, 1279.155
884.4080, 1273.887
884.8901, 1284.298
885.3723, 1302.327
885.8544, 1308.216
886.3365, 1285.606
886.8186, 1265.167
887.3007, 1261.240
887.7828, 1267.342
888.2650, 1275.463
888.7471, 1290.415
889.2292, 1292.139
889.7113, 1275.226
890.1934, 1253.203
890.6755, 1242.949
891.1577, 1242.012
891.6398, 1242.655
892.1219, 1243.505
892.6040, 1245.521
893.0861, 1247.323
893.5682, 1251.776
894.0504, 1262.574
894.5325, 1285.224
895.0146, 1301.253
895.4967, 1309.849
895.9788, 1313.319
896.4609, 1314.886
896.9431, 1313.461
897.4252, 1296.832
897.9073, 1264.113
898.3894, 1239.271
898.8715, 1245.403
899.3536, 1263.218
899.8358, 1279.348
900.3179, 1292.769
900.8000, 1295.976
901.2821, 1281.758
901.7642, 1267.335
902.2463, 1259.500
902.7285, 1258.092
903.2106, 1264.070
903.6927, 1276.956
904.1748, 1285.068
904.6569, 1275.083
905.1390, 1261.509
905.6212, 1259.101
906.1033, 1266.203
906.5854, 1274.161
907.0675, 1285.746
907.5496, 1291.185
908.0317, 1285.354
908.5139, 1272.994
908.9960, 1268.718
909.4781, 1272.587
909.9602, 1278.563
910.4423, 1286.297
910.9244, 1292.204
911.4066, 1287.628
911.8887, 1278.841
912.3708, 1277.383
912.8529, 1299.271
913.3350, 1313.151
913.8171, 1309.843
914.2993, 1298.635
914.7814, 1290.488
915.2635, 1285.331
915.7456, 1285.248
916.2277, 1291.620
916.7098, 1298.393
917.1920, 1295.438
917.6741, 1289.499
918.1562, 1291.469
918.6383, 1306.121
919.1204, 1319.308
919.6025, 1329.272
920.0847, 1334.087
920.5668, 1330.862
921.0489, 1317.636
921.5310, 1310.644
922.0131, 1310.338
922.4952, 1312.559
922.9774, 1317.764
923.4595, 1321.511
923.9416, 1314.483
924.4237, 1297.132
924.9058, 1283.334
925.3879, 1278.779
925.8701, 1278.957
926.3522, 1282.238
926.8343, 1288.403
927.3164, 1297.187
927.7985, 1309.532
928.2806, 1315.977
928.7628, 1308.400
929.2449, 1295.944
929.7270, 1294.143
930.2091, 1299.340
930.6912, 1301.571
931.1733, 1292.043
931.6555, 1284.445
932.1376, 1281.347
932.6197, 1283.390
933.1018, 1295.970
933.5839, 1322.714
934.0660, 1329.880
934.5482, 1305.719
935.0303, 1278.072
935.5124, 1289.690
935.9945, 1321.127
936.4766, 1337.398
936.9587, 1325.503
937.4409, 1312.278
937.9230, 1304.404
938.4051, 1299.950
938.8872, 1298.032
939.3693, 1299.396
939.8514, 1298.281
940.3336, 1294.276
940.8157, 1290.832
941.2978, 1291.502
941.7799, 1294.187
942.2620, 1296.175
942.7441, 1297.250
943.2263, 1297.423
943.7084, 1294.870
944.1905, 1293.342
944.6726, 1294.260
945.1547, 1297.432
945.6368, 1301.078
946.1190, 1305.054
946.6011, 1313.203
947.0832, 1333.474
947.5653, 1352.003
948.0474, 1345.084
948.5295, 1322.323
949.0117, 1306.062
949.4938, 1308.932
949.9759, 1312.948
950.4580, 1313.776
950.9401, 1314.465
951.4222, 1321.622
951.9044, 1335.516
952.3865, 1340.559
952.8686, 1332.663
953.3507, 1323.235
953.8328, 1326.168
954.3149, 1333.983
954.7971, 1336.542
955.2792, 1329.642
955.7613, 1326.276
956.2434, 1330.398
956.7255, 1336.119
957.2076, 1340.569
957.6898, 1343.723
958.1719, 1343.543
958.6540, 1340.087
959.1361, 1337.312
959.6182, 1342.270
960.1003, 1345.751
960.5825, 1334.320
961.0646, 1311.648
961.5467, 1301.123
962.0288, 1316.787
962.5109, 1330.177
962.9930, 1334.967
963.4752, 1333.000
963.9573, 1324.965
964.4394, 1312.764
964.9215, 1308.233
965.4036, 1317.692
965.8857, 1331.223
966.3679, 1346.438
966.8500, 1358.568
967.3321, 1361.037
967.8142, 1347.112
968.2963, 1333.077
968.7784, 1316.374
969.2606, 1305.083
969.7427, 1313.712
970.2248, 1334.934
970.7069, 1339.295
971.1890, 1324.789
971.6711, 1312.327
972.1533, 1320.853
972.6354, 1331.765
973.1175, 1329.411
973.5996, 1313.965
974.0817, 1313.022
974.5638, 1331.543
975.0460, 1346.798
975.5281, 1347.853
976.0102, 1341.186
976.4923, 1339.639
976.9744, 1342.053
977.4565, 1345.016
977.9387, 1349.347
978.4208, 1351.275
978.9029, 1347.828
979.3850, 1341.973
979.8671, 1337.363
980.3492, 1333.989
980.8314, 1331.937
981.3135, 1331.078
981.7956, 1332.182
982.2777, 1338.065
982.7598, 1345.553
983.2419, 1348.966
983.7241, 1346.563
984.2062, 1347.987
984.6883, 1364.959
985.1704, 1377.069
985.6525, 1373.221
986.1346, 1355.331
986.6168, 1344.309
987.0989, 1339.928
987.5810, 1335.083
988.0631, 1321.152
988.5452, 1308.677
989.0273, 1310.506
989.5095, 1321.658
989.9916, 1329.297
990.4737, 1326.654
990.9558, 1327.173
991.4379, 1332.861
991.9200, 1341.662
992.4022, 1351.231
992.8843, 1361.208
993.3664, 1370.527
993.8485, 1378.979
994.3306, 1386.282
994.8127, 1395.404
995.2949, 1401.112
995.7770, 1396.779
996.2591, 1380.289
996.7412, 1369.462
997.2233, 1365.193
997.7054, 1363.647
998.1876, 1362.417
998.6697, 1362.349
999.1518, 1368.064
999.6339, 1377.266
1000.116, 1380.917
1000.598, 1365.796
1001.080, 1355.202
1001.562, 1362.674
1002.044, 1377.113
1002.527, 1376.543
1003.009, 1359.438
1003.491, 1350.187
1003.973, 1354.471
1004.455, 1362.715
1004.937, 1366.229
1005.419, 1366.501
1005.901, 1364.021
1006.384, 1356.665
1006.866, 1356.808
1007.348, 1370.773
1007.830, 1384.606
1008.312, 1391.696
1008.794, 1392.053
1009.276, 1382.836
1009.758, 1365.303
1010.240, 1349.671
1010.723, 1339.846
1011.205, 1335.831
1011.687, 1339.729
1012.169, 1349.434
1012.651, 1359.621
1013.133, 1372.344
1013.615, 1378.742
1014.097, 1376.418
1014.580, 1370.257
1015.062, 1364.794
1015.544, 1361.063
1016.026, 1363.103
1016.508, 1373.698
1016.990, 1377.586
1017.472, 1358.711
1017.954, 1340.675
1018.436, 1337.871
1018.919, 1349.509
1019.401, 1357.928
1019.883, 1363.121
1020.365, 1367.776
1020.847, 1374.810
1021.329, 1380.907
1021.811, 1382.867
1022.293, 1381.274
1022.776, 1377.354
1023.258, 1364.708
1023.740, 1361.520
1024.222, 1372.260
1024.704, 1388.568
1025.186, 1402.505
1025.668, 1412.391
1026.150, 1409.008
1026.632, 1389.958
1027.115, 1373.846
1027.597, 1374.666
1028.079, 1380.033
1028.561, 1381.915
1029.043, 1380.290
1029.525, 1376.718
1030.007, 1370.079
1030.489, 1371.963
1030.972, 1395.828
1031.454, 1421.990
1031.936, 1418.335
1032.418, 1396.573
1032.900, 1381.892
1033.382, 1393.027
1033.864, 1395.298
1034.346, 1378.796
1034.828, 1360.979
1035.311, 1365.485
1035.793, 1388.017
1036.275, 1398.891
1036.757, 1395.755
1037.239, 1390.372
1037.721, 1390.880
1038.203, 1392.328
1038.685, 1390.402
1039.167, 1385.640
1039.650, 1384.626
1040.132, 1387.924
1040.614, 1392.965
1041.096, 1400.083
1041.578, 1406.296
1042.060, 1404.320
1042.542, 1398.383
1043.024, 1397.082
1043.507, 1409.262
1043.989, 1413.030
1044.471, 1396.584
1044.953, 1379.791
1045.435, 1380.109
1045.917, 1395.852
1046.399, 1404.860
1046.881, 1406.877
1047.364, 1406.347
1047.846, 1407.143
1048.328, 1405.617
1048.810, 1395.602
1049.292, 1380.651
1049.774, 1376.358
1050.256, 1386.744
1050.738, 1393.373
1051.220, 1391.466
1051.703, 1387.420
1052.185, 1391.736
1052.667, 1399.864
1053.149, 1403.958
1053.631, 1401.814
1054.113, 1398.678
1054.595, 1391.374
1055.077, 1389.048
1055.559, 1400.860
1056.042, 1422.542
1056.524, 1419.928
1057.006, 1396.404
1057.488, 1379.670
1057.970, 1397.336
1058.452, 1413.598
1058.934, 1399.084
1059.416, 1369.811
1059.899, 1356.669
1060.381, 1363.972
1060.863, 1375.459
1061.345, 1391.597
1061.827, 1404.354
1062.309, 1399.520
1062.791, 1389.091
1063.273, 1394.131
1063.755, 1415.884
1064.238, 1429.946
1064.720, 1425.969
1065.202, 1417.444
1065.684, 1405.562
1066.166, 1393.677
1066.648, 1393.709
1067.130, 1403.069
1067.612, 1409.499
1068.094, 1407.728
1068.577, 1405.469
1069.059, 1411.309
1069.541, 1416.059
1070.023, 1408.097
1070.505, 1381.679
1070.987, 1379.707
1071.469, 1404.689
1071.951, 1429.179
1072.434, 1432.063
1072.916, 1425.739
1073.398, 1423.911
1073.880, 1425.518
1074.362, 1425.776
1074.844, 1418.246
1075.326, 1419.674
1075.808, 1436.505
1076.291, 1455.272
1076.773, 1454.333
1077.255, 1440.237
1077.737, 1431.772
1078.219, 1431.898
1078.701, 1432.888
1079.183, 1430.319
1079.665, 1428.410
1080.147, 1431.331
1080.630, 1436.903
1081.112, 1427.818
1081.594, 1404.894
1082.076, 1394.284
1082.558, 1411.023
1083.040, 1433.761
1083.522, 1449.461
1084.004, 1456.855
1084.486, 1452.057
1084.969, 1425.065
1085.451, 1415.928
1085.933, 1429.145
1086.415, 1443.536
1086.897, 1441.010
1087.379, 1429.807
1087.861, 1422.039
1088.343, 1418.275
1088.826, 1419.375
1089.308, 1432.655
1089.790, 1441.192
1090.272, 1440.247
1090.754, 1435.430
1091.236, 1438.019
1091.718, 1444.972
1092.200, 1438.865
1092.682, 1415.872
1093.165, 1398.817
1093.647, 1410.999
1094.129, 1425.454
1094.611, 1422.130
1095.093, 1404.708
1095.575, 1401.995
1096.057, 1414.603
1096.539, 1427.014
1097.022, 1433.809
1097.504, 1437.010
1097.986, 1436.921
1098.468, 1435.191
1098.950, 1434.489
1099.432, 1437.783
1099.914, 1433.410
1100.396, 1418.050
1100.879, 1406.016
1101.361, 1411.978
1101.843, 1426.443
1102.325, 1429.476
1102.807, 1424.228
1103.289, 1423.045
1103.771, 1437.399
1104.253, 1446.571
1104.735, 1445.055
1105.218, 1439.755
1105.700, 1441.016
1106.182, 1447.155
1106.664, 1449.533
1107.146, 1447.169
1107.628, 1445.169
1108.110, 1447.385
1108.592, 1450.173
1109.074, 1452.356
1109.557, 1453.389
1110.039, 1449.143
1110.521, 1439.454
1111.003, 1436.201
1111.485, 1445.386
1111.967, 1454.364
1112.449, 1449.068
1112.931, 1438.143
1113.414, 1430.706
1113.896, 1428.114
1114.378, 1426.800
1114.860, 1426.075
1115.342, 1429.870
1115.824, 1444.550
1116.306, 1461.576
1116.788, 1465.234
1117.271, 1460.798
1117.753, 1460.089
1118.235, 1472.682
1118.717, 1480.230
1119.199, 1480.941
1119.681, 1477.814
1120.163, 1470.360
1120.645, 1461.963
1121.127, 1468.018
1121.609, 1486.485
1122.092, 1493.021
1122.574, 1457.569
1123.056, 1430.085
1123.538, 1429.358
1124.020, 1443.947
1124.502, 1452.686
1124.984, 1456.062
1125.466, 1458.089
1125.949, 1459.409
1126.431, 1459.702
1126.913, 1455.302
1127.395, 1452.787
1127.877, 1459.750
1128.359, 1474.136
1128.841, 1477.720
1129.323, 1469.787
1129.806, 1464.494
1130.288, 1469.463
1130.770, 1473.828
1131.252, 1460.918
1131.734, 1443.423
1132.216, 1439.637
1132.698, 1457.458
1133.180, 1465.830
1133.662, 1462.490
1134.145, 1459.042
1134.627, 1464.759
1135.109, 1473.686
1135.591, 1477.101
1136.073, 1476.022
1136.555, 1472.935
1137.037, 1464.286
1137.519, 1460.697
1138.001, 1464.761
1138.484, 1469.781
1138.966, 1469.232
1139.448, 1464.125
1139.930, 1454.901
1140.412, 1442.378
1140.894, 1433.731
1141.376, 1432.877
1141.858, 1435.183
1142.341, 1439.779
1142.823, 1446.135
1143.305, 1452.071
1143.787, 1458.773
1144.269, 1474.479
1144.751, 1501.975
1145.233, 1522.313
1145.715, 1519.379
1146.198, 1511.432
1146.680, 1508.108
1147.162, 1508.595
1147.644, 1510.322
1148.126, 1512.934
1148.608, 1511.023
1149.090, 1500.616
1149.572, 1491.262
1150.054, 1494.973
1150.536, 1499.681
1151.019, 1491.351
1151.501, 1468.042
1151.983, 1459.593
1152.465, 1466.517
1152.947, 1474.249
1153.429, 1473.455
1153.911, 1471.608
1154.393, 1475.804
1154.876, 1483.874
1155.358, 1492.501
1155.840, 1502.632
1156.322, 1509.710
1156.804, 1513.925
1157.286, 1513.578
1157.768, 1501.669
1158.250, 1488.352
1158.733, 1486.602
1159.215, 1494.780
1159.697, 1506.126
1160.179, 1526.131
1160.661, 1533.796
1161.143, 1524.220
1161.625, 1508.798
1162.107, 1497.079
1162.589, 1490.070
1163.072, 1492.281
1163.554, 1503.114
1164.036, 1509.063
1164.518, 1500.479
1165.000, 1498.338
1165.482, 1511.119
1165.964, 1527.141
1166.446, 1520.933
1166.928, 1502.434
1167.411, 1494.968
1167.893, 1504.535
1168.375, 1512.497
1168.857, 1509.076
1169.339, 1508.107
1169.821, 1517.294
1170.303, 1530.792
1170.785, 1530.041
1171.268, 1518.828
1171.750, 1509.359
1172.232, 1505.343
1172.714, 1504.012
1173.196, 1510.552
1173.678, 1512.916
1174.160, 1499.380
1174.642, 1474.565
1175.125, 1473.203
1175.607, 1491.505
1176.089, 1508.613
1176.571, 1510.588
1177.053, 1514.830
1177.535, 1536.640
1178.017, 1558.336
1178.499, 1562.115
1178.981, 1548.229
1179.464, 1535.746
1179.946, 1525.063
1180.428, 1518.368
1180.910, 1517.054
1181.392, 1520.036
1181.874, 1531.417
1182.356, 1544.432
1182.838, 1547.698
1183.320, 1540.789
1183.803, 1538.268
1184.285, 1541.396
1184.767, 1544.511
1185.249, 1543.996
1185.731, 1541.398
1186.213, 1534.165
1186.695, 1526.301
1187.177, 1531.524
1187.660, 1551.422
1188.142, 1557.241
1188.624, 1542.376
1189.106, 1528.516
1189.588, 1540.122
1190.070, 1556.268
1190.552, 1558.264
1191.034, 1547.838
1191.516, 1541.303
1191.999, 1537.921
1192.481, 1549.695
1192.963, 1585.370
1193.445, 1615.558
1193.927, 1604.674
1194.409, 1577.680
1194.891, 1557.106
1195.373, 1544.766
1195.855, 1543.683
1196.338, 1555.446
1196.820, 1564.356
1197.302, 1562.916
1197.784, 1558.905
1198.266, 1560.200
1198.748, 1564.292
1199.230, 1568.138
1199.712, 1571.203
1200.195, 1576.258
1200.677, 1584.436
1201.159, 1586.093
1201.641, 1569.880
1202.123, 1552.310
1202.605, 1556.261
1203.087, 1570.506
1203.569, 1576.305
1204.052, 1569.001
1204.534, 1560.322
1205.016, 1549.100
1205.498, 1543.116
1205.980, 1554.361
1206.462, 1568.307
1206.944, 1567.460
1207.426, 1556.430
1207.908, 1544.635
1208.391, 1526.941
1208.873, 1528.871
1209.355, 1555.310
1209.837, 1580.910
1210.319, 1581.348
1210.801, 1571.274
1211.283, 1563.799
1211.765, 1560.002
1212.247, 1562.524
1212.730, 1574.001
1213.212, 1582.636
1213.694, 1586.986
1214.176, 1589.385
1214.658, 1591.008
1215.140, 1592.843
1215.622, 1598.597
1216.104, 1606.375
1216.587, 1603.949
1217.069, 1586.205
1217.551, 1574.176
1218.033, 1571.193
1218.515, 1574.993
1218.997, 1589.951
1219.479, 1605.632
1219.961, 1607.681
1220.443, 1596.294
1220.926, 1593.425
1221.408, 1604.913
1221.890, 1602.374
1222.372, 1574.638
1222.854, 1546.905
1223.336, 1553.657
1223.818, 1574.580
1224.300, 1586.724
1224.782, 1587.006
1225.265, 1590.031
1225.747, 1597.095
1226.229, 1600.477
1226.711, 1596.138
1227.193, 1591.787
1227.675, 1598.902
1228.157, 1610.099
1228.639, 1615.926
1229.122, 1614.716
1229.604, 1617.393
1230.086, 1624.735
1230.568, 1631.492
1231.050, 1637.814
1231.532, 1638.100
1232.014, 1616.889
1232.496, 1590.932
1232.979, 1583.053
1233.461, 1597.347
1233.943, 1603.008
1234.425, 1598.945
1234.907, 1597.110
1235.389, 1606.004
1235.871, 1614.836
1236.353, 1610.034
1236.835, 1600.377
1237.318, 1598.290
1237.800, 1605.631
1238.282, 1607.535
1238.764, 1603.556
1239.246, 1603.360
1239.728, 1619.509
1240.210, 1632.474
1240.692, 1617.455
1241.175, 1593.600
1241.657, 1588.696
1242.139, 1607.714
1242.621, 1613.504
1243.103, 1605.995
1243.585, 1600.719
1244.067, 1611.672
1244.549, 1623.293
1245.031, 1623.692
1245.514, 1619.049
1245.996, 1618.360
1246.478, 1622.026
1246.960, 1625.287
1247.442, 1627.994
1247.924, 1628.646
1248.406, 1618.472
1248.888, 1614.598
1249.370, 1639.854
1249.853, 1668.883
1250.335, 1663.002
1250.817, 1624.032
1251.299, 1609.323
1251.781, 1619.966
1252.263, 1632.984
1252.745, 1636.388
1253.227, 1636.485
1253.710, 1638.073
1254.192, 1636.255
1254.674, 1617.308
1255.156, 1586.521
1255.638, 1589.668
1256.120, 1625.858
1256.602, 1652.119
1257.084, 1629.662
1257.567, 1612.975
1258.049, 1622.364
1258.531, 1642.058
1259.013, 1652.759
1259.495, 1655.093
1259.977, 1648.820
1260.459, 1634.910
1260.941, 1623.093
1261.423, 1616.051
1261.906, 1614.469
1262.388, 1617.967
1262.870, 1627.344
1263.352, 1650.257
1263.834, 1677.881
1264.316, 1686.319
1264.798, 1675.167
1265.280, 1668.581
1265.762, 1683.300
1266.245, 1686.078
1266.727, 1667.234
1267.209, 1643.143
1267.691, 1634.971
1268.173, 1637.505
1268.655, 1644.018
1269.137, 1653.470
1269.619, 1660.585
1270.102, 1664.655
1270.584, 1666.909
1271.066, 1667.041
1271.548, 1667.255
1272.030, 1671.059
1272.512, 1675.990
1272.994, 1681.044
1273.476, 1685.117
1273.958, 1678.460
1274.441, 1656.693
1274.923, 1646.376
1275.405, 1655.081
1275.887, 1668.947
1276.369, 1672.644
1276.851, 1675.220
1277.333, 1688.506
1277.815, 1709.611
1278.297, 1718.008
1278.780, 1713.128
1279.262, 1706.885
1279.744, 1702.499
1280.226, 1694.164
1280.708, 1664.989
1281.190, 1641.652
1281.672, 1649.138
1282.154, 1676.942
1282.637, 1687.169
1283.119, 1681.785
1283.601, 1679.366
1284.083, 1684.263
1284.565, 1689.519
1285.047, 1691.090
1285.529, 1691.799
1286.011, 1693.740
1286.494, 1695.439
1286.976, 1691.329
1287.458, 1683.389
1287.940, 1677.377
1288.422, 1673.958
1288.904, 1677.057
1289.386, 1697.815
1289.868, 1711.989
1290.350, 1710.394
1290.833, 1699.391
1291.315, 1684.883
1291.797, 1672.623
1292.279, 1677.735
1292.761, 1706.211
1293.243, 1721.353
1293.725, 1714.927
1294.207, 1707.188
1294.689, 1704.541
1295.172, 1704.155
1295.654, 1704.599
1296.136, 1703.259
1296.618, 1693.480
1297.100, 1673.149
1297.582, 1670.116
1298.064, 1687.133
1298.546, 1704.353
1299.029, 1717.039
1299.511, 1723.153
1299.993, 1712.294
1300.475, 1699.841
1300.957, 1706.152
1301.439, 1726.827
1301.921, 1726.376
1302.403, 1705.819
1302.885, 1696.775
1303.368, 1710.749
1303.850, 1725.400
1304.332, 1722.628
1304.814, 1717.949
1305.296, 1722.277
1305.778, 1731.865
1306.260, 1732.790
##END=



