##NAMES=Empressite
##RRUFFID=R200013
##IDEAL CHEMISTRY=AgTe
##LOCALITY=Empress Josephine mine , Bonanza, Bonanza Mining District, Saguache Co., Colorado, USA
##OWNER=Joan Rosell
##SOURCE=Joan Rosell, Jordi Ibáñez (Geo3BCN, Barcelona) and Tariq Jawhari (CCiTUB Barcelona)
##DESCRIPTION=Bronze to gray metallic fragment
##STATUS=The identification of this mineral has been confirmed by X-ray diffraction.
##URL=rruff.info/R200013
103.3500, 0.0000000E+00
105.1900, 0.2579870
107.0310, 2.2900000E-02
108.8680, 0.8990190
110.7080, 3.731195
112.5450, 4.904247
114.3830, 5.592499
116.2220, 5.874994
118.0570, 4.346377
119.8950, 3.223471
121.7300, 2.125638
123.5670, 2.370656
125.4010, 3.108170
127.2380, 3.475159
129.0710, 3.242343
130.9070, 4.324255
132.7400, 5.381905
134.5740, 6.582561
136.4070, 8.142221
138.2410, 7.514542
140.0720, 7.867712
141.9050, 8.466919
143.7360, 10.17112
145.5690, 11.75003
147.3990, 15.33655
149.2310, 16.13746
151.0600, 16.22535
152.8910, 13.84868
154.7200, 10.88136
156.5500, 6.771317
158.3780, 6.343707
160.2060, 4.850273
162.0350, 3.250581
163.8620, 3.868389
165.6900, 3.140254
167.5170, 1.970257
169.3420, 1.547309
171.1700, 1.501081
172.9950, 0.8975760
174.8220, 1.905896
176.6460, 1.059126
178.4700, 0.8715310
180.2960, 1.429040
182.1190, 0.5758610
183.9420, 1.187945
185.7670, 0.3822220
187.5890, 0.2067610
189.4110, 0.3996440
191.2340, 0.6301020
193.0550, 1.7414000E-02
194.8760, 0.8074870
196.6970, 0.4663060
198.5190, 0.5518650
200.3380, 1.4626000E-02
202.1580, 0.6115160
203.9770, 0.5731510
205.7970, 0.1004790
207.6160, 0.3784580
209.4340, 0.3092750
211.2510, 0.6210380
213.0710, 0.8026970
214.8870, 0.6219740
216.7040, 1.100811
218.5200, 0.4495890
220.3380, 0.7685140
222.1530, 0.2148030
223.9680, 0.2223160
225.7830, 0.6630370
227.5980, 0.1647370
229.4120, 0.2095690
231.2270, 0.6908570
233.0410, 0.3408860
234.8540, 1.123826
236.6660, 0.1350570
238.4780, 0.6123110
240.2900, 1.138050
242.1020, 0.6968530
243.9150, 0.2373600
245.7260, 1.6412999E-02
247.5360, 0.9955670
249.3470, 0.5719250
251.1560, 9.0745002E-02
252.9660, 0.3047990
254.7750, 0.7003820
256.5830, 0.2753360
258.3920, 0.8091560
260.2000, 0.4626640
262.0070, 0.3780150
263.8150, 0.4755860
265.6220, 0.6277900
267.4280, 1.101652
269.2350, 1.314056
271.0400, 1.064919
272.8480, 0.4552890
274.6530, 1.086631
276.4580, 0.3639380
278.2600, 0.9076900
280.0650, 3.6440998E-02
281.8680, 0.5150160
283.6720, 0.2741100
285.4750, 0.7623110
287.2780, 0.6104380
289.0800, 1.018781
290.8820, 0.7458600
292.6840, 0.1873060
294.4850, 0.1999340
296.2860, 1.007246
298.0870, 1.213576
299.8870, 0.2794410
301.6870, 0.6048830
303.4860, 0.2330220
305.2860, 1.458007
307.0820, 0.5227080
308.8810, 0.6471590
310.6790, 0.2316020
312.4770, 0.9559090
314.2740, 0.4024100
316.0710, 1.106502
317.8680, 0.1918280
319.6630, 4.3590002E-02
321.4590, 0.1811280
323.2540, 0.3613890
325.0500, 2.3286000E-02
326.8450, 5.6046002E-02
328.6370, 0.3998750
330.4320, 0.4387500
332.2260, 0.6378710
334.0190, 0.1646730
335.8130, 0.7317450
337.6030, 0.3274350
339.3960, 1.302364
341.1880, 0.4765320
342.9800, 1.851271
344.7700, 0.6437490
346.5610, 1.075349
348.3520, 1.246454
350.1420, 0.9965420
351.9300, 0.3656110
353.7200, 1.413819
355.5090, 1.486034
357.2960, 0.9925320
359.0850, 0.5981790
360.8740, 0.5229470
362.6600, 1.166687
364.4470, 0.9488640
366.2350, 0.2700870
368.0200, 0.7510810
369.8060, 1.390431
371.5930, 1.633804
373.3770, 0.6116080
375.1620, 1.008834
376.9480, 1.325512
378.7300, 1.300992
380.5150, 1.695508
382.2970, 0.8294700
384.0810, 1.022592
385.8650, 1.755662
387.6460, 1.526950
389.4290, 0.9553780
391.2090, 1.466690
392.9910, 1.354752
394.7710, 1.201462
396.5530, 1.389945
398.3320, 1.753733
400.1130, 1.380596
401.8910, 1.502144
403.6710, 1.301023
405.4490, 1.252848
407.2280, 1.595170
409.0050, 1.503706
410.7840, 1.707739
412.5600, 1.786773
414.3380, 1.386146
416.1140, 0.8935510
417.8910, 1.853190
419.6660, 1.132391
421.4430, 0.5437460
423.2170, 2.000668
424.9930, 1.556709
426.7670, 0.9761180
428.5400, 1.136455
430.3150, 1.074486
432.0880, 1.415458
433.8620, 1.611744
435.6340, 1.310475
437.4050, 1.742477
439.1790, 1.792666
440.9500, 1.470408
442.7220, 0.8214180
444.4920, 1.392763
446.2620, 1.030654
448.0340, 0.5449940
449.8030, 1.225066
451.5720, 1.777562
453.3420, 1.234593
455.1100, 1.314484
456.8780, 1.372147
458.6480, 0.8048890
460.4150, 1.531248
462.1810, 0.9103100
463.9480, 1.126827
465.7160, 2.146768
467.4820, 0.8005920
469.2470, 0.6981400
471.0120, 1.131621
472.7790, 1.069657
474.5430, 0.8852050
476.3070, 1.340041
478.0710, 0.8757060
479.8360, 1.392653
481.5990, 0.7317770
483.3620, 1.011762
485.1250, 0.6706910
486.8870, 1.326243
488.6500, 1.865240
490.4120, 0.8297290
492.1730, 1.807955
493.9330, 1.557467
495.6930, 1.132910
497.4530, 0.3869720
499.2130, 0.3645770
500.9740, 1.201542
502.7330, 0.6802490
504.4920, 0.9989260
506.2500, 0.7958530
508.0080, 1.269376
509.7660, 1.068059
511.5230, 1.177023
513.2800, 0.6547980
515.0370, 1.071902
516.7930, 0.7862430
518.5510, 0.6869390
520.3060, 8.3738998E-02
522.0620, 0.8054050
523.8170, 0.8199490
525.5710, 1.038610
527.3250, 0.2746760
529.0790, 0.4139920
530.8330, 1.528385
532.5860, 0.2967160
534.3390, 0.5562760
536.0910, 0.9844210
537.8440, 0.8337140
539.5960, 0.1142300
541.3470, 0.3810680
543.0980, 0.1765230
544.8490, 0.4126410
546.6000, 0.7521340
548.3480, 1.248318
550.0980, 0.9221910
551.8470, 0.7604520
553.5960, 9.5108002E-02
555.3450, 0.7940340
557.0940, 1.149096
558.8420, 0.3258280
560.5900, 0.3631430
562.3370, 0.5592860
564.0840, 0.5724030
565.8310, 0.1299440
567.5760, 0.9278440
569.3220, 0.7034600
571.0680, 1.117325
572.8130, 0.7707770
574.5580, 0.5268320
576.3030, 0.3218950
578.0460, 0.1734430
579.7900, 0.6288440
581.5340, 0.1344610
583.2770, 1.022648
585.0200, 0.9761920
586.7610, 1.291065
588.5040, 0.4872140
590.2460, 0.5168080
591.9880, 0.2935840
593.7270, 0.8675480
595.4680, 4.3136999E-02
597.2090, 0.3397490
598.9500, 0.3563150
600.6880, 0.9507210
602.4280, 0.6072100
604.1670, 0.2032830
605.9060, 0.3587160
607.6430, 1.574936
609.3820, 0.4913540
611.1200, 0.2075680
612.8560, 0.8839600
614.5930, 0.1199360
616.3300, 1.096086
618.0650, 0.6125840
619.8020, 5.0861999E-02
621.5380, 0.2056700
623.2720, 0.4022110
625.0070, 0.7787600
626.7400, 0.7536750
628.4750, 0.7302900
630.2100, 1.307000
631.9420, 0.5206440
633.6760, 1.120099
635.4070, 0.9768060
637.1410, 0.6524260
638.8730, 0.7687530
640.6040, 1.224872
642.3360, 1.101603
644.0660, 0.3785240
645.7980, 0.3954560
647.5270, 0.2724270
649.2580, 0.8695320
650.9860, 0.3066520
652.7160, 1.542686
654.4440, 0.1234480
656.1740, 1.180667
657.9010, 0.1359260
659.6300, 6.6730998E-02
661.3570, 0.5106370
663.0850, 0.9280240
664.8110, 0.7654170
666.5380, 0.8028270
668.2640, 0.6195130
669.9910, 0.5970270
671.7150, 0.7943300
673.4400, 0.7118750
675.1650, 1.249515
676.8890, 0.6266780
678.6140, 0.7634620
680.3370, 1.081187
682.0600, 0.8989260
683.7840, 1.216677
685.5060, 0.1010380
687.2280, 0.6188570
688.9510, 0.4766970
690.6720, 0.9940260
692.3950, 1.071882
694.1150, 0.4708800
695.8350, 0.5487830
697.5570, 0.5666970
699.2760, 0.5647700
700.9950, 0.8828570
702.7140, 1.340998
704.4340, 0.8993370
706.1520, 0.9763450
707.8700, 0.6733060
709.5900, 0.1789900
711.3070, 4.2574000E-02
713.0230, 0.2959380
714.7400, 0.2945590
716.4580, 0.3932150
718.1740, 0.2323920
719.8890, 9.3797997E-02
721.6040, 0.5847980
723.3190, 1.023413
725.0360, 0.6220930
726.7500, 0.9607430
728.4640, 0.1228270
730.1770, 0.4358240
731.8900, 5.4506999E-02
733.6050, 0.2132020
735.3180, 0.3905780
737.0300, 0.3085760
738.7420, 0.3873380
740.4530, 0.7050220
742.1640, 4.3940999E-02
743.8750, 0.5430060
745.5860, 6.2125999E-02
747.2980, 0.2763820
749.0080, 0.6551170
750.7180, 1.213050
752.4270, 0.4720240
754.1360, 0.4313660
755.8440, 5.0733000E-02
757.5530, 1.090134
759.2610, 0.7695520
760.9680, 0.5678100
762.6760, 0.1872720
764.3830, 0.7868250
766.0890, 0.4060740
767.7960, 0.6655750
769.5020, 0.4852710
771.2080, 1.365005
772.9130, 0.4998550
774.6180, 0.2796260
776.3230, 0.7394270
778.0270, 1.9262001E-02
779.7310, 0.8591360
781.4350, 0.4190340
783.1390, 0.5188730
784.8420, 4.1834000E-02
786.5450, 0.8981600
788.2470, 0.8933550
789.9490, 6.5720002E-03
791.6510, 7.3535003E-02
793.3530, 0.9937060
795.0520, 0.3060870
796.7530, 0.2740270
798.4530, 0.7141520
800.1540, 2.5675001E-02
801.8540, 0.7735100
803.5530, 5.3730000E-02
805.2520, 0.7339740
806.9510, 0.4142510
808.6480, 0.3983130
810.3460, 0.4185600
812.0440, 0.2390390
813.7420, 0.4220690
815.4390, 0.6625990
817.1340, 0.5830750
818.8310, 3.6539999E-03
820.5280, 0.7602360
822.2240, 0.6008650
823.9190, 0.2215190
825.6130, 0.6803680
827.3080, 0.6210710
829.0030, 0.4017990
830.6970, 0.1425790
832.3890, 0.5233910
834.0830, 1.5773000E-02
835.7770, 6.5081000E-02
837.4680, 0.4540290
839.1610, 0.6666890
840.8540, 0.5874300
842.5460, 0.5481990
844.2360, 0.2889930
845.9270, 0.7898140
847.6190, 0.6706600
849.3080, 0.4515290
850.9980, 0.2724410
852.6870, 0.1733760
854.3770, 0.5743330
856.0660, 0.2753110
857.7540, 8.3683997E-02
859.4430, 0.2373090
861.1320, 0.1783240
862.8180, 0.5593990
864.5060, 0.4784560
866.1920, 9.9570997E-02
867.8790, 0.5407080
869.5650, 0.6818630
871.2510, 1.183041
872.9380, 0.1242430
874.6220, 0.7854620
876.3080, 8.6704001E-02
877.9920, 0.5482510
879.6770, 0.3695780
881.3600, 0.5509270
883.0450, 0.5522990
884.7270, 0.1336910
886.4110, 0.9151020
888.0930, 0.1434690
889.7760, 0.5979200
891.4570, 1.159330
893.1400, 0.6007580
894.8200, 0.6822070
896.5000, 3.6325000E-02
898.1820, 0.7864700
899.8620, 0.3279620
901.5430, 2.9475000E-02
903.2220, 0.5510050
904.9000, 0.5125540
906.5800, 0.1541190
908.2580, 0.5006560
909.9380, 0.2823160
911.6150, 0.1421920
913.2920, 0.2194430
914.9710, 0.3399880
916.6470, 8.1655003E-02
918.3230, 0.7633370
920.0010, 0.2949660
921.6760, 0.5772710
923.3510, 1.075749
925.0280, 0.8373560
926.7030, 1.8979000E-02
928.3770, 0.9806170
930.0530, 0.6422670
931.7260, 0.8796110
933.3990, 0.3213030
935.0720, 0.5030090
936.7470, 0.2447310
938.4190, 0.8464750
940.0910, 0.1082350
941.7630, 0.9300110
943.4360, 0.5318070
945.1070, 0.7936160
946.7780, 0.5954380
948.4480, 0.7372740
950.1180, 0.5991460
951.7900, 0.2810320
953.4590, 0.2229350
955.1280, 0.4449470
956.7970, 0.2269730
958.4660, 1.049009
960.1340, 0.7910580
961.8040, 1.3118000E-02
963.4710, 0.3951910
965.1390, 0.6909030
966.8060, 3.9071001E-02
968.4720, 0.1720810
970.1390, 0.8341960
971.8050, 0.2163210
973.4700, 0.5384540
975.1360, 0.5406170
976.8010, 0.8627910
978.4680, 0.7049710
980.1320, 0.1671610
981.7960, 0.3093600
983.4600, 1.211565
985.1240, 0.1537790
986.7870, 0.4346860
988.4500, 1.181677
990.1120, 0.7263030
991.7750, 1.088291
993.4370, 0.9174580
995.0980, 1.301909
996.7600, 0.9906030
998.4210, 0.5328930
1000.080, 0.7751890
1001.740, 0.2966450
1003.400, 0.2789550
1005.060, 0.9812710
1006.720, 0.9435940
1008.380, 5.4079998E-02
1010.040, 0.5769300
1011.700, 0.9992300
1013.350, 1.8467000E-02
1015.010, 0.3838140
1016.670, 0.2660970
1018.330, 0.7083900
1019.980, 0.4705470
1021.640, 0.8128620
1023.300, 0.9751810
1024.950, 0.5575100
1026.610, 0.5598410
1028.260, 0.7421730
1029.920, 0.9309930
1031.570, 1.233327
1033.230, 0.6156620
1034.880, 0.2972910
1036.530, 1.019627
1038.190, 0.1391920
1039.840, 1.101529
1041.490, 0.1838730
1043.140, 0.4662180
1044.800, 0.9485660
1046.450, 0.9311770
1048.100, 0.6539590
1049.750, 1.180638
1051.400, 0.6229890
1053.050, 0.7053390
1054.700, 0.5876880
1056.350, 0.6500370
1058.000, 0.2691000
1059.650, 0.7114490
1061.300, 0.1202320
1062.950, 0.8025770
1064.590, 0.2649300
1066.240, 0.7873940
1067.890, 1.009742
1069.540, 0.8320920
1071.180, 0.5545050
1072.830, 0.4969180
1074.480, 0.3993250
1076.120, 4.1731998E-02
1077.770, 0.4545270
1079.410, 1.096924
1081.060, 0.4393170
1082.700, 0.8417070
1084.350, 0.4240900
1085.990, 0.7064720
1087.630, 0.7622820
1089.280, 0.7248440
1090.920, 0.2273990
1092.560, 0.8699530
1094.200, 0.2325020
1095.850, 1.3205000E-02
1097.490, 0.6361840
1099.130, 0.3787100
1100.770, 0.2812340
1102.410, 0.6238720
1104.050, 0.4663860
1105.690, 5.0992001E-02
1107.330, 0.6039700
1108.970, 0.1934660
1110.610, 0.8217810
1112.250, 1.124212
1113.890, 0.6266430
1115.520, 0.4890670
1117.160, 0.4315300
1118.800, 1.138262
1120.440, 0.6807530
1122.070, 0.1632530
1123.710, 0.8257470
1125.350, 0.6882000
1126.980, 0.6306820
1128.620, 0.7331560
1130.250, 1.075644
1131.890, 0.1781300
1133.520, 0.6006080
1135.160, 0.6830800
1136.790, 0.6055460
1138.430, 0.3080120
1140.060, 0.7304710
1141.690, 0.2129220
1143.320, 1.395366
1144.960, 0.7178020
1146.590, 0.5202300
1148.220, 1.082650
1149.850, 0.5050620
1151.480, 0.6894360
1153.110, 0.2321140
1154.740, 0.6744970
1156.380, 0.7568710
1158.010, 0.8592370
1159.630, 0.6013790
1161.260, 0.1762770
1162.890, 5.4062001E-02
1164.520, 0.1319120
1166.150, 1.250130
1167.780, 0.5321630
1169.400, 0.5541840
1171.030, 1.136196
1172.660, 0.6981960
1174.290, 1.300186
1175.910, 0.4425260
1177.540, 0.5444950
1179.160, 0.6264510
1180.790, 0.4683980
1182.420, 0.8703320
1184.040, 2.7735000E-02
1185.660, 1.4148000E-02
1187.290, 0.4359950
1188.910, 6.2169001E-02
1190.540, 1.9594001E-02
1192.160, 0.4613230
1193.780, 0.6430990
1195.400, 0.7248640
1197.030, 0.2466160
1198.650, 0.7683610
1200.270, 0.8500940
1201.890, 0.2718160
1203.510, 1.653526
1205.130, 0.4085360
1206.750, 0.3529040
1208.370, 0.3343320
1209.990, 0.6132220
1211.610, 0.4746260
1213.230, 0.5774110
1214.850, 1.158790
1216.470, 0.7001580
1218.090, 1.021513
1219.710, 0.2228570
1221.320, 0.8441860
1222.940, 1.065509
1224.560, 5.3181998E-02
1226.180, 0.6080550
1227.790, 0.6492810
1229.410, 0.8904920
1231.020, 1.011696
1232.640, 0.2928870
1234.250, 0.7941630
1235.870, 1.136523
1237.480, 0.2777730
1239.100, 0.9397860
1240.710, 0.1810080
1242.320, 0.1422150
1243.940, 1.6593000E-02
1245.550, 0.8845420
1247.160, 1.325665
1248.780, 1.366772
1250.390, 0.5878640
1252.000, 0.2089410
1253.610, 1.410017
1255.220, 4.8923001E-02
1256.830, 0.7320630
1258.440, 0.3730340
1260.050, 0.2339890
1261.660, 0.8349270
1263.270, 0.3558500
1264.880, 0.3921860
1266.490, 0.7730780
1268.100, 0.8739590
1269.710, 1.414824
1271.310, 0.1046100
1272.920, 0.4761310
1274.530, 0.9368570
1276.140, 0.5575680
1277.740, 0.6182590
1279.350, 1.358937
1280.960, 0.3395980
1282.560, 1.684578
1284.170, 1.145234
1285.770, 1.445872
1287.380, 1.327013
1288.980, 0.9276160
1290.580, 0.2268890
1292.190, 1.528260
1293.790, 0.5697070
1295.400, 0.3102450
1297.000, 0.5107620
1298.600, 0.4977860
1300.200, 0.1066860
1301.800, 0.5936700
1303.410, 1.080198
1305.010, 0.9005490
1306.610, 0.9608830
1308.210, 0.5411980
1309.810, 1.111722
1311.410, 1.092002
1313.010, 0.7323430
1314.610, 0.4126650
1316.210, 0.6129700
1317.810, 0.9332570
1319.410, 0.8935260
1321.010, 0.5537770
1322.600, 1.014010
1324.200, 1.395392
1325.800, 0.6955880
1327.400, 0.9957670
1328.990, 0.6359280
1330.590, 1.158091
1332.190, 0.9782670
1333.780, 1.018426
1335.380, 1.418566
1336.970, 1.018689
1338.570, 0.8387940
1340.160, 1.038882
1341.760, 1.018951
1343.350, 0.2609970
1344.940, 0.3188510
1346.540, 1.138678
1348.130, 1.058488
1349.720, 1.058282
1351.320, 1.498057
1352.910, 0.9178230
1354.500, 1.183989
1356.090, 0.6776920
1357.680, 0.8665530
1359.270, 1.206300
1360.870, 0.8660340
1362.460, 1.165752
1364.050, 1.225454
1365.630, 0.9051450
1367.220, 0.2848220
1368.810, 1.824481
1370.400, 1.384124
1371.990, 1.143751
1373.580, 0.7633610
1375.170, 0.9837880
1376.750, 0.6797020
1378.340, 0.9768980
1379.930, 1.256445
1381.520, 1.209094
1383.100, 0.5064460
1384.690, 0.6459590
1386.270, 0.9654500
1387.860, 0.6049000
1389.440, 1.004341
1391.030, 0.8637710
1392.610, 0.5636730
1394.200, 1.023085
1395.780, 1.102487
1397.370, 0.4731760
1398.950, 0.8925730
1400.530, 0.8719610
1402.120, 0.4513530
1403.700, 7.0738003E-02
1405.280, 1.150110
1406.860, 0.8094730
1408.440, 0.4688240
1410.020, 1.308163
1411.600, 0.6474850
1413.190, 0.4677670
1414.770, 0.7870850
1416.350, 0.5399100
1417.930, 0.6392150
1419.500, 0.7185140
1421.080, 0.5378080
1422.660, 1.757014
1424.240, 0.6762140
1425.820, 9.5406003E-02
1427.400, 0.6147280
1428.970, 0.1739030
1430.550, 0.3928260
1432.130, 1.051675
1433.710, 1.370861
1435.280, 0.8454210
1436.860, 0.9643000
1438.430, 0.4630160
1440.010, 0.6817230
1441.580, 1.200420
1443.160, 1.558923
1444.730, 0.4975400
1446.310, 0.5297100
1447.880, 1.908308
1449.460, 0.7868970
1451.030, 0.4653600
1452.600, 0.8439230
1454.180, 0.1974520
1455.750, 1.181013
1457.320, 0.6608750
1458.890, 0.9793220
1460.460, 0.7377580
1462.030, 0.6261930
1463.600, 0.9246160
1465.180, 0.8830320
1466.750, 1.401441
1468.320, 1.079841
1469.890, 1.158234
1471.460, 0.6633820
1473.030, 1.114809
1474.590, 1.792990
1476.160, 0.2311570
1477.730, 1.089600
1479.300, 1.067741
1480.870, 0.1654270
1482.430, 0.1435570
1484.000, 0.9416750
1485.570, 0.8196610
1487.130, 0.3822390
1488.700, 2.195739
1490.270, 0.4813420
1491.830, 0.6593290
1493.400, 1.177367
1494.960, 0.8353920
1496.530, 1.013404
1498.090, 0.1285900
1499.660, 1.109364
1501.220, 1.249757
1502.780, 0.8676940
1504.350, 0.4656280
1505.910, 1.383551
1507.470, 0.6014720
1509.030, 1.819398
1510.590, 1.057325
1512.160, 7.5255997E-02
1513.720, 0.8331870
1515.280, 0.8311220
1516.840, 1.069045
1518.400, 1.8253000E-02
1519.960, 0.6769080
1521.520, 0.6748360
1523.080, 0.7927720
1524.640, 0.8307170
1526.200, 1.008670
1527.760, 1.126630
1529.320, 1.684602
1530.870, 0.5825860
1532.430, 0.8386140
1533.990, 1.016345
1535.540, 0.4543770
1537.100, 1.532429
1538.660, 0.8704460
1540.220, 0.7892260
1541.770, 0.6977210
1543.330, 1.335868
1544.880, 0.5740670
1546.440, 1.152344
1547.990, 1.010300
1549.550, 1.008268
1551.100, 1.026247
1552.660, 0.6651580
1554.210, 1.103157
1555.760, 1.020803
1557.310, 0.4588180
1558.870, 0.7962970
1560.420, 0.6937180
1561.970, 0.1710820
1563.530, 0.1085720
1565.080, 0.7868490
1566.630, 1.364232
1568.180, 0.9844780
1569.730, 0.5614070
1571.280, 0.6402010
1572.830, 0.6554700
1574.380, 0.4672350
1575.930, 1.086220
1577.480, 1.325194
1579.030, 0.2641570
1580.580, 0.9233640
1582.120, 1.122566
1583.670, 1.100294
1585.220, 1.479472
1586.770, 1.198646
1588.310, 0.9178050
1589.860, 0.5170250
1591.410, 0.4562400
1592.960, 1.075452
1594.500, 0.5134300
1596.050, 0.9517460
1597.590, 0.5509370
1599.140, 0.1701770
1600.680, 1.469423
1602.230, 1.028677
1603.770, 1.747979
1605.310, 0.7073250
1606.860, 0.9266840
1608.400, 0.9471480
1609.940, 0.7263250
1611.490, 1.525570
1613.030, 0.3648840
1614.570, 1.144214
1616.110, 1.166321
1617.650, 0.3050600
1619.200, 0.1831210
1620.740, 0.8608030
1622.280, 0.7583480
1623.820, 0.5608750
1625.360, 0.3592880
1626.900, 0.7777810
1628.440, 0.7562800
1629.980, 0.8201480
1631.520, 1.358450
1633.050, 0.9167550
1634.590, 1.015063
1636.130, 1.251618
1637.670, 1.029909
1639.210, 0.3050830
1640.740, 0.6631750
1642.280, 2.1261999E-02
1643.820, 1.399344
1645.350, 1.017420
1646.890, 0.2358000
1648.430, 0.3541840
1649.960, 1.092562
1651.500, 0.5907760
1653.030, 0.9089800
1654.570, 0.5271770
1656.100, 0.7853590
1657.630, 0.7035300
1659.170, 1.321698
1660.700, 1.138306
1662.230, 0.2743580
1663.770, 0.4724510
1665.300, 1.030521
1666.830, 1.008665
1668.360, 0.8868260
1669.900, 0.7639460
1671.430, 0.8820100
1672.960, 1.360038
1674.490, 1.378009
1676.020, 0.4559170
1677.550, 0.6337970
1679.080, 0.7293970
1680.610, 0.7670990
1682.140, 0.6647180
1683.670, 0.6424490
1685.200, 1.9695999E-02
1686.720, 1.077715
1688.250, 1.196156
1689.780, 1.233202
1691.310, 0.4525700
1692.840, 0.8923880
1694.360, 0.7924310
1695.890, 1.012722
1697.420, 1.173110
1698.940, 1.053382
1700.470, 0.4895660
1701.990, 0.1497780
1703.520, 0.2296340
1705.040, 0.9904550
1706.570, 1.091395
1708.090, 1.072466
1709.620, 0.8137040
1711.140, 0.9340480
1712.660, 1.415691
1714.190, 0.5175520
1715.710, 1.039658
1717.230, 1.662023
1718.760, 0.7847270
1720.280, 1.207825
1721.800, 1.318873
1723.320, 0.3022440
1724.840, 9.3961999E-02
1726.360, 1.350137
1727.880, 0.7545350
1729.400, 1.479378
1730.930, 1.142715
1732.450, 1.043570
1733.970, 1.504245
1735.490, 0.2647250
1737.000, 2.024807
1738.520, 0.9643010
1740.040, 1.103496
1741.560, 1.015030
1743.080, 0.9388800
1744.590, 1.222317
1746.110, 0.3659420
1747.630, 0.1468820
1749.150, 0.3129930
1750.660, 5.9839999E-03
1752.180, 0.6658370
1753.690, 3.8887002E-02
1755.210, 0.7592520
1756.720, 0.0000000E+00
##END=



