##NAMES=Enargite
##RRUFFID=R070176
##IDEAL CHEMISTRY=Cu_3_AsS_4_
##LOCALITY=Zuni Mine (Zu√±i Mine), Anvil Mountain, Silverton, Silverton District, San Juan County, Colorado, USA
##OWNER=RRUFF
##SOURCE=Michael Scott
##DESCRIPTION=Massive fine grained dark gray metallic, associated with zunyite
##STATUS=The identification of this mineral has been confirmed by single-crystal X-ray diffraction.
##URL=rruff.info/R070176
138.1835, 967.0300
138.6656, 997.3449
139.1478, 1028.041
139.6299, 1056.477
140.1120, 1084.075
140.5941, 1115.850
141.0762, 1150.712
141.5583, 1189.666
142.0405, 1234.483
142.5226, 1283.645
143.0047, 1333.125
143.4868, 1380.928
143.9689, 1428.081
144.4510, 1478.469
144.9332, 1532.947
145.4153, 1588.781
145.8974, 1645.684
146.3795, 1703.199
146.8616, 1759.615
147.3437, 1814.790
147.8259, 1867.500
148.3080, 1916.456
148.7901, 1963.721
149.2722, 2004.727
149.7543, 2035.619
150.2364, 2057.047
150.7186, 2073.397
151.2007, 2083.658
151.6828, 2091.629
152.1649, 2105.202
152.6470, 2128.866
153.1291, 2152.569
153.6113, 2167.147
154.0934, 2172.457
154.5755, 2176.435
155.0576, 2181.459
155.5397, 2187.977
156.0218, 2196.965
156.5040, 2210.166
156.9861, 2223.414
157.4682, 2229.327
157.9503, 2226.244
158.4324, 2230.555
158.9145, 2256.944
159.3967, 2292.220
159.8788, 2322.936
160.3609, 2345.138
160.8430, 2363.321
161.3251, 2380.869
161.8072, 2396.172
162.2894, 2418.114
162.7715, 2457.385
163.2536, 2502.292
163.7357, 2543.084
164.2178, 2576.205
164.6999, 2604.996
165.1821, 2633.253
165.6642, 2660.067
166.1463, 2689.329
166.6284, 2729.160
167.1105, 2769.062
167.5926, 2798.245
168.0748, 2812.092
168.5569, 2818.033
169.0390, 2828.381
169.5211, 2844.441
170.0032, 2861.711
170.4853, 2879.562
170.9675, 2897.640
171.4496, 2917.559
171.9317, 2940.844
172.4138, 2961.152
172.8959, 2963.903
173.3780, 2938.105
173.8602, 2920.478
174.3423, 2922.335
174.8244, 2933.325
175.3065, 2945.752
175.7886, 2957.010
176.2707, 2967.024
176.7529, 2974.580
177.2350, 2975.124
177.7171, 2983.460
178.1992, 3009.220
178.6813, 3038.962
179.1634, 3060.184
179.6456, 3068.534
180.1277, 3070.408
180.6098, 3078.878
181.0919, 3098.318
181.5740, 3115.727
182.0561, 3127.761
182.5383, 3138.308
183.0204, 3149.989
183.5025, 3163.772
183.9846, 3179.826
184.4667, 3198.791
184.9488, 3222.079
185.4310, 3245.437
185.9131, 3272.114
186.3952, 3296.547
186.8773, 3313.552
187.3594, 3321.733
187.8415, 3324.916
188.3237, 3329.209
188.8058, 3332.125
189.2879, 3341.641
189.7700, 3362.555
190.2521, 3386.197
190.7342, 3407.584
191.2164, 3424.784
191.6985, 3437.464
192.1806, 3443.708
192.6627, 3435.604
193.1448, 3437.237
193.6269, 3456.775
194.1091, 3479.435
194.5912, 3493.125
195.0733, 3495.843
195.5554, 3495.903
196.0375, 3506.064
196.5196, 3533.044
197.0018, 3556.449
197.4839, 3575.177
197.9660, 3591.913
198.4481, 3610.258
198.9302, 3629.858
199.4123, 3645.371
199.8945, 3648.395
200.3766, 3630.667
200.8587, 3622.063
201.3408, 3623.200
201.8229, 3630.789
202.3050, 3646.906
202.7872, 3669.529
203.2693, 3690.739
203.7514, 3701.058
204.2335, 3697.354
204.7156, 3693.576
205.1977, 3687.551
205.6799, 3683.222
206.1620, 3682.511
206.6441, 3685.537
207.1262, 3691.368
207.6083, 3699.020
208.0904, 3708.096
208.5726, 3721.330
209.0547, 3746.143
209.5368, 3767.864
210.0189, 3778.579
210.5010, 3779.745
210.9831, 3777.893
211.4653, 3778.276
211.9474, 3780.854
212.4295, 3786.231
212.9116, 3796.696
213.3937, 3807.435
213.8758, 3817.228
214.3580, 3825.890
214.8401, 3833.723
215.3222, 3841.132
215.8043, 3848.040
216.2864, 3851.612
216.7685, 3844.191
217.2507, 3841.532
217.7328, 3850.611
218.2149, 3867.279
218.6970, 3883.993
219.1791, 3896.124
219.6612, 3903.966
220.1434, 3909.667
220.6255, 3903.926
221.1076, 3906.360
221.5897, 3928.882
222.0718, 3959.666
222.5539, 3981.325
223.0361, 3984.220
223.5182, 3973.296
224.0003, 3967.073
224.4824, 3961.157
224.9645, 3966.625
225.4466, 3995.035
225.9288, 4031.134
226.4109, 4058.069
226.8930, 4068.515
227.3751, 4067.503
227.8572, 4066.572
228.3393, 4061.618
228.8215, 4063.477
229.3036, 4077.390
229.7857, 4095.273
230.2678, 4108.746
230.7499, 4115.603
231.2320, 4121.490
231.7142, 4137.657
232.1963, 4177.437
232.6784, 4201.674
233.1605, 4196.984
233.6426, 4188.113
234.1247, 4193.383
234.6069, 4215.434
235.0890, 4243.261
235.5711, 4261.966
236.0532, 4266.730
236.5353, 4276.920
237.0174, 4298.007
237.4996, 4319.318
237.9817, 4332.768
238.4638, 4339.822
238.9459, 4349.867
239.4280, 4374.274
239.9101, 4416.750
240.3922, 4447.039
240.8744, 4453.737
241.3565, 4458.936
241.8386, 4466.858
242.3207, 4479.532
242.8028, 4499.604
243.2849, 4530.463
243.7671, 4571.595
244.2492, 4608.437
244.7313, 4639.563
245.2134, 4667.718
245.6955, 4688.068
246.1776, 4706.723
246.6598, 4734.530
247.1419, 4779.616
247.6240, 4836.404
248.1061, 4878.677
248.5882, 4893.541
249.0703, 4912.710
249.5525, 4948.146
250.0346, 4989.220
250.5167, 5022.556
250.9988, 5042.126
251.4809, 5055.087
251.9630, 5076.804
252.4452, 5110.085
252.9273, 5146.498
253.4094, 5183.567
253.8915, 5223.139
254.3736, 5267.457
254.8557, 5317.032
255.3379, 5369.047
255.8200, 5420.506
256.3021, 5471.482
256.7842, 5521.014
257.2663, 5569.470
257.7484, 5615.915
258.2306, 5658.891
258.7127, 5698.787
259.1948, 5739.086
259.6769, 5785.951
260.1590, 5839.881
260.6411, 5883.859
261.1233, 5906.553
261.6054, 5930.071
262.0875, 5966.849
262.5696, 6014.697
263.0517, 6064.858
263.5338, 6118.193
264.0160, 6170.935
264.4981, 6202.416
264.9802, 6206.430
265.4623, 6198.475
265.9444, 6180.687
266.4265, 6158.538
266.9087, 6143.156
267.3908, 6147.054
267.8729, 6154.837
268.3550, 6134.781
268.8371, 6080.698
269.3192, 6021.996
269.8014, 5962.938
270.2835, 5910.894
270.7656, 5877.281
271.2477, 5869.969
271.7298, 5870.896
272.2119, 5862.425
272.6941, 5844.467
273.1762, 5821.891
273.6583, 5792.415
274.1404, 5762.115
274.6225, 5739.118
275.1046, 5725.067
275.5868, 5711.434
276.0689, 5693.041
276.5510, 5670.624
277.0331, 5645.253
277.5152, 5613.729
277.9973, 5585.314
278.4795, 5574.988
278.9616, 5581.817
279.4437, 5581.694
279.9258, 5562.410
280.4079, 5531.874
280.8900, 5500.876
281.3722, 5470.042
281.8543, 5443.368
282.3364, 5425.532
282.8185, 5415.917
283.3006, 5407.787
283.7827, 5405.304
284.2649, 5400.541
284.7470, 5382.123
285.2291, 5351.810
285.7112, 5327.922
286.1933, 5323.634
286.6754, 5335.680
287.1576, 5344.174
287.6397, 5347.440
288.1218, 5349.312
288.6039, 5351.539
289.0860, 5353.568
289.5681, 5354.603
290.0503, 5354.658
290.5324, 5352.486
291.0145, 5344.468
291.4966, 5326.908
291.9787, 5310.323
292.4608, 5293.345
292.9430, 5279.224
293.4251, 5274.142
293.9072, 5279.140
294.3893, 5285.384
294.8714, 5280.166
295.3535, 5256.595
295.8357, 5242.509
296.3178, 5249.321
296.7999, 5255.736
297.2820, 5244.829
297.7641, 5219.114
298.2462, 5195.218
298.7284, 5188.139
299.2105, 5198.536
299.6926, 5200.375
300.1747, 5175.572
300.6568, 5161.926
301.1389, 5177.771
301.6211, 5210.528
302.1032, 5236.665
302.5853, 5242.265
303.0674, 5237.280
303.5495, 5257.654
304.0316, 5338.250
304.5138, 5388.370
304.9959, 5374.176
305.4780, 5340.896
305.9601, 5328.206
306.4422, 5347.435
306.9243, 5383.299
307.4065, 5415.774
307.8886, 5444.063
308.3707, 5471.632
308.8528, 5498.034
309.3349, 5524.236
309.8170, 5549.656
310.2992, 5574.880
310.7813, 5601.534
311.2634, 5629.662
311.7455, 5659.792
312.2276, 5696.059
312.7097, 5737.553
313.1919, 5787.294
313.6740, 5854.325
314.1561, 5928.584
314.6382, 5990.578
315.1203, 6025.900
315.6024, 6051.782
316.0846, 6094.507
316.5667, 6154.636
317.0488, 6227.333
317.5309, 6310.718
318.0130, 6406.122
318.4951, 6514.713
318.9773, 6636.356
319.4594, 6770.073
319.9415, 6915.289
320.4236, 7071.261
320.9057, 7236.898
321.3878, 7409.597
321.8700, 7594.538
322.3521, 7798.897
322.8342, 8019.725
323.3163, 8264.897
323.7984, 8554.907
324.2805, 8862.706
324.7627, 9152.852
325.2448, 9422.807
325.7269, 9694.286
326.2090, 9985.193
326.6911, 10295.44
327.1732, 10605.93
327.6554, 10922.57
328.1375, 11235.23
328.6196, 11528.15
329.1017, 11813.15
329.5838, 12116.39
330.0659, 12450.87
330.5481, 12814.76
331.0302, 13195.52
331.5123, 13586.21
331.9944, 14006.32
332.4765, 14442.37
332.9586, 14917.42
333.4408, 15464.13
333.9229, 16085.08
334.4050, 16746.26
334.8871, 17411.95
335.3692, 18081.08
335.8513, 18748.79
336.3335, 19461.73
336.8156, 20128.73
337.2977, 20758.40
337.7798, 21307.23
338.2619, 21701.96
338.7440, 21895.35
339.2262, 21884.98
339.7083, 21654.83
340.1904, 21183.77
340.6725, 20501.14
341.1546, 19564.70
341.6367, 18471.56
342.1189, 17299.46
342.6010, 16067.29
343.0831, 14837.29
343.5652, 13675.99
344.0473, 12575.10
344.5294, 11596.13
345.0116, 10770.08
345.4937, 10058.80
345.9758, 9437.524
346.4579, 8901.616
346.9400, 8438.491
347.4221, 8047.364
347.9043, 7722.818
348.3864, 7455.535
348.8685, 7254.411
349.3506, 7079.295
349.8327, 6907.401
350.3148, 6742.124
350.7970, 6592.537
351.2791, 6458.194
351.7612, 6341.255
352.2433, 6246.185
352.7254, 6170.529
353.2076, 6102.971
353.6897, 6039.523
354.1718, 5981.142
354.6539, 5929.754
355.1360, 5883.560
355.6181, 5847.063
356.1003, 5834.333
356.5824, 5825.416
357.0645, 5792.611
357.5466, 5733.026
358.0287, 5672.987
358.5108, 5637.955
358.9930, 5629.949
359.4751, 5628.941
359.9572, 5648.529
360.4393, 5660.071
360.9214, 5647.493
361.4035, 5618.852
361.8857, 5589.294
362.3678, 5566.387
362.8499, 5549.785
363.3320, 5538.494
363.8141, 5534.253
364.2962, 5532.979
364.7784, 5534.286
365.2605, 5538.048
365.7426, 5545.363
366.2247, 5555.746
366.7068, 5566.154
367.1889, 5572.541
367.6711, 5574.652
368.1532, 5579.710
368.6353, 5587.970
369.1174, 5599.250
369.5995, 5612.908
370.0816, 5629.283
370.5638, 5649.453
371.0459, 5675.614
371.5280, 5703.505
372.0101, 5724.979
372.4922, 5739.194
372.9743, 5755.653
373.4565, 5779.357
373.9386, 5805.875
374.4207, 5831.513
374.9028, 5857.402
375.3849, 5874.641
375.8670, 5866.119
376.3492, 5848.147
376.8313, 5856.948
377.3134, 5901.108
377.7955, 5950.231
378.2776, 5976.211
378.7597, 5978.070
379.2419, 5984.248
379.7240, 5995.114
380.2061, 6010.272
380.6882, 6031.993
381.1703, 6057.910
381.6524, 6081.826
382.1346, 6100.544
382.6167, 6116.236
383.0988, 6134.698
383.5809, 6160.581
384.0630, 6182.646
384.5451, 6201.053
385.0273, 6215.595
385.5094, 6223.666
385.9915, 6226.536
386.4736, 6230.896
386.9557, 6244.469
387.4378, 6267.423
387.9200, 6283.066
388.4021, 6280.130
388.8842, 6283.620
389.3663, 6305.679
389.8484, 6336.671
390.3305, 6361.424
390.8127, 6372.830
391.2948, 6382.009
391.7769, 6407.878
392.2590, 6452.203
392.7411, 6494.517
393.2232, 6530.978
393.7054, 6562.819
394.1875, 6591.971
394.6696, 6618.357
395.1517, 6639.310
395.6338, 6655.739
396.1159, 6665.151
396.5981, 6660.661
397.0802, 6641.167
397.5623, 6621.534
398.0444, 6617.896
398.5265, 6619.839
399.0086, 6589.435
399.4908, 6502.268
399.9729, 6415.584
400.4550, 6348.528
400.9371, 6296.927
401.4192, 6257.324
401.9013, 6228.448
402.3835, 6200.438
402.8656, 6157.929
403.3477, 6092.517
403.8298, 6044.349
404.3119, 6012.327
404.7940, 5995.376
405.2762, 6006.428
405.7583, 6031.710
406.2404, 6040.461
406.7225, 6012.349
407.2046, 5961.509
407.6867, 5934.190
408.1689, 5942.239
408.6510, 5949.506
409.1331, 5948.325
409.6152, 5945.361
410.0973, 5945.864
410.5794, 5950.323
411.0616, 5954.976
411.5437, 5957.571
412.0258, 5957.906
412.5079, 5955.208
412.9900, 5950.195
413.4721, 5940.302
413.9543, 5917.789
414.4364, 5889.954
414.9185, 5870.511
415.4006, 5861.983
415.8827, 5862.200
416.3648, 5876.782
416.8470, 5899.579
417.3291, 5910.592
417.8112, 5902.221
418.2933, 5884.531
418.7754, 5870.528
419.2575, 5860.500
419.7397, 5854.111
420.2218, 5854.364
420.7039, 5855.842
421.1860, 5853.045
421.6681, 5848.040
422.1502, 5848.364
422.6324, 5859.355
423.1145, 5877.460
423.5966, 5888.531
424.0787, 5886.456
424.5608, 5886.846
425.0429, 5896.911
425.5250, 5905.787
426.0071, 5901.842
426.4893, 5885.398
426.9714, 5869.628
427.4535, 5869.488
427.9356, 5882.824
428.4177, 5884.692
428.8998, 5864.332
429.3820, 5853.706
429.8641, 5884.360
430.3462, 5929.667
430.8283, 5949.830
431.3104, 5927.972
431.7925, 5898.014
432.2747, 5885.570
432.7568, 5887.774
433.2389, 5895.344
433.7210, 5906.798
434.2031, 5920.471
434.6852, 5935.814
435.1674, 5953.151
435.6495, 5965.170
436.1316, 5968.536
436.6137, 5969.075
437.0958, 5971.179
437.5779, 5973.374
438.0601, 5970.071
438.5422, 5957.913
439.0243, 5942.520
439.5064, 5938.766
439.9885, 5960.218
440.4706, 5968.756
440.9528, 5949.781
441.4349, 5931.042
441.9170, 5930.029
442.3991, 5946.105
442.8812, 5969.375
443.3633, 5994.801
443.8455, 6020.633
444.3276, 6040.343
444.8097, 6053.671
445.2918, 6061.582
445.7739, 6061.020
446.2560, 6056.859
446.7382, 6054.125
447.2203, 6053.852
447.7024, 6051.322
448.1845, 6036.268
448.6666, 6018.373
449.1487, 6023.578
449.6309, 6057.179
450.1130, 6086.219
450.5951, 6080.207
451.0772, 6044.456
451.5593, 6033.685
452.0414, 6070.354
452.5236, 6103.803
453.0057, 6113.527
453.4878, 6111.551
453.9699, 6114.464
454.4520, 6127.130
454.9341, 6144.304
455.4163, 6160.422
455.8984, 6176.944
456.3805, 6184.196
456.8626, 6174.024
457.3447, 6162.425
457.8268, 6147.148
458.3090, 6135.285
458.7911, 6141.309
459.2732, 6174.823
459.7553, 6212.042
460.2374, 6211.089
460.7195, 6171.073
461.2017, 6153.516
461.6838, 6182.486
462.1659, 6220.913
462.6480, 6233.849
463.1301, 6225.661
463.6122, 6219.863
464.0944, 6228.195
464.5765, 6237.393
465.0586, 6232.147
465.5407, 6216.407
466.0228, 6206.157
466.5049, 6208.215
466.9871, 6220.325
467.4692, 6238.604
467.9513, 6269.658
468.4334, 6293.364
468.9155, 6310.385
469.3976, 6319.748
469.8798, 6314.429
470.3619, 6300.271
470.8440, 6292.599
471.3261, 6301.879
471.8082, 6322.849
472.2903, 6340.720
472.7725, 6356.117
473.2546, 6366.373
473.7367, 6373.649
474.2188, 6373.154
474.7009, 6351.937
475.1830, 6313.228
475.6652, 6290.362
476.1473, 6317.734
476.6294, 6367.353
477.1115, 6388.299
477.5936, 6378.713
478.0757, 6368.855
478.5579, 6373.415
479.0400, 6388.622
479.5221, 6406.862
480.0042, 6436.470
480.4863, 6450.496
480.9684, 6427.359
481.4506, 6397.231
481.9327, 6387.719
482.4148, 6400.508
482.8969, 6423.899
483.3790, 6451.048
483.8611, 6479.310
484.3433, 6491.929
484.8254, 6478.188
485.3075, 6465.674
485.7896, 6453.146
486.2717, 6447.248
486.7538, 6457.057
487.2360, 6482.090
487.7181, 6507.922
488.2002, 6525.472
488.6823, 6534.921
489.1644, 6533.792
489.6465, 6519.490
490.1287, 6508.931
490.6108, 6509.581
491.0929, 6521.231
491.5750, 6543.367
492.0571, 6584.517
492.5392, 6615.108
493.0214, 6616.405
493.5035, 6606.367
493.9856, 6607.390
494.4677, 6620.794
494.9498, 6631.626
495.4319, 6627.244
495.9141, 6609.897
496.3962, 6597.466
496.8783, 6584.103
497.3604, 6584.981
497.8425, 6617.255
498.3246, 6653.682
498.8068, 6666.765
499.2889, 6655.210
499.7710, 6643.600
500.2531, 6657.591
500.7352, 6689.193
501.2173, 6703.657
501.6995, 6696.817
502.1816, 6689.771
502.6637, 6692.238
503.1458, 6700.916
503.6279, 6709.923
504.1100, 6719.785
504.5922, 6727.805
505.0743, 6726.591
505.5564, 6726.466
506.0385, 6746.000
506.5206, 6783.152
507.0027, 6811.644
507.4849, 6811.289
507.9670, 6788.202
508.4491, 6774.965
508.9312, 6770.164
509.4133, 6778.517
509.8954, 6814.278
510.3776, 6852.443
510.8597, 6872.831
511.3418, 6875.011
511.8239, 6872.101
512.3060, 6871.734
512.7881, 6874.490
513.2703, 6884.125
513.7524, 6902.480
514.2345, 6916.244
514.7166, 6916.510
515.1987, 6912.297
515.6808, 6916.899
516.1630, 6931.271
516.6451, 6947.672
517.1272, 6964.362
517.6093, 6981.614
518.0914, 7004.176
518.5735, 7028.842
519.0557, 7041.782
519.5378, 7033.625
520.0199, 7013.129
520.5020, 7004.778
520.9841, 7015.322
521.4662, 7025.749
521.9484, 7031.977
522.4305, 7041.006
522.9126, 7057.775
523.3947, 7081.057
523.8768, 7106.700
524.3589, 7134.617
524.8411, 7160.499
525.3232, 7175.598
525.8053, 7179.912
526.2874, 7182.513
526.7695, 7183.145
527.2516, 7187.208
527.7338, 7206.902
528.2159, 7241.473
528.6980, 7260.843
529.1801, 7249.300
529.6622, 7232.363
530.1443, 7218.341
530.6265, 7211.976
531.1086, 7225.635
531.5907, 7263.813
532.0728, 7308.408
532.5549, 7330.981
533.0370, 7326.882
533.5192, 7322.061
534.0013, 7306.500
534.4834, 7301.865
534.9655, 7329.568
535.4476, 7368.776
535.9297, 7383.845
536.4119, 7359.128
536.8940, 7330.213
537.3761, 7335.234
537.8582, 7364.244
538.3403, 7383.722
538.8224, 7387.909
539.3046, 7385.764
539.7867, 7379.405
540.2688, 7371.839
540.7509, 7386.266
541.2330, 7456.361
541.7151, 7503.383
542.1973, 7487.905
542.6794, 7453.646
543.1615, 7448.081
543.6436, 7475.509
544.1257, 7506.302
544.6078, 7514.813
545.0900, 7504.292
545.5721, 7490.454
546.0542, 7467.424
546.5363, 7456.697
547.0184, 7477.589
547.5005, 7505.502
547.9827, 7517.401
548.4648, 7512.126
548.9469, 7507.976
549.4290, 7511.556
549.9111, 7521.339
550.3932, 7539.284
550.8754, 7563.018
551.3575, 7581.447
551.8396, 7589.207
552.3217, 7590.777
552.8038, 7595.295
553.2859, 7607.153
553.7681, 7610.488
554.2502, 7586.796
554.7323, 7574.534
555.2144, 7606.209
555.6965, 7658.737
556.1786, 7686.029
556.6608, 7666.292
557.1429, 7634.749
557.6250, 7641.983
558.1071, 7682.392
558.5892, 7702.706
559.0714, 7688.200
559.5535, 7676.001
560.0356, 7699.188
560.5177, 7749.641
560.9998, 7783.610
561.4819, 7793.298
561.9641, 7796.310
562.4462, 7796.662
562.9283, 7793.982
563.4104, 7785.457
563.8925, 7772.277
564.3746, 7761.188
564.8568, 7757.188
565.3389, 7760.376
565.8210, 7772.314
566.3031, 7797.791
566.7852, 7820.399
567.2673, 7828.837
567.7495, 7838.610
568.2316, 7868.892
568.7137, 7916.343
569.1958, 7946.278
569.6779, 7922.450
570.1600, 7889.757
570.6422, 7901.550
571.1243, 7947.144
571.6064, 7984.294
572.0885, 7997.258
572.5706, 7997.685
573.0527, 8002.301
573.5349, 8013.421
574.0170, 8017.235
574.4991, 8003.596
574.9812, 7994.566
575.4633, 7995.036
575.9454, 8004.918
576.4276, 8029.021
576.9097, 8068.206
577.3918, 8100.705
577.8739, 8094.666
578.3560, 8064.331
578.8381, 8062.906
579.3203, 8096.097
579.8024, 8135.830
580.2845, 8169.832
580.7666, 8197.987
581.2487, 8218.530
581.7308, 8228.101
582.2130, 8239.801
582.6951, 8263.832
583.1772, 8283.349
583.6593, 8275.165
584.1414, 8251.979
584.6235, 8251.112
585.1057, 8294.669
585.5878, 8354.605
586.0699, 8375.327
586.5520, 8351.960
587.0341, 8339.877
587.5162, 8348.813
587.9984, 8364.227
588.4805, 8378.121
588.9626, 8390.801
589.4447, 8402.655
589.9268, 8412.332
590.4089, 8423.629
590.8911, 8440.918
591.3732, 8459.756
591.8553, 8471.250
592.3374, 8476.023
592.8195, 8486.535
593.3016, 8514.153
593.7838, 8552.930
594.2659, 8575.626
594.7480, 8573.542
595.2301, 8574.788
595.7122, 8577.993
596.1943, 8590.682
596.6765, 8624.577
597.1586, 8673.794
597.6407, 8715.557
598.1228, 8740.771
598.6049, 8754.369
599.0870, 8753.268
599.5692, 8744.429
600.0513, 8751.214
600.5334, 8779.961
601.0155, 8806.717
601.4976, 8803.109
601.9797, 8769.976
602.4619, 8769.117
602.9440, 8841.154
603.4261, 8893.227
603.9082, 8895.278
604.3903, 8884.094
604.8724, 8891.705
605.3546, 8920.494
605.8367, 8952.871
606.3188, 8980.594
606.8009, 9003.054
607.2830, 9019.663
607.7651, 9030.387
608.2473, 9031.339
608.7294, 9017.227
609.2115, 9007.648
609.6936, 9032.333
610.1757, 9099.884
610.6578, 9133.738
611.1400, 9101.458
611.6221, 9077.307
612.1042, 9091.176
612.5863, 9121.093
613.0684, 9140.990
613.5505, 9145.658
614.0327, 9146.563
614.5148, 9152.769
614.9969, 9163.075
615.4790, 9174.777
615.9611, 9188.070
616.4432, 9198.854
616.9254, 9203.397
617.4075, 9207.980
617.8896, 9223.516
618.3717, 9253.196
618.8538, 9275.122
619.3359, 9278.025
619.8181, 9284.224
620.3002, 9312.501
620.7823, 9347.209
621.2644, 9360.729
621.7465, 9347.215
622.2286, 9332.735
622.7108, 9348.503
623.1929, 9388.300
623.6750, 9417.008
624.1571, 9433.834
624.6392, 9442.334
625.1213, 9436.640
625.6035, 9429.998
626.0856, 9450.272
626.5677, 9503.498
627.0498, 9533.096
627.5319, 9503.367
628.0140, 9475.904
628.4962, 9492.589
628.9783, 9534.713
629.4604, 9568.233
629.9425, 9581.899
630.4246, 9587.014
630.9067, 9597.390
631.3889, 9611.845
631.8710, 9615.548
632.3531, 9603.883
632.8352, 9598.046
633.3173, 9608.569
633.7994, 9628.546
634.2816, 9648.594
634.7637, 9669.225
635.2458, 9686.022
635.7279, 9695.672
636.2100, 9703.422
636.6921, 9711.477
637.1743, 9720.345
637.6564, 9730.180
638.1385, 9741.123
638.6206, 9754.039
639.1027, 9770.342
639.5848, 9789.854
640.0670, 9810.630
640.5491, 9835.384
641.0312, 9851.481
641.5133, 9840.213
641.9954, 9828.021
642.4775, 9861.963
642.9597, 9949.528
643.4418, 10004.41
643.9239, 9973.685
644.4060, 9939.730
644.8881, 9960.159
645.3702, 10012.99
645.8524, 10058.53
646.3345, 10083.28
646.8166, 10092.34
647.2987, 10085.39
647.7808, 10065.90
648.2629, 10066.22
648.7451, 10089.87
649.2272, 10121.68
649.7093, 10164.55
650.1914, 10205.44
650.6735, 10223.87
651.1556, 10218.51
651.6378, 10221.63
652.1199, 10239.38
652.6020, 10266.17
653.0841, 10307.63
653.5662, 10352.99
654.0483, 10381.17
654.5305, 10389.37
655.0126, 10401.73
655.4947, 10448.12
655.9768, 10518.55
656.4589, 10557.41
656.9410, 10556.92
657.4232, 10568.68
657.9053, 10616.28
658.3874, 10673.75
658.8695, 10707.21
659.3516, 10717.54
659.8337, 10733.99
660.3159, 10755.21
660.7980, 10787.63
661.2801, 10846.99
661.7622, 10912.24
662.2443, 10956.98
662.7264, 10977.65
663.2086, 10989.40
663.6907, 11001.21
664.1728, 11016.26
664.6549, 11047.55
665.1370, 11096.28
665.6191, 11133.17
666.1013, 11142.46
666.5834, 11156.55
667.0655, 11216.04
667.5476, 11317.97
668.0297, 11386.37
668.5118, 11392.03
668.9940, 11402.11
669.4761, 11441.46
669.9582, 11486.19
670.4403, 11507.77
670.9224, 11510.89
671.4045, 11527.46
671.8867, 11580.87
672.3688, 11651.17
672.8509, 11706.54
673.3330, 11748.68
673.8151, 11790.60
674.2972, 11834.75
674.7794, 11880.20
675.2615, 11928.31
675.7436, 11976.99
676.2257, 12013.69
676.7078, 12030.80
677.1899, 12046.81
677.6721, 12061.80
678.1542, 12076.51
678.6363, 12091.29
679.1184, 12106.06
679.6005, 12121.68
680.0826, 12139.90
680.5648, 12152.88
681.0469, 12149.03
681.5290, 12134.03
682.0111, 12124.24
682.4932, 12121.02
682.9753, 12110.77
683.4575, 12082.92
683.9396, 12048.78
684.4217, 12036.56
684.9038, 12059.91
685.3859, 12070.26
685.8680, 12066.30
686.3502, 12050.51
686.8323, 12015.13
687.3144, 11971.85
687.7965, 11934.42
688.2786, 11905.09
688.7607, 11889.49
689.2429, 11903.55
689.7250, 11924.90
690.2071, 11920.95
690.6892, 11898.32
691.1713, 11889.33
691.6534, 11906.74
692.1356, 11925.22
692.6177, 11905.73
693.0998, 11846.55
693.5819, 11819.92
694.0640, 11845.46
694.5461, 11863.78
695.0283, 11843.72
695.5104, 11817.30
695.9925, 11814.75
696.4746, 11836.14
696.9567, 11863.58
697.4388, 11903.75
697.9210, 11936.46
698.4031, 11952.00
698.8852, 11951.45
699.3673, 11924.91
699.8494, 11878.43
700.3315, 11850.52
700.8137, 11876.77
701.2958, 11937.28
701.7779, 11974.21
702.2600, 11985.99
702.7421, 12000.02
703.2242, 12024.71
703.7064, 12045.18
704.1885, 12044.52
704.6706, 12028.32
705.1527, 12028.77
705.6348, 12058.12
706.1169, 12085.20
706.5991, 12110.36
707.0812, 12128.05
707.5633, 12124.01
708.0454, 12110.37
708.5275, 12118.77
709.0096, 12165.93
709.4918, 12215.54
709.9739, 12223.64
710.4560, 12203.59
710.9381, 12187.97
711.4202, 12179.96
711.9023, 12187.81
712.3845, 12217.06
712.8666, 12260.66
713.3487, 12307.86
713.8308, 12364.25
714.3129, 12400.85
714.7950, 12400.56
715.2772, 12401.11
715.7593, 12412.15
716.2414, 12429.95
716.7235, 12452.96
717.2056, 12480.33
717.6877, 12502.16
718.1699, 12503.38
718.6520, 12506.79
719.1341, 12536.65
719.6162, 12582.36
720.0983, 12624.76
720.5804, 12658.14
721.0626, 12681.90
721.5447, 12694.51
722.0268, 12697.82
722.5089, 12693.70
722.9910, 12676.57
723.4731, 12689.17
723.9553, 12757.54
724.4374, 12826.57
724.9195, 12847.80
725.4016, 12831.18
725.8837, 12826.78
726.3658, 12837.68
726.8480, 12856.38
727.3301, 12887.35
727.8122, 12920.54
728.2943, 12953.47
728.7764, 12982.00
729.2585, 12995.31
729.7407, 12987.81
730.2228, 12982.61
730.7049, 13008.69
731.1870, 13054.35
731.6691, 13093.59
732.1512, 13124.38
732.6334, 13140.27
733.1155, 13136.30
733.5976, 13126.59
734.0797, 13132.73
734.5618, 13156.33
735.0439, 13180.23
735.5261, 13201.82
736.0082, 13228.00
736.4903, 13270.35
736.9724, 13310.74
737.4545, 13330.69
737.9366, 13331.83
738.4188, 13334.66
738.9009, 13345.27
739.3830, 13359.93
739.8651, 13373.41
740.3472, 13391.24
740.8293, 13429.82
741.3115, 13483.26
741.7936, 13517.73
742.2757, 13507.68
742.7578, 13479.13
743.2399, 13484.20
743.7220, 13520.89
744.2042, 13546.08
744.6863, 13552.21
745.1684, 13561.68
745.6505, 13587.73
746.1326, 13625.79
746.6147, 13667.36
747.0969, 13723.26
747.5790, 13753.02
748.0611, 13736.43
748.5432, 13718.88
749.0253, 13710.30
749.5074, 13713.83
749.9896, 13736.19
750.4717, 13776.87
750.9538, 13816.84
751.4359, 13849.24
751.9180, 13872.51
752.4001, 13881.64
752.8823, 13881.20
753.3644, 13879.59
753.8465, 13879.24
754.3286, 13880.50
754.8107, 13882.16
755.2928, 13888.48
755.7750, 13917.39
756.2571, 13973.53
756.7392, 14016.01
757.2213, 14036.65
757.7034, 14049.09
758.1855, 14058.22
758.6677, 14066.97
759.1498, 14083.60
759.6319, 14105.26
760.1140, 14140.37
760.5961, 14218.23
761.0782, 14279.50
761.5604, 14281.85
762.0425, 14253.43
762.5246, 14231.55
763.0067, 14226.08
763.4888, 14236.46
763.9709, 14265.26
764.4531, 14307.48
764.9352, 14374.50
765.4173, 14449.09
765.8994, 14466.89
766.3815, 14416.68
766.8636, 14377.66
767.3458, 14424.96
767.8279, 14532.04
768.3100, 14594.37
768.7921, 14604.61
769.2742, 14603.96
769.7563, 14585.49
770.2385, 14580.83
770.7206, 14622.24
771.2027, 14690.74
771.6848, 14731.08
772.1669, 14728.76
772.6490, 14736.04
773.1312, 14772.23
773.6133, 14804.98
774.0954, 14806.75
774.5775, 14798.79
775.0596, 14813.92
775.5417, 14858.57
776.0239, 14910.80
776.5060, 14962.23
776.9881, 15008.03
777.4702, 15047.24
777.9523, 15075.36
778.4344, 15071.13
778.9166, 15033.55
779.3987, 15002.81
779.8808, 15012.39
780.3629, 15052.14
780.8450, 15094.85
781.3271, 15143.06
781.8093, 15172.68
782.2914, 15174.38
782.7735, 15172.45
783.2556, 15174.53
783.7377, 15186.21
784.2198, 15224.31
784.7020, 15302.21
785.1841, 15364.34
785.6662, 15405.27
786.1483, 15433.35
786.6304, 15445.84
787.1125, 15450.91
787.5947, 15459.80
788.0768, 15472.78
788.5589, 15476.83
789.0410, 15442.81
789.5231, 15420.02
790.0052, 15479.13
790.4874, 15572.69
790.9695, 15605.89
791.4516, 15573.03
791.9337, 15538.94
792.4158, 15544.71
792.8979, 15575.53
793.3801, 15604.12
793.8622, 15630.58
794.3443, 15658.15
794.8264, 15686.78
795.3085, 15718.66
795.7906, 15755.11
796.2727, 15795.18
796.7548, 15838.90
797.2369, 15888.92
797.7191, 15926.89
798.2012, 15955.87
798.6833, 15968.13
799.1654, 15939.80
799.6475, 15911.89
800.1296, 15929.93
800.6118, 15981.90
801.0939, 16006.87
801.5760, 15964.95
802.0581, 15931.12
802.5402, 15951.64
803.0223, 15995.11
803.5045, 16033.86
803.9866, 16064.64
804.4687, 16088.28
804.9508, 16105.12
805.4329, 16122.95
805.9150, 16153.83
806.3972, 16191.96
806.8793, 16217.04
807.3614, 16230.92
807.8435, 16261.63
808.3256, 16320.72
808.8077, 16367.94
809.2899, 16358.33
809.7720, 16302.65
810.2541, 16276.02
810.7362, 16283.71
811.2183, 16305.86
811.7004, 16349.92
812.1826, 16394.54
812.6647, 16428.80
813.1468, 16453.31
813.6289, 16464.66
814.1110, 16450.10
814.5931, 16464.19
815.0753, 16553.78
815.5574, 16630.39
816.0395, 16633.37
816.5216, 16608.32
817.0037, 16615.93
817.4858, 16662.60
817.9680, 16709.61
818.4501, 16734.58
818.9322, 16751.52
819.4143, 16766.48
819.8964, 16785.99
820.3785, 16831.92
820.8607, 16898.21
821.3428, 16942.84
821.8249, 16941.50
822.3070, 16918.81
822.7891, 16908.24
823.2712, 16910.72
823.7534, 16939.56
824.2355, 16998.03
824.7176, 17048.25
825.1997, 17076.63
825.6818, 17089.00
826.1639, 17088.70
826.6461, 17076.67
827.1282, 17081.24
827.6103, 17103.02
828.0924, 17140.80
828.5745, 17224.50
829.0566, 17293.06
829.5388, 17290.25
830.0209, 17249.05
830.5030, 17249.55
830.9851, 17320.53
831.4672, 17365.30
831.9493, 17314.14
832.4315, 17279.40
832.9136, 17353.74
833.3957, 17472.40
833.8778, 17544.89
834.3599, 17556.14
834.8420, 17545.97
835.3242, 17526.91
835.8063, 17512.86
836.2884, 17524.19
836.7705, 17548.88
837.2526, 17556.77
837.7347, 17551.06
838.2169, 17569.94
838.6990, 17635.28
839.1811, 17718.65
839.6632, 17781.01
840.1453, 17822.10
840.6274, 17833.96
841.1096, 17814.47
841.5917, 17806.67
842.0738, 17825.15
842.5559, 17861.98
843.0380, 17914.39
843.5201, 17977.73
844.0023, 18007.90
844.4844, 17983.10
844.9665, 17976.68
845.4486, 18009.62
845.9307, 18045.40
846.4128, 18056.46
846.8950, 18042.53
847.3771, 18122.90
847.8592, 18178.90
848.3413, 18211.84
848.8234, 18152.65
849.3055, 18212.43
849.7877, 18224.54
850.2698, 18234.68
850.7519, 18311.20
851.2340, 18265.42
851.7161, 18340.88
852.1982, 18367.94
852.6804, 18417.17
853.1625, 18421.03
853.6446, 18486.78
854.1267, 18508.13
854.6088, 18500.75
855.0909, 18521.88
855.5731, 18591.73
856.0552, 18664.10
856.5373, 18684.20
857.0194, 18672.75
857.5015, 18684.60
857.9836, 18713.38
858.4658, 18713.29
858.9479, 18674.61
859.4300, 18662.45
859.9121, 18732.36
860.3942, 18842.03
860.8763, 18874.90
861.3585, 18819.34
861.8406, 18789.07
862.3227, 18788.01
862.8048, 18816.93
863.2869, 18889.55
863.7690, 18973.53
864.2512, 19028.34
864.7333, 19053.78
865.2154, 19066.05
865.6975, 19046.26
866.1796, 19042.50
866.6617, 19071.35
867.1439, 19105.93
867.6260, 19136.56
868.1081, 19159.82
868.5902, 19163.45
869.0723, 19134.56
869.5544, 19135.03
870.0366, 19201.74
870.5187, 19278.51
871.0008, 19344.78
871.4829, 19397.93
871.9650, 19438.77
872.4471, 19465.88
872.9293, 19469.54
873.4114, 19428.47
873.8935, 19397.67
874.3756, 19436.63
874.8577, 19502.44
875.3398, 19534.63
875.8220, 19541.31
876.3041, 19566.12
876.7862, 19623.65
877.2683, 19680.37
877.7504, 19699.69
878.2325, 19696.28
878.7147, 19694.22
879.1968, 19697.38
879.6789, 19729.62
880.1610, 19793.60
880.6431, 19858.21
881.1252, 19903.35
881.6074, 19930.96
882.0895, 19938.31
882.5716, 19924.50
883.0537, 19935.65
883.5358, 19978.02
884.0179, 20009.89
884.5001, 20012.57
884.9822, 20012.36
885.4643, 20040.00
885.9464, 20090.02
886.4285, 20117.49
886.9106, 20101.65
887.3928, 20112.35
887.8749, 20177.80
888.3570, 20237.98
888.8391, 20247.30
889.3212, 20240.84
889.8033, 20282.32
890.2855, 20381.06
890.7676, 20448.30
891.2497, 20459.09
891.7318, 20462.21
892.2139, 20458.77
892.6960, 20462.16
893.1782, 20486.17
893.6603, 20525.14
894.1424, 20563.26
894.6245, 20597.33
895.1066, 20628.73
895.5887, 20655.94
896.0709, 20682.63
896.5530, 20710.17
897.0351, 20739.64
897.5172, 20773.09
897.9993, 20810.06
898.4814, 20848.18
898.9636, 20890.99
899.4457, 20923.48
899.9278, 20912.01
900.4099, 20893.35
900.8920, 20932.20
901.3741, 21012.57
901.8563, 21072.58
902.3384, 21091.77
902.8205, 21102.73
903.3026, 21140.51
903.7847, 21186.79
904.2668, 21197.26
904.7490, 21183.53
905.2311, 21189.22
905.7132, 21220.27
906.1953, 21262.07
906.6774, 21306.95
907.1595, 21352.30
907.6417, 21400.17
908.1238, 21447.11
908.6059, 21444.58
909.0880, 21388.82
909.5701, 21384.99
910.0522, 21468.72
910.5344, 21559.92
911.0165, 21590.37
911.4986, 21582.30
911.9807, 21606.41
912.4628, 21672.61
912.9449, 21725.81
913.4271, 21767.68
913.9092, 21786.72
914.3913, 21763.04
914.8734, 21737.97
915.3555, 21762.69
915.8376, 21832.44
916.3198, 21883.32
916.8019, 21893.55
917.2840, 21925.39
917.7661, 22016.52
918.2482, 22089.30
918.7303, 22092.96
919.2125, 22063.86
919.6946, 22049.80
920.1767, 22052.07
920.6588, 22068.13
921.1409, 22111.09
921.6230, 22149.70
922.1052, 22164.63
922.5873, 22183.88
923.0694, 22242.85
923.5515, 22318.06
924.0336, 22349.28
924.5157, 22315.47
924.9979, 22308.24
925.4800, 22385.09
925.9621, 22464.92
926.4442, 22507.24
926.9263, 22527.08
927.4084, 22531.68
927.8906, 22530.86
928.3727, 22548.69
928.8548, 22599.07
929.3369, 22648.79
929.8190, 22665.74
930.3011, 22683.06
930.7833, 22743.08
931.2654, 22820.65
931.7475, 22867.83
932.2296, 22880.68
932.7117, 22894.13
933.1938, 22929.22
933.6760, 22971.27
934.1581, 23009.39
934.6402, 23042.17
935.1223, 23063.70
935.6044, 23078.12
936.0865, 23097.43
936.5687, 23124.70
937.0508, 23150.27
937.5329, 23158.81
938.0150, 23172.52
938.4971, 23242.94
938.9792, 23345.08
939.4614, 23412.90
939.9435, 23441.79
940.4256, 23446.81
940.9077, 23434.90
941.3898, 23426.39
941.8719, 23444.92
942.3541, 23484.76
942.8362, 23532.56
943.3183, 23586.90
943.8004, 23639.07
944.2825, 23687.39
944.7646, 23730.98
945.2468, 23769.23
945.7289, 23803.19
946.2110, 23838.00
946.6931, 23870.61
947.1752, 23862.85
947.6573, 23812.35
948.1395, 23812.03
948.6216, 23886.76
949.1037, 23967.37
949.5858, 24005.08
950.0679, 24022.77
950.5500, 24071.45
951.0322, 24153.78
951.5143, 24220.66
951.9964, 24269.18
952.4785, 24319.35
952.9606, 24381.48
953.4427, 24428.38
953.9249, 24432.75
954.4070, 24409.80
954.8891, 24405.45
955.3712, 24421.33
955.8533, 24452.69
956.3354, 24512.38
956.8176, 24550.35
957.2997, 24533.96
957.7818, 24519.29
958.2639, 24566.87
958.7460, 24661.27
959.2281, 24724.47
959.7103, 24734.49
960.1924, 24768.64
960.6745, 24851.43
961.1566, 24916.48
961.6387, 24925.15
962.1208, 24920.14
962.6030, 24952.88
963.0851, 25017.50
963.5672, 25056.73
964.0493, 25041.71
964.5314, 25051.48
965.0135, 25119.76
965.4957, 25174.07
965.9778, 25169.00
966.4599, 25145.02
966.9420, 25142.60
967.4241, 25162.35
967.9063, 25213.05
968.3884, 25347.06
968.8705, 25432.94
969.3526, 25435.64
969.8347, 25415.26
970.3168, 25359.10
970.7990, 25320.41
971.2811, 25394.13
971.7632, 25582.40
972.2453, 25709.64
972.7274, 25713.38
973.2095, 25714.70
973.6917, 25733.22
974.1738, 25758.31
974.6559, 25780.77
975.1380, 25806.86
975.6201, 25849.60
976.1022, 25910.61
976.5844, 25964.89
977.0665, 26009.77
977.5486, 26044.04
978.0307, 26052.60
978.5128, 26064.76
978.9949, 26114.51
979.4771, 26176.40
979.9592, 26192.24
980.4413, 26152.07
980.9234, 26158.44
981.4055, 26298.41
981.8876, 26410.82
982.3698, 26404.33
982.8519, 26380.18
983.3340, 26417.30
983.8161, 26496.05
984.2982, 26574.97
984.7803, 26647.34
985.2625, 26692.31
985.7446, 26674.03
986.2267, 26664.10
986.7088, 26694.65
987.1909, 26745.13
987.6730, 26806.20
988.1552, 26870.42
988.6373, 26927.37
989.1194, 26974.96
989.6015, 27012.33
990.0836, 27041.96
990.5657, 27057.82
991.0479, 27029.80
991.5300, 27009.96
992.0121, 27058.44
992.4942, 27149.56
992.9763, 27220.98
993.4584, 27257.29
993.9406, 27294.01
994.4227, 27354.83
994.9048, 27408.94
995.3869, 27435.41
995.8690, 27451.68
996.3511, 27467.58
996.8333, 27488.96
997.3154, 27527.11
997.7975, 27585.53
998.2796, 27640.11
998.7617, 27676.51
999.2438, 27710.66
999.7260, 27753.16
1000.208, 27796.18
1000.690, 27826.48
1001.172, 27852.03
1001.654, 27895.49
1002.137, 27963.29
1002.619, 28018.95
1003.101, 28017.19
1003.583, 28034.37
1004.065, 28131.35
1004.547, 28250.95
1005.029, 28353.04
1005.511, 28427.35
1005.993, 28455.45
1006.476, 28432.39
1006.958, 28421.51
1007.440, 28454.53
1007.922, 28502.39
1008.404, 28560.35
1008.886, 28617.06
1009.368, 28648.28
1009.850, 28674.48
1010.333, 28753.35
1010.815, 28897.39
1011.297, 28996.49
1011.779, 28964.50
1012.261, 28928.99
1012.743, 28949.57
1013.225, 28995.58
1013.707, 29041.54
1014.189, 29091.06
1014.672, 29163.33
1015.154, 29260.84
1015.636, 29335.50
1016.118, 29344.87
1016.600, 29359.19
1017.082, 29413.16
1017.564, 29479.33
1018.046, 29534.95
1018.529, 29586.90
1019.011, 29658.11
1019.493, 29750.11
1019.975, 29813.25
1020.457, 29801.18
1020.939, 29798.92
1021.421, 29846.88
1021.903, 29904.73
1022.385, 29944.38
1022.868, 29974.25
1023.350, 30007.51
1023.832, 30046.55
1024.314, 30095.89
1024.796, 30173.95
1025.278, 30237.38
1025.760, 30263.89
1026.242, 30283.53
1026.724, 30295.50
1027.207, 30322.57
1027.689, 30417.80
1028.171, 30572.02
1028.653, 30656.81
1029.135, 30597.48
1029.617, 30546.16
1030.099, 30524.87
1030.581, 30524.79
1031.064, 30543.78
1031.546, 30580.05
1032.028, 30635.15
1032.510, 30707.08
1032.992, 30783.56
1033.474, 30875.83
1033.956, 30949.63
1034.438, 30991.30
1034.921, 31026.06
1035.403, 31044.67
1035.885, 31075.45
1036.367, 31166.21
1036.849, 31298.41
1037.331, 31373.83
1037.813, 31351.43
1038.295, 31356.84
1038.777, 31406.38
1039.260, 31462.92
1039.742, 31526.92
1040.224, 31583.93
1040.706, 31612.74
1041.188, 31626.44
1041.670, 31668.18
1042.152, 31750.41
1042.634, 31817.31
1043.116, 31871.19
1043.599, 31901.00
1044.081, 31872.01
1044.563, 31869.38
1045.045, 31972.83
1045.527, 32130.29
1046.009, 32224.39
1046.491, 32246.09
1046.973, 32276.67
1047.455, 32317.92
1047.938, 32365.53
1048.420, 32425.40
1048.902, 32472.76
1049.384, 32485.98
1049.866, 32490.08
1050.348, 32526.92
1050.830, 32595.67
1051.312, 32673.23
1051.795, 32763.21
1052.277, 32840.47
1052.759, 32901.41
1053.241, 32943.57
1053.723, 32958.69
1054.205, 32983.83
1054.687, 33074.20
1055.169, 33209.63
1055.651, 33286.01
1056.134, 33302.72
1056.616, 33330.22
1057.098, 33375.02
1057.580, 33428.70
1058.062, 33488.56
1058.544, 33551.18
1059.026, 33615.46
1059.508, 33674.51
1059.990, 33693.46
1060.473, 33687.64
1060.955, 33769.84
1061.437, 33929.09
1061.919, 34017.52
1062.401, 33999.40
1062.883, 33985.46
1063.365, 34058.06
1063.847, 34164.12
1064.330, 34218.06
1064.812, 34240.26
1065.294, 34275.63
1065.776, 34325.43
1066.258, 34385.86
1066.740, 34458.05
1067.222, 34563.67
1067.704, 34717.37
1068.187, 34843.26
1068.669, 34831.58
1069.151, 34766.24
1069.633, 34746.30
1070.115, 34769.11
1070.597, 34844.93
1071.079, 34955.09
1071.561, 35044.89
1072.043, 35095.81
1072.526, 35149.52
1073.008, 35245.63
1073.490, 35345.04
1073.972, 35418.00
1074.454, 35475.57
1074.936, 35523.35
1075.418, 35568.50
1075.900, 35627.80
1076.382, 35700.50
1076.865, 35751.00
1077.347, 35729.62
1077.829, 35747.55
1078.311, 35905.10
1078.793, 36066.64
1079.275, 36131.21
1079.757, 36150.76
1080.239, 36188.07
1080.722, 36248.96
1081.204, 36324.37
1081.686, 36425.34
1082.168, 36505.01
1082.650, 36541.95
1083.132, 36573.20
1083.614, 36603.04
1084.096, 36640.73
1084.578, 36687.41
1085.061, 36748.89
1085.543, 36848.41
1086.025, 37003.56
1086.507, 37101.04
1086.989, 37104.34
1087.471, 37117.07
1087.953, 37149.69
1088.435, 37205.06
1088.917, 37299.05
1089.400, 37397.93
1089.882, 37450.43
1090.364, 37460.23
1090.846, 37476.17
1091.328, 37494.96
1091.810, 37539.56
1092.292, 37616.38
1092.774, 37692.67
1093.257, 37753.63
1093.739, 37825.09
1094.221, 37939.40
1094.703, 38068.70
1095.185, 38119.95
1095.667, 38105.30
1096.149, 38181.19
1096.631, 38342.32
1097.114, 38456.16
1097.596, 38493.12
1098.078, 38519.44
1098.560, 38576.24
1099.042, 38644.40
1099.524, 38691.18
1100.006, 38732.33
1100.488, 38817.05
1100.970, 38922.27
1101.453, 38971.56
1101.935, 38978.67
1102.417, 39046.63
1102.899, 39207.14
1103.381, 39344.58
1103.863, 39336.36
1104.345, 39312.21
1104.827, 39416.21
1105.309, 39563.47
1105.792, 39666.07
1106.274, 39728.57
1106.756, 39758.22
1107.238, 39770.45
1107.720, 39826.32
1108.202, 39969.70
1108.684, 40103.39
1109.166, 40175.54
1109.649, 40234.95
1110.131, 40301.32
1110.613, 40375.27
1111.095, 40477.97
1111.577, 40583.70
1112.059, 40606.41
1112.541, 40506.12
1113.023, 40497.34
1113.505, 40669.37
1113.988, 40834.39
1114.470, 40964.26
1114.952, 41077.95
1115.434, 41183.07
1115.916, 41279.72
1116.398, 41362.73
1116.880, 41436.25
1117.362, 41551.88
1117.844, 41742.59
1118.327, 41828.83
1118.809, 41776.91
1119.291, 41731.22
1119.773, 41734.24
1120.255, 41772.54
1120.737, 41834.77
1121.219, 41926.44
1121.701, 42082.52
1122.184, 42285.69
1122.666, 42374.17
1123.148, 42365.94
1123.630, 42394.18
1124.112, 42478.36
1124.594, 42577.07
1125.076, 42670.19
1125.558, 42764.36
1126.041, 42865.89
1126.523, 42972.88
1127.005, 43100.32
1127.487, 43218.49
1127.969, 43258.09
1128.451, 43249.82
1128.933, 43274.58
1129.415, 43345.36
1129.897, 43415.59
1130.380, 43459.64
1130.862, 43510.39
1131.344, 43581.00
1131.826, 43673.98
1132.308, 43817.59
1132.790, 43963.31
1133.272, 44045.77
1133.754, 44091.48
1134.236, 44184.98
1134.719, 44347.79
1135.201, 44465.57
1135.683, 44473.16
1136.165, 44506.00
1136.647, 44592.54
1137.129, 44701.60
1137.611, 44836.79
1138.093, 44969.63
1138.576, 45060.98
1139.058, 45123.89
1139.540, 45231.99
1140.022, 45406.84
1140.504, 45506.70
1140.986, 45511.46
1141.468, 45560.00
1141.950, 45691.94
1142.432, 45824.81
1142.915, 45904.86
1143.397, 45962.67
1143.879, 46047.23
1144.361, 46144.76
1144.843, 46191.50
1145.325, 46211.10
1145.807, 46307.27
1146.289, 46470.41
1146.771, 46607.53
1147.254, 46691.95
1147.736, 46771.71
1148.218, 46880.99
1148.700, 46993.36
1149.182, 47083.05
1149.664, 47161.59
1150.146, 47248.22
1150.628, 47326.37
1151.111, 47351.16
1151.593, 47347.30
1152.075, 47397.29
1152.557, 47525.34
1153.039, 47658.79
1153.521, 47798.36
1154.003, 47903.09
1154.485, 47912.73
1154.968, 47939.33
1155.450, 48068.79
1155.932, 48237.84
1156.414, 48376.53
1156.896, 48485.05
1157.378, 48556.94
1157.860, 48568.54
1158.342, 48630.32
1158.824, 48755.82
1159.307, 48883.76
1159.789, 49003.31
1160.271, 49100.83
1160.753, 49163.54
1161.235, 49221.37
1161.717, 49323.44
1162.199, 49451.45
1162.681, 49537.11
1163.163, 49591.28
1163.646, 49653.91
1164.128, 49733.28
1164.610, 49857.02
1165.092, 50022.82
1165.574, 50158.21
1166.056, 50211.90
1166.538, 50262.40
1167.020, 50403.54
1167.503, 50558.92
1167.985, 50657.67
1168.467, 50721.01
1168.949, 50738.18
1169.431, 50756.97
1169.913, 50894.15
1170.395, 51166.95
1170.877, 51393.39
1171.359, 51505.45
1171.842, 51595.80
1172.324, 51683.24
1172.806, 51749.14
1173.288, 51745.05
1173.770, 51762.86
1174.252, 51894.05
1174.734, 52096.44
1175.216, 52266.02
1175.698, 52402.42
1176.181, 52521.93
1176.663, 52624.39
1177.145, 52702.50
1177.627, 52752.55
1178.109, 52842.01
1178.591, 53001.12
1179.073, 53162.28
1179.555, 53260.73
1180.038, 53329.28
1180.520, 53426.35
1181.002, 53536.10
1181.484, 53621.45
1181.966, 53691.81
1182.448, 53769.94
1182.930, 53857.29
1183.412, 53940.23
1183.895, 54014.34
1184.377, 54102.48
1184.859, 54229.16
1185.341, 54357.41
1185.823, 54464.77
1186.305, 54571.45
1186.787, 54694.14
1187.269, 54822.78
1187.751, 54955.64
1188.234, 55083.09
1188.716, 55161.46
1189.198, 55163.06
1189.680, 55237.91
1190.162, 55422.95
1190.644, 55573.06
1191.126, 55652.70
1191.608, 55745.99
1192.090, 55897.70
1192.573, 56057.44
##END=



