##NAMES=Enargite
##RRUFFID=R050373
##IDEAL CHEMISTRY=Cu_3_AsS_4_
##LOCALITY=Butte, Silver Bow County, Montana, USA
##OWNER=RRUFF
##SOURCE=Eugene Schlepp
##DESCRIPTION=Black tabular crystals associated with quartz
##STATUS=The identification of this mineral is confirmed by single-crystal X-ray diffraction and chemical analysis.
##URL=rruff.info/R050373
##MEASURED CHEMISTRY=Cu_2.97_As_0.96_Sb_0.01_S_4_
92.35352, 10.36536
92.83563, 10.23437
93.31775, 10.17885
93.79987, 10.19279
94.28198, 10.28146
94.76410, 10.51052
95.24622, 11.01783
95.72833, 11.54295
96.21045, 11.25056
96.69257, 10.07062
97.17468, 9.148870
97.65680, 9.830235
98.13892, 12.07839
98.62103, 13.96344
99.10315, 14.86049
99.58527, 14.93492
100.0674, 15.22252
100.5495, 15.74688
101.0316, 16.42768
101.5137, 17.06912
101.9958, 17.53195
102.4780, 18.47616
102.9601, 20.30556
103.4422, 23.25565
103.9243, 25.48643
104.4064, 26.75757
104.8885, 27.47640
105.3707, 28.36986
105.8528, 29.33634
106.3349, 30.61486
106.8170, 32.41288
107.2991, 35.61380
107.7813, 37.63869
108.2634, 37.88987
108.7455, 36.88277
109.2276, 36.34283
109.7097, 36.41844
110.1918, 36.85481
110.6740, 37.54782
111.1561, 38.69030
111.6382, 39.87010
112.1203, 41.01352
112.6024, 42.15434
113.0845, 43.43575
113.5667, 44.53426
114.0488, 45.96415
114.5309, 48.08924
115.0130, 52.01083
115.4951, 55.65519
115.9772, 58.27549
116.4594, 59.91080
116.9415, 61.56426
117.4236, 63.93517
117.9057, 66.41373
118.3878, 68.33932
118.8699, 68.94006
119.3521, 69.33925
119.8342, 70.05085
120.3163, 71.08594
120.7984, 72.67784
121.2805, 75.25124
121.7626, 78.46037
122.2448, 81.71406
122.7269, 85.61927
123.2090, 89.00797
123.6911, 90.44693
124.1732, 89.46534
124.6553, 87.87397
125.1375, 87.11217
125.6196, 87.06624
126.1017, 87.37607
126.5838, 87.63355
127.0659, 88.13832
127.5480, 89.56188
128.0302, 92.26191
128.5123, 95.36890
128.9944, 97.72925
129.4765, 99.38880
129.9586, 100.7764
130.4407, 102.2180
130.9229, 103.6518
131.4050, 104.7956
131.8871, 105.4613
132.3692, 105.8980
132.8513, 106.6700
133.3334, 107.6293
133.8156, 108.2028
134.2977, 108.1909
134.7798, 107.9866
135.2619, 108.1437
135.7440, 108.8258
136.2261, 109.9480
136.7083, 111.2461
137.1904, 112.7707
137.6725, 114.3323
138.1546, 115.9651
138.6367, 117.8565
139.1188, 118.8866
139.6010, 118.7372
140.0831, 117.4201
140.5652, 115.4506
141.0473, 112.4430
141.5294, 109.2852
142.0115, 107.2410
142.4937, 106.6935
142.9758, 106.2667
143.4579, 105.4520
143.9400, 104.0273
144.4221, 103.3157
144.9042, 103.5352
145.3864, 104.3196
145.8685, 105.0709
146.3506, 105.9053
146.8327, 106.5590
147.3148, 106.9508
147.7969, 107.0333
148.2791, 106.9531
148.7612, 106.5604
149.2433, 106.0219
149.7254, 105.7090
150.2075, 105.2633
150.6896, 105.3513
151.1718, 106.2862
151.6539, 109.4286
152.1360, 111.4395
152.6181, 111.4995
153.1002, 110.2764
153.5823, 109.7629
154.0645, 110.9231
154.5466, 112.2138
155.0287, 112.9192
155.5108, 112.6460
155.9929, 112.1814
156.4750, 111.4381
156.9572, 110.5279
157.4393, 109.9320
157.9214, 109.9750
158.4035, 110.2189
158.8856, 110.3898
159.3677, 110.3041
159.8499, 110.2639
160.3320, 110.3478
160.8141, 110.5471
161.2962, 110.8190
161.7783, 110.9088
162.2604, 111.1749
162.7426, 111.9127
163.2247, 114.4027
163.7068, 116.3419
164.1889, 116.2581
164.6710, 114.2984
165.1531, 112.6207
165.6353, 112.4597
166.1174, 113.0707
166.5995, 113.6522
167.0816, 114.2159
167.5637, 114.4380
168.0458, 113.9294
168.5280, 112.6955
169.0101, 111.4775
169.4922, 110.7577
169.9743, 110.3527
170.4564, 110.0130
170.9385, 109.9490
171.4207, 109.7218
171.9028, 108.7947
172.3849, 107.1226
172.8670, 105.4270
173.3491, 104.2521
173.8312, 103.4390
174.3134, 102.6809
174.7955, 101.5931
175.2776, 100.5988
175.7597, 100.4088
176.2418, 101.1582
176.7239, 101.8648
177.2061, 101.3450
177.6882, 100.0117
178.1703, 98.99662
178.6524, 99.23866
179.1345, 100.0432
179.6166, 100.1739
180.0988, 99.48225
180.5809, 98.55241
181.0630, 98.00164
181.5451, 97.76672
182.0272, 97.61893
182.5093, 97.39936
182.9915, 97.17776
183.4736, 97.15498
183.9557, 97.37432
184.4378, 97.67833
184.9199, 97.83253
185.4020, 97.86004
185.8842, 97.94955
186.3663, 98.40304
186.8484, 99.04123
187.3305, 99.12255
187.8126, 98.49008
188.2947, 97.56149
188.7769, 96.99665
189.2590, 96.78015
189.7411, 96.58971
190.2232, 96.09480
190.7053, 95.39714
191.1874, 95.16927
191.6696, 95.52885
192.1517, 96.25101
192.6338, 97.05978
193.1159, 97.96839
193.5980, 98.63168
194.0801, 98.73172
194.5623, 98.31181
195.0444, 97.98391
195.5265, 97.81874
196.0086, 97.74798
196.4907, 97.66479
196.9728, 97.57935
197.4550, 97.39279
197.9371, 96.93353
198.4192, 96.19221
198.9013, 95.74453
199.3834, 95.64037
199.8655, 95.85313
200.3477, 96.42973
200.8298, 97.46019
201.3119, 98.44194
201.7940, 99.13900
202.2761, 99.56074
202.7582, 99.55043
203.2404, 98.94820
203.7225, 98.01538
204.2046, 97.47747
204.6867, 97.39017
205.1688, 97.50697
205.6509, 97.71533
206.1331, 98.03619
206.6152, 98.30862
207.0973, 98.48336
207.5794, 98.61951
208.0615, 98.92449
208.5436, 99.45702
209.0258, 100.0053
209.5079, 100.5151
209.9900, 101.0729
210.4721, 101.1108
210.9542, 100.3152
211.4363, 99.05856
211.9185, 98.63980
212.4006, 99.25964
212.8827, 100.2878
213.3648, 101.4840
213.8469, 103.1022
214.3290, 103.9670
214.8112, 103.7683
215.2933, 102.8000
215.7754, 102.0463
216.2575, 101.4316
216.7396, 101.1717
217.2217, 101.4839
217.7038, 102.6063
218.1860, 103.5652
218.6681, 104.2695
219.1502, 104.7643
219.6323, 105.1997
220.1144, 105.5813
220.5965, 105.8900
221.0787, 106.1302
221.5608, 106.3551
222.0429, 106.3390
222.5250, 105.8973
223.0071, 105.2234
223.4892, 105.0877
223.9714, 105.7678
224.4535, 106.5479
224.9356, 107.0042
225.4177, 106.8671
225.8998, 107.0698
226.3819, 107.7673
226.8641, 108.8239
227.3462, 109.7236
227.8283, 110.2981
228.3104, 110.9688
228.7925, 112.0068
229.2746, 113.7817
229.7568, 115.0826
230.2389, 115.6526
230.7210, 115.7650
231.2031, 116.2856
231.6852, 117.3926
232.1673, 118.6393
232.6495, 119.8194
233.1316, 120.9520
233.6137, 121.9687
234.0958, 122.8170
234.5779, 123.5476
235.0600, 124.2551
235.5422, 124.7829
236.0243, 125.5282
236.5064, 126.7161
236.9885, 128.6350
237.4706, 130.3471
237.9527, 131.7268
238.4349, 132.9120
238.9170, 134.1943
239.3991, 135.4282
239.8812, 136.9770
240.3633, 139.0909
240.8454, 142.2058
241.3276, 144.7789
241.8097, 146.5591
242.2918, 147.8568
242.7739, 149.3300
243.2560, 151.0803
243.7381, 152.8480
244.2203, 154.4921
244.7024, 155.8445
245.1845, 157.5811
245.6666, 159.9461
246.1487, 162.5748
246.6308, 164.8286
247.1130, 166.6713
247.5951, 168.1959
248.0772, 169.2968
248.5593, 169.7058
249.0414, 170.7368
249.5235, 172.7316
250.0057, 175.1292
250.4878, 176.9648
250.9699, 177.7449
251.4520, 178.8470
251.9341, 180.7261
252.4162, 183.5173
252.8984, 186.4938
253.3805, 189.8489
253.8626, 193.2644
254.3447, 196.1340
254.8268, 198.2068
255.3089, 200.3396
255.7911, 202.8140
256.2732, 205.7165
256.7553, 208.2815
257.2374, 210.2664
257.7195, 212.1641
258.2017, 214.6862
258.6838, 218.3072
259.1659, 221.5124
259.6480, 223.8652
260.1301, 225.3108
260.6122, 226.9120
261.0944, 228.8467
261.5765, 230.7257
262.0586, 232.2122
262.5407, 233.4062
263.0228, 233.9356
263.5049, 233.6957
263.9871, 232.6935
264.4692, 231.0764
264.9513, 228.5858
265.4334, 225.8755
265.9155, 223.5885
266.3976, 222.0204
266.8798, 219.9964
267.3619, 217.2218
267.8440, 213.7753
268.3261, 210.4889
268.8082, 207.3911
269.2903, 204.4050
269.7725, 201.4912
270.2546, 198.6807
270.7367, 195.9236
271.2188, 193.0934
271.7009, 190.3579
272.1830, 188.5347
272.6652, 187.9363
273.1473, 187.4290
273.6294, 186.2183
274.1115, 184.2082
274.5936, 182.0347
275.0757, 179.6925
275.5579, 177.2532
276.0400, 175.0011
276.5221, 172.9637
277.0042, 170.9975
277.4863, 169.0372
277.9684, 167.0853
278.4506, 165.1125
278.9327, 163.1441
279.4148, 161.1214
279.8969, 158.8301
280.3790, 156.2116
280.8611, 153.7458
281.3433, 151.7411
281.8254, 150.1872
282.3075, 148.6170
282.7896, 147.0125
283.2717, 145.3774
283.7538, 143.7634
284.2360, 142.1785
284.7181, 140.4257
285.2002, 138.2132
285.6823, 135.6423
286.1644, 133.6955
286.6465, 132.4711
287.1287, 131.5744
287.6108, 130.4984
288.0929, 129.2592
288.5750, 128.1731
289.0571, 127.3560
289.5392, 126.7822
290.0214, 126.3705
290.5035, 126.1218
290.9856, 126.0304
291.4677, 126.1928
291.9498, 126.5586
292.4319, 126.7887
292.9141, 126.6545
293.3962, 126.3902
293.8783, 126.6009
294.3604, 127.2930
294.8425, 128.0896
295.3246, 128.5116
295.8068, 128.7522
296.2889, 129.4819
296.7710, 131.0255
297.2531, 132.9514
297.7352, 134.4517
298.2173, 135.5803
298.6995, 136.8704
299.1816, 138.9168
299.6637, 141.3797
300.1458, 143.4657
300.6279, 144.9651
301.1100, 146.2330
301.5922, 147.7934
302.0743, 149.5285
302.5564, 150.9609
303.0385, 151.6613
303.5206, 151.9381
304.0027, 152.3035
304.4849, 152.8868
304.9670, 153.2696
305.4491, 152.9293
305.9312, 152.0648
306.4133, 151.1535
306.8954, 150.4590
307.3776, 149.8229
307.8597, 149.1376
308.3418, 148.3999
308.8239, 147.5131
309.3060, 146.2167
309.7881, 144.7453
310.2703, 143.5097
310.7524, 142.6943
311.2345, 142.1428
311.7166, 141.7053
312.1987, 141.3879
312.6808, 141.4143
313.1630, 141.7552
313.6451, 142.5632
314.1272, 144.0140
314.6093, 146.8270
315.0914, 149.6476
315.5735, 151.6365
316.0557, 152.9576
316.5378, 154.4873
317.0199, 156.2809
317.5020, 158.5985
317.9841, 161.7066
318.4662, 165.9599
318.9484, 170.4791
319.4305, 175.0723
319.9126, 179.7214
320.3947, 184.3781
320.8768, 188.6810
321.3589, 193.2523
321.8411, 198.5122
322.3232, 204.8073
322.8053, 210.9281
323.2874, 216.5018
323.7695, 221.7843
324.2516, 227.1816
324.7338, 232.5202
325.2159, 238.1967
325.6980, 244.2996
326.1801, 250.8382
326.6622, 257.8777
327.1443, 265.7495
327.6265, 274.0241
328.1086, 282.3009
328.5907, 290.2348
329.0728, 298.4419
329.5549, 306.6867
330.0370, 314.9984
330.5192, 324.8179
331.0013, 336.7910
331.4834, 349.7910
331.9655, 363.2422
332.4476, 377.5982
332.9297, 391.6872
333.4119, 405.2413
333.8940, 418.3857
334.3761, 431.7154
334.8582, 445.8871
335.3403, 458.7471
335.8224, 469.4336
336.3046, 478.5302
336.7867, 483.7047
337.2688, 484.7748
337.7509, 482.0624
338.2330, 476.1899
338.7151, 467.2267
339.1973, 454.9960
339.6794, 439.0407
340.1615, 419.4340
340.6436, 397.3885
341.1257, 372.5614
341.6078, 346.5744
342.0899, 320.9038
342.5721, 295.8903
343.0542, 272.4505
343.5363, 250.9976
344.0184, 231.5873
344.5005, 214.0471
344.9826, 198.5499
345.4648, 184.6933
345.9469, 172.5314
346.4290, 161.8505
346.9111, 152.2982
347.3932, 143.7917
347.8753, 136.2346
348.3575, 129.7229
348.8396, 124.2500
349.3217, 119.4577
349.8038, 115.2317
350.2859, 111.5505
350.7680, 108.4314
351.2502, 105.9397
351.7323, 103.7621
352.2144, 101.5611
352.6965, 99.37062
353.1786, 97.35825
353.6607, 95.45273
354.1429, 93.84109
354.6250, 92.78677
355.1071, 92.30728
355.5892, 92.19693
356.0713, 92.46204
356.5534, 92.96066
357.0356, 93.48269
357.5177, 93.95016
357.9998, 94.41940
358.4819, 94.80629
358.9640, 95.16721
359.4461, 95.81623
359.9283, 96.86791
360.4104, 98.30373
360.8925, 100.1386
361.3746, 102.5377
361.8567, 105.0518
362.3388, 107.5611
362.8210, 110.0404
363.3031, 112.4924
363.7852, 114.7090
364.2673, 117.0608
364.7494, 119.7081
365.2315, 122.6735
365.7137, 125.9261
366.1958, 129.4710
366.6779, 133.2617
367.1600, 137.2759
367.6421, 141.2999
368.1242, 145.7634
368.6064, 150.9152
369.0885, 156.8166
369.5706, 162.5244
370.0527, 168.0715
370.5348, 173.4346
371.0169, 178.6354
371.4991, 183.2570
371.9812, 188.3434
372.4633, 194.1165
372.9454, 200.4233
373.4275, 206.7098
373.9096, 213.4545
374.3918, 219.4702
374.8739, 224.0036
375.3560, 226.8339
375.8381, 229.4644
376.3202, 231.9718
376.8023, 234.1421
377.2845, 235.6549
377.7666, 236.4914
378.2487, 236.6797
378.7308, 236.1099
379.2129, 234.8617
379.6950, 233.6682
380.1772, 232.6354
380.6593, 231.0528
381.1414, 228.0509
381.6235, 223.7715
382.1056, 219.3432
382.5877, 215.2178
383.0699, 210.8060
383.5520, 204.9073
384.0341, 197.5542
384.5162, 189.6342
384.9983, 181.6077
385.4804, 173.3617
385.9626, 164.3350
386.4447, 154.2894
386.9268, 144.4512
387.4089, 135.9130
387.8910, 128.4943
388.3731, 121.9912
388.8553, 116.3645
389.3374, 111.5471
389.8195, 107.7483
390.3016, 104.9649
390.7837, 102.4292
391.2658, 99.54594
391.7480, 96.75754
392.2301, 94.54850
392.7122, 93.34946
393.1943, 92.34423
393.6764, 91.14517
394.1585, 89.84294
394.6407, 88.71641
395.1228, 87.98727
395.6049, 87.35055
396.0870, 86.63902
396.5691, 85.79746
397.0512, 85.01602
397.5334, 84.53959
398.0155, 84.07236
398.4976, 83.25239
398.9797, 81.20170
399.4618, 79.69034
399.9439, 79.27938
400.4261, 79.96091
400.9082, 80.27420
401.3903, 80.19630
401.8724, 79.76949
402.3545, 78.91035
402.8366, 77.07890
403.3188, 76.07310
403.8009, 76.37672
404.2830, 77.39701
404.7651, 77.55952
405.2472, 76.58632
405.7293, 75.55130
406.2115, 74.98035
406.6936, 74.90413
407.1757, 74.24055
407.6578, 72.76327
408.1399, 71.30982
408.6220, 71.13913
409.1042, 72.21125
409.5863, 72.62019
410.0684, 71.59524
410.5505, 69.79798
411.0326, 68.76371
411.5147, 68.47188
411.9969, 68.37804
412.4790, 68.11065
412.9611, 67.74570
413.4432, 67.49973
413.9253, 67.43501
414.4074, 67.35044
414.8896, 67.01923
415.3717, 66.50037
415.8538, 65.93176
416.3359, 65.39680
416.8180, 64.83361
417.3001, 64.07169
417.7823, 63.11804
418.2644, 62.45750
418.7465, 62.57861
419.2286, 63.01337
419.7107, 63.30801
420.1928, 63.27715
420.6750, 63.18195
421.1571, 63.14878
421.6392, 63.12844
422.1213, 62.99415
422.6034, 62.50850
423.0855, 62.07749
423.5677, 61.88586
424.0498, 62.01885
424.5319, 62.14274
425.0140, 62.26371
425.4961, 62.35162
425.9782, 62.36555
426.4604, 62.12353
426.9425, 62.08781
427.4246, 62.45131
427.9067, 63.12407
428.3888, 63.42334
428.8709, 63.18528
429.3531, 62.86443
429.8352, 62.69981
430.3173, 62.71262
430.7994, 62.77866
431.2815, 62.87934
431.7636, 63.05404
432.2458, 63.48979
432.7279, 64.22095
433.2100, 64.60332
433.6921, 64.24967
434.1742, 63.39385
434.6563, 62.89903
435.1385, 62.76426
435.6206, 62.78873
436.1027, 62.90445
436.5848, 63.04751
437.0669, 63.01208
437.5490, 62.70000
438.0312, 62.35012
438.5133, 62.20424
438.9954, 62.23618
439.4775, 62.37225
439.9596, 62.82639
440.4417, 63.20991
440.9239, 63.09024
441.4060, 62.44306
441.8881, 61.77287
442.3702, 61.30775
442.8523, 60.99382
443.3344, 60.78226
443.8166, 60.89137
444.2987, 60.82868
444.7808, 60.22956
445.2629, 59.31430
445.7450, 58.72517
446.2271, 58.94314
446.7093, 59.21667
447.1914, 59.21443
447.6735, 58.75385
448.1556, 58.59969
448.6377, 59.04395
449.1198, 59.59914
449.6020, 59.75234
450.0841, 59.28926
450.5662, 58.86814
451.0483, 58.59188
451.5304, 58.43128
452.0125, 58.28000
452.4947, 58.16085
452.9768, 57.97694
453.4589, 57.58189
453.9410, 56.96175
454.4231, 56.69088
454.9052, 56.82043
455.3874, 57.15606
455.8695, 57.61128
456.3516, 58.12981
456.8337, 58.26760
457.3158, 57.70689
457.7979, 56.83032
458.2801, 56.24883
458.7622, 55.95659
459.2443, 55.90322
459.7264, 56.22741
460.2085, 56.70739
460.6906, 57.09246
461.1728, 57.37704
461.6549, 57.42580
462.1370, 56.82384
462.6191, 55.98970
463.1012, 55.55158
463.5833, 56.20327
464.0655, 56.87001
464.5476, 57.04741
465.0297, 56.77473
465.5118, 56.47591
465.9939, 56.21509
466.4760, 55.99598
466.9582, 55.81849
467.4403, 55.65147
467.9224, 55.57715
468.4045, 55.55719
468.8866, 55.64422
469.3687, 55.97584
469.8509, 56.91468
470.3330, 57.40512
470.8151, 57.02820
471.2972, 55.90456
471.7793, 55.34266
472.2614, 55.48157
472.7436, 55.79043
473.2257, 55.93189
473.7078, 55.90454
474.1899, 55.77809
474.6720, 55.52750
475.1541, 55.26081
475.6363, 55.11958
476.1184, 55.09967
476.6005, 55.18455
477.0826, 55.48363
477.5647, 55.81358
478.0468, 55.84069
478.5290, 55.58892
479.0111, 55.27563
479.4932, 54.94243
479.9753, 54.68176
480.4574, 54.68638
480.9395, 55.13085
481.4217, 55.36943
481.9038, 54.64122
482.3859, 53.53417
482.8680, 52.92260
483.3501, 53.55018
483.8322, 54.27787
484.3144, 54.75914
484.7965, 54.98112
485.2786, 55.03330
485.7607, 54.77738
486.2428, 54.46976
486.7249, 54.24843
487.2071, 54.22351
487.6892, 54.02705
488.1713, 53.42971
488.6534, 52.82237
489.1355, 52.88741
489.6176, 53.99803
490.0998, 54.66685
490.5819, 54.43108
491.0640, 53.48485
491.5461, 52.73211
492.0282, 52.14834
492.5103, 51.90089
492.9925, 52.45427
493.4746, 53.55770
493.9567, 53.71551
494.4388, 52.68304
494.9209, 51.46054
495.4030, 51.13920
495.8852, 51.51697
496.3673, 52.11399
496.8494, 53.19170
497.3315, 53.98283
497.8136, 53.32910
498.2957, 51.60325
498.7779, 50.36779
499.2600, 50.80085
499.7421, 51.75551
500.2242, 52.52364
500.7063, 53.06441
501.1884, 53.22486
501.6706, 52.64854
502.1527, 51.80872
502.6348, 51.19137
503.1169, 50.94107
503.5990, 50.81919
504.0811, 50.76233
504.5633, 50.80928
505.0454, 51.18554
505.5275, 52.27899
506.0096, 53.01225
506.4917, 52.77809
506.9738, 51.44314
507.4560, 50.82213
507.9381, 51.08925
508.4202, 51.59925
508.9023, 51.64213
509.3844, 51.25193
509.8665, 51.07031
510.3487, 51.32048
510.8308, 51.63978
511.3129, 51.25993
511.7950, 50.34218
512.2772, 49.63863
512.7593, 49.65425
513.2414, 50.04552
513.7235, 50.51800
514.2056, 51.04657
514.6877, 51.36937
515.1699, 51.14350
515.6520, 50.72577
516.1341, 50.45641
516.6162, 50.50457
517.0983, 50.51712
517.5804, 50.26526
518.0626, 49.92471
518.5447, 49.78396
519.0268, 50.05927
519.5089, 50.35984
519.9910, 50.64928
520.4731, 50.91882
520.9553, 50.96754
521.4374, 50.56799
521.9195, 50.28617
522.4016, 50.54631
522.8837, 51.53465
523.3658, 52.03080
523.8480, 51.91742
524.3301, 51.54110
524.8122, 51.37399
525.2943, 51.40000
525.7764, 51.30822
526.2585, 50.90343
526.7407, 50.46360
527.2228, 50.59548
527.7049, 51.20921
528.1870, 51.77180
528.6691, 51.99710
529.1512, 51.98119
529.6334, 51.75785
530.1155, 51.31904
530.5976, 50.96818
531.0797, 50.94098
531.5618, 51.06049
532.0439, 51.15902
532.5261, 51.26406
533.0082, 51.24534
533.4903, 50.83362
533.9724, 50.29456
534.4545, 50.19414
534.9366, 51.09943
535.4188, 51.85747
535.9009, 52.20021
536.3830, 52.13507
536.8651, 51.93865
537.3472, 51.55336
537.8293, 51.15364
538.3115, 50.83439
538.7936, 50.59290
539.2757, 50.50192
539.7578, 50.59040
540.2399, 50.76141
540.7220, 50.91593
541.2042, 51.04736
541.6863, 51.11864
542.1684, 51.06188
542.6505, 51.00730
543.1326, 51.20692
543.6147, 51.59046
544.0969, 51.89537
544.5790, 51.92739
545.0611, 51.83601
545.5432, 51.72771
546.0253, 51.61143
546.5074, 51.49166
546.9896, 51.51795
547.4717, 51.45886
547.9538, 51.11469
548.4359, 49.90675
548.9180, 49.16371
549.4001, 49.26427
549.8823, 49.79782
550.3644, 50.07319
550.8465, 49.97498
551.3286, 49.84340
551.8107, 49.78010
552.2928, 49.75976
552.7750, 49.53817
553.2571, 49.04919
553.7392, 48.67717
554.2213, 48.72522
554.7034, 49.12797
555.1855, 49.56176
555.6677, 50.03170
556.1498, 50.37833
556.6319, 50.45192
557.1140, 50.27402
557.5961, 49.85171
558.0782, 49.04382
558.5604, 48.23254
559.0425, 47.59332
559.5246, 47.18901
560.0067, 47.17102
560.4888, 48.03672
560.9709, 48.90907
561.4531, 49.43077
561.9352, 49.58788
562.4173, 49.48331
562.8994, 48.72886
563.3815, 48.04451
563.8636, 47.82652
564.3458, 48.34227
564.8279, 48.60378
565.3100, 48.55268
565.7921, 48.32556
566.2742, 47.97232
566.7563, 47.42859
567.2385, 47.45189
567.7206, 48.44944
568.2027, 49.79847
568.6848, 49.93517
569.1669, 49.01927
569.6490, 48.22560
570.1312, 48.29811
570.6133, 48.81444
571.0954, 49.28532
571.5775, 49.68889
572.0596, 49.81814
572.5417, 49.22032
573.0239, 48.48089
573.5060, 48.13632
573.9881, 48.39286
574.4702, 48.72585
574.9523, 49.13667
575.4344, 49.48428
575.9166, 49.58051
576.3987, 48.97071
576.8808, 48.72342
577.3629, 49.18690
577.8450, 50.06845
578.3271, 50.34914
578.8093, 49.82415
579.2914, 49.29768
579.7735, 49.03859
580.2556, 49.05147
580.7377, 49.52303
581.2198, 50.50606
581.7020, 51.33688
582.1841, 51.37189
582.6662, 50.84612
583.1483, 50.20361
583.6304, 49.43790
584.1125, 48.97417
584.5947, 49.47710
585.0768, 50.45086
585.5589, 51.17137
586.0410, 51.35361
586.5231, 51.28047
587.0052, 50.90065
587.4873, 50.34220
587.9694, 49.95410
588.4515, 49.87853
588.9337, 49.90163
589.4158, 49.90153
589.8979, 49.87613
590.3800, 50.27622
590.8621, 51.39909
591.3442, 52.42363
591.8264, 52.71135
592.3085, 52.19741
592.7906, 52.02510
593.2727, 52.28165
593.7548, 52.69014
594.2369, 52.94755
594.7191, 53.08529
595.2012, 53.23503
595.6833, 53.46974
596.1654, 53.64955
596.6475, 53.56852
597.1296, 53.31284
597.6118, 53.08069
598.0939, 52.86229
598.5760, 52.78182
599.0581, 53.00585
599.5402, 53.48862
600.0223, 53.84140
600.5045, 53.88359
600.9866, 53.85790
601.4687, 53.86705
601.9508, 53.91194
602.4329, 54.00637
602.9150, 54.21027
603.3972, 54.37939
603.8793, 54.35001
604.3614, 54.09564
604.8435, 53.92098
605.3256, 53.86655
605.8077, 53.89175
606.2899, 53.94877
606.7720, 54.03429
607.2541, 54.13483
607.7362, 54.25933
608.2183, 54.38086
608.7004, 54.50044
609.1826, 54.59722
609.6647, 54.59478
610.1468, 54.27010
610.6289, 53.98468
611.1110, 54.06164
611.5931, 54.53481
612.0753, 54.75460
612.5574, 54.35990
613.0395, 53.85646
613.5216, 53.52813
614.0037, 53.41273
614.4858, 53.38666
614.9680, 53.51373
615.4501, 53.64342
615.9322, 53.59327
616.4143, 53.35800
616.8964, 53.00656
617.3785, 52.46156
617.8607, 51.97608
618.3428, 52.18343
618.8249, 52.89862
619.3070, 53.34707
619.7891, 52.84054
620.2712, 52.12771
620.7534, 51.99492
621.2355, 52.33950
621.7176, 52.69133
622.1997, 53.00846
622.6818, 53.11778
623.1639, 52.81602
623.6461, 51.99334
624.1282, 51.44399
624.6103, 51.36447
625.0924, 51.47569
625.5745, 51.64707
626.0566, 51.99292
626.5388, 52.04288
627.0209, 51.69897
627.5030, 51.20539
627.9851, 50.87041
628.4672, 50.69221
628.9493, 50.60189
629.4315, 50.60865
629.9136, 50.64869
630.3957, 50.55010
630.8778, 50.39124
631.3599, 50.41012
631.8420, 51.10752
632.3242, 51.71560
632.8063, 51.47161
633.2884, 50.54063
633.7705, 49.84914
634.2526, 49.97135
634.7347, 50.19515
635.2169, 50.11988
635.6990, 49.63041
636.1811, 49.48300
636.6632, 49.86126
637.1453, 50.35036
637.6274, 50.65242
638.1096, 50.74226
638.5917, 50.87081
639.0738, 51.10382
639.5559, 51.21934
640.0380, 50.84610
640.5201, 50.08408
641.0023, 49.35641
641.4844, 48.69630
641.9665, 48.24663
642.4486, 48.20723
642.9307, 48.47889
643.4128, 48.84316
643.8950, 49.42845
644.3771, 49.87379
644.8592, 49.88319
645.3413, 49.55864
645.8234, 49.45457
646.3055, 49.96927
646.7877, 50.38940
647.2698, 50.37976
647.7519, 49.90996
648.2340, 50.02564
648.7161, 50.94546
649.1982, 51.84761
649.6804, 52.04430
650.1625, 51.61700
650.6446, 51.29688
651.1267, 51.10983
651.6088, 51.12652
652.0909, 51.63558
652.5731, 52.35313
653.0552, 52.71009
653.5373, 52.34405
654.0194, 52.14518
654.5015, 52.97466
654.9836, 54.23783
655.4658, 55.06549
655.9479, 54.72526
656.4300, 54.51664
656.9121, 54.87278
657.3942, 55.53833
657.8763, 55.75661
658.3585, 55.22695
658.8406, 54.96749
659.3227, 55.38340
659.8048, 56.32655
660.2869, 57.03188
660.7690, 57.49339
661.2512, 57.84131
661.7333, 58.03841
662.2154, 58.21070
662.6975, 58.63923
663.1796, 59.32624
663.6617, 60.03633
664.1439, 60.66014
664.6260, 61.20188
665.1081, 61.66266
665.5902, 62.03019
666.0723, 62.34833
666.5544, 62.44530
667.0366, 62.60894
667.5187, 63.11218
668.0008, 64.16475
668.4829, 65.14321
668.9650, 66.04017
669.4471, 66.80944
669.9293, 67.35699
670.4114, 67.68152
670.8935, 67.95303
671.3756, 68.22303
671.8577, 68.45293
672.3398, 68.49294
672.8220, 68.42290
673.3041, 68.51496
673.7862, 69.10819
674.2683, 69.73744
674.7504, 70.10754
675.2325, 70.22755
675.7147, 70.17274
676.1968, 69.78893
676.6789, 69.39809
677.1610, 69.20072
677.6431, 69.21605
678.1252, 68.94784
678.6074, 68.25474
679.0895, 67.54672
679.5716, 67.13217
680.0537, 67.00791
680.5358, 66.70866
681.0179, 66.20922
681.5001, 65.67370
681.9822, 65.33816
682.4643, 65.07590
682.9464, 64.62259
683.4285, 63.89867
683.9106, 63.09989
684.3928, 62.36544
684.8749, 61.62850
685.3570, 60.79770
685.8391, 59.54734
686.3212, 58.56531
686.8033, 58.36757
687.2855, 58.36296
687.7676, 57.48617
688.2497, 55.10560
688.7318, 53.48021
689.2139, 53.29173
689.6960, 53.94140
690.1782, 53.80897
690.6603, 52.93090
691.1424, 52.00753
691.6245, 51.34212
692.1066, 50.82395
692.5887, 50.30721
693.0709, 49.79366
693.5530, 49.28786
694.0351, 48.66667
694.5172, 48.16296
694.9993, 47.97089
695.4814, 48.10816
695.9636, 48.22150
696.4457, 48.33721
696.9278, 48.33708
697.4099, 48.11013
697.8920, 47.58477
698.3741, 47.34369
698.8563, 47.45210
699.3384, 47.64412
699.8205, 47.66339
700.3026, 47.55584
700.7847, 47.53947
701.2668, 47.64099
701.7490, 47.80321
702.2311, 48.00477
702.7132, 48.22166
703.1953, 48.42318
703.6774, 48.61067
704.1595, 48.76370
704.6417, 48.77704
705.1238, 48.78712
705.6059, 48.99783
706.0880, 49.66124
706.5701, 50.10402
707.0522, 50.13645
707.5344, 50.00777
708.0165, 50.31092
708.4986, 51.08385
708.9807, 51.65947
709.4628, 51.76717
709.9449, 51.65345
710.4271, 51.73631
710.9092, 51.99232
711.3913, 52.33850
711.8734, 52.77085
712.3555, 53.24027
712.8376, 53.79747
713.3198, 54.39427
713.8019, 54.78886
714.2840, 54.69164
714.7661, 54.61098
715.2482, 54.78968
715.7303, 55.21240
716.2125, 55.35747
716.6946, 55.10308
717.1767, 54.90773
717.6588, 55.14434
718.1409, 55.72505
718.6230, 55.88439
719.1052, 55.61339
719.5873, 55.35827
720.0694, 55.50026
720.5515, 55.85554
721.0336, 56.23635
721.5157, 56.63195
721.9979, 56.89779
722.4800, 56.99871
722.9621, 56.92371
723.4442, 56.64009
723.9263, 55.98989
724.4084, 55.46043
724.8906, 54.99389
725.3727, 54.71001
725.8548, 54.82700
726.3369, 55.38847
726.8190, 55.71678
727.3011, 55.74461
727.7833, 55.47992
728.2654, 54.69261
728.7475, 53.63230
729.2296, 52.92698
729.7117, 52.91099
730.1938, 52.96207
730.6760, 52.67975
731.1581, 52.18850
731.6402, 51.67626
732.1223, 50.91530
732.6044, 50.49641
733.0865, 50.75061
733.5687, 51.29582
734.0508, 51.30680
734.5329, 50.67604
735.0150, 49.92860
735.4971, 49.11934
735.9792, 48.36419
736.4614, 47.96961
736.9435, 47.88673
737.4256, 47.86384
737.9077, 47.81472
738.3898, 47.73881
738.8719, 47.65385
739.3541, 47.54564
739.8362, 47.36473
740.3183, 46.93130
740.8004, 46.58276
741.2825, 46.57960
741.7646, 46.84582
742.2468, 46.67719
742.7289, 45.84370
743.2110, 45.16340
743.6931, 45.14653
744.1752, 45.62086
744.6573, 45.50385
745.1395, 44.81402
745.6216, 44.15291
746.1037, 43.95868
746.5858, 44.02797
747.0679, 44.09785
747.5500, 44.16128
748.0322, 44.40654
748.5143, 45.44451
748.9964, 46.27497
749.4785, 46.13725
749.9606, 44.69984
750.4427, 43.83520
750.9249, 43.71876
751.4070, 43.85217
751.8891, 43.92727
752.3712, 43.94526
752.8533, 43.90482
753.3354, 43.78857
753.8176, 43.78025
754.2997, 44.29097
754.7818, 44.93457
755.2639, 45.00961
755.7460, 44.30222
756.2281, 43.72878
756.7103, 44.07060
757.1924, 44.58654
757.6745, 44.59222
758.1566, 43.44450
758.6387, 42.93237
759.1208, 43.30490
759.6030, 44.00658
760.0851, 44.55236
760.5672, 44.95116
761.0493, 44.95646
761.5314, 44.47411
762.0135, 43.87851
762.4957, 43.61382
762.9778, 43.55956
763.4599, 43.47909
763.9420, 43.28045
764.4241, 43.12994
764.9063, 43.13315
765.3884, 43.23059
765.8705, 43.35180
766.3526, 43.61784
766.8347, 43.69750
767.3168, 43.45744
767.7990, 43.13513
768.2811, 43.14867
768.7632, 43.52243
769.2453, 43.74352
769.7274, 43.72529
770.2095, 43.47217
770.6917, 42.71598
771.1738, 41.75132
771.6559, 41.23964
772.1380, 41.70391
772.6201, 42.28203
773.1022, 42.48684
773.5844, 42.50094
774.0665, 42.65472
774.5486, 43.36904
775.0307, 43.63659
775.5128, 43.11298
775.9949, 42.21989
776.4771, 42.00386
776.9592, 42.49565
777.4413, 42.68246
777.9234, 42.13624
778.4055, 41.34918
778.8876, 41.01024
779.3698, 41.04169
779.8519, 41.24447
780.3340, 41.87194
780.8161, 42.29263
781.2982, 41.99355
781.7803, 41.26438
782.2625, 40.91484
782.7446, 41.33856
783.2267, 41.57293
783.7088, 41.37718
784.1909, 40.89455
784.6730, 40.47704
785.1552, 40.12331
785.6373, 39.96943
786.1194, 40.16479
786.6015, 40.48304
787.0836, 40.67775
787.5657, 40.72759
788.0479, 40.56662
788.5300, 39.80389
789.0121, 39.19460
789.4942, 39.14231
789.9763, 39.53741
790.4584, 39.91687
790.9406, 40.30460
791.4227, 40.61118
791.9048, 40.84232
792.3869, 40.95573
792.8690, 40.69410
793.3511, 40.09001
793.8333, 39.68259
794.3154, 39.90474
794.7975, 40.30375
795.2796, 40.31761
795.7617, 40.04124
796.2438, 39.77747
796.7260, 39.65916
797.2081, 39.56559
797.6902, 39.48800
798.1723, 39.40465
798.6544, 39.19506
799.1365, 38.74827
799.6187, 38.48989
800.1008, 38.63479
800.5829, 39.01745
801.0650, 39.08324
801.5471, 38.88974
802.0292, 38.81377
802.5114, 39.21498
802.9935, 39.70002
803.4756, 39.92565
803.9577, 39.93231
804.4398, 39.85731
804.9219, 39.49764
805.4041, 39.34882
805.8862, 39.74118
806.3683, 40.45564
806.8504, 40.48924
807.3325, 39.68036
807.8146, 38.98312
808.2968, 38.80198
808.7789, 38.91879
809.2610, 38.83001
809.7431, 38.59659
810.2252, 38.46688
810.7073, 38.71804
811.1895, 38.97865
811.6716, 38.97467
812.1537, 38.77763
812.6358, 38.65985
813.1179, 38.61467
813.6000, 38.73978
814.0822, 39.20438
814.5643, 39.81538
815.0464, 39.73213
815.5285, 38.93922
816.0106, 38.35904
816.4927, 38.51373
816.9749, 38.94312
817.4570, 38.90722
817.9391, 38.55962
818.4212, 38.34226
818.9033, 38.53010
819.3854, 38.81168
819.8676, 39.10334
820.3497, 39.38927
820.8318, 39.66327
821.3139, 40.07110
821.7960, 40.06571
822.2781, 39.30463
822.7603, 38.24443
823.2424, 38.07357
823.7245, 38.66661
824.2066, 39.23051
824.6887, 39.57703
825.1708, 39.59954
825.6530, 38.78291
826.1351, 37.59639
826.6172, 37.10197
827.0993, 38.61513
827.5814, 39.58485
828.0635, 39.22962
828.5457, 38.17253
829.0278, 37.75780
829.5099, 38.10458
829.9920, 38.27192
830.4741, 37.92086
830.9562, 37.49748
831.4384, 37.85773
831.9205, 38.72192
832.4026, 39.38446
832.8847, 39.62799
833.3668, 39.56134
833.8489, 38.88524
834.3311, 38.02671
834.8132, 37.76561
835.2953, 38.57406
835.7774, 39.12150
836.2595, 39.24636
836.7416, 39.08460
837.2238, 38.74577
837.7059, 38.26426
838.1880, 38.03590
838.6701, 38.22738
839.1522, 38.44219
839.6343, 38.25217
840.1165, 37.83572
840.5986, 37.42237
841.0807, 36.80579
841.5628, 36.65952
842.0449, 37.60009
842.5270, 38.73858
843.0092, 39.12803
843.4913, 38.60183
843.9734, 38.30508
844.4555, 38.39606
844.9376, 38.51384
845.4197, 38.08874
845.9019, 37.39817
846.3840, 37.02240
846.8661, 37.09741
847.3482, 37.36229
847.8303, 37.94536
848.3124, 38.48497
848.7946, 38.60807
849.2767, 38.04929
849.7588, 37.74767
850.2409, 37.82458
850.7230, 37.92853
851.2051, 37.68187
851.6873, 37.15868
852.1694, 36.82113
852.6515, 36.69802
853.1336, 36.74121
853.6157, 37.16045
854.0978, 37.56598
854.5800, 37.46029
855.0621, 36.69243
855.5442, 36.27782
856.0263, 36.70547
856.5084, 37.24280
856.9905, 37.55930
857.4727, 37.65479
857.9548, 37.68917
858.4369, 37.65932
858.9190, 37.60759
859.4011, 37.46992
859.8832, 37.37414
860.3654, 37.67613
860.8475, 38.30416
861.3296, 38.62868
861.8117, 38.00653
862.2938, 37.34964
862.7759, 37.17268
863.2581, 37.40032
863.7402, 37.40395
864.2223, 37.09153
864.7044, 36.86756
865.1865, 36.91550
865.6686, 37.15677
866.1508, 37.49819
866.6329, 37.88362
867.1150, 38.05798
867.5971, 37.84052
868.0792, 37.41782
868.5613, 36.65147
869.0435, 35.74899
869.5256, 35.41882
870.0077, 36.16460
870.4898, 36.61190
870.9719, 36.41555
871.4540, 35.87766
871.9362, 35.66070
872.4183, 35.72993
872.9004, 35.80524
873.3825, 35.77861
873.8646, 35.77390
874.3467, 36.02917
874.8289, 36.35107
875.3110, 36.44258
875.7931, 35.79943
876.2752, 35.51914
876.7573, 35.97515
877.2394, 36.55940
877.7216, 36.45824
878.2037, 35.61827
878.6858, 35.02321
879.1679, 34.78271
879.6500, 34.81865
880.1321, 35.22566
880.6143, 35.77858
881.0964, 36.19954
881.5785, 36.48604
882.0606, 36.40654
882.5427, 35.35120
883.0248, 34.32202
883.5070, 34.08249
883.9891, 34.82616
884.4712, 35.13921
884.9533, 34.96333
885.4354, 34.64108
885.9175, 34.30375
886.3997, 34.05531
886.8818, 34.25414
887.3639, 34.85993
887.8460, 35.24958
888.3281, 34.74112
888.8102, 34.22709
889.2924, 34.32153
889.7745, 34.97681
890.2566, 35.26012
890.7387, 35.06281
891.2208, 34.81431
891.7029, 34.69009
892.1851, 34.63879
892.6672, 34.46549
893.1493, 34.22305
893.6314, 34.14050
894.1135, 34.52288
894.5956, 34.90769
895.0778, 35.05936
895.5599, 35.01287
896.0420, 34.83605
896.5241, 34.36050
897.0062, 34.16704
897.4883, 34.49846
897.9705, 34.94284
898.4526, 34.58184
898.9347, 33.61723
899.4168, 32.99038
899.8989, 32.96854
900.3810, 33.22873
900.8632, 33.75346
901.3453, 34.29900
901.8274, 34.59146
902.3095, 34.47035
902.7916, 34.24793
903.2737, 33.86563
903.7559, 33.47273
904.2380, 33.23758
904.7201, 33.13286
905.2022, 32.87080
905.6843, 32.43266
906.1664, 32.06436
906.6486, 31.94891
907.1307, 32.01414
907.6128, 32.22047
908.0949, 32.56770
908.5770, 32.96740
909.0591, 33.62897
909.5413, 34.02162
910.0234, 33.82384
910.5055, 33.16193
910.9876, 32.85526
911.4697, 32.88478
911.9518, 32.88862
912.4340, 32.54911
912.9161, 32.17698
913.3982, 32.04541
913.8803, 32.13869
914.3624, 32.41567
914.8445, 33.21235
915.3267, 33.74207
915.8088, 33.84062
916.2909, 33.62574
916.7730, 33.23818
917.2551, 32.68488
917.7372, 32.35918
918.2194, 32.40714
918.7015, 32.51577
919.1836, 32.20431
919.6657, 31.79558
920.1478, 31.77788
920.6299, 32.58868
921.1121, 33.06927
921.5942, 32.89907
922.0763, 32.54120
922.5584, 32.32187
923.0405, 32.24168
923.5226, 32.31815
924.0048, 32.56008
924.4869, 32.82199
924.9690, 32.93241
925.4511, 33.03403
925.9332, 33.41910
926.4153, 34.06970
926.8975, 34.32605
927.3796, 33.50348
927.8617, 32.80814
928.3438, 32.65152
928.8259, 32.94578
929.3080, 33.27130
929.7902, 33.62804
930.2723, 33.93917
930.7544, 34.12896
931.2365, 34.30219
931.7186, 34.78059
932.2007, 35.30421
932.6829, 35.33952
933.1650, 34.13191
933.6471, 33.21883
934.1292, 32.85393
934.6113, 32.82187
935.0934, 32.86625
935.5756, 32.98697
936.0577, 33.12666
936.5398, 33.27605
937.0219, 33.44136
937.5040, 33.67871
937.9861, 33.90630
938.4683, 34.01447
938.9504, 33.96384
939.4325, 33.91217
939.9146, 33.93581
940.3967, 33.89929
940.8788, 33.69802
941.3610, 33.35203
941.8431, 33.12539
942.3252, 33.01294
942.8073, 32.91903
943.2894, 32.58292
943.7715, 32.40018
944.2537, 32.96000
944.7358, 34.02399
945.2179, 34.70272
945.7000, 34.57238
946.1821, 34.32630
946.6642, 33.96980
947.1464, 33.65702
947.6285, 33.79733
948.1106, 34.32489
948.5927, 34.76221
949.0748, 35.01929
949.5569, 35.05777
950.0391, 34.61842
950.5212, 34.05267
951.0033, 33.77803
951.4854, 34.00890
951.9675, 34.23053
952.4496, 34.52647
952.9318, 34.65007
953.4139, 34.30732
953.8960, 33.59650
954.3781, 33.01974
954.8602, 32.60236
955.3423, 32.47623
955.8245, 32.99748
956.3066, 33.61003
956.7887, 33.90456
957.2708, 33.90776
957.7529, 34.02855
958.2350, 34.49627
958.7172, 34.52787
959.1993, 33.71265
959.6814, 32.60126
960.1635, 32.50491
960.6456, 33.13767
961.1277, 33.56988
961.6099, 33.34656
962.0920, 33.16724
962.5741, 33.70240
963.0562, 34.34219
963.5383, 34.32490
964.0204, 33.22214
964.5026, 32.74335
964.9847, 33.05463
965.4668, 33.44891
965.9489, 33.10709
966.4310, 32.43104
966.9131, 32.33761
967.3953, 32.83743
967.8774, 33.27701
968.3595, 33.28040
968.8416, 33.18977
969.3237, 33.14929
969.8058, 33.15286
970.2880, 33.14975
970.7701, 33.13094
971.2522, 33.20998
971.7343, 33.52824
972.2164, 33.78598
972.6985, 33.32484
973.1807, 32.53019
973.6628, 32.15671
974.1449, 32.69020
974.6270, 33.23847
975.1091, 33.81781
975.5912, 34.18098
976.0734, 33.96196
976.5555, 33.14243
977.0376, 32.79777
977.5197, 33.00333
978.0018, 33.28688
978.4839, 33.17138
978.9661, 33.00970
979.4482, 33.31765
979.9303, 34.07044
980.4124, 34.29015
980.8945, 33.39696
981.3766, 32.66604
981.8588, 32.50816
982.3409, 32.72090
982.8230, 32.70157
983.3051, 32.51712
983.7872, 32.54577
984.2693, 33.06006
984.7515, 33.55622
985.2336, 33.70064
985.7157, 33.60978
986.1978, 33.40862
986.6799, 32.96213
987.1620, 32.78920
987.6442, 32.96949
988.1263, 33.20049
988.6084, 33.16215
989.0905, 32.97605
989.5726, 32.90081
990.0547, 32.95579
990.5369, 33.18309
991.0190, 33.89071
991.5011, 34.48431
991.9832, 34.60748
992.4653, 34.39065
992.9474, 34.28614
993.4296, 34.31665
993.9117, 34.22737
994.3938, 33.86589
994.8759, 33.52477
995.3580, 33.71550
995.8401, 34.15767
996.3223, 34.38697
996.8044, 34.12710
997.2865, 34.00931
997.7686, 34.24115
998.2507, 34.49820
998.7328, 34.51161
999.2150, 34.29550
999.6971, 34.08105
1000.179, 33.88599
1000.661, 34.02385
1001.143, 35.28790
1001.626, 36.47417
1002.108, 36.38349
1002.590, 35.30915
1003.072, 34.89878
1003.554, 35.57288
1004.036, 36.14403
1004.518, 36.40815
1005.000, 36.38938
1005.482, 35.87984
1005.965, 35.13280
1006.447, 34.88683
1006.929, 35.43006
1007.411, 36.00185
1007.893, 36.19304
1008.375, 36.30596
1008.857, 36.58988
1009.339, 37.07073
1009.822, 37.37328
1010.304, 37.48234
1010.786, 37.57234
1011.268, 37.80748
1011.750, 38.04350
1012.232, 37.97711
1012.714, 37.75293
1013.196, 37.78734
1013.678, 38.75287
1014.161, 39.20543
1014.643, 38.74329
1015.125, 37.92207
1015.607, 37.52886
1016.089, 37.50902
1016.571, 37.51142
1017.053, 37.47947
1017.535, 37.54852
1018.018, 38.01077
1018.500, 38.47041
1018.982, 38.59701
1019.464, 38.36385
1019.946, 38.08403
1020.428, 37.73695
1020.910, 37.42971
1021.392, 37.26386
1021.874, 37.10341
1022.357, 36.42489
1022.839, 35.56406
1023.321, 35.33966
1023.803, 36.93462
1024.285, 37.91082
1024.767, 37.14919
1025.249, 35.96837
1025.731, 35.69302
1026.214, 36.33435
1026.696, 36.42743
1027.178, 35.88843
1027.660, 35.42567
1028.142, 35.83165
1028.624, 36.36491
1029.106, 36.35546
1029.588, 35.82797
1030.070, 35.28407
1030.553, 34.66776
1031.035, 34.25731
1031.517, 34.14618
1031.999, 34.22956
1032.481, 34.44080
1032.963, 34.68049
1033.445, 34.68822
1033.927, 34.37027
1034.410, 33.93133
1034.892, 33.11021
1035.374, 32.52309
1035.856, 32.72657
1036.338, 33.75110
1036.820, 34.03579
1037.302, 33.56474
1037.784, 32.97815
1038.266, 32.40178
1038.749, 32.11776
1039.231, 32.80993
1039.713, 33.99205
1040.195, 34.45742
1040.677, 33.51657
1041.159, 32.66145
1041.641, 31.94263
1042.123, 31.47390
1042.605, 31.54726
1043.088, 31.96263
1043.570, 32.12084
1044.052, 31.95918
1044.534, 31.80430
1045.016, 31.78590
1045.498, 31.87323
1045.980, 32.15936
1046.462, 32.53824
1046.945, 32.38278
1047.427, 31.66108
1047.909, 31.37613
1048.391, 32.07757
1048.873, 32.83021
1049.355, 32.32344
1049.837, 31.38509
1050.319, 31.18605
1050.802, 32.51312
1051.284, 33.26186
1051.766, 33.29277
1052.248, 32.98823
1052.730, 32.39651
1053.212, 31.71529
1053.694, 31.75965
1054.176, 32.34967
1054.658, 32.64791
1055.141, 31.70956
1055.623, 31.03254
1056.105, 31.35669
1056.587, 32.13962
1057.069, 32.64704
1057.551, 32.87586
1058.033, 32.87147
1058.515, 32.60899
1058.997, 32.38340
1059.480, 32.56925
1059.962, 32.83844
1060.444, 32.85619
1060.926, 32.59074
1061.408, 32.42357
1061.890, 32.41776
1062.372, 32.35416
1062.854, 32.08704
1063.337, 31.83173
1063.819, 32.13998
1064.301, 32.75927
1064.783, 33.13306
1065.265, 33.05275
1065.747, 32.83055
1066.229, 32.44512
1066.711, 32.05475
1067.193, 31.73759
1067.676, 31.49762
1068.158, 31.42111
1068.640, 31.49334
1069.122, 31.50347
1069.604, 31.09982
1070.086, 30.81316
1070.568, 31.19487
1071.050, 31.90787
1071.532, 32.17239
1072.015, 31.81006
1072.497, 31.59657
1072.979, 31.63330
1073.461, 31.70676
1073.943, 31.61155
1074.425, 31.39906
1074.907, 31.11394
1075.389, 30.76733
1075.872, 30.43075
1076.354, 30.00972
1076.836, 29.78067
1077.318, 29.87918
1077.800, 30.15734
1078.282, 30.30481
1078.764, 30.34426
1079.246, 30.38050
1079.729, 30.47636
1080.211, 30.44134
1080.693, 29.96919
1081.175, 29.49750
1081.657, 29.42477
1082.139, 29.75017
1082.621, 29.58909
1083.103, 28.92759
1083.585, 28.54351
1084.068, 29.14775
1084.550, 29.91056
1085.032, 29.96567
1085.514, 29.62689
1085.996, 29.46006
1086.478, 29.69261
1086.960, 29.75806
1087.442, 29.64172
1087.924, 29.34861
1088.406, 28.64098
1088.889, 27.86637
1089.371, 27.77656
1089.853, 28.29386
1090.335, 28.70923
1090.817, 28.74114
1091.299, 28.64051
1091.781, 28.38310
1092.263, 28.12061
1092.746, 28.19806
1093.228, 28.53449
1093.710, 28.72397
1094.192, 28.68252
1094.674, 28.63463
1095.156, 28.90811
1095.638, 29.05392
1096.120, 28.63993
1096.603, 27.78642
1097.085, 27.34990
1097.567, 27.33957
1098.049, 27.54261
1098.531, 28.00699
1099.013, 28.38871
1099.495, 28.22238
1099.977, 27.81066
1100.459, 27.55667
1100.942, 27.62804
1101.424, 27.48101
1101.906, 27.01629
1102.388, 26.65594
1102.870, 26.70437
1103.352, 27.02347
1103.834, 27.50028
1104.316, 28.02466
1104.798, 28.27278
1105.281, 27.91275
1105.763, 27.55165
1106.245, 27.16767
1106.727, 26.96048
1107.209, 27.30721
1107.691, 28.03832
1108.173, 28.43629
1108.655, 28.46941
1109.138, 28.30563
1109.620, 27.82285
1110.102, 27.40431
1110.584, 27.27698
1111.066, 27.31101
1111.548, 27.18636
1112.030, 26.90879
1112.512, 26.90296
1112.995, 27.29529
1113.477, 27.61976
1113.959, 27.36978
1114.441, 26.95209
1114.923, 26.70411
1115.405, 26.64188
1115.887, 26.56804
1116.369, 26.45422
1116.851, 26.52210
1117.333, 26.96472
1117.816, 27.38555
1118.298, 27.11399
1118.780, 26.53768
1119.262, 26.24324
1119.744, 26.50838
1120.226, 26.55373
1120.708, 26.25630
1121.190, 25.97829
1121.673, 25.94989
1122.155, 26.08130
1122.637, 26.19390
1123.119, 26.28231
1123.601, 26.33149
1124.083, 26.19791
1124.565, 26.24685
1125.047, 26.76748
1125.530, 27.17316
1126.012, 26.67694
1126.494, 25.53674
1126.976, 25.29743
1127.458, 25.90723
1127.940, 26.50671
1128.422, 26.62948
1128.904, 26.60627
1129.386, 26.47546
1129.869, 26.35200
1130.351, 26.49777
1130.833, 26.90273
1131.315, 26.88036
1131.797, 26.31842
1132.279, 25.91176
1132.761, 26.54915
1133.243, 27.24845
1133.725, 27.18262
1134.208, 26.50281
1134.690, 26.07099
1135.172, 25.90204
1135.654, 25.91220
1136.136, 26.14492
1136.618, 26.31046
1137.100, 25.87216
1137.582, 25.32788
1138.065, 25.28047
1138.547, 25.89482
1139.029, 26.32512
1139.511, 26.56521
1139.993, 26.61061
1140.475, 26.42019
1140.957, 26.09990
1141.439, 25.69069
1141.922, 25.31064
1142.404, 25.19199
1142.886, 25.58185
1143.368, 25.67850
1143.850, 25.23364
1144.332, 24.91815
1144.814, 25.31850
1145.296, 26.05834
1145.778, 26.10087
1146.260, 25.64587
1146.743, 25.27825
1147.225, 25.35442
1147.707, 25.36310
1148.189, 25.13695
1148.671, 24.93900
1149.153, 25.07719
1149.635, 25.45386
1150.117, 25.59805
1150.600, 25.51633
1151.082, 25.34635
1151.564, 24.94801
1152.046, 24.73809
1152.528, 24.96767
1153.010, 25.38245
1153.492, 25.69571
1153.974, 25.90241
1154.457, 25.92485
1154.939, 25.75690
1155.421, 25.52314
1155.903, 25.18020
1156.385, 24.92296
1156.867, 24.96051
1157.349, 25.14555
1157.831, 25.18112
1158.313, 25.06624
1158.796, 24.70121
1159.278, 24.01195
1159.760, 23.54472
1160.242, 24.06265
1160.724, 24.74846
1161.206, 24.81308
1161.688, 24.36505
1162.170, 24.48479
1162.652, 25.24948
1163.135, 25.73917
1163.617, 25.63836
1164.099, 25.37881
1164.581, 25.46511
1165.063, 25.60047
1165.545, 25.38884
1166.027, 24.74295
1166.509, 24.47273
1166.992, 24.63618
1167.474, 24.85445
1167.956, 25.02439
1168.438, 25.08583
1168.920, 24.92118
1169.402, 24.61718
1169.884, 24.21941
1170.366, 23.50007
1170.849, 23.68485
1171.331, 25.09842
1171.813, 26.27637
1172.295, 26.28507
1172.777, 25.67304
1173.259, 25.10106
1173.741, 24.64245
1174.223, 24.46059
1174.705, 24.85266
1175.188, 25.08360
1175.670, 25.12507
1176.152, 25.05992
1176.634, 24.91589
1177.116, 24.72605
1177.598, 24.47558
1178.080, 24.22913
1178.562, 24.17504
1179.044, 24.55387
1179.527, 24.88992
1180.009, 25.22511
1180.491, 25.35029
1180.973, 24.87061
1181.455, 24.10087
1181.937, 23.81462
1182.419, 23.95498
1182.901, 24.09167
1183.384, 23.92435
1183.866, 23.96683
1184.348, 24.39147
1184.830, 24.89028
1185.312, 25.11984
1185.794, 25.10771
1186.276, 24.80531
1186.758, 24.25506
1187.240, 23.93313
1187.723, 24.35490
1188.205, 24.61029
1188.687, 24.41408
1189.169, 24.04037
1189.651, 23.90445
1190.133, 23.96828
1190.615, 24.20888
1191.097, 24.62306
1191.579, 24.79567
1192.062, 24.19564
1192.544, 23.75902
1193.026, 23.83491
1193.508, 24.20886
1193.990, 24.48217
1194.472, 24.65240
1194.954, 24.69040
1195.436, 24.58204
1195.919, 24.44169
1196.401, 24.23142
1196.883, 24.11504
1197.365, 24.20448
1197.847, 24.40035
1198.329, 24.46432
1198.811, 24.38356
1199.293, 24.02431
1199.776, 23.22316
1200.258, 22.75232
1200.740, 23.26043
1201.222, 23.90430
1201.704, 24.31451
1202.186, 24.50397
1202.668, 24.38501
1203.150, 24.06114
1203.632, 23.97846
1204.115, 24.38722
1204.597, 24.73441
1205.079, 24.64637
1205.561, 24.54289
1206.043, 24.71218
1206.525, 25.06459
1207.007, 25.08178
1207.489, 24.83945
1207.971, 24.67925
1208.454, 24.75777
1208.936, 24.89297
1209.418, 25.19547
1209.900, 25.33203
1210.382, 24.90622
1210.864, 24.08694
1211.346, 24.26883
1211.828, 25.22941
1212.311, 25.86638
1212.793, 25.40039
1213.275, 24.97470
1213.757, 25.20884
1214.239, 25.44491
1214.721, 25.08476
1215.203, 24.25095
1215.685, 23.88277
1216.167, 23.93237
1216.650, 24.13036
1217.132, 24.54123
1217.614, 24.81744
1218.096, 24.78213
1218.578, 24.64365
1219.060, 24.56348
1219.542, 24.53677
1220.024, 24.57818
1220.506, 24.65700
1220.989, 24.60353
1221.471, 24.09139
1221.953, 23.76887
1222.435, 24.00228
1222.917, 24.27876
1223.399, 23.95355
1223.881, 23.19467
1224.363, 22.84187
1224.846, 22.88368
1225.328, 23.07651
1225.810, 23.43725
1226.292, 23.75321
1226.774, 23.96246
1227.256, 24.12498
1227.738, 24.40112
1228.220, 24.68419
1228.703, 24.43291
1229.185, 23.72831
1229.667, 23.30606
1230.149, 23.68221
1230.631, 24.18563
1231.113, 24.83391
1231.595, 25.28011
1232.077, 24.78666
1232.559, 23.79598
1233.042, 23.74763
1233.524, 24.59076
1234.006, 25.08946
1234.488, 24.37818
1234.970, 23.74478
1235.452, 23.42771
1235.934, 23.30155
1236.416, 23.15516
1236.898, 23.09024
1237.381, 23.49273
1237.863, 24.31141
1238.345, 24.80080
1238.827, 24.40593
1239.309, 24.12137
1239.791, 24.12229
1240.273, 24.25950
1240.755, 24.39586
1241.238, 24.49838
1241.720, 24.47453
1242.202, 24.33055
1242.684, 24.23432
1243.166, 24.22156
1243.648, 24.27789
1244.130, 24.46182
1244.612, 24.54758
1245.094, 24.05969
1245.577, 23.37481
1246.059, 22.98734
1246.541, 22.94902
1247.023, 23.41673
1247.505, 24.76582
1247.987, 25.41828
1248.469, 24.89451
1248.951, 24.10900
1249.433, 24.42841
1249.916, 24.99808
1250.398, 24.49843
1250.880, 22.97427
1251.362, 22.79046
1251.844, 24.45042
1252.326, 25.43768
1252.808, 25.10489
1253.290, 24.35106
1253.773, 23.95002
1254.255, 23.77291
1254.737, 23.79662
1255.219, 23.96407
1255.701, 23.78901
1256.183, 23.19919
1256.665, 22.91073
1257.147, 23.10734
1257.630, 23.52039
1258.112, 24.16777
1258.594, 24.70386
1259.076, 24.65360
1259.558, 24.21448
1260.040, 24.33875
1260.522, 25.01501
1261.004, 25.32912
1261.486, 25.03676
1261.969, 24.66224
1262.451, 24.63147
1262.933, 24.62134
1263.415, 24.33741
1263.897, 23.92536
1264.379, 23.98177
1264.861, 24.42124
1265.343, 24.58480
1265.825, 24.30104
1266.308, 23.97567
1266.790, 23.64367
1267.272, 23.59558
1267.754, 24.12120
1268.236, 24.86980
1268.718, 24.83628
1269.200, 24.22526
1269.682, 23.69356
1270.165, 23.33116
1270.647, 23.40028
1271.129, 24.68999
1271.611, 25.53445
1272.093, 25.23069
1272.575, 24.41855
1273.057, 24.47806
1273.539, 25.00416
1274.021, 25.00097
1274.504, 24.23397
1274.986, 23.81909
1275.468, 24.04690
1275.950, 24.45975
1276.432, 25.01258
1276.914, 25.49863
1277.396, 25.58240
1277.878, 25.40027
1278.360, 25.05168
1278.843, 24.54293
1279.325, 24.52964
1279.807, 25.23565
1280.289, 25.65084
1280.771, 25.44115
1281.253, 25.03035
1281.735, 24.85126
1282.217, 24.79974
1282.700, 24.75131
1283.182, 24.70534
1283.664, 24.86115
1284.146, 25.26968
1284.628, 25.17252
1285.110, 24.23528
1285.592, 23.46468
1286.074, 24.02852
1286.557, 24.86806
1287.039, 25.14549
1287.521, 24.98936
1288.003, 24.92109
1288.485, 24.92542
1288.967, 24.80736
1289.449, 24.51506
1289.931, 24.19539
1290.413, 23.68411
1290.896, 23.49508
1291.378, 23.99006
1291.860, 24.83563
1292.342, 25.22835
1292.824, 25.24691
1293.306, 25.12125
1293.788, 24.87797
1294.270, 24.73323
1294.752, 24.96023
1295.235, 25.03448
1295.717, 24.77170
1296.199, 24.36481
1296.681, 24.03684
1297.163, 23.85248
1297.645, 24.03360
1298.127, 24.60430
1298.609, 24.91590
1299.092, 24.85661
1299.574, 24.62131
1300.056, 24.17274
1300.538, 23.84426
1301.020, 24.23049
1301.502, 24.82969
1301.984, 25.05344
1302.466, 24.88057
1302.948, 24.69316
1303.431, 24.45545
1303.913, 24.48553
1304.395, 24.84106
1304.877, 25.50506
##END=



