##NAMES=Enargite
##RRUFFID=R050435
##IDEAL CHEMISTRY=Cu_3_AsS_4_
##LOCALITY=Longfellow mine, Red Mountain Pass, Ouray, Colorado, USA
##OWNER=RRUFF
##SOURCE=University of Arizona Mineral Museum
##DESCRIPTION=Grayish black prismatic crystals
##STATUS=The identification of this mineral has been confirmed by X-ray diffraction and chemical analysis
##URL=rruff.info/R050435
##MEASURED CHEMISTRY=Cu_2.97_As_0.95_Sb_0.02_S_4_
93.48767, 77.55992
93.96979, 78.15701
94.45190, 79.67893
94.93402, 82.60976
95.41614, 84.71492
95.89825, 85.38269
96.38037, 84.88769
96.86249, 83.58852
97.34460, 82.62066
97.82672, 82.12593
98.30884, 81.85149
98.79095, 82.06202
99.27307, 82.37176
99.75519, 82.08395
100.2373, 80.89510
100.7194, 79.15544
101.2015, 78.23829
101.6837, 78.64921
102.1658, 79.35024
102.6479, 79.55807
103.1300, 79.22542
103.6121, 78.80487
104.0942, 78.63620
104.5764, 78.59836
105.0585, 78.52371
105.5406, 78.37786
106.0227, 78.14851
106.5048, 77.76517
106.9869, 77.01529
107.4691, 76.36848
107.9512, 76.15353
108.4333, 76.22499
108.9154, 76.22234
109.3975, 75.77652
109.8796, 74.78194
110.3618, 74.01798
110.8439, 73.83175
111.3260, 73.58337
111.8081, 72.88322
112.2902, 71.74664
112.7723, 70.52547
113.2545, 69.71791
113.7366, 69.55056
114.2187, 69.43803
114.7008, 69.43202
115.1829, 69.44903
115.6650, 69.40013
116.1472, 69.25227
116.6293, 69.06181
117.1114, 68.95879
117.5935, 68.91663
118.0756, 68.98203
118.5577, 69.24500
119.0399, 69.63092
119.5220, 69.95158
120.0041, 70.08098
120.4862, 70.12837
120.9683, 70.33877
121.4504, 70.78550
121.9326, 71.26543
122.4147, 71.62065
122.8968, 71.84428
123.3789, 72.02150
123.8610, 72.14860
124.3431, 72.26454
124.8252, 72.41106
125.3074, 72.61117
125.7895, 72.83580
126.2716, 73.01425
126.7537, 73.08855
127.2358, 73.22202
127.7179, 73.62212
128.2001, 74.07100
128.6822, 74.24573
129.1643, 73.88212
129.6464, 73.04762
130.1285, 72.62756
130.6107, 73.25011
131.0928, 73.71150
131.5749, 73.62896
132.0570, 73.13480
132.5391, 72.57127
133.0212, 72.22936
133.5034, 72.12887
133.9855, 72.16823
134.4676, 72.50050
134.9497, 72.82148
135.4318, 72.90201
135.9139, 72.74489
136.3961, 72.58061
136.8782, 72.66486
137.3603, 73.04245
137.8424, 73.52431
138.3245, 74.36726
138.8066, 75.20674
139.2888, 75.51781
139.7709, 75.10088
140.2530, 74.48134
140.7351, 74.28942
141.2172, 74.47285
141.6993, 74.83105
142.1815, 75.48708
142.6636, 76.30125
143.1457, 76.72978
143.6278, 76.46410
144.1099, 75.96525
144.5920, 75.60465
145.0742, 75.39341
145.5563, 75.28360
146.0384, 75.13920
146.5205, 74.90390
147.0026, 75.11516
147.4847, 76.47388
147.9669, 77.92687
148.4490, 79.01016
148.9311, 79.59428
149.4132, 79.69559
149.8953, 79.20332
150.3774, 77.52645
150.8596, 76.48692
151.3417, 76.36342
151.8238, 76.71971
152.3059, 77.32622
152.7880, 78.07201
153.2701, 78.84752
153.7523, 79.36292
154.2344, 79.18377
154.7165, 79.22252
155.1986, 79.73293
155.6807, 80.41966
156.1628, 80.88995
156.6449, 80.93328
157.1271, 80.66915
157.6092, 80.58318
158.0913, 80.93113
158.5734, 81.14015
159.0555, 80.90173
159.5376, 80.37688
160.0198, 79.99525
160.5019, 80.01834
160.9840, 80.36317
161.4661, 80.64827
161.9482, 80.89983
162.4303, 81.07219
162.9125, 81.11491
163.3946, 81.03185
163.8767, 80.90067
164.3588, 80.71525
164.8409, 80.52682
165.3230, 80.42647
165.8052, 80.48146
166.2873, 80.58375
166.7694, 80.64981
167.2515, 80.74118
167.7336, 80.57285
168.2157, 79.67133
168.6979, 78.53283
169.1800, 77.74760
169.6621, 77.61983
170.1442, 77.96762
170.6263, 78.33334
171.1084, 78.93285
171.5906, 79.16261
172.0727, 78.72093
172.5548, 77.87604
173.0369, 76.96043
173.5190, 76.12816
174.0011, 75.40739
174.4833, 75.04494
174.9654, 75.69707
175.4475, 76.06237
175.9296, 75.62440
176.4117, 74.69972
176.8938, 73.88566
177.3760, 73.64262
177.8581, 73.98783
178.3402, 74.24216
178.8223, 74.41498
179.3044, 74.50242
179.7865, 74.44888
180.2687, 74.29500
180.7508, 74.16219
181.2329, 74.17916
181.7150, 74.37241
182.1971, 74.27394
182.6792, 73.71658
183.1614, 73.05628
183.6435, 72.30547
184.1256, 71.54060
184.6077, 71.17168
185.0898, 71.73836
185.5719, 73.30267
186.0541, 74.21575
186.5362, 74.01489
187.0183, 73.39401
187.5004, 72.95886
187.9825, 72.77596
188.4646, 72.66335
188.9468, 72.45152
189.4289, 72.16890
189.9110, 71.92949
190.3931, 71.77251
190.8752, 71.67000
191.3573, 71.53654
191.8395, 71.30319
192.3216, 71.22646
192.8037, 71.73921
193.2858, 72.57744
193.7679, 73.11520
194.2500, 72.75095
194.7322, 71.83574
195.2143, 71.61505
195.6964, 72.71852
196.1785, 73.55732
196.6606, 72.86086
197.1427, 71.26039
197.6249, 70.17529
198.1070, 70.90633
198.5891, 73.19441
199.0712, 74.36208
199.5533, 73.41069
200.0354, 72.35132
200.5176, 71.93634
200.9997, 72.02746
201.4818, 72.21690
201.9639, 72.16246
202.4460, 71.85178
202.9281, 71.77620
203.4103, 72.19872
203.8924, 72.63323
204.3745, 73.01814
204.8566, 73.30489
205.3387, 73.40419
205.8208, 73.19932
206.3030, 72.62822
206.7851, 72.33852
207.2672, 72.48608
207.7493, 72.73282
208.2314, 73.05206
208.7135, 73.37672
209.1957, 73.55647
209.6778, 73.41636
210.1599, 72.87334
210.6420, 72.69547
211.1241, 73.16833
211.6062, 73.68054
212.0884, 73.87386
212.5705, 73.77472
213.0526, 73.67155
213.5347, 73.82994
214.0168, 74.29008
214.4989, 74.67738
214.9811, 75.02980
215.4632, 75.29037
215.9453, 75.41856
216.4274, 75.41365
216.9095, 75.28481
217.3916, 74.95507
217.8738, 74.44341
218.3559, 74.30559
218.8380, 74.91640
219.3201, 75.66862
219.8022, 76.02924
220.2843, 75.95891
220.7665, 75.76881
221.2486, 75.72063
221.7307, 75.75969
222.2128, 75.65544
222.6949, 75.05165
223.1770, 74.45641
223.6592, 74.57586
224.1413, 75.52789
224.6234, 76.49250
225.1055, 76.85881
225.5876, 76.81502
226.0697, 76.64146
226.5519, 76.21836
227.0340, 75.80266
227.5161, 75.81850
227.9982, 76.35811
228.4803, 77.01335
228.9624, 77.66055
229.4446, 78.24855
229.9267, 78.69235
230.4088, 78.91789
230.8909, 79.01196
231.3730, 79.09978
231.8551, 79.11894
232.3373, 79.30062
232.8194, 79.82030
233.3015, 80.51620
233.7836, 81.23559
234.2657, 81.94945
234.7478, 82.59824
235.2300, 83.00652
235.7121, 83.00525
236.1942, 83.10896
236.6763, 83.63428
237.1584, 84.26231
237.6405, 84.56963
238.1227, 84.31679
238.6048, 83.86574
239.0869, 84.17861
239.5690, 85.71613
240.0511, 87.25890
240.5332, 88.67143
241.0154, 89.92931
241.4975, 90.94197
241.9796, 91.66717
242.4617, 92.24603
242.9438, 93.02755
243.4259, 94.16871
243.9081, 95.28448
244.3902, 96.17850
244.8723, 97.09605
245.3544, 98.34972
245.8365, 100.0556
246.3186, 101.9435
246.8008, 103.4047
247.2829, 104.0825
247.7650, 104.8049
248.2471, 105.5444
248.7292, 106.3727
249.2113, 107.4208
249.6935, 108.7175
250.1756, 110.0837
250.6577, 111.1545
251.1398, 111.4410
251.6219, 112.1450
252.1040, 113.4649
252.5862, 115.0671
253.0683, 116.7103
253.5504, 118.3043
254.0325, 119.8441
254.5146, 121.3227
254.9967, 122.7635
255.4789, 124.0576
255.9610, 125.0422
256.4431, 125.9692
256.9252, 127.0943
257.4073, 128.4710
257.8894, 129.9152
258.3716, 131.1764
258.8537, 132.1470
259.3358, 133.2066
259.8179, 134.7459
260.3000, 136.1482
260.7821, 136.7661
261.2643, 136.5164
261.7464, 135.9720
262.2285, 135.7524
262.7106, 135.9526
263.1927, 136.0462
263.6748, 136.1758
264.1570, 136.0990
264.6391, 135.6243
265.1212, 134.7315
265.6033, 133.4636
266.0854, 131.7733
266.5675, 129.6365
267.0497, 127.6729
267.5318, 126.1055
268.0139, 124.5788
268.4960, 122.6618
268.9781, 120.3718
269.4602, 118.3528
269.9424, 117.2710
270.4245, 116.9578
270.9066, 116.0577
271.3887, 114.0525
271.8708, 111.8167
272.3529, 109.9921
272.8351, 108.5633
273.3172, 107.2369
273.7993, 105.7494
274.2814, 104.2770
274.7635, 103.2826
275.2456, 103.1651
275.7278, 103.0984
276.2099, 102.3877
276.6920, 101.1214
277.1741, 100.0364
277.6562, 99.55883
278.1383, 99.44335
278.6205, 99.13174
279.1026, 98.54179
279.5847, 97.92650
280.0668, 97.48311
280.5489, 97.17562
281.0310, 96.78878
281.5132, 96.18645
281.9953, 95.53251
282.4774, 95.07918
282.9595, 94.86101
283.4416, 94.63440
283.9237, 94.14006
284.4059, 93.48232
284.8880, 93.15500
285.3701, 93.48929
285.8522, 93.89832
286.3343, 93.67879
286.8164, 92.86617
287.2986, 92.15215
287.7807, 91.97316
288.2628, 92.19077
288.7449, 92.37154
289.2270, 92.48120
289.7091, 92.49767
290.1913, 92.28749
290.6734, 91.93983
291.1555, 91.79745
291.6376, 92.25652
292.1197, 93.01266
292.6018, 93.31590
293.0840, 93.01285
293.5661, 92.52887
294.0482, 92.01753
294.5303, 91.54002
295.0124, 91.22519
295.4945, 91.17612
295.9767, 91.29485
296.4588, 91.44132
296.9409, 91.64900
297.4230, 91.76868
297.9051, 91.64988
298.3872, 91.42064
298.8694, 91.17875
299.3515, 90.85091
299.8336, 90.69664
300.3157, 91.19432
300.7978, 92.48183
301.2799, 93.60671
301.7621, 94.12895
302.2442, 94.35219
302.7263, 94.49715
303.2084, 94.59144
303.6905, 94.67422
304.1726, 94.64729
304.6548, 94.48664
305.1369, 94.84192
305.6190, 96.33101
306.1011, 98.04347
306.5832, 99.30005
307.0653, 100.0576
307.5475, 100.6076
308.0296, 101.0130
308.5117, 101.3135
308.9938, 102.0390
309.4759, 103.5021
309.9580, 105.1388
310.4402, 106.5109
310.9223, 107.6912
311.4044, 108.9840
311.8865, 110.4986
312.3686, 112.2563
312.8507, 114.4196
313.3329, 117.1562
313.8150, 120.0294
314.2971, 122.7887
314.7792, 125.5184
315.2613, 128.3667
315.7434, 131.2764
316.2256, 134.4439
316.7077, 138.2805
317.1898, 142.8540
317.6719, 148.0373
318.1540, 154.0903
318.6361, 160.5889
319.1183, 167.0929
319.6004, 173.4784
320.0825, 179.9053
320.5646, 186.7358
321.0467, 194.0877
321.5288, 201.0912
322.0110, 207.3824
322.4931, 213.2429
322.9752, 218.8086
323.4573, 224.0756
323.9394, 229.1007
324.4215, 233.6884
324.9037, 237.8313
325.3858, 242.6152
325.8679, 248.4718
326.3500, 254.8217
326.8321, 261.3665
327.3142, 268.0559
327.7964, 274.6234
328.2785, 280.7045
328.7606, 286.4550
329.2427, 292.7308
329.7248, 299.7773
330.2069, 306.9981
330.6891, 314.0746
331.1712, 321.0382
331.6533, 328.0010
332.1354, 335.1622
332.6175, 342.2798
333.0996, 348.9035
333.5818, 355.0946
334.0639, 360.6840
334.5460, 365.5028
335.0281, 369.6827
335.5102, 373.3268
335.9923, 376.6049
336.4745, 379.0710
336.9566, 380.6475
337.4387, 381.4205
337.9208, 379.7590
338.4029, 374.6531
338.8850, 366.9294
339.3672, 357.5262
339.8493, 346.4655
340.3314, 333.7671
340.8135, 319.1127
341.2956, 302.6001
341.7777, 285.4508
342.2599, 267.3206
342.7420, 249.4055
343.2241, 232.3232
343.7062, 216.0764
344.1883, 201.2587
344.6704, 188.1187
345.1526, 176.5920
345.6347, 166.7054
346.1168, 158.6895
346.5989, 151.6049
347.0810, 144.9328
347.5631, 138.7576
348.0453, 133.3243
348.5274, 128.7813
349.0095, 124.9327
349.4916, 121.6628
349.9737, 118.9911
350.4558, 116.5501
350.9380, 114.0564
351.4201, 111.8247
351.9022, 110.4010
352.3843, 110.1151
352.8664, 109.8053
353.3485, 108.5937
353.8307, 106.6908
354.3128, 104.9105
354.7949, 103.4386
355.2770, 102.2224
355.7591, 101.2216
356.2412, 100.4288
356.7234, 99.67564
357.2055, 98.79535
357.6876, 97.95061
358.1697, 97.38113
358.6518, 97.11501
359.1339, 97.14799
359.6161, 97.62407
360.0982, 98.45086
360.5803, 99.10302
361.0624, 99.36421
361.5445, 99.54283
362.0266, 99.86520
362.5088, 100.3293
362.9909, 100.8850
363.4730, 101.5492
363.9551, 102.2587
364.4372, 102.8124
364.9193, 102.9987
365.4015, 103.3824
365.8836, 104.4057
366.3657, 105.7666
366.8478, 106.8295
367.3299, 107.3513
367.8120, 107.6328
368.2942, 108.1694
368.7763, 109.0501
369.2584, 109.7715
369.7405, 109.9645
370.2226, 110.1394
370.7047, 110.8699
371.1869, 112.2064
371.6690, 113.7014
372.1511, 115.0440
372.6332, 116.2202
373.1153, 116.8619
373.5974, 116.3444
374.0796, 115.9652
374.5617, 116.4961
375.0438, 117.6801
375.5259, 118.7946
376.0080, 119.4233
376.4901, 119.7404
376.9723, 120.3607
377.4544, 121.5365
377.9365, 122.6804
378.4186, 123.7377
378.9007, 124.7326
379.3828, 125.7581
379.8650, 126.8197
380.3471, 127.7114
380.8292, 128.1480
381.3113, 128.0635
381.7934, 127.6405
382.2755, 126.3813
382.7577, 125.2573
383.2398, 125.1282
383.7219, 125.7146
384.2040, 125.9773
384.6861, 125.0505
385.1682, 123.0241
385.6504, 121.3409
386.1325, 120.4245
386.6146, 119.4032
387.0967, 117.9740
387.5788, 116.4188
388.0609, 115.0572
388.5431, 114.0321
389.0252, 113.3250
389.5073, 112.9667
389.9894, 113.3274
390.4715, 113.2414
390.9536, 112.1890
391.4358, 111.0881
391.9179, 110.6114
392.4000, 110.7502
392.8821, 110.9485
393.3642, 110.6076
393.8463, 109.7011
394.3285, 109.1319
394.8106, 109.2078
395.2927, 109.2767
395.7748, 109.1909
396.2569, 108.9360
396.7390, 108.4850
397.2212, 107.7927
397.7033, 106.9646
398.1854, 106.3275
398.6675, 106.0883
399.1496, 105.3990
399.6317, 103.3584
400.1139, 101.1755
400.5960, 99.85638
401.0781, 99.56191
401.5602, 99.52293
402.0423, 99.02055
402.5244, 98.10753
403.0066, 97.36354
403.4887, 96.90820
403.9708, 96.56570
404.4529, 96.21850
404.9350, 95.87463
405.4171, 95.55623
405.8993, 95.30809
406.3814, 95.07437
406.8635, 94.75028
407.3456, 94.32442
407.8277, 93.90639
408.3098, 93.54200
408.7920, 93.21994
409.2741, 92.90482
409.7562, 92.56254
410.2383, 92.30986
410.7204, 92.32730
411.2025, 92.49690
411.6847, 92.43701
412.1668, 91.99779
412.6489, 91.46083
413.1310, 91.20677
413.6131, 91.22492
414.0952, 91.14605
414.5774, 90.69714
415.0595, 90.26559
415.5416, 90.26582
416.0237, 90.67899
416.5058, 91.19010
416.9879, 91.68040
417.4701, 92.06931
417.9522, 91.92588
418.4343, 90.56209
418.9164, 89.57951
419.3985, 89.72499
419.8806, 90.42319
420.3628, 90.78224
420.8449, 90.52000
421.3270, 90.07721
421.8091, 90.13834
422.2912, 91.01003
422.7733, 91.50121
423.2555, 91.46123
423.7376, 91.20644
424.2197, 90.78865
424.7018, 90.30345
425.1839, 89.96072
425.6660, 89.93377
426.1482, 90.15868
426.6303, 90.19004
427.1124, 89.75414
427.5945, 89.45732
428.0766, 89.45283
428.5587, 89.57964
429.0409, 89.70497
429.5230, 89.77899
430.0051, 89.77744
430.4872, 89.61802
430.9693, 89.21732
431.4514, 89.01226
431.9336, 89.27106
432.4157, 89.50340
432.8978, 89.46773
433.3799, 89.24169
433.8620, 89.04479
434.3441, 89.00134
434.8263, 89.09050
435.3084, 89.33613
435.7905, 89.91815
436.2726, 90.14999
436.7547, 89.32671
437.2368, 88.28322
437.7190, 87.77914
438.2011, 87.97340
438.6832, 88.41643
439.1653, 88.78976
439.6474, 89.09946
440.1295, 89.42004
440.6117, 89.85832
441.0938, 90.11621
441.5759, 89.75229
442.0580, 88.97157
442.5401, 88.40228
443.0222, 88.41727
443.5044, 88.58570
443.9865, 88.38963
444.4686, 87.88393
444.9507, 87.60402
445.4328, 87.89194
445.9149, 88.46661
446.3971, 88.65372
446.8792, 88.31393
447.3613, 88.06561
447.8434, 88.25365
448.3255, 88.54200
448.8076, 88.40507
449.2898, 87.78505
449.7719, 87.23353
450.2540, 87.31539
450.7361, 88.07473
451.2182, 88.54321
451.7003, 88.65910
452.1825, 88.60340
452.6646, 88.22726
453.1467, 87.76999
453.6288, 87.68960
454.1109, 88.18800
454.5930, 88.92013
455.0752, 89.17039
455.5573, 88.53346
456.0394, 88.20319
456.5215, 88.31876
457.0036, 88.56767
457.4857, 88.85303
457.9679, 89.11324
458.4500, 89.21895
458.9321, 88.97694
459.4142, 88.53130
459.8963, 88.84727
460.3784, 90.73247
460.8606, 91.91524
461.3427, 91.50834
461.8248, 90.37196
462.3069, 89.12038
462.7890, 87.91138
463.2711, 87.17328
463.7532, 87.69388
464.2354, 89.35064
464.7175, 90.29665
465.1996, 89.98906
465.6817, 89.47127
466.1638, 89.61909
466.6459, 90.15063
467.1281, 90.32697
467.6102, 89.57256
468.0923, 88.65807
468.5744, 88.47321
469.0565, 88.95547
469.5386, 89.53078
470.0208, 90.07973
470.5029, 90.47074
470.9850, 90.32569
471.4671, 89.48754
471.9492, 89.05898
472.4313, 89.79741
472.9135, 90.80154
473.3956, 90.92195
473.8777, 90.15367
474.3598, 89.56312
474.8419, 90.06252
475.3240, 91.48053
475.8062, 92.09200
476.2883, 91.37752
476.7704, 90.62016
477.2525, 89.91954
477.7346, 89.38161
478.2167, 89.20477
478.6989, 89.40860
479.1810, 89.70139
479.6631, 89.66481
480.1452, 89.15971
480.6273, 89.04545
481.1094, 89.68230
481.5916, 90.34445
482.0737, 90.92988
482.5558, 91.35188
483.0379, 91.46476
483.5200, 91.17059
484.0021, 90.68037
484.4843, 90.35863
484.9664, 90.19332
485.4485, 90.25425
485.9306, 90.77772
486.4127, 91.34911
486.8948, 91.72649
487.3770, 91.90792
487.8591, 91.96222
488.3412, 91.89760
488.8233, 91.74200
489.3054, 91.53161
489.7875, 91.26221
490.2697, 90.99750
490.7518, 90.76704
491.2339, 90.56656
491.7160, 90.34098
492.1981, 90.00450
492.6802, 89.89629
493.1624, 90.41850
493.6445, 91.16348
494.1266, 91.44163
494.6087, 91.14854
495.0908, 90.82325
495.5729, 90.99466
496.0551, 91.65056
496.5372, 91.87302
497.0193, 91.26637
497.5014, 90.75618
497.9835, 90.64333
498.4656, 90.79076
498.9478, 91.02872
499.4299, 91.29137
499.9120, 91.54446
500.3941, 91.73918
500.8762, 91.87538
501.3583, 91.95644
501.8405, 91.98238
502.3226, 91.95219
502.8047, 91.82156
503.2868, 91.64018
503.7689, 91.48078
504.2510, 91.36845
504.7332, 91.33568
505.2153, 91.50377
505.6974, 91.93619
506.1795, 92.17439
506.6616, 92.00909
507.1437, 91.72268
507.6259, 91.43751
508.1080, 91.18996
508.5901, 91.14593
509.0722, 91.64054
509.5543, 92.25862
510.0364, 92.31071
510.5186, 91.80266
511.0007, 91.32851
511.4828, 91.17637
511.9649, 91.21684
512.4470, 91.17828
512.9291, 91.04252
513.4113, 90.90646
513.8934, 90.70541
514.3755, 90.57013
514.8576, 90.80233
515.3397, 91.33253
515.8218, 91.53773
516.3040, 90.85076
516.7861, 89.48396
517.2682, 88.98528
517.7503, 90.36256
518.2324, 91.36510
518.7145, 91.58513
519.1967, 91.47057
519.6788, 91.38747
520.1609, 91.43297
520.6430, 91.58088
521.1251, 91.85154
521.6072, 92.23685
522.0894, 92.38822
522.5715, 92.12733
523.0536, 91.91417
523.5357, 91.92120
524.0178, 92.04750
524.4999, 92.20182
524.9821, 92.36838
525.4642, 92.48560
525.9463, 92.35284
526.4284, 92.08714
526.9105, 92.32322
527.3926, 93.32552
527.8748, 94.29808
528.3569, 94.59937
528.8390, 94.35609
529.3211, 94.00981
529.8032, 93.43169
530.2853, 92.95393
530.7675, 92.73075
531.2496, 92.74191
531.7317, 93.08865
532.2138, 93.80946
532.6959, 94.38827
533.1780, 94.09858
533.6602, 92.69160
534.1423, 91.97768
534.6244, 92.33714
535.1065, 92.85060
535.5886, 93.30885
536.0707, 93.65490
536.5529, 93.81401
537.0350, 93.76067
537.5171, 93.61735
537.9992, 93.57970
538.4813, 93.66947
538.9634, 93.75512
539.4456, 93.85555
539.9277, 93.92318
540.4098, 93.96355
540.8919, 93.95333
541.3740, 93.81613
541.8561, 93.44118
542.3383, 93.10079
542.8204, 93.17174
543.3025, 93.61650
543.7846, 94.11472
544.2667, 94.67371
544.7488, 95.09377
545.2310, 95.04993
545.7131, 94.59982
546.1952, 94.24870
546.6773, 94.08911
547.1594, 94.03540
547.6415, 94.12422
548.1237, 94.27214
548.6058, 94.20430
549.0879, 93.79459
549.5700, 93.39207
550.0521, 93.61714
550.5342, 94.78584
551.0164, 95.61745
551.4985, 96.26180
551.9806, 96.47350
552.4627, 95.73655
552.9448, 94.56111
553.4269, 93.92323
553.9091, 94.31366
554.3912, 95.14917
554.8733, 95.33811
555.3554, 94.73966
555.8375, 94.50204
556.3196, 95.22541
556.8018, 95.80421
557.2839, 95.31252
557.7660, 94.12163
558.2481, 93.28809
558.7302, 93.29912
559.2123, 93.69033
559.6945, 94.12972
560.1766, 94.57710
560.6587, 94.79842
561.1408, 94.66760
561.6229, 94.47980
562.1050, 94.64552
562.5872, 95.24770
563.0693, 95.59322
563.5514, 95.51019
564.0335, 95.33350
564.5156, 95.25367
564.9977, 95.19724
565.4799, 94.95210
565.9620, 94.44220
566.4441, 93.91795
566.9262, 93.79349
567.4083, 94.15903
567.8904, 94.55970
568.3726, 95.24788
568.8547, 95.69724
569.3368, 95.44572
569.8189, 94.90518
570.3010, 94.81815
570.7831, 95.53117
571.2653, 96.37865
571.7474, 96.50685
572.2295, 96.01063
572.7116, 95.64465
573.1937, 95.50570
573.6758, 95.58002
574.1580, 96.05930
574.6401, 96.77770
575.1222, 97.07242
575.6043, 96.27551
576.0864, 95.73150
576.5685, 96.45150
577.0507, 97.76283
577.5328, 98.44479
578.0149, 98.22326
578.4970, 97.88194
578.9791, 98.30547
579.4612, 99.53994
579.9434, 100.3819
580.4255, 100.6511
580.9076, 100.7220
581.3897, 100.5228
581.8718, 100.2321
582.3539, 99.98230
582.8361, 99.82417
583.3182, 99.84181
583.8003, 100.1782
584.2824, 100.7916
584.7645, 101.3671
585.2466, 101.8933
585.7288, 102.4176
586.2109, 102.9953
586.6930, 103.5694
587.1751, 104.0787
587.6572, 104.5503
588.1393, 104.8177
588.6215, 104.4403
589.1036, 103.9990
589.5857, 104.4899
590.0678, 105.8792
590.5499, 107.0572
591.0320, 107.2779
591.5142, 106.7920
591.9963, 106.5213
592.4784, 106.6233
592.9605, 106.7346
593.4426, 106.6891
593.9247, 106.7838
594.4069, 107.4771
594.8890, 108.5307
595.3711, 109.1548
595.8532, 108.7425
596.3353, 107.7755
596.8174, 107.3595
597.2996, 107.5462
597.7817, 108.0527
598.2638, 109.1897
598.7459, 110.2191
599.2280, 110.2942
599.7101, 109.6318
600.1923, 109.4243
600.6744, 110.4610
601.1565, 111.7394
601.6386, 112.4633
602.1207, 112.7410
602.6028, 112.9228
603.0850, 113.1271
603.5671, 113.2128
604.0492, 112.9457
604.5313, 112.2110
605.0134, 111.8468
605.4955, 111.9397
605.9777, 112.2479
606.4598, 112.9683
606.9419, 113.7434
607.4240, 114.0378
607.9061, 113.7335
608.3882, 113.3236
608.8704, 113.4270
609.3525, 113.9930
609.8346, 114.3342
610.3167, 114.4092
610.7988, 114.3446
611.2809, 114.1337
611.7631, 113.8474
612.2452, 113.5485
612.7273, 113.2097
613.2094, 113.0139
613.6915, 113.1344
614.1736, 113.3937
614.6558, 113.6808
615.1379, 113.9309
615.6200, 113.8153
616.1021, 113.0680
616.5842, 111.9938
617.0663, 111.4790
617.5485, 111.9165
618.0306, 112.2616
618.5127, 112.5435
618.9948, 112.7148
619.4769, 112.7336
619.9590, 112.6193
620.4412, 112.3948
620.9233, 112.0459
621.4054, 111.6884
621.8875, 111.4929
622.3696, 111.4588
622.8517, 111.5802
623.3339, 111.9769
623.8160, 112.2954
624.2981, 112.1246
624.7802, 111.6247
625.2623, 111.3259
625.7444, 111.5088
626.2266, 111.6180
626.7087, 111.4240
627.1908, 110.9909
627.6729, 110.2173
628.1550, 109.1767
628.6371, 108.4748
629.1193, 108.7008
629.6014, 109.7225
630.0835, 110.4577
630.5656, 110.8910
631.0477, 111.0451
631.5298, 110.7047
632.0120, 110.2919
632.4941, 110.2088
632.9762, 110.3934
633.4583, 110.3747
633.9404, 109.6683
634.4225, 108.7709
634.9047, 108.5726
635.3868, 109.0150
635.8689, 109.3335
636.3510, 109.2642
636.8331, 109.0468
637.3152, 108.9356
637.7974, 108.9367
638.2795, 109.0687
638.7616, 109.4466
639.2437, 109.8284
639.7258, 110.1980
640.2079, 110.4772
640.6901, 110.5174
641.1722, 110.3050
641.6543, 110.0206
642.1364, 109.7891
642.6185, 109.6355
643.1006, 109.9752
643.5828, 111.0853
644.0649, 112.0729
644.5470, 112.6874
645.0291, 112.9906
645.5112, 112.8594
645.9933, 112.2996
646.4755, 112.0110
646.9576, 112.5825
647.4397, 113.3833
647.9218, 113.6282
648.4039, 113.4574
648.8860, 113.5451
649.3682, 114.1696
649.8503, 115.1345
650.3324, 116.1932
650.8145, 117.4357
651.2966, 118.3505
651.7787, 118.7515
652.2609, 119.0525
652.7430, 119.1334
653.2251, 119.2939
653.7072, 119.9818
654.1893, 121.2863
654.6714, 122.6817
655.1536, 123.5657
655.6357, 124.1443
656.1178, 125.2049
656.5999, 126.8307
657.0820, 128.3755
657.5641, 129.4750
658.0463, 130.3809
658.5284, 131.5962
659.0105, 133.1552
659.4926, 134.7448
659.9747, 136.2146
660.4568, 137.7957
660.9390, 139.7871
661.4211, 141.9764
661.9032, 143.9132
662.3853, 145.4322
662.8674, 146.7204
663.3495, 147.9880
663.8317, 149.2213
664.3138, 150.6883
664.7959, 152.4229
665.2780, 154.3252
665.7601, 156.4231
666.2422, 158.6416
666.7244, 161.0316
667.2065, 163.6707
667.6886, 165.7980
668.1707, 166.4766
668.6528, 166.8450
669.1349, 168.4450
669.6171, 171.0288
670.0992, 173.1390
670.5813, 174.0523
671.0634, 174.5056
671.5455, 175.8608
672.0276, 178.5212
672.5098, 180.5197
672.9919, 181.5891
673.4740, 182.2571
673.9561, 182.5077
674.4382, 182.5035
674.9203, 182.3119
675.4025, 181.9540
675.8846, 181.8865
676.3667, 182.9314
676.8488, 184.4039
677.3309, 184.7912
677.8130, 184.0281
678.2952, 182.7223
678.7773, 181.0473
679.2594, 179.1758
679.7415, 177.3922
680.2236, 175.7093
680.7057, 174.0919
681.1879, 172.8255
681.6700, 171.3096
682.1521, 168.9319
682.6342, 166.2447
683.1163, 164.2204
683.5984, 163.0914
684.0806, 162.0241
684.5627, 159.9978
685.0448, 157.2112
685.5269, 154.7687
686.0090, 152.7493
686.4911, 150.6540
686.9733, 148.1811
687.4554, 145.6065
687.9375, 143.3908
688.4196, 141.5587
688.9017, 139.7761
689.3839, 138.1459
689.8660, 136.4090
690.3481, 134.2780
690.8302, 131.9744
691.3123, 129.8065
691.7944, 127.8967
692.2766, 126.3208
692.7587, 125.3085
693.2408, 124.7803
693.7229, 123.5786
694.2050, 121.4279
694.6871, 119.3058
695.1693, 117.3466
695.6514, 115.7342
696.1335, 114.7879
696.6156, 114.4963
697.0977, 114.0130
697.5798, 112.9289
698.0620, 111.7106
698.5441, 110.5137
699.0262, 109.4780
699.5083, 109.0267
699.9904, 109.2257
700.4725, 109.3780
700.9547, 108.6271
701.4368, 107.0759
701.9189, 106.3395
702.4010, 106.8818
702.8831, 107.3217
703.3652, 107.0880
703.8474, 106.7995
704.3295, 107.0796
704.8116, 107.8137
705.2937, 108.1583
705.7758, 107.4206
706.2579, 106.5172
706.7401, 106.1806
707.2222, 106.2541
707.7043, 106.3967
708.1864, 106.5266
708.6685, 106.7351
709.1506, 107.1248
709.6328, 107.6590
710.1149, 108.0561
710.5970, 108.2728
711.0791, 108.4256
711.5612, 108.6818
712.0433, 108.7503
712.5255, 108.1852
713.0076, 107.2556
713.4897, 106.7969
713.9718, 107.2638
714.4539, 108.0533
714.9360, 108.8649
715.4182, 109.5514
715.9003, 109.6118
716.3824, 109.0107
716.8645, 108.5309
717.3466, 108.7852
717.8287, 109.5388
718.3109, 109.9273
718.7930, 109.7984
719.2751, 109.5807
719.7572, 109.0660
720.2393, 108.6912
720.7214, 108.7193
721.2036, 109.0368
721.6857, 109.4181
722.1678, 109.7922
722.6499, 110.2024
723.1320, 110.8904
723.6141, 111.5778
724.0963, 111.5644
724.5784, 110.8505
725.0605, 110.1453
725.5426, 109.8127
726.0247, 109.7724
726.5068, 109.9016
726.9890, 110.3868
727.4711, 110.4683
727.9532, 109.8135
728.4353, 109.1444
728.9174, 108.5608
729.3995, 108.1655
729.8817, 108.1274
730.3638, 108.4723
730.8459, 108.9247
731.3280, 109.5355
731.8101, 110.0093
732.2922, 109.6524
732.7744, 108.6104
733.2565, 107.8574
733.7386, 107.7564
734.2207, 108.0278
734.7028, 108.3863
735.1849, 108.8646
735.6671, 108.9317
736.1492, 108.0157
736.6313, 107.4225
737.1134, 107.6329
737.5955, 108.0461
738.0776, 108.2111
738.5598, 108.0733
739.0419, 107.6949
739.5240, 106.8982
740.0061, 106.1323
740.4882, 106.0496
740.9703, 106.4248
741.4525, 106.4772
741.9346, 106.0471
742.4167, 105.7870
742.8988, 106.3187
743.3809, 107.4069
743.8630, 107.8583
744.3452, 107.2568
744.8273, 106.7672
745.3094, 106.3207
745.7915, 106.1234
746.2736, 106.6080
746.7557, 107.3621
747.2379, 107.4814
747.7200, 106.5351
748.2021, 105.5573
748.6842, 105.3353
749.1663, 105.6033
749.6484, 106.1390
750.1306, 106.8061
750.6127, 106.8955
751.0948, 105.9876
751.5769, 104.6588
752.0590, 103.9258
752.5411, 103.8636
753.0233, 104.0604
753.5054, 104.7775
753.9875, 105.4058
754.4696, 105.8037
754.9517, 106.0018
755.4338, 105.9549
755.9160, 105.6767
756.3981, 105.4774
756.8802, 105.6311
757.3623, 105.8186
757.8444, 105.5599
758.3265, 105.1134
758.8087, 105.2268
759.2908, 106.0490
759.7729, 106.8724
760.2550, 106.9838
760.7371, 106.5096
761.2192, 106.2076
761.7014, 106.0519
762.1835, 106.1544
762.6656, 106.9064
763.1477, 107.5335
763.6298, 107.3147
764.1119, 106.5761
764.5941, 106.2652
765.0762, 106.8279
765.5583, 107.3211
766.0404, 107.0733
766.5225, 106.6601
767.0046, 106.8548
767.4868, 107.5292
767.9689, 107.9355
768.4510, 107.6858
768.9331, 107.1888
769.4152, 107.1729
769.8973, 107.6635
770.3795, 107.8805
770.8616, 107.6590
771.3437, 107.5897
771.8258, 108.1545
772.3079, 108.8454
772.7900, 108.7717
773.2722, 107.8403
773.7543, 107.3958
774.2364, 107.9301
774.7185, 108.6876
775.2006, 109.6213
775.6827, 110.3820
776.1649, 110.3579
776.6470, 109.5868
777.1291, 108.8714
777.6112, 108.8891
778.0933, 109.3012
778.5754, 109.3103
779.0576, 108.9340
779.5397, 108.6436
780.0218, 108.5047
780.5039, 108.5719
780.9860, 108.9943
781.4681, 109.6361
781.9503, 109.9029
782.4324, 109.5664
782.9145, 109.2396
783.3966, 108.8773
783.8787, 108.6015
784.3608, 108.5261
784.8430, 108.5723
785.3251, 108.5877
785.8072, 108.5240
786.2893, 108.4988
786.7714, 108.7246
787.2535, 109.0083
787.7357, 108.9000
788.2178, 108.4573
788.6999, 108.1992
789.1820, 108.3334
789.6641, 108.5286
790.1462, 108.3359
790.6284, 107.7588
791.1105, 107.5955
791.5926, 108.1709
792.0747, 108.6139
792.5568, 108.7359
793.0389, 108.7160
793.5211, 108.6198
794.0032, 108.4822
794.4853, 108.3793
794.9674, 108.2883
795.4495, 108.3251
795.9316, 108.8100
796.4138, 109.3190
796.8959, 109.1697
797.3780, 108.4631
797.8601, 107.8454
798.3422, 107.6488
798.8243, 107.7229
799.3065, 107.8597
799.7886, 108.0627
800.2707, 108.2274
800.7528, 108.3551
801.2349, 108.4324
801.7170, 108.4239
802.1992, 108.3888
802.6813, 108.4316
803.1634, 108.5547
803.6455, 108.5889
804.1276, 108.4627
804.6097, 108.3157
805.0919, 108.1069
805.5740, 107.9665
806.0561, 108.0501
806.5382, 108.3411
807.0203, 108.7329
807.5024, 109.2191
807.9846, 109.6063
808.4667, 109.5309
808.9488, 109.1171
809.4309, 108.7993
809.9130, 108.6267
810.3951, 108.7639
810.8773, 109.4040
811.3594, 110.1713
811.8415, 110.2534
812.3236, 109.3628
812.8057, 108.8708
813.2878, 109.3116
813.7700, 109.4800
814.2521, 108.6670
814.7342, 107.6862
815.2163, 107.3669
815.6984, 107.7513
816.1805, 108.3410
816.6627, 109.1375
817.1448, 109.8588
817.6269, 110.3340
818.1090, 110.5791
818.5911, 110.5208
819.0732, 110.2227
819.5554, 110.0320
820.0375, 110.2054
820.5196, 110.4564
821.0017, 110.0593
821.4838, 108.9838
821.9659, 108.3981
822.4481, 108.4648
822.9302, 108.7849
823.4123, 109.3715
823.8944, 109.9062
824.3765, 109.6554
824.8586, 108.3015
825.3408, 107.8515
825.8229, 109.2571
826.3050, 110.5021
826.7871, 110.8501
827.2692, 110.7324
827.7513, 110.5273
828.2335, 110.3283
828.7156, 110.1681
829.1977, 110.0539
829.6798, 110.0046
830.1619, 110.1397
830.6440, 110.3354
831.1262, 110.1571
831.6083, 109.6259
832.0904, 109.4316
832.5725, 110.0043
833.0546, 110.9596
833.5367, 111.5940
834.0188, 111.9198
834.5009, 111.7828
834.9830, 110.8104
835.4651, 110.1315
835.9473, 110.3515
836.4294, 110.9127
836.9115, 111.2448
837.3936, 111.3493
837.8757, 111.3240
838.3578, 110.8198
838.8400, 110.6458
839.3221, 111.5109
839.8042, 112.5550
840.2863, 112.9080
840.7684, 112.6230
841.2505, 112.1631
841.7327, 111.7159
842.2148, 111.4334
842.6969, 111.6655
843.1790, 112.1790
843.6611, 112.2373
844.1432, 111.8344
844.6254, 111.5278
845.1075, 111.5558
845.5896, 111.7379
846.0717, 111.8103
846.5538, 111.7701
847.0359, 112.0651
847.5181, 113.0038
848.0002, 113.6669
848.4823, 113.7765
848.9644, 113.6413
849.4465, 113.3491
849.9286, 112.9873
850.4108, 112.7991
850.8929, 112.8349
851.3750, 113.0202
851.8571, 113.5005
852.3392, 113.9701
852.8214, 114.1693
853.3035, 114.1621
853.7856, 114.0719
854.2677, 113.9539
854.7498, 113.9091
855.2319, 114.1318
855.7141, 114.4461
856.1962, 114.3693
856.6783, 113.9707
857.1604, 113.7895
857.6425, 113.9761
858.1246, 114.0939
858.6068, 113.7090
859.0889, 113.0571
859.5710, 113.1075
860.0531, 114.3643
860.5352, 114.9609
861.0173, 114.1676
861.4995, 113.5849
861.9816, 114.1752
862.4637, 115.2505
862.9458, 115.9850
863.4279, 116.3171
863.9100, 116.3072
864.3922, 115.6508
864.8743, 115.0186
865.3564, 114.7795
865.8385, 114.7539
866.3206, 114.7605
866.8027, 114.7526
867.2849, 114.7135
867.7670, 114.6260
868.2491, 114.5346
868.7312, 114.5082
869.2133, 114.5235
869.6954, 114.4749
870.1776, 114.3706
870.6597, 114.4340
871.1418, 114.7852
871.6239, 115.1885
872.1060, 115.2896
872.5881, 115.0921
873.0703, 115.0976
873.5524, 115.3580
874.0345, 115.6983
874.5166, 116.1823
874.9987, 116.6219
875.4808, 116.8760
875.9630, 116.9676
876.4451, 116.9211
876.9272, 116.5339
877.4093, 116.4486
877.8914, 117.3093
878.3735, 117.9777
878.8557, 117.5452
879.3378, 116.5466
879.8199, 115.7665
880.3020, 115.4091
880.7841, 115.4156
881.2662, 115.9402
881.7484, 116.6215
882.2305, 117.1536
882.7126, 117.4625
883.1947, 117.1642
883.6768, 116.3226
884.1589, 115.8343
884.6411, 116.3176
885.1232, 117.2303
885.6053, 117.3980
886.0874, 116.7905
886.5695, 116.7302
887.0516, 117.4259
887.5338, 117.8816
888.0159, 117.5764
888.4980, 117.0978
888.9801, 117.1676
889.4622, 117.7851
889.9443, 118.2923
890.4265, 118.6265
890.9086, 118.9425
891.3907, 119.3242
891.8728, 119.6241
892.3549, 119.7389
892.8370, 119.7093
893.3192, 119.5932
893.8013, 119.3852
894.2834, 119.2456
894.7655, 119.2956
895.2476, 119.4053
895.7297, 119.5217
896.2119, 119.5982
896.6940, 119.5178
897.1761, 119.2979
897.6582, 119.1535
898.1403, 119.2617
898.6224, 119.4392
899.1046, 119.3021
899.5867, 118.9601
900.0688, 118.9338
900.5509, 119.2655
901.0330, 119.6558
901.5151, 119.9855
901.9973, 120.1788
902.4794, 120.0545
902.9615, 119.6117
903.4436, 119.7357
903.9257, 120.7973
904.4078, 121.4342
904.8900, 121.0825
905.3721, 120.5971
905.8542, 120.6982
906.3363, 121.1780
906.8184, 121.3999
907.3005, 121.3040
907.7827, 121.0728
908.2648, 120.2897
908.7469, 119.8683
909.2290, 120.7647
909.7111, 121.9767
910.1932, 122.1292
910.6754, 121.1781
911.1575, 120.2928
911.6396, 119.8805
912.1217, 119.9798
912.6038, 121.0546
913.0859, 122.4061
913.5681, 122.9780
914.0502, 122.8493
914.5323, 122.7201
915.0144, 122.8969
915.4965, 123.1330
915.9786, 123.0731
916.4608, 122.8418
916.9429, 122.9982
917.4250, 123.4933
917.9071, 123.5241
918.3892, 122.8424
918.8713, 122.3083
919.3535, 122.6575
919.8356, 123.5738
920.3177, 124.0624
920.7998, 123.9683
921.2819, 124.0587
921.7640, 124.4881
922.2462, 124.8174
922.7283, 124.8297
923.2104, 124.6927
923.6925, 124.5379
924.1746, 124.3738
924.6567, 124.4480
925.1389, 124.9604
925.6210, 125.4410
926.1031, 125.8208
926.5852, 126.1257
927.0673, 126.3952
927.5494, 126.5935
928.0316, 126.5681
928.5137, 126.2689
928.9958, 126.2229
929.4779, 126.9375
929.9600, 127.7844
930.4421, 128.3510
930.9243, 128.6660
931.4064, 128.7023
931.8885, 128.5448
932.3706, 128.5219
932.8527, 128.8528
933.3348, 129.1405
933.8170, 128.6395
934.2991, 127.7418
934.7812, 127.6435
935.2633, 128.2747
935.7454, 128.7323
936.2275, 128.7190
936.7097, 128.6717
937.1918, 129.0509
937.6739, 129.6930
938.1560, 129.9454
938.6381, 129.7602
939.1202, 129.4982
939.6024, 129.0625
940.0845, 129.0283
940.5666, 129.8713
941.0487, 131.0343
941.5308, 131.6232
942.0129, 131.5837
942.4951, 131.5867
942.9772, 131.6518
943.4593, 131.7294
943.9414, 132.0701
944.4235, 132.1707
944.9056, 131.2906
945.3878, 130.0367
945.8699, 129.8188
946.3520, 131.0596
946.8341, 132.1996
947.3162, 132.9347
947.7983, 133.3674
948.2805, 133.2097
948.7626, 133.0017
949.2447, 133.5638
949.7268, 134.7106
950.2089, 135.3924
950.6910, 135.0633
951.1732, 134.4407
951.6553, 133.8625
952.1374, 133.4725
952.6195, 133.6091
953.1016, 134.0602
953.5837, 134.3244
954.0659, 134.2543
954.5480, 133.9511
955.0301, 133.3852
955.5122, 132.8538
955.9943, 133.0320
956.4764, 133.7286
956.9586, 134.1898
957.4407, 134.3439
957.9228, 134.4073
958.4049, 134.4812
958.8870, 134.5030
959.3691, 134.3651
959.8513, 134.1004
960.3334, 133.9281
960.8155, 133.8134
961.2976, 134.1308
961.7797, 135.1057
962.2618, 135.9929
962.7440, 136.3180
963.2261, 136.2135
963.7082, 135.9110
964.1903, 135.3137
964.6724, 135.0467
965.1545, 135.4112
965.6367, 135.6057
966.1188, 135.3631
966.6009, 134.9673
967.0830, 134.4447
967.5651, 133.9503
968.0472, 134.0304
968.5294, 135.0997
969.0115, 135.7189
969.4936, 135.1996
969.9757, 134.7766
970.4578, 135.2456
970.9399, 135.9193
971.4221, 135.9422
971.9042, 135.3916
972.3863, 135.0558
972.8684, 135.3285
973.3505, 135.5724
973.8326, 135.4161
974.3148, 135.1294
974.7969, 134.8040
975.2790, 134.5863
975.7611, 134.7572
976.2432, 135.3233
976.7253, 135.9306
977.2075, 136.4304
977.6896, 136.7256
978.1717, 136.5490
978.6538, 136.1766
979.1359, 136.0995
979.6180, 136.2888
980.1002, 136.4317
980.5823, 136.4193
981.0644, 136.4594
981.5465, 136.8211
982.0286, 137.3173
982.5107, 137.4397
982.9929, 137.2838
983.4750, 137.4169
983.9571, 137.8812
984.4392, 137.9508
984.9213, 137.1982
985.4034, 136.3555
985.8856, 136.5412
986.3677, 137.6282
986.8498, 138.5880
987.3319, 139.4449
987.8140, 139.8129
988.2961, 139.5231
988.7783, 139.1636
989.2604, 139.0904
989.7425, 139.2475
990.2246, 139.5450
990.7067, 140.0166
991.1888, 140.3640
991.6710, 140.5894
992.1531, 140.6768
992.6352, 140.5067
993.1173, 140.3742
993.5994, 140.5786
994.0815, 140.9749
994.5637, 141.0727
995.0458, 140.5753
995.5279, 140.6168
996.0100, 141.5416
996.4921, 142.5505
996.9742, 143.7408
997.4564, 144.6856
997.9385, 144.7708
998.4206, 144.2964
998.9027, 144.3564
999.3848, 145.3363
999.8669, 146.1912
1000.349, 146.8185
1000.831, 147.1629
1001.313, 146.9055
1001.795, 146.5567
1002.278, 146.5879
1002.760, 147.0544
1003.242, 147.9797
1003.724, 149.7413
1004.206, 151.0065
1004.688, 150.7542
1005.170, 150.1843
1005.652, 150.0821
1006.134, 150.3554
1006.617, 150.9050
1007.099, 151.6114
1007.581, 152.0974
1008.063, 152.1158
1008.545, 152.0141
1009.027, 151.8741
1009.509, 151.9195
1009.991, 152.6378
1010.474, 153.6960
1010.956, 154.3210
1011.438, 154.3719
1011.920, 154.3010
1012.402, 154.3542
1012.884, 154.5795
1013.366, 155.2441
1013.848, 156.0244
1014.330, 156.1951
1014.813, 155.8972
1015.295, 155.8102
1015.777, 156.1292
1016.259, 156.4580
1016.741, 156.3995
1017.223, 156.2702
1017.705, 156.8963
1018.187, 157.9370
1018.669, 157.9764
1019.152, 157.0736
1019.634, 156.6371
1020.116, 157.1807
1020.598, 157.8913
1021.080, 157.9416
1021.562, 157.5284
1022.044, 157.2181
1022.526, 156.9842
1023.009, 156.3957
1023.491, 155.4082
1023.973, 155.0254
1024.455, 155.7223
1024.937, 156.6599
1025.419, 156.8750
1025.901, 156.5098
1026.383, 156.3137
1026.865, 156.3398
1027.348, 155.4745
1027.830, 153.3384
1028.312, 152.0703
1028.794, 152.8449
1029.276, 154.2116
1029.758, 154.3365
1030.240, 153.3942
1030.722, 152.7715
1031.205, 152.5813
1031.687, 152.1636
1032.169, 151.2918
1032.651, 150.7168
1033.133, 150.9676
1033.615, 151.3587
1034.097, 150.8822
1034.579, 149.6366
1035.062, 149.2445
1035.544, 150.2656
1036.026, 150.6463
1036.508, 149.8632
1036.990, 149.0862
1037.472, 148.8291
1037.954, 148.8955
1038.436, 149.1081
1038.918, 149.4537
1039.401, 149.5388
1039.883, 149.1898
1040.365, 148.9005
1040.847, 148.6563
1041.329, 148.5361
1041.811, 148.6737
1042.293, 148.8868
1042.775, 148.9406
1043.257, 148.8389
1043.740, 148.7219
1044.222, 148.5085
1044.704, 148.4066
1045.186, 148.6990
1045.668, 148.7894
1046.150, 148.1137
1046.632, 147.2890
1047.114, 147.0651
1047.597, 147.4339
1048.079, 147.9410
1048.561, 148.7960
1049.043, 149.4052
1049.525, 149.7432
1050.007, 149.7677
1050.489, 149.2172
1050.971, 148.5013
1051.453, 148.0903
1051.936, 147.9895
1052.418, 147.9686
1052.900, 148.1172
1053.382, 148.1243
1053.864, 147.6102
1054.346, 147.3053
1054.828, 147.7238
1055.310, 148.4715
1055.792, 149.1737
1056.275, 149.7597
1056.757, 150.0915
1057.239, 150.0379
1057.721, 149.9402
1058.203, 149.8564
1058.685, 149.7914
1059.167, 149.5403
1059.649, 149.4528
1060.132, 150.2052
1060.614, 151.5549
1061.096, 152.1897
1061.578, 151.3136
1062.060, 150.9093
1062.542, 152.5217
1063.024, 153.7951
1063.506, 152.9311
1063.989, 151.3230
1064.471, 150.4445
1064.953, 150.3837
1065.435, 150.7864
1065.917, 151.7799
1066.399, 152.4208
1066.881, 152.0017
1067.363, 151.5130
1067.845, 151.4608
1068.328, 151.6965
1068.810, 152.0853
1069.292, 152.5816
1069.774, 153.1792
1070.256, 153.9294
1070.738, 154.4703
1071.220, 154.4441
1071.702, 154.3963
1072.184, 154.6856
1072.667, 155.0808
1073.149, 155.2886
1073.631, 155.3870
1074.113, 155.7670
1074.595, 156.5972
1075.077, 156.8693
1075.559, 155.3206
1076.041, 154.0676
1076.524, 154.8667
1077.006, 156.0464
1077.488, 155.7375
1077.970, 154.5213
1078.452, 154.0479
1078.934, 154.7059
1079.416, 155.3527
1079.898, 155.6346
1080.380, 155.5876
1080.863, 154.8103
1081.345, 154.0936
1081.827, 154.1964
1082.309, 154.8807
1082.791, 155.7194
1083.273, 156.5936
1083.755, 157.2319
1084.237, 157.5200
1084.719, 157.5551
1085.202, 157.1898
1085.684, 156.7781
1086.166, 156.5640
1086.648, 156.5204
1087.130, 156.5201
1087.612, 156.5818
1088.094, 156.9895
1088.576, 158.1620
1089.058, 159.0671
1089.541, 159.0580
1090.023, 158.8403
1090.505, 158.9468
1090.987, 159.1259
1091.469, 158.8591
1091.951, 158.2654
1092.433, 158.1508
1092.915, 158.9931
1093.398, 159.6481
1093.880, 159.5454
1094.362, 159.2653
1094.844, 159.0231
1095.326, 158.8744
1095.808, 158.8087
1096.290, 158.8738
1096.772, 159.2799
1097.255, 160.2081
1097.737, 160.7990
1098.219, 160.3716
1098.701, 160.0367
1099.183, 160.5187
1099.665, 161.1206
1100.147, 161.1557
1100.629, 160.8220
1101.111, 160.6809
1101.594, 160.8476
1102.076, 160.8933
1102.558, 160.6584
1103.040, 160.3529
1103.522, 159.9637
1104.004, 159.6102
1104.486, 159.2657
1104.968, 159.0664
1105.450, 159.2617
1105.933, 159.8634
1106.415, 160.5254
1106.897, 161.4559
1107.379, 162.0292
1107.861, 161.9336
1108.343, 161.6695
1108.825, 161.1761
1109.307, 160.8686
1109.790, 161.5023
1110.272, 162.8870
1110.754, 163.5460
1111.236, 162.7548
1111.718, 162.3842
1112.200, 163.0805
1112.682, 163.6086
1113.164, 163.2275
1113.646, 162.7682
1114.129, 163.1259
1114.611, 164.0227
1115.093, 164.4485
1115.575, 164.1175
1116.057, 164.1822
1116.539, 165.1615
1117.021, 165.7399
1117.503, 165.2048
1117.985, 164.7473
1118.468, 165.3111
1118.950, 166.3737
1119.432, 166.9959
1119.914, 167.1761
1120.396, 166.8623
1120.878, 165.3991
1121.360, 164.9027
1121.842, 166.1038
1122.325, 167.4172
1122.807, 168.1532
1123.289, 168.5011
1123.771, 168.6417
1124.253, 168.6122
1124.735, 168.7764
1125.217, 169.3395
1125.699, 169.3046
1126.182, 168.3656
1126.664, 167.6104
1127.146, 167.3383
1127.628, 167.6126
1128.110, 168.6333
1128.592, 170.0600
1129.074, 170.8892
1129.556, 171.0762
1130.038, 171.1218
1130.521, 171.0470
1131.003, 170.5227
1131.485, 169.3365
1131.967, 168.6656
1132.449, 169.3647
1132.931, 170.5909
1133.413, 170.8749
1133.895, 170.4306
1134.377, 170.9743
1134.860, 172.4552
1135.342, 173.1363
1135.824, 172.7965
1136.306, 172.1359
1136.788, 171.4415
1137.270, 171.1516
1137.752, 171.8470
1138.234, 173.0405
1138.717, 173.5274
1139.199, 173.4502
1139.681, 173.4003
1140.163, 173.4014
1140.645, 173.2181
1141.127, 172.8428
1141.609, 172.8790
1142.091, 173.8075
1142.573, 174.8851
1143.056, 174.9186
1143.538, 174.4382
1144.020, 174.5834
1144.502, 175.1004
1144.984, 175.1626
1145.466, 174.8138
1145.948, 174.8395
1146.430, 175.5690
1146.912, 176.4507
1147.395, 177.0115
1147.877, 177.4612
1148.359, 178.2739
1148.841, 178.9634
1149.323, 178.6616
1149.805, 177.7123
1150.287, 176.8859
1150.769, 176.4180
1151.252, 176.3906
1151.734, 177.0318
1152.216, 177.6505
1152.698, 177.7208
1153.180, 177.6503
1153.662, 177.7071
1154.144, 177.8736
1154.626, 178.0882
1155.109, 178.3650
1155.591, 178.8502
1156.073, 179.6733
1156.555, 180.1016
1157.037, 179.1574
1157.519, 178.7269
1158.001, 180.2106
1158.483, 181.8814
1158.965, 182.2490
1159.448, 181.9628
1159.930, 182.3764
1160.412, 183.5777
1160.894, 184.1319
1161.376, 183.2837
1161.858, 182.7266
1162.340, 182.6921
1162.822, 182.8573
1163.304, 183.2343
1163.787, 183.6357
1164.269, 183.9398
1164.751, 184.1124
1165.233, 183.9669
1165.715, 183.2691
1166.197, 183.3838
1166.679, 184.7893
1167.161, 185.6067
1167.644, 185.2279
1168.126, 184.8590
1168.608, 185.2526
1169.090, 185.9724
1169.572, 186.4089
1170.054, 186.5632
1170.536, 186.3416
1171.018, 185.7141
1171.500, 185.3498
1171.983, 185.2998
1172.465, 185.6057
1172.947, 186.2857
1173.429, 187.3479
1173.911, 188.8907
1174.393, 190.4037
1174.875, 190.9356
1175.357, 190.6154
1175.839, 189.6040
1176.322, 188.2041
1176.804, 187.7151
1177.286, 188.2321
1177.768, 188.8911
1178.250, 189.2964
1178.732, 189.7273
1179.214, 190.5726
1179.696, 191.4272
1180.179, 191.6717
1180.661, 191.6237
1181.143, 191.6219
1181.625, 191.7961
1182.107, 192.5737
1182.589, 193.8020
1183.071, 194.2997
1183.553, 193.2929
1184.036, 192.3397
1184.518, 192.4893
1185.000, 192.9625
1185.482, 193.4398
1185.964, 193.7639
1186.446, 193.5061
1186.928, 193.0654
1187.410, 193.5446
1187.892, 195.1596
1188.375, 196.0363
1188.857, 194.9630
1189.339, 194.2701
1189.821, 194.7386
1190.303, 195.3359
1190.785, 195.4954
1191.267, 195.5930
1191.749, 196.3179
1192.231, 197.3158
1192.714, 197.0536
1193.196, 194.8011
1193.678, 194.2606
1194.160, 196.3466
1194.642, 197.5813
1195.124, 197.0153
1195.606, 196.2790
1196.088, 196.2771
1196.571, 196.6591
1197.053, 196.9055
1197.535, 197.1303
1198.017, 198.1180
1198.499, 199.8313
1198.981, 200.6154
1199.463, 200.3927
1199.945, 199.8785
1200.427, 199.2952
1200.910, 198.8329
1201.392, 198.5878
1201.874, 198.8165
1202.356, 200.4317
1202.838, 202.4690
1203.320, 202.5468
1203.802, 201.5087
1204.284, 201.2451
1204.766, 201.7807
1205.249, 202.3515
1205.731, 202.7107
1206.213, 203.0740
1206.695, 203.7203
1207.177, 204.0692
1207.659, 203.3061
1208.141, 202.4312
1208.623, 202.1726
1209.106, 202.4425
1209.588, 203.3101
1210.070, 204.5121
1210.552, 205.4110
1211.034, 205.8580
1211.516, 206.1549
1211.998, 206.1281
1212.480, 206.3255
1212.963, 207.4108
1213.445, 208.1313
1213.927, 207.2876
1214.409, 206.1832
1214.891, 206.2980
1215.373, 207.3623
1215.855, 208.2065
1216.337, 208.8745
1216.819, 209.0470
1217.302, 208.5413
1217.784, 208.2809
1218.266, 208.5187
1218.748, 208.6607
1219.230, 208.3195
1219.712, 208.0331
1220.194, 208.5678
1220.676, 209.6068
1221.158, 210.1436
1221.641, 210.2521
1222.123, 210.2540
1222.605, 210.2024
1223.087, 210.1514
1223.569, 210.1619
1224.051, 210.5872
1224.533, 211.6537
1225.015, 212.6174
1225.498, 212.4808
1225.980, 212.0835
1226.462, 212.5114
1226.944, 213.2006
1227.426, 213.4235
1227.908, 213.2911
1228.390, 213.1028
1228.872, 212.9493
1229.354, 212.9167
1229.837, 213.0310
1230.319, 213.2729
1230.801, 213.6856
1231.283, 214.1598
1231.765, 214.8552
1232.247, 215.3917
1232.729, 215.1849
1233.211, 214.7640
1233.693, 215.1867
1234.176, 216.4117
1234.658, 217.1370
1235.140, 217.0661
1235.622, 217.5057
1236.104, 218.8281
1236.586, 219.3826
1237.068, 218.4629
1237.550, 217.7710
1238.033, 218.6134
1238.515, 220.0572
1238.997, 220.5346
1239.479, 220.2923
1239.961, 220.3473
1240.443, 220.6070
1240.925, 220.6396
1241.407, 220.4466
1241.890, 220.1023
1242.372, 219.7259
1242.854, 219.9341
1243.336, 221.1792
1243.818, 222.6739
1244.300, 224.0489
1244.782, 224.9402
1245.264, 224.7708
1245.746, 224.0945
1246.229, 223.2583
1246.711, 222.5856
1247.193, 222.6028
1247.675, 223.3479
1248.157, 224.2774
1248.639, 225.5332
1249.121, 226.4078
1249.603, 226.4220
1250.085, 226.5293
1250.568, 227.3707
1251.050, 227.9552
1251.532, 227.4995
1252.014, 226.4958
1252.496, 225.6722
1252.978, 225.0620
1253.460, 225.0621
1253.942, 225.6945
1254.425, 226.9969
1254.907, 229.0298
1255.389, 229.3357
1255.871, 227.2809
1256.353, 226.2003
1256.835, 228.3244
1257.317, 231.1289
1257.799, 231.2007
1258.281, 229.9820
1258.764, 230.0275
1259.246, 230.7070
1259.728, 230.8370
1260.210, 230.6358
1260.692, 230.8510
1261.174, 231.5739
1261.656, 232.4566
1262.138, 233.4411
1262.620, 234.1385
1263.103, 234.0046
1263.585, 234.0298
1264.067, 235.2245
1264.549, 236.1231
1265.031, 235.0994
1265.513, 233.5518
1265.995, 233.7811
1266.477, 235.3055
1266.960, 235.3790
1267.442, 233.1910
1267.924, 233.1151
1268.406, 235.7588
1268.888, 237.7564
1269.370, 238.4849
1269.852, 238.2927
1270.334, 237.2415
1270.817, 236.5190
1271.299, 237.5466
1271.781, 239.3180
1272.263, 239.6988
1272.745, 239.2633
1273.227, 239.2993
1273.709, 239.7602
1274.191, 240.5135
1274.673, 241.4030
1275.156, 242.1343
1275.638, 242.5947
1276.120, 242.6881
1276.602, 242.1125
1277.084, 241.5916
1277.566, 241.2848
1278.048, 241.3785
1278.530, 242.2793
1279.012, 243.3772
1279.495, 244.1466
1279.977, 244.6082
1280.459, 244.8708
1280.941, 244.9159
1281.423, 244.9165
1281.905, 244.8684
1282.387, 244.9206
1282.869, 245.0742
1283.352, 245.4538
1283.834, 246.1439
##END=



