##NAMES=Enargite
##RRUFFID=R050435
##IDEAL CHEMISTRY=Cu_3_AsS_4_
##LOCALITY=Longfellow mine, Red Mountain Pass, Ouray, Colorado, USA
##OWNER=RRUFF
##SOURCE=University of Arizona Mineral Museum
##DESCRIPTION=Grayish black prismatic crystals
##STATUS=The identification of this mineral has been confirmed by X-ray diffraction and chemical analysis
##URL=rruff.info/R050435
##MEASURED CHEMISTRY=Cu_2.97_As_0.95_Sb_0.02_S_4_
92.35352, 13.28810
92.83563, 13.01478
93.31775, 12.89870
93.79987, 12.94436
94.28198, 13.14797
94.76410, 13.53214
95.24622, 14.17713
95.72833, 14.92503
96.21045, 15.42028
96.69257, 15.65695
97.17468, 15.78423
97.65680, 15.83084
98.13892, 15.80237
98.62103, 16.05005
99.10315, 16.82251
99.58527, 17.99014
100.0674, 18.53111
100.5495, 18.26804
101.0316, 17.75744
101.5137, 17.66971
101.9958, 18.07682
102.4780, 18.64544
102.9601, 19.23185
103.4422, 19.78301
103.9243, 20.72756
104.4064, 22.22274
104.8885, 24.01548
105.3707, 25.66638
105.8528, 26.97230
106.3349, 28.40450
106.8170, 30.21353
107.2991, 33.04932
107.7813, 35.01207
108.2634, 35.61396
108.7455, 35.27769
109.2276, 35.40152
109.7097, 36.35265
110.1918, 37.50264
110.6740, 38.59312
111.1561, 39.67329
111.6382, 40.63141
112.1203, 41.26883
112.6024, 41.68710
113.0845, 42.46981
113.5667, 43.76619
114.0488, 45.41948
114.5309, 47.34161
115.0130, 49.67364
115.4951, 52.10670
115.9772, 54.68235
116.4594, 57.40891
116.9415, 59.87406
117.4236, 61.88208
117.9057, 63.56745
118.3878, 65.06784
118.8699, 66.07907
119.3521, 67.19585
119.8342, 68.80531
120.3163, 70.95740
120.7984, 73.31005
121.2805, 75.63247
121.7626, 78.01579
122.2448, 80.61580
122.7269, 84.68322
123.2090, 88.43345
123.6911, 89.79997
124.1732, 88.18748
124.6553, 85.77347
125.1375, 83.98907
125.6196, 82.91511
126.1017, 82.80709
126.5838, 84.32334
127.0659, 86.83653
127.5480, 89.28565
128.0302, 91.59988
128.5123, 93.66588
128.9944, 95.19444
129.4765, 96.23388
129.9586, 97.23586
130.4407, 98.63267
130.9229, 100.2968
131.4050, 101.6833
131.8871, 102.5531
132.3692, 103.1721
132.8513, 104.0374
133.3334, 104.9772
133.8156, 105.7739
134.2977, 106.8712
134.7798, 108.6024
135.2619, 109.8364
135.7440, 110.0367
136.2261, 109.5612
136.7083, 108.7322
137.1904, 112.5011
137.6725, 115.1024
138.1546, 116.5794
138.6367, 114.6510
139.1188, 116.2889
139.6010, 115.9894
140.0831, 115.2627
140.5652, 116.3654
141.0473, 113.0659
141.5294, 113.4083
142.0115, 112.7316
142.4937, 115.5236
142.9758, 117.6954
143.4579, 117.8352
143.9400, 115.2630
144.4221, 114.0205
144.9042, 114.5778
145.3864, 116.1586
145.8685, 117.5033
146.3506, 118.9425
146.8327, 119.7247
147.3148, 118.0986
147.7969, 119.9226
148.2791, 120.9898
148.7612, 121.3405
149.2433, 118.8456
149.7254, 120.0122
150.2075, 119.7035
150.6896, 119.3288
151.1718, 120.9945
151.6539, 118.8844
152.1360, 120.5063
152.6181, 120.6305
153.1002, 121.4319
153.5823, 120.7489
154.0645, 120.5171
154.5466, 121.7586
155.0287, 122.1755
155.5108, 121.2997
155.9929, 122.1105
156.4750, 119.8920
156.9572, 120.3211
157.4393, 121.8893
157.9214, 121.0595
158.4035, 121.8690
158.8856, 122.0463
159.3677, 119.3708
159.8499, 121.6411
160.3320, 121.7644
160.8141, 119.6833
161.2962, 121.7670
161.7783, 119.9777
162.2604, 119.5631
162.7426, 120.1817
163.2247, 119.7117
163.7068, 120.9434
164.1889, 120.5245
164.6710, 119.9531
165.1531, 120.0173
165.6353, 118.4067
166.1174, 117.1674
166.5995, 116.3686
167.0816, 116.7571
167.5637, 117.1720
168.0458, 116.6709
168.5280, 115.2503
169.0101, 114.0024
169.4922, 113.7836
169.9743, 114.1457
170.4564, 114.4672
170.9385, 114.8615
171.4207, 114.8905
171.9028, 113.9304
172.3849, 111.9193
172.8670, 109.9060
173.3491, 108.6339
173.8312, 107.9230
174.3134, 107.4285
174.7955, 107.0332
175.2776, 106.7566
175.7597, 106.7596
176.2418, 107.1076
176.7239, 107.2566
177.2061, 106.4251
177.6882, 104.9442
178.1703, 103.7301
178.6524, 103.3379
179.1345, 103.4545
179.6166, 103.6730
180.0988, 104.0285
180.5809, 104.1873
181.0630, 103.4746
181.5451, 102.1270
182.0272, 101.1253
182.5093, 101.3475
182.9915, 102.2648
183.4736, 102.4583
183.9557, 101.6755
184.4378, 100.7426
184.9199, 100.9182
185.4020, 102.0542
185.8842, 103.1289
186.3663, 103.6435
186.8484, 103.6507
187.3305, 103.2333
187.8126, 102.2979
188.2947, 101.1946
188.7769, 100.4768
189.2590, 100.1310
189.7411, 99.87577
190.2232, 99.36655
190.7053, 98.72282
191.1874, 98.83980
191.6696, 100.0216
192.1517, 101.5500
192.6338, 101.9394
193.1159, 101.1473
193.5980, 100.3763
194.0801, 100.5518
194.5623, 101.5766
195.0444, 101.9913
195.5265, 101.5064
196.0086, 100.5732
196.4907, 100.1372
196.9728, 100.2351
197.4550, 100.5103
197.9371, 100.8337
198.4192, 101.2094
198.9013, 101.3463
199.3834, 101.1278
199.8655, 100.7506
200.3477, 100.6925
200.8298, 100.9876
201.3119, 101.4569
201.7940, 102.1459
202.2761, 103.1180
202.7582, 103.5478
203.2404, 103.1994
203.7225, 102.3882
204.2046, 102.0022
204.6867, 102.1241
205.1688, 102.3891
205.6509, 102.4953
206.1331, 102.3555
206.6152, 102.6677
207.0973, 103.6259
207.5794, 105.0043
208.0615, 106.1452
208.5436, 107.0599
209.0258, 107.7122
209.5079, 108.0102
209.9900, 107.8661
210.4721, 107.7942
210.9542, 107.8966
211.4363, 108.0769
211.9185, 107.9745
212.4006, 107.4751
212.8827, 106.9345
213.3648, 106.5216
213.8469, 106.1599
214.3290, 106.2136
214.8112, 106.8769
215.2933, 107.9365
215.7754, 108.6663
216.2575, 109.0327
216.7396, 109.1321
217.2217, 108.9170
217.7038, 108.1463
218.1860, 107.8211
218.6681, 108.1347
219.1502, 108.9222
219.6323, 109.5936
220.1144, 110.1191
220.5965, 110.5721
221.0787, 110.9244
221.5608, 110.9850
222.0429, 111.5151
222.5250, 112.8377
223.0071, 114.6357
223.4892, 115.6017
223.9714, 115.2348
224.4535, 114.8426
224.9356, 115.1923
225.4177, 116.6934
225.8998, 117.9423
226.3819, 118.8106
226.8641, 119.3919
227.3462, 119.9437
227.8283, 120.3370
228.3104, 120.8935
228.7925, 121.8104
229.2746, 123.3313
229.7568, 124.6670
230.2389, 125.6504
230.7210, 126.4626
231.2031, 127.7032
231.6852, 129.7052
232.1673, 131.6379
232.6495, 133.0027
233.1316, 133.2932
233.6137, 134.1712
234.0958, 135.8764
234.5779, 138.1392
235.0600, 140.1748
235.5422, 141.8824
236.0243, 143.5439
236.5064, 145.3017
236.9885, 147.2584
237.4706, 149.0605
237.9527, 150.5221
238.4349, 151.8578
238.9170, 153.5935
239.3991, 155.8380
239.8812, 158.3206
240.3633, 161.0132
240.8454, 164.2147
241.3276, 166.8376
241.8097, 168.5240
242.2918, 169.7301
242.7739, 171.4357
243.2560, 173.8011
243.7381, 176.4230
244.2203, 179.2431
244.7024, 182.5280
245.1845, 185.2013
245.6666, 186.8357
246.1487, 188.0591
246.6308, 190.2491
247.1130, 194.2948
247.5951, 197.8535
248.0772, 199.8811
248.5593, 199.7624
249.0414, 200.4172
249.5235, 202.0674
250.0057, 204.3481
250.4878, 206.6537
250.9699, 208.7243
251.4520, 211.3101
251.9341, 214.8340
252.4162, 219.6783
252.8984, 223.6044
253.3805, 226.2476
253.8626, 228.2736
254.3447, 230.5852
254.8268, 233.3449
255.3089, 236.1167
255.7911, 238.6554
256.2732, 240.8789
256.7553, 243.7227
257.2374, 247.5429
257.7195, 251.6474
258.2017, 255.2647
258.6838, 258.5238
259.1659, 261.0721
259.6480, 262.8001
260.1301, 263.6816
260.6122, 264.1863
261.0944, 264.5193
261.5765, 264.2165
262.0586, 262.6922
262.5407, 259.6393
263.0228, 256.2482
263.5049, 252.8369
263.9871, 249.3590
264.4692, 245.3844
264.9513, 240.8312
265.4334, 235.8624
265.9155, 230.4732
266.3976, 224.6756
266.8798, 218.7168
267.3619, 212.5705
267.8440, 206.2654
268.3261, 200.4515
268.8082, 195.1089
269.2903, 190.3157
269.7725, 186.4135
270.2546, 183.7686
270.7367, 180.4903
271.2188, 176.0877
271.7009, 170.9317
272.1830, 166.4546
272.6652, 162.7343
273.1473, 159.5714
273.6294, 156.9898
274.1115, 155.1531
274.5936, 152.8412
275.0757, 149.7415
275.5579, 146.2007
276.0400, 143.3361
276.5221, 141.2543
277.0042, 139.4144
277.4863, 137.5338
277.9684, 135.6090
278.4506, 133.6498
278.9327, 131.5840
279.4148, 129.5766
279.8969, 128.0094
280.3790, 126.9211
280.8611, 126.0057
281.3433, 125.0731
281.8254, 124.1230
282.3075, 123.5171
282.7896, 123.3639
283.2717, 123.3317
283.7538, 122.7900
284.2360, 121.7141
284.7181, 120.7880
285.2002, 120.3487
285.6823, 120.3523
286.1644, 120.4059
286.6465, 120.5043
287.1287, 120.6668
287.6108, 120.9762
288.0929, 121.4193
288.5750, 121.7680
289.0571, 121.9256
289.5392, 121.9202
290.0214, 121.7893
290.5035, 121.5053
290.9856, 121.3216
291.4677, 121.6004
291.9498, 122.2681
292.4319, 122.8432
292.9141, 123.0943
293.3962, 123.2111
293.8783, 123.6305
294.3604, 124.3543
294.8425, 125.2614
295.3246, 126.4765
295.8068, 127.8428
296.2889, 128.7429
296.7710, 128.7948
297.2531, 128.6093
297.7352, 129.2829
298.2173, 130.7329
298.6995, 132.2932
299.1816, 133.4746
299.6637, 134.4115
300.1458, 135.2757
300.6279, 135.9629
301.1100, 136.9002
301.5922, 138.9510
302.0743, 141.8308
302.5564, 144.3845
303.0385, 145.7339
303.5206, 146.4100
304.0027, 147.1969
304.4849, 148.2070
304.9670, 149.2344
305.4491, 150.0538
305.9312, 150.7273
306.4133, 151.4040
306.8954, 152.1758
307.3776, 152.9826
307.8597, 153.7610
308.3418, 154.5167
308.8239, 155.2367
309.3060, 155.7242
309.7881, 156.2080
310.2703, 157.0305
310.7524, 158.7288
311.2345, 160.5346
311.7166, 161.4628
312.1987, 161.5727
312.6808, 162.6391
313.1630, 166.2285
313.6451, 171.1005
314.1272, 175.9550
314.6093, 180.2343
315.0914, 184.4570
315.5735, 188.4107
316.0557, 192.2955
316.5378, 197.1807
317.0199, 203.8489
317.5020, 211.4688
317.9841, 219.5835
318.4662, 228.1220
318.9484, 236.8495
319.4305, 245.9301
319.9126, 255.1602
320.3947, 264.0045
320.8768, 271.8197
321.3589, 279.5816
321.8411, 287.8182
322.3232, 296.6472
322.8053, 305.6115
323.2874, 314.8180
323.7695, 324.0663
324.2516, 333.0403
324.7338, 341.1098
325.2159, 349.4298
325.6980, 358.2943
326.1801, 367.7381
326.6622, 377.7758
327.1443, 388.0943
327.6265, 399.1971
328.1086, 411.6457
328.5907, 425.6212
329.0728, 440.5865
329.5549, 456.3764
330.0370, 473.0626
330.5192, 491.0390
331.0013, 511.2728
331.4834, 532.1070
331.9655, 552.5295
332.4476, 571.5670
332.9297, 592.0903
333.4119, 615.3533
333.8940, 640.3285
334.3761, 662.4395
334.8582, 681.7730
335.3403, 697.3865
335.8224, 708.9764
336.3046, 717.1954
336.7867, 719.5133
337.2688, 716.1143
337.7509, 706.6716
338.2330, 689.9967
338.7151, 665.4862
339.1973, 635.9352
339.6794, 601.2165
340.1615, 561.4258
340.6436, 520.7112
341.1257, 478.8893
341.6078, 437.4825
342.0899, 397.7323
342.5721, 360.1711
343.0542, 326.1036
343.5363, 296.3825
344.0184, 270.8097
344.5005, 248.1106
344.9826, 228.5462
345.4648, 211.2881
345.9469, 195.8999
346.4290, 182.2371
346.9111, 170.9517
347.3932, 162.5004
347.8753, 155.8295
348.3575, 149.1263
348.8396, 142.4742
349.3217, 136.5247
349.8038, 131.7781
350.2859, 128.1141
350.7680, 125.3643
351.2502, 123.6186
351.7323, 122.3572
352.2144, 120.9181
352.6965, 119.4492
353.1786, 118.4410
353.6607, 118.5166
354.1429, 119.0128
354.6250, 119.0064
355.1071, 118.4415
355.5892, 118.0102
356.0713, 118.2354
356.5534, 118.9424
357.0356, 119.8703
357.5177, 120.7660
357.9998, 121.9892
358.4819, 123.7724
358.9640, 126.0961
359.4461, 128.8282
359.9283, 131.8513
360.4104, 135.2777
360.8925, 139.2595
361.3746, 144.1595
361.8567, 149.0443
362.3388, 153.0715
362.8210, 156.7734
363.3031, 161.4499
363.7852, 168.0935
364.2673, 175.3259
364.7494, 182.6686
365.2315, 190.2477
365.7137, 197.3011
366.1958, 203.3049
366.6779, 208.7616
367.1600, 214.3166
367.6421, 220.2254
368.1242, 226.0451
368.6064, 232.1004
369.0885, 238.4783
369.5706, 243.1609
370.0527, 245.8279
370.5348, 247.0871
371.0169, 247.2540
371.4991, 245.4707
371.9812, 244.0425
372.4633, 243.0893
372.9454, 242.5973
373.4275, 242.4422
373.9096, 242.2804
374.3918, 243.0573
374.8739, 245.0975
375.3560, 248.3457
375.8381, 253.2839
376.3202, 260.2447
376.8023, 268.3816
377.2845, 276.8873
377.7666, 286.0440
378.2487, 293.7068
378.7308, 299.2885
379.2129, 302.7725
379.6950, 303.6517
380.1772, 302.0202
380.6593, 297.3331
381.1414, 288.3939
381.6235, 275.5626
382.1056, 261.1643
382.5877, 245.2544
383.0699, 228.7598
383.5520, 213.1895
384.0341, 198.4351
384.5162, 184.8398
384.9983, 172.5484
385.4804, 161.4468
385.9626, 151.1808
386.4447, 141.7183
386.9268, 133.0717
387.4089, 125.1833
387.8910, 118.0809
388.3731, 112.0142
388.8553, 107.0844
389.3374, 103.2170
389.8195, 100.8325
390.3016, 99.86130
390.7837, 98.81850
391.2658, 96.55596
391.7480, 93.86170
392.2301, 91.54586
392.7122, 89.86491
393.1943, 88.55585
393.6764, 87.68418
394.1585, 87.12315
394.6407, 86.52742
395.1228, 85.62228
395.6049, 84.77204
396.0870, 84.21915
396.5691, 84.16026
397.0512, 83.85582
397.5334, 82.89708
398.0155, 81.69985
398.4976, 80.79697
398.9797, 80.27128
399.4618, 80.00307
399.9439, 80.11916
400.4261, 80.61523
400.9082, 80.76854
401.3903, 80.29549
401.8724, 79.74667
402.3545, 79.49419
402.8366, 79.75838
403.3188, 79.84555
403.8009, 79.71086
404.2830, 79.37981
404.7651, 78.88522
405.2472, 78.17807
405.7293, 77.46152
406.2115, 76.79652
406.6936, 76.18723
407.1757, 75.67589
407.6578, 75.24998
408.1399, 74.95537
408.6220, 74.97761
409.1042, 75.30369
409.5863, 75.30164
410.0684, 74.71367
410.5505, 73.76313
411.0326, 72.88473
411.5147, 72.07756
411.9969, 71.41163
412.4790, 71.05858
412.9611, 70.86779
413.4432, 70.44370
413.9253, 69.67706
414.4074, 68.88074
414.8896, 68.37395
415.3717, 68.09454
415.8538, 67.90233
416.3359, 67.83791
416.8180, 67.76356
417.3001, 67.48479
417.7823, 67.00648
418.2644, 66.65456
418.7465, 66.68165
419.2286, 66.88734
419.7107, 67.08805
420.1928, 67.33984
420.6750, 67.43932
421.1571, 67.19630
421.6392, 66.73229
422.1213, 66.36937
422.6034, 66.35107
423.0855, 66.31665
423.5677, 66.04465
424.0498, 65.36089
424.5319, 65.02180
425.0140, 65.27198
425.4961, 65.80541
425.9782, 66.32425
426.4604, 66.91210
426.9425, 67.36315
427.4246, 67.61394
427.9067, 67.69369
428.3888, 67.78619
428.8709, 67.89647
429.3531, 68.01057
429.8352, 68.11669
430.3173, 68.20490
430.7994, 68.33769
431.2815, 68.54081
431.7636, 68.74763
432.2458, 68.85483
432.7279, 68.86057
433.2100, 68.76914
433.6921, 68.46909
434.1742, 68.08845
434.6563, 68.18801
435.1385, 68.78281
435.6206, 69.41843
436.1027, 69.82170
436.5848, 69.96672
437.0669, 69.70568
437.5490, 68.87457
438.0312, 67.97379
438.5133, 67.55001
438.9954, 67.51157
439.4775, 67.60285
439.9596, 67.85806
440.4417, 68.08095
440.9239, 68.09046
441.4060, 67.87680
441.8881, 67.54568
442.3702, 67.15263
442.8523, 66.67780
443.3344, 66.09169
443.8166, 65.14048
444.2987, 64.36557
444.7808, 64.00298
445.2629, 63.95129
445.7450, 63.91428
446.2271, 63.83882
446.7093, 63.76177
447.1914, 63.70496
447.6735, 63.68966
448.1556, 63.61943
448.6377, 63.43694
449.1198, 63.23839
449.6020, 63.13019
450.0841, 63.18260
450.5662, 63.17912
451.0483, 63.06056
451.5304, 62.86259
452.0125, 62.78680
452.4947, 62.90935
452.9768, 62.91742
453.4589, 62.49635
453.9410, 61.62386
454.4231, 61.28197
454.9052, 61.58153
455.3874, 62.09977
455.8695, 62.31208
456.3516, 62.25167
456.8337, 62.16154
457.3158, 62.12855
457.7979, 62.10405
458.2801, 61.97681
458.7622, 61.76271
459.2443, 61.56721
459.7264, 61.48414
460.2085, 61.45721
460.6906, 61.38090
461.1728, 61.20509
461.6549, 61.14928
462.1370, 61.65979
462.6191, 62.33105
463.1012, 62.55433
463.5833, 61.60705
464.0655, 60.62749
464.5476, 60.13633
465.0297, 60.09858
465.5118, 60.11113
465.9939, 60.06178
466.4760, 60.03897
466.9582, 60.09568
467.4403, 60.29701
467.9224, 60.46981
468.4045, 60.64227
468.8866, 60.77036
469.3687, 60.79851
469.8509, 60.75418
470.3330, 60.54335
470.8151, 60.03600
471.2972, 59.29225
471.7793, 58.98649
472.2614, 59.23009
472.7436, 59.60223
473.2257, 59.86116
473.7078, 60.00810
474.1899, 59.94982
474.6720, 59.63441
475.1541, 59.23679
475.6363, 59.04692
476.1184, 59.02774
476.6005, 58.93809
477.0826, 58.59864
477.5647, 58.18028
478.0468, 57.89397
478.5290, 57.75161
479.0111, 57.86220
479.4932, 58.74601
479.9753, 59.73553
480.4574, 59.91627
480.9395, 58.87175
481.4217, 57.85861
481.9038, 57.74890
482.3859, 58.14885
482.8680, 58.48571
483.3501, 58.62698
483.8322, 58.61804
484.3144, 58.36537
484.7965, 57.90081
485.2786, 57.62547
485.7607, 57.58405
486.2428, 57.76404
486.7249, 58.23383
487.2071, 59.48161
487.6892, 59.92841
488.1713, 59.19936
488.6534, 57.93272
489.1355, 57.00048
489.6176, 56.41261
490.0998, 56.14729
490.5819, 56.27880
491.0640, 56.71914
491.5461, 57.01197
492.0282, 57.14536
492.5103, 57.24098
492.9925, 57.48257
493.4746, 57.79097
493.9567, 57.64338
494.4388, 56.92183
494.9209, 56.16851
495.4030, 56.05554
495.8852, 56.39418
496.3673, 56.72282
496.8494, 57.03853
497.3315, 57.10265
497.8136, 56.41969
498.2957, 55.19295
498.7779, 54.28951
499.2600, 54.29932
499.7421, 54.69037
500.2242, 55.19553
500.7063, 55.88143
501.1884, 56.23516
501.6706, 55.74172
502.1527, 55.00106
502.6348, 54.62659
503.1169, 55.19291
503.5990, 55.53404
504.0811, 55.41176
504.5633, 54.96279
505.0454, 54.68236
505.5275, 54.60339
506.0096, 54.65083
506.4917, 54.87585
506.9738, 55.32399
507.4560, 55.32792
507.9381, 54.74062
508.4202, 54.10435
508.9023, 54.10096
509.3844, 54.68111
509.8665, 54.95232
510.3487, 54.66901
510.8308, 54.15217
511.3129, 53.89394
511.7950, 53.86716
512.2772, 53.94441
512.7593, 54.18921
513.2414, 54.43169
513.7235, 54.38688
514.2056, 54.06817
514.6877, 53.85432
515.1699, 54.09050
515.6520, 54.48838
516.1341, 54.78344
516.6162, 54.89177
517.0983, 54.94379
517.5804, 54.93795
518.0626, 54.91218
518.5447, 54.92905
519.0268, 54.88061
519.5089, 55.00920
519.9910, 55.52285
520.4731, 56.37373
520.9553, 56.75175
521.4374, 56.47211
521.9195, 55.99254
522.4016, 55.50595
522.8837, 54.96944
523.3658, 54.70105
523.8480, 54.75727
524.3301, 54.96904
524.8122, 55.14381
525.2943, 55.28077
525.7764, 55.36050
526.2585, 55.36255
526.7407, 55.32262
527.2228, 55.28981
527.7049, 55.26763
528.1870, 55.27591
528.6691, 55.36052
529.1512, 55.46437
529.6334, 55.50667
530.1155, 55.47924
530.5976, 55.47030
531.0797, 55.65609
531.5618, 55.82697
532.0439, 55.75703
532.5261, 55.09570
533.0082, 54.61070
533.4903, 54.57676
533.9724, 54.83921
534.4545, 55.06913
534.9366, 55.33420
535.4188, 55.45191
535.9009, 55.35941
536.3830, 55.06083
536.8651, 54.68590
537.3472, 54.15826
537.8293, 53.70758
538.3115, 53.51104
538.7936, 53.58550
539.2757, 53.69594
539.7578, 53.84523
540.2399, 53.98981
540.7220, 54.05661
541.2042, 54.05936
541.6863, 54.08277
542.1684, 54.15961
542.6505, 54.26187
543.1326, 54.46068
543.6147, 54.68324
544.0969, 54.65078
544.5790, 53.88878
545.0611, 53.00993
545.5432, 52.53510
546.0253, 52.52171
546.5074, 52.61563
546.9896, 52.87917
547.4717, 53.06974
547.9538, 52.98484
548.4359, 52.27727
548.9180, 51.72010
549.4001, 51.35149
549.8823, 51.17034
550.3644, 51.19273
550.8465, 51.50132
551.3286, 51.87456
551.8107, 52.34064
552.2928, 52.84684
552.7750, 52.97435
553.2571, 52.68987
553.7392, 52.20263
554.2213, 51.43695
554.7034, 50.51791
555.1855, 50.23056
555.6677, 50.66925
556.1498, 51.31015
556.6319, 51.77279
557.1140, 52.00804
557.5961, 51.85053
558.0782, 51.00109
558.5604, 50.16998
559.0425, 49.98029
559.5246, 50.24845
560.0067, 50.57232
560.4888, 51.02281
560.9709, 51.27681
561.4531, 50.97111
561.9352, 50.10510
562.4173, 49.75137
562.8994, 50.61766
563.3815, 51.57577
563.8636, 52.06625
564.3458, 51.92835
564.8279, 51.71268
565.3100, 51.30944
565.7921, 50.96410
566.2742, 51.05938
566.7563, 51.64820
567.2385, 52.16894
567.7206, 52.51247
568.2027, 52.70456
568.6848, 52.81386
569.1669, 52.82971
569.6490, 52.65491
570.1312, 52.03927
570.6133, 51.28967
571.0954, 50.84640
571.5775, 50.70604
572.0596, 50.73669
572.5417, 51.02417
573.0239, 51.34147
573.5060, 51.43797
573.9881, 51.11455
574.4702, 51.00393
574.9523, 51.62260
575.4344, 52.43899
575.9166, 52.77061
576.3987, 52.06984
576.8808, 51.56043
577.3629, 51.42622
577.8450, 51.56788
578.3271, 51.63116
578.8093, 51.53932
579.2914, 51.60099
579.7735, 52.02802
580.2556, 52.74538
580.7377, 53.22430
581.2198, 53.45469
581.7020, 53.51234
582.1841, 53.38323
582.6662, 53.13604
583.1483, 52.93830
583.6304, 52.82286
584.1125, 52.71318
584.5947, 52.49858
585.0768, 52.25910
585.5589, 52.11138
586.0410, 52.09649
586.5231, 52.18139
587.0052, 52.38512
587.4873, 52.68313
587.9694, 53.00327
588.4515, 53.28796
588.9337, 53.64912
589.4158, 54.23574
589.8979, 55.05225
590.3800, 55.32597
590.8621, 54.74189
591.3442, 54.16990
591.8264, 54.22738
592.3085, 54.96285
592.7906, 55.58751
593.2727, 56.12175
593.7548, 56.37541
594.2369, 55.82679
594.7191, 54.74528
595.2012, 54.22980
595.6833, 54.72163
596.1654, 55.52734
596.6475, 55.93420
597.1296, 56.06166
597.6118, 56.19657
598.0939, 56.49324
598.5760, 56.81134
599.0581, 57.14581
599.5402, 57.46648
600.0223, 57.58524
600.5045, 57.21772
600.9866, 56.85064
601.4687, 56.70879
601.9508, 56.84239
602.4329, 57.01406
602.9150, 57.34081
603.3972, 57.54048
603.8793, 57.22899
604.3614, 56.31799
604.8435, 55.88632
605.3256, 56.18483
605.8077, 56.71385
606.2899, 56.59276
606.7720, 55.96621
607.2541, 55.53786
607.7362, 55.74544
608.2183, 56.09149
608.7004, 55.90077
609.1826, 55.32536
609.6647, 54.90009
610.1468, 54.97993
610.6289, 55.22231
611.1110, 55.46625
611.5931, 55.70547
612.0753, 55.84523
612.5574, 55.91536
613.0395, 55.84052
613.5216, 55.54502
614.0037, 54.81942
614.4858, 54.41608
614.9680, 54.40780
615.4501, 54.62232
615.9322, 54.94301
616.4143, 55.38776
616.8964, 55.54313
617.3785, 55.24316
617.8607, 54.77968
618.3428, 54.68026
618.8249, 54.87161
619.3070, 55.04804
619.7891, 55.10028
620.2712, 55.04624
620.7534, 54.75088
621.2355, 54.30824
621.7176, 54.16686
622.1997, 55.12049
622.6818, 55.96970
623.1639, 55.91146
623.6461, 54.71691
624.1282, 53.77752
624.6103, 53.19657
625.0924, 52.93632
625.5745, 53.05513
626.0566, 53.83942
626.5388, 54.14192
627.0209, 53.79954
627.5030, 53.20259
627.9851, 52.85375
628.4672, 52.74674
628.9493, 52.73231
629.4315, 52.82733
629.9136, 52.90276
630.3957, 52.68459
630.8778, 52.26942
631.3599, 51.94944
631.8420, 52.05439
632.3242, 52.15736
632.8063, 51.92207
633.2884, 51.38932
633.7705, 50.79716
634.2526, 49.89433
634.7347, 49.24080
635.2169, 49.21814
635.6990, 49.98911
636.1811, 50.44116
636.6632, 50.40632
637.1453, 50.26457
637.6274, 50.28576
638.1096, 50.49531
638.5917, 50.72321
639.0738, 51.00291
639.5559, 51.18142
640.0380, 50.96289
640.5201, 50.44667
641.0023, 50.07281
641.4844, 49.95618
641.9665, 50.00930
642.4486, 50.23600
642.9307, 50.55494
643.4128, 50.78550
643.8950, 50.66941
644.3771, 50.62776
644.8592, 50.97949
645.3413, 51.62388
645.8234, 52.02516
646.3055, 51.79358
646.7877, 51.62009
647.2698, 51.80048
647.7519, 52.35999
648.2340, 52.50219
648.7161, 52.10161
649.1982, 51.62792
649.6804, 51.33156
650.1625, 51.23002
650.6446, 51.59739
651.1267, 52.49706
651.6088, 53.44389
652.0909, 53.92356
652.5731, 54.09235
653.0552, 54.20644
653.5373, 54.27336
654.0194, 54.42869
654.5015, 54.90578
654.9836, 55.48703
655.4658, 55.85580
655.9479, 55.68054
656.4300, 55.57384
656.9121, 55.58771
657.3942, 55.76040
657.8763, 56.24772
658.3585, 57.24205
658.8406, 58.09990
659.3227, 58.57032
659.8048, 58.74206
660.2869, 58.99188
660.7690, 59.31331
661.2512, 59.86566
661.7333, 60.93044
662.2154, 62.23582
662.6975, 63.35459
663.1796, 64.26041
663.6617, 64.76049
664.1439, 64.33608
664.6260, 63.67689
665.1081, 63.37149
665.5902, 63.53723
666.0723, 63.99894
666.5544, 64.96201
667.0366, 66.06695
667.5187, 66.99761
668.0008, 67.78907
668.4829, 68.30856
668.9650, 68.42847
669.4471, 68.41190
669.9293, 68.70134
670.4114, 69.30061
670.8935, 69.91415
671.3756, 70.52834
671.8577, 71.01613
672.3398, 71.09683
672.8220, 70.86155
673.3041, 70.62301
673.7862, 70.49582
674.2683, 70.45454
674.7504, 70.39500
675.2325, 70.37446
675.7147, 70.66966
676.1968, 71.99692
676.6789, 73.07518
677.1610, 73.22285
677.6431, 72.40299
678.1252, 71.79044
678.6074, 71.52323
679.0895, 71.21530
679.5716, 70.61223
680.0537, 69.70927
680.5358, 68.70158
681.0179, 67.55289
681.5001, 66.62653
681.9822, 66.54079
682.4643, 66.90475
682.9464, 66.93494
683.4285, 66.47330
683.9106, 65.74442
684.3928, 64.65312
684.8749, 63.48180
685.3570, 62.55623
685.8391, 62.46213
686.3212, 61.99143
686.8033, 60.54857
687.2855, 58.74494
687.7676, 57.57027
688.2497, 57.26756
688.7318, 56.95968
689.2139, 56.47976
689.6960, 55.86839
690.1782, 55.16953
690.6603, 54.39654
691.1424, 53.81284
691.6245, 53.70043
692.1066, 53.73878
692.5887, 53.41778
693.0709, 52.79800
693.5530, 52.13362
694.0351, 51.43901
694.5172, 50.85209
694.9993, 50.50861
695.4814, 50.42147
695.9636, 50.27579
696.4457, 49.85718
696.9278, 49.53792
697.4099, 49.58501
697.8920, 50.13150
698.3741, 50.03532
698.8563, 49.09385
699.3384, 48.13338
699.8205, 47.92186
700.3026, 48.33998
700.7847, 48.88896
701.2668, 49.54802
701.7490, 50.10572
702.2311, 50.28973
702.7132, 50.27180
703.1953, 50.29290
703.6774, 50.44966
704.1595, 50.57743
704.6417, 50.61617
705.1238, 50.58917
705.6059, 50.51673
706.0880, 50.22589
706.5701, 50.18483
707.0522, 50.50389
707.5344, 51.04892
708.0165, 51.55159
708.4986, 52.00708
708.9807, 52.47569
709.4628, 53.01855
709.9449, 53.53031
710.4271, 53.74934
710.9092, 53.74662
711.3913, 53.79367
711.8734, 54.10112
712.3555, 54.44755
712.8376, 54.70829
713.3198, 54.88130
713.8019, 54.96747
714.2840, 54.95433
714.7661, 54.86352
715.2482, 54.63593
715.7303, 54.28426
716.2125, 54.21820
716.6946, 54.52633
717.1767, 54.87603
717.6588, 55.07327
718.1409, 55.13867
718.6230, 55.27020
719.1052, 55.47440
719.5873, 55.50794
720.0694, 54.87557
720.5515, 54.10218
721.0336, 53.91952
721.5157, 54.47328
721.9979, 55.09717
722.4800, 55.77252
722.9621, 56.20868
723.4442, 56.10866
723.9263, 54.97194
724.4084, 54.37966
724.8906, 54.63856
725.3727, 55.07378
725.8548, 54.91160
726.3369, 54.08921
726.8190, 53.67751
727.3011, 53.90212
727.7833, 54.20543
728.2654, 53.74553
728.7475, 52.80827
729.2296, 52.08242
729.7117, 51.83436
730.1938, 51.69532
730.6760, 51.42851
731.1581, 51.11029
731.6402, 50.85388
732.1223, 50.75285
732.6044, 50.64021
733.0865, 50.59244
733.5687, 50.48432
734.0508, 49.97237
734.5329, 48.90287
735.0150, 48.08426
735.4971, 47.79305
735.9792, 47.79812
736.4614, 47.49452
736.9435, 46.97566
737.4256, 46.72249
737.9077, 47.30651
738.3898, 48.00670
738.8719, 48.08881
739.3541, 47.70811
739.8362, 47.40950
740.3183, 47.65014
740.8004, 47.74512
741.2825, 47.29358
741.7646, 46.38493
742.2468, 45.77105
742.7289, 45.50468
743.2110, 45.40468
743.6931, 45.41908
744.1752, 45.53405
744.6573, 45.65945
745.1395, 45.79616
745.6216, 46.00964
746.1037, 46.53488
746.5858, 47.05686
747.0679, 47.04591
747.5500, 46.51063
748.0322, 46.18805
748.5143, 46.81642
748.9964, 47.44338
749.4785, 47.41080
749.9606, 46.49611
750.4427, 45.90358
750.9249, 45.75972
751.4070, 45.70700
751.8891, 45.47474
752.3712, 45.06604
752.8533, 44.80111
753.3354, 44.69216
753.8176, 44.67118
754.2997, 44.66797
754.7818, 44.71202
755.2639, 44.95603
755.7460, 45.50471
756.2281, 45.69673
756.7103, 44.59382
757.1924, 43.32701
757.6745, 42.91779
758.1566, 44.05834
758.6387, 44.95119
759.1208, 45.60561
759.6030, 46.01114
760.0851, 46.03578
760.5672, 45.65714
761.0493, 45.70351
761.5314, 46.37414
762.0135, 47.01948
762.4957, 46.64133
762.9778, 45.72412
763.4599, 45.20724
763.9420, 45.47601
764.4241, 45.82253
764.9063, 45.89573
765.3884, 45.81152
765.8705, 45.70944
766.3526, 45.50134
766.8347, 45.45546
767.3168, 45.71078
767.7990, 46.01741
768.2811, 45.98204
768.7632, 45.59148
769.2453, 45.06868
769.7274, 44.34950
770.2095, 43.80100
770.6917, 44.23225
771.1738, 45.21255
771.6559, 45.78556
772.1380, 45.37701
772.6201, 44.79702
773.1022, 44.32920
773.5844, 44.01134
774.0665, 43.92529
774.5486, 44.26838
775.0307, 44.57519
775.5128, 44.82666
775.9949, 44.98537
776.4771, 44.94299
776.9592, 44.69405
777.4413, 44.39035
777.9234, 44.03399
778.4055, 43.71096
778.8876, 43.57058
779.3698, 43.57140
779.8519, 43.60683
780.3340, 43.79338
780.8161, 43.83268
781.2982, 43.32396
781.7803, 42.56006
782.2625, 42.38054
782.7446, 43.37322
783.2267, 44.04578
783.7088, 44.04993
784.1909, 43.56903
784.6730, 42.97920
785.1552, 42.28156
785.6373, 42.03419
786.1194, 42.75712
786.6015, 43.71296
787.0836, 43.82996
787.5657, 43.28349
788.0479, 42.54750
788.5300, 41.42760
789.0121, 40.60274
789.4942, 40.56879
789.9763, 41.12054
790.4584, 41.42053
790.9406, 41.34803
791.4227, 41.20825
791.9048, 41.01628
792.3869, 40.85115
792.8690, 41.05077
793.3511, 41.58923
793.8333, 42.04145
794.3154, 42.17811
794.7975, 42.14967
795.2796, 42.11939
795.7617, 42.07357
796.2438, 41.96997
796.7260, 41.86824
797.2081, 41.62714
797.6902, 41.01635
798.1723, 40.19665
798.6544, 39.82510
799.1365, 40.08700
799.6187, 40.31260
800.1008, 40.28016
800.5829, 40.06047
801.0650, 39.81223
801.5471, 39.55133
802.0292, 39.37590
802.5114, 39.20990
802.9935, 39.25835
803.4756, 39.93049
803.9577, 41.00976
804.4398, 41.76524
804.9219, 42.00447
805.4041, 41.83300
805.8862, 41.04486
806.3683, 39.88335
806.8504, 39.41578
807.3325, 39.76657
807.8146, 40.22279
808.2968, 40.60579
808.7789, 40.84840
809.2610, 40.64916
809.7431, 40.13215
810.2252, 39.80299
810.7073, 40.21696
811.1895, 40.63464
811.6716, 40.44785
812.1537, 39.84983
812.6358, 39.58262
813.1179, 40.18696
813.6000, 40.51184
814.0822, 40.08242
814.5643, 39.25005
815.0464, 39.50228
815.5285, 40.86413
816.0106, 41.84723
816.4927, 41.66994
816.9749, 40.95031
817.4570, 40.46913
817.9391, 40.21524
818.4212, 40.14238
818.9033, 40.55669
819.3854, 40.80824
819.8676, 40.41602
820.3497, 39.63097
820.8318, 39.29757
821.3139, 39.49738
821.7960, 40.02082
822.2781, 41.04026
822.7603, 42.13864
823.2424, 42.21077
823.7245, 41.38800
824.2066, 40.52058
824.6887, 39.91908
825.1708, 39.45113
825.6530, 38.80000
826.1351, 38.19422
826.6172, 38.15219
827.0993, 39.60396
827.5814, 40.66062
828.0635, 40.76588
828.5457, 40.35120
829.0278, 40.41980
829.5099, 41.11113
829.9920, 41.25023
830.4741, 40.30849
830.9562, 39.15530
831.4384, 39.44871
831.9205, 40.65061
832.4026, 41.38337
832.8847, 40.99130
833.3668, 40.24299
833.8489, 39.05752
834.3311, 37.89437
834.8132, 37.61536
835.2953, 38.82368
835.7774, 39.79329
836.2595, 40.36921
836.7416, 40.60053
837.2238, 40.47240
837.7059, 40.02071
838.1880, 39.55320
838.6701, 39.06792
839.1522, 38.80244
839.6343, 39.30045
840.1165, 40.07025
840.5986, 40.38008
841.0807, 39.64014
841.5628, 39.08107
842.0449, 39.01282
842.5270, 39.19121
843.0092, 39.46267
843.4913, 39.90850
843.9734, 39.90242
844.4555, 39.28178
844.9376, 38.60677
845.4197, 38.67051
845.9019, 39.15305
846.3840, 39.32600
846.8661, 38.96532
847.3482, 38.72048
847.8303, 39.29585
848.3124, 39.94960
848.7946, 39.92782
849.2767, 38.71223
849.7588, 38.13026
850.2409, 38.44178
850.7230, 38.89475
851.2051, 38.71523
851.6873, 38.03874
852.1694, 37.76094
852.6515, 37.94493
853.1336, 38.33889
853.6157, 39.08637
854.0978, 39.72056
854.5800, 39.66949
855.0621, 38.76725
855.5442, 38.09196
856.0263, 37.98423
856.5084, 38.03251
856.9905, 38.05804
857.4727, 38.06088
857.9548, 38.11929
858.4369, 38.23481
858.9190, 38.39990
859.4011, 38.77475
859.8832, 39.12022
860.3654, 38.92920
860.8475, 38.26460
861.3296, 37.73669
861.8117, 37.52238
862.2938, 37.60480
862.7759, 38.19456
863.2581, 39.16840
863.7402, 39.60431
864.2223, 39.34301
864.7044, 39.08488
865.1865, 39.21412
865.6686, 39.48338
866.1508, 39.09743
866.6329, 38.22440
867.1150, 37.60625
867.5971, 37.99237
868.0792, 38.39893
868.5613, 38.06547
869.0435, 37.27006
869.5256, 36.92007
870.0077, 37.24900
870.4898, 37.74690
870.9719, 38.50391
871.4540, 39.20349
871.9362, 38.93571
872.4183, 37.84667
872.9004, 37.12299
873.3825, 37.26902
873.8646, 37.61639
874.3467, 37.52583
874.8289, 37.20722
875.3110, 36.97835
875.7931, 37.02564
876.2752, 37.04552
876.7573, 37.06433
877.2394, 36.99984
877.7216, 36.64110
878.2037, 35.94983
878.6858, 35.77856
879.1679, 36.32000
879.6500, 36.91851
880.1321, 36.76892
880.6143, 36.25788
881.0964, 35.94389
881.5785, 35.95294
882.0606, 36.05202
882.5427, 36.26167
883.0248, 36.45344
883.5070, 36.56239
883.9891, 36.61040
884.4712, 36.37288
884.9533, 35.77761
885.4354, 35.27411
885.9175, 35.29787
886.3997, 35.64320
886.8818, 35.93129
887.3639, 36.14171
887.8460, 36.26690
888.3281, 36.14227
888.8102, 36.07318
889.2924, 36.33397
889.7745, 36.88722
890.2566, 37.09259
890.7387, 36.83735
891.2208, 36.57152
891.7029, 36.49539
892.1851, 36.52759
892.6672, 36.46320
893.1493, 36.31409
893.6314, 36.13378
894.1135, 35.83242
894.5956, 35.62353
895.0778, 35.83929
895.5599, 36.22597
896.0420, 36.08246
896.5241, 34.95002
897.0062, 34.21796
897.4883, 34.22704
897.9705, 34.57630
898.4526, 34.48491
898.9347, 34.06902
899.4168, 33.86999
899.8989, 34.04379
900.3810, 34.39992
900.8632, 35.02648
901.3453, 35.63643
901.8274, 35.91050
902.3095, 35.70530
902.7916, 35.19705
903.2737, 34.02520
903.7559, 33.08950
904.2380, 33.50340
904.7201, 35.06722
905.2022, 35.72981
905.6843, 35.34855
906.1664, 34.81529
906.6486, 34.86738
907.1307, 35.09431
907.6128, 35.15829
908.0949, 35.02295
908.5770, 34.69522
909.0591, 33.88923
909.5413, 33.30687
910.0234, 33.29625
910.5055, 33.76039
910.9876, 34.15779
911.4697, 34.48442
911.9518, 34.65926
912.4340, 34.54212
912.9161, 34.32623
913.3982, 34.06692
913.8803, 33.86263
914.3624, 33.99064
914.8445, 35.25288
915.3267, 35.87753
915.8088, 35.26735
916.2909, 34.08384
916.7730, 33.72296
917.2551, 34.16162
917.7372, 34.38658
918.2194, 34.10907
918.7015, 33.73944
919.1836, 33.70067
919.6657, 33.85899
920.1478, 34.03762
920.6299, 34.21025
921.1121, 34.36852
921.5942, 34.49350
922.0763, 34.62740
922.5584, 34.86886
923.0405, 35.23214
923.5226, 35.13304
924.0048, 34.51878
924.4869, 34.07328
924.9690, 34.61397
925.4511, 35.46130
925.9332, 35.87965
926.4153, 35.82722
926.8975, 35.56149
927.3796, 34.84055
927.8617, 34.26320
928.3438, 34.04019
928.8259, 34.12020
929.3080, 34.29142
929.7902, 34.55100
930.2723, 34.68209
930.7544, 34.48780
931.2365, 34.23582
931.7186, 34.21181
932.2007, 34.36882
932.6829, 34.60936
933.1650, 35.00692
933.6471, 35.37067
934.1292, 35.82502
934.6113, 36.10239
935.0934, 35.60949
935.5756, 34.35626
936.0577, 33.83137
936.5398, 34.33081
937.0219, 34.98530
937.5040, 34.89646
937.9861, 34.50234
938.4683, 34.31026
938.9504, 34.43833
939.4325, 34.57844
939.9146, 34.77337
940.3967, 34.84239
940.8788, 34.58958
941.3610, 34.06812
941.8431, 34.01299
942.3252, 34.41064
942.8073, 34.88586
943.2894, 35.39905
943.7715, 35.71208
944.2537, 35.42187
944.7358, 34.71235
945.2179, 34.26609
945.7000, 34.33118
946.1821, 34.57108
946.6642, 35.06930
947.1464, 35.59045
947.6285, 35.53090
948.1106, 34.97911
948.5927, 34.61893
949.0748, 34.66326
949.5569, 34.80522
950.0391, 34.83635
950.5212, 34.78119
951.0033, 34.64561
951.4854, 34.29999
951.9675, 34.21629
952.4496, 34.52990
952.9318, 34.87576
953.4139, 34.87446
953.8960, 34.63054
954.3781, 34.90321
954.8602, 35.65888
955.3423, 36.19143
955.8245, 35.91739
956.3066, 35.34823
956.7887, 34.63322
957.2708, 33.87484
957.7529, 33.70439
958.2350, 34.48305
958.7172, 35.00436
959.1993, 34.87850
959.6814, 34.39592
960.1635, 34.09370
960.6456, 33.96200
961.1277, 33.99564
961.6099, 34.28537
962.0920, 34.55053
962.5741, 34.66746
963.0562, 34.65435
963.5383, 34.52252
964.0204, 34.22454
964.5026, 33.93834
964.9847, 33.64279
965.4668, 33.44484
965.9489, 33.39197
966.4310, 33.52574
966.9131, 34.18613
967.3953, 35.30439
967.8774, 35.85039
968.3595, 34.64415
968.8416, 33.39180
969.3237, 32.83461
969.8058, 32.91447
970.2880, 33.60738
970.7701, 35.06340
971.2522, 35.85628
971.7343, 35.29086
972.2164, 34.20319
972.6985, 33.58511
973.1807, 33.37107
973.6628, 33.45855
974.1449, 34.23862
974.6270, 34.60471
975.1091, 34.06479
975.5912, 33.30073
976.0734, 32.90987
976.5555, 32.89791
977.0376, 32.98339
977.5197, 33.15084
978.0018, 33.45890
978.4839, 34.20281
978.9661, 34.94309
979.4482, 35.25081
979.9303, 35.10769
980.4124, 34.71349
980.8945, 33.69743
981.3766, 33.10183
981.8588, 33.38551
982.3409, 34.16661
982.8230, 34.31963
983.3051, 33.96315
983.7872, 33.72821
984.2693, 33.90203
984.7515, 34.14016
985.2336, 34.28661
985.7157, 34.31716
986.1978, 34.16624
986.6799, 33.59526
987.1620, 33.45663
987.6442, 33.88892
988.1263, 34.36646
988.6084, 34.24372
989.0905, 33.84124
989.5726, 34.06815
990.0547, 34.89996
990.5369, 35.57248
991.0190, 35.71169
991.5011, 35.56842
991.9832, 35.05180
992.4653, 34.35912
992.9474, 34.22882
993.4296, 34.73186
993.9117, 35.09929
994.3938, 34.99195
994.8759, 34.90068
995.3580, 35.81622
995.8401, 37.08956
996.3223, 37.65854
996.8044, 36.85631
997.2865, 36.20130
997.7686, 35.84679
998.2507, 35.77978
998.7328, 36.14299
999.2150, 36.89738
999.6971, 37.17801
1000.179, 36.98331
1000.661, 36.61811
1001.143, 36.02682
1001.626, 35.57603
1002.108, 35.67471
1002.590, 36.20048
1003.072, 36.51051
1003.554, 36.54980
1004.036, 36.36679
1004.518, 35.84790
1005.000, 35.33991
1005.482, 35.58527
1005.965, 36.31485
1006.447, 36.80694
1006.929, 36.85742
1007.411, 36.80817
1007.893, 36.65321
1008.375, 36.61028
1008.857, 36.90568
1009.339, 37.59373
1009.822, 37.78506
1010.304, 37.42894
1010.786, 37.13238
1011.268, 37.40107
1011.750, 37.86225
1012.232, 37.99091
1012.714, 37.91377
1013.196, 38.00306
1013.678, 38.69286
1014.161, 39.10865
1014.643, 39.05733
1015.125, 38.76094
1015.607, 38.45301
1016.089, 38.16463
1016.571, 38.17083
1017.053, 38.55006
1017.535, 38.78936
1018.018, 38.29918
1018.500, 37.66479
1018.982, 37.38748
1019.464, 37.50703
1019.946, 37.42568
1020.428, 37.06574
1020.910, 36.79504
1021.392, 36.79571
1021.874, 36.95478
1022.357, 37.14758
1022.839, 37.31618
1023.321, 37.31769
1023.803, 36.93610
1024.285, 36.61636
1024.767, 36.48797
1025.249, 36.44625
1025.731, 36.41494
1026.214, 36.39434
1026.696, 36.36456
1027.178, 36.32795
1027.660, 36.15232
1028.142, 35.43053
1028.624, 34.76545
1029.106, 34.88279
1029.588, 35.66389
1030.070, 35.90009
1030.553, 35.17581
1031.035, 34.76860
1031.517, 35.10497
1031.999, 35.70994
1032.481, 35.78023
1032.963, 35.42723
1033.445, 34.88129
1033.927, 34.09618
1034.410, 33.49487
1034.892, 33.37634
1035.374, 33.42936
1035.856, 33.43164
1036.338, 33.37931
1036.820, 33.47461
1037.302, 33.71856
1037.784, 33.97849
1038.266, 34.25641
1038.749, 34.44038
1039.231, 34.38498
1039.713, 34.14720
1040.195, 33.85898
1040.677, 33.48995
1041.159, 33.14969
1041.641, 32.78755
1042.123, 32.57055
1042.605, 32.88601
1043.088, 33.49119
1043.570, 33.56579
1044.052, 33.02552
1044.534, 32.68196
1045.016, 33.19471
1045.498, 33.79778
1045.980, 34.15874
1046.462, 34.27760
1046.945, 34.06152
1047.427, 33.49163
1047.909, 33.08652
1048.391, 33.01755
1048.873, 33.18302
1049.355, 33.68893
1049.837, 34.27248
1050.319, 34.57273
1050.802, 34.39134
1051.284, 34.21004
1051.766, 34.07360
1052.248, 33.85973
1052.730, 33.38559
1053.212, 32.78224
1053.694, 32.44644
1054.176, 32.35930
1054.658, 32.42640
1055.141, 32.69295
1055.623, 33.00339
1056.105, 33.47349
1056.587, 33.85697
1057.069, 33.60902
1057.551, 32.69525
1058.033, 32.46334
1058.515, 33.14138
1058.997, 33.95784
1059.480, 34.31356
1059.962, 34.41240
1060.444, 34.45104
1060.926, 34.43931
1061.408, 34.18392
1061.890, 33.56452
1062.372, 33.01392
1062.854, 32.66302
1063.337, 32.49204
1063.819, 32.56213
1064.301, 32.77295
1064.783, 32.89942
1065.265, 32.83881
1065.747, 32.78279
1066.229, 32.86824
1066.711, 32.89674
1067.193, 32.66695
1067.676, 32.20766
1068.158, 32.13918
1068.640, 32.43304
1069.122, 32.66911
1069.604, 32.64151
1070.086, 32.42002
1070.568, 31.74718
1071.050, 30.98680
1071.532, 30.99780
1072.015, 32.16408
1072.497, 32.76195
1072.979, 32.57386
1073.461, 32.03918
1073.943, 31.37266
1074.425, 30.79360
1074.907, 30.71961
1075.389, 31.15540
1075.872, 31.40710
1076.354, 31.10545
1076.836, 30.88177
1077.318, 30.93259
1077.800, 31.13583
1078.282, 31.22217
1078.764, 31.22140
1079.246, 31.24486
1079.729, 31.32407
1080.211, 31.42204
1080.693, 31.66744
1081.175, 31.78839
1081.657, 31.52626
1082.139, 30.88151
1082.621, 30.50891
1083.103, 30.40734
1083.585, 30.50086
1084.068, 30.98867
1084.550, 31.39541
1085.032, 31.04467
1085.514, 30.34414
1085.996, 30.06142
1086.478, 30.59138
1086.960, 30.85155
1087.442, 30.78190
1087.924, 30.52442
1088.406, 30.07963
1088.889, 29.59759
1089.371, 29.34583
1089.853, 29.32133
1090.335, 29.41471
1090.817, 29.86454
1091.299, 30.04503
1091.781, 29.71136
1092.263, 29.14743
1092.746, 28.83326
1093.228, 28.74813
1093.710, 28.83528
1094.192, 29.10026
1094.674, 29.38115
1095.156, 29.80284
1095.638, 29.98794
1096.120, 29.45929
1096.603, 28.39745
1097.085, 28.18486
1097.567, 28.85330
1098.049, 29.57639
1098.531, 30.14410
1099.013, 30.45415
1099.495, 30.26717
1099.977, 29.82885
1100.459, 29.45939
1100.942, 29.27603
1101.424, 28.88303
1101.906, 28.13645
1102.388, 27.65034
1102.870, 28.05781
1103.352, 28.86369
1103.834, 29.04188
1104.316, 28.80774
1104.798, 28.76135
1105.281, 29.48576
1105.763, 29.86160
1106.245, 29.62656
1106.727, 29.18612
1107.209, 28.94613
1107.691, 28.88777
1108.173, 29.00021
1108.655, 29.26767
1109.138, 29.49303
1109.620, 29.50007
1110.102, 29.51583
1110.584, 29.77274
1111.066, 30.05771
1111.548, 29.79661
1112.030, 29.00311
1112.512, 28.55826
1112.995, 28.64903
1113.477, 28.88266
1113.959, 28.96489
1114.441, 29.00243
1114.923, 29.11860
1115.405, 29.30928
1115.887, 29.34683
1116.369, 29.23538
1116.851, 28.91068
1117.333, 28.24066
1117.816, 27.57522
1118.298, 27.40749
1118.780, 27.53560
1119.262, 27.69537
1119.744, 27.90178
1120.226, 27.90437
1120.708, 27.64836
1121.190, 27.30960
1121.673, 26.89684
1122.155, 26.52851
1122.637, 26.52334
1123.119, 26.79080
1123.601, 27.08091
1124.083, 27.21426
1124.565, 27.50693
1125.047, 28.22704
1125.530, 28.82707
1126.012, 28.66319
1126.494, 27.90519
1126.976, 27.49611
1127.458, 27.43400
1127.940, 27.43152
1128.422, 27.31101
1128.904, 27.23052
1129.386, 27.22505
1129.869, 27.32188
1130.351, 27.80277
1130.833, 28.64433
1131.315, 28.10196
1131.797, 25.85786
1132.279, 24.26900
1132.761, 26.16907
1133.243, 28.56425
1133.725, 29.07892
1134.208, 28.05899
1134.690, 27.70359
1135.172, 28.11538
1135.654, 28.43919
1136.136, 28.48963
1136.618, 28.33890
1137.100, 27.86979
1137.582, 27.36821
1138.065, 27.18986
1138.547, 27.43926
1139.029, 27.55828
1139.511, 27.53892
1139.993, 27.38422
1140.475, 27.02993
1140.957, 26.64728
1141.439, 26.52272
1141.922, 26.55681
1142.404, 26.57716
1142.886, 26.53034
1143.368, 26.49943
1143.850, 26.48121
1144.332, 26.50031
1144.814, 26.60389
1145.296, 26.73878
1145.778, 26.77032
1146.260, 26.71568
1146.743, 26.62561
1147.225, 26.37593
1147.707, 26.31543
1148.189, 26.60120
1148.671, 26.92776
1149.153, 27.07540
1149.635, 27.03579
1150.117, 26.58474
1150.600, 25.81738
1151.082, 25.39872
1151.564, 26.17438
1152.046, 26.73255
1152.528, 26.27199
1153.010, 25.56094
1153.492, 25.80422
1153.974, 26.87415
1154.457, 27.20564
1154.939, 26.66854
1155.421, 26.16619
1155.903, 26.41871
1156.385, 26.77600
1156.867, 26.91650
1157.349, 26.85947
1157.831, 26.56688
1158.313, 26.03149
1158.796, 25.64124
1159.278, 25.44402
1159.760, 25.51929
1160.242, 26.40819
1160.724, 27.20992
1161.206, 26.93823
1161.688, 25.78221
1162.170, 25.36633
1162.652, 25.75893
1163.135, 26.15862
1163.617, 26.36990
1164.099, 26.42149
1164.581, 26.22909
1165.063, 25.96921
1165.545, 25.87994
1166.027, 26.01452
1166.509, 25.77825
1166.992, 25.03513
1167.474, 24.71477
1167.956, 25.40032
1168.438, 26.31783
1168.920, 26.50392
1169.402, 26.25576
1169.884, 25.95388
1170.366, 25.55161
1170.849, 25.57454
1171.331, 26.17016
1171.813, 26.66792
1172.295, 26.56920
1172.777, 26.26435
1173.259, 26.47622
1173.741, 26.94895
1174.223, 27.17091
1174.705, 26.85145
1175.188, 26.53797
1175.670, 26.25226
1176.152, 25.93111
1176.634, 25.36019
1177.116, 24.79953
1177.598, 24.84712
1178.080, 25.33991
1178.562, 25.77001
1179.044, 26.07325
1179.527, 26.12096
1180.009, 25.81640
1180.491, 25.44696
1180.973, 25.23376
1181.455, 25.17929
1181.937, 25.35449
1182.419, 25.71576
1182.901, 26.05600
1183.384, 26.33387
1183.866, 26.52224
1184.348, 26.61313
1184.830, 26.62711
1185.312, 26.54770
1185.794, 26.42070
1186.276, 26.42187
1186.758, 26.53847
1187.240, 26.49694
1187.723, 25.96938
1188.205, 25.55583
1188.687, 25.44955
1189.169, 25.45611
1189.651, 25.16055
1190.133, 24.71825
1190.615, 24.69946
1191.097, 25.17922
1191.579, 25.54502
1192.062, 25.57271
1192.544, 25.34044
1193.026, 24.73278
1193.508, 24.04215
1193.990, 23.94341
1194.472, 24.31431
1194.954, 24.83739
1195.436, 25.51543
1195.919, 25.76963
1196.401, 24.70997
1196.883, 23.91351
1197.365, 24.11614
1197.847, 24.96825
1198.329, 25.56505
1198.811, 25.92400
1199.293, 26.11080
1199.776, 26.12711
1200.258, 26.05165
1200.740, 25.90024
1201.222, 25.66913
1201.704, 25.28183
1202.186, 24.84455
1202.668, 24.82729
1203.150, 25.15605
1203.632, 25.55898
1204.115, 26.00418
1204.597, 26.35613
1205.079, 26.62532
1205.561, 26.68622
1206.043, 26.42419
1206.525, 25.89809
1207.007, 25.30014
1207.489, 24.69568
1207.971, 24.35442
1208.454, 24.39745
1208.936, 24.69683
1209.418, 25.52569
1209.900, 26.28410
1210.382, 26.55332
1210.864, 26.39940
1211.346, 26.16768
1211.828, 25.89803
1212.311, 25.80315
1212.793, 26.16509
1213.275, 26.43045
1213.757, 26.44367
1214.239, 26.23033
1214.721, 25.66457
1215.203, 24.83890
1215.685, 24.50152
1216.167, 24.58739
1216.650, 24.73736
1217.132, 24.82804
1217.614, 24.88410
1218.096, 24.93235
1218.578, 24.92979
1219.060, 24.74443
1219.542, 24.44684
1220.024, 24.63611
1220.506, 25.21744
1220.989, 25.61439
1221.471, 25.39628
1221.953, 25.14720
1222.435, 25.10198
1222.917, 25.02128
1223.399, 24.43126
1223.881, 23.56081
1224.363, 23.84229
1224.846, 25.09029
1225.328, 25.90286
1225.810, 25.00730
1226.292, 24.37931
1226.774, 24.56553
1227.256, 25.10560
1227.738, 25.57754
1228.220, 25.93991
1228.703, 25.94219
1229.185, 25.64300
1229.667, 25.51873
1230.149, 26.17896
1230.631, 26.47342
1231.113, 26.02679
1231.595, 25.32936
1232.077, 24.91598
1232.559, 24.77369
1233.042, 25.05624
1233.524, 25.68021
1234.006, 25.94044
1234.488, 24.98008
1234.970, 24.45056
1235.452, 24.80920
1235.934, 25.44665
1236.416, 25.53758
1236.898, 25.28712
1237.381, 25.16011
1237.863, 25.17479
1238.345, 25.08598
1238.827, 24.45852
1239.309, 24.35776
1239.791, 25.19001
1240.273, 26.11411
1240.755, 25.83959
1241.238, 24.92814
1241.720, 24.32489
1242.202, 24.12124
1242.684, 24.27946
1243.166, 25.15310
1243.648, 25.56227
1244.130, 25.15747
1244.612, 24.57020
1245.094, 24.79363
1245.577, 25.28469
1246.059, 25.07985
1246.541, 24.16887
1247.023, 23.76391
1247.505, 24.09183
1247.987, 24.57474
1248.469, 25.15859
1248.951, 25.62088
1249.433, 25.52120
1249.916, 25.23490
1250.398, 25.20751
1250.880, 25.47100
1251.362, 25.75157
1251.844, 26.07605
1252.326, 26.23927
1252.808, 26.17969
1253.290, 26.01169
1253.773, 25.75582
1254.255, 25.53252
1254.737, 25.44967
1255.219, 25.52201
1255.701, 25.80832
1256.183, 26.38388
1256.665, 26.36983
1257.147, 25.41442
1257.630, 24.68947
1258.112, 25.92813
1258.594, 27.33158
1259.076, 27.05788
1259.558, 25.55722
1260.040, 24.92854
1260.522, 25.16424
1261.004, 25.20889
1261.486, 24.77898
1261.969, 24.49609
1262.451, 25.13615
1262.933, 25.77961
1263.415, 25.68847
1263.897, 25.15741
1264.379, 25.26169
1264.861, 25.89758
1265.343, 26.29692
1265.825, 26.27800
1266.308, 26.13147
1266.790, 25.93469
1267.272, 25.74815
1267.754, 25.57116
1268.236, 25.44761
1268.718, 25.53489
1269.200, 25.77697
1269.682, 25.93624
1270.165, 25.94534
1270.647, 26.10192
1271.129, 26.87340
1271.611, 27.35198
1272.093, 27.15888
1272.575, 26.63272
1273.057, 26.55034
1273.539, 26.63693
1274.021, 26.11535
1274.504, 24.75557
1274.986, 24.07506
1275.468, 24.55287
1275.950, 25.28141
1276.432, 26.15220
1276.914, 26.81229
1277.396, 26.44333
1277.878, 25.64389
1278.360, 25.40803
1278.843, 25.90262
1279.325, 25.91831
1279.807, 25.17352
1280.289, 24.83245
1280.771, 25.29818
1281.253, 26.01015
1281.735, 26.54084
1282.217, 26.78621
1282.700, 26.48504
1283.182, 25.68182
1283.664, 25.28947
1284.146, 25.34283
1284.628, 25.38633
1285.110, 25.28162
1285.592, 25.26755
1286.074, 25.63457
1286.557, 26.10991
1287.039, 26.63706
1287.521, 27.07834
1288.003, 26.65864
1288.485, 25.49917
1288.967, 25.20220
1289.449, 26.23690
1289.931, 27.09063
1290.413, 26.59461
1290.896, 25.92435
1291.378, 25.69152
1291.860, 25.68401
1292.342, 25.23095
1292.824, 24.54513
1293.306, 24.47312
1293.788, 25.20944
1294.270, 25.72349
1294.752, 25.34859
1295.235, 25.02326
1295.717, 25.00451
1296.199, 25.13715
1296.681, 25.19791
1297.163, 25.20086
1297.645, 25.10961
1298.127, 24.92230
1298.609, 25.02630
1299.092, 25.67245
1299.574, 25.95910
1300.056, 25.59091
1300.538, 25.10495
1301.020, 25.21793
1301.502, 25.53460
1301.984, 25.58664
1302.466, 25.36447
1302.948, 25.18233
1303.431, 24.99951
1303.913, 25.17265
1304.395, 25.76737
1304.877, 26.76453
##END=



