##NAMES=Enstatite
##RRUFFID=R060744
##IDEAL CHEMISTRY=MgSiO_3_
##LOCALITY=Orissa, India
##OWNER=RRUFF
##SOURCE=Herb Obodda
##DESCRIPTION=Brown transparent fragment
##STATUS=The identification of this mineral has been confirmed by X-ray diffraction and chemical analysis
##URL=rruff.info/R060744
##MEASURED CHEMISTRY=(Mg_0.85_Fe^2+^_0.13_Fe^3+^_0.01_Mn_0.01_)_Σ=1_(Si_0.99_Al_0.01_)_Σ=1_O_3_; trace amounts of Ca; Fe^2+^ and Fe^3+^ splitted by charge balance
124.898, 17545.850
125.380, 18197.461
125.862, 18880.590
126.344, 19561.980
126.826, 20244.910
127.308, 20909.721
127.790, 21478.381
128.273, 21931.830
128.755, 22247.020
129.237, 22345.789
129.719, 22173.230
130.201, 21803.381
130.683, 21340.760
131.165, 20776.211
131.648, 20216.850
132.130, 19737.760
132.612, 19339.250
133.094, 19056.000
133.576, 18937.590
134.058, 18956.391
134.540, 18937.240
135.022, 18868.250
135.504, 18791.420
135.986, 18763.600
136.469, 18785.740
136.951, 18847.131
137.433, 18952.180
137.915, 19104.119
138.397, 19264.359
138.879, 19445.730
139.361, 19626.141
139.843, 19743.480
140.326, 19776.891
140.808, 19800.891
141.290, 19868.869
141.772, 20010.410
142.254, 20104.180
142.736, 20127.150
143.218, 20088.320
143.700, 20056.131
144.182, 20028.510
144.665, 20008.920
145.147, 20000.850
145.629, 20009.100
146.111, 20019.189
146.593, 20030.439
147.075, 20043.631
147.557, 20044.930
148.039, 20016.010
148.521, 19983.150
149.004, 19977.400
149.486, 20030.400
149.968, 20077.840
150.450, 20104.350
150.932, 20101.670
151.414, 20100.000
151.896, 20101.289
152.378, 20105.131
152.861, 20110.221
153.343, 20112.869
153.825, 20122.260
154.307, 20143.240
154.789, 20188.301
155.271, 20229.811
155.753, 20253.971
156.235, 20269.949
156.717, 20308.391
157.200, 20391.020
157.682, 20488.711
158.164, 20584.020
158.646, 20674.551
159.128, 20759.400
159.610, 20832.570
160.092, 20894.801
160.574, 20961.711
161.057, 21052.100
161.539, 21142.010
162.021, 21209.510
162.503, 21210.580
162.985, 21216.279
163.467, 21266.311
163.949, 21363.881
164.431, 21457.061
164.913, 21524.461
165.396, 21571.949
165.878, 21607.650
166.360, 21636.131
166.842, 21654.381
167.324, 21658.070
167.806, 21644.971
168.288, 21630.330
168.770, 21626.680
169.253, 21629.721
169.735, 21629.529
170.217, 21604.150
170.699, 21581.561
171.181, 21595.020
171.663, 21664.820
172.145, 21738.359
172.627, 21764.510
173.109, 21754.189
173.592, 21747.971
174.074, 21766.850
174.556, 21806.279
175.038, 21861.570
175.520, 21941.160
176.002, 22024.381
176.484, 22084.250
176.966, 22122.561
177.449, 22157.211
177.931, 22194.580
178.413, 22237.820
178.895, 22296.051
179.377, 22387.100
179.859, 22485.840
180.341, 22545.250
180.823, 22565.211
181.305, 22582.580
181.788, 22634.170
182.270, 22712.500
182.752, 22794.250
183.234, 22876.471
183.716, 22954.650
184.198, 23014.500
184.680, 23054.730
185.162, 23083.311
185.645, 23112.461
186.127, 23139.830
186.609, 23152.711
187.091, 23126.500
187.573, 23076.330
188.055, 23067.551
188.537, 23108.211
189.019, 23173.471
189.501, 23231.730
189.984, 23283.609
190.466, 23330.750
190.948, 23375.141
191.430, 23416.740
191.912, 23453.811
192.394, 23490.869
192.876, 23516.529
193.358, 23493.789
193.840, 23418.961
194.323, 23356.119
194.805, 23362.500
195.287, 23435.660
195.769, 23479.250
196.251, 23475.420
196.733, 23440.289
197.215, 23417.689
197.697, 23408.039
198.180, 23409.381
198.662, 23423.080
199.144, 23450.279
199.626, 23478.270
200.108, 23506.430
200.590, 23533.779
201.072, 23553.330
201.554, 23562.949
202.036, 23571.080
202.519, 23581.010
203.001, 23589.910
203.483, 23618.301
203.965, 23681.900
204.447, 23773.570
204.929, 23812.539
205.411, 23779.779
205.893, 23733.779
206.376, 23746.689
206.858, 23836.410
207.340, 23905.641
207.822, 23920.439
208.304, 23879.789
208.786, 23866.891
209.268, 23891.350
209.750, 23931.100
210.232, 23961.199
210.714, 23985.010
211.197, 23990.789
211.679, 23964.750
212.161, 23898.920
212.643, 23880.279
213.125, 23924.670
213.607, 24001.221
214.089, 24065.770
214.572, 24120.381
215.054, 24157.551
215.536, 24163.711
216.018, 24121.090
216.500, 24127.221
216.982, 24199.369
217.464, 24306.420
217.946, 24387.650
218.428, 24426.920
218.911, 24468.619
219.393, 24534.439
219.875, 24637.779
220.357, 24721.199
220.839, 24775.939
221.321, 24814.070
221.803, 24870.891
222.285, 24958.949
222.767, 25044.779
223.250, 25108.270
223.732, 25132.109
224.214, 25182.010
224.696, 25268.010
225.178, 25380.400
225.660, 25491.811
226.142, 25592.340
226.624, 25705.830
227.107, 25845.961
227.589, 26028.070
228.071, 26203.029
228.553, 26362.930
229.035, 26513.631
229.517, 26682.199
229.999, 26876.830
230.481, 27081.289
230.963, 27286.420
231.445, 27495.859
231.928, 27703.859
232.410, 27919.061
232.892, 28137.369
233.374, 28317.439
233.856, 28480.971
234.338, 28581.850
234.820, 28585.211
235.303, 28455.670
235.785, 28298.480
236.267, 28124.539
236.749, 27931.920
237.231, 27711.670
237.713, 27451.930
238.195, 27182.131
238.677, 26920.311
239.159, 26651.221
239.641, 26420.410
240.124, 26225.949
240.606, 26070.141
241.088, 25984.221
241.570, 26013.529
242.052, 26064.711
242.534, 26056.689
243.016, 25942.199
243.498, 25858.990
243.981, 25839.010
244.463, 25880.359
244.945, 25892.561
245.427, 25857.350
245.909, 25809.600
246.391, 25777.961
246.873, 25762.260
247.355, 25761.061
247.837, 25777.230
248.320, 25810.510
248.802, 25840.750
249.284, 25868.230
249.766, 25892.080
250.248, 25912.770
250.730, 25934.369
251.212, 25947.039
251.694, 25949.090
252.176, 25941.340
252.659, 25929.711
253.141, 25912.590
253.623, 25895.949
254.105, 25884.490
254.587, 25876.279
255.069, 25880.369
255.551, 25902.520
256.033, 25943.461
256.516, 25979.020
256.998, 26009.369
257.480, 26033.801
257.962, 26050.609
258.444, 26056.250
258.926, 26059.561
259.408, 26055.600
259.890, 26042.600
260.372, 26060.699
260.855, 26117.010
261.337, 26194.660
261.819, 26280.711
262.301, 26387.160
262.783, 26470.410
263.265, 26515.420
263.747, 26520.920
264.229, 26532.211
264.711, 26549.631
265.194, 26571.930
265.676, 26599.301
266.158, 26634.561
266.640, 26665.850
267.122, 26690.990
267.604, 26710.510
268.086, 26721.590
268.569, 26721.520
269.051, 26718.811
269.533, 26720.400
270.015, 26724.090
270.497, 26743.961
270.979, 26793.150
271.461, 26870.500
271.943, 26910.830
272.425, 26905.020
272.908, 26881.230
273.390, 26869.301
273.872, 26870.920
274.354, 26877.211
274.836, 26887.090
275.318, 26900.070
275.800, 26910.410
276.282, 26915.740
276.764, 26923.039
277.247, 26939.391
277.729, 26964.850
278.211, 26998.330
278.693, 27047.730
279.175, 27106.910
279.657, 27120.740
280.139, 27073.949
280.621, 27029.740
281.103, 27072.270
281.586, 27207.260
282.068, 27308.279
282.550, 27332.619
283.032, 27295.789
283.514, 27269.859
283.996, 27254.471
284.478, 27252.510
284.960, 27269.529
285.443, 27305.721
285.925, 27349.330
286.407, 27399.070
286.889, 27453.891
287.371, 27512.900
287.853, 27577.750
288.335, 27635.381
288.817, 27664.211
289.299, 27668.820
289.782, 27689.820
290.264, 27740.660
290.746, 27811.650
291.228, 27884.070
291.710, 27958.150
292.192, 28022.590
292.674, 28059.279
293.156, 28074.869
293.638, 28099.381
294.121, 28147.650
294.603, 28202.199
295.085, 28228.039
295.567, 28226.359
296.049, 28217.811
296.531, 28221.070
297.013, 28231.881
297.496, 28237.520
297.978, 28236.381
298.460, 28228.699
298.942, 28203.670
299.424, 28165.221
299.906, 28144.760
300.388, 28176.109
300.870, 28240.539
301.352, 28300.881
301.835, 28346.900
302.317, 28386.539
302.799, 28419.801
303.281, 28449.721
303.763, 28496.891
304.245, 28603.570
304.727, 28726.260
305.209, 28796.750
305.691, 28785.529
306.174, 28751.051
306.656, 28742.949
307.138, 28756.189
307.620, 28773.160
308.102, 28779.311
308.584, 28787.289
309.066, 28814.359
309.548, 28873.350
310.030, 28929.609
310.513, 28950.051
310.995, 28949.289
311.477, 28960.859
311.959, 29012.119
312.441, 29076.180
312.923, 29132.600
313.405, 29178.189
313.887, 29217.270
314.370, 29240.340
314.852, 29260.000
315.334, 29299.609
315.816, 29392.039
316.298, 29489.539
316.780, 29558.939
317.262, 29585.051
317.744, 29633.359
318.226, 29759.570
318.709, 29916.779
319.191, 30039.141
319.673, 30050.289
320.155, 30072.250
320.637, 30153.520
321.119, 30302.080
321.601, 30483.510
322.083, 30713.131
322.565, 30960.730
323.048, 31192.801
323.530, 31375.320
324.012, 31567.660
324.494, 31780.119
324.976, 32012.131
325.458, 32273.260
325.940, 32581.711
326.422, 32910.230
326.905, 33238.609
327.387, 33519.910
327.869, 33849.781
328.351, 34266.160
328.833, 34764.129
329.315, 35227.570
329.797, 35603.141
330.279, 35983.602
330.762, 36436.879
331.244, 37005.289
331.726, 37584.449
332.208, 38161.520
332.690, 38742.000
333.172, 39367.809
333.654, 40054.602
334.136, 40759.379
334.618, 41470.699
335.100, 42199.488
335.583, 42894.039
336.065, 43563.090
336.547, 44190.781
337.029, 44755.160
337.511, 45277.711
337.993, 45690.180
338.475, 45969.750
338.957, 46124.340
339.440, 46087.750
339.922, 45835.629
340.404, 45412.020
340.886, 44885.180
341.368, 44254.172
341.850, 43547.289
342.332, 42779.539
342.814, 41942.941
343.297, 41084.750
343.779, 40178.891
344.261, 39304.422
344.743, 38569.020
345.225, 37975.000
345.707, 37428.199
346.189, 36874.410
346.671, 36338.340
347.153, 35876.711
347.635, 35495.051
348.118, 35165.762
348.600, 34856.430
349.082, 34570.602
349.564, 34322.840
350.046, 34137.449
350.528, 33978.750
351.010, 33759.148
351.492, 33481.980
351.975, 33229.219
352.457, 33087.660
352.939, 33019.578
353.421, 32955.172
353.903, 32880.148
354.385, 32795.301
354.867, 32693.641
355.349, 32580.270
355.832, 32477.680
356.314, 32414.350
356.796, 32364.680
357.278, 32299.779
357.760, 32204.590
358.242, 32111.990
358.724, 32052.520
359.206, 32012.820
359.688, 31958.359
360.171, 31841.260
360.653, 31724.980
361.135, 31656.971
361.617, 31658.369
362.099, 31658.801
362.581, 31632.150
363.063, 31586.840
363.545, 31536.051
364.027, 31464.289
364.510, 31403.699
364.992, 31365.510
365.474, 31351.150
365.956, 31355.939
366.438, 31394.930
366.920, 31446.760
367.402, 31490.160
367.884, 31524.689
368.366, 31550.420
368.849, 31561.770
369.331, 31558.721
369.813, 31569.010
370.295, 31598.670
370.777, 31636.840
371.259, 31675.240
371.741, 31703.869
372.224, 31750.949
372.706, 31834.430
373.188, 31939.949
373.670, 31992.250
374.152, 31960.320
374.634, 31927.811
375.116, 31942.830
375.598, 32016.850
376.080, 32088.641
376.562, 32153.750
377.045, 32216.100
377.527, 32289.961
378.009, 32383.430
378.491, 32451.039
378.973, 32463.689
379.455, 32423.980
379.937, 32393.240
380.419, 32371.721
380.902, 32360.939
381.384, 32370.039
381.866, 32397.400
382.348, 32415.400
382.830, 32406.529
383.312, 32384.529
383.794, 32381.891
384.276, 32398.480
384.759, 32431.150
385.241, 32480.930
385.723, 32544.160
386.205, 32607.400
386.687, 32652.730
387.169, 32712.510
387.651, 32840.609
388.133, 33022.590
388.615, 33196.609
389.098, 33322.000
389.580, 33415.719
390.062, 33491.699
390.544, 33547.559
391.026, 33603.219
391.508, 33667.629
391.990, 33742.141
392.472, 33830.219
392.954, 33961.531
393.437, 34086.891
393.919, 34173.961
394.401, 34212.941
394.883, 34254.539
395.365, 34315.930
395.847, 34388.680
396.329, 34463.051
396.811, 34558.301
397.293, 34633.102
397.776, 34667.730
398.258, 34660.719
398.740, 34662.809
399.222, 34689.281
399.704, 34716.371
400.186, 34729.461
400.668, 34720.121
401.151, 34707.641
401.633, 34685.320
402.115, 34660.840
402.597, 34663.961
403.079, 34718.570
403.561, 34762.660
404.043, 34763.801
404.525, 34708.488
405.007, 34666.891
405.490, 34646.930
405.972, 34631.359
406.454, 34580.871
406.936, 34485.199
407.418, 34422.340
407.900, 34438.301
408.382, 34516.520
408.864, 34539.039
409.346, 34498.551
409.828, 34441.820
410.311, 34422.910
410.793, 34433.449
411.275, 34424.391
411.757, 34370.289
412.239, 34304.469
412.721, 34293.551
413.203, 34331.000
413.685, 34361.898
414.168, 34338.680
414.650, 34286.840
415.132, 34246.809
415.614, 34226.809
416.096, 34210.480
416.578, 34184.789
417.060, 34151.422
417.542, 34114.891
418.025, 34095.000
418.507, 34059.309
418.989, 33967.672
419.471, 33812.422
419.953, 33688.828
420.435, 33668.980
420.917, 33690.160
421.399, 33690.172
421.881, 33618.648
422.364, 33562.051
422.846, 33556.070
423.328, 33592.539
423.810, 33608.000
424.292, 33586.898
424.774, 33549.922
425.256, 33505.922
425.738, 33428.238
426.220, 33387.129
426.703, 33394.871
427.185, 33434.430
427.667, 33470.352
428.149, 33491.910
428.631, 33528.512
429.113, 33591.930
429.595, 33683.551
430.077, 33781.480
430.560, 33891.180
431.042, 33995.270
431.524, 34068.199
432.006, 34107.270
432.488, 34149.398
432.970, 34196.930
433.452, 34256.602
433.934, 34359.711
434.417, 34506.129
434.899, 34651.691
435.381, 34763.359
435.863, 34849.531
436.345, 34934.871
436.827, 35024.129
437.309, 35108.941
437.791, 35187.711
438.273, 35254.711
438.755, 35293.121
439.238, 35282.871
439.720, 35246.781
440.202, 35210.891
440.684, 35175.789
441.166, 35114.359
441.648, 35005.730
442.130, 34863.980
442.612, 34703.070
443.095, 34480.578
443.577, 34289.539
444.059, 34168.020
444.541, 34105.020
445.023, 34059.672
445.505, 34052.719
445.987, 34037.691
446.469, 33988.398
446.952, 33873.551
447.434, 33790.961
447.916, 33758.109
448.398, 33752.840
448.880, 33745.621
449.362, 33736.422
449.844, 33724.781
450.326, 33704.820
450.808, 33677.730
451.290, 33681.000
451.773, 33724.820
452.255, 33776.000
452.737, 33808.680
453.219, 33820.980
453.701, 33828.141
454.183, 33830.898
454.665, 33830.250
455.147, 33826.078
455.630, 33818.641
456.112, 33815.641
456.594, 33832.180
457.076, 33856.129
457.558, 33842.191
458.040, 33785.051
458.522, 33740.559
459.004, 33777.340
459.487, 33863.270
459.969, 33938.230
460.451, 33989.160
460.933, 34013.449
461.415, 33984.852
461.897, 33919.102
462.379, 33880.691
462.861, 33899.180
463.343, 33959.871
463.826, 34069.941
464.308, 34274.949
464.790, 34408.449
465.272, 34356.520
465.754, 34217.031
466.236, 34133.559
466.718, 34188.801
467.200, 34237.891
467.682, 34238.512
468.165, 34189.672
468.647, 34163.621
469.129, 34164.328
469.611, 34183.199
470.093, 34217.031
470.575, 34272.449
471.057, 34321.301
471.539, 34360.371
472.022, 34391.180
472.504, 34420.320
472.986, 34449.820
473.468, 34463.199
473.950, 34442.871
474.432, 34396.691
474.914, 34378.871
475.396, 34392.898
475.878, 34412.891
476.361, 34417.020
476.843, 34407.430
477.325, 34387.660
477.807, 34353.539
478.289, 34319.699
478.771, 34301.012
479.253, 34297.488
479.735, 34307.320
480.217, 34349.090
480.700, 34392.031
481.182, 34396.949
481.664, 34347.969
482.146, 34327.102
482.628, 34397.570
483.110, 34506.211
483.592, 34591.980
484.074, 34615.199
484.556, 34636.129
485.039, 34670.191
485.521, 34714.602
486.003, 34749.738
486.485, 34767.309
486.967, 34782.078
487.449, 34803.059
487.931, 34843.109
488.414, 34856.551
488.896, 34830.891
489.378, 34793.289
489.860, 34790.660
490.342, 34836.090
490.824, 34859.270
491.306, 34836.820
491.788, 34778.340
492.270, 34707.770
492.753, 34622.191
493.235, 34573.020
493.717, 34628.680
494.199, 34755.391
494.681, 34849.949
495.163, 34894.020
495.645, 34911.781
496.127, 34917.820
496.609, 34917.090
497.092, 34922.469
497.574, 34953.891
498.056, 34983.320
498.538, 34984.648
499.020, 34959.480
499.502, 34935.500
499.984, 34921.602
500.466, 34917.059
500.948, 34920.859
501.431, 34927.391
501.913, 34951.801
502.395, 35008.828
502.877, 35084.590
503.359, 35150.160
503.841, 35194.820
504.323, 35241.070
504.805, 35297.641
505.288, 35364.172
505.770, 35408.000
506.252, 35417.539
506.734, 35423.359
507.216, 35450.539
507.698, 35500.641
508.180, 35555.781
508.662, 35617.129
509.145, 35677.879
509.627, 35726.711
510.109, 35764.172
510.591, 35791.820
511.073, 35803.609
511.555, 35808.762
512.037, 35829.371
512.519, 35865.660
513.001, 35896.930
513.484, 35876.180
513.966, 35853.020
514.448, 35897.781
514.930, 36064.641
515.412, 36229.250
515.894, 36328.262
516.376, 36375.500
516.858, 36398.289
517.341, 36372.230
517.823, 36353.051
518.305, 36361.852
518.787, 36401.352
519.269, 36448.988
519.751, 36508.680
520.233, 36572.141
520.715, 36634.191
521.197, 36701.441
521.680, 36752.961
522.162, 36783.422
522.644, 36801.480
523.126, 36833.172
523.608, 36886.922
524.090, 36904.172
524.572, 36839.551
525.054, 36720.172
525.536, 36660.879
526.019, 36662.801
526.501, 36698.000
526.983, 36761.809
527.465, 36838.738
527.947, 36891.430
528.429, 36905.160
528.911, 36912.051
529.393, 36943.809
529.875, 36989.621
530.358, 37028.270
530.840, 37034.801
531.322, 37044.609
531.804, 37078.199
532.286, 37136.039
532.768, 37198.730
533.250, 37282.559
533.732, 37356.410
534.214, 37400.809
534.697, 37388.711
535.179, 37393.301
535.661, 37426.410
536.143, 37471.070
536.625, 37498.301
537.107, 37501.359
537.589, 37509.641
538.071, 37539.809
538.554, 37581.602
539.036, 37566.898
539.518, 37488.281
540.000, 37411.629
540.482, 37386.781
540.964, 37403.410
541.446, 37428.012
541.928, 37457.539
542.411, 37491.109
542.893, 37529.719
543.375, 37571.051
543.857, 37610.430
544.339, 37650.148
544.821, 37681.949
545.303, 37697.289
545.785, 37698.828
546.268, 37698.449
546.750, 37696.609
547.232, 37697.891
547.714, 37707.570
548.196, 37732.211
548.678, 37745.730
549.160, 37748.488
549.642, 37738.570
550.124, 37711.000
550.606, 37648.781
551.089, 37608.520
551.571, 37612.711
552.053, 37635.691
552.535, 37584.828
553.017, 37442.328
553.499, 37338.621
553.981, 37363.898
554.463, 37485.551
554.945, 37536.469
555.428, 37513.320
555.910, 37473.738
556.392, 37466.051
556.874, 37479.539
557.356, 37497.609
557.838, 37523.320
558.320, 37537.980
558.802, 37504.129
559.284, 37451.230
559.767, 37434.719
560.249, 37507.461
560.731, 37592.141
561.213, 37656.570
561.695, 37699.488
562.177, 37746.969
562.659, 37817.090
563.141, 37879.762
563.624, 37915.691
564.106, 37902.590
564.588, 37921.461
565.070, 37989.070
565.552, 38067.480
566.034, 38100.719
566.516, 38082.730
566.998, 38064.680
567.481, 38051.969
567.963, 38053.359
568.445, 38096.430
568.927, 38178.352
569.409, 38270.930
569.891, 38369.621
570.373, 38462.852
570.855, 38532.520
571.338, 38578.340
571.820, 38600.781
572.302, 38578.969
572.784, 38544.660
573.266, 38532.031
573.748, 38572.379
574.230, 38602.078
574.712, 38589.672
575.194, 38554.559
575.677, 38538.289
576.159, 38582.340
576.641, 38601.039
577.123, 38566.281
577.605, 38482.051
578.087, 38420.750
578.569, 38385.230
579.051, 38366.852
579.533, 38362.270
580.016, 38371.762
580.498, 38390.461
580.980, 38421.570
581.462, 38448.660
581.944, 38443.301
582.426, 38415.219
582.908, 38396.391
583.390, 38393.891
583.872, 38407.922
584.355, 38445.539
584.837, 38500.230
585.319, 38554.359
585.801, 38610.000
586.283, 38652.422
586.765, 38669.641
587.247, 38658.820
587.729, 38644.281
588.211, 38610.238
588.694, 38588.719
589.176, 38603.059
589.658, 38686.410
590.140, 38742.910
590.622, 38769.391
591.104, 38769.961
591.586, 38743.109
592.068, 38683.359
592.551, 38638.199
593.033, 38620.730
593.515, 38627.820
593.997, 38664.980
594.479, 38728.738
594.961, 38773.160
595.443, 38749.129
595.925, 38696.840
596.407, 38672.648
596.890, 38681.988
597.372, 38701.730
597.854, 38725.219
598.336, 38748.020
598.818, 38764.879
599.300, 38761.340
599.782, 38770.988
600.265, 38821.551
600.747, 38886.641
601.229, 38911.230
601.711, 38850.711
602.193, 38817.270
602.675, 38842.961
603.157, 38918.672
603.639, 38987.328
604.121, 39049.512
604.604, 39099.398
605.086, 39135.762
605.568, 39156.980
606.050, 39136.211
606.532, 39063.691
607.014, 39025.328
607.496, 38929.574
607.978, 39114.547
608.460, 39231.383
608.943, 39283.730
609.425, 39078.461
609.907, 39205.852
610.389, 39199.934
610.871, 39188.543
611.353, 39362.754
611.835, 39194.953
612.317, 39366.223
612.799, 39402.141
613.282, 39500.012
613.764, 39463.734
614.246, 39468.895
614.728, 39608.234
615.210, 39673.277
615.692, 39621.559
616.174, 39723.367
616.656, 39550.879
617.138, 39619.086
617.621, 39791.141
618.103, 39746.172
618.585, 39850.422
619.067, 39897.852
619.549, 39686.988
620.031, 39925.309
620.513, 39846.730
620.995, 39930.539
621.477, 39997.199
621.960, 40033.551
622.442, 40043.180
622.924, 40051.891
623.406, 40062.340
623.888, 40075.961
624.370, 40092.328
624.852, 40109.930
625.334, 40140.059
625.817, 40200.512
626.299, 40248.738
626.781, 40227.199
627.263, 40123.539
627.745, 40113.352
628.227, 40241.750
628.709, 40403.430
629.191, 40422.301
629.674, 40330.340
630.156, 40265.711
630.638, 40301.590
631.120, 40363.621
631.602, 40371.500
632.084, 40339.602
632.566, 40316.250
633.048, 40321.930
633.531, 40345.141
634.013, 40386.660
634.495, 40449.180
634.977, 40496.090
635.459, 40500.199
635.941, 40507.711
636.423, 40547.109
636.905, 40633.289
637.387, 40704.859
637.870, 40756.879
638.352, 40799.391
638.834, 40840.680
639.316, 40881.039
639.798, 40935.648
640.280, 41008.141
640.762, 41096.801
641.244, 41208.422
641.726, 41337.102
642.209, 41464.129
642.691, 41582.930
643.173, 41697.422
643.655, 41809.961
644.137, 41921.270
644.619, 42039.160
645.101, 42155.520
645.583, 42287.602
646.065, 42442.730
646.548, 42619.949
647.030, 42826.199
647.512, 43070.512
647.994, 43331.852
648.476, 43589.969
648.958, 43837.750
649.440, 44121.680
649.922, 44444.648
650.404, 44792.469
650.887, 45160.148
651.369, 45539.000
651.851, 45901.230
652.333, 46225.180
652.815, 46548.770
653.297, 46889.039
653.779, 47258.461
654.261, 47679.629
654.744, 48175.309
655.226, 48713.531
655.708, 49307.621
656.190, 49958.910
656.672, 50563.281
657.154, 51111.102
657.636, 51618.551
658.118, 52093.461
658.601, 52536.672
659.083, 52983.180
659.565, 53463.570
660.047, 53856.012
660.529, 54020.371
661.011, 53977.211
661.493, 53831.148
661.975, 53598.031
662.458, 53280.590
662.940, 52841.441
663.422, 52326.250
663.904, 51821.621
664.386, 51347.820
664.868, 50909.289
665.350, 50506.328
665.832, 50137.500
666.314, 49797.090
666.797, 49473.539
667.279, 49187.250
667.761, 48923.270
668.243, 48682.922
668.725, 48587.121
669.207, 48658.879
669.689, 48799.660
670.171, 48952.141
670.653, 49117.051
671.135, 49308.352
671.618, 49526.949
672.100, 49771.422
672.582, 50032.629
673.064, 50322.852
673.546, 50663.148
674.028, 51063.551
674.510, 51498.309
674.992, 51962.809
675.474, 52455.738
675.957, 52967.910
676.439, 53492.590
676.921, 54059.211
677.403, 54694.141
677.885, 55372.070
678.367, 56009.672
678.849, 56615.781
679.331, 57166.941
679.814, 57660.922
680.296, 58087.898
680.778, 58391.930
681.260, 58575.230
681.742, 58638.020
682.224, 58612.039
682.706, 58449.609
683.188, 58060.031
683.670, 57438.191
684.153, 56718.270
684.635, 55937.371
685.117, 55111.211
685.599, 54254.078
686.081, 53346.730
686.563, 52465.719
687.045, 51613.391
687.528, 50797.852
688.010, 50032.441
688.492, 49325.609
688.974, 48677.711
689.456, 48097.602
689.938, 47571.891
690.420, 47078.020
690.902, 46614.211
691.384, 46197.270
691.867, 45844.699
692.349, 45532.660
692.831, 45227.102
693.313, 44937.762
693.795, 44690.820
694.277, 44530.250
694.759, 44384.301
695.241, 44216.461
695.723, 44026.059
696.206, 43848.988
696.688, 43691.629
697.170, 43540.609
697.652, 43388.578
698.134, 43235.391
698.616, 43102.180
699.098, 42991.289
699.580, 42895.121
700.062, 42809.309
700.545, 42734.219
701.027, 42670.941
701.509, 42619.801
701.991, 42580.430
702.473, 42570.961
702.955, 42565.500
703.437, 42528.449
703.919, 42416.711
704.402, 42328.719
704.884, 42302.199
705.366, 42311.840
705.848, 42320.148
706.330, 42344.398
706.812, 42328.180
707.294, 42249.148
707.776, 42133.789
708.258, 42045.191
708.741, 41983.609
709.223, 41935.051
709.705, 41893.781
710.187, 41862.371
710.669, 41848.770
711.151, 41850.750
711.633, 41855.199
712.115, 41841.020
712.597, 41838.180
713.080, 41880.781
713.562, 41970.719
714.044, 42027.070
714.526, 41996.680
715.008, 41962.109
715.490, 41961.578
715.972, 42000.012
716.455, 42039.199
716.937, 42081.172
717.419, 42117.160
717.901, 42143.109
718.383, 42157.230
718.865, 42144.059
719.347, 42096.648
719.829, 42057.070
720.311, 42078.180
720.794, 42129.578
721.276, 42167.770
721.758, 42174.102
722.240, 42179.180
722.722, 42197.520
723.204, 42220.461
723.686, 42235.820
724.168, 42256.109
724.651, 42241.789
725.133, 42165.871
725.615, 42066.961
726.097, 42048.539
726.579, 42112.969
727.061, 42179.641
727.543, 42229.891
728.025, 42254.730
728.507, 42211.109
728.990, 42120.480
729.472, 42067.871
729.954, 42149.422
730.436, 42242.211
730.918, 42263.648
731.400, 42216.680
731.882, 42175.121
732.364, 42149.340
732.846, 42135.199
733.328, 42130.410
733.811, 42134.359
734.293, 42159.141
734.775, 42210.980
735.257, 42256.129
735.739, 42255.559
736.221, 42225.762
736.703, 42234.430
737.185, 42287.891
737.667, 42337.180
738.150, 42338.859
738.632, 42316.621
739.114, 42293.801
739.596, 42273.031
740.078, 42260.840
740.560, 42259.840
741.042, 42270.289
741.524, 42291.199
742.007, 42322.160
742.489, 42369.301
742.971, 42440.430
743.453, 42513.980
743.935, 42550.391
744.417, 42553.000
744.899, 42565.090
745.381, 42599.719
745.864, 42638.199
746.346, 42654.129
746.828, 42656.922
747.310, 42667.211
747.792, 42692.289
748.274, 42726.480
748.756, 42784.930
749.238, 42852.730
749.721, 42887.051
750.203, 42906.461
750.685, 42863.520
751.167, 42733.551
751.649, 42540.270
752.131, 42335.539
752.613, 42117.449
753.095, 41995.512
753.577, 42080.012
754.060, 42267.590
754.542, 42408.039
755.024, 42501.922
755.506, 42563.961
755.988, 42576.750
756.470, 42577.070
756.952, 42587.828
757.434, 42610.500
757.916, 42615.270
758.399, 42582.891
758.881, 42555.922
759.363, 42568.078
759.845, 42623.551
760.327, 42604.410
760.809, 42502.391
761.291, 42402.961
761.773, 42404.289
762.255, 42456.699
762.738, 42446.320
763.220, 42357.809
763.702, 42296.852
764.184, 42359.648
764.666, 42464.430
765.148, 42539.730
765.630, 42563.719
766.112, 42581.340
766.594, 42588.012
767.077, 42593.840
767.559, 42604.090
768.041, 42614.980
768.523, 42650.730
769.005, 42717.898
769.487, 42785.980
769.969, 42810.570
770.451, 42806.738
770.934, 42816.590
771.416, 42859.020
771.898, 42894.121
772.380, 42896.898
772.862, 42876.078
773.344, 42843.379
773.826, 42760.109
774.308, 42724.090
774.791, 42762.219
775.273, 42840.559
775.755, 42909.828
776.237, 42974.391
776.719, 43004.840
777.201, 42988.898
777.683, 42949.250
778.165, 42914.070
778.648, 42885.250
779.130, 42868.191
779.612, 42869.531
780.094, 42877.480
780.576, 42875.738
781.058, 42874.121
781.540, 42896.930
782.022, 42981.289
782.504, 43049.672
782.987, 43083.922
783.469, 43091.930
783.951, 43104.699
784.433, 43124.730
784.915, 43119.641
785.397, 43054.980
785.879, 42975.512
786.361, 42975.180
786.843, 43040.121
787.326, 43110.520
787.808, 43185.051
788.290, 43229.172
788.772, 43183.570
789.254, 43068.570
789.736, 43046.391
790.218, 43223.191
790.700, 43368.109
791.182, 43392.648
791.665, 43316.391
792.147, 43297.391
792.629, 43336.750
793.111, 43397.539
793.593, 43487.289
794.075, 43570.680
794.557, 43560.039
795.039, 43468.070
795.521, 43402.750
796.004, 43458.410
796.486, 43528.852
796.968, 43549.570
797.450, 43513.340
797.932, 43486.102
798.414, 43472.051
798.896, 43465.352
799.378, 43463.031
799.860, 43465.789
800.343, 43482.570
800.825, 43514.051
801.307, 43539.738
801.789, 43520.840
802.271, 43497.719
802.753, 43544.559
803.235, 43662.910
803.718, 43747.551
804.200, 43720.160
804.682, 43666.191
805.164, 43637.961
805.646, 43641.102
806.128, 43641.988
806.610, 43642.379
807.092, 43636.820
807.574, 43610.230
808.057, 43570.449
808.539, 43574.840
809.021, 43625.809
809.503, 43687.840
809.985, 43742.590
810.467, 43786.980
810.949, 43813.789
811.431, 43819.691
811.914, 43830.461
812.396, 43864.852
812.878, 43895.980
813.360, 43905.129
813.842, 43885.039
814.324, 43883.121
814.806, 43906.078
815.288, 43923.191
815.770, 43881.230
816.253, 43813.039
816.735, 43832.109
817.217, 43952.289
817.699, 44062.211
818.181, 44066.371
818.663, 44032.102
819.145, 44017.711
819.627, 44040.699
820.109, 44054.090
820.592, 44049.430
821.074, 44041.609
821.556, 44041.930
822.038, 44051.430
822.520, 44050.160
823.002, 44033.078
823.484, 44037.891
823.966, 44131.422
824.448, 44259.750
824.931, 44329.488
825.413, 44320.891
825.895, 44300.879
826.377, 44277.352
826.859, 44270.930
827.341, 44303.789
827.823, 44392.449
828.305, 44462.988
828.787, 44516.262
829.270, 44549.820
829.752, 44555.219
830.234, 44537.441
830.716, 44529.770
831.198, 44536.121
831.680, 44538.160
832.162, 44512.980
832.644, 44480.262
833.127, 44458.070
833.609, 44447.289
834.091, 44459.121
834.573, 44529.480
835.055, 44596.270
835.537, 44615.328
836.019, 44572.801
836.501, 44565.770
836.984, 44599.211
837.466, 44643.090
837.948, 44663.789
838.430, 44675.461
838.912, 44718.051
839.394, 44798.000
839.876, 44853.859
840.358, 44818.590
840.841, 44765.879
841.323, 44754.602
841.805, 44802.801
842.287, 44841.328
842.769, 44867.301
843.251, 44888.391
843.733, 44893.988
844.215, 44890.230
844.697, 44977.148
845.180, 45161.160
845.662, 45311.051
846.144, 45280.340
846.626, 45185.230
847.108, 45151.289
847.590, 45196.211
848.072, 45237.910
848.554, 45219.449
849.036, 45224.078
849.519, 45304.770
850.001, 45470.602
850.483, 45585.520
850.965, 45645.949
851.447, 45681.469
851.929, 45699.422
852.411, 45713.238
852.893, 45760.379
853.375, 45838.949
853.858, 45897.199
854.340, 45881.031
854.822, 45856.070
855.304, 45859.730
855.786, 45896.469
856.268, 45947.828
856.750, 46013.910
857.232, 46093.660
857.714, 46199.691
858.197, 46318.520
858.679, 46368.961
859.161, 46355.039
859.643, 46342.191
860.125, 46372.680
860.607, 46422.090
861.089, 46479.359
861.571, 46539.770
862.054, 46580.219
862.536, 46585.211
863.018, 46578.711
863.500, 46569.289
863.982, 46554.250
864.464, 46510.590
864.946, 46436.238
865.428, 46374.000
865.911, 46361.879
866.393, 46363.410
866.875, 46316.629
867.357, 46235.289
867.839, 46168.660
868.321, 46146.941
868.803, 46135.059
869.285, 46121.738
869.767, 46109.180
870.250, 46107.590
870.732, 46125.430
871.214, 46122.719
871.696, 46077.129
872.178, 46018.059
872.660, 46013.430
873.142, 46048.090
873.624, 46072.520
874.106, 46042.520
874.589, 46018.129
875.071, 46040.859
875.553, 46090.461
876.035, 46122.852
876.517, 46120.891
876.999, 46127.500
877.481, 46150.820
877.963, 46181.801
878.445, 46202.629
878.928, 46215.621
879.410, 46239.000
879.892, 46288.930
880.374, 46322.359
880.856, 46253.859
881.338, 46162.551
881.820, 46156.328
882.302, 46361.941
882.784, 46509.762
883.267, 46566.578
883.749, 46575.078
884.231, 46573.809
884.713, 46562.121
885.195, 46565.391
885.677, 46587.199
886.159, 46618.211
886.641, 46669.250
887.124, 46714.461
887.606, 46710.340
888.088, 46632.250
888.570, 46572.859
889.052, 46557.172
889.534, 46573.160
890.016, 46620.512
890.498, 46707.250
890.981, 46768.090
891.463, 46799.762
891.945, 46823.520
892.427, 46842.820
892.909, 46870.441
893.391, 46940.031
893.873, 47050.891
894.355, 47146.711
894.838, 47189.570
895.320, 47216.551
895.802, 47254.398
896.284, 47302.551
896.766, 47310.941
897.248, 47271.949
897.730, 47222.012
898.212, 47180.320
898.694, 47144.039
899.177, 47103.898
899.659, 47063.219
900.141, 47034.949
900.623, 47052.488
901.105, 47061.371
901.587, 47007.852
902.069, 46917.172
902.551, 46904.219
903.033, 47008.648
903.516, 47097.000
903.998, 47136.910
904.480, 47137.398
904.962, 47099.172
905.444, 47035.422
905.926, 47004.102
906.408, 47057.969
906.890, 47104.211
907.372, 47043.422
907.855, 46943.289
908.337, 46923.691
908.819, 47074.211
909.301, 47162.281
909.783, 47148.102
910.265, 47103.211
910.747, 47136.301
911.229, 47230.289
911.711, 47297.828
912.194, 47321.398
912.676, 47323.711
913.158, 47312.250
913.640, 47295.090
914.122, 47276.430
914.604, 47242.738
915.086, 47252.219
915.568, 47336.391
916.051, 47417.820
916.533, 47428.211
917.015, 47377.410
917.497, 47360.551
917.979, 47380.660
918.461, 47414.770
918.943, 47453.199
919.425, 47493.539
919.907, 47533.309
920.390, 47572.840
920.872, 47613.840
921.354, 47638.840
921.836, 47690.621
922.318, 47789.340
922.800, 47925.141
923.282, 48068.160
923.764, 48215.039
924.247, 48322.141
924.729, 48339.109
925.211, 48333.480
925.693, 48360.590
926.175, 48413.609
926.657, 48476.570
927.139, 48593.398
927.621, 48650.969
928.104, 48602.000
928.586, 48515.648
929.068, 48524.379
929.550, 48622.711
930.032, 48739.160
930.514, 48868.441
930.996, 48973.250
931.478, 49002.660
931.960, 48991.719
932.443, 48983.371
932.925, 48980.859
933.407, 48998.270
933.889, 49063.590
934.371, 49112.781
934.853, 49062.020
935.335, 48918.129
935.817, 48906.621
936.299, 49039.199
936.782, 49168.059
937.264, 49150.852
937.746, 49088.578
938.228, 49081.039
938.710, 49136.711
939.192, 49186.578
939.674, 49226.469
940.156, 49248.488
940.638, 49248.590
941.121, 49228.602
941.603, 49196.648
942.085, 49152.480
942.567, 49089.922
943.049, 48976.289
943.531, 48872.371
944.013, 48855.781
944.495, 48888.871
944.977, 48883.281
945.460, 48778.012
945.942, 48691.238
946.424, 48628.078
946.906, 48598.949
947.388, 48639.691
947.870, 48737.672
948.352, 48806.930
948.834, 48830.629
949.317, 48821.781
949.799, 48771.680
950.281, 48705.230
950.763, 48644.352
951.245, 48576.449
951.727, 48568.020
952.209, 48653.391
952.691, 48736.641
953.174, 48728.371
953.656, 48649.961
954.138, 48649.262
954.620, 48722.379
955.102, 48788.852
955.584, 48793.031
956.066, 48773.930
956.548, 48748.039
957.031, 48720.141
957.513, 48718.121
957.995, 48761.172
958.477, 48788.359
958.959, 48777.000
959.441, 48745.520
959.923, 48730.980
960.405, 48732.680
960.887, 48747.988
961.370, 48777.512
961.852, 48816.820
962.334, 48886.352
962.816, 48953.000
963.298, 48964.738
963.780, 48882.281
964.262, 48856.559
964.744, 48909.871
965.226, 48976.320
965.709, 48977.980
966.191, 48940.941
966.673, 48922.500
967.155, 48929.559
967.637, 48944.289
968.119, 48971.211
968.601, 48991.781
969.083, 48992.180
969.565, 48974.012
970.048, 48959.469
970.530, 48947.129
971.012, 48948.820
971.494, 48977.621
971.976, 49018.141
972.458, 49036.211
972.940, 49044.309
973.422, 49077.891
973.904, 49197.840
974.387, 49286.641
974.869, 49290.949
975.351, 49262.988
975.833, 49284.000
976.315, 49357.320
976.797, 49417.941
977.279, 49452.699
977.761, 49484.660
978.244, 49547.281
978.726, 49615.590
979.208, 49651.820
979.690, 49637.941
980.172, 49650.480
980.654, 49726.730
981.136, 49797.121
981.618, 49817.961
982.101, 49797.590
982.583, 49809.449
983.065, 49852.449
983.547, 49902.430
984.029, 49957.039
984.511, 50002.961
984.993, 50001.270
985.475, 49980.559
985.957, 50046.211
986.440, 50291.469
986.922, 50439.531
987.404, 50405.879
987.886, 50318.000
988.368, 50409.578
988.850, 50629.691
989.332, 50810.941
989.814, 50907.980
990.296, 50996.879
990.779, 51099.680
991.261, 51231.641
991.743, 51414.379
992.225, 51661.988
992.707, 51867.430
993.189, 52022.020
993.671, 52176.531
994.153, 52355.379
994.635, 52564.090
995.118, 52812.262
995.600, 53099.641
996.082, 53426.000
996.564, 53827.070
997.046, 54229.301
997.528, 54591.199
998.010, 54943.840
998.492, 55362.789
998.974, 55848.039
999.457, 56311.461
999.939, 56722.199
1000.421, 57157.980
1000.903, 57730.422
1001.385, 58372.680
1001.867, 58991.602
1002.349, 59560.340
1002.831, 60152.941
1003.314, 60783.961
1003.796, 61419.660
1004.278, 62038.559
1004.760, 62642.852
1005.242, 63317.078
1005.724, 64040.672
1006.206, 64683.230
1006.688, 65177.391
1007.171, 65534.340
1007.653, 65750.047
1008.135, 65827.227
1008.617, 65821.750
1009.099, 65767.508
1009.581, 65512.711
1010.063, 64992.039
1010.545, 64338.961
1011.027, 63705.469
1011.510, 63082.281
1011.992, 62453.398
1012.474, 61797.500
1012.956, 61208.199
1013.438, 60729.109
1013.920, 60313.910
1014.402, 59947.641
1014.884, 59629.480
1015.367, 59276.430
1015.849, 58888.738
1016.331, 58556.750
1016.813, 58369.879
1017.295, 58240.629
1017.777, 58100.320
1018.259, 57947.590
1018.741, 57781.129
1019.223, 57569.551
1019.706, 57401.539
1020.188, 57299.680
1020.670, 57232.379
1021.152, 57166.789
1021.634, 57094.461
1022.116, 56969.090
1022.598, 56768.961
1023.080, 56610.059
1023.563, 56633.531
1024.045, 56668.480
1024.527, 56561.199
1025.009, 56303.941
1025.491, 56166.941
1025.973, 56167.328
1026.455, 56152.980
1026.937, 56024.750
1027.419, 55850.609
1027.901, 55739.430
1028.384, 55666.520
1028.866, 55575.129
1029.348, 55445.840
1029.830, 55294.160
1030.312, 55105.879
1030.794, 54923.020
1031.276, 54819.469
1031.758, 54781.781
1032.241, 54685.449
1032.723, 54518.020
1033.205, 54319.301
1033.687, 54074.270
1034.169, 53848.031
1034.651, 53697.141
1035.133, 53623.441
1035.615, 53577.461
1036.098, 53575.828
1036.580, 53530.500
1037.062, 53380.859
1037.544, 53202.219
1038.026, 53143.012
1038.508, 53159.320
1038.990, 53156.570
1039.472, 53112.539
1039.954, 53025.922
1040.437, 52862.051
1040.919, 52691.551
1041.401, 52586.941
1041.883, 52547.629
1042.365, 52434.910
1042.847, 52246.691
1043.329, 52079.191
1043.811, 52037.789
1044.293, 52017.270
1044.776, 51924.711
1045.258, 51774.230
1045.740, 51669.422
1046.222, 51620.820
1046.704, 51600.191
1047.186, 51610.859
1047.668, 51554.141
1048.150, 51622.844
1048.633, 51661.098
1049.115, 51670.547
1049.597, 51564.898
1050.079, 51607.875
1050.561, 51591.289
1051.043, 51572.262
1051.525, 51636.156
1052.007, 51547.250
1052.490, 51609.824
1052.972, 51611.934
1053.454, 51641.719
1053.936, 51611.574
1054.418, 51599.938
1054.900, 51648.254
1055.382, 51663.371
1055.864, 51626.328
1056.346, 51657.871
1056.828, 51566.871
1057.311, 51583.402
1057.793, 51646.332
1058.275, 51612.301
1058.757, 51644.941
1059.239, 51652.188
1059.721, 51544.043
1060.203, 51636.578
1060.685, 51642.324
1061.168, 51558.957
1061.650, 51644.617
1062.132, 51573.535
1062.614, 51558.402
1063.096, 51585.371
1063.578, 51568.449
1064.060, 51620.727
1064.542, 51606.340
1065.025, 51585.996
1065.507, 51591.645
1065.989, 51523.637
1066.471, 51592.277
1066.953, 51567.578
1067.435, 51589.273
1067.917, 51621.488
1068.399, 51573.176
1068.881, 51610.117
1069.364, 51514.848
1069.846, 51530.203
1070.328, 51533.645
1070.810, 51607.797
1071.292, 51513.172
1071.774, 51525.457
1072.256, 51583.254
1072.738, 51577.363
1073.220, 51598.102
1073.703, 51565.039
1074.185, 51558.191
1074.667, 51547.031
1075.149, 51547.391
1075.631, 51544.238
1076.113, 51518.770
1076.595, 51476.660
1077.077, 51485.262
1077.559, 51552.430
1078.042, 51589.070
1078.524, 51545.930
1079.006, 51484.219
1079.488, 51473.629
1079.970, 51495.449
1080.452, 51521.410
1080.934, 51548.750
1081.416, 51574.141
1081.899, 51597.469
1082.381, 51618.012
1082.863, 51627.672
1083.345, 51633.941
1083.827, 51659.789
1084.309, 51702.250
1084.791, 51749.520
1085.273, 51790.281
1085.755, 51840.109
1086.238, 51922.809
1086.720, 52002.320
1087.202, 51991.730
1087.684, 51900.879
1088.166, 51901.449
1088.648, 52031.641
1089.130, 52155.559
1089.612, 52150.160
1090.094, 52103.961
1090.577, 52087.199
1091.059, 52104.410
1091.541, 52120.430
1092.023, 52135.570
1092.505, 52151.211
1092.987, 52167.359
1093.469, 52184.289
1093.951, 52187.160
1094.434, 52194.789
1094.916, 52243.059
1095.398, 52376.820
1095.880, 52465.770
1096.362, 52484.148
1096.844, 52488.449
1097.326, 52528.250
1097.808, 52586.770
1098.291, 52590.219
1098.773, 52550.371
1099.255, 52528.699
1099.737, 52571.719
1100.219, 52619.359
1100.701, 52656.449
1101.183, 52683.789
1101.665, 52700.910
1102.147, 52708.270
1102.630, 52712.129
1103.112, 52713.012
1103.594, 52711.441
1104.076, 52690.441
1104.558, 52680.281
1105.040, 52719.270
1105.522, 52798.051
1106.004, 52828.262
1106.486, 52799.230
1106.969, 52770.250
1107.451, 52752.281
1107.933, 52755.289
1108.415, 52817.320
1108.897, 52899.012
1109.379, 52946.180
1109.861, 52948.230
1110.343, 52911.289
1110.826, 52817.211
1111.308, 52734.180
1111.790, 52705.871
1112.272, 52713.730
1112.754, 52708.070
1113.236, 52695.320
1113.718, 52694.738
1114.200, 52718.859
1114.682, 52749.262
1115.165, 52790.961
1115.647, 52825.379
1116.129, 52815.480
1116.611, 52770.020
1117.093, 52821.410
1117.575, 52966.469
1118.057, 53077.070
1118.539, 53026.871
1119.021, 52962.211
1119.504, 52988.148
1119.986, 53057.270
1120.468, 53053.320
1120.950, 52968.039
1121.432, 52901.891
1121.914, 52870.711
1122.396, 52871.578
1122.878, 52932.078
1123.361, 53003.578
1123.843, 53028.730
1124.325, 53001.750
1124.807, 53021.949
1125.289, 53106.898
1125.771, 53176.680
1126.253, 53197.801
1126.735, 53201.941
1127.218, 53216.820
1127.700, 53254.879
1128.182, 53345.559
1128.664, 53521.789
1129.146, 53659.359
1129.628, 53738.961
1130.110, 53788.969
1130.592, 53827.191
1131.074, 53845.250
1131.557, 53799.102
1132.039, 53709.469
1132.521, 53650.070
1133.003, 53645.512
1133.485, 53687.629
1133.967, 53826.879
1134.449, 53959.859
1134.931, 53979.070
1135.413, 53898.621
1135.896, 53827.781
1136.378, 53773.961
1136.860, 53755.102
1137.342, 53830.449
1137.824, 53894.641
1138.306, 53868.738
1138.788, 53801.781
1139.270, 53776.070
1139.752, 53790.629
1140.235, 53859.672
1140.717, 53991.551
1141.199, 54083.988
1141.681, 53980.930
1142.163, 53852.559
1142.645, 53865.250
1143.127, 54005.398
1143.609, 54050.070
1144.092, 53985.738
1144.574, 53918.422
1145.056, 53876.070
1145.538, 53850.180
1146.020, 53820.961
1146.502, 53809.289
1146.984, 53857.090
1147.466, 53996.738
1147.948, 54045.289
1148.431, 53964.980
1148.913, 53911.129
1149.395, 53971.590
1149.877, 54081.270
1150.359, 54120.969
1150.841, 54119.891
1151.323, 54137.629
1151.805, 54200.359
1152.287, 54260.512
1152.770, 54324.160
1153.252, 54359.648
1153.734, 54304.539
1154.216, 54210.488
1154.698, 54265.809
1155.180, 54429.781
1155.662, 54553.629
1156.144, 54536.539
1156.627, 54526.711
1157.109, 54551.941
1157.591, 54597.719
1158.073, 54674.430
1158.555, 54760.699
1159.037, 54731.922
1159.519, 54594.020
1160.001, 54490.898
1160.484, 54530.672
1160.966, 54585.160
1161.448, 54601.141
1161.930, 54600.648
1162.412, 54634.441
1162.894, 54694.680
1163.376, 54712.980
1163.858, 54678.320
1164.340, 54624.539
1164.823, 54557.422
1165.305, 54496.922
1165.787, 54447.930
1166.269, 54417.309
1166.751, 54447.121
1167.233, 54535.852
1167.715, 54580.480
1168.197, 54541.730
1168.679, 54506.461
1169.162, 54550.988
1169.644, 54628.078
1170.126, 54697.570
1170.608, 54757.191
1171.090, 54811.941
1171.572, 54859.449
1172.054, 54912.270
1172.536, 54978.891
1173.019, 55041.250
1173.501, 55074.012
1173.983, 55095.590
1174.465, 55135.629
1174.947, 55205.379
1175.429, 55231.352
1175.911, 55208.039
1176.393, 55185.219
1176.875, 55190.988
1177.358, 55215.941
1177.840, 55263.719
1178.322, 55320.219
1178.804, 55355.980
1179.286, 55361.379
1179.768, 55357.051
1180.250, 55334.730
1180.732, 55344.250
1181.214, 55459.828
1181.697, 55605.789
1182.179, 55688.039
1182.661, 55715.500
1183.143, 55724.180
1183.625, 55708.641
1184.107, 55703.371
1184.589, 55718.488
1185.071, 55716.270
1185.554, 55599.609
1186.036, 55473.262
1186.518, 55548.102
1187.000, 55794.609
1187.482, 55925.859
1187.964, 55817.371
1188.446, 55745.801
1188.928, 55766.129
1189.411, 55812.910
1189.893, 55796.480
1190.375, 55746.730
1190.857, 55711.102
1191.339, 55695.352
1191.821, 55698.039
1192.303, 55724.449
1192.785, 55760.730
1193.267, 55811.211
1193.750, 55854.559
1194.232, 55853.211
1194.714, 55817.480
1195.196, 55752.590
1195.678, 55649.648
1196.160, 55612.781
1196.642, 55719.898
1197.124, 55794.980
1197.606, 55757.191
1198.089, 55672.641
1198.571, 55694.180
1199.053, 55784.031
1199.535, 55860.871
1200.017, 55904.551
1200.499, 55933.148
1200.981, 55935.840
1201.463, 55952.980
1201.945, 56021.879
1202.428, 56104.359
1202.910, 56058.219
1203.392, 55943.250
1203.874, 55922.980
1204.356, 56120.109
1204.838, 56247.191
1205.320, 56215.621
1205.802, 56161.602
1206.285, 56169.129
1206.767, 56219.520
1207.249, 56249.109
1207.731, 56268.070
1208.213, 56308.359
1208.695, 56408.680
1209.177, 56489.801
1209.659, 56537.262
1210.141, 56567.621
1210.624, 56587.102
1211.106, 56600.379
1211.588, 56630.469
1212.070, 56670.859
1212.552, 56697.488
1213.034, 56689.102
1213.516, 56679.480
1213.998, 56676.250
1214.480, 56670.980
1214.963, 56657.570
1215.445, 56634.949
1215.927, 56585.031
1216.409, 56517.969
1216.891, 56487.539
1217.373, 56562.230
1217.855, 56613.711
1218.337, 56607.141
1218.820, 56589.988
1219.302, 56635.270
1219.784, 56714.391
1220.266, 56728.578
1220.748, 56683.430
1221.230, 56665.750
1221.712, 56741.301
1222.194, 56809.699
1222.677, 56857.109
1223.159, 56875.980
1223.641, 56819.211
1224.123, 56733.539
1224.605, 56749.969
1225.087, 56872.969
1225.569, 56986.379
1226.051, 57046.340
1226.533, 57084.980
1227.016, 57092.500
1227.498, 57109.051
1227.980, 57258.840
1228.462, 57449.750
1228.944, 57441.449
1229.426, 57203.898
1229.908, 57037.320
1230.390, 57065.789
1230.872, 57119.410
1231.355, 57149.738
1231.837, 57196.730
1232.319, 57389.852
1232.801, 57629.340
1233.283, 57689.891
1233.765, 57521.762
1234.247, 57428.141
1234.729, 57507.172
1235.212, 57586.391
1235.694, 57610.219
1236.176, 57610.570
1236.658, 57662.340
1237.140, 57723.090
1237.622, 57702.051
1238.104, 57564.328
1238.586, 57496.480
1239.068, 57536.141
1239.551, 57594.289
1240.033, 57645.750
1240.515, 57688.738
1240.997, 57728.988
1241.479, 57757.609
1241.961, 57749.059
1242.443, 57684.039
1242.925, 57688.531
1243.407, 57793.770
1243.890, 57877.262
1244.372, 57870.430
1244.854, 57843.012
1245.336, 57912.230
1245.818, 58021.551
1246.300, 58081.852
1246.782, 58053.051
1247.264, 58087.059
1247.747, 58200.410
1248.229, 58284.340
1248.711, 58276.621
1249.193, 58232.840
1249.675, 58226.680
1250.157, 58226.781
1250.639, 58177.910
1251.121, 58060.031
1251.604, 58027.078
1252.086, 58094.039
1252.568, 58134.859
1253.050, 58062.570
1253.532, 57978.238
1254.014, 57968.480
1254.496, 58016.699
1254.978, 58115.570
1255.460, 58272.500
1255.943, 58359.238
1256.425, 58373.020
1256.907, 58360.359
1257.389, 58305.961
1257.871, 58286.191
1258.353, 58422.891
1258.835, 58582.898
1259.317, 58602.309
1259.799, 58468.852
1260.281, 58393.000
1260.764, 58372.109
1261.246, 58367.512
1261.728, 58385.609
1262.210, 58382.391
1262.692, 58312.520
1263.174, 58230.211
1263.656, 58189.352
1264.138, 58189.250
1264.621, 58188.078
1265.103, 58187.309
1265.585, 58188.371
1266.067, 58183.141
1266.549, 58193.031
1267.031, 58215.211
1267.513, 58266.000
1267.995, 58363.660
1268.478, 58501.500
1268.960, 58675.711
1269.442, 58868.609
1269.924, 59006.211
1270.406, 58992.488
1270.888, 59008.629
1271.370, 59103.949
1271.852, 59197.238
1272.334, 59199.070
1272.817, 59149.840
1273.299, 59188.000
1273.781, 59280.609
1274.263, 59321.090
1274.745, 59199.961
1275.227, 59145.879
1275.709, 59196.941
1276.191, 59258.391
1276.673, 59238.422
1277.156, 59189.191
1277.638, 59218.719
1278.120, 59292.672
1278.602, 59312.051
1279.084, 59212.320
1279.566, 59172.750
1280.048, 59208.828
1280.530, 59254.160
1281.013, 59262.211
1281.495, 59247.191
1281.977, 59199.801
1282.459, 59147.340
1282.941, 59151.020
1283.423, 59222.570
1283.905, 59297.281
1284.387, 59373.410
1284.870, 59444.660
1285.352, 59527.090
1285.834, 59579.391
1286.316, 59535.270
1286.798, 59458.762
1287.280, 59455.820
1287.762, 59531.160
1288.244, 59576.609
1288.726, 59591.211
1289.208, 59609.941
1289.691, 59667.641
1290.173, 59719.590
1290.655, 59744.520
1291.137, 59756.371
1291.619, 59766.340
1292.101, 59768.840
1292.583, 59746.441
1293.065, 59716.898
1293.548, 59709.602
1294.030, 59773.930
1294.512, 59791.719
1294.994, 59707.121
1295.476, 59629.559
1295.958, 59694.301
1296.440, 59821.230
1296.922, 59816.039
1297.405, 59813.719
1297.887, 59878.422
1298.369, 59798.488
1298.851, 59798.898
1299.333, 59911.609
1299.815, 60018.820
1300.297, 60047.602
1300.779, 59997.922
##END=



