##NAMES=Enstatite
##RRUFFID=R100093
##IDEAL CHEMISTRY=MgSiO_3_
##LOCALITY=Hunan Province, China
##OWNER=RRUFF
##SOURCE=William W. Pinch
##DESCRIPTION=Massive green polished slab
##STATUS=The identification of this mineral has been confirmed by single-crystal X-ray diffraction.
##URL=rruff.info/R100093
130.5079, 7.800224
130.9900, 7.981821
131.4721, 8.574249
131.9542, 9.163800
132.4363, 9.307002
132.9185, 9.076239
133.4006, 8.974804
133.8827, 9.172858
134.3648, 9.595431
134.8469, 9.979345
135.3290, 10.30909
135.8112, 10.67016
136.2933, 11.16486
136.7754, 11.80132
137.2575, 12.47898
137.7396, 13.22670
138.2217, 14.02505
138.7039, 14.54295
139.1860, 14.64079
139.6681, 14.67979
140.1502, 15.30877
140.6323, 16.72016
141.1144, 18.06038
141.5966, 19.01073
142.0787, 19.51509
142.5608, 19.79198
143.0429, 19.63795
143.5250, 19.36917
144.0071, 19.81443
144.4893, 21.48643
144.9714, 23.03335
145.4535, 23.72511
145.9356, 22.73452
146.4177, 22.58863
146.8998, 23.69357
147.3820, 25.71439
147.8641, 27.28658
148.3462, 27.86765
148.8283, 28.49038
149.3104, 29.74897
149.7925, 32.73579
150.2747, 34.91771
150.7568, 35.68885
151.2389, 35.20057
151.7210, 35.29284
152.2031, 36.40114
152.6852, 37.81944
153.1674, 39.12289
153.6495, 40.06752
154.1316, 41.12420
154.6137, 42.54227
155.0958, 44.33618
155.5779, 45.64680
156.0601, 45.95524
156.5422, 45.92885
157.0243, 46.13380
157.5064, 47.00425
157.9885, 47.80592
158.4706, 48.32385
158.9528, 48.52527
159.4349, 48.63038
159.9170, 48.42456
160.3991, 48.23206
160.8812, 48.42769
161.3633, 49.40660
161.8455, 50.56631
162.3276, 51.67830
162.8097, 52.70641
163.2918, 53.68215
163.7739, 54.77061
164.2560, 55.72631
164.7382, 55.91304
165.2203, 54.97558
165.7024, 54.02808
166.1845, 53.70808
166.6666, 54.20024
167.1487, 54.93479
167.6309, 55.84271
168.1130, 56.77867
168.5951, 57.41681
169.0772, 57.33943
169.5593, 57.05767
170.0414, 57.03012
170.5236, 57.42842
171.0057, 57.86793
171.4878, 58.17079
171.9699, 58.31533
172.4520, 58.22614
172.9341, 57.67989
173.4163, 56.94701
173.8984, 56.31876
174.3805, 55.79276
174.8626, 55.48589
175.3447, 55.63766
175.8268, 56.15632
176.3090, 56.62093
176.7911, 56.74898
177.2732, 56.63426
177.7553, 56.37492
178.2374, 55.77942
178.7195, 55.29100
179.2017, 55.64400
179.6838, 56.76094
180.1659, 57.88754
180.6480, 58.52601
181.1301, 58.74376
181.6122, 58.66578
182.0944, 58.06232
182.5765, 57.37714
183.0586, 57.51138
183.5407, 58.45168
184.0228, 59.44616
184.5049, 59.68050
184.9871, 59.36619
185.4692, 59.26313
185.9513, 59.72950
186.4334, 60.51584
186.9155, 61.18667
187.3976, 61.76587
187.8798, 61.93264
188.3619, 60.95085
188.8440, 59.04106
189.3261, 57.70762
189.8082, 57.73186
190.2903, 58.70710
190.7725, 59.20763
191.2546, 59.21910
191.7367, 58.86976
192.2188, 58.17157
192.7009, 57.14086
193.1830, 56.21077
193.6652, 55.62915
194.1473, 55.31181
194.6294, 54.66311
195.1115, 53.57068
195.5936, 52.51760
196.0757, 52.25068
196.5579, 52.79549
197.0400, 53.34285
197.5221, 53.57669
198.0042, 53.51530
198.4863, 53.46241
198.9684, 53.47013
199.4506, 53.37109
199.9327, 52.66635
200.4148, 51.21930
200.8969, 50.36159
201.3790, 51.07925
201.8611, 53.46559
202.3433, 54.40368
202.8254, 53.51030
203.3075, 51.78122
203.7896, 50.93965
204.2717, 51.12957
204.7538, 51.42971
205.2360, 51.39557
205.7181, 50.95861
206.2002, 50.83288
206.6823, 51.08257
207.1644, 51.56360
207.6465, 52.06606
208.1287, 52.63549
208.6108, 53.05463
209.0929, 53.08498
209.5750, 52.54690
210.0571, 52.67570
210.5392, 53.72804
211.0214, 55.21902
211.5035, 56.10299
211.9856, 56.19000
212.4677, 56.18141
212.9498, 56.39498
213.4319, 56.88927
213.9140, 57.32616
214.3962, 57.61628
214.8783, 57.90477
215.3604, 58.58397
215.8425, 59.86307
216.3246, 61.07223
216.8067, 61.83591
217.2889, 61.90575
217.7710, 62.36165
218.2531, 63.28821
218.7352, 64.56938
219.2173, 66.04875
219.6994, 68.01311
220.1816, 69.63395
220.6637, 70.50093
221.1458, 70.33633
221.6279, 70.18617
222.1100, 69.93469
222.5921, 69.75594
223.0743, 70.17128
223.5564, 71.47778
224.0385, 72.85575
224.5206, 73.86656
225.0027, 74.30262
225.4848, 74.97081
225.9670, 75.90157
226.4491, 77.05801
226.9312, 78.40466
227.4133, 80.07508
227.8954, 81.70741
228.3775, 83.11759
228.8597, 84.34244
229.3418, 85.27907
229.8239, 85.75136
230.3060, 85.97932
230.7881, 86.66161
231.2702, 88.39366
231.7524, 89.68199
232.2345, 89.71521
232.7166, 87.69038
233.1987, 86.33105
233.6808, 86.04485
234.1629, 86.33150
234.6451, 85.83161
235.1272, 84.27755
235.6093, 82.34509
236.0914, 80.32410
236.5735, 78.27280
237.0556, 75.97948
237.5378, 73.24986
238.0199, 70.33764
238.5020, 67.92812
238.9841, 66.29103
239.4662, 64.71761
239.9483, 62.85258
240.4305, 60.42599
240.9126, 58.38029
241.3947, 56.74642
241.8768, 55.48001
242.3589, 54.52771
242.8410, 54.14522
243.3232, 53.68288
243.8053, 52.79692
244.2874, 51.07697
244.7695, 49.95903
245.2516, 49.73200
245.7337, 49.98529
246.2159, 49.78555
246.6980, 48.89718
247.1801, 47.92471
247.6622, 47.07701
248.1443, 46.35155
248.6264, 45.75616
249.1086, 45.29865
249.5907, 44.96295
250.0728, 44.75621
250.5549, 44.85698
251.0370, 44.78264
251.5191, 44.25920
252.0013, 43.02322
252.4834, 42.26411
252.9655, 42.21066
253.4476, 42.50134
253.9297, 42.43579
254.4118, 41.77544
254.8940, 41.20718
255.3761, 41.02628
255.8582, 41.38568
256.3403, 41.50943
256.8224, 41.33050
257.3046, 40.96893
257.7867, 40.61921
258.2688, 40.27793
258.7509, 39.94668
259.2330, 39.57990
259.7151, 39.11492
260.1973, 39.03069
260.6794, 39.56646
261.1615, 40.25260
261.6436, 40.28710
262.1257, 39.27721
262.6078, 38.58410
263.0900, 38.74926
263.5721, 39.90196
264.0542, 40.64819
264.5363, 40.92454
265.0184, 40.87849
265.5005, 40.65300
265.9827, 40.16570
266.4648, 39.74385
266.9469, 39.49694
267.4290, 39.42933
267.9111, 39.30243
268.3932, 39.01525
268.8754, 38.82738
269.3575, 39.13182
269.8396, 40.12786
270.3217, 40.88633
270.8038, 41.11627
271.2859, 40.85150
271.7681, 40.74398
272.2502, 40.87343
272.7323, 40.99573
273.2144, 40.74556
273.6965, 39.98118
274.1786, 39.63585
274.6608, 40.08198
275.1429, 41.15785
275.6250, 41.62609
276.1071, 41.32731
276.5892, 40.87899
277.0714, 40.92019
277.5535, 41.52824
278.0356, 41.88346
278.5177, 41.72132
278.9998, 41.22010
279.4819, 41.16811
279.9641, 41.65112
280.4462, 42.22526
280.9283, 42.54127
281.4104, 42.58981
281.8925, 42.58862
282.3746, 42.51519
282.8568, 42.45504
283.3389, 42.71709
283.8210, 43.34258
284.3031, 43.96906
284.7852, 44.40139
285.2673, 44.63247
285.7495, 44.53501
286.2316, 43.96064
286.7137, 43.23839
287.1958, 43.06403
287.6779, 43.44725
288.1600, 44.06433
288.6422, 44.92463
289.1243, 45.94454
289.6064, 46.37613
290.0885, 46.01525
290.5706, 45.42886
291.0527, 45.63361
291.5349, 46.57607
292.0170, 47.46892
292.4991, 47.80328
292.9812, 47.72600
293.4633, 47.74183
293.9454, 47.88103
294.4276, 48.09899
294.9097, 48.44724
295.3918, 48.87293
295.8739, 49.08405
296.3560, 48.66370
296.8381, 47.95360
297.3203, 47.81344
297.8024, 48.29451
298.2845, 49.01354
298.7666, 49.68084
299.2487, 50.27372
299.7308, 50.74184
300.2130, 50.95027
300.6951, 51.06311
301.1772, 51.31843
301.6593, 51.71435
302.1414, 52.27136
302.6235, 53.10667
303.1057, 54.11135
303.5878, 55.03831
304.0699, 55.71586
304.5520, 56.36120
305.0341, 57.35589
305.5162, 58.63926
305.9984, 59.73110
306.4805, 60.05020
306.9626, 60.01569
307.4447, 60.18554
307.9268, 60.65983
308.4089, 61.45730
308.8911, 62.80488
309.3732, 64.56635
309.8553, 66.18298
310.3374, 67.18367
310.8195, 67.94510
311.3016, 68.83383
311.7838, 69.97120
312.2659, 71.14848
312.7480, 72.27364
313.2301, 73.32621
313.7122, 74.27952
314.1943, 74.90899
314.6765, 75.58139
315.1586, 76.68652
315.6407, 78.49341
316.1228, 79.96432
316.6049, 80.13221
317.0870, 79.69182
317.5692, 79.78232
318.0513, 81.40751
318.5334, 83.17248
319.0155, 84.35686
319.4976, 84.83318
319.9797, 85.29543
320.4619, 85.89858
320.9440, 86.63410
321.4261, 87.48335
321.9082, 88.29935
322.3903, 89.36950
322.8724, 90.91991
323.3546, 92.96404
323.8367, 94.82113
324.3188, 96.11596
324.8009, 97.31815
325.2830, 98.77116
325.7651, 100.8131
326.2473, 102.7964
326.7294, 104.5003
327.2115, 105.9940
327.6936, 107.8273
328.1757, 110.3160
328.6578, 112.9264
329.1400, 115.4073
329.6221, 117.7759
330.1042, 119.9457
330.5863, 121.7332
331.0684, 123.3230
331.5505, 125.2262
332.0327, 127.6558
332.5148, 130.1601
332.9969, 132.5705
333.4790, 134.7492
333.9611, 137.1058
334.4432, 139.8621
334.9254, 142.6756
335.4075, 144.8708
335.8896, 146.1423
336.3717, 147.4548
336.8538, 149.1594
337.3359, 151.3399
337.8180, 153.1933
338.3001, 154.7315
338.7823, 155.9272
339.2644, 156.6175
339.7465, 156.6597
340.2286, 156.8820
340.7107, 157.6589
341.1928, 158.8235
341.6750, 159.1057
342.1571, 158.4079
342.6392, 157.2152
343.1213, 155.9433
343.6034, 154.6079
344.0855, 152.7578
344.5677, 150.2028
345.0498, 147.2262
345.5319, 144.5803
346.0140, 142.2749
346.4961, 140.0382
346.9782, 137.8006
347.4604, 135.5031
347.9425, 132.9161
348.4246, 129.9366
348.9067, 126.8352
349.3888, 123.9026
349.8709, 121.1476
350.3531, 118.6148
350.8352, 116.3868
351.3173, 114.3920
351.7994, 112.4523
352.2815, 110.5668
352.7636, 108.7972
353.2458, 107.3041
353.7279, 105.9701
354.2100, 104.5390
354.6921, 102.7846
355.1742, 100.9788
355.6563, 99.31274
356.1385, 97.80471
356.6206, 96.56291
357.1027, 95.87560
357.5848, 95.42020
358.0669, 94.78449
358.5490, 93.69334
359.0312, 92.64883
359.5133, 92.07711
359.9954, 91.82961
360.4775, 91.43792
360.9596, 90.28081
361.4417, 89.16226
361.9239, 88.72485
362.4060, 89.35387
362.8881, 89.82008
363.3702, 89.54893
363.8523, 88.84740
364.3344, 88.18621
364.8166, 87.39347
365.2987, 86.93262
365.7808, 87.15360
366.2629, 88.17661
366.7450, 88.92835
367.2271, 89.16743
367.7093, 89.10214
368.1914, 88.91572
368.6735, 88.36117
369.1556, 87.97869
369.6377, 87.84526
370.1198, 87.94846
370.6020, 88.23196
371.0841, 88.88634
371.5662, 89.54606
372.0483, 89.96764
372.5304, 89.73999
373.0125, 90.10047
373.4947, 91.45238
373.9768, 93.26723
374.4589, 94.25654
374.9410, 94.04955
375.4231, 93.77395
375.9052, 93.80286
376.3874, 94.13586
376.8695, 94.88032
377.3516, 96.24746
377.8337, 97.68421
378.3158, 98.43736
378.7979, 98.40369
379.2801, 98.49028
379.7622, 99.00806
380.2443, 99.83326
380.7264, 100.3690
381.2085, 100.5645
381.6906, 100.8110
382.1728, 101.4992
382.6549, 102.5667
383.1370, 103.5690
383.6191, 104.4223
384.1012, 105.2092
384.5833, 106.0818
385.0655, 107.0337
385.5476, 108.0031
386.0297, 109.0147
386.5118, 110.0187
386.9939, 110.9131
387.4760, 111.6651
387.9582, 112.4434
388.4403, 113.3383
388.9224, 114.3902
389.4045, 115.6689
389.8866, 117.2657
390.3687, 119.0703
390.8509, 121.2045
391.3330, 123.5930
391.8151, 125.5447
392.2972, 126.0622
392.7793, 126.1917
393.2614, 127.0170
393.7436, 129.6317
394.2257, 131.8025
394.7078, 132.2981
395.1899, 131.5915
395.6720, 130.9230
396.1541, 130.6131
396.6363, 130.4902
397.1184, 130.6174
397.6005, 131.3002
398.0826, 131.2860
398.5647, 129.9101
399.0468, 127.9014
399.5290, 126.1432
400.0111, 125.0323
400.4932, 123.8114
400.9753, 122.3174
401.4574, 120.5440
401.9395, 118.8459
402.4217, 117.4608
402.9038, 115.8854
403.3859, 113.7306
403.8680, 110.6847
404.3501, 107.7897
404.8322, 105.1807
405.3144, 102.7458
405.7965, 100.2523
406.2786, 97.64391
406.7607, 95.11820
407.2428, 92.78319
407.7249, 90.63515
408.2071, 88.50529
408.6892, 86.38522
409.1713, 84.27227
409.6534, 82.14491
410.1355, 80.01428
410.6176, 77.93516
411.0998, 75.94655
411.5819, 73.98793
412.0640, 71.84448
412.5461, 69.54395
413.0282, 67.31972
413.5103, 65.30720
413.9925, 63.53457
414.4746, 62.08313
414.9567, 61.02978
415.4388, 60.10365
415.9209, 58.99735
416.4030, 57.78823
416.8852, 56.63640
417.3673, 55.64857
417.8494, 54.75184
418.3315, 53.86964
418.8136, 53.00486
419.2957, 52.20139
419.7779, 51.57469
420.2600, 50.99027
420.7421, 50.32377
421.2242, 49.32903
421.7063, 48.45965
422.1884, 47.98323
422.6706, 47.77747
423.1527, 47.35976
423.6348, 46.27959
424.1169, 45.24279
424.5990, 44.59484
425.0811, 44.59434
425.5633, 44.46098
426.0454, 44.07060
426.5275, 43.57583
427.0096, 43.16785
427.4917, 42.93719
427.9738, 42.65025
428.4560, 42.17065
428.9381, 41.51891
429.4202, 41.28944
429.9023, 41.62334
430.3844, 42.12005
430.8665, 42.56131
431.3487, 42.99059
431.8308, 43.05896
432.3129, 42.65190
432.7950, 41.98037
433.2771, 41.47019
433.7592, 41.13008
434.2414, 40.82886
434.7235, 40.44552
435.2056, 40.04397
435.6877, 39.96658
436.1698, 40.24085
436.6519, 40.49787
437.1341, 40.30660
437.6162, 39.80540
438.0983, 39.35323
438.5804, 39.07038
439.0625, 38.84486
439.5446, 38.56310
440.0268, 38.23273
440.5089, 37.88075
440.9910, 37.37679
441.4731, 36.94518
441.9552, 36.85147
442.4373, 37.19910
442.9195, 37.47302
443.4016, 37.26646
443.8837, 36.88578
444.3658, 36.70348
444.8479, 37.23650
445.3300, 37.57468
445.8122, 37.22870
446.2943, 36.30495
446.7764, 35.75326
447.2585, 36.12700
447.7406, 36.58685
448.2227, 36.70979
448.7049, 36.31560
449.1870, 35.90979
449.6691, 35.37596
450.1512, 34.89064
450.6333, 34.80157
451.1154, 35.39905
451.5976, 35.74904
452.0797, 35.47078
452.5618, 34.63455
453.0439, 34.35284
453.5260, 34.75615
454.0081, 35.32021
454.4903, 35.71925
454.9724, 35.94867
455.4545, 35.80417
455.9366, 35.13744
456.4187, 34.34676
456.9008, 34.25965
457.3830, 34.77451
457.8651, 35.11230
458.3472, 34.54738
458.8293, 33.67430
459.3114, 33.72730
459.7935, 34.70470
460.2757, 35.68449
460.7578, 35.96648
461.2399, 35.77263
461.7220, 35.37405
462.2041, 34.68481
462.6862, 34.06919
463.1684, 33.77003
463.6505, 33.72142
464.1326, 33.77931
464.6147, 33.91843
465.0968, 34.12239
465.5789, 34.41684
466.0611, 34.82510
466.5432, 35.14242
467.0253, 35.42199
467.5074, 35.53988
467.9895, 35.38758
468.4716, 34.42840
468.9538, 33.88787
469.4359, 34.07943
469.9180, 34.73846
470.4001, 34.99780
470.8822, 34.64541
471.3643, 34.26585
471.8465, 34.08508
472.3286, 34.11612
472.8107, 34.22573
473.2928, 34.43069
473.7749, 34.67063
474.2570, 34.93251
474.7392, 35.21516
475.2213, 35.26284
475.7034, 34.91540
476.1855, 34.42881
476.6676, 34.41045
477.1497, 34.81059
477.6319, 35.15792
478.1140, 35.13253
478.5961, 34.88452
479.0782, 34.65014
479.5603, 34.44520
480.0424, 34.24735
480.5246, 33.86305
481.0067, 33.52232
481.4888, 33.56276
481.9709, 34.44692
482.4530, 35.32772
482.9352, 35.86403
483.4173, 36.06182
483.8994, 35.94009
484.3815, 35.00364
484.8636, 34.15815
485.3457, 33.93164
485.8279, 34.59326
486.3100, 34.97764
486.7921, 34.75912
487.2742, 34.34609
487.7563, 34.09875
488.2384, 34.17830
488.7206, 34.13032
489.2027, 33.79954
489.6848, 33.32119
490.1669, 33.24156
490.6490, 33.70477
491.1311, 34.13163
491.6133, 34.22963
492.0954, 34.00501
492.5775, 33.73066
493.0596, 33.38881
493.5417, 33.08003
494.0238, 32.90306
494.5060, 32.85090
494.9881, 32.93129
495.4702, 33.24067
495.9523, 33.53205
496.4344, 33.23101
496.9165, 32.53746
497.3987, 32.20317
497.8808, 33.04973
498.3629, 34.21178
498.8450, 34.76466
499.3271, 34.61424
499.8092, 34.58554
500.2914, 35.42314
500.7735, 36.44574
501.2556, 37.02126
501.7377, 36.44357
502.2198, 36.05780
502.7019, 36.19952
503.1841, 36.74619
503.6662, 37.36052
504.1483, 38.16096
504.6304, 38.88271
505.1125, 39.42302
505.5946, 39.76534
506.0768, 40.14058
506.5589, 40.50106
507.0410, 40.96327
507.5231, 41.64944
508.0052, 42.59014
508.4873, 43.58480
508.9695, 44.68859
509.4516, 45.68832
509.9337, 46.03238
510.4158, 45.75917
510.8979, 45.59119
511.3800, 45.83711
511.8622, 46.40642
512.3443, 47.18773
512.8264, 48.16148
513.3085, 49.09166
513.7906, 49.81359
514.2728, 50.37653
514.7549, 50.84140
515.2370, 51.21740
515.7191, 51.50427
516.2012, 51.65699
516.6833, 51.72966
517.1655, 51.80806
517.6476, 51.90129
518.1297, 52.02372
518.6118, 52.18773
519.0939, 52.39087
519.5760, 52.60310
520.0582, 52.95745
520.5403, 53.19993
521.0224, 53.22103
521.5045, 52.99607
521.9866, 52.57906
522.4688, 51.76353
522.9509, 50.98298
523.4330, 50.88373
523.9151, 51.64112
524.3972, 52.06144
524.8793, 51.71724
525.3615, 51.01922
525.8436, 51.21830
526.3257, 52.29977
526.8078, 53.20321
527.2899, 53.05542
527.7720, 52.33289
528.2542, 52.23830
528.7363, 52.84506
529.2184, 53.36809
529.7005, 52.82201
530.1826, 51.88489
530.6647, 51.49902
531.1469, 52.12992
531.6290, 53.02907
532.1111, 54.06123
532.5932, 55.04401
533.0753, 55.60347
533.5574, 55.41248
534.0396, 54.99780
534.5217, 54.43931
535.0038, 53.73162
535.4859, 53.24165
535.9680, 53.15601
536.4501, 53.11639
536.9323, 52.91905
537.4144, 52.51160
537.8965, 52.05148
538.3786, 51.44765
538.8607, 50.91807
539.3428, 50.88623
539.8250, 51.39532
540.3071, 51.81581
540.7892, 51.96164
541.2713, 51.90808
541.7534, 51.73725
542.2355, 51.47234
542.7177, 51.35775
543.1998, 51.68811
543.6819, 52.21701
544.1640, 52.59779
544.6461, 52.80779
545.1282, 52.83519
545.6104, 52.31595
546.0925, 51.75197
546.5746, 51.75848
547.0567, 53.29540
547.5388, 54.31789
548.0209, 53.67999
548.5031, 52.05771
548.9852, 50.92870
549.4673, 50.80883
549.9494, 50.90229
550.4315, 51.13829
550.9136, 51.51483
551.3958, 51.50201
551.8779, 51.00669
552.3600, 50.27739
552.8421, 49.32472
553.3242, 48.06788
553.8063, 47.40464
554.2885, 47.45333
554.7706, 47.87387
555.2527, 48.37690
555.7348, 48.91190
556.2169, 49.11557
556.6990, 48.67391
557.1812, 48.11158
557.6633, 48.28166
558.1454, 49.01277
558.6275, 49.66244
559.1096, 49.77363
559.5917, 49.70972
560.0739, 49.74818
560.5560, 49.91033
561.0381, 50.09856
561.5202, 50.29253
562.0023, 50.48376
562.4844, 50.66602
562.9666, 50.85004
563.4487, 51.00087
563.9308, 50.93288
564.4129, 50.90705
564.8950, 51.43530
565.3771, 53.03516
565.8593, 53.96775
566.3414, 53.60061
566.8235, 52.29742
567.3056, 51.77704
567.7877, 52.14742
568.2698, 52.53566
568.7520, 52.35881
569.2341, 51.76595
569.7162, 51.31335
570.1983, 51.02575
570.6804, 50.80897
571.1625, 50.73545
571.6447, 50.63816
572.1268, 50.19387
572.6089, 49.12605
573.0910, 48.12465
573.5731, 47.76343
574.0552, 47.74693
574.5374, 47.55008
575.0195, 46.83262
575.5016, 46.08447
575.9837, 45.51135
576.4658, 45.09417
576.9479, 44.49489
577.4301, 43.45190
577.9122, 42.53945
578.3943, 42.07692
578.8764, 42.21415
579.3585, 41.92469
579.8406, 41.07969
580.3228, 40.09429
580.8049, 39.34808
581.2870, 38.84050
581.7691, 38.56759
582.2512, 38.58887
582.7333, 38.70903
583.2155, 38.64868
583.6975, 38.44452
584.1796, 38.20866
584.6617, 38.09268
585.1439, 37.89580
585.6260, 37.30520
586.1081, 36.41709
586.5902, 35.71843
587.0723, 35.59396
587.5544, 35.60313
588.0366, 35.51233
588.5187, 35.29773
589.0008, 34.98056
589.4829, 34.38024
589.9650, 33.80264
590.4471, 33.50584
590.9293, 33.70304
591.4114, 33.66914
591.8935, 33.27661
592.3756, 32.72141
592.8577, 32.33775
593.3398, 32.13246
593.8220, 32.04309
594.3041, 32.10455
594.7862, 32.22790
595.2683, 32.17643
595.7504, 31.97409
596.2325, 31.79345
596.7147, 31.88931
597.1968, 31.98756
597.6789, 31.67920
598.1610, 30.92798
598.6431, 30.28449
599.1252, 30.10715
599.6074, 30.14474
600.0895, 30.20266
600.5716, 30.31286
601.0537, 30.32473
601.5358, 30.32029
602.0179, 30.16255
602.5001, 29.59010
602.9822, 28.10471
603.4643, 27.26430
603.9464, 27.59967
604.4285, 28.64572
604.9106, 28.74409
605.3928, 27.77403
605.8749, 26.94160
606.3570, 26.90322
606.8391, 27.45856
607.3212, 28.08990
607.8033, 28.78206
608.2855, 29.20979
608.7676, 28.85702
609.2497, 28.19858
609.7318, 27.85433
610.2139, 27.95549
610.6960, 28.16760
611.1782, 28.37029
611.6603, 28.55919
612.1424, 28.73204
612.6245, 29.04714
613.1066, 29.14920
613.5887, 28.72263
614.0709, 28.10709
614.5530, 28.03820
615.0351, 28.87017
615.5172, 29.48717
615.9993, 29.53658
616.4814, 29.12925
616.9636, 28.84289
617.4457, 28.68026
617.9278, 28.61249
618.4099, 28.63449
618.8920, 28.73810
619.3741, 28.92450
619.8563, 29.19647
620.3384, 29.46534
620.8205, 29.66197
621.3026, 29.81281
621.7847, 29.93222
622.2668, 29.98466
622.7490, 30.11728
623.2311, 30.44509
623.7132, 30.87308
624.1953, 31.27976
624.6774, 31.55331
625.1595, 31.92202
625.6417, 32.47345
626.1238, 33.12931
626.6059, 33.65831
627.0880, 34.03962
627.5701, 34.37489
628.0522, 34.74554
628.5344, 35.09911
629.0165, 35.07823
629.4986, 34.67313
629.9807, 34.32445
630.4628, 34.37109
630.9449, 34.68378
631.4271, 35.02195
631.9092, 35.36541
632.3913, 35.79097
632.8734, 36.40792
633.3555, 37.10778
633.8376, 37.82132
634.3198, 38.68284
634.8019, 39.23852
635.2840, 39.15201
635.7661, 38.76196
636.2482, 38.53468
636.7303, 38.43644
637.2125, 38.58218
637.6946, 39.05819
638.1767, 39.76012
638.6588, 40.38963
639.1409, 40.93444
639.6230, 41.53252
640.1052, 42.26883
640.5873, 43.09751
641.0694, 43.75647
641.5515, 44.28831
642.0336, 45.10888
642.5157, 46.75846
642.9979, 48.71953
643.4800, 50.35529
643.9621, 51.61413
644.4442, 52.84054
644.9263, 54.23781
645.4084, 55.67556
645.8906, 57.02654
646.3727, 58.13204
646.8548, 59.41135
647.3369, 60.93622
647.8190, 62.60308
648.3011, 64.28584
648.7833, 66.03556
649.2654, 67.65486
649.7475, 69.08865
650.2296, 70.43174
650.7117, 71.83149
651.1938, 73.31823
651.6760, 75.12441
652.1581, 77.58841
652.6402, 80.26063
653.1223, 82.52428
653.6044, 84.39767
654.0865, 86.09532
654.5687, 87.61349
655.0508, 89.05851
655.5329, 90.69919
656.0150, 92.56529
656.4971, 93.71964
656.9792, 93.12756
657.4614, 92.43992
657.9435, 92.62889
658.4256, 94.10597
658.9077, 94.99843
659.3898, 95.15919
659.8719, 94.99195
660.3541, 94.97847
660.8362, 95.10282
661.3183, 94.67500
661.8004, 93.43399
662.2825, 92.15235
662.7646, 91.92293
663.2468, 92.45462
663.7289, 93.03574
664.2110, 93.36172
664.6931, 93.71598
665.1752, 94.21935
665.6573, 94.90236
666.1395, 95.84614
666.6216, 97.13930
667.1037, 98.63199
667.5858, 100.3225
668.0679, 102.1976
668.5500, 104.0796
669.0322, 105.7728
669.5143, 107.9056
669.9964, 111.0084
670.4785, 114.9808
670.9606, 118.0741
671.4427, 120.2227
671.9249, 122.2261
672.4070, 124.4920
672.8891, 127.1640
673.3712, 130.7852
673.8533, 135.5440
674.3354, 139.9600
674.8176, 142.6501
675.2997, 144.6484
675.7818, 147.0432
676.2639, 150.4897
676.7460, 153.6200
677.2281, 156.0007
677.7103, 157.9022
678.1924, 159.6747
678.6745, 161.5791
679.1566, 162.7636
679.6387, 163.1343
680.1208, 162.7086
680.6030, 161.4164
681.0851, 159.2815
681.5672, 156.7117
682.0493, 153.9004
682.5314, 150.7211
683.0135, 146.8384
683.4957, 142.3709
683.9778, 137.9460
684.4599, 134.1139
684.9420, 130.2292
685.4241, 125.6248
685.9063, 120.3781
686.3884, 115.2604
686.8705, 110.4715
687.3526, 105.9308
687.8347, 101.5175
688.3168, 97.19733
688.7990, 93.36244
689.2811, 90.05762
689.7632, 87.00331
690.2453, 84.03806
690.7274, 81.12940
691.2095, 78.11220
691.6917, 74.94781
692.1738, 71.93709
692.6559, 69.45725
693.1380, 67.40106
693.6201, 65.65157
694.1022, 64.27915
694.5844, 62.94254
695.0665, 61.45884
695.5486, 59.90562
696.0307, 58.37655
696.5128, 56.93597
696.9949, 55.46889
697.4771, 53.72340
697.9592, 52.04455
698.4413, 51.34160
698.9234, 52.00459
699.4055, 52.02571
699.8876, 50.64285
700.3698, 48.49937
700.8519, 47.21422
701.3340, 46.69901
701.8161, 46.41211
702.2982, 46.36090
702.7803, 46.20032
703.2625, 45.27415
703.7446, 43.78578
704.2267, 42.78735
704.7088, 43.37260
705.1909, 44.00343
705.6730, 43.80088
706.1552, 42.63390
706.6373, 41.76528
707.1194, 41.39394
707.6015, 41.04818
708.0836, 40.42161
708.5657, 39.48927
709.0479, 38.78489
709.5300, 38.29415
710.0121, 38.11739
710.4942, 38.68896
710.9763, 39.59648
711.4584, 39.79061
711.9406, 39.05874
712.4227, 38.22585
712.9048, 37.93041
713.3869, 37.82975
713.8690, 37.54181
714.3511, 36.74858
714.8333, 36.19537
715.3154, 36.11558
715.7975, 36.30153
716.2796, 36.60791
716.7617, 37.20490
717.2438, 37.39628
717.7260, 37.03265
718.2081, 36.33348
718.6902, 35.52600
719.1723, 34.65819
719.6544, 34.17345
720.1365, 34.28858
720.6187, 34.72123
721.1008, 35.32391
721.5829, 35.98109
722.0650, 36.43791
722.5471, 36.53744
723.0292, 36.45247
723.5114, 36.12023
723.9935, 35.63123
724.4756, 35.36157
724.9577, 35.36179
725.4398, 35.53373
725.9219, 35.94067
726.4041, 36.50325
726.8862, 36.77350
727.3683, 36.74826
727.8504, 36.48482
728.3325, 35.74386
728.8146, 34.86779
729.2968, 34.82207
729.7789, 35.49456
730.2610, 35.85100
730.7431, 34.70557
731.2252, 33.39692
731.7073, 33.00515
732.1895, 33.70412
732.6716, 34.24556
733.1537, 34.57153
733.6358, 34.52216
734.1179, 33.85540
734.6000, 32.34631
735.0822, 31.62642
735.5643, 31.85484
736.0464, 32.30836
736.5285, 32.25966
737.0106, 31.87845
737.4927, 31.91016
737.9749, 32.48000
738.4570, 32.94891
738.9391, 32.59106
739.4212, 31.89808
739.9033, 31.42838
740.3854, 31.36131
740.8676, 31.37180
741.3497, 31.42856
741.8318, 31.48924
742.3139, 31.50156
742.7960, 31.40757
743.2781, 31.45325
743.7603, 31.77081
744.2424, 32.03662
744.7245, 31.57522
745.2066, 30.51533
745.6887, 29.96622
746.1708, 30.32546
746.6530, 30.92055
747.1351, 30.99047
747.6172, 30.74316
748.0993, 30.54226
748.5814, 30.59928
749.0635, 30.63353
749.5457, 30.46911
750.0278, 30.22826
750.5099, 30.18526
750.9920, 30.50578
751.4741, 30.71456
751.9562, 30.71464
752.4384, 30.56079
752.9205, 30.44676
753.4026, 30.36535
753.8847, 29.97546
754.3668, 28.84818
754.8489, 27.68228
755.3311, 27.78596
755.8132, 28.73225
756.2953, 29.26911
756.7774, 28.22045
757.2595, 27.20785
757.7416, 27.12621
758.2238, 27.81678
758.7059, 28.25929
759.1880, 28.37536
759.6701, 28.26553
760.1522, 27.83570
760.6343, 27.20474
761.1165, 27.06708
761.5986, 27.44706
762.0807, 27.82366
762.5628, 27.93362
763.0449, 27.84470
763.5270, 27.63142
764.0092, 27.31148
764.4913, 26.97066
764.9734, 26.57017
765.4555, 26.23945
765.9376, 26.06261
766.4197, 26.04183
766.9019, 26.11484
767.3840, 26.37130
767.8661, 26.58190
768.3482, 26.64998
768.8303, 26.57900
769.3124, 26.44687
769.7946, 26.25719
770.2767, 25.97832
770.7588, 25.32927
771.2409, 24.67017
771.7230, 24.78473
772.2051, 25.66376
772.6873, 26.51556
773.1694, 27.09269
773.6515, 27.31146
774.1336, 27.00529
774.6157, 26.03553
775.0978, 25.32547
775.5800, 24.96585
776.0621, 24.78819
776.5442, 24.71454
777.0263, 24.74746
777.5084, 24.84853
777.9905, 25.02598
778.4727, 25.19541
778.9548, 25.25962
779.4369, 25.27512
779.9190, 25.39303
780.4011, 25.63768
780.8832, 25.72122
781.3654, 25.20199
781.8475, 24.65140
782.3296, 24.55253
782.8117, 25.21042
783.2938, 25.48475
783.7759, 25.05406
784.2581, 24.68923
784.7402, 25.20782
785.2223, 26.61057
785.7044, 26.96562
786.1865, 26.08980
786.6686, 25.13338
787.1508, 25.43683
787.6329, 26.28052
788.1150, 26.47411
788.5971, 25.73519
789.0792, 25.04989
789.5613, 24.90604
790.0435, 24.99844
790.5256, 25.11427
791.0077, 25.34104
791.4898, 25.24573
791.9719, 24.58695
792.4540, 24.01177
792.9362, 24.26933
793.4183, 25.27223
793.9004, 25.95919
794.3825, 26.24668
794.8646, 26.28068
795.3467, 25.96860
795.8289, 25.59197
796.3110, 25.59349
796.7931, 26.15950
797.2752, 26.61356
797.7573, 26.72307
798.2394, 26.61139
798.7216, 26.33920
799.2037, 25.64899
799.6858, 25.55006
800.1679, 26.22227
800.6500, 27.07856
801.1321, 27.52255
801.6143, 27.63735
802.0964, 27.84903
802.5785, 28.21079
803.0606, 28.60650
803.5427, 28.96815
804.0248, 29.28513
804.5070, 29.57638
804.9891, 29.90936
805.4712, 30.01534
805.9533, 29.56441
806.4354, 29.06850
806.9175, 28.92722
807.3997, 29.26160
807.8818, 29.38149
808.3639, 29.20043
808.8460, 29.06619
809.3281, 29.40354
809.8102, 30.06365
810.2924, 30.76400
810.7745, 31.50818
811.2566, 31.89945
811.7387, 31.28478
812.2208, 30.41375
812.7029, 29.97753
813.1851, 30.27834
813.6672, 30.48848
814.1493, 30.59710
814.6314, 30.56964
815.1135, 30.29762
815.5956, 29.75741
816.0778, 29.49254
816.5599, 29.52765
817.0420, 29.79748
817.5241, 30.48734
818.0062, 31.27471
818.4883, 31.63436
818.9705, 31.45893
819.4526, 31.17265
819.9347, 30.89248
820.4168, 30.63758
820.8989, 30.39816
821.3810, 30.12007
821.8632, 30.09934
822.3453, 30.41626
822.8274, 30.81659
823.3095, 31.21017
823.7916, 31.53777
824.2737, 31.31549
824.7559, 30.51503
825.2380, 29.74765
825.7201, 29.52537
826.2022, 29.57700
826.6843, 29.67541
827.1664, 29.79966
827.6486, 29.89651
828.1307, 29.99574
828.6128, 30.02276
829.0949, 29.91510
829.5770, 29.65976
830.0591, 29.45623
830.5413, 29.28922
831.0234, 29.27777
831.5055, 29.72766
831.9876, 30.32361
832.4697, 30.28435
832.9518, 29.63980
833.4340, 29.23010
833.9161, 29.89013
834.3982, 30.65917
834.8803, 30.92915
835.3624, 30.61860
835.8445, 30.27040
836.3267, 29.82237
836.8088, 29.45693
837.2909, 29.23867
837.7730, 29.17771
838.2551, 29.44662
838.7372, 30.01802
839.2194, 30.44996
839.7015, 30.37951
840.1836, 30.09014
840.6657, 29.77757
841.1478, 29.47176
841.6299, 29.30416
842.1121, 29.34727
842.5942, 29.51249
843.0763, 29.80870
843.5584, 30.20286
844.0405, 30.49643
844.5226, 30.67282
845.0048, 30.86429
845.4869, 31.13543
845.9690, 31.45232
846.4511, 31.92648
846.9332, 32.41707
847.4153, 32.45099
847.8975, 31.25598
848.3796, 30.10156
848.8617, 29.60144
849.3438, 29.64221
849.8259, 29.79343
850.3080, 30.15578
850.7902, 30.34248
851.2723, 30.15226
851.7544, 29.86927
852.2365, 30.39270
852.7186, 31.51718
853.2007, 31.97047
853.6829, 30.90829
854.1650, 29.64139
854.6471, 29.29888
855.1292, 29.54375
855.6113, 29.80982
856.0934, 29.97445
856.5756, 30.11094
857.0577, 30.23850
857.5398, 30.33494
858.0219, 30.35588
858.5040, 30.29535
858.9861, 30.29000
859.4683, 30.39596
859.9504, 30.43916
860.4325, 30.02626
860.9146, 29.45065
861.3967, 29.25393
861.8788, 29.72285
862.3610, 30.15525
862.8431, 30.35438
863.3252, 30.34752
863.8073, 30.15262
864.2894, 29.67067
864.7715, 29.30048
865.2537, 29.05625
865.7358, 28.89776
866.2179, 28.80380
866.7000, 28.76112
867.1821, 28.73113
867.6642, 28.70949
868.1464, 28.71154
868.6285, 28.71229
869.1106, 28.76682
869.5927, 28.95426
870.0748, 29.33784
870.5569, 29.55007
871.0391, 29.56134
871.5212, 29.45218
872.0033, 29.23714
872.4854, 28.93099
872.9675, 28.56774
873.4496, 28.16204
873.9318, 28.02810
874.4139, 28.74851
874.8960, 29.55169
875.3781, 29.73766
875.8602, 29.34019
876.3423, 28.83162
876.8245, 28.10531
877.3066, 27.54147
877.7887, 27.20697
878.2708, 27.12130
878.7529, 27.54878
879.2350, 28.48984
879.7172, 29.04070
880.1993, 28.56319
880.6814, 27.77307
881.1635, 27.53088
881.6456, 27.71418
882.1277, 28.03725
882.6099, 28.68896
883.0920, 29.11527
883.5741, 29.07752
884.0562, 28.76744
884.5383, 28.41741
885.0204, 27.98365
885.5026, 27.81500
885.9847, 28.01916
886.4668, 28.37263
886.9489, 28.57871
887.4310, 28.70394
887.9131, 28.91101
888.3953, 29.32573
888.8774, 29.57677
889.3595, 29.41851
889.8416, 29.06510
890.3237, 28.69213
890.8058, 28.19168
891.2880, 28.03865
891.7701, 28.29779
892.2522, 28.70726
892.7343, 29.15582
893.2164, 29.55342
893.6985, 29.55759
894.1807, 29.14789
894.6628, 28.83785
895.1449, 29.00809
895.6270, 29.35112
896.1091, 29.66835
896.5912, 29.93812
897.0734, 30.32238
897.5555, 30.90523
898.0376, 31.39550
898.5197, 31.65299
899.0018, 31.70819
899.4839, 31.59286
899.9661, 31.33975
900.4482, 31.14026
900.9303, 31.12543
901.4124, 31.17426
901.8945, 31.20881
902.3766, 31.24173
902.8588, 31.32865
903.3409, 31.55397
903.8230, 31.67473
904.3051, 31.60877
904.7872, 31.46322
905.2693, 31.51261
905.7515, 31.70254
906.2336, 31.61898
906.7157, 30.94666
907.1978, 30.53293
907.6799, 31.49149
908.1620, 32.95670
908.6442, 33.87532
909.1263, 33.59153
909.6084, 33.51677
910.0905, 33.79901
910.5726, 34.15155
911.0547, 34.29665
911.5369, 34.25671
912.0190, 34.36324
912.5011, 34.64540
912.9832, 34.78191
913.4653, 34.09791
913.9474, 33.42082
914.4296, 33.66381
914.9117, 34.94814
915.3938, 36.06652
915.8759, 36.87421
916.3580, 37.43555
916.8401, 37.71387
917.3223, 37.76218
917.8044, 37.86546
918.2865, 38.02348
918.7686, 38.25145
919.2507, 38.55263
919.7328, 38.93130
920.2150, 39.36242
920.6971, 39.87384
921.1792, 40.54402
921.6613, 41.84823
922.1434, 42.67348
922.6255, 42.65204
923.1077, 42.28507
923.5898, 42.44276
924.0719, 43.09956
924.5540, 43.85918
925.0361, 44.68151
925.5182, 45.43344
926.0004, 45.91456
926.4825, 46.28911
926.9646, 46.76683
927.4467, 47.42583
927.9288, 48.07626
928.4109, 48.62391
928.8931, 49.25275
929.3752, 50.22952
929.8573, 51.53413
930.3394, 52.05626
930.8215, 51.79255
931.3036, 51.54622
931.7858, 52.02952
932.2679, 52.72499
932.7500, 53.05218
933.2321, 53.06251
933.7142, 53.36473
934.1964, 54.46493
934.6785, 55.37766
935.1606, 55.85793
935.6427, 55.98006
936.1248, 55.78190
936.6069, 55.31330
937.0891, 55.25956
937.5712, 56.04129
938.0533, 56.95113
938.5354, 57.23629
939.0175, 57.22631
939.4996, 57.39956
939.9818, 58.22742
940.4639, 58.67619
940.9460, 58.47556
941.4281, 58.20740
941.9102, 58.63310
942.3923, 59.62938
942.8745, 59.90393
943.3566, 59.34362
943.8387, 58.80366
944.3208, 59.17202
944.8029, 59.73166
945.2850, 59.83899
945.7672, 59.42055
946.2493, 59.11372
946.7314, 59.18853
947.2135, 58.96008
947.6956, 57.98889
948.1777, 56.58904
948.6599, 55.88950
949.1420, 55.84351
949.6241, 56.25212
950.1062, 57.76916
950.5883, 58.81863
951.0704, 57.73504
951.5526, 55.54418
952.0347, 54.24653
952.5168, 54.52270
952.9989, 54.62634
953.4810, 54.42971
953.9631, 54.02726
954.4453, 53.43116
954.9274, 52.72338
955.4095, 52.19824
955.8916, 51.90572
956.3737, 51.70322
956.8558, 51.82883
957.3380, 51.75264
957.8201, 50.92200
958.3022, 49.25611
958.7843, 48.00460
959.2664, 47.22465
959.7485, 46.68658
960.2307, 46.42252
960.7128, 46.22591
961.1949, 45.53691
961.6770, 44.47131
962.1591, 43.45379
962.6412, 42.63360
963.1234, 41.94526
963.6055, 41.32385
964.0876, 40.83381
964.5697, 40.63958
965.0518, 40.88311
965.5339, 40.72507
966.0161, 39.99665
966.4982, 39.08810
966.9803, 38.41518
967.4624, 37.89557
967.9445, 37.33600
968.4266, 36.65474
968.9088, 36.35338
969.3909, 37.05018
969.8730, 37.75952
970.3551, 37.93665
970.8372, 37.61492
971.3193, 37.43087
971.8015, 37.38564
972.2836, 37.47503
972.7657, 37.74584
973.2478, 38.10666
973.7299, 38.40296
974.2120, 38.70717
974.6942, 39.20040
975.1763, 40.03673
975.6584, 40.94944
976.1405, 41.97810
976.6226, 42.99458
977.1047, 43.80093
977.5869, 44.41938
978.0690, 44.98083
978.5511, 45.48020
979.0332, 46.09254
979.5153, 46.96778
979.9974, 48.03066
980.4796, 49.23418
980.9617, 50.58661
981.4438, 51.95490
981.9259, 53.20551
982.4080, 54.78436
982.8901, 57.00238
983.3723, 59.66368
983.8544, 62.29528
984.3365, 64.84868
984.8186, 67.12272
985.3007, 68.36762
985.7828, 70.02914
986.2650, 72.93502
986.7471, 76.69827
987.2292, 80.65643
987.7113, 84.93223
988.1934, 88.87310
988.6755, 92.34009
989.1577, 95.80150
989.6398, 99.48384
990.1219, 103.5848
990.6040, 108.5960
991.0861, 114.5814
991.5682, 120.5285
992.0504, 125.9816
992.5325, 131.3561
993.0146, 136.8422
993.4967, 142.3635
993.9788, 147.9600
994.4609, 153.6346
994.9431, 159.6193
995.4252, 166.0942
995.9073, 172.8138
996.3894, 179.6817
996.8715, 186.6311
997.3536, 193.6921
997.8358, 201.3757
998.3179, 208.2328
998.8000, 214.0057
999.2821, 219.3167
999.7642, 224.9680
1000.246, 230.8252
1000.728, 235.8618
1001.211, 240.0943
1001.693, 243.7378
1002.175, 247.1147
1002.657, 249.8539
1003.139, 251.8009
1003.621, 252.8662
1004.103, 252.6583
1004.585, 250.9924
1005.068, 248.7094
1005.550, 245.9176
1006.032, 242.8336
1006.514, 240.1374
1006.996, 237.3094
1007.478, 233.0768
1007.960, 226.4270
1008.442, 220.1103
1008.924, 215.2237
1009.407, 210.6585
1009.889, 205.6106
1010.371, 200.0748
1010.853, 194.7873
1011.335, 189.6870
1011.817, 184.8786
1012.299, 180.6302
1012.781, 176.4689
1013.263, 171.7422
1013.746, 166.6844
1014.228, 162.0702
1014.710, 157.8712
1015.192, 154.4422
1015.674, 152.1314
1016.156, 150.1600
1016.638, 147.0269
1017.120, 143.2182
1017.603, 140.4142
1018.085, 138.9954
1018.567, 137.5085
1019.049, 135.1458
1019.531, 132.3543
1020.013, 129.2863
1020.495, 125.9772
1020.977, 123.0466
1021.459, 120.5083
1021.942, 118.2252
1022.424, 116.1170
1022.906, 114.2492
1023.388, 112.8200
1023.870, 111.6495
1024.352, 110.3852
1024.834, 109.1550
1025.316, 107.4373
1025.799, 104.9582
1026.281, 102.3311
1026.763, 100.2464
1027.245, 98.62766
1027.727, 96.55276
1028.209, 94.00741
1028.691, 91.94241
1029.173, 91.63311
1029.656, 91.45434
1030.138, 90.22457
1030.620, 88.11189
1031.102, 86.20215
1031.584, 84.44704
1032.066, 83.13711
1032.548, 82.47582
1033.030, 81.93061
1033.512, 80.65398
1033.995, 78.96428
1034.477, 77.46140
1034.959, 76.38698
1035.441, 75.09392
1035.923, 73.11330
1036.405, 71.23757
1036.887, 69.99376
1037.369, 69.27602
1037.851, 67.92809
1038.334, 66.03775
1038.816, 64.21761
1039.298, 62.69115
1039.780, 61.48306
1040.262, 60.81823
1040.744, 60.41896
1041.226, 59.72766
1041.708, 58.66014
1042.191, 57.44902
1042.673, 56.05943
1043.155, 54.66314
1043.637, 53.26080
1044.119, 52.02869
1044.601, 51.45448
1045.083, 51.51479
1045.565, 51.23128
1046.047, 49.92657
1046.530, 48.58230
1047.012, 47.44259
1047.494, 46.52243
1047.976, 46.06334
1048.458, 45.95599
1048.940, 45.27034
1049.422, 43.50636
1049.904, 41.89105
1050.386, 41.49131
1050.869, 41.60655
1051.351, 41.59933
1051.833, 41.47190
1052.315, 40.89679
1052.797, 39.78482
1053.279, 38.61995
1053.761, 37.56535
1054.243, 36.69478
1054.726, 36.22980
1055.208, 36.04583
1055.690, 35.81334
1056.172, 35.42488
1056.654, 34.94140
1057.136, 34.23202
1057.618, 33.61053
1058.100, 33.58430
1058.583, 34.02617
1059.065, 34.07681
1059.547, 33.67699
1060.029, 33.15659
1060.511, 32.57987
1060.993, 32.11989
1061.475, 32.06006
1061.957, 32.23362
1062.439, 31.81429
1062.922, 30.62313
1063.404, 30.06227
1063.886, 30.68961
1064.368, 31.45691
1064.850, 30.90854
1065.332, 29.76735
1065.814, 28.98206
1066.296, 28.76238
1066.778, 28.84752
1067.261, 29.55637
1067.743, 29.88018
1068.225, 29.05292
1068.707, 27.57071
1069.189, 27.15484
1069.671, 27.57203
1070.153, 28.00613
1070.635, 28.23385
1071.118, 28.22011
1071.600, 27.73721
1072.082, 27.14182
1072.564, 26.82089
1073.046, 26.81125
1073.528, 26.60052
1074.010, 26.16699
1074.492, 25.78731
1074.974, 25.80757
1075.457, 25.86812
1075.939, 25.57251
1076.421, 25.02655
1076.903, 24.69216
1077.385, 24.60735
1077.867, 24.74191
1078.349, 25.18209
1078.831, 25.58875
1079.313, 25.38181
1079.796, 24.87170
1080.278, 24.64214
1080.760, 24.78685
1081.242, 24.88462
1081.724, 24.77035
1082.206, 24.60504
1082.688, 24.41616
1083.170, 24.23322
1083.652, 24.17522
1084.135, 24.21909
1084.617, 24.25239
1085.099, 24.24331
1085.581, 24.20407
1086.063, 24.10496
1086.545, 24.00711
1087.027, 23.96131
1087.509, 23.96964
1087.992, 24.03760
1088.474, 24.17215
1088.956, 24.26437
1089.438, 24.31456
1089.920, 24.23110
1090.402, 23.66872
1090.884, 22.94241
1091.366, 22.76220
1091.849, 23.78941
1092.331, 24.18607
1092.813, 23.68091
1093.295, 23.03237
1093.777, 23.10005
1094.259, 23.53427
1094.741, 23.59637
1095.223, 23.29470
1095.705, 22.99998
1096.188, 22.92905
1096.670, 22.78852
1097.152, 22.42984
1097.634, 22.03939
1098.116, 21.99673
1098.598, 22.24038
1099.080, 22.47927
1099.562, 22.68526
1100.044, 22.66837
1100.527, 21.95325
1101.009, 21.29126
1101.491, 21.27490
1101.973, 21.77600
1102.455, 22.03351
1102.937, 22.04182
1103.419, 21.99452
1103.901, 21.91156
1104.384, 21.90980
1104.866, 22.26529
1105.348, 22.68864
1105.830, 22.78789
1106.312, 22.37171
1106.794, 22.27842
1107.276, 22.62436
1107.758, 22.87326
1108.240, 22.57747
1108.723, 22.11047
1109.205, 22.20901
1109.687, 22.64846
1110.169, 22.91110
1110.651, 22.83108
1111.133, 22.51940
1111.615, 21.82034
1112.097, 21.18217
1112.579, 21.07548
1113.062, 21.36631
1113.544, 21.66562
1114.026, 21.92586
1114.508, 21.92457
1114.990, 20.89989
1115.472, 20.39696
1115.954, 21.37088
1116.436, 22.87280
1116.919, 23.49635
1117.401, 23.28994
1117.883, 22.89322
1118.365, 22.36944
1118.847, 21.89605
1119.329, 21.55434
1119.811, 21.35629
1120.293, 21.34767
1120.776, 21.49563
1121.258, 21.74758
1121.740, 22.14551
1122.222, 22.21715
1122.704, 21.79849
1123.186, 21.24240
1123.668, 20.73279
1124.150, 20.39575
1124.632, 20.42757
1125.115, 20.90462
1125.597, 21.28568
1126.079, 21.59637
1126.561, 21.69269
1127.043, 21.46285
1127.525, 21.07684
1128.007, 20.74259
1128.489, 20.47582
1128.971, 20.30874
1129.454, 20.26210
1129.936, 20.30395
1130.418, 20.52449
1130.900, 20.64122
1131.382, 20.42196
1131.864, 20.00384
1132.346, 19.72493
1132.828, 19.59012
1133.311, 19.61704
1133.793, 19.96867
1134.275, 20.26838
1134.757, 20.49962
1135.239, 20.58166
1135.721, 20.38674
1136.203, 19.95413
1136.685, 19.58261
1137.167, 19.27195
1137.650, 18.98242
1138.132, 18.53749
1138.614, 18.28102
1139.096, 18.55495
1139.578, 19.01493
1140.060, 19.18985
1140.542, 19.07762
1141.024, 18.92299
1141.506, 18.74379
1141.989, 18.64077
1142.471, 18.78359
1142.953, 18.94119
1143.435, 18.87133
1143.917, 18.68534
1144.399, 18.85994
1144.881, 19.50933
1145.363, 19.54788
1145.846, 18.70091
1146.328, 17.78733
1146.810, 17.70989
1147.292, 17.92224
1147.774, 17.79959
1148.256, 17.33296
1148.738, 17.46169
1149.220, 18.40704
1149.703, 19.10045
1150.185, 19.19904
1150.667, 19.07430
1151.149, 19.30367
1151.631, 19.57458
1152.113, 19.35034
1152.595, 18.42879
1153.077, 18.00631
1153.559, 18.37064
1154.042, 18.63824
1154.524, 18.39880
1155.006, 17.94412
1155.488, 17.81864
1155.970, 17.87815
1156.452, 17.80630
1156.934, 17.36230
1157.416, 17.34952
1157.898, 18.18744
1158.381, 18.79271
1158.863, 18.36480
1159.345, 17.39033
1159.827, 17.36474
1160.309, 17.97032
1160.791, 18.33032
1161.273, 17.91920
1161.755, 17.61506
1162.238, 17.61444
1162.720, 17.74111
1163.202, 17.90734
1163.684, 18.09619
1164.166, 18.23328
1164.648, 18.31606
1165.130, 18.32892
1165.612, 18.23414
1166.094, 18.10416
1166.577, 17.95281
1167.059, 17.78438
1167.541, 17.58553
1168.023, 17.36484
1168.505, 17.14726
1168.987, 16.96173
1169.469, 17.05373
1169.951, 17.98159
1170.433, 18.74356
1170.916, 18.84723
1171.398, 18.55268
1171.880, 18.05262
1172.362, 17.36971
1172.844, 17.01407
1173.326, 17.02439
1173.808, 17.27552
1174.290, 18.11298
1174.773, 18.72377
1175.255, 18.36051
1175.737, 17.53552
1176.219, 17.26233
1176.701, 17.54278
1177.183, 17.55930
1177.665, 17.19409
1178.147, 16.80250
1178.630, 16.57471
1179.112, 16.50495
1179.594, 16.66331
1180.076, 16.97353
1180.558, 17.20620
1181.040, 17.35866
1181.522, 17.53234
1182.004, 17.75683
1182.486, 17.93284
1182.969, 17.98510
1183.451, 17.94041
1183.933, 17.76133
1184.415, 17.48644
1184.897, 17.36062
1185.379, 17.39512
1185.861, 17.46269
1186.343, 17.55611
1186.825, 17.56465
1187.308, 17.26152
1187.790, 16.90576
1188.272, 16.80677
1188.754, 16.96336
1189.236, 16.84435
1189.718, 16.39930
1190.200, 16.17313
1190.682, 16.37945
1191.165, 16.75534
1191.647, 17.22100
1192.129, 17.57852
1192.611, 17.51533
1193.093, 16.96972
1193.575, 16.79870
1194.057, 17.06469
1194.539, 17.24673
1195.021, 17.12153
1195.504, 16.86362
1195.986, 16.53346
1196.468, 16.26003
1196.950, 16.24722
1197.432, 16.55561
1197.914, 16.81893
1198.396, 17.04927
1198.878, 17.14424
1199.360, 17.00538
1199.843, 16.78326
1200.325, 16.59774
1200.807, 16.46968
1201.289, 16.45281
1201.771, 16.59491
1202.253, 16.58081
1202.735, 16.35070
1203.217, 16.38138
1203.700, 17.30713
1204.182, 18.18241
1204.664, 17.57235
1205.146, 16.30261
1205.628, 15.75230
1206.110, 16.34922
1206.592, 16.65510
1207.074, 16.63731
1207.557, 16.54800
1208.039, 16.45774
1208.521, 16.46653
1209.003, 16.81286
1209.485, 17.30099
1209.967, 17.56948
1210.449, 17.61213
1210.931, 17.30325
1211.413, 16.55638
1211.896, 16.00153
1212.378, 16.18198
1212.860, 16.67957
1213.342, 17.29377
1213.824, 17.83079
1214.306, 17.82455
1214.788, 17.04826
1215.270, 16.51850
1215.752, 16.28440
1216.235, 16.07981
1216.717, 15.46897
1217.199, 14.99532
1217.681, 15.42176
1218.163, 16.35662
1218.645, 16.89132
1219.127, 16.90828
1219.609, 16.80140
1220.092, 16.56289
1220.574, 16.43467
1221.056, 16.71135
1221.538, 17.09189
1222.020, 17.37606
1222.502, 17.52369
1222.984, 17.45862
1223.466, 17.11087
1223.948, 16.90073
1224.431, 16.85544
1224.913, 16.91498
1225.395, 17.07518
1225.877, 17.27905
1226.359, 17.55725
1226.841, 17.82099
1227.323, 17.88223
1227.805, 17.72253
1228.287, 17.42595
1228.770, 16.98523
1229.252, 16.68622
1229.734, 16.95319
1230.216, 17.25955
1230.698, 17.12280
1231.180, 16.76007
1231.662, 16.71841
1232.144, 17.03258
1232.627, 17.16216
1233.109, 17.05862
1233.591, 16.90699
1234.073, 16.90453
1234.555, 16.84138
1235.037, 16.42270
1235.519, 15.91128
1236.001, 15.82239
1236.484, 16.15639
1236.966, 16.56258
1237.448, 17.00577
1237.930, 17.25821
1238.412, 16.97179
1238.894, 16.65943
1239.376, 16.70066
1239.858, 16.85529
1240.340, 16.65675
1240.823, 16.15820
1241.305, 15.96392
1241.787, 16.12506
1242.269, 16.36449
1242.751, 16.51493
1243.233, 16.70884
1243.715, 17.12422
1244.197, 17.50666
1244.679, 17.32454
1245.162, 16.72336
1245.644, 16.53713
1246.126, 16.81468
1246.608, 17.07991
1247.090, 17.09604
1247.572, 17.04312
1248.054, 17.02374
1248.536, 16.92624
1249.019, 16.31914
1249.501, 15.52112
1249.983, 15.78681
1250.465, 17.10952
1250.947, 18.07882
1251.429, 17.80128
1251.911, 17.47936
1252.393, 17.35407
1252.875, 17.31061
1253.358, 17.21008
1253.840, 17.06605
1254.322, 16.86431
1254.804, 16.62483
1255.286, 16.52898
1255.768, 16.83461
1256.250, 16.90209
1256.732, 16.56803
1257.214, 16.14071
1257.697, 15.94149
1258.179, 15.93138
1258.661, 16.08867
1259.143, 16.38966
1259.625, 16.72213
1260.107, 17.13549
1260.589, 17.40534
1261.071, 17.49534
1261.554, 17.45528
1262.036, 17.26746
1262.518, 17.03119
1263.000, 16.79452
1263.482, 16.60788
1263.964, 16.66258
1264.446, 17.01243
1264.928, 17.44059
1265.411, 17.96280
1265.893, 18.19626
1266.375, 17.48765
1266.857, 16.61890
1267.339, 16.20053
1267.821, 16.20270
1268.303, 16.43908
1268.785, 16.94317
1269.267, 17.20394
1269.750, 17.15676
1270.232, 17.17228
1270.714, 17.80546
1271.196, 18.30692
1271.678, 17.97779
1272.160, 17.30061
1272.642, 17.08267
1273.124, 17.27906
1273.606, 17.13796
1274.089, 16.63000
1274.571, 16.32381
1275.053, 16.70877
1275.535, 17.19571
1276.017, 17.68880
1276.499, 18.03280
1276.981, 17.98552
1277.463, 17.61395
1277.946, 17.00920
1278.428, 16.26274
1278.910, 15.89491
1279.392, 16.58967
1279.874, 17.04391
1280.356, 16.97448
1280.838, 16.71248
1281.320, 16.60206
1281.802, 16.57570
1282.285, 16.54213
1282.767, 16.46884
1283.249, 16.22606
1283.731, 15.37342
1284.213, 15.25387
1284.695, 16.15088
1285.177, 17.10175
1285.659, 17.20733
1286.141, 16.87014
1286.624, 16.31575
1287.106, 15.77054
1287.588, 15.89446
1288.070, 16.96077
1288.552, 17.62822
1289.034, 17.81452
1289.516, 17.76083
1289.998, 17.40004
1290.481, 17.12427
1290.963, 17.48353
1291.445, 18.02548
1291.927, 17.94330
1292.409, 17.18513
1292.891, 16.74479
1293.373, 16.62596
1293.855, 16.51774
1294.338, 16.03483
1294.820, 15.75882
1295.302, 16.24256
1295.784, 16.82610
1296.266, 16.88090
1296.748, 16.50326
1297.230, 16.31977
1297.712, 16.31556
1298.194, 16.39837
1298.677, 16.48221
1299.159, 16.74744
1299.641, 17.37656
1300.123, 17.86157
1300.605, 17.65291
1301.087, 17.10600
1301.569, 17.20295
1302.051, 17.62894
1302.533, 17.67019
1303.016, 17.13860
##END=



