##NAMES=Enstatite
##RRUFFID=R100093
##IDEAL CHEMISTRY=MgSiO_3_
##LOCALITY=Hunan Province, China
##OWNER=RRUFF
##SOURCE=William W. Pinch
##DESCRIPTION=Massive green polished slab
##STATUS=The identification of this mineral has been confirmed by single-crystal X-ray diffraction.
##URL=rruff.info/R100093
154.2084, 43.28888
154.6905, 43.15657
155.1726, 42.81144
155.6547, 42.49272
156.1368, 42.17245
156.6190, 41.94307
157.1011, 41.86488
157.5832, 41.89683
158.0653, 41.96072
158.5474, 41.99614
159.0295, 42.01039
159.5117, 42.11267
159.9938, 42.54269
160.4759, 42.81407
160.9580, 42.65356
161.4401, 42.17002
161.9222, 41.65675
162.4044, 41.37745
162.8865, 41.36759
163.3686, 41.38511
163.8507, 41.55940
164.3328, 41.65132
164.8149, 41.50837
165.2971, 41.15051
165.7792, 40.73106
166.2613, 40.42967
166.7434, 40.31166
167.2255, 40.12993
167.7076, 39.72770
168.1898, 39.37368
168.6719, 39.31812
169.1540, 39.59160
169.6361, 39.95799
170.1182, 40.07258
170.6003, 39.77602
171.0825, 39.62838
171.5646, 39.91031
172.0467, 40.25459
172.5288, 40.14035
173.0109, 39.36953
173.4930, 38.42152
173.9752, 38.19255
174.4573, 38.77338
174.9394, 39.18112
175.4215, 38.93327
175.9036, 38.30787
176.3857, 37.96865
176.8679, 38.21721
177.3500, 38.63714
177.8321, 38.63391
178.3142, 38.17603
178.7963, 37.72412
179.2784, 37.51683
179.7606, 37.54275
180.2427, 37.75209
180.7248, 38.35537
181.2069, 38.94014
181.6890, 39.10429
182.1711, 38.80627
182.6533, 38.40409
183.1354, 38.23914
183.6175, 38.33949
184.0996, 38.45523
184.5817, 38.64179
185.0638, 38.75608
185.5460, 38.64006
186.0281, 38.26988
186.5102, 37.86435
186.9923, 37.76468
187.4744, 38.12967
187.9565, 38.38006
188.4387, 38.45820
188.9208, 38.40582
189.4029, 38.21537
189.8850, 37.89153
190.3671, 37.50092
190.8492, 37.14481
191.3314, 36.70917
191.8135, 36.53292
192.2956, 36.79136
192.7777, 37.20577
193.2598, 37.59642
193.7419, 37.88297
194.2241, 38.00696
194.7062, 37.82605
195.1883, 36.67789
195.6704, 35.99575
196.1525, 36.06169
196.6346, 36.52969
197.1168, 37.04610
197.5989, 37.46476
198.0810, 37.77876
198.5631, 37.95580
199.0452, 37.96443
199.5273, 37.89244
200.0095, 37.63427
200.4916, 37.31916
200.9737, 37.12498
201.4558, 37.10624
201.9379, 37.31044
202.4200, 37.96334
202.9022, 39.48656
203.3843, 40.65260
203.8664, 40.76643
204.3485, 40.15178
204.8306, 39.72937
205.3127, 39.97870
205.7949, 40.55767
206.2770, 40.66197
206.7591, 40.04363
207.2412, 39.52548
207.7233, 39.65965
208.2054, 40.35604
208.6876, 41.06902
209.1697, 41.63488
209.6518, 42.05259
210.1339, 42.29427
210.6160, 42.26132
211.0981, 42.32928
211.5803, 42.96545
212.0624, 44.17120
212.5445, 45.08318
213.0266, 45.13386
213.5087, 44.89202
213.9908, 44.88897
214.4730, 45.22334
214.9551, 45.66855
215.4372, 45.95966
215.9193, 46.06318
216.4014, 46.22971
216.8836, 46.70910
217.3657, 47.17738
217.8478, 47.33091
218.3299, 47.08855
218.8120, 46.80827
219.2941, 46.99216
219.7763, 47.74660
220.2584, 48.62774
220.7405, 49.82021
221.2226, 50.94661
221.7047, 51.74303
222.1868, 52.13849
222.6690, 52.24227
223.1511, 52.17441
223.6332, 51.77739
224.1153, 51.57631
224.5974, 51.79578
225.0795, 52.08674
225.5617, 52.16631
226.0438, 51.96593
226.5259, 51.66226
227.0080, 51.58356
227.4901, 51.96321
227.9722, 52.13872
228.4544, 51.98914
228.9365, 51.72054
229.4186, 51.53503
229.9007, 51.47455
230.3828, 51.37647
230.8649, 50.91408
231.3471, 49.40366
231.8292, 48.67588
232.3113, 49.54899
232.7934, 50.66068
233.2755, 50.83804
233.7576, 49.77704
234.2398, 48.05677
234.7219, 46.63374
235.2040, 45.65431
235.6861, 44.75336
236.1682, 43.92028
236.6503, 43.16743
237.1325, 42.53524
237.6146, 42.03178
238.0967, 41.58232
238.5788, 41.06789
239.0609, 40.40878
239.5430, 39.89066
240.0252, 39.66447
240.5073, 39.51699
240.9894, 39.26995
241.4715, 38.87885
241.9536, 38.32916
242.4357, 37.49345
242.9179, 36.20127
243.4000, 35.44355
243.8821, 35.78176
244.3642, 36.48721
244.8463, 36.73154
245.3284, 36.33699
245.8106, 35.75240
246.2927, 35.52126
246.7748, 35.65965
247.2569, 35.69496
247.7390, 35.39328
248.2211, 35.02359
248.7033, 34.98547
249.1854, 35.37938
249.6675, 35.77787
250.1496, 35.66524
250.6317, 35.12414
251.1138, 34.70414
251.5960, 34.67593
252.0781, 34.76200
252.5602, 34.59511
253.0423, 34.12427
253.5244, 33.51442
254.0065, 32.76925
254.4887, 31.97706
254.9708, 31.42277
255.4529, 31.29314
255.9350, 31.39700
256.4171, 31.49536
256.8992, 31.58584
257.3813, 31.64991
257.8635, 31.70286
258.3456, 31.71828
258.8277, 31.62798
259.3098, 31.33957
259.7919, 30.97857
260.2740, 30.70158
260.7562, 30.49974
261.2383, 30.42013
261.7204, 30.56228
262.2025, 30.82747
262.6846, 31.11159
263.1667, 31.38625
263.6489, 31.66552
264.1310, 32.02620
264.6131, 32.52922
265.0952, 32.84676
265.5773, 32.72671
266.0594, 32.38329
266.5416, 31.95732
267.0237, 31.44345
267.5058, 30.97353
267.9879, 30.74274
268.4700, 30.79369
268.9521, 30.89205
269.4343, 30.98813
269.9164, 31.08650
270.3985, 31.19013
270.8806, 31.29974
271.3627, 31.41530
271.8448, 31.56853
272.3270, 31.79174
272.8091, 31.88566
273.2912, 31.71279
273.7733, 31.44584
274.2554, 31.13227
274.7375, 30.78803
275.2197, 30.52061
275.7018, 30.49301
276.1839, 30.75376
276.6660, 30.93732
277.1481, 30.93249
277.6302, 30.87759
278.1124, 30.85073
278.5945, 30.84985
279.0766, 30.80516
279.5587, 30.58844
280.0408, 30.15822
280.5229, 29.92739
281.0051, 30.04910
281.4872, 30.27539
281.9693, 30.61149
282.4514, 30.98872
282.9335, 31.23730
283.4156, 31.15732
283.8978, 30.73909
284.3799, 30.44947
284.8620, 30.29154
285.3441, 30.28086
285.8262, 30.62264
286.3083, 31.12117
286.7905, 31.35263
287.2726, 30.92774
287.7547, 29.94433
288.2368, 29.36077
288.7189, 29.44203
289.2010, 29.64941
289.6832, 29.91390
290.1653, 30.18728
290.6474, 30.40129
291.1295, 30.50125
291.6116, 30.53588
292.0938, 30.72169
292.5759, 31.28332
293.0580, 31.66531
293.5401, 31.66517
294.0222, 31.48322
294.5043, 31.31883
294.9865, 31.25786
295.4686, 31.30032
295.9507, 31.49005
296.4328, 32.10408
296.9149, 32.34404
297.3970, 31.86730
297.8792, 31.17359
298.3613, 30.64315
298.8434, 30.40274
299.3255, 30.41159
299.8076, 30.65704
300.2897, 31.35352
300.7719, 31.79169
301.2540, 31.75862
301.7361, 31.63152
302.2182, 31.62750
302.7003, 31.79138
303.1824, 32.05586
303.6646, 32.35493
304.1467, 32.70490
304.6288, 33.02604
305.1109, 33.26269
305.5930, 33.52232
306.0751, 33.98649
306.5573, 34.55747
307.0394, 34.89993
307.5215, 34.62955
308.0036, 33.67464
308.4857, 33.14552
308.9678, 33.41136
309.4500, 33.75989
309.9321, 34.02387
310.4142, 34.21606
310.8963, 34.41831
311.3784, 34.70057
311.8605, 35.03582
312.3427, 35.20144
312.8248, 34.93700
313.3069, 34.80605
313.7890, 34.97945
314.2711, 35.32233
314.7532, 35.65535
315.2354, 35.88724
315.7175, 36.06725
316.1996, 36.35792
316.6817, 37.01948
317.1638, 37.35817
317.6459, 36.96517
318.1281, 36.43364
318.6102, 36.36177
319.0923, 36.91782
319.5744, 37.72169
320.0565, 38.10862
320.5386, 37.78719
321.0208, 37.72231
321.5029, 38.15848
321.9850, 38.66423
322.4671, 38.95442
322.9492, 39.01023
323.4313, 39.01637
323.9135, 39.17257
324.3956, 39.49997
324.8777, 39.87459
325.3598, 40.53527
325.8419, 41.02271
326.3240, 40.98226
326.8062, 40.58891
327.2883, 40.33103
327.7704, 40.62001
328.2525, 41.41876
328.7346, 42.06828
329.2167, 42.51121
329.6989, 42.85437
330.1810, 43.14120
330.6631, 43.34549
331.1452, 43.37716
331.6273, 43.15883
332.1094, 42.83522
332.5916, 42.90951
333.0737, 43.82175
333.5558, 44.36712
334.0379, 44.04313
334.5200, 43.47017
335.0021, 43.26540
335.4843, 43.62148
335.9664, 44.20353
336.4485, 44.43370
336.9306, 44.12279
337.4127, 44.02892
337.8948, 44.55149
338.3770, 45.05405
338.8591, 45.11458
339.3412, 44.72623
339.8233, 44.21116
340.3055, 43.85482
340.7876, 43.66082
341.2697, 43.60939
341.7518, 43.96983
342.2339, 44.20653
342.7160, 44.08818
343.1982, 43.67854
343.6803, 43.14947
344.1624, 42.58141
344.6445, 41.99329
345.1266, 41.48861
345.6087, 41.13067
346.0909, 40.75518
346.5730, 40.19639
347.0551, 39.62659
347.5372, 39.30127
348.0193, 39.35743
348.5014, 39.57500
348.9836, 39.58058
349.4657, 39.37468
349.9478, 38.95038
350.4299, 37.97339
350.9120, 36.97898
351.3941, 36.38111
351.8763, 36.25444
352.3584, 36.34425
352.8405, 36.42277
353.3226, 36.48940
353.8047, 36.58839
354.2868, 36.86781
354.7690, 37.02058
355.2511, 36.75565
355.7332, 36.16631
356.2153, 35.65704
356.6974, 35.51731
357.1795, 35.67271
357.6617, 35.86800
358.1438, 36.17797
358.6259, 36.35924
359.1080, 36.07870
359.5901, 35.62012
360.0722, 35.47749
360.5544, 36.00087
361.0365, 36.71320
361.5186, 36.85123
362.0007, 36.32192
362.4828, 35.95876
362.9649, 36.35477
363.4471, 36.94501
363.9292, 37.04039
364.4113, 36.48110
364.8934, 35.83462
365.3755, 35.54422
365.8576, 35.55246
366.3398, 35.52687
366.8219, 35.33156
367.3040, 35.17575
367.7861, 35.30435
368.2682, 35.69018
368.7503, 36.09586
369.2325, 36.53517
369.7146, 36.90453
370.1967, 36.98291
370.6788, 36.71811
371.1609, 36.37708
371.6430, 36.20493
372.1252, 36.12140
372.6073, 35.86123
373.0894, 35.02120
373.5715, 34.28794
374.0536, 34.37604
374.5357, 35.14815
375.0179, 35.79166
375.5000, 35.91456
375.9821, 35.65204
376.4642, 35.30621
376.9463, 34.76183
377.4284, 34.40285
377.9106, 34.58107
378.3927, 34.99346
378.8748, 35.10395
379.3569, 34.75879
379.8390, 34.17722
380.3211, 33.57130
380.8033, 32.90179
381.2854, 32.48923
381.7675, 32.54381
382.2496, 32.73198
382.7317, 32.82178
383.2138, 32.79147
383.6960, 32.69353
384.1781, 32.56045
384.6602, 32.39360
385.1423, 32.20905
385.6244, 31.90952
386.1065, 31.70142
386.5887, 31.83046
387.0708, 32.06572
387.5529, 31.94821
388.0350, 31.25989
388.5171, 30.31029
388.9992, 29.77393
389.4814, 29.84946
389.9635, 30.08989
390.4456, 30.82443
390.9277, 31.50540
391.4098, 31.56204
391.8919, 30.99495
392.3741, 30.35587
392.8562, 30.24282
393.3383, 30.74880
393.8204, 31.06810
394.3025, 31.16435
394.7846, 31.12830
395.2668, 30.91381
395.7489, 30.59661
396.2310, 30.29822
396.7131, 30.08858
397.1952, 29.94919
397.6773, 29.82178
398.1595, 29.75782
398.6416, 29.61389
399.1237, 29.27761
399.6058, 28.92054
400.0879, 28.73911
400.5700, 28.75848
401.0522, 28.77014
401.5343, 28.43933
402.0164, 27.65985
402.4985, 27.18956
402.9806, 27.46449
403.4627, 27.66959
403.9449, 27.33497
404.4270, 26.63463
404.9091, 26.05630
405.3912, 25.93551
405.8733, 26.13783
406.3554, 26.24589
406.8376, 26.22473
407.3197, 26.19761
407.8018, 26.30407
408.2839, 26.38914
408.7660, 26.25223
409.2481, 25.81290
409.7303, 25.32492
410.2124, 25.04016
410.6945, 24.94892
411.1766, 24.90043
411.6587, 24.91788
412.1408, 24.89526
412.6230, 24.72654
413.1051, 24.42773
413.5872, 24.10699
414.0693, 23.69687
414.5514, 23.33400
415.0335, 23.32455
415.5157, 23.72219
415.9978, 24.06071
416.4799, 23.99951
416.9620, 23.64934
417.4441, 23.38255
417.9262, 23.17218
418.4084, 23.10024
418.8905, 23.33928
419.3726, 23.75789
419.8547, 23.98868
420.3368, 23.87878
420.8189, 23.62644
421.3011, 23.55201
421.7832, 23.69698
422.2653, 23.83118
422.7474, 24.01686
423.2295, 24.12399
423.7116, 23.97016
424.1938, 23.58392
424.6759, 23.21868
425.1580, 23.07217
425.6401, 23.13363
426.1222, 23.20131
426.6043, 23.39864
427.0865, 23.45917
427.5686, 23.19431
428.0507, 22.79067
428.5328, 22.51653
429.0149, 22.47269
429.4970, 22.54473
429.9792, 22.51180
430.4613, 22.19965
430.9434, 22.17844
431.4255, 22.81353
431.9076, 23.36999
432.3897, 23.30903
432.8719, 22.76045
433.3540, 22.27560
433.8361, 22.31898
434.3182, 22.79676
434.8003, 23.00422
435.2824, 22.65183
435.7646, 22.47519
436.2467, 22.84754
436.7288, 23.37522
437.2109, 23.59989
437.6930, 23.37519
438.1751, 23.02474
438.6573, 23.01321
439.1394, 23.38003
439.6215, 23.51230
440.1036, 23.13539
440.5857, 22.71563
441.0678, 22.54265
441.5500, 22.58418
442.0321, 22.69645
442.5142, 22.88274
442.9963, 23.06402
443.4784, 23.03785
443.9605, 22.76365
444.4427, 22.61100
444.9248, 22.90619
445.4069, 23.36496
445.8890, 23.46930
446.3711, 23.07726
446.8532, 22.67092
447.3354, 22.55968
447.8175, 22.62126
448.2996, 22.57145
448.7817, 22.33377
449.2638, 22.06521
449.7459, 21.91592
450.2281, 21.89467
450.7102, 21.98970
451.1923, 22.41664
451.6744, 22.76819
452.1565, 22.71340
452.6386, 22.35590
453.1208, 22.00444
453.6029, 21.80251
454.0850, 21.76299
454.5671, 21.92657
455.0492, 22.66325
455.5313, 23.09311
456.0135, 22.97434
456.4956, 22.70182
456.9777, 22.62293
457.4598, 22.75827
457.9419, 22.85317
458.4240, 22.61734
458.9062, 22.04156
459.3883, 21.85976
459.8704, 22.54663
460.3525, 23.10855
460.8346, 23.34110
461.3167, 23.32421
461.7989, 23.15040
462.2810, 22.85253
462.7631, 22.47367
463.2452, 22.00911
463.7273, 21.39398
464.2094, 21.08438
464.6916, 21.31237
465.1737, 21.71371
465.6558, 22.21671
466.1379, 22.73507
466.6200, 23.01926
467.1021, 22.80063
467.5843, 22.31797
468.0664, 22.03262
468.5485, 21.95409
469.0306, 22.00978
469.5127, 22.28635
469.9948, 22.60893
470.4770, 22.67699
470.9591, 22.40298
471.4412, 22.16911
471.9233, 22.26884
472.4054, 22.51316
472.8875, 22.48060
473.3697, 22.07602
473.8518, 21.73955
474.3339, 21.95264
474.8160, 22.70230
475.2981, 23.03307
475.7802, 22.51710
476.2624, 22.04312
476.7445, 22.16666
477.2266, 22.58983
477.7087, 22.69068
478.1908, 22.21829
478.6729, 21.48674
479.1551, 21.06949
479.6372, 21.14614
480.1193, 21.12342
480.6014, 20.80185
481.0835, 20.57176
481.5656, 20.68330
482.0478, 21.07917
482.5299, 21.59789
483.0120, 22.17510
483.4941, 22.71322
483.9762, 22.76592
484.4583, 21.98539
484.9405, 21.43160
485.4226, 21.47386
485.9047, 21.69139
486.3868, 21.78708
486.8689, 21.71527
487.3510, 21.57610
487.8332, 21.38554
488.3153, 21.18203
488.7974, 21.18694
489.2795, 21.49971
489.7616, 21.79519
490.2437, 21.83634
490.7259, 21.74022
491.2080, 21.68450
491.6901, 21.73756
492.1722, 21.76104
492.6543, 21.61732
493.1364, 21.36255
493.6186, 21.16163
494.1007, 21.05874
494.5828, 21.00306
495.0649, 20.94724
495.5470, 20.89255
496.0291, 20.80628
496.5113, 20.48593
496.9934, 20.32071
497.4755, 20.74813
497.9576, 21.51137
498.4397, 21.90590
498.9218, 21.56693
499.4040, 20.91803
499.8861, 20.95888
500.3682, 22.51540
500.8503, 23.21960
501.3324, 22.38470
501.8145, 21.38965
502.2967, 21.09726
502.7788, 21.42632
503.2609, 21.80107
503.7430, 21.80968
504.2251, 21.57098
504.7072, 21.55515
505.1894, 21.84825
505.6715, 22.17000
506.1536, 22.55805
506.6357, 22.87521
507.1178, 22.95431
507.5999, 22.79036
508.0821, 22.63393
508.5642, 22.74583
509.0463, 23.00642
509.5284, 22.99961
510.0105, 22.62187
510.4926, 22.34006
510.9748, 22.53535
511.4569, 23.01019
511.9390, 23.28472
512.4211, 23.24222
512.9032, 23.16372
513.3853, 23.20269
513.8674, 23.29255
514.3495, 23.30289
514.8317, 23.20486
515.3138, 23.10201
515.7959, 23.11665
516.2780, 23.26503
516.7601, 23.26580
517.2422, 22.92970
517.7244, 22.68241
518.2065, 22.72788
518.6886, 22.93116
519.1707, 23.09910
519.6528, 23.16149
520.1349, 23.17016
520.6171, 23.24029
521.0992, 23.45736
521.5813, 23.38376
522.0634, 22.46700
522.5455, 21.81167
523.0276, 22.10541
523.5098, 22.90774
523.9919, 23.30840
524.4740, 22.78453
524.9561, 22.04656
525.4382, 22.32355
525.9203, 23.64027
526.4025, 24.41138
526.8846, 24.01302
527.3667, 23.29025
527.8488, 23.11980
528.3309, 23.40339
528.8130, 23.49468
529.2952, 22.86802
529.7773, 22.22661
530.2594, 22.32188
530.7415, 23.02075
531.2236, 23.68649
531.7057, 24.05734
532.1879, 24.19015
532.6700, 24.18119
533.1521, 23.96831
533.6342, 23.74232
534.1163, 23.40641
534.5984, 23.14421
535.0806, 23.15871
535.5627, 23.35925
536.0448, 23.48334
536.5269, 23.36810
537.0090, 23.06849
537.4911, 22.72034
537.9733, 22.18705
538.4554, 21.90792
538.9375, 22.05793
539.4196, 22.36071
539.9017, 22.79883
540.3839, 23.27383
540.8660, 23.46756
541.3481, 22.92452
541.8302, 22.10259
542.3123, 22.18250
542.7944, 23.29233
543.2766, 24.17334
543.7587, 24.28660
544.2408, 23.94155
544.7229, 23.50583
545.2050, 22.92517
545.6871, 22.70194
546.1693, 23.53027
546.6514, 24.48011
547.1335, 24.36432
547.6156, 23.25998
548.0977, 22.15814
548.5798, 21.62648
549.0620, 21.58813
549.5441, 21.78500
550.0262, 22.60946
550.5083, 23.14339
550.9904, 23.20245
551.4725, 23.10641
551.9547, 23.09242
552.4368, 23.16045
552.9189, 23.15465
553.4010, 22.91789
553.8831, 22.56475
554.3652, 22.61344
554.8474, 23.28236
555.3295, 23.80061
555.8116, 23.81805
556.2937, 23.71955
556.7758, 23.78648
557.2579, 24.02747
557.7401, 24.24542
558.2222, 24.31574
558.7043, 24.29246
559.1864, 24.23023
559.6685, 24.13068
560.1506, 24.14264
560.6328, 24.38558
561.1149, 24.73858
561.5970, 24.93698
562.0791, 24.95642
562.5612, 24.93699
563.0433, 24.80907
563.5255, 24.72264
564.0076, 24.91018
564.4897, 25.28637
564.9718, 25.48813
565.4539, 25.27104
565.9360, 24.75119
566.4182, 24.31708
566.9003, 23.98444
567.3824, 23.70764
567.8645, 23.37414
568.3466, 23.17779
568.8287, 23.38732
569.3109, 23.87448
569.7930, 24.18462
570.2751, 23.99330
570.7572, 23.49490
571.2393, 23.00607
571.7214, 22.50112
572.2036, 22.37512
572.6857, 23.08479
573.1678, 23.86528
573.6499, 23.64684
574.1320, 22.46230
574.6141, 21.63844
575.0963, 21.78577
575.5784, 22.24335
576.0605, 22.50642
576.5426, 22.58631
577.0247, 22.65507
577.5068, 22.80587
577.9890, 22.87643
578.4711, 22.51885
578.9532, 21.38571
579.4353, 20.72048
579.9174, 20.77494
580.3995, 20.98147
580.8817, 21.11407
581.3638, 21.18746
581.8459, 21.29715
582.3280, 21.49615
582.8101, 21.68544
583.2922, 21.68224
583.7744, 21.47167
584.2565, 21.29037
584.7386, 21.20944
585.2207, 21.10138
585.7029, 20.77079
586.1850, 20.34241
586.6671, 20.16361
587.1492, 20.52249
587.6313, 20.87584
588.1135, 20.70173
588.5956, 20.23376
589.0777, 20.07778
589.5598, 20.39463
590.0419, 20.76492
590.5240, 20.70793
591.0062, 20.19254
591.4883, 19.98456
591.9704, 20.31986
592.4525, 20.63712
592.9346, 20.82218
593.4167, 20.90421
593.8989, 20.88866
594.3810, 20.79595
594.8631, 20.72375
595.3452, 20.82078
595.8273, 21.05723
596.3094, 21.07056
596.7916, 20.77913
597.2737, 20.45058
597.7558, 19.97864
598.2379, 19.64218
598.7200, 19.91153
599.2021, 20.92710
599.6843, 21.65557
600.1664, 21.37258
600.6485, 20.58747
601.1306, 19.86005
601.6127, 19.28218
602.0948, 19.16851
602.5770, 19.80220
603.0591, 20.84758
603.5412, 21.37543
604.0233, 20.98837
604.5054, 20.70721
604.9875, 20.57101
605.4697, 20.50338
605.9518, 20.49856
606.4339, 20.52044
606.9160, 20.48150
607.3981, 20.31741
607.8802, 20.13867
608.3624, 20.20527
608.8445, 20.56082
609.3266, 20.80176
609.8087, 20.74421
610.2908, 20.71760
610.7729, 21.07402
611.2551, 21.66282
611.7372, 22.02887
612.2193, 21.97686
612.7014, 21.76923
613.1835, 21.50456
613.6656, 21.23577
614.1478, 21.09527
614.6299, 21.11537
615.1120, 21.18781
615.5941, 21.19180
616.0762, 21.31864
616.5583, 21.50670
617.0405, 21.60259
617.5226, 21.93746
618.0047, 22.16611
618.4868, 22.30123
618.9689, 22.32627
619.4510, 22.25807
619.9332, 22.18298
620.4153, 22.18642
620.8974, 22.23826
621.3795, 22.20437
621.8616, 22.05298
622.3438, 21.98702
622.8259, 22.09448
623.3080, 22.31695
623.7901, 22.60477
624.2722, 22.96708
624.7543, 23.23736
625.2365, 23.26070
625.7186, 23.26923
626.2007, 23.55509
626.6828, 23.98846
627.1649, 24.14977
627.6470, 23.85758
628.1292, 23.39515
628.6113, 23.23565
629.0934, 23.48561
629.5755, 23.59127
630.0576, 23.23998
630.5397, 23.08073
631.0219, 23.45383
631.5040, 24.07697
631.9861, 24.56619
632.4682, 24.80979
632.9503, 24.94886
633.4324, 25.12657
633.9146, 25.30391
634.3967, 25.28760
634.8788, 25.02784
635.3609, 24.92860
635.8430, 25.32270
636.3251, 25.98991
636.8073, 26.24244
637.2894, 25.80302
637.7715, 25.67333
638.2536, 26.26458
638.7357, 27.00606
639.2178, 27.41692
639.7000, 27.58346
640.1821, 27.88659
640.6642, 28.54276
641.1463, 29.38363
641.6284, 30.11289
642.1105, 30.74864
642.5927, 31.13644
643.0748, 31.00018
643.5569, 30.94715
644.0390, 31.42838
644.5211, 32.20816
645.0032, 32.78035
645.4854, 32.91419
645.9675, 33.09861
646.4496, 33.82055
646.9317, 34.77322
647.4138, 35.34241
647.8959, 35.45863
648.3781, 35.48310
648.8602, 35.64522
649.3423, 35.96972
649.8244, 36.56862
650.3065, 37.66098
650.7886, 38.71407
651.2708, 39.94270
651.7529, 40.93322
652.2350, 41.19686
652.7171, 40.97205
653.1992, 40.98280
653.6813, 41.68077
654.1635, 42.62373
654.6456, 43.08983
655.1277, 43.12389
655.6098, 43.32704
656.0919, 43.88359
656.5740, 44.41978
657.0562, 44.56838
657.5383, 44.38795
658.0204, 44.36393
658.5025, 44.46003
658.9846, 44.75869
659.4667, 45.41700
659.9489, 46.20713
660.4310, 46.93876
660.9131, 47.55932
661.3952, 48.01938
661.8773, 48.24646
662.3594, 48.37016
662.8416, 48.86602
663.3237, 49.86669
663.8058, 50.75814
664.2879, 51.38291
664.7700, 51.92089
665.2521, 52.42640
665.7343, 52.94690
666.2164, 53.63933
666.6985, 54.60455
667.1806, 55.68352
667.6627, 56.82558
668.1448, 57.98702
668.6270, 59.12140
669.1091, 60.20265
669.5912, 61.12878
670.0733, 61.77741
670.5554, 62.19554
671.0375, 62.74699
671.5197, 63.53110
672.0018, 64.28320
672.4839, 64.86061
672.9660, 65.49044
673.4481, 66.36508
673.9302, 67.43122
674.4124, 68.51939
674.8945, 69.63976
675.3766, 70.56992
675.8587, 71.02920
676.3408, 71.05131
676.8229, 70.71152
677.3051, 69.97359
677.7872, 69.22475
678.2693, 68.86208
678.7514, 68.82742
679.2335, 68.43955
679.7156, 67.60544
680.1978, 66.57909
680.6799, 65.21054
681.1620, 63.79754
681.6441, 62.63174
682.1262, 61.66945
682.6083, 60.72268
683.0905, 59.73945
683.5726, 58.53170
684.0547, 56.50513
684.5368, 53.66937
685.0189, 51.37184
685.5010, 49.96558
685.9832, 48.94617
686.4653, 47.98892
686.9474, 47.08512
687.4295, 46.20543
687.9116, 45.42728
688.3937, 44.56599
688.8759, 43.47370
689.3580, 42.33527
689.8401, 41.33807
690.3222, 40.48923
690.8043, 39.70623
691.2864, 38.93299
691.7686, 38.18251
692.2507, 37.51262
692.7328, 36.95314
693.2149, 36.27184
693.6970, 35.35482
694.1791, 34.43586
694.6613, 33.54757
695.1434, 32.78885
695.6255, 32.45703
696.1076, 32.92993
696.5897, 33.15528
697.0718, 32.39630
697.5540, 31.27718
698.0361, 30.49962
698.5182, 30.12527
699.0003, 30.00175
699.4824, 30.06853
699.9645, 30.14459
700.4467, 29.68396
700.9288, 28.39939
701.4109, 27.67756
701.8930, 28.05679
702.3751, 28.44951
702.8572, 28.27560
703.3394, 27.77438
703.8215, 27.34670
704.3036, 27.08725
704.7857, 26.85659
705.2678, 26.55814
705.7499, 26.25301
706.2321, 25.98504
706.7142, 25.78168
707.1963, 25.77713
707.6784, 26.06440
708.1605, 26.44220
708.6426, 26.48959
709.1248, 26.08479
709.6069, 25.78659
710.0890, 25.72015
710.5711, 25.61185
711.0532, 25.33553
711.5353, 24.97979
712.0175, 24.62459
712.4996, 24.27860
712.9817, 24.07354
713.4638, 24.21809
713.9459, 24.47607
714.4280, 24.53344
714.9102, 24.39352
715.3923, 24.12901
715.8744, 23.76049
716.3565, 23.36034
716.8386, 22.99396
717.3207, 22.60929
717.8029, 22.64916
718.2850, 23.63062
718.7671, 24.39850
719.2492, 24.65748
719.7313, 24.60765
720.2134, 24.38227
720.6956, 24.02815
721.1777, 23.69137
721.6598, 23.38756
722.1419, 23.19552
722.6240, 23.30863
723.1061, 23.64139
723.5883, 23.87230
724.0704, 23.90948
724.5525, 23.76413
725.0346, 23.39647
725.5167, 22.82044
725.9988, 22.55144
726.4810, 23.01948
726.9631, 23.17055
727.4452, 22.54206
727.9273, 21.83809
728.4094, 21.58207
728.8915, 21.74374
729.3737, 22.04933
729.8558, 22.51581
730.3379, 22.82803
730.8200, 22.43896
731.3021, 21.64305
731.7842, 21.30434
732.2664, 21.56848
732.7485, 21.96168
733.2306, 22.14179
733.7127, 22.15360
734.1948, 22.17713
734.6769, 22.28142
735.1591, 22.26837
735.6412, 22.04660
736.1233, 21.80231
736.6054, 21.57713
737.0875, 21.41053
737.5696, 21.39734
738.0518, 21.60002
738.5339, 21.75963
739.0160, 21.53795
739.4981, 21.18405
739.9802, 21.27618
740.4623, 21.77755
740.9445, 22.00159
741.4266, 21.56122
741.9087, 20.86722
742.3908, 20.68997
742.8729, 21.20900
743.3550, 21.46503
743.8372, 21.27357
744.3193, 21.03060
744.8014, 20.67895
745.2835, 20.42371
745.7656, 20.59334
746.2477, 21.19598
746.7299, 21.66355
747.2120, 21.52290
747.6941, 21.20854
748.1762, 21.24775
748.6583, 21.54023
749.1404, 21.81226
749.6226, 21.98082
750.1047, 21.88839
750.5868, 21.28192
751.0689, 20.25936
751.5510, 19.92555
752.0331, 20.78695
752.5153, 21.36445
752.9974, 21.21610
753.4795, 20.89392
753.9616, 20.69222
754.4437, 20.60309
754.9258, 20.54294
755.4080, 20.48545
755.8901, 20.45203
756.3722, 20.43408
756.8543, 20.46020
757.3364, 20.61710
757.8185, 20.88000
758.3007, 21.08159
758.7828, 21.11386
759.2649, 21.06332
759.7470, 21.15861
760.2291, 21.48965
760.7112, 21.51726
761.1934, 21.05692
761.6755, 20.56002
762.1576, 20.01443
762.6397, 19.65816
763.1218, 19.97500
763.6039, 21.11526
764.0861, 21.88073
764.5682, 21.66555
765.0503, 21.10089
765.5324, 20.45625
766.0145, 19.89150
766.4966, 19.73707
766.9788, 20.04317
767.4609, 20.36748
767.9430, 20.17692
768.4251, 19.65521
768.9072, 19.88471
769.3893, 21.10145
769.8715, 21.79548
770.3536, 21.33310
770.8357, 20.61491
771.3178, 20.53584
771.7999, 20.95220
772.2820, 21.11473
772.7642, 20.67395
773.2463, 20.39130
773.7284, 20.69389
774.2105, 21.06830
774.6926, 20.97104
775.1747, 20.52634
775.6569, 20.24418
776.1390, 20.39121
776.6211, 20.67477
777.1032, 20.66751
777.5853, 20.42942
778.0674, 20.31299
778.5496, 20.35415
779.0317, 20.40125
779.5138, 20.34144
779.9959, 20.30892
780.4780, 20.59979
780.9601, 21.40445
781.4423, 21.73913
781.9244, 21.07601
782.4065, 20.60478
782.8886, 21.05550
783.3707, 21.67288
783.8528, 21.47266
784.3350, 20.46318
784.8171, 19.65251
785.2992, 19.75767
785.7813, 20.25919
786.2634, 20.60172
786.7455, 20.77188
787.2277, 20.61247
787.7098, 20.10389
788.1919, 19.76066
788.6740, 20.01842
789.1561, 20.70683
789.6382, 21.22197
790.1204, 21.59038
790.6025, 21.71193
791.0846, 21.31907
791.5667, 20.96314
792.0488, 20.99931
792.5309, 21.18280
793.0131, 21.11873
793.4952, 20.72104
793.9773, 20.23221
794.4594, 19.45330
794.9415, 18.89456
795.4236, 19.28367
795.9058, 20.24559
796.3879, 20.85285
796.8700, 20.83716
797.3521, 20.66687
797.8342, 20.84042
798.3163, 21.27264
798.7985, 21.52697
799.2806, 21.59389
799.7627, 21.52212
800.2448, 21.23110
800.7269, 20.95507
801.2090, 20.92500
801.6912, 21.09332
802.1733, 21.18334
802.6554, 21.19450
803.1375, 21.12665
803.6196, 20.77999
804.1017, 20.53397
804.5839, 20.79893
805.0660, 21.35556
805.5481, 21.72807
806.0302, 21.74177
806.5123, 21.56863
806.9944, 21.29853
807.4766, 20.99435
807.9587, 20.78489
808.4408, 20.67880
808.9229, 20.76194
809.4050, 21.10135
809.8871, 21.40673
810.3693, 21.28912
810.8514, 20.75515
811.3335, 20.48550
811.8156, 20.54475
812.2977, 20.76397
812.7798, 21.40911
813.2620, 21.93859
813.7441, 21.91175
814.2262, 21.47631
814.7083, 21.06846
815.1904, 20.75824
815.6725, 20.60516
816.1547, 20.65874
816.6368, 20.87455
817.1189, 21.32875
817.6010, 21.90003
818.0831, 22.25362
818.5652, 22.24775
819.0474, 22.01832
819.5295, 21.67323
820.0116, 21.24283
820.4937, 21.01814
820.9758, 21.01957
821.4579, 21.13437
821.9401, 21.42940
822.4222, 21.64000
822.9043, 21.38806
823.3864, 20.70558
823.8685, 20.39341
824.3506, 20.75530
824.8328, 21.04494
825.3149, 21.01323
825.7970, 20.99517
826.2791, 21.35290
826.7612, 21.90581
827.2433, 22.16917
827.7255, 21.93641
828.2076, 21.65113
828.6897, 21.81915
829.1718, 22.11306
829.6539, 21.91441
830.1360, 21.30136
830.6182, 20.75295
831.1003, 20.45122
831.5824, 20.28437
832.0645, 20.09089
832.5466, 19.89956
833.0287, 20.15134
833.5109, 21.06800
833.9930, 21.76523
834.4751, 22.08765
834.9572, 22.10478
835.4393, 21.68898
835.9214, 21.00863
836.4036, 20.55114
836.8857, 20.38309
837.3678, 20.37963
837.8499, 20.59667
838.3320, 20.88897
838.8141, 21.22465
839.2963, 21.53385
839.7784, 21.70661
840.2605, 21.71167
840.7426, 21.63681
841.2247, 21.57801
841.7068, 21.48557
842.1890, 21.21596
842.6711, 20.80588
843.1532, 20.42249
843.6353, 20.10176
844.1174, 20.03622
844.5995, 20.45881
845.0817, 21.20896
845.5638, 21.51883
846.0459, 21.18178
846.5280, 20.98049
847.0101, 21.02251
847.4922, 21.14090
847.9744, 21.32203
848.4565, 21.49476
848.9386, 21.54556
849.4207, 21.45642
849.9028, 21.31489
850.3849, 21.07251
850.8671, 20.86181
851.3492, 20.74764
851.8313, 20.72052
852.3134, 20.79270
852.7955, 20.94278
853.2776, 21.09701
853.7598, 21.24157
854.2419, 21.28477
854.7240, 20.96551
855.2061, 20.41191
855.6882, 20.15240
856.1703, 20.25085
856.6525, 20.57126
857.1346, 21.10292
857.6167, 21.55800
858.0988, 21.29486
858.5809, 20.11639
859.0630, 19.56788
859.5452, 20.08224
860.0273, 20.45390
860.5094, 20.06106
860.9915, 19.58364
861.4736, 19.70872
861.9557, 20.33171
862.4379, 20.76556
862.9200, 20.81288
863.4021, 20.76225
863.8842, 20.65419
864.3663, 20.53872
864.8484, 20.45423
865.3306, 20.40048
865.8127, 20.37176
866.2948, 20.36579
866.7769, 20.34927
867.2590, 20.19516
867.7411, 20.04582
868.2233, 20.34425
868.7054, 20.97570
869.1875, 21.25126
869.6696, 20.97149
870.1517, 20.47272
870.6339, 20.04129
871.1160, 19.69109
871.5981, 19.49598
872.0802, 19.48933
872.5623, 19.51946
873.0444, 19.59376
873.5266, 19.66653
874.0087, 19.68361
874.4908, 19.69649
874.9729, 19.82244
875.4550, 20.10107
875.9371, 20.26559
876.4193, 20.16277
876.9014, 20.07914
877.3835, 20.25315
877.8656, 20.42653
878.3477, 20.27111
878.8298, 19.82359
879.3120, 19.38404
879.7941, 19.07550
880.2762, 18.89681
880.7583, 18.91430
881.2404, 19.03269
881.7225, 19.10669
882.2047, 19.11794
882.6868, 19.04867
883.1689, 18.89153
883.6510, 18.71994
884.1331, 18.62047
884.6152, 18.59015
885.0974, 18.62825
885.5795, 18.75158
886.0616, 18.80883
886.5437, 18.73200
887.0258, 18.67278
887.5079, 18.81706
887.9901, 19.06302
888.4722, 18.98368
888.9543, 18.14514
889.4364, 17.81405
889.9185, 18.36823
890.4006, 18.98003
890.8828, 19.40278
891.3649, 19.65870
891.8470, 19.76902
892.3291, 19.74570
892.8112, 19.67965
893.2933, 19.54510
893.7755, 19.44925
894.2576, 19.57576
894.7397, 19.70648
895.2218, 19.46314
895.7039, 18.94662
896.1860, 18.66032
896.6682, 18.85561
897.1503, 19.09653
897.6324, 18.73503
898.1145, 18.01599
898.5966, 17.68183
899.0787, 17.71947
899.5609, 17.77421
900.0430, 17.73020
900.5251, 17.77621
901.0072, 18.13516
901.4893, 18.69877
901.9714, 18.92628
902.4536, 18.74719
902.9357, 18.46172
903.4178, 17.93859
903.8999, 17.59589
904.3820, 17.74974
904.8641, 18.16763
905.3463, 18.52793
905.8284, 18.87477
906.3105, 18.82285
906.7926, 17.86822
907.2747, 17.12223
907.7568, 16.93719
908.2390, 17.08762
908.7211, 17.50791
909.2032, 18.07009
909.6853, 18.52125
910.1674, 18.78909
910.6495, 18.85712
911.1317, 18.56292
911.6138, 18.18002
912.0959, 18.00992
912.5780, 18.01301
913.0601, 18.01940
913.5422, 17.99987
914.0244, 18.15526
914.5065, 18.76363
914.9886, 19.47972
915.4707, 19.44518
915.9528, 18.80202
916.4349, 18.49341
916.9171, 18.65109
917.3992, 18.80456
917.8813, 18.69920
918.3634, 18.44302
918.8455, 18.18256
919.3276, 17.90316
919.8098, 17.91335
920.2919, 18.36539
920.7740, 18.71634
921.2561, 18.79978
921.7382, 18.79579
922.2203, 18.84822
922.7025, 18.93467
923.1846, 18.97701
923.6667, 19.02975
924.1488, 18.92087
924.6309, 18.44940
925.1130, 18.02402
925.5952, 17.76429
926.0773, 17.69317
926.5594, 17.88813
927.0415, 18.31700
927.5236, 18.75088
928.0057, 19.26386
928.4879, 19.50144
928.9700, 18.86617
929.4521, 18.08517
929.9342, 18.15604
930.4163, 18.84546
930.8984, 19.25707
931.3806, 19.06452
931.8627, 18.79784
932.3448, 19.10443
932.8269, 18.90205
933.3090, 19.56529
933.7911, 19.05982
934.2733, 18.95566
934.7554, 19.39329
935.2375, 19.80184
935.7196, 19.79394
936.2017, 19.53471
936.6838, 19.33973
937.1660, 19.20627
937.6481, 19.21024
938.1302, 19.39816
938.6123, 19.51195
939.0944, 19.45032
939.5765, 19.31678
940.0587, 19.20884
940.5408, 19.12196
941.0229, 19.02017
941.5050, 18.74851
941.9871, 18.74609
942.4692, 19.38607
942.9514, 19.88606
943.4335, 19.73449
943.9156, 19.38267
944.3977, 19.51357
944.8798, 20.14952
945.3619, 20.40948
945.8441, 19.75491
946.3262, 19.15741
946.8083, 18.99085
947.2904, 18.99618
947.7725, 19.00485
948.2546, 18.98684
948.7368, 18.94535
949.2189, 18.88215
949.7010, 18.75570
950.1831, 18.44387
950.6652, 18.14022
951.1473, 18.04077
951.6295, 18.09073
952.1116, 18.25183
952.5937, 18.46621
953.0758, 18.54450
953.5579, 18.36633
954.0400, 18.11820
954.5222, 18.06428
955.0043, 18.14209
955.4864, 18.15764
955.9685, 18.11787
956.4506, 18.17651
956.9327, 18.37824
957.4149, 18.43900
957.8970, 18.07251
958.3791, 17.44607
958.8612, 17.06208
959.3433, 16.93330
959.8254, 16.89429
960.3076, 16.95174
960.7897, 17.01952
961.2718, 17.05313
961.7539, 17.10392
962.2360, 17.27692
962.7181, 17.55590
963.2003, 17.52067
963.6824, 16.82336
964.1645, 16.54031
964.6466, 17.12207
965.1287, 17.70022
965.6108, 17.72090
966.0930, 17.49542
966.5751, 17.48418
967.0572, 17.71544
967.5393, 17.94956
968.0214, 18.28838
968.5035, 18.45725
968.9857, 18.22364
969.4678, 17.93722
969.9499, 17.86975
970.4320, 17.96085
970.9141, 18.05452
971.3962, 18.12639
971.8784, 18.08916
972.3605, 17.76892
972.8426, 17.46984
973.3247, 17.35342
973.8068, 17.41257
974.2889, 17.67649
974.7711, 18.10018
975.2532, 18.60164
975.7353, 19.18424
976.2174, 19.54590
976.6995, 19.13077
977.1816, 18.52579
977.6638, 18.64061
978.1459, 19.24660
978.6280, 19.64737
979.1101, 19.73228
979.5922, 19.95746
980.0743, 20.68250
980.5565, 20.79112
981.0386, 21.75850
981.5207, 21.59525
982.0028, 21.87115
982.4849, 22.59644
982.9670, 23.49101
983.4492, 24.46110
983.9313, 25.24447
984.4134, 25.55323
984.8955, 25.56430
985.3776, 25.83913
985.8597, 26.38317
986.3419, 27.02704
986.8240, 27.77122
987.3061, 28.53753
987.7882, 29.28165
988.2703, 30.07807
988.7524, 31.05167
989.2346, 32.17403
989.7167, 33.05602
990.1988, 33.53991
990.6809, 34.28623
991.1630, 35.47410
991.6451, 36.71276
992.1273, 37.80684
992.6094, 38.84804
993.0915, 40.03935
993.5736, 41.40689
994.0557, 42.38027
994.5378, 42.46886
995.0200, 42.87811
995.5021, 44.06719
995.9842, 45.23363
996.4663, 45.85682
996.9484, 46.21706
997.4305, 46.82856
997.9127, 47.75767
998.3948, 48.50469
998.8769, 48.85484
999.3590, 49.19461
999.8411, 49.86357
1000.323, 50.36676
1000.805, 50.22858
1001.287, 49.65295
1001.770, 49.06895
1002.252, 48.56602
1002.734, 48.11029
1003.216, 48.04403
1003.698, 47.60699
1004.180, 46.05794
1004.662, 44.12667
1005.144, 42.45527
1005.627, 41.15294
1006.109, 40.37341
1006.591, 40.20857
1007.073, 39.71601
1007.555, 37.69234
1008.037, 35.57115
1008.519, 35.01025
1009.001, 35.16798
1009.483, 34.63551
1009.966, 33.40260
1010.448, 32.30228
1010.930, 31.74047
1011.412, 31.22618
1011.894, 30.09614
1012.376, 28.82605
1012.858, 28.17716
1013.340, 27.99053
1013.823, 27.92872
1014.305, 27.86284
1014.787, 27.55053
1015.269, 26.84310
1015.751, 26.00281
1016.233, 25.37631
1016.715, 24.90417
1017.197, 24.46764
1017.679, 24.03931
1018.162, 23.36496
1018.644, 22.43846
1019.126, 21.90581
1019.608, 22.23833
1020.090, 22.89285
1020.572, 22.86902
1021.054, 22.28555
1021.536, 21.98866
1022.018, 21.97845
1022.501, 22.10370
1022.983, 22.34003
1023.465, 22.47679
1023.947, 22.35958
1024.429, 22.04897
1024.911, 21.64572
1025.393, 21.14639
1025.875, 20.63742
1026.358, 20.08398
1026.840, 19.86942
1027.322, 20.17473
1027.804, 20.46837
1028.286, 20.33595
1028.768, 19.90433
1029.250, 19.43633
1029.732, 18.87817
1030.214, 18.78730
1030.697, 19.38269
1031.179, 19.65623
1031.661, 19.21769
1032.143, 18.68422
1032.625, 18.54255
1033.107, 18.66552
1033.589, 18.68548
1034.071, 18.55189
1034.553, 18.56817
1035.036, 18.92291
1035.518, 18.99276
1036.000, 18.39305
1036.482, 17.79841
1036.964, 17.80977
1037.446, 18.20637
1037.928, 18.34341
1038.410, 18.17270
1038.893, 17.90479
1039.375, 17.34070
1039.857, 17.00014
1040.339, 17.15960
1040.821, 17.42256
1041.303, 17.50924
1041.785, 17.46545
1042.267, 17.44235
1042.750, 17.21242
1043.232, 17.34132
1043.714, 16.58176
1044.196, 15.94216
1044.678, 15.48590
1045.160, 15.28945
1045.642, 15.59865
1046.124, 16.17350
1046.606, 16.41674
1047.089, 16.19242
1047.571, 16.06777
1048.053, 16.13251
1048.535, 16.26052
1049.017, 16.59662
1049.499, 16.81834
1049.981, 16.52372
1050.463, 15.97106
1050.945, 15.79423
1051.428, 16.15248
1051.910, 16.29851
1052.392, 15.85341
1052.874, 15.49733
1053.356, 15.61098
1053.838, 15.73980
1054.320, 15.38354
1054.802, 14.82410
1055.285, 14.68981
1055.767, 15.10601
1056.249, 15.52547
1056.731, 15.96311
1057.213, 16.17081
1057.695, 15.84932
1058.177, 15.46108
1058.659, 15.38377
1059.141, 15.49532
1059.624, 15.53101
1060.106, 15.44525
1060.588, 15.33327
1061.070, 15.13530
1061.552, 15.03680
1062.034, 15.27420
1062.516, 15.48288
1062.998, 15.33815
1063.480, 14.97876
1063.963, 14.62817
1064.445, 14.33525
1064.927, 14.16377
1065.409, 14.14932
1065.891, 14.24382
1066.373, 14.53490
1066.855, 14.82279
1067.337, 14.97111
1067.820, 15.00185
1068.302, 14.93127
1068.784, 14.78243
1069.266, 14.68480
1069.748, 14.70838
1070.230, 14.75487
1070.712, 14.80381
1071.194, 14.83641
1071.677, 14.86010
1072.159, 14.84637
1072.641, 14.70323
1073.123, 14.46488
1073.605, 14.36995
1074.087, 14.57546
1074.569, 14.76533
1075.051, 14.75220
1075.533, 14.71403
1076.016, 14.76796
1076.498, 14.88095
1076.980, 15.08587
1077.462, 15.30701
1077.944, 15.27338
1078.426, 14.85036
1078.908, 14.32363
1079.390, 13.52004
1079.873, 12.99652
1080.355, 13.44609
1080.837, 14.15184
1081.319, 14.19158
1081.801, 13.71173
1082.283, 13.47928
1082.765, 13.75539
1083.247, 14.03447
1083.729, 14.09067
1084.212, 14.07996
1084.694, 14.12742
1085.176, 14.12468
1085.658, 13.87114
1086.140, 13.49214
1086.622, 13.29657
1087.104, 13.36108
1087.586, 13.51478
1088.068, 13.91217
1088.551, 14.09254
1089.033, 13.50381
1089.515, 12.89340
1089.997, 13.06345
1090.479, 13.64996
1090.961, 13.86496
1091.443, 13.58377
1091.925, 13.34882
1092.408, 13.36187
1092.890, 13.46094
1093.372, 13.67705
1093.854, 13.85765
1094.336, 13.79851
1094.818, 13.68414
1095.300, 13.89050
1095.782, 14.38165
1096.265, 14.55399
1096.747, 13.93020
1097.229, 13.56009
1097.711, 14.09813
1098.193, 14.64421
1098.675, 14.74392
1099.157, 14.50928
1099.639, 13.88225
1100.121, 13.05315
1100.604, 12.74685
1101.086, 13.34295
1101.568, 13.74775
1102.050, 13.47206
1102.532, 13.20341
1103.014, 13.11928
1103.496, 13.27881
1103.978, 13.99635
1104.460, 14.94031
1104.943, 15.22381
1105.425, 14.58947
1105.907, 14.09947
1106.389, 14.10871
1106.871, 14.05903
1107.353, 13.66507
1107.835, 13.28381
1108.317, 13.19084
1108.800, 13.26747
1109.282, 13.29114
1109.764, 13.24208
1110.246, 13.27464
1110.728, 13.58928
1111.210, 13.70606
1111.692, 13.35002
1112.174, 13.02700
1112.656, 12.96385
1113.139, 13.07511
1113.621, 13.35942
1114.103, 13.77238
1114.585, 13.86231
1115.067, 13.29086
1115.549, 13.00362
1116.031, 13.19945
1116.513, 13.39794
1116.995, 13.42368
1117.478, 13.42431
1117.960, 13.56314
1118.442, 13.77129
1118.924, 13.82053
1119.406, 13.65771
1119.888, 13.54419
1120.370, 13.47995
1120.852, 13.47033
1121.335, 13.55414
1121.817, 13.62550
1122.299, 13.60521
1122.781, 13.54200
1123.263, 13.53434
1123.745, 13.58507
1124.227, 13.53450
1124.709, 13.35334
1125.192, 13.15773
1125.674, 12.91218
1126.156, 12.82823
1126.638, 13.06209
1127.120, 13.35451
1127.602, 13.39221
1128.084, 13.22690
1128.566, 13.09702
1129.048, 12.99646
1129.531, 13.01889
1130.013, 13.19961
1130.495, 13.22374
1130.977, 13.25951
1131.459, 13.19998
1131.941, 13.27702
1132.423, 13.01875
1132.905, 12.98967
1133.387, 13.02383
1133.870, 12.65480
1134.352, 12.68719
1134.834, 12.50690
1135.316, 12.00456
1135.798, 11.87404
1136.280, 12.51392
1136.762, 13.37436
1137.244, 13.75421
1137.727, 13.79621
1138.209, 14.00105
1138.691, 14.25967
1139.173, 13.94376
1139.655, 13.13214
1140.137, 12.70415
1140.619, 12.93771
1141.101, 13.26189
1141.583, 13.21095
1142.066, 12.99157
1142.548, 12.92283
1143.030, 12.91675
1143.512, 12.70889
1143.994, 12.42482
1144.476, 12.53226
1144.958, 12.99951
1145.440, 13.18550
1145.922, 12.74313
1146.405, 12.32026
1146.887, 12.63901
1147.369, 13.18746
1147.851, 13.49035
1148.333, 13.57046
1148.815, 13.32459
1149.297, 12.92968
1149.779, 12.83335
1150.262, 13.13272
1150.744, 13.40769
1151.226, 13.42381
1151.708, 13.33944
1152.190, 13.20555
1152.672, 13.06459
1153.154, 12.94193
1153.636, 12.84105
1154.119, 12.76719
1154.601, 12.71580
1155.083, 12.63377
1155.565, 12.41396
1156.047, 12.49526
1156.529, 13.42366
1157.011, 14.16595
1157.493, 14.27684
1157.975, 14.00857
1158.458, 13.30031
1158.940, 12.47760
1159.422, 12.17089
1159.904, 12.45886
1160.386, 12.87816
1160.868, 13.85683
1161.350, 14.23967
1161.832, 13.30973
1162.314, 12.54628
1162.797, 12.79368
1163.279, 13.25432
1163.761, 12.97837
1164.243, 12.18968
1164.725, 11.98142
1165.207, 12.60293
1165.689, 12.91198
1166.171, 12.78685
1166.654, 12.71388
1167.136, 12.81724
1167.618, 12.96432
1168.100, 13.06062
1168.582, 13.17586
1169.064, 13.47642
1169.546, 13.39762
1170.028, 13.86382
1170.510, 13.33419
1170.993, 12.99739
1171.475, 12.92575
1171.957, 13.02897
1172.439, 13.28124
1172.921, 13.44593
1173.403, 13.29443
1173.885, 12.97444
1174.367, 12.72685
1174.849, 12.56823
1175.332, 12.62469
1175.814, 12.82530
1176.296, 12.86204
1176.778, 12.71690
1177.260, 12.64614
1177.742, 12.77266
1178.224, 12.92364
1178.706, 12.89050
1179.189, 12.83958
1179.671, 13.13571
1180.153, 12.87383
1180.635, 13.18399
1181.117, 12.56040
1181.599, 12.11717
1182.081, 11.97718
1182.563, 12.02302
1183.046, 12.23385
1183.528, 12.50833
1184.010, 12.90717
1184.492, 13.20963
1184.974, 13.24606
1185.456, 13.12517
1185.938, 12.85548
1186.420, 12.55859
1186.902, 12.51096
1187.385, 12.77157
1187.867, 12.94984
1188.349, 12.79340
1188.831, 12.81581
1189.313, 13.49676
1189.795, 13.91746
1190.277, 13.40130
1190.759, 12.60237
1191.241, 12.07498
1191.724, 11.82640
1192.206, 11.92254
1192.688, 12.51726
1193.170, 12.77171
1193.652, 12.52068
1194.134, 12.44700
1194.616, 12.72313
1195.098, 13.10300
1195.581, 13.51939
1196.063, 13.71964
1196.545, 13.25269
1197.027, 12.37980
1197.509, 12.33854
1197.991, 13.06307
1198.473, 13.52598
1198.955, 13.66620
1199.438, 13.56107
1199.920, 13.25252
1200.402, 12.99978
1200.884, 12.99009
1201.366, 12.96734
1201.848, 12.38588
1202.330, 11.69211
1202.812, 11.85313
1203.294, 12.50290
1203.776, 13.04710
1204.259, 13.33708
1204.741, 13.10246
1205.223, 12.37291
1205.705, 11.91115
1206.187, 12.23526
1206.669, 12.72033
1207.151, 13.05299
1207.633, 13.24617
1208.116, 13.20925
1208.598, 13.11649
1209.080, 13.22569
1209.562, 13.43764
1210.044, 13.37006
1210.526, 12.91055
1211.008, 12.82715
1211.490, 13.78064
1211.973, 14.34248
1212.455, 13.92702
1212.937, 13.47052
1213.419, 13.42286
1213.901, 13.47354
1214.383, 13.28912
1214.865, 12.96498
1215.347, 12.84598
1215.829, 12.98592
1216.312, 12.91036
1216.794, 12.50892
1217.276, 12.52793
1217.758, 13.18820
1218.240, 13.66618
1218.722, 13.54803
1219.204, 13.16711
1219.686, 12.86695
1220.168, 12.64864
1220.651, 12.51526
1221.133, 12.46308
1221.615, 12.52662
1222.097, 12.65822
1222.579, 12.60620
1223.061, 12.38539
1223.543, 12.39771
1224.025, 12.83101
1224.508, 13.18924
1224.990, 12.87984
1225.472, 12.48286
1225.954, 12.61494
1226.436, 12.95057
1226.918, 13.17441
1227.400, 13.29552
1227.882, 13.39928
1228.365, 13.47647
1228.847, 13.41597
1229.329, 13.14019
1229.811, 12.92581
1230.293, 12.79043
1230.775, 12.80900
1231.257, 13.26152
1231.739, 13.59710
1232.221, 13.41743
1232.703, 12.94416
1233.186, 12.29520
1233.668, 11.58532
1234.150, 11.66545
1234.632, 12.87740
1235.114, 13.48649
1235.596, 13.34725
1236.078, 13.24233
1236.560, 13.36021
1237.043, 13.47497
1237.525, 13.46530
1238.007, 13.31277
1238.489, 12.93813
1238.971, 12.48758
1239.453, 12.45661
1239.935, 12.13032
1240.417, 12.44827
1240.900, 11.92522
1241.382, 11.73058
1241.864, 11.96110
1242.346, 12.35503
1242.828, 12.79455
1243.310, 13.13768
1243.792, 13.26743
1244.274, 13.26127
1244.756, 13.05361
1245.239, 12.86314
1245.721, 12.90578
1246.203, 13.10658
1246.685, 13.41804
1247.167, 13.76561
1247.649, 13.84272
1248.131, 13.45368
1248.613, 13.27575
1249.095, 13.77341
1249.578, 13.88666
1250.060, 13.18440
1250.542, 12.44930
1251.024, 11.98119
1251.506, 11.83132
1251.988, 12.13448
1252.470, 12.74335
1252.952, 13.06620
1253.435, 13.09559
1253.917, 13.22828
1254.399, 13.46350
1254.881, 13.58728
1255.363, 13.56573
1255.845, 13.52817
1256.327, 13.53271
1256.809, 13.45266
1257.292, 13.10534
1257.774, 12.76116
1258.256, 12.88337
1258.738, 13.17165
1259.220, 13.18654
1259.702, 13.05623
1260.184, 13.12846
1260.666, 13.29680
1261.148, 12.98822
1261.630, 12.04063
1262.113, 11.57403
1262.595, 12.49733
1263.077, 13.20626
1263.559, 13.11434
1264.041, 12.87058
1264.523, 12.69520
1265.005, 12.60225
1265.487, 12.70874
1265.970, 12.82401
1266.452, 12.41651
1266.934, 11.46693
1267.416, 11.30255
1267.898, 12.05026
1268.380, 12.67749
1268.862, 13.10031
1269.344, 13.01033
1269.827, 12.30035
1270.309, 11.83638
1270.791, 12.28283
1271.273, 12.97326
1271.755, 12.89044
1272.237, 12.46171
1272.719, 12.45230
1273.201, 12.68608
1273.683, 12.94962
1274.166, 13.14558
1274.648, 13.09458
1275.130, 12.81379
1275.612, 12.57641
1276.094, 12.51255
1276.576, 12.37036
1277.058, 11.74790
1277.540, 11.44841
1278.022, 12.16542
1278.505, 12.88449
1278.987, 12.81404
1279.469, 12.47784
1279.951, 12.50735
1280.433, 12.78507
1280.915, 12.77485
1281.397, 12.38188
1281.879, 12.56993
1282.362, 13.43012
1282.844, 13.76737
1283.326, 13.38230
1283.808, 13.02665
1284.290, 13.01385
1284.772, 13.00605
1285.254, 12.72873
1285.736, 12.18158
##END=



