##NAMES=Enstatite
##RRUFFID=R050644
##IDEAL CHEMISTRY=MgSiO_3_
##LOCALITY=Morogoro, Tanzania
##OWNER=RRUFF
##SOURCE=Jibamitra Ganguly
##DESCRIPTION=Light brown crystal fragment
##STATUS=The identification of this mineral has been confirmed by X-ray diffraction and chemical analysis
##URL=rruff.info/R050644
##MEASURED CHEMISTRY=(Mg_0.90_Fe_0.10_)SiO_3_
92.02539, 371.7157
92.50751, 367.5826
92.98962, 368.3202
93.47174, 371.7242
93.95386, 377.0697
94.43597, 380.9500
94.91809, 382.5968
95.40021, 382.6490
95.88232, 381.6255
96.36444, 379.2798
96.84656, 376.2333
97.32867, 373.1409
97.81078, 369.8318
98.29290, 365.8026
98.77502, 360.1804
99.25713, 352.0001
99.73925, 345.9737
100.2214, 343.4772
100.7035, 341.3950
101.1856, 338.3438
101.6677, 334.1826
102.1498, 329.5858
102.6320, 325.2892
103.1141, 321.0328
103.5962, 317.8750
104.0783, 316.2733
104.5604, 315.5003
105.0425, 314.8509
105.5247, 314.1344
106.0068, 313.3409
106.4889, 312.4057
106.9710, 311.3511
107.4531, 310.0912
107.9352, 308.5019
108.4173, 306.6234
108.8995, 304.7104
109.3816, 302.9519
109.8637, 301.0776
110.3458, 298.7917
110.8279, 295.9872
111.3100, 292.9924
111.7922, 290.1395
112.2743, 287.4162
112.7564, 284.9256
113.2385, 282.8514
113.7206, 280.9243
114.2027, 278.8714
114.6849, 276.5541
115.1670, 274.1074
115.6491, 272.0578
116.1312, 270.6591
116.6133, 269.3903
117.0954, 268.1034
117.5776, 266.8815
118.0597, 265.8911
118.5418, 265.2732
119.0239, 265.0339
119.5060, 264.4898
119.9881, 262.6472
120.4703, 261.4519
120.9524, 262.2162
121.4345, 264.6238
121.9166, 267.0359
122.3987, 267.7912
122.8808, 266.5348
123.3630, 266.3167
123.8451, 267.6065
124.3272, 269.6895
124.8093, 271.8241
125.2914, 273.8574
125.7735, 276.2077
126.2557, 279.1168
126.7378, 282.5321
127.2199, 287.2215
127.7020, 293.6609
128.1841, 301.6276
128.6662, 310.5710
129.1483, 321.6449
129.6305, 332.1228
130.1126, 341.5634
130.5947, 349.6235
131.0768, 353.6130
131.5589, 350.2750
132.0410, 338.8249
132.5232, 326.4510
133.0053, 312.4068
133.4874, 298.6920
133.9695, 286.1978
134.4516, 275.1417
134.9337, 265.5247
135.4159, 257.3048
135.8980, 250.6584
136.3801, 245.2819
136.8622, 241.2647
137.3443, 238.1811
137.8264, 235.8615
138.3086, 234.2063
138.7907, 232.9973
139.2728, 231.6763
139.7549, 229.6554
140.2370, 228.2037
140.7191, 227.5624
141.2013, 227.5212
141.6834, 227.8490
142.1655, 228.4827
142.6476, 229.3095
143.1297, 229.8142
143.6118, 230.0522
144.0939, 230.0071
144.5761, 229.4462
145.0582, 228.4978
145.5403, 227.7566
146.0224, 227.6373
146.5045, 227.9966
146.9866, 228.2844
147.4688, 228.5034
147.9509, 228.6255
148.4330, 228.6328
148.9151, 228.5278
149.3972, 228.2859
149.8793, 227.9031
150.3615, 227.3667
150.8436, 226.6247
151.3257, 225.6961
151.8078, 224.5319
152.2899, 222.9342
152.7720, 220.4670
153.2542, 218.3285
153.7363, 217.1648
154.2184, 216.5553
154.7005, 215.8650
155.1826, 214.7264
155.6647, 213.1642
156.1469, 211.4261
156.6290, 208.7278
157.1111, 206.6772
157.5932, 205.8598
158.0753, 206.0384
158.5574, 206.7368
159.0396, 207.6646
159.5217, 208.9344
160.0038, 209.3328
160.4859, 208.1378
160.9680, 206.8520
161.4501, 206.0174
161.9323, 205.6837
162.4144, 205.6487
162.8965, 205.6935
163.3786, 205.7709
163.8607, 206.2907
164.3428, 207.5453
164.8250, 208.9947
165.3071, 210.6829
165.7892, 212.5292
166.2713, 213.5317
166.7534, 212.1440
167.2355, 207.9716
167.7177, 204.2453
168.1998, 201.5172
168.6819, 199.3246
169.1640, 196.9171
169.6461, 193.9844
170.1282, 191.4375
170.6104, 190.7984
171.0925, 191.8196
171.5746, 192.7522
172.0567, 192.9654
172.5388, 192.5728
173.0209, 191.8062
173.5031, 190.3631
173.9852, 189.0517
174.4673, 188.6111
174.9494, 188.9691
175.4315, 189.4526
175.9136, 189.5901
176.3958, 189.3939
176.8779, 189.2025
177.3600, 188.8279
177.8421, 188.6953
178.3242, 189.3360
178.8063, 190.6521
179.2885, 191.7830
179.7706, 191.5384
180.2527, 189.3705
180.7348, 188.2433
181.2169, 189.1159
181.6990, 190.4880
182.1812, 191.7387
182.6633, 192.7124
183.1454, 193.4774
183.6275, 194.0690
184.1096, 194.2103
184.5917, 194.7983
185.0738, 195.9758
185.5560, 197.4110
186.0381, 198.7769
186.5202, 200.0260
187.0023, 201.4685
187.4844, 203.6619
187.9665, 207.5639
188.4487, 210.7019
188.9308, 212.3951
189.4129, 213.6742
189.8950, 215.7773
190.3771, 219.0798
190.8592, 222.5574
191.3414, 224.1332
191.8235, 222.9678
192.3056, 221.4598
192.7877, 219.7252
193.2698, 217.8188
193.7519, 215.8627
194.2341, 213.9328
194.7162, 211.8338
195.1983, 208.9184
195.6804, 204.8102
196.1625, 201.2992
196.6446, 199.4072
197.1268, 198.5013
197.6089, 197.0350
198.0910, 194.2500
198.5731, 191.0821
199.0552, 189.0292
199.5373, 188.1767
200.0195, 187.6072
200.5016, 187.0808
200.9837, 186.5104
201.4658, 185.3569
201.9479, 182.9060
202.4300, 180.3672
202.9122, 179.1332
203.3943, 179.3238
203.8764, 179.8565
204.3585, 180.0781
204.8406, 179.9897
205.3227, 179.3519
205.8048, 177.4993
206.2870, 175.5144
206.7691, 174.1787
207.2512, 173.5806
207.7333, 173.3076
208.2154, 172.9899
208.6975, 172.6314
209.1797, 172.2046
209.6618, 171.3033
210.1439, 170.6074
210.6260, 170.5994
211.1081, 171.3294
211.5902, 172.3909
212.0724, 173.3217
212.5545, 174.1513
213.0366, 174.7228
213.5187, 174.5181
214.0008, 174.4273
214.4829, 175.1314
214.9651, 176.7015
215.4472, 178.5855
215.9293, 179.9328
216.4114, 180.2915
216.8935, 181.0540
217.3756, 182.4474
217.8578, 184.0147
218.3399, 185.5656
218.8220, 187.0028
219.3041, 188.2148
219.7862, 188.9583
220.2683, 188.6279
220.7505, 189.0518
221.2326, 190.4885
221.7147, 192.4246
222.1968, 194.6479
222.6789, 197.0474
223.1610, 199.3551
223.6432, 201.1483
224.1253, 202.0250
224.6074, 203.1883
225.0895, 204.4678
225.5716, 206.1177
226.0537, 208.3796
226.5358, 211.3104
227.0180, 214.7509
227.5001, 218.5109
227.9822, 222.5944
228.4643, 227.0366
228.9464, 232.1504
229.4285, 237.4790
229.9107, 242.1797
230.3928, 246.0186
230.8749, 250.1603
231.3570, 256.0362
231.8391, 263.6302
232.3212, 272.6031
232.8034, 284.0593
233.2855, 296.4178
233.7676, 307.9371
234.2497, 318.3849
234.7318, 327.5569
235.2139, 335.8637
235.6961, 343.2943
236.1782, 346.7967
236.6603, 345.0444
237.1424, 339.0570
237.6245, 329.7486
238.1066, 316.5386
238.5888, 302.1124
239.0709, 288.2694
239.5530, 275.0327
240.0351, 262.6207
240.5172, 250.7609
240.9993, 239.8291
241.4815, 230.8841
241.9636, 224.4598
242.4457, 218.7186
242.9278, 211.9616
243.4099, 204.8064
243.8920, 198.6877
244.3742, 194.8854
244.8563, 192.4444
245.3384, 189.0151
245.8205, 184.0056
246.3026, 179.3685
246.7847, 176.4213
247.2668, 174.5106
247.7490, 172.6238
248.2311, 170.1489
248.7132, 167.4851
249.1953, 165.6219
249.6774, 164.8536
250.1595, 164.3435
250.6417, 163.9348
251.1238, 163.4893
251.6059, 162.7720
252.0880, 161.5728
252.5701, 160.1672
253.0522, 159.3013
253.5344, 159.3530
254.0165, 159.2124
254.4986, 158.5457
254.9807, 157.5463
255.4628, 156.2903
255.9449, 154.7392
256.4271, 153.2289
256.9092, 152.6359
257.3913, 153.5865
257.8734, 154.2906
258.3555, 154.3549
258.8376, 154.0678
259.3198, 153.6313
259.8019, 153.1213
260.2840, 152.6228
260.7661, 152.3763
261.2482, 152.7608
261.7303, 152.6391
262.2125, 151.4316
262.6946, 150.0086
263.1767, 149.1206
263.6588, 148.9922
264.1409, 149.2841
264.6230, 149.4245
265.1052, 149.4274
265.5873, 149.2175
266.0694, 148.3919
266.5515, 147.6468
267.0336, 147.6720
267.5157, 148.5422
267.9979, 149.6159
268.4800, 149.9045
268.9621, 148.9374
269.4442, 148.1726
269.9263, 147.4863
270.4084, 147.0454
270.8906, 147.0296
271.3727, 147.4248
271.8548, 148.0337
272.3369, 148.6607
272.8190, 149.4199
273.3011, 149.7704
273.7833, 149.3540
274.2654, 148.9115
274.7475, 148.8415
275.2296, 149.1623
275.7117, 149.6916
276.1938, 150.2799
276.6760, 150.9735
277.1581, 151.4279
277.6402, 151.7535
278.1223, 151.8077
278.6044, 151.2688
279.0865, 150.3370
279.5686, 149.6060
280.0508, 149.5672
280.5329, 150.2326
281.0150, 150.9592
281.4971, 151.5303
281.9792, 152.3624
282.4613, 154.1376
282.9435, 156.3341
283.4256, 157.6567
283.9077, 157.1488
284.3898, 155.0915
284.8719, 154.0566
285.3540, 154.3679
285.8362, 155.1405
286.3183, 156.8010
286.8004, 158.7037
287.2825, 159.4642
287.7646, 158.2039
288.2467, 155.8169
288.7289, 155.5011
289.2110, 159.6001
289.6931, 162.7105
290.1752, 163.1902
290.6573, 162.4009
291.1394, 162.2312
291.6216, 163.4178
292.1037, 165.4369
292.5858, 167.2845
293.0679, 168.9952
293.5500, 170.4496
294.0321, 171.1673
294.5143, 171.8246
294.9964, 173.4186
295.4785, 176.2166
295.9606, 179.2049
296.4427, 180.9203
296.9248, 180.8671
297.4070, 180.9074
297.8891, 180.7537
298.3712, 180.9248
298.8533, 182.5322
299.3354, 185.5486
299.8175, 187.8631
300.2997, 187.1016
300.7818, 182.6092
301.2639, 179.0333
301.7460, 176.9135
302.2281, 175.2870
302.7102, 173.4055
303.1924, 171.3072
303.6745, 169.5896
304.1566, 168.7572
304.6387, 168.7939
305.1208, 168.7642
305.6029, 168.4662
306.0851, 168.2982
306.5672, 168.6860
307.0493, 169.4191
307.5314, 169.7661
308.0135, 169.2124
308.4956, 168.0377
308.9778, 167.4907
309.4599, 167.9598
309.9420, 168.4448
310.4241, 168.5818
310.9062, 168.5165
311.3883, 168.4330
311.8705, 168.3393
312.3526, 168.4740
312.8347, 169.4542
313.3168, 171.4624
313.7989, 173.6988
314.2810, 176.2935
314.7632, 178.9319
315.2453, 181.0958
315.7274, 182.6131
316.2095, 184.0317
316.6916, 186.1565
317.1737, 189.1923
317.6559, 192.0748
318.1380, 194.2080
318.6201, 196.4585
319.1022, 199.9650
319.5843, 204.7971
320.0664, 209.5203
320.5485, 212.7423
321.0306, 214.2859
321.5128, 216.1281
321.9949, 218.4867
322.4770, 220.9574
322.9591, 223.3048
323.4412, 225.5263
323.9233, 227.7130
324.4055, 229.8513
324.8876, 232.0180
325.3697, 234.5880
325.8518, 237.0882
326.3339, 240.4130
326.8160, 245.3646
327.2982, 251.3812
327.7803, 257.1373
328.2624, 261.8852
328.7445, 266.3621
329.2266, 272.7482
329.7087, 282.1787
330.1909, 291.1687
330.6730, 298.1884
331.1551, 304.7036
331.6372, 312.6342
332.1193, 322.5434
332.6014, 333.6681
333.0836, 344.9421
333.5657, 355.9945
334.0478, 368.5740
334.5299, 383.1237
335.0120, 398.8822
335.4941, 415.4855
335.9763, 432.7239
336.4584, 450.6158
336.9405, 469.2743
337.4226, 488.8997
337.9047, 506.9351
338.3868, 524.5975
338.8690, 539.9611
339.3511, 552.9495
339.8332, 563.0086
340.3153, 568.6951
340.7974, 569.1339
341.2795, 564.4743
341.7617, 555.0258
342.2438, 540.1785
342.7259, 522.1614
343.2080, 500.0309
343.6901, 475.3404
344.1722, 450.0133
344.6544, 424.8894
345.1365, 400.4396
345.6186, 377.7426
346.1007, 357.0970
346.5828, 338.0621
347.0649, 321.0315
347.5471, 305.5265
348.0292, 291.1614
348.5113, 277.9363
348.9934, 265.8776
349.4755, 255.2560
349.9576, 246.2524
350.4398, 237.9902
350.9219, 230.1759
351.4040, 223.2160
351.8861, 217.6510
352.3682, 213.2494
352.8503, 209.2250
353.3325, 204.9535
353.8146, 200.5215
354.2967, 197.2514
354.7788, 196.3797
355.2609, 195.2565
355.7430, 193.0397
356.2252, 190.3153
356.7073, 187.9717
357.1894, 186.4396
357.6715, 185.3931
358.1536, 183.9654
358.6357, 181.5380
359.1179, 179.6961
359.5999, 179.0453
360.0821, 178.6059
360.5642, 177.5903
361.0463, 175.8422
361.5284, 173.7321
362.0105, 171.6402
362.4926, 169.4535
362.9748, 167.7469
363.4569, 166.8219
363.9390, 166.0634
364.4211, 165.0662
364.9032, 163.9882
365.3853, 163.3651
365.8675, 163.7041
366.3496, 164.8561
366.8317, 165.3587
367.3138, 164.4257
367.7959, 163.8271
368.2780, 164.1861
368.7602, 164.9951
369.2423, 165.6220
369.7244, 165.7892
370.2065, 165.6952
370.6886, 165.6884
371.1707, 165.7021
371.6529, 165.9891
372.1350, 166.3219
372.6171, 167.0977
373.0992, 168.8559
373.5813, 171.5420
374.0634, 174.3391
374.5456, 176.3204
375.0277, 177.4352
375.5098, 178.8239
375.9919, 181.2515
376.4740, 183.0940
376.9561, 182.6315
377.4383, 181.0219
377.9204, 181.0437
378.4025, 185.1584
378.8846, 191.5012
379.3667, 194.5772
379.8488, 193.1334
380.3310, 191.6434
380.8131, 192.3274
381.2952, 193.7059
381.7773, 194.2520
382.2594, 193.4949
382.7415, 192.2477
383.2237, 191.2028
383.7058, 190.3588
384.1879, 190.0488
384.6700, 190.5555
385.1521, 191.4583
385.6342, 192.3843
386.1164, 193.3241
386.5985, 194.2975
387.0806, 195.2971
387.5627, 196.3311
388.0448, 197.3364
388.5269, 198.1891
389.0091, 199.4072
389.4912, 201.6880
389.9733, 204.6308
390.4554, 207.3536
390.9375, 208.9530
391.4196, 210.9371
391.9018, 215.2542
392.3839, 221.6217
392.8660, 227.1552
393.3481, 230.1349
393.8302, 231.9944
394.3123, 235.7712
394.7945, 242.1915
395.2766, 247.9947
395.7587, 251.7706
396.2408, 254.1253
396.7229, 255.9562
397.2050, 257.4595
397.6872, 258.6218
398.1693, 259.4825
398.6514, 260.0262
399.1335, 259.9300
399.6156, 259.1264
400.0977, 257.7174
400.5798, 255.7182
401.0620, 253.1626
401.5441, 250.0940
402.0262, 246.4597
402.5083, 242.3948
402.9904, 238.6629
403.4725, 235.3453
403.9547, 232.1977
404.4368, 229.4766
404.9189, 226.7845
405.4010, 223.3149
405.8831, 218.8962
406.3652, 214.6342
406.8474, 212.2661
407.3295, 212.7290
407.8116, 212.4712
408.2937, 210.9028
408.7758, 209.2297
409.2579, 208.1514
409.7401, 207.5906
410.2222, 207.0284
410.7043, 206.0248
411.1864, 204.6982
411.6685, 204.0634
412.1506, 204.9021
412.6328, 205.5040
413.1149, 205.5208
413.5970, 205.2223
414.0791, 205.0126
414.5612, 205.0108
415.0433, 204.8274
415.5255, 203.7856
416.0076, 201.6313
416.4897, 199.4727
416.9718, 197.3799
417.4539, 195.2986
417.9360, 193.2985
418.4182, 191.2989
418.9003, 189.1237
419.3824, 186.6599
419.8645, 183.9090
420.3466, 180.7364
420.8287, 176.8517
421.3109, 173.1877
421.7930, 170.5980
422.2751, 168.2396
422.7572, 165.1000
423.2393, 160.8129
423.7214, 156.1627
424.2036, 151.7396
424.6857, 147.5738
425.1678, 144.2571
425.6499, 142.2492
426.1320, 140.7629
426.6141, 138.9980
427.0963, 137.0108
427.5784, 135.2275
428.0605, 133.9632
428.5426, 132.9543
429.0247, 131.7673
429.5068, 130.3567
429.9890, 129.0491
430.4711, 128.0633
430.9532, 127.3504
431.4353, 126.6591
431.9174, 125.7814
432.3995, 125.2325
432.8817, 125.6910
433.3638, 126.6258
433.8459, 126.7274
434.3280, 125.4892
434.8101, 123.9756
435.2922, 123.7554
435.7744, 125.2761
436.2565, 126.3109
436.7386, 126.3231
437.2207, 126.1965
437.7028, 126.5437
438.1849, 127.3341
438.6671, 128.2562
439.1492, 129.1299
439.6313, 129.9308
440.1134, 130.4906
440.5955, 130.2870
441.0776, 130.4940
441.5598, 132.0253
442.0418, 133.6302
442.5240, 133.9135
443.0061, 132.5698
443.4882, 130.4312
443.9703, 128.5148
444.4524, 126.8178
444.9345, 125.3391
445.4167, 124.2555
445.8988, 123.2235
446.3809, 122.0433
446.8630, 120.8412
447.3451, 119.8861
447.8272, 119.3803
448.3094, 119.1191
448.7915, 118.5451
449.2736, 117.4927
449.7557, 116.6008
450.2378, 115.8507
450.7199, 115.4330
451.2021, 115.7526
451.6842, 116.7763
452.1663, 117.6021
452.6484, 117.2363
453.1305, 116.0088
453.6126, 115.5308
454.0948, 116.2866
454.5769, 116.8695
455.0590, 115.7956
455.5411, 113.9540
456.0232, 112.9641
456.5053, 113.6198
456.9875, 114.6233
457.4696, 115.0335
457.9517, 114.8895
458.4338, 114.2276
458.9159, 112.8003
459.3980, 111.3669
459.8802, 111.2852
460.3623, 112.6620
460.8444, 113.7914
461.3265, 114.4390
461.8086, 114.6636
462.2907, 114.3654
462.7729, 113.6262
463.2550, 112.8127
463.7371, 112.1171
464.2192, 111.5839
464.7013, 111.4669
465.1834, 112.2595
465.6656, 112.8099
466.1477, 112.8964
466.6298, 112.6938
467.1119, 112.3420
467.5940, 111.8961
468.0761, 111.4220
468.5583, 110.9974
469.0404, 110.6250
469.5225, 110.2639
470.0046, 109.8982
470.4867, 109.5609
470.9688, 109.2488
471.4510, 108.9761
471.9331, 108.7392
472.4152, 108.5243
472.8973, 108.4211
473.3794, 108.7394
473.8615, 109.7031
474.3437, 110.1236
474.8258, 109.1862
475.3079, 108.1109
475.7900, 107.6533
476.2721, 107.7819
476.7542, 108.0341
477.2364, 108.2073
477.7185, 108.2920
478.2006, 108.2347
478.6827, 108.0093
479.1648, 107.7984
479.6469, 107.6558
480.1291, 107.6123
480.6112, 107.7609
481.0933, 108.2449
481.5754, 108.5314
482.0575, 108.1777
482.5396, 107.4831
483.0217, 106.9941
483.5038, 106.8208
483.9860, 106.8065
484.4681, 106.8411
484.9502, 106.9249
485.4323, 106.8833
485.9144, 106.6271
486.3965, 106.3480
486.8787, 106.2018
487.3608, 106.0742
487.8429, 105.6050
488.3250, 104.6502
488.8071, 103.7489
489.2892, 103.9473
489.7714, 105.9954
490.2535, 107.3043
490.7356, 107.8837
491.2177, 107.8499
491.6998, 106.8733
492.1819, 105.3275
492.6641, 103.9901
493.1462, 103.3446
493.6283, 103.2623
494.1104, 103.4382
494.5925, 104.0251
495.0746, 104.4535
495.5568, 104.4814
496.0389, 104.3758
496.5210, 104.2749
497.0031, 104.2043
497.4852, 104.1957
497.9673, 104.3080
498.4495, 104.4970
498.9316, 104.6693
499.4137, 104.8463
499.8958, 104.8833
500.3779, 104.6013
500.8600, 104.1497
501.3422, 103.8111
501.8243, 103.5216
502.3064, 103.5144
502.7885, 104.0699
503.2706, 104.9441
503.7527, 105.7666
504.2349, 106.4584
504.7170, 106.9240
505.1991, 106.9965
505.6812, 106.6436
506.1633, 106.6457
506.6454, 107.2475
507.1276, 107.8896
507.6097, 108.3511
508.0918, 108.7253
508.5739, 109.1562
509.0560, 109.6994
509.5381, 110.3321
510.0203, 111.0037
510.5024, 111.6760
510.9845, 112.5219
511.4666, 113.3386
511.9487, 114.5310
512.4308, 116.7530
512.9130, 119.4183
513.3951, 121.3249
513.8772, 121.7370
514.3593, 121.4846
514.8414, 122.1096
515.3235, 123.7254
515.8057, 125.3715
516.2878, 126.7934
516.7699, 128.2341
517.2520, 130.0285
517.7341, 132.0918
518.2162, 133.8206
518.6984, 134.8322
519.1805, 135.4522
519.6626, 136.1674
520.1447, 136.9535
520.6268, 137.2945
521.1089, 136.7478
521.5911, 135.8400
522.0732, 135.9055
522.5553, 137.3571
523.0374, 138.3852
523.5195, 138.4021
524.0016, 138.0723
524.4838, 138.1295
524.9659, 138.4824
525.4480, 138.3583
525.9301, 137.1414
526.4122, 135.0766
526.8943, 133.4091
527.3765, 132.7555
527.8586, 131.6247
528.3407, 129.3759
528.8228, 126.9791
529.3049, 125.2162
529.7870, 124.1680
530.2692, 123.4209
530.7513, 122.5234
531.2334, 121.6032
531.7155, 121.5513
532.1976, 122.8144
532.6797, 123.9044
533.1619, 123.8927
533.6440, 123.5362
534.1261, 123.5845
534.6082, 124.1691
535.0903, 124.9779
535.5724, 125.8235
536.0546, 126.7459
536.5367, 128.0149
537.0188, 129.7162
537.5009, 131.0270
537.9830, 131.2894
538.4651, 130.6254
538.9473, 129.8669
539.4294, 128.9803
539.9115, 128.0477
540.3936, 127.1166
540.8757, 126.1359
541.3578, 124.8604
541.8400, 123.3301
542.3221, 122.1511
542.8042, 122.0787
543.2863, 123.1449
543.7684, 123.3357
544.2505, 121.6318
544.7326, 120.2534
545.2147, 119.6650
545.6968, 119.5891
546.1790, 119.8111
546.6611, 120.2447
547.1432, 120.6823
547.6253, 120.9183
548.1074, 120.9591
548.5895, 120.7969
549.0717, 120.2314
549.5538, 119.8943
550.0359, 121.0240
550.5180, 122.4002
551.0001, 121.8544
551.4822, 118.1709
551.9644, 114.6677
552.4465, 113.9285
552.9286, 114.7432
553.4107, 114.5919
553.8928, 112.9764
554.3749, 110.8469
554.8571, 108.9628
555.3392, 107.3209
555.8213, 105.9416
556.3034, 105.0362
556.7855, 104.0945
557.2676, 102.5795
557.7498, 101.1440
558.2319, 100.8122
558.7140, 101.6936
559.1961, 102.7259
559.6782, 102.6760
560.1603, 101.5286
560.6425, 100.7805
561.1246, 100.7914
561.6067, 100.6880
562.0888, 99.88839
562.5709, 98.99533
563.0530, 98.81478
563.5352, 99.56369
564.0173, 100.3514
564.4994, 100.2878
564.9815, 99.64704
565.4636, 99.33402
565.9457, 99.46205
566.4279, 99.76698
566.9100, 100.0755
567.3921, 100.4333
567.8742, 100.9938
568.3563, 102.0611
568.8384, 102.8253
569.3206, 102.8226
569.8027, 102.4621
570.2848, 102.0699
570.7669, 101.7818
571.2490, 101.9628
571.7311, 103.0510
572.2133, 104.8984
572.6954, 105.8192
573.1775, 104.9342
573.6596, 104.3033
574.1417, 104.2798
574.6238, 104.5437
575.1060, 104.9723
575.5881, 105.4588
576.0702, 105.6696
576.5523, 105.1172
577.0344, 104.0848
577.5165, 103.7221
577.9987, 104.2070
578.4808, 104.5890
578.9629, 104.4899
579.4450, 104.0420
579.9271, 103.4030
580.4092, 102.5354
580.8914, 101.7637
581.3735, 101.4506
581.8556, 101.1452
582.3377, 100.0429
582.8198, 98.32085
583.3019, 97.25217
583.7841, 97.69450
584.2662, 98.97244
584.7483, 99.21057
585.2304, 97.51891
585.7125, 96.21490
586.1946, 95.21413
586.6768, 94.64039
587.1589, 94.87215
587.6410, 95.59846
588.1231, 96.05043
588.6052, 95.75082
589.0873, 95.02573
589.5695, 94.52820
590.0516, 94.27442
590.5337, 94.14116
591.0158, 94.19894
591.4979, 94.26041
591.9800, 94.11286
592.4622, 93.82381
592.9443, 93.67616
593.4264, 94.03201
593.9085, 94.31264
594.3906, 93.80312
594.8727, 92.83180
595.3549, 92.44072
595.8370, 93.00183
596.3191, 93.65846
596.8012, 93.26026
597.2833, 91.54115
597.7654, 90.66936
598.2476, 91.26084
598.7297, 91.85278
599.2118, 92.07545
599.6939, 92.00380
600.1760, 91.70814
600.6581, 91.23125
601.1403, 90.72997
601.6224, 90.42329
602.1045, 90.29525
602.5866, 89.94344
603.0687, 89.16385
603.5508, 88.61525
604.0330, 88.89562
604.5151, 89.48240
604.9972, 89.67720
605.4793, 89.31128
605.9614, 89.02499
606.4435, 89.20956
606.9257, 89.62915
607.4078, 90.01821
607.8899, 90.33133
608.3720, 90.49745
608.8541, 90.47054
609.3362, 90.26443
609.8184, 89.90714
610.3005, 88.95054
610.7826, 88.54099
611.2647, 88.90809
611.7468, 89.59837
612.2289, 90.67219
612.7111, 91.82076
613.1932, 92.35349
613.6753, 91.80667
614.1574, 90.66487
614.6395, 89.79206
615.1216, 89.19837
615.6038, 88.63480
616.0859, 87.83554
616.5680, 87.37560
617.0501, 88.08508
617.5322, 89.58134
618.0143, 90.54732
618.4965, 90.30692
618.9786, 89.92856
619.4607, 90.08974
619.9428, 90.54944
620.4249, 90.86156
620.9070, 90.91978
621.3892, 90.89013
621.8713, 90.93816
622.3534, 91.06277
622.8355, 91.15601
623.3176, 91.34720
623.7997, 91.32819
624.2819, 90.62965
624.7640, 89.98347
625.2461, 90.28522
625.7282, 91.49205
626.2103, 92.50659
626.6924, 92.30532
627.1745, 91.37729
627.6566, 90.94533
628.1387, 91.04155
628.6208, 91.15780
629.1030, 91.00276
629.5851, 90.89626
630.0672, 91.53149
630.5493, 92.98207
631.0314, 93.81958
631.5135, 93.27818
631.9957, 92.59653
632.4778, 92.53545
632.9599, 92.93639
633.4420, 93.42619
633.9241, 93.85437
634.4063, 94.21297
634.8884, 94.40897
635.3705, 94.35886
635.8526, 94.87460
636.3347, 96.27935
636.8168, 97.81214
637.2990, 99.35178
637.7811, 100.7895
638.2632, 102.0504
638.7453, 103.1245
639.2274, 103.8255
639.7095, 103.7802
640.1917, 103.3615
640.6738, 103.2495
641.1559, 103.4807
641.6380, 103.7099
642.1201, 103.6915
642.6022, 103.6584
643.0844, 104.1557
643.5665, 105.4536
644.0486, 106.7586
644.5307, 108.0134
645.0128, 109.3272
645.4949, 110.8608
645.9771, 112.4855
646.4592, 113.9193
646.9413, 115.0249
647.4234, 116.0678
647.9055, 117.4266
648.3876, 119.0961
648.8698, 120.7786
649.3519, 122.2829
649.8340, 124.1782
650.3161, 127.1500
650.7982, 130.6700
651.2803, 133.5355
651.7625, 135.2429
652.2446, 137.3855
652.7267, 140.8549
653.2088, 144.8934
653.6909, 148.6461
654.1730, 152.1013
654.6552, 155.6700
655.1373, 159.5955
655.6194, 163.8250
656.1015, 168.2863
656.5836, 173.0677
657.0657, 177.8223
657.5479, 182.2419
658.0300, 186.9289
658.5121, 192.5813
658.9942, 198.6326
659.4763, 203.8996
659.9584, 207.9182
660.4406, 211.3755
660.9227, 215.2673
661.4048, 219.0287
661.8869, 221.1984
662.3690, 221.5476
662.8511, 220.7228
663.3333, 219.1425
663.8154, 216.7620
664.2975, 213.4115
664.7796, 208.5726
665.2617, 203.4646
665.7438, 197.6971
666.2260, 192.0027
666.7081, 186.7252
667.1902, 181.9478
667.6723, 177.7042
668.1544, 173.9770
668.6365, 170.8353
669.1187, 168.4480
669.6008, 166.7920
670.0829, 165.3086
670.5650, 163.8647
671.0471, 162.7384
671.5292, 161.9680
672.0114, 161.7317
672.4935, 162.5614
672.9756, 165.2397
673.4577, 167.6216
673.9398, 168.4782
674.4219, 169.1455
674.9041, 170.9162
675.3862, 173.7932
675.8683, 177.1259
676.3504, 180.5381
676.8325, 184.1088
677.3146, 188.0828
677.7968, 192.5430
678.2789, 197.0040
678.7610, 201.4993
679.2431, 205.9173
679.7252, 210.1079
680.2073, 214.1877
680.6895, 218.4584
681.1716, 223.2434
681.6537, 227.5764
682.1358, 231.1122
682.6179, 233.7543
683.1000, 235.5410
683.5822, 236.3830
684.0643, 235.8380
684.5464, 233.5911
685.0285, 229.8187
685.5106, 224.9555
685.9927, 218.7515
686.4749, 212.0720
686.9570, 204.8748
687.4391, 197.3103
687.9212, 189.1565
688.4033, 180.7553
688.8854, 172.5982
689.3676, 164.8251
689.8497, 157.5047
690.3318, 150.7722
690.8139, 144.5447
691.2960, 138.5426
691.7781, 132.7330
692.2603, 127.8328
692.7424, 124.3305
693.2245, 121.8568
693.7066, 119.4420
694.1887, 117.3305
694.6708, 114.7589
695.1530, 110.8556
695.6351, 107.4356
696.1172, 105.5843
696.5993, 104.7489
697.0814, 103.9427
697.5635, 102.8190
698.0457, 101.6845
698.5278, 101.0185
699.0099, 100.5861
699.4920, 99.53732
699.9741, 97.78979
700.4562, 95.89283
700.9384, 93.99918
701.4205, 92.30408
701.9026, 91.24987
702.3847, 91.00796
702.8668, 91.00874
703.3489, 91.94225
703.8311, 92.39507
704.3132, 91.32578
704.7953, 89.42954
705.2774, 87.65787
705.7595, 86.36193
706.2416, 85.65969
706.7238, 86.13528
707.2059, 87.38464
707.6880, 87.39407
708.1701, 85.93359
708.6522, 84.83888
709.1343, 85.08382
709.6164, 85.83045
710.0985, 85.61227
710.5806, 84.18726
711.0627, 83.60938
711.5449, 85.08514
712.0270, 86.27137
712.5091, 85.67210
712.9912, 84.26283
713.4733, 83.43421
713.9554, 83.51039
714.4376, 83.91011
714.9197, 84.17716
715.4018, 84.28831
715.8839, 84.05608
716.3660, 83.40172
716.8481, 83.03252
717.3303, 83.34729
717.8124, 83.78760
718.2945, 83.65159
718.7766, 82.98912
719.2587, 82.48540
719.7408, 82.39571
720.2230, 82.24170
720.7051, 81.66465
721.1872, 81.01916
721.6693, 80.77407
722.1514, 80.94351
722.6335, 81.15707
723.1157, 81.13049
723.5978, 80.95840
724.0799, 80.85875
724.5620, 80.81956
725.0441, 81.02682
725.5262, 81.74486
726.0084, 82.30215
726.4905, 81.92722
726.9726, 80.90587
727.4547, 80.37398
727.9368, 80.72324
728.4189, 81.03893
728.9011, 80.93784
729.3832, 80.76551
729.8653, 80.79756
730.3474, 81.06690
730.8295, 81.64031
731.3116, 82.60386
731.7938, 83.46989
732.2759, 83.10538
732.7580, 81.48132
733.2401, 80.87167
733.7222, 81.88456
734.2043, 82.76749
734.6865, 82.17039
735.1686, 80.91875
735.6507, 80.88114
736.1328, 82.44466
736.6149, 83.86361
737.0970, 85.13931
737.5792, 85.83198
738.0613, 85.22157
738.5434, 83.90178
739.0255, 83.01864
739.5076, 82.95850
739.9897, 83.22374
740.4719, 83.25184
740.9540, 83.07951
741.4361, 83.00173
741.9182, 83.06383
742.4003, 82.96412
742.8824, 82.45473
743.3646, 81.88840
743.8467, 81.77386
744.3288, 82.11110
744.8109, 82.42413
745.2930, 82.72151
745.7751, 82.93376
746.2573, 82.98338
746.7394, 82.96067
747.2215, 82.79741
747.7036, 82.61279
748.1857, 82.96662
748.6678, 84.51981
749.1500, 86.49834
749.6321, 87.01621
750.1142, 86.07462
750.5963, 85.18783
751.0784, 84.63284
751.5605, 84.24520
752.0427, 83.91476
752.5248, 83.64029
753.0069, 83.40731
753.4890, 83.33934
753.9711, 83.11900
754.4532, 82.65422
754.9354, 82.06831
755.4175, 81.32896
755.8996, 80.55909
756.3817, 80.03679
756.8638, 79.89408
757.3459, 79.78016
757.8281, 79.12558
758.3102, 78.14185
758.7923, 77.67526
759.2744, 77.79077
759.7565, 78.18286
760.2386, 78.85262
760.7208, 79.43946
761.2029, 79.23966
761.6850, 77.92247
762.1671, 77.17477
762.6492, 77.26379
763.1313, 77.55891
763.6135, 78.19235
764.0956, 78.73402
764.5777, 78.53926
765.0598, 77.64566
765.5419, 76.97808
766.0240, 77.27805
766.5062, 78.01511
766.9883, 78.57543
767.4704, 78.93387
767.9525, 78.95119
768.4346, 78.59106
768.9167, 77.94532
769.3989, 76.99529
769.8810, 75.87826
770.3631, 75.51860
770.8452, 76.58376
771.3273, 77.19054
771.8094, 76.82809
772.2916, 76.36742
772.7737, 76.17384
773.2558, 76.24506
773.7379, 76.63026
774.2200, 77.50393
774.7021, 77.99926
775.1843, 77.06872
775.6664, 75.70020
776.1485, 75.30928
776.6306, 75.80112
777.1127, 76.36516
777.5948, 76.64701
778.0770, 76.69667
778.5591, 76.52528
779.0412, 76.10710
779.5233, 76.02251
780.0054, 76.37355
780.4875, 76.85674
780.9697, 77.72319
781.4518, 78.40443
781.9339, 78.16566
782.4160, 77.09476
782.8981, 76.30396
783.3802, 76.05202
783.8624, 76.14992
784.3445, 76.75365
784.8266, 77.51307
785.3087, 78.02961
785.7908, 78.23463
786.2729, 78.18508
786.7551, 77.89392
787.2372, 77.47083
787.7193, 77.15139
788.2014, 76.93459
788.6835, 76.57793
789.1656, 75.94952
789.6478, 75.56631
790.1299, 75.82571
790.6120, 76.49318
791.0941, 77.02771
791.5762, 77.44713
792.0583, 77.69507
792.5404, 77.36043
793.0225, 77.29989
793.5046, 78.50498
793.9868, 79.93941
794.4689, 79.94613
794.9510, 78.33567
795.4331, 76.83679
795.9152, 76.98736
796.3973, 77.88265
796.8795, 77.97945
797.3616, 77.44693
797.8437, 77.08170
798.3258, 77.07536
798.8079, 77.36588
799.2900, 77.97663
799.7722, 78.78964
800.2543, 79.10185
800.7364, 78.57503
801.2185, 78.24128
801.7006, 78.05175
802.1827, 78.20595
802.6649, 79.36634
803.1470, 80.78576
803.6291, 80.90640
804.1112, 79.12595
804.5933, 77.65962
805.0754, 77.86012
805.5576, 78.71300
806.0397, 79.39818
806.5218, 79.85830
807.0039, 80.07575
807.4860, 80.06570
807.9681, 80.11097
808.4503, 80.68514
808.9324, 81.54568
809.4145, 81.06264
809.8966, 78.85782
810.3787, 77.75355
810.8608, 78.90316
811.3430, 80.50980
811.8251, 80.86501
812.3072, 80.20407
812.7893, 80.21911
813.2714, 81.56751
813.7535, 82.59773
814.2357, 83.11424
814.7178, 83.20616
815.1999, 82.50896
815.6820, 81.52725
816.1641, 81.30318
816.6462, 82.21104
817.1284, 83.30716
817.6105, 83.82289
818.0926, 83.89284
818.5747, 83.72272
819.0568, 83.33944
819.5389, 82.81131
820.0211, 82.15539
820.5032, 81.42777
820.9853, 80.59666
821.4674, 79.72323
821.9495, 79.84623
822.4316, 81.63488
822.9138, 82.96148
823.3959, 83.20844
823.8780, 83.12967
824.3601, 83.26607
824.8422, 83.46464
825.3243, 83.27592
825.8065, 82.46160
826.2886, 81.66067
826.7707, 80.95110
827.2528, 80.49492
827.7349, 80.55750
828.2170, 80.97065
828.6992, 81.43993
829.1813, 81.84014
829.6634, 82.00146
830.1455, 81.53184
830.6276, 80.72231
831.1097, 80.68027
831.5919, 81.38988
832.0740, 81.90932
832.5561, 81.94677
833.0382, 81.81410
833.5203, 81.76199
834.0024, 81.80412
834.4846, 82.07600
834.9667, 83.13683
835.4488, 83.48842
835.9309, 82.27151
836.4130, 81.18433
836.8951, 81.33723
837.3773, 82.15276
837.8594, 82.48975
838.3415, 82.03612
838.8236, 81.67554
839.3057, 81.92336
839.7878, 82.42344
840.2700, 82.94437
840.7521, 83.41914
841.2342, 83.82354
841.7163, 84.11508
842.1984, 84.03177
842.6805, 83.20525
843.1627, 81.99849
843.6448, 81.60837
844.1269, 82.06477
844.6090, 82.26748
845.0911, 81.93068
845.5732, 81.68021
846.0554, 81.99850
846.5375, 82.68523
847.0196, 83.16589
847.5017, 83.33179
847.9838, 83.53072
848.4659, 83.67925
848.9481, 83.95528
849.4302, 84.64690
849.9123, 85.37733
850.3944, 85.56829
850.8765, 85.21648
851.3586, 85.09766
851.8408, 85.86321
852.3229, 86.75886
852.8050, 87.07021
853.2871, 87.10210
853.7692, 87.43993
854.2513, 88.09499
854.7335, 88.61104
855.2156, 88.68828
855.6977, 88.52924
856.1798, 88.64097
856.6619, 88.99437
857.1440, 88.35025
857.6262, 86.28979
858.1083, 85.27991
858.5904, 86.92604
859.0725, 89.28077
859.5546, 89.54099
860.0367, 87.48605
860.5189, 85.91445
861.0010, 85.33913
861.4831, 84.53277
861.9652, 82.70256
862.4473, 81.08857
862.9294, 80.92989
863.4116, 81.76119
863.8937, 82.12055
864.3758, 81.44859
864.8579, 80.63754
865.3400, 80.33794
865.8221, 80.12459
866.3043, 79.18885
866.7864, 77.95183
867.2685, 77.80492
867.7506, 79.12019
868.2327, 80.55254
868.7148, 80.70061
869.1970, 79.85867
869.6791, 78.76513
870.1612, 77.42236
870.6433, 76.99264
871.1254, 77.92912
871.6075, 78.78518
872.0897, 78.34428
872.5718, 77.08622
873.0539, 76.60467
873.5360, 77.47328
874.0181, 77.80248
874.5002, 77.04594
874.9823, 76.37314
875.4644, 76.12233
875.9465, 76.17546
876.4286, 76.54007
876.9108, 77.16726
877.3929, 77.45655
877.8750, 76.98813
878.3571, 76.38051
878.8392, 75.79662
879.3214, 75.37817
879.8035, 75.37125
880.2856, 75.69534
880.7677, 76.07877
881.2498, 76.40434
881.7319, 76.52574
882.2141, 75.97873
882.6962, 75.12366
883.1783, 75.26112
883.6604, 76.32301
884.1425, 77.03542
884.6246, 76.93526
885.1068, 76.42292
885.5889, 75.87000
886.0710, 75.32138
886.5531, 75.21455
887.0352, 75.84316
887.5173, 76.02015
887.9995, 75.21077
888.4816, 74.46761
888.9637, 74.55663
889.4458, 75.12477
889.9279, 75.45809
890.4100, 75.48242
890.8922, 75.52073
891.3743, 75.83116
891.8564, 75.91856
892.3385, 75.15781
892.8206, 74.30824
893.3027, 74.40044
893.7849, 75.34518
894.2670, 76.11875
894.7491, 76.21159
895.2312, 75.95464
895.7133, 75.45228
896.1954, 74.90215
896.6776, 74.63828
897.1597, 74.65365
897.6418, 74.84345
898.1239, 75.15433
898.6060, 75.33099
899.0881, 74.94442
899.5703, 74.15797
900.0524, 73.90636
900.5345, 74.22585
901.0166, 74.34865
901.4987, 74.03917
901.9808, 73.72887
902.4630, 73.78920
902.9451, 74.09890
903.4272, 74.23235
903.9093, 74.13782
904.3914, 73.98313
904.8735, 73.57686
905.3557, 73.35292
905.8378, 73.73463
906.3199, 74.19470
906.8020, 74.00758
907.2841, 73.20277
907.7662, 72.78748
908.2484, 73.45408
908.7305, 73.97646
909.2126, 73.68983
909.6947, 73.17945
910.1768, 72.89164
910.6589, 72.87199
911.1411, 73.07430
911.6232, 73.48418
912.1053, 74.01759
912.5874, 74.82339
913.0695, 75.57139
913.5516, 75.54685
914.0338, 75.02737
914.5159, 74.91813
914.9980, 75.40993
915.4801, 76.06283
915.9622, 76.56828
916.4443, 76.89445
916.9265, 76.86293
917.4086, 76.47614
917.8907, 76.50871
918.3728, 77.10735
918.8549, 77.54263
919.3370, 77.35699
919.8192, 77.15709
920.3013, 77.91247
920.7834, 79.67319
921.2655, 80.48280
921.7476, 79.53466
922.2297, 79.03078
922.7119, 79.55042
923.1940, 80.32236
923.6761, 80.95649
924.1582, 81.51658
924.6403, 82.18764
925.1224, 83.05897
925.6046, 83.70665
926.0867, 83.93935
926.5688, 84.01798
927.0509, 83.96411
927.5330, 83.90549
928.0151, 84.07864
928.4973, 84.41007
928.9794, 84.47492
929.4615, 83.96410
929.9436, 83.41409
930.4257, 83.38100
930.9078, 83.05019
931.3900, 82.87143
931.8721, 82.93507
932.3542, 82.75931
932.8363, 82.98555
933.3184, 83.29823
933.8005, 83.38712
934.2827, 83.32857
934.7648, 83.40902
935.2469, 83.58045
935.7290, 83.27761
936.2111, 82.38896
936.6932, 81.59668
937.1754, 81.35038
937.6575, 81.25153
938.1396, 80.43277
938.6217, 78.74979
939.1038, 78.28481
939.5859, 79.61370
940.0681, 80.62402
940.5502, 80.78449
941.0323, 80.46864
941.5144, 79.83498
941.9965, 78.98313
942.4786, 78.34110
942.9608, 78.04829
943.4429, 77.66341
943.9250, 77.10206
944.4071, 76.52508
944.8892, 76.15826
945.3713, 75.70625
945.8535, 74.39407
946.3356, 72.45480
946.8177, 71.86973
947.2998, 74.55025
947.7819, 76.75379
948.2640, 76.03922
948.7462, 74.56735
949.2283, 74.72464
949.7104, 75.65832
950.1925, 74.82462
950.6746, 71.63398
951.1567, 68.94250
951.6389, 69.33210
952.1210, 71.09143
952.6031, 72.62410
953.0852, 73.65076
953.5673, 73.19958
954.0494, 71.45087
954.5316, 69.94021
955.0137, 69.48833
955.4958, 69.64182
955.9779, 69.84512
956.4600, 70.08839
956.9421, 70.33627
957.4242, 70.58763
957.9063, 70.80229
958.3884, 70.97839
958.8705, 71.00034
959.3527, 70.72731
959.8348, 70.32725
960.3169, 70.39639
960.7990, 70.13046
961.2811, 69.74123
961.7632, 70.04476
962.2454, 69.26060
962.7275, 69.48172
963.2096, 70.04240
963.6917, 70.26437
964.1738, 70.16644
964.6559, 69.94956
965.1381, 69.50029
965.6202, 69.11794
966.1023, 68.68623
966.5844, 68.46384
967.0665, 68.71094
967.5486, 69.15150
968.0308, 69.28005
968.5129, 69.08044
968.9950, 69.47837
969.4771, 71.56221
969.9592, 73.08186
970.4413, 72.52103
970.9235, 71.77864
971.4056, 73.03173
971.8877, 75.11513
972.3698, 75.13484
972.8519, 72.30865
973.3340, 69.98923
973.8162, 70.83643
974.2983, 72.15836
974.7804, 71.61846
975.2625, 70.24140
975.7446, 69.43187
976.2267, 69.30071
976.7089, 69.41988
977.1910, 69.60674
977.6731, 69.70509
978.1552, 69.42138
978.6373, 69.01904
979.1194, 68.91935
979.6016, 69.10450
980.0837, 69.52268
980.5658, 70.14037
981.0479, 70.89783
981.5300, 71.80271
982.0121, 72.50967
982.4943, 72.08920
982.9764, 70.84895
983.4585, 70.67330
983.9406, 71.58477
984.4227, 72.37825
984.9048, 72.67919
985.3870, 72.69884
985.8691, 72.58334
986.3512, 72.42075
986.8333, 72.51749
987.3154, 72.90340
987.7975, 73.30471
988.2797, 73.69896
988.7618, 74.17403
989.2439, 74.84456
989.7260, 75.42110
990.2081, 75.44299
990.6902, 75.03381
991.1724, 75.42422
991.6545, 77.09330
992.1366, 78.44213
992.6187, 79.15923
993.1008, 79.87614
993.5829, 80.91989
994.0651, 82.09600
994.5472, 83.14487
995.0293, 84.06358
995.5114, 84.95452
995.9935, 85.83326
996.4756, 86.66982
996.9578, 87.06403
997.4399, 87.82635
997.9220, 89.73753
998.4041, 92.16206
998.8862, 94.05882
999.3683, 95.29598
999.8505, 96.61724
1000.333, 98.17919
1000.815, 99.88036
1001.297, 101.5618
1001.779, 103.4640
1002.261, 105.8781
1002.743, 108.6299
1003.225, 111.4364
1003.707, 114.2266
1004.190, 116.7122
1004.672, 118.2698
1005.154, 120.0110
1005.636, 122.9471
1006.118, 126.3193
1006.600, 129.3363
1007.082, 131.9509
1007.564, 134.3667
1008.046, 136.6664
1008.529, 138.8479
1009.011, 141.2533
1009.493, 143.2235
1009.975, 143.8192
1010.457, 143.5378
1010.939, 143.1405
1011.421, 142.7940
1011.903, 142.5625
1012.385, 142.4908
1012.868, 142.1896
1013.350, 141.0624
1013.832, 139.5118
1014.314, 138.2030
1014.796, 137.1275
1015.278, 136.1173
1015.760, 135.2113
1016.242, 134.9405
1016.725, 135.6533
1017.207, 136.6556
1017.689, 136.8994
1018.171, 136.6008
1018.653, 136.4342
1019.135, 136.4305
1019.617, 136.7405
1020.099, 137.3959
1020.581, 138.3067
1021.064, 139.4063
1021.546, 140.7660
1022.028, 142.9392
1022.510, 143.4589
1022.992, 146.3781
1023.474, 144.8534
1023.956, 143.8068
1024.438, 143.9035
1024.921, 144.7143
1025.403, 146.0260
1025.885, 147.5379
1026.367, 148.6213
1026.849, 149.2924
1027.331, 148.9503
1027.813, 147.2435
1028.295, 146.7131
1028.777, 148.4395
1029.260, 150.1549
1029.742, 150.0458
1030.224, 148.5381
1030.706, 146.7436
1031.188, 144.5369
1031.670, 142.7913
1032.152, 141.9076
1032.634, 140.2466
1033.116, 137.0344
1033.599, 133.4914
1034.081, 130.5468
1034.563, 128.1024
1035.045, 125.8628
1035.527, 123.9292
1036.009, 121.8368
1036.491, 119.5573
1036.973, 117.1604
1037.456, 114.5305
1037.938, 111.9919
1038.420, 109.8971
1038.902, 108.1007
1039.384, 106.0436
1039.866, 103.4363
1040.348, 101.4312
1040.830, 100.7906
1041.313, 99.66893
1041.795, 96.86331
1042.277, 94.05994
1042.759, 93.04016
1043.241, 93.10197
1043.723, 91.97887
1044.205, 89.01755
1044.687, 86.60012
1045.169, 85.05469
1045.651, 83.75790
1046.134, 82.49732
1046.616, 81.45993
1047.098, 80.98234
1047.580, 80.84508
1048.062, 80.36147
1048.544, 79.30130
1049.026, 78.50146
1049.508, 78.37949
1049.991, 78.13601
1050.473, 77.36199
1050.955, 76.48521
1051.437, 75.82011
1051.919, 75.35343
1052.401, 74.97961
1052.883, 74.69022
1053.365, 74.47725
1053.848, 74.48669
1054.330, 74.38441
1054.812, 74.06729
1055.294, 73.56406
1055.776, 72.73021
1056.258, 71.76730
1056.740, 71.12713
1057.222, 70.89410
1057.704, 70.94861
1058.187, 71.64999
1058.669, 72.13049
1059.151, 72.08998
1059.633, 71.60938
1060.115, 70.37183
1060.597, 68.86479
1061.079, 68.18324
1061.561, 68.61662
1062.043, 68.99651
1062.526, 68.94652
1063.008, 68.72941
1063.490, 68.46200
1063.972, 68.08073
1064.454, 67.43676
1064.936, 66.66366
1065.418, 65.95628
1065.900, 65.34977
1066.383, 65.13437
1066.865, 65.84076
1067.347, 66.42321
1067.829, 66.27791
1068.311, 65.90855
1068.793, 65.64573
1069.275, 65.53429
1069.757, 65.62888
1070.240, 65.92380
1070.722, 66.11833
1071.204, 66.02393
1071.686, 65.88473
1072.168, 65.88676
1072.650, 65.82265
1073.132, 65.32169
1073.614, 64.71750
1074.096, 64.65101
1074.578, 65.17690
1075.061, 65.66727
1075.543, 66.05207
1076.025, 66.05513
1076.507, 65.07800
1076.989, 64.12724
1077.471, 64.20396
1077.953, 64.73643
1078.435, 64.72295
1078.918, 64.10889
1079.400, 63.63748
1079.882, 63.54741
1080.364, 63.73205
1080.846, 64.60612
1081.328, 65.24983
1081.810, 64.57172
1082.292, 63.50579
1082.774, 63.55414
1083.257, 64.58084
1083.739, 64.97250
1084.221, 63.84390
1084.703, 63.07765
1085.185, 63.92283
1085.667, 64.98627
1086.149, 65.52166
1086.631, 65.63805
1087.114, 65.41901
1087.596, 64.96118
1088.078, 64.43642
1088.560, 63.83490
1089.042, 63.46113
1089.524, 63.50771
1090.006, 63.73267
1090.488, 64.10175
1090.970, 64.49693
1091.453, 64.90324
1091.935, 65.22027
1092.417, 65.25871
1092.899, 64.98247
1093.381, 64.34873
1093.863, 62.57832
1094.345, 61.42876
1094.827, 62.30829
1095.309, 63.61674
1095.792, 64.08280
1096.274, 63.89650
1096.756, 63.48778
1097.238, 62.94092
1097.720, 62.85026
1098.202, 63.99757
1098.684, 64.80009
1099.166, 64.44035
1099.649, 63.85211
1100.131, 63.59386
1100.613, 63.58092
1101.095, 63.71375
1101.577, 63.94067
1102.059, 63.92164
1102.541, 63.15301
1103.023, 62.82384
1103.505, 63.79867
1103.988, 64.60835
1104.470, 64.15907
1104.952, 63.33028
1105.434, 63.08835
1105.916, 63.44313
1106.398, 64.09123
1106.880, 65.32095
1107.362, 66.04578
1107.844, 65.61305
1108.327, 65.26982
1108.809, 65.66209
1109.291, 66.18606
1109.773, 66.15480
1110.255, 66.62511
1110.737, 67.04007
1111.219, 67.09927
1111.701, 67.77102
1112.184, 67.76139
1112.666, 67.62996
1113.148, 67.50063
1113.630, 67.28417
1114.112, 66.75722
1114.594, 66.16914
1115.076, 66.01849
1115.558, 66.35767
1116.041, 66.61589
1116.523, 66.84575
1117.005, 66.90191
1117.487, 66.74294
1117.969, 66.44219
1118.451, 65.97903
1118.933, 65.43967
1119.415, 64.89394
1119.897, 64.36004
1120.380, 64.02940
1120.862, 64.01941
1121.344, 63.88713
1121.826, 63.36409
1122.308, 63.33521
1122.790, 64.52383
1123.272, 65.56168
1123.754, 64.93006
1124.236, 63.27013
1124.719, 62.87621
1125.201, 64.14810
1125.683, 64.51455
1126.165, 63.73408
1126.647, 62.90769
1127.129, 62.16936
1127.611, 61.94519
1128.093, 62.69273
1128.576, 63.75751
1129.058, 63.83853
1129.540, 62.99988
1130.022, 62.72892
1130.504, 63.09834
1130.986, 63.13253
1131.468, 62.63997
1131.950, 62.31874
1132.432, 62.51994
1132.915, 62.96208
1133.397, 63.37720
1133.879, 63.65584
1134.361, 63.20853
1134.843, 62.13935
1135.325, 61.82605
1135.807, 62.32467
1136.289, 62.76712
1136.771, 62.87267
1137.254, 62.83031
1137.736, 62.76487
1138.218, 62.77370
1138.700, 63.27613
1139.182, 63.95210
1139.664, 63.41779
1140.146, 62.02905
1140.628, 61.49448
1141.111, 62.03258
1141.593, 62.74801
1142.075, 63.18116
1142.557, 63.15983
1143.039, 62.16213
1143.521, 60.85408
1144.003, 60.18613
1144.485, 60.13932
1144.968, 60.94731
1145.450, 62.31625
1145.932, 63.56067
1146.414, 64.38499
1146.896, 64.29500
1147.378, 62.38590
1147.860, 60.58712
1148.342, 61.23250
1148.824, 62.61987
1149.307, 62.79150
1149.789, 62.17875
1150.271, 61.68985
1150.753, 61.49465
1151.235, 61.46670
1151.717, 61.62500
1152.199, 61.59972
1152.681, 60.88965
1153.163, 60.26662
1153.646, 60.24152
1154.128, 60.56743
1154.610, 61.12254
1155.092, 61.75230
1155.574, 62.23960
1156.056, 62.54844
1156.538, 62.55281
1157.020, 61.81275
1157.503, 61.34487
1157.985, 61.63993
1158.467, 62.06811
1158.949, 62.23766
1159.431, 62.32766
1159.913, 62.65808
1160.395, 63.18516
1160.877, 63.43697
1161.359, 63.22011
1161.842, 63.06277
1162.324, 62.98293
1162.806, 62.94261
1163.288, 62.92093
1163.770, 62.96607
1164.252, 63.27258
1164.734, 63.54985
1165.216, 63.06378
1165.698, 61.72261
1166.181, 60.83526
1166.663, 60.39082
1167.145, 60.51802
1167.627, 61.38921
1168.109, 62.33521
1168.591, 63.15181
1169.073, 63.48270
1169.555, 62.77379
1170.037, 61.43787
1170.520, 61.11197
1171.002, 61.76626
1171.484, 62.13620
1171.966, 62.17199
1172.448, 62.24487
1172.930, 62.45571
1173.412, 62.86646
1173.894, 63.55242
1174.377, 64.14458
1174.859, 63.87506
1175.341, 64.31366
1175.823, 64.36958
1176.305, 64.24319
1176.787, 64.40461
1177.269, 63.93047
1177.751, 63.66878
1178.234, 63.89772
1178.716, 64.05582
1179.198, 63.50915
1179.680, 63.14485
1180.162, 64.41654
1180.644, 66.04490
1181.126, 66.50676
1181.608, 66.05598
1182.090, 64.92072
1182.573, 63.50814
1183.055, 62.97623
1183.537, 63.89976
1184.019, 64.68095
1184.501, 64.20069
1184.983, 63.70390
1185.465, 63.93589
1185.947, 64.40115
1186.429, 64.77142
1186.912, 65.00245
1187.394, 65.01482
1187.876, 64.82236
1188.358, 64.80799
1188.840, 65.34440
1189.322, 65.56348
1189.804, 65.35229
1190.286, 64.82942
1190.769, 63.56248
1191.251, 62.53794
1191.733, 62.93729
1192.215, 62.04124
1192.697, 61.73392
1193.179, 61.95027
1193.661, 61.27608
1194.143, 62.16690
1194.625, 62.78597
1195.108, 62.84000
1195.590, 62.71843
1196.072, 62.62740
1196.554, 62.30099
1197.036, 61.31120
1197.518, 60.07906
1198.000, 60.03472
1198.482, 61.04280
1198.964, 62.06472
1199.447, 62.97667
1199.929, 63.04793
1200.411, 62.21666
1200.893, 61.63295
1201.375, 61.97399
1201.857, 62.43709
1202.339, 61.95688
1202.821, 61.12738
1203.304, 60.92187
1203.786, 61.06888
1204.268, 60.99785
1204.750, 60.86618
1205.232, 61.36879
1205.714, 62.51703
1206.196, 63.33118
1206.678, 63.32974
1207.161, 62.83846
1207.643, 61.50026
1208.125, 60.38179
1208.607, 60.35455
1209.089, 60.81962
1209.571, 61.32372
1210.053, 61.71606
1210.535, 61.67057
1211.017, 61.09054
1211.500, 61.14045
1211.982, 62.65193
1212.464, 63.78060
1212.946, 64.24086
1213.428, 64.31830
1213.910, 63.88900
1214.392, 63.39035
1214.874, 63.27177
1215.356, 63.38648
1215.839, 63.25343
1216.321, 63.28715
1216.803, 63.32471
1217.285, 63.18127
1217.767, 63.32180
1218.249, 63.01221
1218.731, 62.81099
1219.213, 62.98845
1219.696, 63.37013
1220.178, 63.82306
1220.660, 64.20121
1221.142, 63.93555
1221.624, 63.35788
1222.106, 63.83297
1222.588, 65.00979
1223.070, 65.37817
1223.552, 64.81051
1224.035, 64.29711
1224.517, 64.30029
1224.999, 64.48161
1225.481, 64.70535
1225.963, 64.80760
1226.445, 64.40388
1226.927, 64.00783
1227.409, 64.34276
1227.891, 64.98810
1228.374, 65.21666
1228.856, 64.97799
1229.338, 64.64296
1229.820, 64.26652
1230.302, 63.92738
1230.784, 63.63673
1231.266, 63.39539
1231.748, 63.24983
1232.231, 63.10502
1232.713, 62.95057
1233.195, 62.71294
1233.677, 62.16611
1234.159, 61.41105
1234.641, 61.44462
1235.123, 62.54950
1235.605, 63.06056
1236.088, 62.82742
1236.570, 62.55041
1237.052, 62.37268
1237.534, 62.63167
1238.016, 63.61456
1238.498, 64.58002
1238.980, 64.30392
1239.462, 65.06169
1239.944, 63.84579
1240.427, 64.98805
1240.909, 64.69351
1241.391, 63.31122
1241.873, 62.59906
1242.355, 62.87315
1242.837, 63.18719
1243.319, 63.07103
1243.801, 62.69320
1244.283, 61.73246
1244.766, 61.08549
1245.248, 61.63691
1245.730, 62.65740
1246.212, 63.70280
1246.694, 64.52924
1247.176, 64.70004
1247.658, 64.26078
1248.140, 64.09311
1248.622, 64.66029
1249.105, 64.78657
1249.587, 64.22710
1250.069, 63.48421
1250.551, 62.40964
1251.033, 61.64762
1251.515, 61.68121
1251.997, 62.10342
1252.479, 62.29187
1252.962, 62.32939
1253.444, 62.79012
1253.926, 62.97800
1254.408, 63.19767
1254.890, 63.66793
1255.372, 63.66877
1255.854, 64.12334
1256.336, 64.40469
1256.818, 64.15453
1257.301, 63.51098
1257.783, 62.26421
1258.265, 61.13246
1258.747, 61.33274
1259.229, 62.09972
1259.711, 62.44655
1260.193, 62.48648
1260.675, 62.67414
1261.157, 62.98646
1261.640, 62.90748
1262.122, 62.13545
1262.604, 61.69454
1263.086, 62.06202
1263.568, 62.58680
1264.050, 63.62598
1264.532, 64.09229
1265.014, 62.59084
1265.497, 60.92496
1265.979, 61.43351
1266.461, 63.45903
1266.943, 64.12978
1267.425, 63.16302
1267.907, 63.01534
1268.389, 63.77279
1268.871, 64.54041
1269.354, 65.17141
1269.836, 64.99417
1270.318, 63.68821
1270.800, 62.35682
1271.282, 62.09105
1271.764, 62.36709
1272.246, 62.53947
1272.728, 62.52932
1273.210, 61.93721
1273.693, 61.19530
1274.175, 61.09951
1274.657, 61.63276
1275.139, 62.59932
1275.621, 63.88285
1276.103, 64.34636
1276.585, 62.89458
1277.067, 61.58680
1277.549, 61.02737
1278.032, 60.85078
1278.514, 60.80560
1278.996, 61.16428
1279.478, 62.51725
1279.960, 64.18162
1280.442, 64.80771
1280.924, 64.42330
1281.406, 63.79093
1281.889, 62.78935
1282.371, 62.63563
1282.853, 63.46754
1283.335, 64.01163
1283.817, 63.91732
1284.299, 64.13664
1284.781, 65.30958
1285.263, 66.54695
1285.745, 66.93327
1286.228, 66.46509
##END=



