##NAMES=Enstatite
##RRUFFID=R070641
##IDEAL CHEMISTRY=MgSiO_3_
##LOCALITY=Sri Lanka
##OWNER=RRUFF
##SOURCE=Jibamitra Ganguly
##DESCRIPTION=Translucent colorless crystalline fragment
##STATUS=The identification of this mineral has been confirmed by X-ray diffraction.
##URL=rruff.info/R070641
121.9340, 1827.370
122.4161, 1826.702
122.8982, 1818.564
123.3804, 1811.797
123.8625, 1813.804
124.3446, 1823.095
124.8267, 1832.303
125.3088, 1835.422
125.7909, 1831.995
126.2731, 1828.915
126.7552, 1821.999
127.2373, 1819.209
127.7194, 1826.067
128.2015, 1843.162
128.6837, 1865.454
129.1658, 1886.370
129.6479, 1907.570
130.1300, 1923.395
130.6121, 1927.647
131.0942, 1930.061
131.5764, 1938.919
132.0585, 1957.820
132.5406, 1984.710
133.0227, 2012.195
133.5048, 2046.490
133.9869, 2074.471
134.4691, 2093.717
134.9512, 2105.673
135.4333, 2112.097
135.9154, 2113.598
136.3975, 2110.464
136.8796, 2108.606
137.3618, 2109.902
137.8439, 2110.571
138.3260, 2110.621
138.8081, 2109.352
139.2902, 2102.873
139.7723, 2085.493
140.2545, 2057.386
140.7366, 2035.930
141.2187, 2026.715
141.7008, 2022.503
142.1829, 2016.461
142.6650, 2008.260
143.1471, 1996.177
143.6293, 1970.234
144.1114, 1934.448
144.5935, 1913.074
145.0756, 1925.060
145.5577, 1960.850
146.0398, 1988.578
146.5220, 2000.106
147.0041, 2005.354
147.4862, 2012.517
147.9683, 2021.626
148.4504, 2030.847
148.9325, 2038.677
149.4147, 2045.094
149.8968, 2050.855
150.3789, 2055.397
150.8610, 2059.729
151.3431, 2064.270
151.8252, 2069.134
152.3074, 2074.375
152.7895, 2081.207
153.2716, 2094.100
153.7537, 2098.217
154.2358, 2092.071
154.7179, 2078.283
155.2001, 2057.861
155.6822, 2031.095
156.1643, 1999.944
156.6464, 1970.218
157.1285, 1935.969
157.6106, 1910.562
158.0928, 1902.931
158.5749, 1903.389
159.0570, 1898.029
159.5391, 1877.939
160.0212, 1845.043
160.5033, 1821.946
160.9855, 1810.271
161.4676, 1804.900
161.9497, 1810.169
162.4318, 1821.756
162.9139, 1828.812
163.3960, 1822.899
163.8782, 1803.085
164.3603, 1781.255
164.8424, 1756.557
165.3245, 1730.645
165.8066, 1703.135
166.2887, 1674.246
166.7709, 1648.267
167.2530, 1630.525
167.7351, 1620.913
168.2172, 1609.528
168.6993, 1588.693
169.1814, 1568.161
169.6636, 1563.968
170.1457, 1582.375
170.6278, 1601.268
171.1099, 1595.521
171.5920, 1569.528
172.0741, 1539.142
172.5563, 1502.615
173.0384, 1465.520
173.5205, 1446.322
174.0026, 1456.626
174.4847, 1473.760
174.9668, 1476.138
175.4490, 1464.904
175.9311, 1453.949
176.4132, 1454.606
176.8953, 1466.493
177.3774, 1474.930
177.8595, 1473.093
178.3417, 1470.513
178.8238, 1472.275
179.3059, 1479.016
179.7880, 1490.106
180.2701, 1507.468
180.7522, 1534.632
181.2344, 1553.254
181.7165, 1550.532
182.1986, 1545.060
182.6807, 1547.527
183.1628, 1560.944
183.6449, 1582.115
184.1271, 1606.157
184.6092, 1633.897
185.0913, 1663.151
185.5734, 1692.157
186.0555, 1722.843
186.5376, 1758.232
187.0198, 1799.564
187.5019, 1843.157
187.9840, 1879.923
188.4661, 1900.099
188.9482, 1925.352
189.4303, 1952.257
189.9125, 1986.573
190.3946, 2037.474
190.8767, 2111.008
191.3588, 2200.333
191.8409, 2275.252
192.3230, 2320.056
192.8052, 2367.674
193.2873, 2428.392
193.7694, 2495.212
194.2515, 2556.862
194.7336, 2607.735
195.2157, 2647.262
195.6979, 2669.113
196.1800, 2661.197
196.6621, 2652.503
197.1442, 2662.361
197.6263, 2682.365
198.1084, 2686.292
198.5906, 2655.057
199.0727, 2589.224
199.5548, 2519.336
200.0369, 2435.969
200.5190, 2357.323
201.0011, 2297.809
201.4833, 2255.870
201.9654, 2213.354
202.4475, 2152.969
202.9296, 2078.364
203.4117, 2020.701
203.8938, 1996.014
204.3760, 1979.156
204.8581, 1945.634
205.3402, 1893.135
205.8223, 1841.210
206.3044, 1806.603
206.7865, 1785.622
207.2687, 1765.888
207.7508, 1743.857
208.2329, 1722.398
208.7150, 1705.762
209.1971, 1694.852
209.6792, 1686.237
210.1614, 1679.903
210.6435, 1674.208
211.1256, 1664.457
211.6077, 1645.255
212.0898, 1621.223
212.5719, 1601.863
213.0541, 1587.076
213.5362, 1578.523
214.0183, 1580.490
214.5004, 1589.360
214.9825, 1596.228
215.4646, 1591.468
215.9468, 1579.602
216.4289, 1580.108
216.9110, 1597.802
217.3931, 1623.151
217.8752, 1653.942
218.3573, 1687.675
218.8395, 1717.116
219.3216, 1734.460
219.8037, 1740.935
220.2858, 1752.118
220.7679, 1765.247
221.2500, 1787.599
221.7322, 1822.285
222.2143, 1868.434
222.6964, 1923.038
223.1785, 1987.631
223.6606, 2063.040
224.1427, 2129.717
224.6249, 2177.174
225.1070, 2224.542
225.5891, 2281.104
226.0712, 2344.934
226.5533, 2407.351
227.0354, 2457.539
227.5176, 2491.713
227.9997, 2538.792
228.4818, 2598.711
228.9639, 2672.071
229.4460, 2767.657
229.9281, 2879.973
230.4103, 2991.766
230.8924, 3081.033
231.3745, 3138.396
231.8566, 3217.746
232.3387, 3321.699
232.8208, 3443.762
233.3030, 3584.128
233.7851, 3741.660
234.2672, 3911.757
234.7493, 4089.854
235.2314, 4275.561
235.7135, 4471.905
236.1957, 4706.971
236.6778, 4929.316
237.1599, 5124.484
237.6420, 5283.582
238.1241, 5390.632
238.6062, 5426.349
239.0884, 5383.983
239.5705, 5281.243
240.0526, 5111.924
240.5347, 4901.081
241.0168, 4649.396
241.4989, 4363.975
241.9811, 4071.209
242.4632, 3800.019
242.9453, 3558.102
243.4274, 3314.848
243.9095, 3041.095
244.3916, 2788.107
244.8738, 2593.628
245.3559, 2459.862
245.8380, 2352.281
246.3201, 2230.042
246.8022, 2080.781
247.2843, 1960.685
247.7665, 1881.068
248.2486, 1818.772
248.7307, 1760.589
249.2128, 1703.505
249.6949, 1648.429
250.1770, 1595.618
250.6592, 1543.380
251.1413, 1502.946
251.6234, 1477.167
252.1055, 1460.456
252.5876, 1451.921
253.0697, 1450.300
253.5519, 1448.574
254.0340, 1437.806
254.5161, 1413.372
254.9982, 1400.598
255.4803, 1408.964
255.9624, 1422.470
256.4445, 1428.448
256.9267, 1425.347
257.4088, 1420.385
257.8909, 1422.142
258.3730, 1433.420
258.8551, 1434.313
259.3372, 1415.907
259.8194, 1392.885
260.3015, 1376.377
260.7836, 1367.781
261.2657, 1363.360
261.7478, 1360.090
262.2299, 1358.200
262.7121, 1355.961
263.1942, 1351.246
263.6763, 1347.558
264.1584, 1348.117
264.6405, 1353.136
265.1227, 1360.166
265.6048, 1367.242
266.0869, 1374.410
266.5690, 1381.739
267.0511, 1392.478
267.5332, 1401.267
268.0154, 1399.169
268.4975, 1386.547
268.9796, 1380.093
269.4617, 1397.423
269.9438, 1438.301
270.4259, 1464.748
270.9081, 1464.802
271.3902, 1457.853
271.8723, 1456.503
272.3544, 1461.760
272.8365, 1473.944
273.3186, 1495.291
273.8008, 1525.249
274.2829, 1552.458
274.7650, 1574.799
275.2471, 1595.818
275.7292, 1618.615
276.2113, 1642.973
276.6935, 1666.277
277.1756, 1686.615
277.6577, 1704.095
278.1398, 1720.502
278.6219, 1743.241
279.1040, 1759.090
279.5862, 1757.029
280.0683, 1738.374
280.5504, 1713.276
281.0325, 1684.907
281.5146, 1655.575
281.9967, 1633.219
282.4789, 1621.778
282.9610, 1613.398
283.4431, 1604.249
283.9252, 1594.304
284.4073, 1583.424
284.8894, 1570.960
285.3716, 1557.760
285.8537, 1546.099
286.3358, 1535.277
286.8179, 1526.763
287.3000, 1521.970
287.7821, 1520.377
288.2643, 1519.570
288.7464, 1517.350
289.2285, 1516.427
289.7106, 1522.926
290.1927, 1539.184
290.6748, 1557.668
291.1570, 1574.610
291.6391, 1590.953
292.1212, 1609.310
292.6033, 1630.528
293.0854, 1654.677
293.5675, 1681.613
294.0497, 1711.206
294.5318, 1743.561
295.0139, 1781.969
295.4960, 1823.194
295.9781, 1858.852
296.4602, 1884.739
296.9424, 1907.135
297.4245, 1937.588
297.9066, 1977.850
298.3887, 2015.774
298.8708, 2049.676
299.3529, 2078.383
299.8351, 2100.461
300.3172, 2115.997
300.7993, 2123.135
301.2814, 2116.795
301.7635, 2096.964
302.2456, 2073.312
302.7278, 2050.117
303.2099, 2023.587
303.6920, 1983.775
304.1741, 1926.930
304.6562, 1873.351
305.1383, 1848.973
305.6205, 1855.453
306.1026, 1859.772
306.5847, 1854.379
307.0668, 1846.607
307.5489, 1842.621
308.0310, 1843.246
308.5132, 1849.795
308.9953, 1865.050
309.4774, 1889.531
309.9595, 1912.155
310.4416, 1929.369
310.9237, 1946.813
311.4059, 1970.359
311.8880, 1999.599
312.3701, 2027.632
312.8522, 2047.703
313.3343, 2060.849
313.8164, 2083.855
314.2986, 2119.641
314.7807, 2161.930
315.2628, 2207.280
315.7449, 2255.831
316.2270, 2310.190
316.7091, 2372.664
317.1913, 2441.938
317.6734, 2509.776
318.1555, 2567.826
318.6376, 2633.512
319.1197, 2719.906
319.6018, 2819.354
320.0840, 2914.847
320.5661, 2997.582
321.0482, 3070.700
321.5303, 3142.256
322.0124, 3216.756
322.4945, 3284.335
322.9767, 3340.378
323.4588, 3388.851
323.9409, 3437.437
324.4230, 3489.670
324.9051, 3538.356
325.3872, 3567.735
325.8694, 3556.102
326.3515, 3563.697
326.8336, 3602.403
327.3157, 3658.580
327.7978, 3717.950
328.2799, 3776.870
328.7621, 3842.482
329.2442, 3926.853
329.7263, 4040.658
330.2084, 4146.534
330.6905, 4229.636
331.1726, 4315.389
331.6548, 4425.233
332.1369, 4559.684
332.6190, 4702.631
333.1011, 4837.251
333.5832, 4960.437
334.0653, 5093.136
334.5475, 5229.925
335.0296, 5378.813
335.5117, 5546.123
335.9938, 5729.115
336.4759, 5920.344
336.9580, 6112.723
337.4402, 6306.551
337.9223, 6524.031
338.4044, 6787.020
338.8865, 7047.973
339.3686, 7302.019
339.8507, 7545.766
340.3329, 7775.291
340.8150, 7990.278
341.2971, 8188.558
341.7792, 8362.814
342.2613, 8512.090
342.7434, 8634.255
343.2256, 8729.668
343.7077, 8798.276
344.1898, 8845.481
344.6719, 8872.979
345.1540, 8866.881
345.6361, 8798.259
346.1183, 8657.648
346.6004, 8465.142
347.0825, 8211.438
347.5646, 7926.150
348.0467, 7620.165
348.5288, 7301.354
349.0110, 6980.084
349.4931, 6670.664
349.9752, 6371.709
350.4573, 6086.232
350.9394, 5813.212
351.4215, 5551.715
351.9037, 5299.924
352.3858, 5058.614
352.8679, 4832.035
353.3500, 4626.652
353.8321, 4442.373
354.3142, 4263.600
354.7964, 4088.478
355.2785, 3923.472
355.7606, 3768.194
356.2427, 3623.749
356.7248, 3491.154
357.2069, 3371.611
357.6891, 3264.633
358.1712, 3171.111
358.6533, 3094.450
359.1354, 3022.930
359.6175, 2954.439
360.0996, 2887.337
360.5818, 2818.034
361.0639, 2742.395
361.5460, 2671.604
362.0281, 2626.723
362.5102, 2611.432
362.9923, 2586.655
363.4745, 2529.443
363.9566, 2463.678
364.4387, 2414.342
364.9208, 2385.547
365.4029, 2360.282
365.8850, 2322.718
366.3672, 2276.361
366.8493, 2240.060
367.3314, 2220.377
367.8135, 2208.744
368.2956, 2195.606
368.7777, 2181.216
369.2599, 2171.018
369.7420, 2172.808
370.2241, 2178.743
370.7062, 2172.753
371.1883, 2150.844
371.6704, 2129.872
372.1526, 2122.936
372.6347, 2129.223
373.1168, 2143.751
373.5989, 2173.703
374.0810, 2205.982
374.5631, 2228.931
375.0453, 2243.373
375.5274, 2258.179
376.0095, 2278.859
376.4916, 2304.026
376.9737, 2327.478
377.4558, 2349.943
377.9380, 2370.256
378.4201, 2379.530
378.9022, 2387.192
379.3843, 2414.070
379.8664, 2469.790
380.3485, 2541.305
380.8307, 2600.863
381.3128, 2642.690
381.7949, 2683.414
382.2770, 2724.930
382.7591, 2765.420
383.2412, 2807.061
383.7234, 2848.692
384.2055, 2879.297
384.6876, 2884.689
385.1697, 2858.713
385.6518, 2832.460
386.1339, 2802.416
386.6161, 2775.286
387.0982, 2757.305
387.5803, 2745.433
388.0624, 2731.304
388.5445, 2708.441
389.0266, 2677.695
389.5088, 2648.775
389.9909, 2616.055
390.4730, 2592.406
390.9551, 2578.332
391.4372, 2575.134
391.9193, 2586.507
392.4015, 2614.390
392.8836, 2651.290
393.3657, 2680.450
393.8478, 2693.222
394.3299, 2719.443
394.8120, 2771.438
395.2942, 2831.449
395.7763, 2889.073
396.2584, 2942.412
396.7405, 2993.767
397.2226, 3045.679
397.7047, 3097.957
398.1869, 3150.044
398.6690, 3205.211
399.1511, 3255.865
399.6332, 3302.544
400.1153, 3342.311
400.5974, 3367.321
401.0796, 3371.274
401.5617, 3358.261
402.0438, 3336.290
402.5259, 3304.591
403.0080, 3266.922
403.4901, 3219.073
403.9723, 3168.127
404.4544, 3126.098
404.9365, 3099.222
405.4186, 3074.558
405.9007, 3040.794
406.3828, 2999.553
406.8650, 2959.353
407.3471, 2922.844
407.8292, 2889.487
408.3113, 2858.297
408.7934, 2829.606
409.2755, 2801.429
409.7577, 2765.356
410.2398, 2732.631
410.7219, 2721.789
411.2040, 2736.099
411.6861, 2759.526
412.1682, 2777.286
412.6504, 2788.527
413.1325, 2798.382
413.6146, 2801.186
414.0967, 2807.782
414.5788, 2828.589
415.0609, 2859.058
415.5431, 2886.649
416.0252, 2904.460
416.5073, 2912.152
416.9894, 2908.082
417.4715, 2889.068
417.9536, 2861.375
418.4358, 2818.230
418.9179, 2770.108
419.4000, 2730.344
419.8821, 2702.218
420.3642, 2674.574
420.8463, 2629.213
421.3285, 2559.063
421.8106, 2490.885
422.2927, 2425.635
422.7748, 2361.638
423.2569, 2300.888
423.7390, 2241.303
424.2212, 2176.448
424.7033, 2099.317
425.1854, 2012.801
425.6675, 1932.604
426.1496, 1861.082
426.6317, 1793.146
427.1139, 1717.857
427.5960, 1647.425
428.0781, 1600.891
428.5602, 1590.950
429.0423, 1590.675
429.5244, 1567.458
430.0066, 1520.978
430.4887, 1465.470
430.9708, 1395.816
431.4529, 1327.362
431.9350, 1275.432
432.4171, 1240.161
432.8993, 1216.208
433.3814, 1209.396
433.8635, 1210.175
434.3456, 1199.696
434.8277, 1174.560
435.3098, 1146.296
435.7920, 1123.449
436.2741, 1106.061
436.7562, 1090.983
437.2383, 1073.467
437.7204, 1062.504
438.2025, 1067.207
438.6847, 1083.247
439.1668, 1098.071
439.6489, 1105.433
440.1310, 1108.024
440.6131, 1113.185
441.0952, 1128.995
441.5774, 1135.866
442.0595, 1123.495
442.5416, 1107.349
443.0237, 1102.981
443.5058, 1112.198
443.9879, 1124.615
444.4701, 1128.393
444.9522, 1121.911
445.4343, 1118.251
445.9164, 1117.655
446.3985, 1119.736
446.8806, 1126.755
447.3628, 1136.136
447.8449, 1143.629
448.3270, 1147.045
448.8091, 1146.976
449.2912, 1144.007
449.7733, 1136.087
450.2555, 1131.050
450.7375, 1130.114
451.2197, 1133.380
451.7018, 1142.955
452.1839, 1159.030
452.6660, 1175.031
453.1481, 1186.085
453.6302, 1192.684
454.1124, 1196.864
454.5945, 1198.617
455.0766, 1198.585
455.5587, 1195.204
456.0408, 1190.062
456.5229, 1188.453
457.0051, 1192.514
457.4872, 1199.849
457.9693, 1210.982
458.4514, 1224.637
458.9335, 1234.137
459.4156, 1236.833
459.8978, 1232.730
460.3799, 1220.227
460.8620, 1193.229
461.3441, 1170.844
461.8262, 1158.436
462.3083, 1151.114
462.7905, 1143.888
463.2726, 1135.840
463.7547, 1129.189
464.2368, 1126.515
464.7189, 1128.429
465.2010, 1128.962
465.6832, 1127.136
466.1653, 1125.054
466.6474, 1123.398
467.1295, 1121.936
467.6116, 1120.408
468.0938, 1118.784
468.5759, 1116.448
469.0580, 1111.303
469.5401, 1101.177
470.0222, 1094.415
470.5043, 1095.030
470.9865, 1097.636
471.4686, 1100.687
471.9507, 1103.331
472.4328, 1102.066
472.9149, 1091.504
473.3970, 1074.619
473.8792, 1062.169
474.3613, 1055.132
474.8434, 1051.023
475.3255, 1049.858
475.8076, 1050.352
476.2897, 1049.891
476.7719, 1048.258
477.2540, 1045.373
477.7361, 1040.534
478.2182, 1034.329
478.7003, 1027.456
479.1824, 1019.288
479.6646, 1013.857
480.1467, 1018.758
480.6288, 1039.066
481.1109, 1053.580
481.5930, 1059.913
482.0751, 1061.151
482.5573, 1056.553
483.0394, 1048.218
483.5215, 1042.536
484.0036, 1044.534
484.4857, 1052.756
484.9678, 1057.543
485.4500, 1056.688
485.9321, 1055.038
486.4142, 1051.729
486.8963, 1048.751
487.3784, 1048.981
487.8605, 1052.799
488.3427, 1056.256
488.8248, 1053.610
489.3069, 1044.464
489.7890, 1039.367
490.2711, 1043.797
490.7532, 1045.535
491.2354, 1035.403
491.7175, 1017.848
492.1996, 1003.108
492.6817, 995.5605
493.1638, 992.1384
493.6459, 988.6819
494.1281, 985.4628
494.6102, 987.4901
495.0923, 1000.172
495.5744, 1014.831
496.0565, 1014.065
496.5386, 994.2757
497.0208, 978.8892
497.5029, 976.4840
497.9850, 979.1051
498.4671, 978.5137
498.9492, 974.2622
499.4313, 970.9653
499.9135, 972.5112
500.3956, 978.4777
500.8777, 983.3477
501.3598, 986.0526
501.8419, 988.9150
502.3240, 991.0040
502.8062, 994.0319
503.2883, 1000.583
503.7704, 1011.182
504.2525, 1022.889
504.7346, 1032.698
505.2167, 1040.831
505.6989, 1044.590
506.1810, 1036.953
506.6631, 1033.145
507.1452, 1041.994
507.6273, 1059.765
508.1094, 1078.003
508.5916, 1093.167
509.0737, 1107.069
509.5558, 1121.887
510.0379, 1137.550
510.5200, 1153.798
511.0021, 1170.998
511.4843, 1188.167
511.9664, 1202.711
512.4485, 1213.584
512.9306, 1228.953
513.4127, 1253.819
513.8948, 1282.153
514.3770, 1308.746
514.8591, 1333.075
515.3412, 1355.721
515.8233, 1376.851
516.3054, 1396.858
516.7875, 1417.668
517.2697, 1440.032
517.7518, 1462.435
518.2339, 1488.206
518.7160, 1512.080
519.1981, 1527.364
519.6802, 1533.635
520.1624, 1538.052
520.6445, 1549.529
521.1266, 1568.365
521.6087, 1582.189
522.0908, 1590.748
522.5729, 1594.148
523.0551, 1585.359
523.5372, 1573.831
524.0193, 1576.726
524.5014, 1605.150
524.9835, 1635.319
525.4656, 1642.081
525.9478, 1629.134
526.4299, 1615.452
526.9120, 1605.405
527.3941, 1597.041
527.8762, 1587.462
528.3583, 1576.449
528.8405, 1569.663
529.3226, 1574.814
529.8047, 1577.975
530.2868, 1567.217
530.7689, 1546.669
531.2510, 1528.555
531.7332, 1519.188
532.2153, 1515.251
532.6974, 1508.259
533.1795, 1492.990
533.6616, 1484.451
534.1437, 1485.817
534.6259, 1490.606
535.1080, 1491.575
535.5901, 1491.479
536.0722, 1501.713
536.5543, 1535.149
537.0364, 1582.137
537.5186, 1611.094
538.0007, 1618.391
538.4828, 1621.956
538.9649, 1630.874
539.4470, 1637.538
539.9291, 1632.229
540.4113, 1613.026
540.8934, 1591.268
541.3755, 1573.433
541.8576, 1556.224
542.3397, 1534.464
542.8218, 1507.604
543.3040, 1477.697
543.7861, 1444.441
544.2682, 1409.282
544.7503, 1385.165
545.2324, 1380.084
545.7145, 1374.413
546.1967, 1361.907
546.6788, 1348.321
547.1609, 1339.842
547.6430, 1337.865
548.1251, 1339.960
548.6072, 1344.906
549.0894, 1353.001
549.5715, 1354.605
550.0536, 1344.287
550.5357, 1335.195
551.0178, 1337.458
551.4999, 1341.877
551.9821, 1333.604
552.4642, 1305.302
552.9463, 1276.394
553.4284, 1268.185
553.9105, 1275.140
554.3926, 1275.293
554.8748, 1264.022
555.3569, 1247.139
555.8390, 1228.837
556.3211, 1209.041
556.8032, 1190.350
557.2853, 1171.915
557.7675, 1155.410
558.2496, 1141.075
558.7317, 1129.355
559.2138, 1121.641
559.6959, 1118.378
560.1780, 1117.582
560.6602, 1116.282
561.1423, 1114.040
561.6244, 1113.073
562.1065, 1114.960
562.5886, 1116.626
563.0707, 1115.642
563.5529, 1113.935
564.0350, 1115.922
564.5171, 1124.961
564.9992, 1134.029
565.4813, 1129.450
565.9634, 1112.677
566.4456, 1108.483
566.9277, 1125.904
567.4098, 1151.266
567.8919, 1171.424
568.3740, 1186.828
568.8561, 1200.708
569.3383, 1206.771
569.8204, 1217.732
570.3025, 1247.195
570.7846, 1288.029
571.2667, 1322.627
571.7488, 1343.568
572.2310, 1356.645
572.7131, 1371.246
573.1952, 1386.817
573.6773, 1405.716
574.1594, 1430.844
574.6415, 1456.210
575.1237, 1480.613
575.6058, 1503.123
576.0879, 1522.389
576.5700, 1537.475
577.0521, 1549.749
577.5342, 1562.558
578.0164, 1575.911
578.4985, 1582.950
578.9806, 1581.384
579.4627, 1574.025
579.9448, 1566.229
580.4269, 1557.351
580.9091, 1534.650
581.3912, 1487.149
581.8733, 1432.866
582.3554, 1378.565
582.8375, 1327.422
583.3196, 1285.238
583.8018, 1254.734
584.2839, 1232.703
584.7660, 1214.475
585.2481, 1202.645
585.7302, 1187.340
586.2123, 1166.059
586.6945, 1143.942
587.1766, 1119.707
587.6587, 1096.630
588.1408, 1081.093
588.6229, 1077.155
589.1050, 1078.253
589.5872, 1075.121
590.0693, 1067.914
590.5514, 1060.981
591.0335, 1054.027
591.5156, 1049.734
591.9977, 1054.800
592.4799, 1067.218
592.9620, 1069.884
593.4441, 1051.951
593.9262, 1032.107
594.4083, 1020.704
594.8904, 1015.429
595.3726, 1011.660
595.8547, 1007.708
596.3368, 1004.092
596.8189, 1001.930
597.3010, 1002.050
597.7831, 999.6722
598.2653, 997.1744
598.7474, 989.3085
599.2295, 968.7459
599.7116, 943.3998
600.1937, 924.9561
600.6758, 917.9048
601.1580, 917.4379
601.6401, 921.2805
602.1222, 928.0705
602.6043, 929.9935
603.0864, 924.3840
603.5685, 919.5882
604.0507, 925.0216
604.5328, 938.7413
605.0149, 941.9885
605.4970, 924.2606
605.9791, 908.4966
606.4612, 904.4583
606.9434, 906.0886
607.4255, 904.7513
607.9076, 898.9283
608.3897, 894.3445
608.8718, 897.4689
609.3539, 908.1343
609.8361, 919.0255
610.3182, 933.0828
610.8003, 942.3526
611.2824, 942.9506
611.7645, 938.5303
612.2466, 932.3468
612.7288, 924.8871
613.2109, 916.9860
613.6930, 905.1153
614.1751, 894.5428
614.6572, 897.4420
615.1393, 914.4815
615.6215, 931.8657
616.1036, 941.5509
616.5857, 944.8256
617.0678, 946.4982
617.5499, 943.0042
618.0320, 942.8920
618.5142, 946.3900
618.9963, 953.4975
619.4784, 968.5895
619.9605, 988.0902
620.4426, 1000.145
620.9247, 994.5682
621.4069, 978.8000
621.8890, 972.4373
622.3711, 976.5267
622.8532, 984.1797
623.3353, 996.3441
623.8174, 1008.722
624.2996, 1015.262
624.7817, 1016.557
625.2638, 1022.759
625.7459, 1042.436
626.2280, 1062.922
626.7101, 1073.447
627.1923, 1076.695
627.6744, 1080.691
628.1565, 1088.588
628.6386, 1097.647
629.1207, 1102.844
629.6028, 1102.046
630.0850, 1105.982
630.5671, 1119.343
631.0492, 1132.760
631.5313, 1142.307
632.0134, 1150.300
632.4955, 1161.052
632.9777, 1176.461
633.4598, 1191.620
633.9419, 1199.496
634.4240, 1203.050
634.9061, 1212.857
635.3882, 1230.835
635.8704, 1251.352
636.3525, 1271.465
636.8346, 1290.620
637.3167, 1305.178
637.7988, 1314.031
638.2809, 1320.390
638.7631, 1321.342
639.2452, 1322.308
639.7273, 1327.770
640.2094, 1338.397
640.6915, 1352.697
641.1736, 1368.987
641.6558, 1388.523
642.1379, 1415.736
642.6200, 1451.648
643.1021, 1491.031
643.5842, 1534.614
644.0663, 1579.138
644.5485, 1620.663
645.0306, 1659.272
645.5127, 1698.391
645.9948, 1735.027
646.4769, 1776.020
646.9590, 1825.090
647.4412, 1882.675
647.9233, 1951.241
648.4054, 2031.483
648.8875, 2115.918
649.3696, 2192.167
649.8517, 2255.461
650.3339, 2332.838
650.8160, 2432.729
651.2981, 2536.713
651.7802, 2636.203
652.2623, 2737.503
652.7444, 2850.348
653.2266, 2978.295
653.7087, 3113.591
654.1908, 3253.400
654.6729, 3396.175
655.1550, 3537.049
655.6371, 3675.672
656.1193, 3822.113
656.6014, 3984.095
657.0835, 4158.317
657.5656, 4327.981
658.0477, 4487.443
658.5298, 4650.467
659.0120, 4828.332
659.4941, 5001.072
659.9762, 5157.095
660.4583, 5296.886
660.9404, 5426.883
661.4225, 5555.638
661.9047, 5669.681
662.3868, 5751.850
662.8689, 5802.021
663.3510, 5802.866
663.8331, 5741.323
664.3152, 5651.276
664.7974, 5563.917
665.2795, 5477.884
665.7616, 5373.208
666.2437, 5237.713
666.7258, 5097.235
667.2079, 4956.379
667.6901, 4818.688
668.1722, 4684.971
668.6543, 4557.561
669.1364, 4442.833
669.6185, 4344.663
670.1006, 4264.278
670.5828, 4208.186
671.0649, 4175.587
671.5470, 4170.180
672.0291, 4208.196
672.5112, 4263.273
672.9933, 4296.748
673.4755, 4306.521
673.9576, 4350.066
674.4397, 4458.648
674.9218, 4594.371
675.4039, 4729.896
675.8860, 4868.012
676.3682, 5020.968
676.8503, 5192.678
677.3324, 5377.205
677.8145, 5561.237
678.2966, 5740.387
678.7787, 5957.000
679.2609, 6235.061
679.7430, 6513.710
680.2251, 6764.793
680.7072, 7004.788
681.1893, 7257.499
681.6714, 7530.906
682.1536, 7789.852
682.6357, 8018.027
683.1178, 8216.521
683.5999, 8388.905
684.0820, 8533.479
684.5641, 8637.898
685.0463, 8696.596
685.5284, 8709.182
686.0105, 8675.999
686.4926, 8603.774
686.9747, 8469.415
687.4568, 8247.254
687.9390, 7986.139
688.4211, 7704.474
688.9032, 7397.451
689.3853, 7051.377
689.8674, 6650.852
690.3495, 6241.980
690.8317, 5854.982
691.3138, 5489.494
691.7959, 5143.372
692.2780, 4818.354
692.7601, 4516.205
693.2422, 4242.959
693.7244, 3994.284
694.2065, 3755.221
694.6886, 3527.510
695.1707, 3309.267
695.6528, 3086.495
696.1349, 2884.670
696.6171, 2723.858
697.0992, 2595.979
697.5813, 2482.420
698.0634, 2376.531
698.5455, 2276.553
699.0276, 2181.153
699.5098, 2090.193
699.9919, 2000.351
700.4740, 1910.559
700.9561, 1830.884
701.4382, 1771.945
701.9203, 1730.646
702.4025, 1682.395
702.8846, 1616.102
703.3667, 1557.566
703.8488, 1509.716
704.3309, 1469.418
704.8130, 1433.711
705.2952, 1402.973
705.7773, 1379.822
706.2594, 1369.686
706.7415, 1361.855
707.2236, 1338.757
707.7057, 1303.024
708.1879, 1270.768
708.6700, 1245.623
709.1521, 1224.744
709.6342, 1206.654
710.1163, 1191.045
710.5984, 1172.287
711.0806, 1141.821
711.5627, 1119.627
712.0448, 1115.299
712.5269, 1115.589
713.0090, 1109.571
713.4911, 1096.727
713.9733, 1082.407
714.4554, 1069.639
714.9375, 1057.838
715.4196, 1044.855
715.9017, 1031.353
716.3839, 1023.190
716.8660, 1022.453
717.3481, 1025.230
717.8302, 1029.494
718.3123, 1035.180
718.7944, 1030.544
719.2766, 1003.971
719.7587, 982.9575
720.2408, 975.8735
720.7229, 973.7990
721.2050, 969.1180
721.6871, 961.0970
722.1693, 952.9239
722.6514, 947.3010
723.1335, 941.9760
723.6156, 930.7007
724.0977, 915.0574
724.5798, 907.8576
725.0620, 913.8087
725.5441, 922.3683
726.0262, 922.8220
726.5083, 915.1672
726.9904, 907.8952
727.4725, 900.7083
727.9547, 894.2220
728.4368, 886.6047
728.9189, 881.1124
729.4010, 883.0487
729.8831, 890.8368
730.3652, 895.3124
730.8474, 888.5443
731.3295, 877.9599
731.8116, 874.9610
732.2937, 878.0746
732.7758, 880.1128
733.2579, 879.3132
733.7401, 876.5359
734.2222, 872.2353
734.7043, 866.5441
735.1864, 862.2772
735.6685, 865.0963
736.1506, 861.6693
736.6328, 843.9380
737.1149, 824.5185
737.5970, 812.1716
738.0791, 807.5937
738.5612, 808.6497
739.0433, 817.6376
739.5255, 827.5494
740.0076, 829.6788
740.4897, 826.0772
740.9718, 823.2085
741.4539, 822.5510
741.9360, 821.9891
742.4182, 819.2664
742.9003, 814.9439
743.3824, 813.9481
743.8645, 816.1860
744.3466, 822.0595
744.8287, 838.5635
745.3109, 852.5462
745.7930, 852.7693
746.2751, 842.2806
746.7572, 833.8304
747.2393, 832.4063
747.7214, 834.3384
748.2036, 839.4363
748.6857, 844.9839
749.1678, 844.5532
749.6499, 837.6239
750.1320, 830.5068
750.6141, 828.3547
751.0963, 829.2895
751.5784, 824.4205
752.0605, 807.9086
752.5426, 802.5498
753.0247, 823.8997
753.5068, 843.4501
753.9890, 843.2372
754.4711, 827.7583
754.9532, 808.8912
755.4353, 783.9862
755.9174, 765.3588
756.3995, 762.9150
756.8817, 768.0366
757.3638, 772.6066
757.8459, 774.5698
758.3280, 770.9387
758.8101, 759.0532
759.2922, 745.0471
759.7744, 744.8890
760.2565, 760.9957
760.7386, 765.5605
761.2207, 749.9655
761.7028, 734.5078
762.1849, 733.1738
762.6671, 741.0083
763.1492, 745.0402
763.6313, 743.4163
764.1134, 741.7351
764.5955, 742.1135
765.0776, 742.1522
765.5598, 739.7134
766.0419, 735.4704
766.5240, 730.8461
767.0061, 726.4042
767.4882, 723.2929
767.9703, 725.6846
768.4525, 731.4504
768.9346, 726.6081
769.4167, 708.9219
769.8988, 693.0287
770.3809, 685.2932
770.8630, 684.9685
771.3452, 691.7526
771.8273, 710.7521
772.3094, 721.8845
772.7915, 721.2404
773.2736, 717.4879
773.7557, 711.3440
774.2379, 705.4445
774.7200, 703.2215
775.2021, 705.3625
775.6842, 708.8581
776.1663, 714.1989
776.6484, 718.0371
777.1306, 712.8703
777.6127, 700.5073
778.0948, 690.4598
778.5769, 686.1584
779.0590, 685.1252
779.5411, 683.7430
780.0233, 681.8076
780.5054, 688.6030
780.9875, 715.5657
781.4696, 732.2168
781.9517, 724.5656
782.4338, 709.0780
782.9160, 697.3665
783.3981, 689.9686
783.8802, 684.3584
784.3623, 675.7377
784.8444, 672.7729
785.3265, 689.1128
785.8087, 711.4146
786.2908, 716.4025
786.7729, 702.2298
787.2550, 686.9578
787.7371, 684.6996
788.2192, 691.6844
788.7014, 698.9669
789.1835, 707.2115
789.6656, 708.3046
790.1477, 698.2522
790.6298, 686.3093
791.1119, 678.1327
791.5941, 673.9728
792.0762, 674.4258
792.5583, 684.7277
793.0404, 691.1845
793.5225, 688.8480
794.0046, 684.5779
794.4868, 682.0949
794.9689, 681.8438
795.4510, 684.4050
795.9331, 690.5597
796.4152, 695.3846
796.8973, 691.3494
797.3795, 682.4691
797.8616, 679.1234
798.3437, 681.8860
798.8258, 687.2397
799.3079, 694.1223
799.7900, 700.0459
800.2722, 699.9763
800.7543, 692.1088
801.2364, 686.6398
801.7185, 684.6437
802.2006, 683.6707
802.6827, 681.9155
803.1649, 681.3049
803.6470, 686.4358
804.1291, 697.6587
804.6112, 701.6334
805.0933, 683.6378
805.5754, 666.0792
806.0576, 669.6255
806.5397, 684.2076
807.0218, 691.0386
807.5039, 686.3826
807.9860, 680.0245
808.4681, 680.7849
808.9503, 686.4218
809.4324, 689.4162
809.9145, 689.4957
810.3966, 692.6437
810.8787, 702.4974
811.3608, 709.1288
811.8430, 700.6829
812.3251, 680.5659
812.8072, 674.1116
813.2893, 697.3101
813.7714, 710.6606
814.2535, 702.0515
814.7357, 690.9315
815.2178, 691.1895
815.6999, 699.0311
816.1820, 703.0013
816.6641, 698.0408
817.1462, 692.8356
817.6284, 695.6273
818.1105, 702.1661
818.5926, 705.5400
819.0747, 705.6871
819.5568, 705.5543
820.0389, 706.5296
820.5211, 707.6171
821.0032, 706.9917
821.4852, 704.4829
821.9673, 702.9229
822.4495, 701.6584
822.9316, 703.1254
823.4137, 710.1365
823.8958, 718.7598
824.3779, 724.0380
824.8600, 725.9957
825.3422, 726.8484
825.8243, 725.8790
826.3064, 724.9852
826.7885, 726.0417
827.2706, 726.8234
827.7527, 723.5787
828.2349, 717.1104
828.7170, 713.2745
829.1991, 717.2734
829.6812, 722.7582
830.1633, 718.7239
830.6454, 709.0450
831.1276, 707.4982
831.6097, 715.9717
832.0918, 725.7744
832.5739, 731.1920
833.0560, 733.3560
833.5381, 735.1057
834.0203, 735.9755
834.5024, 737.8358
834.9845, 738.9541
835.4666, 743.6615
835.9487, 760.8488
836.4308, 780.2230
836.9130, 784.7763
837.3951, 770.1988
837.8772, 759.5270
838.3593, 760.3636
838.8414, 764.6534
839.3235, 767.2204
839.8057, 770.1738
840.2878, 777.9911
840.7699, 791.0966
841.2520, 804.5414
841.7341, 815.3586
842.2162, 823.1707
842.6984, 825.4847
843.1805, 823.6426
843.6626, 824.7052
844.1447, 830.3596
844.6268, 837.3389
845.1089, 842.8176
845.5911, 847.4390
846.0732, 853.7947
846.5553, 860.0135
847.0374, 873.4904
847.5195, 903.7407
848.0016, 930.7433
848.4838, 941.7155
848.9659, 941.9448
849.4480, 940.1003
849.9301, 934.2321
850.4122, 934.9102
850.8943, 953.8417
851.3765, 971.7026
851.8586, 973.5970
852.3407, 965.5591
852.8228, 958.0616
853.3049, 954.3173
853.7870, 952.7647
854.2692, 953.6994
854.7513, 955.1088
855.2334, 953.5757
855.7155, 949.1646
856.1976, 942.0479
856.6797, 932.2728
857.1619, 920.2973
857.6440, 906.3038
858.1261, 890.4706
858.6082, 872.3657
859.0903, 848.4282
859.5724, 834.0784
860.0546, 837.3014
860.5367, 842.0254
861.0188, 834.3207
861.5009, 820.8256
861.9830, 819.0037
862.4651, 837.8113
862.9473, 847.1971
863.4294, 833.1559
863.9115, 816.7612
864.3936, 811.4992
864.8757, 812.0827
865.3578, 808.4252
865.8400, 798.1528
866.3221, 788.1869
866.8042, 782.1551
867.2863, 780.3311
867.7684, 786.9606
868.2505, 798.0211
868.7327, 796.2666
869.2148, 778.8463
869.6969, 781.4649
870.1790, 782.0200
870.6611, 780.6229
871.1432, 771.4250
871.6254, 772.2993
872.1075, 769.1376
872.5896, 765.8101
873.0717, 769.7662
873.5538, 760.7867
874.0359, 744.5974
874.5181, 740.3850
875.0002, 755.7801
875.4823, 766.3366
875.9644, 769.0942
876.4465, 770.2097
876.9286, 771.4735
877.4108, 772.9046
877.8929, 774.9218
878.3750, 777.4310
878.8571, 777.9266
879.3392, 772.0015
879.8214, 766.7832
880.3035, 771.4388
880.7856, 779.2073
881.2677, 776.6232
881.7498, 763.8341
882.2319, 754.4793
882.7141, 758.4755
883.1962, 769.0160
883.6783, 774.6835
884.1604, 775.9196
884.6425, 774.3888
885.1246, 769.9796
885.6068, 769.0519
886.0889, 775.8903
886.5710, 785.8451
887.0531, 789.9539
887.5352, 786.9340
888.0173, 785.3006
888.4995, 784.9282
888.9816, 786.1841
889.4637, 791.2104
889.9458, 796.4135
890.4279, 798.5601
890.9100, 797.6793
891.3922, 794.7085
891.8743, 784.2416
892.3564, 778.9064
892.8385, 786.0076
893.3206, 797.1437
893.8027, 807.5234
894.2849, 815.2385
894.7670, 817.0394
895.2491, 810.6820
895.7312, 803.5185
896.2133, 803.3057
896.6954, 805.3209
897.1776, 800.0892
897.6597, 790.1928
898.1418, 787.2257
898.6239, 795.0615
899.1060, 805.4502
899.5881, 809.6213
900.0703, 808.5095
900.5524, 805.0527
901.0345, 798.9206
901.5166, 798.6752
901.9987, 807.7519
902.4808, 817.5752
902.9630, 821.8099
903.4451, 820.8489
903.9272, 815.6931
904.4093, 800.5948
904.8914, 793.3055
905.3735, 799.5438
905.8557, 807.4463
906.3378, 813.5045
906.8199, 817.5202
907.3020, 818.2378
907.7841, 815.0399
908.2662, 814.3265
908.7484, 818.1050
909.2305, 824.1329
909.7126, 833.7404
910.1947, 843.4739
910.6768, 849.0559
911.1589, 850.6348
911.6411, 851.3448
912.1232, 851.9326
912.6053, 854.3362
913.0874, 861.9819
913.5695, 872.0865
914.0516, 878.7026
914.5338, 882.5875
915.0159, 890.3707
915.4980, 905.1828
915.9801, 921.7119
916.4622, 933.1000
916.9443, 939.7325
917.4265, 941.9337
917.9086, 939.2289
918.3907, 944.8515
918.8728, 964.2125
919.3549, 986.6901
919.8370, 1001.024
920.3192, 1009.617
920.8013, 1029.664
921.2834, 1072.080
921.7655, 1099.365
922.2476, 1097.820
922.7297, 1094.057
923.2119, 1098.878
923.6940, 1112.519
924.1761, 1138.493
924.6582, 1181.950
925.1403, 1215.260
925.6224, 1227.636
926.1046, 1237.373
926.5867, 1250.342
927.0688, 1265.855
927.5509, 1283.733
928.0330, 1303.268
928.5151, 1321.886
928.9973, 1338.588
929.4794, 1353.778
929.9615, 1367.660
930.4436, 1380.351
930.9257, 1392.736
931.4078, 1404.180
931.8900, 1412.245
932.3721, 1415.903
932.8542, 1418.035
933.3363, 1423.149
933.8184, 1428.878
934.3005, 1427.096
934.7827, 1419.287
935.2648, 1416.341
935.7469, 1421.259
936.2290, 1426.556
936.7111, 1426.024
937.1932, 1419.810
937.6754, 1405.907
938.1575, 1382.286
938.6396, 1370.054
939.1217, 1375.135
939.6038, 1380.215
940.0859, 1377.322
940.5681, 1367.218
941.0502, 1349.251
941.5323, 1319.241
942.0144, 1303.433
942.4965, 1319.057
942.9786, 1324.262
943.4608, 1300.726
943.9429, 1271.318
944.4250, 1255.023
944.9071, 1249.356
945.3892, 1240.685
945.8713, 1224.911
946.3535, 1209.507
946.8356, 1199.421
947.3177, 1187.311
947.7998, 1162.091
948.2819, 1133.622
948.7640, 1120.874
949.2462, 1127.826
949.7283, 1134.337
950.2104, 1128.498
950.6925, 1117.193
951.1746, 1105.980
951.6567, 1093.751
952.1389, 1077.621
952.6210, 1058.014
953.1031, 1038.306
953.5852, 1019.818
954.0673, 1005.445
954.5494, 1000.946
955.0316, 1003.138
955.5137, 1004.183
955.9958, 1003.638
956.4779, 1002.843
956.9600, 1002.300
957.4421, 999.9708
957.9243, 993.1993
958.4064, 982.9749
958.8885, 973.6928
959.3706, 965.4069
959.8527, 958.1141
960.3348, 952.4385
960.8170, 943.9438
961.2991, 927.6821
961.7812, 909.9191
962.2633, 906.7905
962.7454, 923.5237
963.2275, 930.9031
963.7097, 924.8721
964.1918, 916.9402
964.6739, 906.7531
965.1560, 900.0335
965.6381, 905.1923
966.1202, 921.0116
966.6024, 931.2807
967.0845, 933.7215
967.5666, 933.9987
968.0487, 931.7369
968.5308, 928.3471
969.0129, 923.3486
969.4951, 918.2647
969.9772, 915.7089
970.4593, 916.2871
970.9414, 916.5474
971.4235, 910.6200
971.9056, 909.6423
972.3878, 925.3134
972.8699, 944.9257
973.3520, 953.8914
973.8341, 953.0369
974.3162, 951.9387
974.7983, 954.0682
975.2805, 959.0697
975.7626, 967.6960
976.2447, 978.2706
976.7268, 990.8333
977.2089, 1003.257
977.6910, 1009.637
978.1732, 1009.260
978.6553, 1009.758
979.1374, 1016.506
979.6195, 1028.878
980.1016, 1050.098
980.5837, 1075.553
981.0659, 1090.523
981.5480, 1094.527
982.0301, 1097.120
982.5122, 1103.053
982.9943, 1112.575
983.4764, 1125.816
983.9586, 1142.908
984.4407, 1165.537
984.9228, 1193.783
985.4049, 1221.492
985.8870, 1246.793
986.3691, 1274.891
986.8513, 1310.919
987.3334, 1351.752
987.8155, 1387.293
988.2976, 1415.631
988.7797, 1451.632
989.2618, 1496.803
989.7440, 1548.001
990.2261, 1606.459
990.7082, 1666.383
991.1903, 1719.705
991.6724, 1766.759
992.1545, 1821.906
992.6367, 1882.197
993.1188, 1956.570
993.6009, 2052.247
994.0830, 2154.870
994.5651, 2257.380
995.0472, 2360.305
995.5294, 2462.424
996.0115, 2558.796
996.4936, 2674.889
996.9757, 2823.599
997.4578, 2976.247
997.9399, 3119.799
998.4221, 3268.445
998.9042, 3434.945
999.3863, 3617.406
999.8684, 3808.864
1000.351, 4005.190
1000.833, 4217.473
1001.315, 4451.042
1001.797, 4701.337
1002.279, 4973.038
1002.761, 5257.375
1003.243, 5546.024
1003.725, 5838.254
1004.207, 6125.805
1004.690, 6401.226
1005.172, 6677.282
1005.654, 6955.542
1006.136, 7242.708
1006.618, 7557.963
1007.100, 7883.311
1007.582, 8179.396
1008.064, 8433.836
1008.547, 8669.533
1009.029, 8920.918
1009.511, 9141.709
1009.993, 9282.901
1010.475, 9359.872
1010.957, 9405.197
1011.439, 9416.324
1011.921, 9365.550
1012.403, 9239.447
1012.886, 9046.070
1013.368, 8775.035
1013.850, 8453.394
1014.332, 8118.261
1014.814, 7774.836
1015.296, 7425.971
1015.778, 7075.722
1016.260, 6738.200
1016.742, 6423.632
1017.225, 6134.950
1017.707, 5884.024
1018.189, 5663.456
1018.671, 5441.820
1019.153, 5220.203
1019.635, 5013.468
1020.117, 4826.958
1020.599, 4668.510
1021.082, 4546.134
1021.564, 4454.823
1022.046, 4382.473
1022.528, 4328.102
1023.010, 4271.797
1023.492, 4210.865
1023.974, 4163.931
1024.456, 4141.927
1024.938, 4129.337
1025.421, 4100.786
1025.903, 4058.903
1026.385, 4036.573
1026.867, 4035.067
1027.349, 4044.063
1027.831, 4065.045
1028.313, 4079.861
1028.795, 4075.317
1029.278, 4058.344
1029.760, 4044.579
1030.242, 4034.921
1030.724, 4020.623
1031.206, 4002.319
1031.688, 3977.509
1032.170, 3946.219
1032.652, 3906.662
1033.135, 3856.068
1033.617, 3797.098
1034.099, 3740.735
1034.581, 3695.084
1035.063, 3627.670
1035.545, 3527.842
1036.027, 3427.589
1036.509, 3337.890
1036.991, 3253.535
1037.474, 3169.824
1037.956, 3086.480
1038.438, 2998.835
1038.920, 2902.548
1039.402, 2810.307
1039.884, 2722.731
1040.366, 2639.112
1040.848, 2556.326
1041.330, 2479.258
1041.813, 2418.182
1042.295, 2374.497
1042.777, 2316.684
1043.259, 2234.094
1043.741, 2153.613
1044.223, 2073.901
1044.705, 2000.562
1045.187, 1941.314
1045.670, 1888.868
1046.152, 1829.007
1046.634, 1759.071
1047.116, 1698.891
1047.598, 1652.576
1048.080, 1612.944
1048.562, 1587.645
1049.044, 1559.793
1049.526, 1513.935
1050.009, 1457.168
1050.491, 1404.318
1050.973, 1354.859
1051.455, 1318.605
1051.937, 1309.127
1052.419, 1297.308
1052.901, 1268.156
1053.383, 1236.092
1053.865, 1216.796
1054.348, 1205.587
1054.830, 1184.073
1055.312, 1142.215
1055.794, 1111.967
1056.276, 1114.541
1056.758, 1114.514
1057.240, 1089.531
1057.722, 1057.691
1058.205, 1038.577
1058.687, 1031.313
1059.169, 1023.999
1059.651, 1012.518
1060.133, 1003.752
1060.615, 1009.120
1061.097, 1007.620
1061.579, 977.8318
1062.062, 939.8008
1062.544, 918.4885
1063.026, 914.9224
1063.508, 914.7856
1063.990, 917.9664
1064.472, 915.8902
1064.954, 899.8182
1065.436, 883.0711
1065.918, 875.3892
1066.401, 872.6105
1066.883, 868.3630
1067.365, 861.7288
1067.847, 854.6502
1068.329, 846.2776
1068.811, 839.9437
1069.293, 839.5573
1069.775, 839.4161
1070.257, 837.2709
1070.740, 831.2698
1071.222, 815.9424
1071.704, 791.6980
1072.186, 774.4778
1072.668, 777.4431
1073.150, 780.2426
1073.632, 770.2343
1074.114, 758.8497
1074.596, 757.4054
1075.079, 761.3485
1075.561, 760.4421
1076.043, 752.7930
1076.525, 746.9193
1077.007, 748.6355
1077.489, 750.3575
1077.971, 744.2161
1078.453, 739.9395
1078.936, 752.3453
1079.418, 771.6411
1079.900, 776.0381
1080.382, 760.5847
1080.864, 744.2714
1081.346, 733.6448
1081.828, 726.7755
1082.310, 724.2084
1082.792, 723.6632
1083.275, 724.7761
1083.757, 725.7427
1084.239, 722.9224
1084.721, 715.3347
1085.203, 707.5397
1085.685, 697.1517
1086.167, 692.4077
1086.649, 704.9465
1087.131, 719.1120
1087.614, 718.1137
1088.096, 706.7579
1088.578, 699.9528
1089.060, 701.7611
1089.542, 701.1014
1090.024, 686.5259
1090.506, 676.8558
1090.988, 686.1047
1091.471, 701.1605
1091.953, 711.2910
1092.435, 716.1736
1092.917, 717.8701
1093.399, 716.7477
1093.881, 713.6627
1094.363, 707.1966
1094.845, 700.9712
1095.328, 694.4707
1095.810, 690.9009
1096.292, 696.5573
1096.774, 706.8882
1097.256, 710.0087
1097.738, 702.2993
1098.220, 695.6665
1098.702, 696.7268
1099.184, 696.0951
1099.667, 687.2003
1100.149, 677.0374
1100.631, 670.6078
1101.113, 668.3552
1101.595, 670.9299
1102.077, 679.6286
1102.559, 686.0951
1103.041, 686.8502
1103.523, 686.8720
1104.006, 688.3663
1104.488, 689.5621
1104.970, 690.7241
1105.452, 689.9901
1105.934, 681.6895
1106.416, 662.3341
1106.898, 649.9363
1107.380, 653.7719
1107.863, 656.7355
1108.345, 651.1747
1108.827, 645.1557
1109.309, 645.2645
1109.791, 649.6709
1110.273, 653.3261
1110.755, 655.2598
1111.237, 659.3251
1111.719, 671.6415
1112.202, 678.1525
1112.684, 668.1951
1113.166, 658.6882
1113.648, 666.1959
1114.130, 681.5051
1114.612, 681.6930
1115.094, 661.0016
1115.576, 650.6907
1116.058, 657.6409
1116.541, 664.5151
1117.023, 670.3860
1117.505, 673.1263
1117.987, 669.9508
1118.469, 663.4896
1118.951, 658.6277
1119.433, 655.2466
1119.915, 654.5256
1120.398, 658.3578
1120.880, 660.9728
1121.362, 661.8178
1121.844, 660.3290
1122.326, 654.2094
1122.808, 647.6077
1123.290, 648.5539
1123.772, 657.5434
1124.255, 663.5608
1124.737, 666.4157
1125.219, 666.1395
1125.701, 660.4915
1126.183, 658.5640
1126.665, 667.7345
1127.147, 678.5074
1127.629, 674.7379
1128.111, 657.6856
1128.594, 652.3602
1129.076, 661.4404
1129.558, 663.7830
1130.040, 655.2287
1130.522, 647.8201
1131.004, 647.5995
1131.486, 651.1783
1131.968, 654.8052
1132.450, 657.8799
1132.933, 654.6358
1133.415, 645.1771
1133.897, 648.5975
1134.379, 667.2950
1134.861, 677.5921
1135.343, 668.9229
1135.825, 653.7310
1136.307, 645.0618
1136.790, 641.3717
1137.272, 637.2289
1137.754, 633.7661
1138.236, 640.2853
1138.718, 655.6494
1139.200, 663.6663
1139.682, 658.9755
1140.164, 653.0520
1140.646, 656.9147
1141.129, 664.0243
1141.611, 660.0231
1142.093, 650.7451
1142.575, 654.5891
1143.057, 667.5797
1143.539, 669.9841
1144.021, 657.8545
1144.503, 645.5071
1144.985, 643.1865
1145.468, 644.5308
1145.950, 641.7850
1146.432, 637.9758
1146.914, 640.2204
1147.396, 644.2662
1147.878, 637.5989
1148.360, 621.1321
1148.842, 611.4392
1149.325, 618.2038
1149.807, 628.6368
1150.289, 636.4490
1150.771, 639.5913
1151.253, 630.9214
1151.735, 619.5099
1152.217, 619.9916
1152.699, 630.3948
1153.182, 637.4271
1153.664, 636.5870
1154.146, 632.4684
1154.628, 624.1754
1155.110, 616.9001
1155.592, 613.4922
1156.074, 612.5938
1156.556, 613.1033
1157.038, 614.8660
1157.521, 619.0740
1158.003, 627.1515
1158.485, 628.9558
1158.967, 612.2704
1159.449, 602.9355
1159.931, 614.3006
1160.413, 629.3417
1160.895, 640.6559
1161.377, 646.1635
1161.860, 639.3913
1162.342, 618.1456
1162.824, 610.5026
1163.306, 626.9553
1163.788, 638.0327
1164.270, 639.3594
1164.752, 637.3834
1165.234, 634.6051
1165.717, 630.6234
1166.199, 624.1869
1166.681, 615.9335
1167.163, 611.7838
1167.645, 612.2338
1168.127, 615.1196
1168.609, 621.2598
1169.091, 624.2563
1169.573, 619.8444
1170.056, 620.8564
1170.538, 642.9686
1171.020, 674.1030
1171.502, 675.2499
1171.984, 648.5043
1172.466, 627.9002
1172.948, 614.8334
1173.430, 610.1922
1173.912, 613.9525
1174.395, 618.8199
1174.877, 619.4547
1175.359, 619.8192
1175.841, 628.6402
1176.323, 641.1479
1176.805, 643.7170
1177.287, 639.1627
1177.769, 637.5585
1178.252, 639.3617
1178.734, 636.6033
1179.216, 625.3727
1179.698, 614.7321
1180.180, 614.4706
1180.662, 617.9461
1181.144, 618.1234
1181.626, 616.8408
1182.109, 616.9908
1182.591, 618.0656
1183.073, 618.4913
1183.555, 617.7165
1184.037, 614.4847
1184.519, 604.1164
1185.001, 596.4897
1185.483, 599.1315
1185.965, 603.9315
1186.448, 602.9799
1186.930, 601.0103
1187.412, 607.8170
1187.894, 622.6026
1188.376, 630.3990
1188.858, 623.3635
1189.340, 618.6057
1189.822, 621.6924
1190.304, 623.2329
1190.787, 615.9501
1191.269, 609.0530
1191.751, 612.3157
1192.233, 621.9575
1192.715, 625.3507
1193.197, 620.5328
1193.679, 618.7086
1194.161, 622.1116
1194.644, 621.0140
1195.126, 611.1924
1195.608, 604.0058
1196.090, 607.9595
1196.572, 614.7880
1197.054, 609.0286
1197.536, 593.5150
1198.018, 592.5889
1198.500, 605.4125
1198.983, 611.6560
1199.465, 609.0519
1199.947, 605.1365
1200.429, 603.0219
1200.911, 602.9227
1201.393, 605.0525
1201.875, 609.2731
1202.357, 619.7206
1202.839, 630.0642
1203.322, 622.1063
1203.804, 602.0440
1204.286, 589.5136
1204.768, 588.4139
1205.250, 591.1423
1205.732, 594.3046
1206.214, 596.6221
1206.696, 595.9356
1207.179, 595.1679
1207.661, 597.4545
1208.143, 600.8240
1208.625, 602.7919
1209.107, 603.4361
1209.589, 602.3556
1210.071, 598.2103
1210.553, 603.0475
1211.036, 636.9736
1211.518, 657.0102
1212.000, 638.5807
1212.482, 614.5343
1212.964, 602.1684
1213.446, 599.7578
1213.928, 606.9926
1214.410, 622.9775
1214.892, 625.9225
1215.375, 608.0674
1215.857, 598.6044
1216.339, 601.7174
1216.821, 605.3043
1217.303, 605.4429
1217.785, 603.9565
1218.267, 602.3903
1218.749, 600.5632
1219.231, 596.9362
1219.714, 591.9859
1220.196, 595.4559
1220.678, 605.9927
1221.160, 605.9480
1221.642, 593.0868
1222.124, 581.5242
1222.606, 578.7012
1223.088, 582.2714
1223.571, 593.1296
1224.053, 605.2580
1224.535, 607.3402
1225.017, 604.9401
1225.499, 609.2288
1225.981, 617.2673
1226.463, 618.5427
1226.945, 611.1636
1227.427, 602.9349
1227.910, 597.1765
1228.392, 592.8491
1228.874, 587.6200
1229.356, 585.6960
1229.838, 594.1014
1230.320, 604.1397
1230.802, 605.0419
1231.284, 598.6207
1231.766, 593.2936
1232.249, 588.4405
1232.731, 590.3571
1233.213, 608.5259
1233.695, 616.4084
1234.177, 604.2604
1234.659, 590.4294
1235.141, 583.6115
1235.623, 583.1271
1236.106, 589.1277
1236.588, 600.2216
1237.070, 607.6202
1237.552, 611.3570
1238.034, 610.1517
1238.516, 603.9847
1238.998, 595.5529
1239.480, 585.8856
1239.963, 581.5645
1240.445, 588.2399
1240.927, 599.1701
1241.409, 606.3107
1241.891, 609.4834
1242.373, 606.4091
1242.855, 599.8983
1243.337, 593.8154
1243.819, 590.0524
1244.302, 593.3047
1244.784, 605.0506
1245.266, 612.9726
1245.748, 609.3933
1246.230, 600.9473
1246.712, 584.9560
1247.194, 571.7259
1247.676, 569.8987
1248.158, 575.0713
1248.641, 582.6209
1249.123, 591.4459
1249.605, 596.3702
1250.087, 593.9677
1250.569, 595.7729
1251.051, 605.4525
1251.533, 611.2137
1252.015, 609.2061
1252.498, 604.9429
1252.980, 601.4752
1253.462, 599.2236
1253.944, 599.0345
1254.426, 600.6540
1254.908, 603.7324
1255.390, 607.5992
1255.872, 604.3810
1256.354, 594.5099
1256.837, 586.6359
1257.319, 583.8647
1257.801, 587.5479
1258.283, 601.4184
1258.765, 612.1924
1259.247, 596.1116
1259.729, 576.0224
1260.211, 585.5162
1260.693, 606.2729
1261.176, 606.2216
1261.658, 590.1627
1262.140, 585.0715
1262.622, 598.6200
1263.104, 611.6430
1263.586, 621.2599
1264.068, 625.0134
1264.550, 617.3528
1265.033, 609.3422
1265.515, 606.8975
1265.997, 606.9507
1266.479, 606.0892
1266.961, 604.8406
1267.443, 605.7388
1267.925, 609.2263
1268.407, 612.8843
1268.890, 617.1100
1269.372, 616.2389
1269.854, 608.7860
1270.336, 602.7429
1270.818, 602.6294
1271.300, 605.8771
1271.782, 611.5751
1272.264, 615.7806
1272.746, 605.9423
1273.229, 591.4105
1273.711, 592.7507
1274.193, 604.8986
1274.675, 611.5452
1275.157, 610.1256
1275.639, 609.6419
1276.121, 614.6163
1276.603, 618.7849
1277.085, 617.5965
##END=



