##NAMES=Eosphorite
##RRUFFID=R050570
##IDEAL CHEMISTRY=Mn^2+^AlPO_4_(OH)_2_&#183;H_2_O
##LOCALITY=Lavra da Ilha, Minas Gerais, Brazil
##OWNER=RRUFF
##SOURCE=University of Arizona Mineral Museum
##DESCRIPTION=Pale brown prismatic crystals with wedge-shaped terminations
##STATUS=The identification of this mineral has been confirmed by X-ray diffraction and chemical analysis
##URL=rruff.info/R050570
##MEASURED CHEMISTRY=(Mn_0.42_Fe^2+^_0.40_Ca_0.13_Mg_0.05_)Al(PO_4_)((OH)_0.96_F_0.04_)_2_Î‡H_2_O
92.06543, 4466.379
92.54755, 4525.843
93.02966, 4561.832
93.51178, 4499.763
93.99390, 4403.052
94.47601, 4289.279
94.95813, 4168.775
95.44025, 4047.974
95.92236, 3932.735
96.40448, 3822.719
96.88660, 3706.370
97.36871, 3575.055
97.85082, 3448.098
98.33294, 3341.290
98.81506, 3254.394
99.29717, 3167.093
99.77929, 3069.649
100.2614, 2964.019
100.7435, 2862.611
101.2256, 2762.691
101.7078, 2667.852
102.1899, 2589.409
102.6720, 2533.732
103.1541, 2489.236
103.6362, 2441.462
104.1183, 2390.420
104.6005, 2344.586
105.0826, 2313.491
105.5647, 2298.828
106.0468, 2282.965
106.5289, 2268.733
107.0110, 2247.469
107.4931, 2211.060
107.9753, 2157.247
108.4574, 2093.798
108.9395, 2035.143
109.4216, 1980.174
109.9037, 1932.797
110.3858, 1894.485
110.8680, 1862.305
111.3501, 1833.719
111.8322, 1807.278
112.3143, 1783.140
112.7964, 1762.097
113.2785, 1745.077
113.7607, 1729.707
114.2428, 1715.358
114.7249, 1702.197
115.2070, 1690.561
115.6891, 1680.753
116.1712, 1672.959
116.6534, 1667.055
117.1355, 1664.565
117.6176, 1662.760
118.0997, 1658.958
118.5818, 1652.780
119.0639, 1647.302
119.5461, 1646.502
120.0282, 1648.971
120.5103, 1650.716
120.9924, 1649.349
121.4745, 1646.473
121.9566, 1646.084
122.4388, 1649.850
122.9209, 1654.189
123.4030, 1656.919
123.8851, 1658.183
124.3672, 1658.488
124.8493, 1658.166
125.3315, 1657.221
125.8136, 1655.502
126.2957, 1651.307
126.7778, 1647.561
127.2599, 1646.256
127.7420, 1647.225
128.2242, 1648.225
128.7063, 1645.740
129.1884, 1636.254
129.6705, 1630.639
130.1526, 1631.680
130.6347, 1634.240
131.1169, 1634.202
131.5990, 1630.278
132.0811, 1624.450
132.5632, 1621.102
133.0453, 1624.321
133.5274, 1625.081
134.0096, 1621.316
134.4917, 1615.149
134.9738, 1609.633
135.4559, 1606.258
135.9380, 1604.279
136.4201, 1601.107
136.9023, 1595.420
137.3844, 1590.525
137.8665, 1588.874
138.3486, 1589.692
138.8307, 1589.312
139.3128, 1585.244
139.7950, 1578.694
140.2771, 1572.843
140.7592, 1567.788
141.2413, 1563.523
141.7234, 1560.573
142.2055, 1559.371
142.6877, 1557.277
143.1698, 1550.992
143.6519, 1543.443
144.1340, 1538.146
144.6161, 1537.127
145.0982, 1538.825
145.5803, 1539.074
146.0625, 1536.746
146.5446, 1534.698
147.0267, 1534.462
147.5088, 1535.072
147.9909, 1534.927
148.4730, 1532.671
148.9552, 1528.483
149.4373, 1526.057
149.9194, 1527.051
150.4015, 1528.430
150.8836, 1529.856
151.3657, 1531.091
151.8479, 1531.910
152.3300, 1532.118
152.8121, 1531.707
153.2942, 1530.603
153.7763, 1527.438
154.2584, 1524.858
154.7406, 1524.658
155.2227, 1526.698
155.7048, 1529.117
156.1869, 1529.682
156.6690, 1527.343
157.1511, 1527.321
157.6333, 1531.651
158.1154, 1537.103
158.5975, 1540.519
159.0796, 1541.189
159.5617, 1541.202
160.0438, 1543.742
160.5260, 1549.017
161.0081, 1552.989
161.4902, 1553.074
161.9723, 1551.494
162.4544, 1552.738
162.9365, 1558.775
163.4187, 1565.942
163.9008, 1569.815
164.3829, 1570.571
164.8650, 1571.059
165.3471, 1573.145
165.8292, 1576.515
166.3113, 1578.826
166.7935, 1577.751
167.2756, 1577.346
167.7577, 1580.906
168.2398, 1588.481
168.7219, 1597.368
169.2040, 1605.344
169.6862, 1612.410
170.1683, 1618.416
170.6504, 1622.841
171.1325, 1626.438
171.6146, 1629.329
172.0967, 1631.596
172.5789, 1633.638
173.0610, 1636.073
173.5431, 1639.202
174.0252, 1642.021
174.5073, 1643.641
174.9894, 1645.486
175.4716, 1649.335
175.9537, 1655.534
176.4358, 1662.178
176.9179, 1665.308
177.4000, 1661.898
177.8821, 1658.787
178.3643, 1655.649
178.8464, 1653.112
179.3285, 1652.029
179.8106, 1652.743
180.2927, 1654.623
180.7748, 1655.948
181.2570, 1656.186
181.7391, 1656.549
182.2212, 1657.222
182.7033, 1658.090
183.1854, 1658.891
183.6675, 1659.439
184.1497, 1659.989
184.6318, 1661.444
185.1139, 1664.118
185.5960, 1666.929
186.0781, 1670.007
186.5602, 1673.009
187.0423, 1674.723
187.5245, 1673.966
188.0066, 1672.089
188.4887, 1672.339
188.9708, 1675.579
189.4529, 1679.297
189.9350, 1681.922
190.4172, 1683.526
190.8993, 1685.111
191.3814, 1687.344
191.8635, 1689.640
192.3456, 1691.218
192.8277, 1691.888
193.3099, 1692.033
193.7920, 1691.389
194.2741, 1689.621
194.7562, 1689.614
195.2383, 1695.062
195.7204, 1701.821
196.2026, 1706.231
196.6847, 1707.004
197.1668, 1706.268
197.6489, 1707.401
198.1310, 1711.232
198.6131, 1714.597
199.0953, 1716.771
199.5774, 1718.069
200.0595, 1718.324
200.5416, 1717.347
201.0237, 1716.119
201.5058, 1716.808
201.9880, 1719.934
202.4701, 1724.296
202.9522, 1730.688
203.4343, 1737.521
203.9164, 1743.249
204.3985, 1747.165
204.8807, 1749.590
205.3628, 1751.368
205.8449, 1751.147
206.3270, 1752.080
206.8091, 1756.092
207.2912, 1760.839
207.7733, 1763.471
208.2555, 1762.512
208.7376, 1758.997
209.2197, 1756.764
209.7018, 1757.457
210.1839, 1757.655
210.6660, 1756.958
211.1482, 1755.579
211.6303, 1753.620
212.1124, 1751.046
212.5945, 1748.256
213.0766, 1746.911
213.5587, 1749.391
214.0409, 1750.428
214.5230, 1748.144
215.0051, 1743.778
215.4872, 1739.343
215.9693, 1735.717
216.4514, 1732.941
216.9336, 1731.348
217.4157, 1732.144
217.8978, 1732.291
218.3799, 1730.406
218.8620, 1727.081
219.3441, 1723.753
219.8263, 1721.112
220.3084, 1718.918
220.7905, 1716.410
221.2726, 1713.004
221.7547, 1710.250
222.2368, 1709.568
222.7190, 1710.403
223.2011, 1710.325
223.6832, 1707.670
224.1653, 1704.062
224.6474, 1702.808
225.1295, 1704.969
225.6117, 1706.912
226.0938, 1706.085
226.5759, 1702.733
227.0580, 1698.901
227.5401, 1695.187
228.0222, 1691.419
228.5043, 1687.666
228.9865, 1684.214
229.4686, 1679.702
229.9507, 1672.496
230.4328, 1662.637
230.9149, 1653.018
231.3970, 1644.320
231.8792, 1636.476
232.3613, 1629.287
232.8434, 1622.746
233.3255, 1617.089
233.8076, 1613.317
234.2897, 1611.745
234.7719, 1608.377
235.2540, 1600.532
235.7361, 1591.682
236.2182, 1583.641
236.7003, 1576.698
237.1824, 1570.744
237.6646, 1565.720
238.1467, 1561.668
238.6288, 1558.141
239.1109, 1554.729
239.5930, 1552.085
240.0751, 1551.667
240.5573, 1553.180
241.0394, 1553.782
241.5215, 1548.864
242.0036, 1535.817
242.4857, 1527.882
242.9678, 1530.810
243.4500, 1534.929
243.9321, 1535.758
244.4142, 1532.781
244.8963, 1527.972
245.3784, 1523.174
245.8605, 1517.966
246.3427, 1514.452
246.8248, 1514.321
247.3069, 1514.374
247.7890, 1513.212
248.2711, 1510.703
248.7532, 1507.429
249.2354, 1503.898
249.7175, 1500.037
250.1996, 1496.306
250.6817, 1492.745
251.1638, 1489.281
251.6459, 1485.716
252.1281, 1482.154
252.6102, 1479.002
253.0923, 1476.693
253.5744, 1475.406
254.0565, 1473.879
254.5386, 1472.651
255.0208, 1470.737
255.5029, 1467.182
255.9850, 1462.370
256.4671, 1457.529
256.9492, 1453.607
257.4313, 1450.586
257.9135, 1448.910
258.3956, 1449.977
258.8777, 1450.726
259.3598, 1449.872
259.8419, 1447.560
260.3240, 1444.471
260.8062, 1440.971
261.2883, 1437.071
261.7704, 1434.229
262.2525, 1433.750
262.7346, 1432.759
263.2167, 1429.760
263.6989, 1425.257
264.1810, 1420.677
264.6631, 1416.837
265.1452, 1413.737
265.6273, 1411.358
266.1094, 1409.979
266.5916, 1408.865
267.0737, 1407.482
267.5558, 1406.152
268.0379, 1405.827
268.5200, 1407.263
269.0021, 1409.836
269.4843, 1410.870
269.9664, 1408.809
270.4485, 1407.425
270.9306, 1408.780
271.4127, 1411.653
271.8948, 1413.300
272.3770, 1412.301
272.8591, 1409.753
273.3412, 1408.327
273.8233, 1407.336
274.3054, 1408.293
274.7875, 1413.140
275.2697, 1420.085
275.7518, 1425.549
276.2339, 1428.035
276.7160, 1429.209
277.1981, 1432.403
277.6802, 1438.013
278.1623, 1443.132
278.6444, 1446.645
279.1266, 1449.239
279.6087, 1451.972
280.0908, 1455.081
280.5729, 1458.521
281.0550, 1462.228
281.5371, 1466.151
282.0193, 1470.660
282.5014, 1475.792
282.9835, 1481.590
283.4656, 1488.281
283.9477, 1495.989
284.4298, 1504.071
284.9120, 1511.971
285.3941, 1519.694
285.8762, 1526.833
286.3583, 1532.861
286.8404, 1538.456
287.3225, 1544.519
287.8047, 1551.192
288.2868, 1557.799
288.7689, 1563.898
289.2510, 1569.485
289.7331, 1574.696
290.2152, 1579.214
290.6974, 1583.525
291.1795, 1587.692
291.6616, 1591.678
292.1437, 1596.888
292.6258, 1605.247
293.1079, 1615.327
293.5901, 1623.747
294.0722, 1629.564
294.5543, 1634.327
295.0364, 1639.021
295.5185, 1643.682
296.0006, 1648.667
296.4828, 1654.323
296.9649, 1660.316
297.4470, 1665.952
297.9291, 1670.962
298.4112, 1676.177
298.8933, 1682.716
299.3755, 1690.214
299.8576, 1696.585
300.3397, 1700.935
300.8218, 1703.958
301.3039, 1706.849
301.7860, 1709.671
302.2682, 1711.894
302.7503, 1712.335
303.2324, 1711.790
303.7145, 1713.377
304.1966, 1718.783
304.6787, 1724.795
305.1609, 1728.173
305.6430, 1729.187
306.1251, 1729.171
306.6072, 1728.552
307.0893, 1727.335
307.5714, 1725.639
308.0536, 1723.651
308.5357, 1720.697
309.0178, 1715.174
309.4999, 1708.077
309.9820, 1702.160
310.4641, 1699.374
310.9463, 1697.872
311.4284, 1695.252
311.9105, 1691.534
312.3926, 1686.348
312.8747, 1678.676
313.3568, 1669.463
313.8390, 1660.293
314.3211, 1651.149
314.8032, 1642.488
315.2853, 1635.138
315.7674, 1629.148
316.2495, 1622.539
316.7317, 1613.849
317.2138, 1604.252
317.6959, 1595.658
318.1780, 1588.469
318.6601, 1581.561
319.1422, 1574.256
319.6243, 1566.531
320.1064, 1558.236
320.5886, 1548.429
321.0707, 1539.105
321.5528, 1533.193
322.0349, 1530.972
322.5170, 1527.791
322.9991, 1519.917
323.4813, 1509.122
323.9634, 1500.529
324.4455, 1495.658
324.9276, 1491.961
325.4097, 1487.465
325.8918, 1482.202
326.3740, 1475.849
326.8561, 1466.236
327.3382, 1456.144
327.8203, 1450.631
328.3024, 1450.807
328.7845, 1451.726
329.2667, 1449.203
329.7488, 1444.584
330.2309, 1441.182
330.7130, 1440.337
331.1951, 1440.459
331.6772, 1440.358
332.1594, 1440.019
332.6415, 1438.718
333.1236, 1435.429
333.6057, 1431.169
334.0878, 1428.133
334.5699, 1426.756
335.0521, 1425.938
335.5342, 1425.048
336.0163, 1424.142
336.4984, 1423.432
336.9805, 1423.005
337.4626, 1422.807
337.9448, 1423.227
338.4269, 1424.686
338.9090, 1424.342
339.3911, 1418.980
339.8732, 1411.424
340.3553, 1407.700
340.8375, 1409.671
341.3196, 1412.771
341.8017, 1411.296
342.2838, 1405.761
342.7659, 1401.703
343.2480, 1400.548
343.7302, 1401.151
344.2123, 1403.039
344.6944, 1406.114
345.1765, 1408.361
345.6586, 1408.037
346.1407, 1405.435
346.6229, 1403.356
347.1050, 1401.755
347.5871, 1400.745
348.0692, 1401.238
348.5513, 1402.627
349.0334, 1402.303
349.5156, 1398.375
349.9977, 1392.599
350.4798, 1389.958
350.9619, 1391.679
351.4440, 1393.381
351.9261, 1394.494
352.4083, 1394.527
352.8904, 1391.699
353.3725, 1385.088
353.8546, 1378.406
354.3367, 1377.829
354.8188, 1385.533
355.3010, 1389.947
355.7831, 1386.988
356.2652, 1382.214
356.7473, 1381.361
357.2294, 1384.768
357.7115, 1387.638
358.1937, 1385.389
358.6758, 1377.725
359.1579, 1372.551
359.6400, 1371.342
360.1221, 1370.895
360.6042, 1369.377
361.0863, 1367.316
361.5685, 1366.639
362.0506, 1368.713
362.5327, 1372.474
363.0148, 1373.466
363.4969, 1369.402
363.9790, 1365.658
364.4612, 1363.200
364.9433, 1361.377
365.4254, 1359.355
365.9075, 1356.869
366.3896, 1354.393
366.8717, 1352.752
367.3539, 1352.665
367.8360, 1351.772
368.3181, 1348.803
368.8002, 1346.060
369.2823, 1345.945
369.7644, 1348.004
370.2466, 1349.194
370.7287, 1346.428
371.2108, 1339.338
371.6929, 1334.696
372.1750, 1333.843
372.6571, 1333.781
373.1393, 1334.150
373.6214, 1334.617
374.1035, 1334.781
374.5856, 1334.412
375.0677, 1333.635
375.5498, 1332.900
376.0320, 1332.925
376.5141, 1331.813
376.9962, 1328.602
377.4783, 1324.757
377.9604, 1321.026
378.4425, 1317.796
378.9247, 1315.909
379.4068, 1317.196
379.8889, 1323.397
380.3710, 1326.652
380.8531, 1324.408
381.3352, 1321.510
381.8174, 1319.478
382.2995, 1318.560
382.7816, 1318.784
383.2637, 1320.539
383.7458, 1323.461
384.2279, 1325.005
384.7101, 1324.646
385.1922, 1323.578
385.6743, 1321.081
386.1564, 1318.590
386.6385, 1317.989
387.1206, 1320.164
387.6028, 1323.726
388.0849, 1326.981
388.5670, 1330.266
389.0491, 1331.513
389.5312, 1326.467
390.0133, 1321.923
390.4955, 1323.366
390.9776, 1330.819
391.4597, 1338.599
391.9418, 1341.778
392.4239, 1341.239
392.9060, 1342.171
393.3882, 1345.454
393.8703, 1349.337
394.3524, 1353.050
394.8345, 1356.477
395.3166, 1359.313
395.7987, 1361.376
396.2809, 1362.837
396.7630, 1363.332
397.2451, 1362.713
397.7272, 1363.675
398.2093, 1368.966
398.6914, 1375.645
399.1736, 1378.919
399.6557, 1377.801
400.1378, 1376.104
400.6199, 1376.231
401.1020, 1377.516
401.5841, 1378.024
402.0662, 1377.106
402.5483, 1375.937
403.0305, 1375.972
403.5126, 1377.124
403.9947, 1378.304
404.4768, 1378.855
404.9589, 1379.659
405.4410, 1382.610
405.9232, 1387.325
406.4053, 1389.783
406.8874, 1386.549
407.3695, 1379.090
407.8516, 1375.070
408.3337, 1377.101
408.8159, 1379.033
409.2980, 1378.576
409.7801, 1376.888
410.2622, 1375.915
410.7443, 1376.335
411.2264, 1377.310
411.7086, 1377.568
412.1907, 1377.107
412.6728, 1375.709
413.1549, 1371.961
413.6370, 1368.417
414.1191, 1367.432
414.6013, 1368.537
415.0834, 1369.080
415.5655, 1366.747
416.0476, 1361.798
416.5297, 1358.938
417.0118, 1360.757
417.4940, 1361.765
417.9761, 1360.002
418.4582, 1357.305
418.9403, 1356.191
419.4224, 1357.582
419.9045, 1360.103
420.3867, 1361.342
420.8688, 1360.817
421.3509, 1360.277
421.8330, 1358.928
422.3151, 1358.323
422.7972, 1359.826
423.2794, 1363.006
423.7615, 1366.168
424.2436, 1368.074
424.7257, 1368.819
425.2078, 1368.978
425.6899, 1367.985
426.1721, 1367.399
426.6542, 1367.942
427.1363, 1369.075
427.6184, 1370.170
428.1005, 1371.012
428.5826, 1371.862
429.0648, 1372.677
429.5469, 1373.437
430.0290, 1375.878
430.5111, 1382.178
430.9932, 1388.205
431.4753, 1389.876
431.9575, 1387.698
432.4396, 1385.835
432.9217, 1385.828
433.4038, 1387.536
433.8859, 1391.332
434.3680, 1397.466
434.8502, 1403.259
435.3323, 1406.810
435.8144, 1408.793
436.2965, 1411.250
436.7786, 1414.116
437.2607, 1417.648
437.7429, 1422.506
438.2250, 1428.096
438.7071, 1432.745
439.1892, 1435.729
439.6713, 1438.733
440.1534, 1444.389
440.6356, 1453.592
441.1177, 1461.392
441.5998, 1465.746
442.0819, 1470.001
442.5640, 1476.329
443.0461, 1484.747
443.5282, 1494.754
444.0103, 1506.246
444.4925, 1518.716
444.9746, 1529.159
445.4567, 1535.069
445.9388, 1542.005
446.4209, 1551.357
446.9030, 1561.530
447.3852, 1570.622
447.8673, 1578.266
448.3494, 1586.210
448.8315, 1596.967
449.3136, 1611.347
449.7957, 1624.405
450.2779, 1634.446
450.7600, 1644.890
451.2421, 1656.929
451.7242, 1670.237
452.2063, 1684.309
452.6884, 1699.027
453.1706, 1713.664
453.6527, 1726.010
454.1348, 1735.191
454.6169, 1744.693
455.0990, 1755.352
455.5811, 1766.696
456.0633, 1778.517
456.5454, 1790.769
457.0275, 1803.465
457.5096, 1816.784
457.9917, 1830.586
458.4738, 1844.835
458.9560, 1860.028
459.4381, 1874.348
459.9202, 1887.124
460.4023, 1898.055
460.8844, 1906.077
461.3665, 1909.373
461.8487, 1911.988
462.3308, 1917.821
462.8129, 1925.645
463.2950, 1931.003
463.7771, 1932.222
464.2592, 1931.173
464.7414, 1930.697
465.2235, 1931.209
465.7056, 1929.363
466.1877, 1924.799
466.6698, 1917.699
467.1519, 1906.971
467.6341, 1893.453
468.1162, 1880.721
468.5983, 1871.381
469.0804, 1864.199
469.5625, 1853.801
470.0446, 1838.292
470.5268, 1821.877
471.0089, 1804.297
471.4910, 1786.306
471.9731, 1768.939
472.4552, 1752.238
472.9373, 1735.107
473.4195, 1716.050
473.9016, 1694.829
474.3837, 1675.268
474.8658, 1658.644
475.3479, 1642.444
475.8300, 1626.074
476.3122, 1609.705
476.7943, 1593.376
477.2764, 1577.118
477.7585, 1561.109
478.2406, 1545.341
478.7227, 1529.804
479.2049, 1515.220
479.6870, 1502.524
480.1691, 1490.010
480.6512, 1476.113
481.1333, 1461.238
481.6154, 1447.200
482.0976, 1434.712
482.5797, 1423.665
483.0618, 1414.325
483.5439, 1406.750
484.0260, 1398.877
484.5081, 1389.353
484.9902, 1379.113
485.4724, 1370.011
485.9545, 1362.053
486.4366, 1355.070
486.9187, 1349.734
487.4008, 1344.977
487.8829, 1339.130
488.3651, 1331.999
488.8472, 1325.029
489.3293, 1319.539
489.8114, 1315.484
490.2935, 1311.652
490.7756, 1308.460
491.2578, 1304.972
491.7399, 1301.033
492.2220, 1296.625
492.7041, 1291.377
493.1862, 1285.279
493.6683, 1279.422
494.1505, 1275.606
494.6326, 1274.583
495.1147, 1272.671
495.5968, 1268.687
496.0789, 1264.980
496.5610, 1262.865
497.0432, 1261.607
497.5253, 1259.546
498.0074, 1255.620
498.4895, 1251.148
498.9716, 1248.949
499.4537, 1249.508
499.9359, 1249.168
500.4180, 1246.023
500.9001, 1242.621
501.3822, 1241.218
501.8643, 1241.673
502.3464, 1242.234
502.8286, 1242.339
503.3107, 1241.935
503.7928, 1240.869
504.2749, 1239.139
504.7570, 1237.068
505.2391, 1234.738
505.7213, 1232.235
506.2034, 1229.702
506.6855, 1226.558
507.1676, 1224.669
507.6497, 1225.896
508.1318, 1227.897
508.6140, 1227.857
509.0961, 1225.506
509.5782, 1222.525
510.0603, 1220.310
510.5424, 1218.835
511.0245, 1217.647
511.5067, 1217.357
511.9888, 1216.615
512.4709, 1214.433
512.9530, 1212.067
513.4351, 1211.149
513.9172, 1211.982
514.3994, 1213.145
514.8815, 1212.644
515.3636, 1210.251
515.8457, 1209.439
516.3278, 1212.291
516.8099, 1213.904
517.2921, 1211.006
517.7742, 1206.082
518.2563, 1203.089
518.7384, 1203.627
519.2205, 1205.369
519.7026, 1206.045
520.1848, 1205.714
520.6669, 1204.708
521.1490, 1202.794
521.6311, 1200.814
522.1132, 1199.719
522.5953, 1199.349
523.0775, 1198.990
523.5596, 1198.625
524.0417, 1198.134
524.5238, 1196.932
525.0059, 1195.506
525.4880, 1195.448
525.9702, 1197.529
526.4523, 1200.441
526.9344, 1202.035
527.4165, 1202.130
527.8986, 1201.137
528.3807, 1197.614
528.8629, 1194.438
529.3450, 1193.580
529.8271, 1194.359
530.3092, 1194.814
530.7913, 1193.766
531.2734, 1192.171
531.7556, 1192.659
532.2377, 1196.361
532.7198, 1198.931
533.2019, 1198.848
533.6840, 1198.186
534.1661, 1197.573
534.6483, 1197.287
535.1304, 1198.035
535.6125, 1201.250
536.0946, 1205.097
536.5767, 1205.686
537.0588, 1202.827
537.5410, 1200.715
538.0231, 1201.160
538.5052, 1203.060
538.9873, 1204.321
539.4694, 1204.592
539.9515, 1206.711
540.4337, 1213.838
540.9158, 1221.607
541.3979, 1224.951
541.8800, 1224.360
542.3621, 1224.256
542.8442, 1227.435
543.3264, 1232.885
543.8085, 1237.166
544.2906, 1239.431
544.7726, 1241.590
545.2548, 1243.395
545.7369, 1245.308
546.2190, 1247.728
546.7011, 1250.596
547.1832, 1253.546
547.6653, 1256.244
548.1475, 1258.823
548.6296, 1261.539
549.1117, 1263.797
549.5938, 1267.727
550.0759, 1276.798
550.5580, 1285.905
551.0402, 1290.312
551.5223, 1289.938
552.0044, 1290.294
552.4865, 1295.147
552.9686, 1302.600
553.4507, 1309.439
553.9329, 1315.527
554.4150, 1321.533
554.8971, 1327.691
555.3792, 1334.090
555.8613, 1340.857
556.3434, 1347.742
556.8256, 1355.494
557.3077, 1367.841
557.7898, 1378.691
558.2719, 1381.080
558.7540, 1375.873
559.2361, 1369.618
559.7183, 1366.931
560.2004, 1366.658
560.6825, 1363.666
561.1646, 1355.595
561.6467, 1348.851
562.1288, 1345.902
562.6110, 1342.872
563.0931, 1336.831
563.5752, 1327.888
564.0573, 1317.986
564.5394, 1307.269
565.0215, 1297.207
565.5037, 1292.316
565.9858, 1293.347
566.4679, 1294.611
566.9500, 1294.435
567.4321, 1293.091
567.9142, 1290.549
568.3964, 1286.621
568.8785, 1284.088
569.3606, 1283.888
569.8427, 1285.510
570.3248, 1289.413
570.8069, 1294.945
571.2891, 1299.181
571.7712, 1300.200
572.2533, 1299.816
572.7354, 1302.587
573.2175, 1311.035
573.6996, 1318.307
574.1818, 1323.318
574.6639, 1328.215
575.1460, 1334.222
575.6281, 1341.256
576.1102, 1348.739
576.5923, 1356.405
577.0745, 1364.100
577.5566, 1371.355
578.0387, 1377.994
578.5208, 1385.162
579.0029, 1393.440
579.4850, 1401.864
579.9672, 1409.201
580.4493, 1415.894
580.9314, 1423.859
581.4135, 1434.870
581.8956, 1446.556
582.3777, 1455.725
582.8599, 1463.412
583.3420, 1474.204
583.8241, 1490.064
584.3062, 1507.711
584.7883, 1522.499
585.2704, 1533.389
585.7526, 1546.992
586.2347, 1564.727
586.7168, 1583.528
587.1989, 1602.639
587.6810, 1621.781
588.1631, 1640.418
588.6453, 1658.378
589.1274, 1676.727
589.6095, 1697.451
590.0916, 1721.081
590.5737, 1742.328
591.0558, 1760.281
591.5380, 1777.095
592.0201, 1794.187
592.5022, 1810.666
592.9843, 1825.600
593.4664, 1839.273
593.9485, 1849.201
594.4307, 1852.202
594.9128, 1850.108
595.3949, 1847.712
595.8770, 1845.876
596.3591, 1840.784
596.8412, 1828.910
597.3234, 1811.136
597.8055, 1793.956
598.2876, 1780.047
598.7697, 1763.155
599.2518, 1740.764
599.7339, 1715.823
600.2161, 1690.217
600.6982, 1664.664
601.1803, 1640.164
601.6624, 1617.469
602.1445, 1596.290
602.6266, 1575.553
603.1088, 1554.751
603.5909, 1535.890
604.0730, 1521.027
604.5551, 1507.277
605.0372, 1492.743
605.5193, 1477.376
606.0015, 1462.436
606.4836, 1448.219
606.9657, 1434.842
607.4478, 1422.753
607.9299, 1411.820
608.4120, 1400.937
608.8942, 1389.534
609.3763, 1378.644
609.8584, 1369.969
610.3405, 1364.398
610.8226, 1357.998
611.3047, 1349.497
611.7869, 1341.563
612.2690, 1335.600
612.7511, 1331.015
613.2332, 1327.099
613.7153, 1323.518
614.1974, 1319.401
614.6796, 1312.759
615.1617, 1303.302
615.6438, 1296.921
616.1259, 1295.473
616.6080, 1294.120
617.0901, 1290.176
617.5723, 1284.818
618.0544, 1279.460
618.5365, 1274.074
619.0186, 1269.632
619.5007, 1267.418
619.9828, 1266.210
620.4650, 1263.955
620.9471, 1260.483
621.4292, 1256.905
621.9113, 1253.941
622.3934, 1251.475
622.8755, 1249.127
623.3577, 1247.825
623.8398, 1245.245
624.3219, 1240.369
624.8040, 1235.109
625.2861, 1230.214
625.7682, 1226.078
626.2504, 1223.466
626.7325, 1223.283
627.2145, 1223.693
627.6967, 1220.736
628.1788, 1214.216
628.6609, 1209.049
629.1430, 1206.547
629.6251, 1205.059
630.1072, 1203.386
630.5894, 1201.530
631.0715, 1199.428
631.5536, 1196.679
632.0357, 1194.092
632.5178, 1192.067
632.9999, 1190.456
633.4821, 1189.336
633.9642, 1188.594
634.4463, 1187.145
634.9284, 1183.672
635.4105, 1178.435
635.8926, 1175.691
636.3748, 1178.361
636.8569, 1178.860
637.3390, 1173.364
637.8211, 1167.278
638.3032, 1165.724
638.7853, 1168.468
639.2675, 1170.471
639.7496, 1167.193
640.2317, 1162.150
640.7138, 1161.774
641.1959, 1165.648
641.6780, 1168.246
642.1602, 1167.605
642.6423, 1165.103
643.1244, 1162.178
643.6065, 1158.625
644.0886, 1156.261
644.5707, 1155.683
645.0529, 1155.619
645.5350, 1156.166
646.0171, 1156.645
646.4992, 1156.103
646.9813, 1154.322
647.4634, 1151.907
647.9456, 1149.209
648.4277, 1146.343
648.9098, 1144.813
649.3919, 1144.942
649.8740, 1145.635
650.3561, 1147.990
650.8383, 1149.697
651.3204, 1147.064
651.8025, 1139.599
652.2846, 1134.588
652.7667, 1137.067
653.2488, 1141.557
653.7310, 1142.791
654.2131, 1141.298
654.6952, 1139.850
655.1773, 1139.632
655.6594, 1139.440
656.1415, 1137.010
656.6237, 1131.234
657.1058, 1128.456
657.5879, 1132.293
658.0700, 1135.234
658.5521, 1134.733
659.0342, 1132.468
659.5164, 1130.386
659.9985, 1128.968
660.4806, 1128.171
660.9627, 1128.215
661.4448, 1128.796
661.9269, 1129.308
662.4091, 1129.720
662.8912, 1129.675
663.3733, 1128.729
663.8554, 1127.637
664.3375, 1128.102
664.8196, 1131.245
665.3018, 1132.647
665.7839, 1130.743
666.2660, 1128.565
666.7481, 1127.473
667.2302, 1127.321
667.7123, 1128.029
668.1945, 1129.508
668.6766, 1130.449
669.1587, 1128.692
669.6408, 1124.474
670.1229, 1121.403
670.6050, 1119.586
671.0872, 1118.938
671.5693, 1120.038
672.0514, 1122.006
672.5335, 1123.561
673.0156, 1124.889
673.4977, 1124.794
673.9799, 1120.901
674.4620, 1117.079
674.9441, 1117.432
675.4262, 1120.663
675.9083, 1122.567
676.3904, 1121.275
676.8726, 1118.777
677.3547, 1118.530
677.8368, 1121.118
678.3189, 1122.076
678.8010, 1120.626
679.2831, 1118.645
679.7653, 1116.870
680.2474, 1115.040
680.7295, 1112.548
681.2116, 1109.186
681.6937, 1106.684
682.1758, 1106.515
682.6580, 1107.439
683.1401, 1108.042
683.6222, 1108.241
684.1043, 1108.076
684.5864, 1107.504
685.0685, 1106.937
685.5507, 1107.065
686.0328, 1107.921
686.5149, 1109.313
686.9970, 1112.259
687.4791, 1114.569
687.9612, 1116.079
688.4434, 1116.358
688.9255, 1114.173
689.4076, 1109.346
689.8897, 1105.298
690.3718, 1105.826
690.8539, 1108.551
691.3361, 1108.076
691.8182, 1104.501
692.3003, 1103.120
692.7824, 1106.935
693.2645, 1112.097
693.7466, 1112.098
694.2288, 1104.943
694.7109, 1100.925
695.1930, 1102.622
695.6751, 1104.250
696.1572, 1102.897
696.6393, 1100.737
697.1215, 1101.153
697.6036, 1104.656
698.0857, 1107.987
698.5678, 1107.948
699.0499, 1105.557
699.5320, 1103.605
700.0142, 1102.098
700.4963, 1101.110
700.9784, 1100.738
701.4605, 1100.791
701.9426, 1101.255
702.4247, 1102.297
702.9069, 1102.198
703.3890, 1100.233
703.8711, 1097.945
704.3532, 1095.306
704.8353, 1093.007
705.3174, 1092.144
705.7996, 1092.721
706.2817, 1093.307
706.7638, 1092.307
707.2459, 1090.559
707.7280, 1091.048
708.2101, 1094.052
708.6923, 1096.775
709.1743, 1098.674
709.6564, 1099.663
710.1385, 1099.364
710.6207, 1097.878
711.1028, 1096.492
711.5849, 1094.564
712.0670, 1093.591
712.5491, 1096.106
713.0313, 1098.737
713.5134, 1096.206
713.9955, 1088.981
714.4776, 1083.399
714.9597, 1084.615
715.4418, 1090.026
715.9240, 1092.753
716.4061, 1092.588
716.8882, 1091.329
717.3703, 1088.632
717.8524, 1086.022
718.3345, 1084.851
718.8167, 1084.815
719.2988, 1084.896
719.7809, 1085.148
720.2630, 1085.326
720.7451, 1085.051
721.2272, 1084.876
721.7094, 1086.097
722.1915, 1088.097
722.6736, 1088.352
723.1557, 1085.222
723.6378, 1080.358
724.1199, 1076.940
724.6021, 1075.001
725.0842, 1073.667
725.5663, 1072.329
726.0484, 1072.695
726.5305, 1077.573
727.0126, 1084.360
727.4948, 1087.452
727.9769, 1085.308
728.4590, 1083.460
728.9411, 1084.529
729.4232, 1085.708
729.9053, 1083.838
730.3875, 1080.150
730.8696, 1078.305
731.3517, 1079.826
731.8338, 1082.339
732.3159, 1082.216
732.7980, 1079.465
733.2802, 1078.424
733.7623, 1080.162
734.2444, 1080.507
734.7265, 1076.429
735.2086, 1070.944
735.6907, 1068.375
736.1729, 1068.909
736.6550, 1069.654
737.1371, 1070.030
737.6192, 1070.447
738.1013, 1071.396
738.5834, 1072.460
739.0656, 1072.889
739.5477, 1072.555
740.0298, 1072.051
740.5119, 1071.973
740.9940, 1072.166
741.4761, 1072.107
741.9583, 1071.885
742.4404, 1070.646
742.9225, 1067.100
743.4046, 1063.944
743.8867, 1064.970
744.3688, 1069.177
744.8510, 1070.701
745.3331, 1066.528
745.8152, 1062.811
746.2973, 1061.454
746.7794, 1061.603
747.2615, 1062.846
747.7437, 1064.784
748.2258, 1066.862
748.7079, 1068.924
749.1900, 1070.077
749.6721, 1067.511
750.1542, 1061.343
750.6364, 1059.182
751.1185, 1063.113
751.6006, 1067.184
752.0827, 1067.647
752.5648, 1065.614
753.0469, 1064.218
753.5291, 1063.969
754.0112, 1062.936
754.4933, 1058.667
754.9754, 1055.675
755.4575, 1058.500
755.9396, 1064.072
756.4218, 1066.502
756.9039, 1063.988
757.3860, 1060.394
757.8681, 1060.126
758.3502, 1062.109
758.8323, 1062.621
759.3145, 1061.616
759.7966, 1059.411
760.2787, 1055.458
760.7608, 1051.877
761.2429, 1051.704
761.7250, 1055.361
762.2072, 1057.535
762.6893, 1057.747
763.1714, 1057.219
763.6535, 1055.465
764.1356, 1053.647
764.6177, 1052.760
765.0999, 1052.840
765.5820, 1053.464
766.0641, 1054.700
766.5462, 1055.779
767.0283, 1055.669
767.5104, 1054.529
767.9926, 1052.668
768.4747, 1050.101
768.9568, 1048.078
769.4389, 1047.425
769.9210, 1048.052
770.4031, 1049.859
770.8853, 1054.860
771.3674, 1057.073
771.8495, 1054.047
772.3316, 1051.012
772.8137, 1050.591
773.2958, 1051.421
773.7780, 1051.045
774.2601, 1048.822
774.7422, 1047.192
775.2243, 1048.334
775.7064, 1050.523
776.1885, 1052.044
776.6707, 1052.676
777.1528, 1051.542
777.6349, 1048.349
778.1170, 1045.311
778.5991, 1045.222
779.0812, 1047.911
779.5634, 1049.960
780.0455, 1051.067
780.5276, 1052.229
781.0097, 1054.832
781.4918, 1056.464
781.9739, 1054.363
782.4561, 1049.513
782.9382, 1046.125
783.4203, 1045.361
783.9024, 1045.901
784.3845, 1047.995
784.8666, 1050.501
785.3488, 1052.291
785.8309, 1053.192
786.3130, 1053.130
786.7951, 1052.006
787.2772, 1050.638
787.7593, 1050.636
788.2415, 1051.958
788.7236, 1052.631
789.2057, 1052.553
789.6878, 1051.733
790.1699, 1049.391
790.6520, 1047.014
791.1342, 1047.551
791.6162, 1051.631
792.0983, 1054.586
792.5804, 1056.760
793.0626, 1057.064
793.5447, 1052.920
794.0268, 1047.947
794.5089, 1046.632
794.9910, 1049.176
795.4731, 1052.089
795.9553, 1053.133
796.4374, 1053.180
796.9195, 1053.547
797.4016, 1054.084
797.8837, 1054.134
798.3658, 1053.576
798.8480, 1052.436
799.3301, 1050.494
799.8122, 1048.311
800.2943, 1047.948
800.7764, 1051.079
801.2585, 1052.438
801.7407, 1050.503
802.2228, 1048.370
802.7049, 1046.491
803.1870, 1045.434
803.6691, 1046.427
804.1512, 1049.787
804.6334, 1052.453
805.1155, 1051.918
805.5976, 1050.880
806.0797, 1052.272
806.5618, 1055.046
807.0439, 1056.998
807.5261, 1057.457
808.0082, 1056.488
808.4903, 1053.660
808.9724, 1050.027
809.4545, 1050.394
809.9366, 1055.693
810.4188, 1058.394
810.9009, 1056.006
811.3830, 1053.080
811.8651, 1053.541
812.3472, 1056.091
812.8293, 1055.929
813.3115, 1051.250
813.7936, 1047.748
814.2757, 1046.650
814.7578, 1046.531
815.2399, 1047.371
815.7220, 1048.297
816.2042, 1047.751
816.6863, 1045.399
817.1684, 1043.079
817.6505, 1042.576
818.1326, 1043.074
818.6147, 1042.967
819.0969, 1042.418
819.5790, 1042.628
820.0611, 1043.985
820.5432, 1045.062
821.0253, 1044.402
821.5074, 1042.281
821.9896, 1040.381
822.4717, 1037.858
822.9538, 1037.527
823.4359, 1043.033
823.9180, 1047.162
824.4001, 1044.681
824.8823, 1038.460
825.3644, 1034.052
825.8465, 1032.631
826.3286, 1031.663
826.8107, 1029.255
827.2928, 1027.758
827.7750, 1030.368
828.2571, 1035.024
828.7392, 1037.468
829.2213, 1036.609
829.7034, 1034.864
830.1855, 1034.622
830.6677, 1035.155
831.1498, 1033.651
831.6319, 1030.236
832.1140, 1029.954
832.5961, 1034.694
833.0782, 1039.385
833.5604, 1039.830
834.0425, 1036.914
834.5246, 1034.408
835.0067, 1032.466
835.4888, 1030.704
835.9709, 1028.624
836.4531, 1027.261
836.9352, 1028.154
837.4173, 1029.569
837.8994, 1028.360
838.3815, 1023.899
838.8636, 1020.823
839.3458, 1022.895
839.8279, 1026.089
840.3100, 1026.718
840.7921, 1025.714
841.2742, 1024.922
841.7563, 1024.816
842.2385, 1025.212
842.7206, 1026.050
843.2027, 1027.066
843.6848, 1027.539
844.1669, 1027.459
844.6490, 1027.377
845.1312, 1027.373
845.6133, 1027.386
846.0954, 1027.749
846.5775, 1027.746
847.0596, 1025.415
847.5417, 1018.910
848.0239, 1015.933
848.5060, 1019.507
848.9881, 1022.784
849.4702, 1023.916
849.9523, 1023.407
850.4344, 1020.888
850.9166, 1017.006
851.3987, 1014.982
851.8808, 1017.373
852.3629, 1020.651
852.8450, 1022.410
853.3271, 1022.874
853.8093, 1021.844
854.2914, 1019.747
854.7735, 1018.202
855.2556, 1018.119
855.7377, 1018.897
856.2198, 1020.025
856.7020, 1021.424
857.1841, 1020.476
857.6662, 1016.528
858.1483, 1013.641
858.6304, 1013.542
859.1125, 1014.725
859.5947, 1015.442
860.0768, 1015.681
860.5589, 1016.516
861.0410, 1019.661
861.5231, 1020.945
862.0052, 1017.868
862.4874, 1014.649
862.9695, 1014.615
863.4516, 1016.575
863.9337, 1017.260
864.4158, 1015.433
864.8979, 1014.247
865.3801, 1017.173
865.8622, 1020.513
866.3443, 1019.683
866.8264, 1016.017
867.3085, 1012.870
867.7906, 1011.330
868.2728, 1011.143
868.7549, 1012.376
869.2370, 1014.409
869.7191, 1015.503
870.2012, 1015.658
870.6833, 1015.486
871.1655, 1015.245
871.6476, 1013.638
872.1297, 1008.959
872.6118, 1003.275
873.0939, 1002.127
873.5760, 1008.039
874.0581, 1010.996
874.5402, 1007.170
875.0223, 1004.953
875.5045, 1009.245
875.9866, 1014.434
876.4687, 1014.028
876.9508, 1008.378
877.4329, 1004.220
877.9150, 1005.167
878.3972, 1006.311
878.8793, 1004.491
879.3614, 1001.882
879.8435, 1000.822
880.3256, 1001.280
880.8077, 1002.379
881.2899, 1003.739
881.7720, 1004.968
882.2541, 1005.669
882.7362, 1005.866
883.2183, 1005.564
883.7004, 1004.792
884.1826, 1003.717
884.6647, 1002.356
885.1468, 1001.139
885.6289, 1000.601
886.1110, 1000.488
886.5931, 999.3483
887.0753, 996.7167
887.5574, 994.4416
888.0395, 992.6141
888.5216, 991.2640
889.0037, 990.4721
889.4858, 990.1443
889.9680, 990.2979
890.4501, 991.1261
890.9322, 991.2117
891.4143, 989.8962
891.8964, 988.3560
892.3785, 986.7094
892.8607, 985.3388
893.3428, 984.9594
893.8249, 985.2690
894.3070, 984.9237
894.7891, 983.0048
895.2712, 981.1458
895.7534, 981.0129
896.2355, 981.7801
896.7176, 982.3441
897.1997, 982.5838
897.6818, 982.4769
898.1639, 982.0281
898.6461, 981.4650
899.1282, 981.0536
899.6103, 980.7440
900.0924, 980.3087
900.5745, 979.7462
901.0566, 979.1177
901.5388, 978.4213
902.0209, 977.6367
902.5030, 976.5284
902.9851, 975.5466
903.4672, 976.2419
903.9493, 980.3983
904.4315, 981.1071
904.9136, 974.4589
905.3957, 969.3796
905.8778, 969.8251
906.3599, 972.1501
906.8420, 972.7578
907.3242, 971.6999
907.8063, 971.1897
908.2884, 972.9330
908.7705, 973.6904
909.2526, 970.8198
909.7347, 967.6425
910.2169, 967.5656
910.6990, 969.4998
911.1811, 970.4838
911.6632, 969.5266
912.1453, 968.0937
912.6274, 966.9827
913.1096, 966.4257
913.5917, 967.3946
914.0738, 969.1621
914.5559, 969.4278
915.0380, 967.8527
915.5201, 966.0884
916.0023, 965.2924
916.4844, 965.1338
916.9665, 964.8932
917.4486, 964.5693
917.9307, 964.6807
918.4128, 965.4518
918.8950, 965.2517
919.3771, 962.9524
919.8592, 960.4755
920.3413, 960.3798
920.8234, 962.5950
921.3055, 963.8974
921.7877, 963.8525
922.2698, 963.6730
922.7519, 962.9671
923.2340, 962.7051
923.7161, 963.4550
924.1982, 964.9744
924.6804, 967.3376
925.1625, 971.0520
925.6446, 972.2838
926.1267, 967.4572
926.6088, 962.9711
927.0909, 962.1837
927.5731, 963.3262
928.0552, 964.9587
928.5373, 966.5012
929.0194, 966.9561
929.5015, 965.3868
929.9836, 964.3862
930.4658, 966.9359
930.9479, 970.9373
931.4300, 973.9545
931.9121, 975.6718
932.3942, 975.1904
932.8763, 972.5455
933.3585, 970.6133
933.8406, 972.5966
934.3227, 970.9542
934.8048, 975.8450
935.2869, 971.7056
935.7690, 969.9517
936.2512, 971.4332
936.7333, 974.8729
937.2154, 979.9680
937.6975, 985.1829
938.1796, 987.6341
938.6617, 987.1102
939.1439, 988.8268
939.6260, 993.5948
940.1081, 998.4846
940.5902, 1003.573
941.0723, 1007.593
941.5544, 1008.899
942.0366, 1008.421
942.5187, 1009.293
943.0008, 1011.278
943.4829, 1015.098
943.9650, 1021.880
944.4471, 1029.188
944.9293, 1036.789
945.4114, 1044.013
945.8935, 1049.452
946.3756, 1053.603
946.8577, 1059.482
947.3398, 1068.335
947.8220, 1078.559
948.3041, 1090.039
948.7862, 1101.904
949.2683, 1112.236
949.7504, 1122.667
950.2325, 1136.840
950.7147, 1155.537
951.1968, 1175.447
951.6789, 1194.297
952.1610, 1213.016
952.6431, 1232.506
953.1252, 1252.987
953.6074, 1274.692
954.0895, 1297.865
954.5716, 1323.705
955.0537, 1352.960
955.5358, 1383.279
956.0179, 1410.616
956.5000, 1436.313
956.9821, 1467.152
957.4642, 1503.080
957.9464, 1538.710
958.4285, 1572.847
958.9106, 1606.560
959.3927, 1639.888
959.8748, 1674.639
960.3569, 1715.886
960.8391, 1765.954
961.3212, 1809.875
961.8033, 1844.528
962.2854, 1881.831
962.7675, 1926.729
963.2496, 1974.132
963.7318, 2019.670
964.2139, 2063.183
964.6960, 2104.062
965.1781, 2143.161
965.6602, 2177.959
966.1423, 2209.202
966.6245, 2235.322
967.1066, 2257.649
967.5887, 2273.457
968.0708, 2279.113
968.5529, 2274.568
969.0350, 2263.148
969.5172, 2244.948
969.9993, 2220.680
970.4814, 2188.204
970.9635, 2151.978
971.4456, 2115.700
971.9277, 2078.398
972.4099, 2036.866
972.8920, 1990.538
973.3741, 1944.909
973.8562, 1902.653
974.3383, 1862.740
974.8204, 1825.221
975.3026, 1789.300
975.7847, 1753.390
976.2668, 1718.064
976.7489, 1685.452
977.2310, 1656.642
977.7131, 1629.743
978.1953, 1602.243
978.6774, 1578.510
979.1595, 1553.435
979.6416, 1534.258
980.1237, 1515.746
980.6058, 1497.377
981.0880, 1480.371
981.5701, 1465.578
982.0522, 1452.194
982.5343, 1439.152
983.0164, 1426.541
983.4985, 1414.518
983.9807, 1403.167
984.4628, 1393.819
984.9449, 1387.051
985.4270, 1380.222
985.9091, 1370.926
986.3912, 1360.126
986.8734, 1350.525
987.3555, 1342.157
987.8376, 1334.781
988.3197, 1328.340
988.8018, 1323.186
989.2839, 1319.909
989.7661, 1316.950
990.2482, 1312.307
990.7303, 1306.445
991.2124, 1302.732
991.6945, 1302.286
992.1766, 1301.281
992.6588, 1298.339
993.1409, 1296.647
993.6230, 1297.922
994.1051, 1300.918
994.5872, 1304.684
995.0693, 1309.178
995.5515, 1311.768
996.0336, 1310.193
996.5157, 1310.008
996.9978, 1311.919
997.4799, 1315.260
997.9620, 1320.312
998.4442, 1326.258
998.9263, 1331.767
999.4084, 1336.698
999.8905, 1342.611
1000.373, 1350.391
1000.855, 1358.520
1001.337, 1366.466
1001.819, 1374.497
1002.301, 1383.413
1002.783, 1392.342
1003.265, 1398.646
1003.747, 1401.783
1004.230, 1407.919
1004.712, 1423.623
1005.194, 1439.213
1005.676, 1447.527
1006.158, 1452.941
1006.640, 1460.717
1007.122, 1470.395
1007.604, 1479.449
1008.086, 1487.005
1008.569, 1492.176
1009.051, 1491.984
1009.533, 1491.123
1010.015, 1496.259
1010.497, 1503.671
1010.979, 1506.646
1011.461, 1505.105
1011.943, 1502.941
1012.426, 1501.971
1012.908, 1500.625
1013.390, 1497.584
1013.872, 1492.829
1014.354, 1486.134
1014.836, 1477.721
1015.318, 1467.728
1015.800, 1456.477
1016.282, 1446.037
1016.765, 1437.671
1017.247, 1428.843
1017.729, 1415.317
1018.211, 1398.437
1018.693, 1383.214
1019.175, 1369.417
1019.657, 1354.886
1020.139, 1339.203
1020.622, 1323.751
1021.104, 1309.430
1021.586, 1295.763
1022.068, 1282.020
1022.550, 1268.165
1023.032, 1252.597
1023.514, 1235.233
1023.996, 1220.583
1024.478, 1209.935
1024.961, 1199.946
1025.443, 1187.982
1025.925, 1179.313
1026.407, 1170.526
1026.889, 1161.465
1027.371, 1153.703
1027.853, 1146.516
1028.335, 1138.589
1028.818, 1131.703
1029.300, 1125.146
1029.782, 1118.672
1030.264, 1111.725
1030.746, 1102.585
1031.228, 1090.318
1031.710, 1081.596
1032.192, 1077.568
1032.674, 1073.646
1033.156, 1068.642
1033.639, 1063.410
1034.121, 1058.782
1034.603, 1054.347
1035.085, 1048.695
1035.567, 1041.092
1036.049, 1035.189
1036.531, 1032.586
1037.013, 1028.555
1037.496, 1021.093
1037.978, 1012.804
1038.460, 1004.862
1038.942, 997.9486
1039.424, 994.4428
1039.906, 995.9533
1040.388, 996.0391
1040.870, 994.2569
1041.353, 991.6795
1041.835, 988.2207
1042.317, 984.3585
1042.799, 980.5103
1043.281, 976.5575
1043.763, 972.1490
1044.245, 967.0270
1044.727, 962.1813
1045.209, 957.3873
1045.692, 953.2369
1046.174, 950.7068
1046.656, 948.1754
1047.138, 943.8340
1047.620, 938.5651
1048.102, 934.7735
1048.584, 932.8419
1049.066, 931.6787
1049.548, 932.0707
1050.031, 932.0110
1050.513, 930.3415
1050.995, 928.4223
1051.477, 927.8303
1051.959, 927.7846
1052.441, 925.9257
1052.923, 921.3654
1053.405, 917.8987
1053.888, 916.9161
1054.370, 916.3776
1054.852, 916.3714
1055.334, 915.7427
1055.816, 912.7198
1056.298, 908.5247
1056.780, 906.1684
1057.262, 906.4018
1057.745, 906.6837
1058.227, 907.4904
1058.709, 906.6970
1059.191, 901.0997
1059.673, 895.6156
1060.155, 895.1923
1060.637, 897.9754
1061.119, 899.5654
1061.601, 899.0878
1062.083, 897.7159
1062.566, 895.5381
1063.048, 892.9484
1063.530, 889.6155
1064.012, 886.3759
1064.494, 883.1955
1064.976, 880.9229
1065.458, 881.8080
1065.940, 886.2692
1066.423, 889.0166
1066.905, 886.1572
1067.387, 883.5435
1067.869, 885.5567
1068.351, 887.3642
1068.833, 883.0025
1069.315, 876.0948
1069.797, 874.3255
1070.280, 878.7955
1070.762, 882.0524
1071.244, 879.5812
1071.726, 877.1391
1072.208, 877.9555
1072.690, 879.2992
1073.172, 878.8906
1073.654, 877.4460
1074.136, 876.2999
1074.619, 875.7108
1075.101, 875.5014
1075.583, 876.0967
1076.065, 876.2252
1076.547, 875.1829
1077.029, 873.5359
1077.511, 870.6877
1077.993, 868.0784
1078.475, 868.2874
1078.958, 871.1111
1079.440, 873.2697
1079.922, 873.4659
1080.404, 873.0150
1080.886, 872.9922
1081.368, 872.0831
1081.850, 867.5360
1082.332, 862.6530
1082.814, 861.9711
1083.297, 865.3848
1083.779, 870.0175
1084.261, 876.1178
1084.743, 879.4181
1085.225, 875.6416
1085.707, 871.0138
1086.189, 869.4324
1086.671, 869.3355
1087.154, 868.9046
1087.636, 868.0472
1088.118, 867.3232
1088.600, 866.8871
1089.082, 866.6166
1089.564, 866.8276
1090.046, 866.7473
1090.528, 865.9881
1091.010, 864.6906
1091.493, 862.0879
1091.975, 859.2775
1092.457, 859.1317
1092.939, 862.5193
1093.421, 865.4238
1093.903, 867.2188
1094.385, 867.0973
1094.867, 863.3450
1095.349, 858.7353
1095.832, 854.7657
1096.314, 852.0036
1096.796, 851.3350
1097.278, 852.8693
1097.760, 854.6298
1098.242, 857.4973
1098.724, 858.4193
1099.206, 853.8176
1099.689, 849.6315
1100.171, 851.3436
1100.653, 855.2797
1101.135, 855.2249
1101.617, 851.1242
1102.099, 849.1457
1102.581, 852.2502
1103.063, 854.9778
1103.546, 856.3945
1104.028, 856.7311
1104.510, 855.5919
1104.992, 853.7928
1105.474, 851.9792
1105.956, 850.2960
1106.438, 849.0501
1106.920, 848.1097
1107.402, 848.0441
1107.885, 850.4050
1108.367, 851.7549
1108.849, 849.9959
1109.331, 847.4514
1109.813, 846.2339
1110.295, 845.8736
1110.777, 844.7726
1111.259, 842.5110
1111.741, 840.8774
1112.224, 840.5325
1112.706, 840.1034
1113.188, 839.1450
1113.670, 838.2042
1114.152, 837.5360
1114.634, 837.1723
1115.116, 837.0382
1115.598, 837.0714
1116.081, 838.1837
1116.563, 842.2995
1117.045, 844.1512
1117.527, 842.4675
1118.009, 839.4883
1118.491, 834.9230
1118.973, 830.8298
1119.455, 829.9013
1119.938, 831.8737
1120.420, 834.5187
1120.902, 839.2019
1121.384, 840.8868
1121.866, 837.8412
1122.348, 835.2256
1122.830, 834.8160
1123.312, 835.4366
1123.794, 836.3710
1124.276, 837.2194
1124.759, 836.5106
1125.241, 833.7281
1125.723, 832.4659
1126.205, 833.1130
1126.687, 833.7648
1127.169, 833.8685
1127.651, 834.3851
1128.133, 836.0836
1128.616, 838.2841
1129.098, 839.7509
1129.580, 840.5238
1130.062, 841.7382
1130.544, 843.6163
1131.026, 842.4944
1131.508, 837.4407
1131.990, 833.8340
1132.473, 834.2626
1132.955, 836.7197
1133.437, 838.9736
1133.919, 841.1706
1134.401, 844.0618
1134.883, 847.5248
1135.365, 849.8361
1135.847, 850.9221
1136.329, 851.6349
1136.812, 852.2424
1137.294, 852.4861
1137.776, 852.1570
1138.258, 851.3911
1138.740, 849.5404
1139.222, 847.6423
1139.704, 850.1432
1140.186, 855.8598
1140.668, 860.0016
1141.151, 861.5358
1141.633, 859.9850
1142.115, 855.0609
1142.597, 850.7073
1143.079, 852.0573
1143.561, 856.0726
1144.043, 858.3086
1144.525, 859.1223
1145.008, 859.0135
1145.490, 858.2112
1145.972, 856.7822
1146.454, 854.9174
1146.936, 853.9630
1147.418, 855.5271
1147.900, 856.8318
1148.382, 855.2028
1148.865, 851.8820
1149.347, 846.9576
1149.829, 842.0865
1150.311, 840.6976
1150.793, 842.2134
1151.275, 842.1078
1151.757, 838.2401
1152.239, 834.4485
1152.721, 833.3187
1153.203, 832.5002
1153.686, 829.7036
1154.168, 827.0775
1154.650, 827.6789
1155.132, 830.0322
1155.614, 830.2608
1156.096, 827.6225
1156.578, 825.8903
1157.060, 828.3433
1157.543, 828.6458
1158.025, 821.2462
1158.507, 815.4656
1158.989, 819.3454
1159.471, 826.1461
1159.953, 826.8459
1160.435, 822.0518
1160.917, 818.7640
1161.400, 818.0870
1161.882, 817.3553
1162.364, 816.6072
1162.846, 815.6589
1163.328, 814.1340
1163.810, 812.8330
1164.292, 812.4262
1164.774, 812.5772
1165.256, 812.7493
1165.739, 813.0156
1166.221, 811.5507
1166.703, 807.1526
1167.185, 805.9064
1167.667, 809.5120
1168.149, 812.8773
1168.631, 813.7421
1169.113, 813.1384
1169.595, 812.0040
1170.078, 810.6722
1170.560, 810.7412
1171.042, 809.2104
1171.524, 807.6614
1172.006, 807.2015
1172.488, 804.5043
1172.970, 803.7859
1173.452, 803.5897
1173.934, 802.9615
1174.417, 802.4735
1174.899, 803.5253
1175.381, 801.9276
1175.863, 803.5128
1176.345, 800.1282
1176.827, 798.3538
1177.309, 798.3475
1177.791, 799.0172
1178.274, 799.8538
1178.756, 800.0916
1179.238, 798.9134
1179.720, 797.4997
1180.202, 797.4474
1180.684, 797.6273
1181.166, 795.8376
1181.648, 793.6433
1182.130, 794.6657
1182.613, 798.1942
1183.095, 799.7050
1183.577, 797.3798
1184.059, 794.7432
1184.541, 793.3834
1185.023, 792.5119
1185.505, 792.0880
1185.987, 791.5991
1186.469, 789.4178
1186.952, 787.4630
1187.434, 789.9964
1187.916, 796.9213
1188.398, 800.8474
1188.880, 799.3210
1189.362, 796.9924
1189.844, 792.2939
1190.326, 789.6160
1190.809, 792.7768
1191.291, 795.7592
1191.773, 792.4492
1192.255, 786.1680
1192.737, 785.1571
1193.219, 790.0470
1193.701, 793.4330
1194.183, 795.5717
1194.666, 794.5516
1195.148, 788.9211
1195.630, 785.5488
1196.112, 788.1068
1196.594, 791.7756
1197.076, 791.1625
1197.558, 787.9261
1198.040, 787.0525
1198.522, 788.1741
1199.005, 787.8831
1199.487, 786.2540
1199.969, 784.8168
1200.451, 783.9081
1200.933, 783.1205
1201.415, 782.2269
1201.897, 781.7617
1202.379, 782.5358
1202.861, 783.8725
1203.344, 784.6348
1203.826, 785.2129
1204.308, 786.8754
1204.790, 788.7896
1205.272, 788.4124
1205.754, 785.6337
1206.236, 783.3278
1206.718, 783.0283
1207.201, 782.9587
1207.683, 781.3314
1208.165, 780.3903
1208.647, 783.5734
1209.129, 786.5526
1209.611, 783.7134
1210.093, 777.5772
1210.575, 773.9607
1211.057, 773.6906
1211.540, 774.9436
1212.022, 779.3617
1212.504, 782.3046
1212.986, 782.8958
1213.468, 782.3580
1213.950, 780.3799
1214.432, 778.3148
1214.914, 777.3376
1215.396, 777.2401
1215.879, 777.5856
1216.361, 778.4641
1216.843, 778.5042
1217.325, 777.6485
1217.807, 775.8503
1218.289, 772.8213
1218.771, 772.1823
1219.253, 775.8419
1219.736, 779.2102
1220.218, 777.2335
1220.700, 772.5764
1221.182, 770.7997
1221.664, 771.3055
1222.146, 772.7040
1222.628, 774.5264
1223.110, 775.4345
1223.593, 775.3598
1224.075, 775.3963
1224.557, 776.0135
1225.039, 775.8556
1225.521, 772.5248
1226.003, 769.6540
1226.485, 771.9646
1226.967, 775.0706
1227.449, 773.6183
1227.932, 770.2416
1228.414, 769.6209
1228.896, 771.7443
1229.378, 773.4315
1229.860, 773.8847
1230.342, 773.9597
1230.824, 773.3045
1231.306, 773.0458
1231.788, 774.0734
1232.271, 774.9396
1232.753, 774.9447
1233.235, 774.2103
1233.717, 772.7731
1234.199, 770.7405
1234.681, 768.6084
1235.163, 768.4159
1235.645, 765.6371
1236.128, 768.2670
1236.610, 770.3072
1237.092, 770.9354
1237.574, 770.7165
1238.056, 769.8926
1238.538, 769.2492
1239.020, 770.1146
1239.502, 771.5128
1239.984, 770.2483
1240.467, 771.5601
1240.949, 768.4814
1241.431, 771.5571
1241.913, 772.3596
1242.395, 770.2653
1242.877, 768.0432
1243.359, 767.0438
1243.841, 766.3371
1244.323, 764.4407
1244.806, 763.5271
1245.288, 767.3559
1245.770, 770.9047
1246.252, 767.9075
1246.734, 762.1456
1247.216, 760.3729
1247.698, 762.6822
1248.180, 763.9566
1248.662, 762.8251
1249.145, 762.3098
1249.627, 763.0928
1250.109, 763.6634
1250.591, 763.6811
1251.073, 763.4562
1251.555, 762.9961
1252.037, 762.7072
1252.519, 763.2717
1253.002, 764.3769
1253.484, 764.6562
1253.966, 764.1033
1254.448, 762.4350
1254.930, 759.7810
1255.412, 758.0809
1255.894, 757.7509
1256.376, 758.2531
1256.859, 759.3050
1257.341, 760.4882
1257.823, 761.2609
1258.305, 762.0825
1258.787, 764.1653
1259.269, 766.1757
1259.751, 765.6980
1260.233, 764.1133
1260.715, 764.5375
1261.198, 766.5734
1261.680, 766.6810
1262.162, 763.4774
1262.644, 761.0027
1263.126, 760.3652
1263.608, 760.8354
1264.090, 763.9255
1264.572, 765.9881
1265.054, 763.9996
1265.537, 761.1387
1266.019, 760.9410
1266.501, 762.4490
1266.983, 762.1880
1267.465, 759.7900
1267.947, 760.1769
1268.429, 763.7608
1268.911, 764.7394
1269.394, 762.1876
1269.876, 761.2076
1270.358, 763.9148
1270.840, 766.5208
1271.322, 765.4662
1271.804, 763.1578
1272.286, 763.1552
1272.768, 764.4654
1273.250, 766.2308
1273.733, 767.5530
1274.215, 766.3629
1274.697, 763.4945
1275.179, 761.6217
1275.661, 761.3673
1276.143, 761.5480
1276.625, 762.1210
1277.107, 762.2086
1277.589, 761.2213
1278.072, 760.0795
1278.554, 757.8523
1279.036, 757.0969
1279.518, 761.8085
1280.000, 767.5339
1280.482, 765.8976
1280.964, 757.8636
1281.446, 755.4941
1281.929, 759.7209
1282.411, 761.3101
1282.893, 759.7067
1283.375, 757.6131
1283.857, 755.7398
1284.339, 755.8896
1284.821, 759.2245
1285.303, 762.9467
1285.786, 764.4901
1286.268, 763.7076
##END=



