##NAMES=Eosphorite
##RRUFFID=R060293
##IDEAL CHEMISTRY=Mn^2+^AlPO_4_(OH)_2_&#183;H_2_O
##LOCALITY=Mawi area, Nuristan, Laghman Province, Afghanistan
##OWNER=RRUFF
##SOURCE=Herb Obodda
##DESCRIPTION=Orange brown prismatic crystal
##STATUS=The identification of this mineral has been confirmed by X-ray diffraction and chemical analysis
##URL=rruff.info/R060293
##MEASURED CHEMISTRY=(Mn^2+^_0.67_Fe^2+^_0.30_Ca_0.03_)_Σ=1_Al_1.00_(P_1.00_O_4_)(OH)_2_·H_2_O
91.53320, 1093.194
92.01532, 1084.609
92.49744, 1078.555
92.97955, 1092.051
93.46167, 1109.731
93.94379, 1117.696
94.42590, 1122.548
94.90802, 1125.289
95.39014, 1124.440
95.87225, 1119.946
96.35437, 1113.173
96.83649, 1104.318
97.31860, 1095.061
97.80072, 1087.035
98.28284, 1079.921
98.76495, 1072.611
99.24707, 1065.183
99.72919, 1057.768
100.2113, 1050.549
100.6934, 1042.462
101.1755, 1034.278
101.6577, 1027.710
102.1398, 1024.372
102.6219, 1024.917
103.1040, 1024.956
103.5861, 1023.725
104.0682, 1022.536
104.5504, 1022.442
105.0325, 1023.427
105.5146, 1024.200
105.9967, 1022.554
106.4788, 1016.596
106.9609, 1012.956
107.4431, 1012.842
107.9252, 1014.946
108.4073, 1017.652
108.8894, 1020.512
109.3715, 1023.553
109.8536, 1027.166
110.3358, 1031.856
110.8179, 1035.309
111.3000, 1035.541
111.7821, 1032.891
112.2642, 1030.597
112.7463, 1029.186
113.2285, 1029.277
113.7106, 1031.772
114.1927, 1037.280
114.6748, 1043.943
115.1569, 1049.099
115.6390, 1052.193
116.1212, 1055.256
116.6033, 1060.292
117.0854, 1065.141
117.5675, 1067.481
118.0496, 1066.016
118.5317, 1061.423
119.0139, 1056.988
119.4960, 1053.547
119.9781, 1049.305
120.4602, 1043.276
120.9423, 1036.206
121.4244, 1029.371
121.9066, 1023.714
122.3887, 1019.270
122.8708, 1015.541
123.3529, 1013.015
123.8350, 1010.568
124.3171, 1007.509
124.7993, 1003.893
125.2814, 1000.400
125.7635, 997.5605
126.2456, 995.4361
126.7277, 994.6269
127.2098, 996.4097
127.6920, 998.9410
128.1741, 1000.333
128.6562, 1000.167
129.1383, 999.0522
129.6204, 996.8647
130.1025, 993.6839
130.5847, 992.1413
131.0668, 994.7845
131.5489, 1000.234
132.0310, 1003.589
132.5131, 1003.048
132.9952, 1000.795
133.4774, 998.3113
133.9595, 995.6806
134.4416, 994.1152
134.9237, 995.4334
135.4058, 1000.268
135.8879, 1003.666
136.3701, 1003.208
136.8522, 1001.981
137.3343, 1001.750
137.8164, 1002.951
138.2985, 1004.715
138.7806, 1005.444
139.2628, 1004.037
139.7449, 1003.656
140.2270, 1005.458
140.7091, 1007.846
141.1912, 1009.264
141.6733, 1009.005
142.1555, 1007.665
142.6376, 1007.303
143.1197, 1007.948
143.6018, 1009.626
144.0839, 1013.203
144.5660, 1017.728
145.0482, 1021.961
145.5303, 1025.316
146.0124, 1027.622
146.4945, 1027.670
146.9766, 1023.313
147.4587, 1019.331
147.9409, 1018.165
148.4230, 1019.346
148.9051, 1020.467
149.3872, 1019.641
149.8693, 1017.319
150.3514, 1016.337
150.8336, 1017.494
151.3157, 1019.549
151.7978, 1021.729
152.2799, 1024.131
152.7620, 1025.917
153.2441, 1026.008
153.7263, 1025.057
154.2084, 1024.010
154.6905, 1022.594
155.1726, 1021.376
155.6547, 1021.827
156.1368, 1024.792
156.6190, 1027.965
157.1011, 1030.449
157.5832, 1032.222
158.0653, 1033.190
158.5474, 1032.884
159.0295, 1031.451
159.5117, 1030.870
159.9938, 1031.547
160.4759, 1032.797
160.9580, 1034.459
161.4401, 1036.483
161.9222, 1038.832
162.4044, 1041.579
162.8865, 1044.896
163.3686, 1047.642
163.8507, 1050.008
164.3328, 1051.721
164.8149, 1052.031
165.2971, 1051.269
165.7792, 1050.742
166.2613, 1052.094
166.7434, 1056.318
167.2255, 1059.624
167.7076, 1061.523
168.1898, 1063.009
168.6719, 1064.599
169.1540, 1066.458
169.6361, 1068.697
170.1182, 1071.631
170.6003, 1076.019
171.0825, 1079.027
171.5646, 1079.684
172.0467, 1079.219
172.5288, 1078.982
173.0109, 1079.359
173.4930, 1079.989
173.9752, 1080.387
174.4573, 1080.651
174.9394, 1080.426
175.4215, 1078.976
175.9036, 1076.959
176.3857, 1076.003
176.8679, 1076.936
177.3500, 1078.516
177.8321, 1078.778
178.3142, 1077.541
178.7963, 1076.917
179.2784, 1078.947
179.7606, 1083.207
180.2427, 1086.091
180.7248, 1086.105
181.2069, 1084.724
181.6890, 1082.867
182.1711, 1080.545
182.6533, 1078.917
183.1354, 1079.517
183.6175, 1082.694
184.0996, 1085.345
184.5817, 1085.958
185.0638, 1086.322
185.5460, 1087.658
186.0281, 1090.199
186.5102, 1092.947
186.9923, 1094.405
187.4744, 1094.002
187.9565, 1093.787
188.4387, 1093.828
188.9208, 1094.226
189.4029, 1095.044
189.8850, 1096.309
190.3671, 1098.025
190.8492, 1100.357
191.3314, 1104.297
191.8135, 1107.127
192.2956, 1108.285
192.7777, 1108.603
193.2598, 1108.684
193.7419, 1108.780
194.2241, 1108.934
194.7062, 1109.250
195.1883, 1109.712
195.6704, 1110.399
196.1525, 1111.575
196.6346, 1112.891
197.1168, 1113.854
197.5989, 1114.233
198.0810, 1114.329
198.5631, 1115.052
199.0452, 1117.458
199.5273, 1119.069
200.0095, 1118.410
200.4916, 1116.841
200.9737, 1116.616
201.4558, 1118.809
201.9379, 1122.834
202.4200, 1127.364
202.9022, 1133.784
203.3843, 1138.388
203.8664, 1138.307
204.3485, 1135.174
204.8306, 1133.650
205.3127, 1136.189
205.7949, 1141.069
206.2770, 1144.349
206.7591, 1145.668
207.2412, 1146.421
207.7233, 1147.951
208.2054, 1149.912
208.6876, 1149.953
209.1697, 1146.164
209.6518, 1140.550
210.1339, 1136.112
210.6160, 1133.014
211.0981, 1130.983
211.5803, 1130.012
212.0624, 1130.104
212.5445, 1130.685
213.0266, 1133.025
213.5087, 1134.768
213.9908, 1133.263
214.4730, 1127.733
214.9551, 1121.162
215.4372, 1116.577
215.9193, 1114.055
216.4014, 1112.960
216.8836, 1114.482
217.3657, 1116.657
217.8478, 1118.476
218.3299, 1119.704
218.8120, 1120.095
219.2941, 1118.892
219.7763, 1115.285
220.2584, 1112.784
220.7405, 1112.279
221.2226, 1112.831
221.7047, 1114.353
222.1868, 1116.726
222.6690, 1118.887
223.1511, 1118.678
223.6332, 1113.956
224.1153, 1111.870
224.5974, 1115.133
225.0795, 1119.549
225.5617, 1122.051
226.0438, 1121.807
226.5259, 1120.191
227.0080, 1119.634
227.4901, 1121.160
227.9722, 1121.901
228.4544, 1121.606
228.9365, 1120.727
229.4186, 1119.646
229.9007, 1118.461
230.3828, 1116.960
230.8649, 1114.753
231.3471, 1111.231
231.8292, 1107.906
232.3113, 1103.535
232.7934, 1100.029
233.2755, 1099.682
233.7576, 1102.906
234.2398, 1107.344
234.7219, 1109.056
235.2040, 1106.167
235.6861, 1103.573
236.1682, 1101.250
236.6503, 1099.214
237.1325, 1097.313
237.6146, 1095.545
238.0967, 1094.404
238.5788, 1094.869
239.0609, 1098.520
239.5430, 1099.929
240.0252, 1096.911
240.5073, 1092.549
240.9894, 1089.808
241.4715, 1089.385
241.9536, 1090.369
242.4357, 1091.836
242.9179, 1094.057
243.4000, 1095.473
243.8821, 1094.532
244.3642, 1093.364
244.8463, 1094.953
245.3284, 1100.037
245.8106, 1105.392
246.2927, 1106.633
246.7748, 1103.561
247.2569, 1101.976
247.7390, 1104.220
248.2211, 1107.745
248.7033, 1109.256
249.1854, 1108.084
249.6675, 1106.374
250.1496, 1106.820
250.6317, 1108.974
251.1138, 1109.454
251.5960, 1105.703
252.0781, 1100.682
252.5602, 1098.607
253.0423, 1100.279
253.5244, 1102.479
254.0065, 1102.582
254.4887, 1101.045
254.9708, 1098.792
255.4529, 1096.010
255.9350, 1092.656
256.4171, 1088.284
256.8992, 1082.533
257.3813, 1077.382
257.8635, 1075.589
258.3456, 1075.280
258.8277, 1073.083
259.3098, 1066.305
259.7919, 1058.175
260.2740, 1053.850
260.7562, 1054.228
261.2383, 1054.510
261.7204, 1051.358
262.2025, 1046.593
262.6846, 1042.281
263.1667, 1039.020
263.6489, 1036.441
264.1310, 1034.244
264.6131, 1032.643
265.0952, 1030.483
265.5773, 1026.157
266.0594, 1021.459
266.5416, 1018.149
267.0237, 1016.839
267.5058, 1016.699
267.9879, 1016.758
268.4700, 1017.070
268.9521, 1017.374
269.4343, 1017.419
269.9164, 1017.523
270.3985, 1017.991
270.8806, 1018.918
271.3627, 1020.000
271.8448, 1021.079
272.3270, 1022.339
272.8091, 1022.638
273.2912, 1020.363
273.7733, 1017.848
274.2554, 1016.631
274.7375, 1016.943
275.2197, 1017.753
275.7018, 1017.715
276.1839, 1016.561
276.6660, 1016.282
277.1481, 1018.135
277.6302, 1020.257
278.1124, 1021.712
278.5945, 1022.464
279.0766, 1023.064
279.5587, 1024.123
280.0408, 1025.728
280.5229, 1027.062
281.0051, 1028.038
281.4872, 1028.760
281.9693, 1028.606
282.4514, 1028.056
282.9335, 1028.551
283.4156, 1031.819
283.8978, 1037.948
284.3799, 1042.711
284.8620, 1045.939
285.3441, 1047.743
285.8262, 1047.338
286.3083, 1045.521
286.7905, 1043.794
287.2726, 1043.030
287.7547, 1043.269
288.2368, 1045.094
288.7189, 1050.684
289.2010, 1055.282
289.6832, 1056.522
290.1653, 1056.167
290.6474, 1057.100
291.1295, 1061.183
291.6116, 1067.400
292.0938, 1071.529
292.5759, 1072.154
293.0580, 1072.537
293.5401, 1073.423
294.0222, 1074.418
294.5043, 1074.716
294.9865, 1073.898
295.4686, 1073.008
295.9507, 1074.929
296.4328, 1082.504
296.9149, 1087.770
297.3970, 1088.552
297.8792, 1087.653
298.3613, 1087.509
298.8434, 1088.850
299.3255, 1090.649
299.8076, 1091.013
300.2897, 1088.750
300.7719, 1087.779
301.2540, 1089.034
301.7361, 1090.863
302.2182, 1092.116
302.7003, 1092.673
303.1824, 1093.371
303.6646, 1095.754
304.1467, 1101.234
304.6288, 1103.100
305.1109, 1097.568
305.5930, 1091.958
306.0751, 1089.893
306.5573, 1091.078
307.0394, 1093.015
307.5215, 1093.511
308.0036, 1092.479
308.4857, 1091.277
308.9678, 1090.393
309.4500, 1088.831
309.9321, 1086.177
310.4142, 1082.596
310.8963, 1078.335
311.3784, 1073.382
311.8605, 1067.952
312.3427, 1063.857
312.8248, 1062.229
313.3069, 1060.694
313.7890, 1058.745
314.2711, 1056.652
314.7532, 1054.923
315.2354, 1053.857
315.7175, 1052.999
316.1996, 1050.911
316.6817, 1045.808
317.1638, 1042.369
317.6459, 1042.404
318.1281, 1043.433
318.6102, 1043.272
319.0923, 1041.231
319.5744, 1038.100
320.0565, 1035.032
320.5386, 1031.689
321.0208, 1029.258
321.5029, 1028.231
321.9850, 1027.639
322.4671, 1026.995
322.9492, 1026.178
323.4313, 1025.231
323.9135, 1024.242
324.3956, 1023.286
324.8777, 1021.854
325.3598, 1018.438
325.8419, 1015.929
326.3240, 1016.067
326.8062, 1018.175
327.2883, 1020.279
327.7704, 1020.872
328.2525, 1020.028
328.7346, 1019.022
329.2167, 1017.714
329.6989, 1016.397
330.1810, 1015.432
330.6631, 1014.449
331.1452, 1012.813
331.6273, 1010.109
332.1094, 1006.785
332.5916, 1004.187
333.0737, 1002.309
333.5558, 1001.294
334.0379, 1001.299
334.5200, 1001.948
335.0021, 1002.926
335.4843, 1004.125
335.9664, 1005.587
336.4485, 1007.651
336.9306, 1011.022
337.4127, 1012.834
337.8948, 1011.863
338.3770, 1010.051
338.8591, 1008.219
339.3412, 1006.577
339.8233, 1005.218
340.3055, 1004.297
340.7876, 1003.864
341.2697, 1003.378
341.7518, 1002.724
342.2339, 1002.135
342.7160, 1001.797
343.1982, 1001.601
343.6803, 1001.287
344.1624, 1000.687
344.6445, 999.8300
345.1266, 998.7390
345.6087, 996.7394
346.0909, 995.6924
346.5730, 997.0060
347.0551, 999.1938
347.5372, 1000.300
348.0193, 999.4232
348.5014, 997.5305
348.9836, 996.2949
349.4657, 995.7955
349.9478, 995.7181
350.4299, 996.4520
350.9120, 997.2905
351.3941, 997.7871
351.8763, 997.8500
352.3584, 997.5065
352.8405, 996.3271
353.3226, 994.2471
353.8047, 993.6202
354.2868, 996.1522
354.7690, 998.7878
355.2511, 999.5892
355.7332, 998.7797
356.2153, 997.5540
356.6974, 996.5154
357.1795, 995.6555
357.6617, 995.0626
358.1438, 995.0839
358.6259, 994.6384
359.1080, 992.4719
359.5901, 989.5827
360.0722, 987.5651
360.5544, 987.0588
361.0365, 987.5837
361.5186, 988.9496
362.0007, 991.3881
362.4828, 992.6849
362.9649, 990.6729
363.4471, 987.7509
363.9292, 986.9083
364.4113, 988.8857
364.8934, 990.9374
365.3755, 990.6111
365.8576, 988.3669
366.3398, 986.8007
366.8219, 986.7388
367.3040, 987.1833
367.7861, 986.9982
368.2682, 986.2568
368.7503, 985.7491
369.2325, 985.9553
369.7146, 986.5486
370.1967, 986.9102
370.6788, 986.9341
371.1609, 987.1005
371.6430, 988.1678
372.1252, 989.6982
372.6073, 990.2005
373.0894, 988.6160
373.5715, 986.6246
374.0536, 985.5652
374.5357, 985.3134
375.0179, 985.0959
375.5000, 984.5187
375.9821, 983.7791
376.4642, 983.3793
376.9463, 983.5296
377.4284, 983.5013
377.9106, 982.7148
378.3927, 981.6445
378.8748, 981.0982
379.3569, 981.2979
379.8390, 982.0292
380.3211, 983.2628
380.8033, 985.2395
381.2854, 986.1555
381.7675, 984.5803
382.2496, 982.8259
382.7317, 983.1034
383.2138, 985.2839
383.6960, 987.1456
384.1781, 986.7044
384.6602, 984.2784
385.1423, 984.6590
385.6244, 990.6185
386.1065, 995.7219
386.5887, 997.1400
387.0708, 996.3912
387.5529, 996.3946
388.0350, 998.4846
388.5171, 1001.236
388.9992, 1001.465
389.4814, 996.2468
389.9635, 992.9376
390.4456, 991.5291
390.9277, 991.9899
391.4098, 995.3737
391.8919, 1001.197
392.3741, 1006.795
392.8562, 1009.313
393.3383, 1008.383
393.8204, 1007.206
394.3025, 1004.125
394.7846, 1002.516
395.2668, 1004.461
395.7489, 1008.633
396.2310, 1012.674
396.7131, 1015.267
397.1952, 1016.554
397.6773, 1016.965
398.1595, 1015.736
398.6416, 1014.869
399.1237, 1014.343
399.6058, 1014.392
400.0879, 1015.717
400.5700, 1018.283
401.0522, 1020.567
401.5343, 1020.482
402.0164, 1017.575
402.4985, 1014.945
402.9806, 1012.217
403.4627, 1010.293
403.9449, 1010.099
404.4270, 1011.062
404.9091, 1011.765
405.3912, 1011.368
405.8733, 1010.050
406.3554, 1008.185
406.8376, 1005.295
407.3197, 1003.025
407.8018, 1003.387
408.2839, 1004.075
408.7660, 1002.360
409.2481, 997.2424
409.7303, 991.5566
410.2124, 988.0472
410.6945, 986.6270
411.1766, 985.8000
411.6587, 985.4836
412.1408, 985.4055
412.6230, 985.5198
413.1051, 985.7532
413.5872, 985.4642
414.0693, 984.0383
414.5514, 982.0541
415.0335, 980.3826
415.5157, 979.0736
415.9978, 978.0727
416.4799, 977.6558
416.9620, 977.4572
417.4441, 976.3535
417.9262, 973.1683
418.4084, 970.5783
418.8905, 970.4706
419.3726, 972.1478
419.8547, 974.0374
420.3368, 975.7782
420.8189, 976.9420
421.3011, 976.6186
421.7832, 974.4219
422.2653, 972.5081
422.7474, 971.2601
423.2295, 970.2890
423.7116, 969.0490
424.1938, 967.6245
424.6759, 966.7831
425.1580, 967.1860
425.6401, 968.7649
426.1222, 970.2803
426.6043, 972.5060
427.0865, 973.7816
427.5686, 973.3563
428.0507, 971.8314
428.5328, 969.6225
429.0149, 966.9369
429.4970, 964.7244
429.9792, 964.8275
430.4613, 968.9025
430.9434, 971.7007
431.4255, 973.2063
431.9076, 973.7220
432.3897, 973.1589
432.8719, 971.7271
433.3540, 969.7521
433.8361, 967.1652
434.3182, 964.3342
434.8003, 964.2347
435.2824, 969.9596
435.7646, 973.6329
436.2467, 971.7894
436.7288, 967.8972
437.2109, 965.6330
437.6930, 966.1541
438.1751, 967.8925
438.6573, 968.8904
439.1394, 969.0628
439.6215, 969.6600
440.1036, 970.8525
440.5857, 972.5432
441.0678, 974.9380
441.5500, 977.8083
442.0321, 980.3300
442.5142, 982.2078
442.9963, 983.4368
443.4784, 983.6927
443.9605, 982.7829
444.4427, 982.4153
444.9248, 983.6910
445.4069, 985.9490
445.8890, 987.9554
446.3711, 989.5609
446.8532, 991.2176
447.3354, 993.4527
447.8175, 995.8838
448.2996, 997.4969
448.7817, 997.9550
449.2638, 998.2726
449.7459, 999.4402
450.2281, 1001.521
450.7102, 1004.230
451.1923, 1008.443
451.6744, 1012.491
452.1565, 1015.093
452.6386, 1016.604
453.1208, 1018.249
453.6029, 1020.718
454.0850, 1023.584
454.5671, 1025.644
455.0492, 1024.983
455.5313, 1026.200
456.0135, 1031.440
456.4956, 1037.177
456.9777, 1040.107
457.4598, 1040.166
457.9419, 1040.134
458.4240, 1042.835
458.9062, 1048.322
459.3883, 1052.549
459.8704, 1054.805
460.3525, 1056.515
460.8346, 1057.777
461.3167, 1058.748
461.7989, 1059.736
462.2810, 1060.873
462.7631, 1061.599
463.2452, 1060.727
463.7273, 1057.846
464.2094, 1055.802
464.6916, 1055.732
465.1737, 1055.848
465.6558, 1055.473
466.1379, 1054.453
466.6200, 1052.455
467.1021, 1048.875
467.5843, 1044.376
468.0664, 1040.078
468.5485, 1035.875
469.0306, 1032.644
469.5127, 1031.805
469.9948, 1031.561
470.4770, 1028.850
470.9591, 1022.769
471.4412, 1017.289
471.9233, 1015.431
472.4054, 1015.270
472.8875, 1013.288
473.3697, 1008.828
473.8518, 1003.106
474.3339, 996.8217
474.8160, 990.0514
475.2981, 984.4760
475.7802, 980.6998
476.2624, 977.4586
476.7445, 974.3471
477.2266, 971.3136
477.7087, 968.1552
478.1908, 964.7483
478.6729, 961.6994
479.1551, 960.3112
479.6372, 962.3227
480.1193, 961.7711
480.6014, 956.8846
481.0835, 951.3776
481.5656, 946.9742
482.0478, 943.7494
482.5299, 941.2722
483.0120, 939.3488
483.4941, 937.7966
483.9762, 935.9603
484.4583, 933.6472
484.9405, 931.4598
485.4226, 929.7909
485.9047, 928.1015
486.3868, 925.7633
486.8689, 922.7878
487.3510, 920.1182
487.8332, 918.4728
488.3153, 917.7969
488.7974, 918.1176
489.2795, 920.1694
489.7616, 921.3984
490.2437, 919.6380
490.7259, 916.1644
491.2080, 912.5178
491.6901, 908.2200
492.1722, 905.3137
492.6543, 906.7086
493.1364, 910.7567
493.6186, 912.5381
494.1007, 910.6096
494.5828, 906.9446
495.0649, 903.2366
495.5470, 899.3933
496.0291, 897.6223
496.5113, 900.0671
496.9934, 902.6703
497.4755, 902.9388
497.9576, 901.4588
498.4397, 899.8623
498.9218, 898.9275
499.4040, 898.4362
499.8861, 897.9843
500.3682, 898.1964
500.8503, 897.2244
501.3324, 893.4625
501.8145, 890.0157
502.2967, 888.9866
502.7788, 890.0433
503.2609, 891.5773
503.7430, 892.5821
504.2251, 893.0763
504.7072, 893.1896
505.1894, 893.1323
505.6715, 892.1815
506.1536, 888.8212
506.6357, 885.3906
507.1178, 883.9352
507.5999, 884.6449
508.0821, 885.8377
508.5642, 886.3570
509.0463, 886.4045
509.5284, 886.6806
510.0105, 887.3633
510.4926, 887.6398
510.9748, 886.6376
511.4569, 884.9651
511.9390, 884.1833
512.4211, 885.2568
512.9032, 885.5992
513.3853, 882.5720
513.8674, 878.3293
514.3495, 877.0926
514.8317, 879.7819
515.3138, 883.3117
515.7959, 884.6188
516.2780, 883.5602
516.7601, 882.1367
517.2422, 879.8870
517.7244, 877.8398
518.2065, 876.3652
518.6886, 875.3016
519.1707, 874.3411
519.6528, 873.3902
520.1349, 872.6962
520.6171, 872.7469
521.0992, 873.8109
521.5813, 874.5504
522.0634, 875.1360
522.5455, 875.1927
523.0276, 874.4580
523.5098, 873.1084
523.9919, 871.3216
524.4740, 868.9454
524.9561, 866.8030
525.4382, 866.3989
525.9203, 867.7723
526.4025, 868.5634
526.8846, 867.7920
527.3667, 866.8453
527.8488, 867.3649
528.3309, 869.0683
528.8130, 870.1125
529.2952, 869.5065
529.7773, 868.3570
530.2594, 867.8298
530.7415, 867.7259
531.2236, 866.8236
531.7057, 864.3502
532.1879, 861.4807
532.6700, 860.5426
533.1521, 862.5895
533.6342, 864.2780
534.1163, 865.8000
534.5984, 866.7351
535.0806, 866.2935
535.5627, 864.9835
536.0448, 864.2165
536.5269, 864.9072
537.0090, 866.5586
537.4911, 867.6005
537.9733, 867.5472
538.4554, 867.9767
538.9375, 870.3762
539.4196, 872.2233
539.9017, 871.3278
540.3839, 868.1988
540.8660, 865.4918
541.3481, 865.0253
541.8302, 866.0642
542.3123, 867.1248
542.7944, 868.2333
543.2766, 869.1876
543.7587, 870.1119
544.2408, 870.6451
544.7229, 869.8110
545.2050, 867.2561
545.6871, 866.4321
546.1693, 870.3791
546.6514, 875.4986
547.1335, 877.7121
547.6156, 877.0427
548.0977, 875.7314
548.5798, 874.9371
549.0620, 874.7960
549.5441, 875.7756
550.0262, 880.1329
550.5083, 882.5403
550.9904, 880.8032
551.4725, 878.7432
551.9547, 879.5779
552.4368, 882.9950
552.9189, 886.3519
553.4010, 887.4436
553.8831, 887.2069
554.3652, 889.8991
554.8474, 897.5020
555.3295, 903.0010
555.8116, 902.4288
556.2937, 900.6041
556.7758, 901.1025
557.2579, 904.0242
557.7401, 906.7677
558.2222, 907.5312
558.7043, 907.2488
559.1864, 907.9362
559.6685, 909.6453
560.1506, 910.0778
560.6328, 907.9747
561.1149, 904.0480
561.5970, 899.3502
562.0791, 893.1068
562.5612, 888.6578
563.0433, 888.5443
563.5255, 889.0251
564.0076, 886.5168
564.4897, 881.4348
564.9718, 876.5385
565.4539, 873.5419
565.9360, 872.1789
566.4182, 871.7209
566.9003, 873.2699
567.3824, 873.6249
567.8645, 870.3737
568.3466, 867.8591
568.8287, 869.7599
569.3109, 875.1171
569.7930, 879.8370
570.2751, 881.3135
570.7572, 880.6653
571.2393, 879.8958
571.7214, 878.9368
572.2036, 878.6891
572.6857, 879.5559
573.1678, 881.1514
573.6499, 882.7537
574.1320, 884.3485
574.6141, 887.2634
575.0963, 893.6899
575.5784, 900.1123
576.0605, 902.6226
576.5426, 902.3271
577.0247, 903.4911
577.5068, 908.1680
577.9890, 914.4654
578.4711, 918.7556
578.9532, 919.7610
579.4353, 922.0115
579.9174, 926.0515
580.3995, 930.6302
580.8817, 935.7261
581.3638, 940.8019
581.8459, 944.8996
582.3280, 947.5212
582.8101, 949.4036
583.2922, 951.3395
583.7744, 953.2094
584.2565, 956.9753
584.7386, 963.8062
585.2207, 971.3796
585.7029, 978.1768
586.1850, 984.4213
586.6671, 990.6557
587.1492, 997.0095
587.6313, 1003.430
588.1135, 1009.672
588.5956, 1015.974
589.0777, 1023.078
589.5598, 1031.180
590.0419, 1039.381
590.5240, 1046.574
591.0062, 1052.647
591.4883, 1059.779
591.9704, 1070.337
592.4525, 1078.991
592.9346, 1083.937
593.4167, 1086.537
593.8989, 1088.306
594.3810, 1089.632
594.8631, 1090.175
595.3452, 1089.982
595.8273, 1088.879
596.3094, 1084.567
596.7916, 1076.042
597.2737, 1066.579
597.7558, 1057.120
598.2379, 1047.594
598.7200, 1038.184
599.2021, 1029.041
599.6843, 1018.716
600.1664, 1003.667
600.6485, 988.3149
601.1306, 980.3796
601.6127, 979.5880
602.0948, 977.8952
602.5770, 970.4641
603.0591, 959.3651
603.5412, 950.2392
604.0233, 943.0572
604.5054, 938.1885
604.9875, 936.9918
605.4697, 936.8541
605.9518, 936.8420
606.4339, 936.4613
606.9160, 934.9474
607.3981, 931.7655
607.8802, 927.7679
608.3624, 924.4863
608.8445, 921.9178
609.3266, 920.2299
609.8087, 919.7197
610.2908, 919.7884
610.7729, 919.9374
611.2551, 920.2643
611.7372, 921.1246
612.2193, 923.2072
612.7014, 925.0999
613.1835, 925.7059
613.6656, 925.3855
614.1478, 925.0345
614.6299, 924.8683
615.1120, 924.1185
615.5941, 921.7849
616.0762, 917.8469
616.5583, 915.3280
617.0405, 915.8649
617.5226, 915.7431
618.0047, 914.3040
618.4868, 911.9564
618.9689, 908.8490
619.4510, 905.1752
619.9332, 901.5746
620.4153, 898.7847
620.8974, 896.4558
621.3795, 893.0468
621.8616, 888.1743
622.3438, 884.3821
622.8259, 883.2516
623.3080, 883.1349
623.7901, 881.8143
624.2722, 879.2435
624.7543, 876.6332
625.2365, 874.2656
625.7186, 872.0065
626.2007, 869.7891
626.6828, 867.5970
627.1649, 865.3168
627.6470, 862.8730
628.1292, 860.7231
628.6113, 859.8194
629.0934, 860.8668
629.5755, 860.1542
630.0576, 856.0624
630.5397, 851.8447
631.0219, 848.0569
631.5040, 844.8437
631.9861, 842.1590
632.4682, 839.9684
632.9503, 838.9026
633.4324, 840.4945
633.9146, 843.6785
634.3967, 845.0622
634.8788, 844.3282
635.3609, 842.1908
635.8430, 838.5236
636.3251, 834.0427
636.8073, 830.9258
637.2894, 829.5579
637.7715, 828.3549
638.2536, 827.2422
638.7357, 826.0660
639.2178, 824.7316
639.7000, 823.2247
640.1821, 821.5233
640.6642, 819.5969
641.1463, 817.5466
641.6284, 815.5684
642.1105, 813.6987
642.5927, 811.6807
643.0748, 808.9857
643.5569, 806.8209
644.0390, 805.9012
644.5211, 805.9166
645.0032, 806.3941
645.4854, 807.6465
645.9675, 808.3157
646.4496, 806.7430
646.9317, 804.1913
647.4138, 803.2112
647.8959, 804.0912
648.3781, 805.1728
648.8602, 805.2678
649.3423, 804.5222
649.8244, 803.6059
650.3065, 802.4200
650.7886, 801.2018
651.2708, 799.8337
651.7529, 798.5398
652.2350, 797.8152
652.7171, 797.3074
653.1992, 795.9003
653.6813, 792.6539
654.1635, 789.0868
654.6456, 787.8360
655.1277, 788.6881
655.6098, 788.7201
656.0919, 786.8469
656.5740, 785.6459
657.0562, 788.1461
657.5383, 793.5820
658.0204, 796.2742
658.5025, 794.0592
658.9846, 791.7844
659.4667, 790.9092
659.9489, 790.6189
660.4310, 790.3890
660.9131, 789.9348
661.3952, 788.5380
661.8773, 785.3669
662.3594, 781.4271
662.8416, 780.2986
663.3237, 782.8701
663.8058, 785.0125
664.2879, 786.2204
664.7700, 786.5380
665.2521, 785.6277
665.7343, 783.8699
666.2164, 782.5572
666.6985, 782.3292
667.1806, 782.2715
667.6627, 781.7939
668.1448, 781.0145
668.6270, 780.0656
669.1091, 779.0071
669.5912, 778.0418
670.0733, 777.3123
670.5554, 776.8573
671.0375, 776.9856
671.5197, 778.3232
672.0018, 779.2059
672.4839, 779.2158
672.9660, 778.9565
673.4481, 778.9108
673.9302, 778.9752
674.4124, 778.6043
674.8945, 777.1541
675.3766, 775.7524
675.8587, 776.5332
676.3408, 778.7924
676.8229, 778.7164
677.3051, 775.0733
677.7872, 771.8000
678.2693, 772.8638
678.7514, 777.7185
679.2335, 779.9904
679.7156, 778.3593
680.1978, 776.2239
680.6799, 773.2072
681.1620, 770.5098
681.6441, 769.3524
682.1262, 769.5217
682.6083, 769.8766
683.0905, 769.6853
683.5726, 769.3030
684.0547, 769.8228
684.5368, 771.2365
685.0189, 770.7501
685.5010, 766.9984
685.9832, 763.1472
686.4653, 761.9471
686.9474, 762.9850
687.4295, 763.9011
687.9116, 764.6073
688.3937, 765.2303
688.8759, 765.9705
689.3580, 766.5425
689.8401, 766.6331
690.3222, 766.2542
690.8043, 765.4927
691.2864, 764.2943
691.7686, 763.1686
692.2507, 763.7505
692.7328, 766.5490
693.2149, 767.7273
693.6970, 765.9101
694.1791, 763.6288
694.6613, 762.7037
695.1434, 762.6049
695.6255, 762.0920
696.1076, 760.5228
696.5897, 759.4564
697.0718, 760.3740
697.5540, 761.7221
698.0361, 761.1598
698.5182, 758.9471
699.0003, 757.5524
699.4824, 758.5920
699.9645, 760.8328
700.4467, 761.0606
700.9288, 758.4662
701.4109, 756.9346
701.8930, 757.8890
702.3751, 758.4467
702.8572, 756.5798
703.3394, 753.5988
703.8215, 751.8322
704.3036, 752.0339
704.7857, 752.3364
705.2678, 751.5228
705.7499, 750.2572
706.2321, 749.6462
706.7142, 749.5660
707.1963, 748.6542
707.6784, 746.0361
708.1605, 743.1956
708.6426, 743.4277
709.1248, 748.2501
709.6069, 750.7022
710.0890, 749.0680
710.5711, 747.0128
711.0532, 745.2265
711.5353, 744.0090
712.0175, 744.0538
712.4996, 745.5621
712.9817, 746.5688
713.4638, 745.0792
713.9459, 742.8209
714.4280, 742.4161
714.9102, 743.6193
715.3923, 744.7537
715.8744, 745.1453
716.3565, 744.8679
716.8386, 743.9022
717.3207, 742.0649
717.8029, 740.8997
718.2850, 740.8704
718.7671, 740.9763
719.2492, 740.8997
719.7313, 740.9097
720.2134, 741.5414
720.6956, 742.7262
721.1777, 743.3634
721.6598, 742.3854
722.1419, 740.7930
722.6240, 739.5460
723.1061, 738.7651
723.5883, 739.3571
724.0704, 741.7067
724.5525, 743.6062
725.0346, 742.5076
725.5167, 738.5165
725.9988, 735.7128
726.4810, 734.7550
726.9631, 734.0734
727.4452, 732.9555
727.9273, 732.4385
728.4094, 734.1049
728.8915, 737.2184
729.3737, 738.8539
729.8558, 736.8173
730.3379, 734.2223
730.8200, 735.2299
731.3021, 738.2727
731.7842, 738.6479
732.2664, 735.5766
732.7485, 731.9164
733.2306, 729.6257
733.7127, 728.6769
734.1948, 729.0909
734.6769, 732.4979
735.1591, 734.2792
735.6412, 734.0540
736.1233, 732.5768
736.6054, 728.9041
737.0875, 724.5734
737.5696, 722.5889
738.0518, 724.2275
738.5339, 726.2451
739.0160, 725.5872
739.4981, 723.7274
739.9802, 723.3955
740.4623, 724.6762
740.9445, 726.5140
741.4266, 728.4861
741.9087, 730.2327
742.3908, 731.1182
742.8729, 731.0906
743.3550, 730.4114
743.8372, 728.2767
744.3193, 726.4447
744.8014, 725.2504
745.2835, 724.6711
745.7656, 725.0426
746.2477, 726.2920
746.7299, 726.9116
747.2120, 725.3967
747.6941, 723.3380
748.1762, 722.6594
748.6583, 723.0110
749.1404, 723.3408
749.6226, 723.3416
750.1047, 722.9720
750.5868, 722.1498
751.0689, 720.9167
751.5510, 719.6174
752.0331, 717.8571
752.5153, 716.8092
752.9974, 717.7748
753.4795, 718.5260
753.9616, 717.1292
754.4437, 714.2982
754.9258, 712.4379
755.4080, 712.5433
755.8901, 713.2377
756.3722, 714.0807
756.8543, 714.6801
757.3364, 714.0126
757.8185, 712.3090
758.3007, 711.3661
758.7828, 712.3609
759.2649, 714.2172
759.7470, 714.5563
760.2291, 713.0489
760.7112, 711.5636
761.1934, 709.7571
761.6755, 708.5775
762.1576, 708.4218
762.6397, 709.1678
763.1218, 711.2269
763.6039, 714.9406
764.0861, 717.1198
764.5682, 715.6575
765.0503, 713.1879
765.5324, 711.2434
766.0145, 709.9841
766.4966, 709.7335
766.9788, 710.4566
767.4609, 711.1819
767.9430, 710.9762
768.4251, 709.9092
768.9072, 707.9188
769.3893, 704.4948
769.8715, 703.0329
770.3536, 705.5273
770.8357, 708.5770
771.3178, 708.7364
771.7999, 706.5889
772.2820, 705.1534
772.7642, 704.8590
773.2463, 704.9393
773.7284, 705.7112
774.2105, 706.3663
774.6926, 705.7859
775.1747, 704.4285
775.6569, 703.8568
776.1390, 704.9122
776.6211, 706.4495
777.1032, 707.1678
777.5853, 707.0410
778.0674, 705.4186
778.5496, 701.9665
779.0317, 699.6262
779.5138, 700.0455
779.9959, 702.0760
780.4780, 703.8268
780.9601, 705.3455
781.4423, 706.3500
781.9244, 706.8329
782.4065, 706.8420
782.8886, 706.3601
783.3707, 705.4288
783.8528, 703.7932
784.3350, 701.6175
784.8171, 699.8242
785.2992, 698.7042
785.7813, 698.5488
786.2634, 700.9329
786.7455, 704.6272
787.2277, 704.9636
787.7098, 701.0773
788.1919, 697.1457
788.6740, 696.5488
789.1561, 698.3094
789.6382, 698.7422
790.1204, 696.7513
790.6025, 696.0756
791.0846, 697.5391
791.5667, 699.6768
792.0488, 703.0936
792.5309, 706.2998
793.0131, 706.5754
793.4952, 703.0380
793.9773, 699.8955
794.4594, 699.7814
794.9415, 700.3692
795.4236, 699.3885
795.9058, 697.3522
796.3879, 695.4831
796.8700, 694.2379
797.3521, 693.9583
797.8342, 695.3721
798.3163, 697.8972
798.7985, 698.1998
799.2806, 695.7819
799.7627, 694.0310
800.2448, 693.8358
800.7269, 694.3055
801.2090, 695.1580
801.6912, 696.0931
802.1733, 695.6262
802.6554, 692.3210
803.1375, 689.8849
803.6196, 689.3463
804.1017, 689.5917
804.5839, 689.6073
805.0660, 689.8188
805.5481, 691.8970
806.0302, 696.4933
806.5123, 700.0612
806.9944, 697.7401
807.4766, 692.1170
807.9587, 689.6824
808.4408, 690.3748
808.9229, 690.7330
809.4050, 689.4492
809.8871, 687.7756
810.3693, 687.2828
810.8514, 687.9548
811.3335, 687.8303
811.8156, 685.9064
812.2977, 684.8713
812.7798, 685.6633
813.2620, 686.9329
813.7441, 688.1324
814.2262, 689.0663
814.7083, 689.2747
815.1904, 688.2681
815.6725, 687.4310
816.1547, 687.5617
816.6368, 688.2461
817.1189, 689.5314
817.6010, 690.9337
818.0831, 690.8587
818.5652, 688.6725
819.0474, 686.3245
819.5295, 686.7870
820.0116, 689.6176
820.4937, 690.4181
820.9758, 688.7091
821.4579, 688.0060
821.9401, 690.0791
822.4222, 692.4025
822.9043, 692.1425
823.3864, 689.4008
823.8685, 687.1721
824.3506, 685.8289
824.8328, 684.4732
825.3149, 682.4349
825.7970, 680.8218
826.2791, 680.7127
826.7612, 681.6390
827.2433, 682.4785
827.7255, 682.8644
828.2076, 682.8439
828.6897, 682.0576
829.1718, 681.0979
829.6539, 681.3917
830.1360, 682.5631
830.6182, 682.3963
831.1003, 680.0400
831.5824, 677.3948
832.0645, 676.8679
832.5466, 678.2275
833.0287, 678.5714
833.5109, 677.4407
833.9930, 676.6676
834.4751, 676.8188
834.9572, 677.1965
835.4393, 677.3931
835.9214, 677.3654
836.4036, 676.8749
836.8857, 675.2669
837.3678, 674.4855
837.8499, 676.1522
838.3320, 677.7414
838.8141, 677.1396
839.2963, 675.1859
839.7784, 673.4596
840.2605, 672.5007
840.7426, 672.2493
841.2247, 672.9203
841.7068, 674.1357
842.1890, 675.3657
842.6711, 676.5222
843.1532, 677.0304
843.6353, 676.7363
844.1174, 675.9436
844.5995, 674.7852
845.0817, 673.4998
845.5638, 673.4172
846.0459, 675.5239
846.5280, 675.9562
847.0101, 672.5827
847.4922, 669.9097
847.9744, 671.2396
848.4565, 674.2811
848.9386, 675.5800
849.4207, 674.7160
849.9028, 673.2617
850.3849, 670.6481
850.8671, 668.6307
851.3492, 668.8484
851.8313, 669.9921
852.3134, 670.1412
852.7955, 669.1428
853.2776, 668.3729
853.7598, 668.9196
854.2419, 669.8088
854.7240, 669.0382
855.2061, 667.2681
855.6882, 667.6998
856.1703, 670.6591
856.6525, 672.6331
857.1346, 671.4401
857.6167, 668.9041
858.0988, 668.6359
858.5809, 671.1571
859.0630, 672.4677
859.5452, 672.3315
860.0273, 671.3920
860.5094, 668.8533
860.9915, 666.3767
861.4736, 665.2418
861.9557, 665.4515
862.4379, 666.8635
862.9200, 671.2002
863.4021, 674.2891
863.8842, 673.6824
864.3663, 672.0589
864.8484, 671.4719
865.3306, 671.9122
865.8127, 673.0647
866.2948, 674.7903
866.7769, 675.6599
867.2590, 673.2037
867.7411, 669.3024
868.2233, 668.0117
868.7054, 669.0541
869.1875, 670.8295
869.6696, 672.8984
870.1517, 674.0090
870.6339, 672.7009
871.1160, 669.7751
871.5981, 669.1288
872.0802, 671.7609
872.5623, 672.9375
873.0444, 671.1915
873.5266, 669.6505
874.0087, 670.6359
874.4908, 672.6885
874.9729, 673.1019
875.4550, 671.6356
875.9371, 669.9044
876.4193, 667.4668
876.9014, 665.5855
877.3835, 665.3270
877.8656, 665.5479
878.3477, 664.6432
878.8298, 662.8962
879.3120, 662.3426
879.7941, 664.5676
880.2762, 666.7867
880.7583, 665.8193
881.2404, 663.2105
881.7225, 661.4461
882.2047, 660.7248
882.6868, 660.8314
883.1689, 661.6670
883.6510, 662.4891
884.1331, 662.0292
884.6152, 660.6818
885.0974, 662.0582
885.5795, 666.7959
886.0616, 669.5886
886.5437, 669.0756
887.0258, 666.5468
887.5079, 662.3076
887.9901, 657.0782
888.4722, 653.7346
888.9543, 653.2781
889.4364, 652.8249
889.9185, 651.9094
890.4006, 651.5422
890.8828, 653.1514
891.3649, 654.9365
891.8470, 654.5468
892.3291, 651.8308
892.8112, 648.8173
893.2933, 645.4346
893.7755, 643.0010
894.2576, 643.1777
894.7397, 644.2527
895.2218, 643.8438
895.7039, 642.1941
896.1860, 641.1933
896.6682, 641.7571
897.1503, 642.8996
897.6324, 643.7506
898.1145, 644.1549
898.5966, 643.2690
899.0787, 641.2701
899.5609, 640.1299
900.0430, 640.5098
900.5251, 641.2225
901.0072, 641.1393
901.4893, 640.3980
901.9714, 639.7020
902.4536, 639.1622
902.9357, 638.1995
903.4178, 636.3918
903.8999, 634.8209
904.3820, 633.9864
904.8641, 633.7903
905.3463, 634.3347
905.8284, 635.8364
906.3105, 636.3184
906.7926, 634.8724
907.2747, 633.3890
907.7568, 632.0932
908.2390, 631.2889
908.7211, 631.8627
909.2032, 633.1214
909.6853, 632.8807
910.1674, 629.9573
910.6495, 627.1381
911.1317, 626.4205
911.6138, 625.2778
912.0959, 626.3807
912.5780, 625.9844
913.0601, 626.9459
913.5422, 629.4058
914.0244, 631.1046
914.5065, 629.7892
914.9886, 626.9652
915.4707, 625.9387
915.9528, 626.3922
916.4349, 626.1689
916.9171, 624.9667
917.3992, 624.2137
917.8813, 624.7739
918.3634, 625.8447
918.8455, 625.9954
919.3276, 626.4551
919.8098, 627.0858
920.2919, 626.6625
920.7740, 627.5388
921.2561, 627.2324
921.7382, 626.2213
922.2203, 624.5709
922.7025, 622.5233
923.1846, 620.9803
923.6667, 619.9235
924.1488, 619.4052
924.6309, 619.7709
925.1130, 620.2939
925.5952, 620.5074
926.0773, 620.7763
926.5594, 622.2146
927.0415, 624.5020
927.5236, 624.7619
928.0057, 619.7819
928.4879, 615.4102
928.9700, 616.3156
929.4521, 619.3161
929.9342, 620.9541
930.4163, 621.2366
930.8984, 621.4302
931.3806, 622.0076
931.8627, 622.4172
932.3448, 621.5533
932.8269, 620.4539
933.3090, 621.9246
933.7911, 625.1892
934.2733, 626.6632
934.7554, 625.7326
935.2375, 624.8204
935.7196, 625.6478
936.2017, 624.2210
936.6838, 626.2881
937.1660, 623.1441
937.6481, 621.7125
938.1302, 622.4229
938.6123, 622.8866
939.0944, 621.8965
939.5765, 621.3015
940.0587, 623.2169
940.5408, 627.2455
941.0229, 630.3812
941.5050, 631.9686
941.9871, 633.8616
942.4692, 636.4630
942.9514, 638.9642
943.4335, 641.2244
943.9156, 643.0880
944.3977, 644.1616
944.8798, 644.4469
945.3619, 645.0882
945.8441, 645.6273
946.3262, 647.4603
946.8083, 651.7170
947.2904, 656.9078
947.7725, 662.3309
948.2546, 667.5651
948.7368, 671.8069
949.2189, 674.8073
949.7010, 678.1293
950.1831, 682.8367
950.6652, 688.3853
951.1473, 693.4722
951.6295, 699.3337
952.1116, 708.8912
952.5937, 721.8240
953.0758, 734.3273
953.5579, 744.1901
954.0400, 757.1977
954.5222, 766.1545
955.0043, 780.5812
955.4864, 792.9654
955.9685, 803.5801
956.4506, 816.0789
956.9327, 831.5410
957.4149, 847.7902
957.8970, 862.8539
958.3791, 880.3270
958.8612, 898.1556
959.3433, 915.7440
959.8254, 935.7980
960.3076, 954.8234
960.7897, 974.2977
961.2718, 994.2614
961.7539, 1016.039
962.2360, 1041.450
962.7181, 1070.425
963.2003, 1099.322
963.6824, 1129.225
964.1645, 1156.836
964.6466, 1181.609
965.1287, 1204.334
965.6108, 1225.665
966.0930, 1244.993
966.5751, 1262.707
967.0572, 1279.507
967.5393, 1286.581
968.0214, 1280.311
968.5035, 1267.723
968.9857, 1250.916
969.4678, 1228.327
969.9499, 1196.738
970.4320, 1158.710
970.9141, 1118.408
971.3962, 1076.498
971.8784, 1037.111
972.3605, 1003.396
972.8426, 971.9552
973.3247, 939.9613
973.8068, 909.2547
974.2889, 881.7797
974.7711, 857.8156
975.2532, 836.6943
975.7353, 818.2394
976.2174, 801.6454
976.6995, 786.0857
977.1816, 772.0172
977.6638, 759.9918
978.1459, 750.0023
978.6280, 742.8203
979.1101, 738.0283
979.5922, 732.6393
980.0743, 724.4138
980.5565, 715.2509
981.0386, 707.8523
981.5207, 702.1971
982.0028, 699.0789
982.4849, 698.1257
982.9670, 695.6390
983.4492, 690.3695
983.9313, 684.3723
984.4134, 679.4779
984.8955, 675.5432
985.3776, 672.1638
985.8597, 669.3481
986.3419, 666.6028
986.8240, 663.7463
987.3061, 661.9581
987.7882, 662.0361
988.2703, 662.4574
988.7524, 661.1312
989.2346, 658.3797
989.7167, 658.0228
990.1988, 661.6927
990.6809, 662.5493
991.1630, 658.1762
991.6451, 654.2784
992.1273, 653.5591
992.6094, 655.0872
993.0915, 658.1176
993.5736, 662.8604
994.0557, 665.0939
994.5378, 662.3109
995.0200, 660.6827
995.5021, 660.7377
995.9842, 662.1267
996.4663, 665.4536
996.9484, 669.6599
997.4305, 673.0616
997.9127, 675.4747
998.3948, 677.7101
998.8769, 679.2831
999.3590, 681.5302
999.8411, 685.7219
1000.323, 689.9627
1000.805, 692.2627
1001.287, 693.6208
1001.770, 696.3264
1002.252, 700.9402
1002.734, 705.4702
1003.216, 709.0777
1003.698, 712.3588
1004.180, 714.7518
1004.662, 717.6613
1005.144, 723.1196
1005.627, 730.3854
1006.109, 737.2074
1006.591, 742.8299
1007.073, 747.5307
1007.555, 750.7520
1008.037, 753.8319
1008.519, 758.3636
1009.001, 763.4576
1009.483, 767.5977
1009.966, 770.7780
1010.448, 773.9743
1010.930, 777.6390
1011.412, 780.9439
1011.894, 782.8301
1012.376, 783.9515
1012.858, 785.5021
1013.340, 787.1107
1013.823, 788.3076
1014.305, 788.6603
1014.787, 786.4865
1015.269, 780.7286
1015.751, 773.5748
1016.233, 768.3107
1016.715, 763.9379
1017.197, 757.7000
1017.679, 749.7489
1018.162, 740.3810
1018.644, 729.8445
1019.126, 719.8774
1019.608, 711.7425
1020.090, 704.3555
1020.572, 695.8329
1021.054, 686.3435
1021.536, 675.8998
1022.018, 664.6755
1022.501, 657.6931
1022.983, 656.3288
1023.465, 655.2677
1023.947, 650.4603
1024.429, 644.0334
1024.911, 640.8264
1025.393, 640.9330
1025.875, 639.4504
1026.358, 636.2791
1026.840, 631.9561
1027.322, 626.1193
1027.804, 621.4626
1028.286, 620.1468
1028.768, 621.3606
1029.250, 623.2319
1029.732, 625.8594
1030.214, 628.5527
1030.697, 631.8894
1031.179, 633.0801
1031.661, 630.7208
1032.143, 627.5873
1032.625, 625.8289
1033.107, 624.9323
1033.589, 623.3441
1034.071, 620.6215
1034.553, 619.2171
1035.036, 619.4382
1035.518, 620.3283
1036.000, 621.9664
1036.482, 623.7822
1036.964, 625.8788
1037.446, 627.5994
1037.928, 626.7885
1038.410, 622.4127
1038.893, 619.1390
1039.375, 617.2138
1039.857, 616.0541
1040.339, 617.1265
1040.821, 617.2455
1041.303, 612.5826
1041.785, 605.2973
1042.267, 601.8979
1042.750, 603.9736
1043.232, 604.6111
1043.714, 601.7018
1044.196, 600.1109
1044.678, 602.8899
1045.160, 605.5300
1045.642, 604.2569
1046.124, 600.4041
1046.606, 596.9547
1047.089, 593.5884
1047.571, 592.8173
1048.053, 597.4043
1048.535, 601.2411
1049.017, 602.4501
1049.499, 602.5360
1049.981, 602.4324
1050.463, 602.1696
1050.945, 601.7600
1051.428, 601.3127
1051.910, 600.0342
1052.392, 595.6717
1052.874, 593.2884
1053.356, 596.9107
1053.838, 600.8508
1054.320, 600.5858
1054.802, 597.3684
1055.285, 594.1554
1055.767, 591.4248
1056.249, 588.3337
1056.731, 583.3267
1057.213, 579.7081
1057.695, 579.9164
1058.177, 580.8137
1058.659, 580.5059
1059.141, 578.8824
1059.624, 575.7239
1060.106, 571.0058
1060.588, 566.9852
1061.070, 564.3080
1061.552, 562.5544
1062.034, 562.3598
1062.516, 562.2725
1062.998, 560.8316
1063.480, 558.8445
1063.963, 557.9731
1064.445, 558.4142
1064.927, 558.4693
1065.409, 557.3223
1065.891, 555.9343
1066.373, 554.5491
1066.855, 553.2148
1067.337, 551.8895
1067.820, 550.6782
1068.302, 549.7990
1068.784, 549.2382
1069.266, 548.5643
1069.748, 547.0956
1070.230, 546.3983
1070.712, 548.0329
1071.194, 549.8132
1071.677, 550.4482
1072.159, 549.9672
1072.641, 548.0966
1073.123, 545.1926
1073.605, 543.0300
1074.087, 542.2468
1074.569, 542.2999
1075.051, 544.3479
1075.533, 545.6569
1076.016, 542.8704
1076.498, 539.0543
1076.980, 538.8115
1077.462, 541.6675
1077.944, 543.3286
1078.426, 542.1029
1078.908, 540.4901
1079.390, 538.8223
1079.873, 538.0809
1080.355, 539.5641
1080.837, 541.8812
1081.319, 543.9225
1081.801, 545.2481
1082.283, 544.9422
1082.765, 542.3763
1083.247, 540.5403
1083.729, 540.9985
1084.212, 542.3184
1084.694, 544.8611
1085.176, 546.8858
1085.658, 546.2760
1086.140, 543.7797
1086.622, 541.2367
1087.104, 539.0383
1087.586, 537.8749
1088.068, 538.3502
1088.551, 539.5281
1089.033, 541.9790
1089.515, 543.9919
1089.997, 544.0703
1090.479, 542.5955
1090.961, 539.9634
1091.443, 536.4025
1091.925, 534.1539
1092.408, 534.0905
1092.890, 535.4572
1093.372, 539.5934
1093.854, 543.3678
1094.336, 544.8834
1094.818, 544.3655
1095.300, 541.5320
1095.782, 536.9211
1096.265, 533.9433
1096.747, 534.5502
1097.229, 535.0012
1097.711, 533.3381
1098.193, 531.9705
1098.675, 533.1357
1099.157, 534.7919
1099.639, 534.1953
1100.121, 531.7449
1100.604, 530.0097
1101.086, 529.4305
1101.568, 529.8743
1102.050, 531.8863
1102.532, 534.1873
1103.014, 537.7868
1103.496, 540.0883
1103.978, 537.4667
1104.460, 531.9041
1104.943, 528.7026
1105.425, 528.8600
1105.907, 529.7919
1106.389, 531.4821
1106.871, 533.2687
1107.353, 535.2175
1107.835, 536.9446
1108.317, 537.9051
1108.800, 538.5865
1109.282, 540.4153
1109.764, 543.6165
1110.246, 543.9254
1110.728, 538.0943
1111.210, 533.6590
1111.692, 532.9471
1112.174, 532.3089
1112.656, 529.4872
1113.139, 526.1039
1113.621, 524.4255
1114.103, 524.2619
1114.585, 523.2043
1115.067, 519.6418
1115.549, 518.0799
1116.031, 519.5985
1116.513, 521.6313
1116.995, 524.3282
1117.478, 526.2272
1117.960, 525.7932
1118.442, 523.5948
1118.924, 521.2460
1119.406, 518.1985
1119.888, 517.3324
1120.370, 520.2751
1120.852, 522.0060
1121.335, 521.3289
1121.817, 519.3195
1122.299, 515.7674
1122.781, 512.3648
1123.263, 512.6320
1123.745, 516.6847
1124.227, 518.1288
1124.709, 515.9239
1125.192, 514.8597
1125.674, 515.8016
1126.156, 517.0912
1126.638, 518.1086
1127.120, 518.7684
1127.602, 518.9448
1128.084, 518.6923
1128.566, 518.3114
1129.048, 517.8329
1129.531, 516.6275
1130.013, 514.3666
1130.495, 513.9722
1130.977, 516.7107
1131.459, 519.1527
1131.941, 518.3703
1132.423, 515.8657
1132.905, 515.0147
1133.387, 515.6683
1133.870, 515.0828
1134.352, 513.3419
1134.834, 512.9550
1135.316, 514.3927
1135.798, 516.2986
1136.280, 517.9663
1136.762, 519.2776
1137.244, 520.1258
1137.727, 520.4598
1138.209, 519.6284
1138.691, 518.1375
1139.173, 518.8444
1139.655, 521.4232
1140.137, 521.7365
1140.619, 518.5920
1141.101, 516.1627
1141.583, 518.2367
1142.066, 516.4742
1142.548, 520.6454
1143.030, 517.7197
1143.512, 517.8751
1143.994, 520.1873
1144.476, 521.5851
1144.958, 521.5576
1145.440, 521.0782
1145.922, 520.5940
1146.405, 520.4812
1146.887, 521.9192
1147.369, 523.1266
1147.851, 521.7973
1148.333, 519.0789
1148.815, 516.1171
1149.297, 513.4910
1149.779, 512.1080
1150.262, 512.1560
1150.744, 512.6771
1151.226, 513.7396
1151.708, 514.1121
1152.190, 511.8159
1152.672, 509.6781
1153.154, 510.6566
1153.636, 513.0296
1154.119, 514.4830
1154.601, 514.6696
1155.083, 513.7351
1155.565, 511.2250
1156.047, 509.3642
1156.529, 509.1901
1157.011, 509.4139
1157.493, 509.6471
1157.975, 509.8791
1158.458, 510.1735
1158.940, 510.4521
1159.422, 510.6697
1159.904, 510.8633
1160.386, 510.3405
1160.868, 508.1812
1161.350, 506.6276
1161.832, 506.1285
1162.314, 505.9956
1162.797, 505.9859
1163.279, 506.2165
1163.761, 507.3076
1164.243, 508.7085
1164.725, 507.4925
1165.207, 507.1460
1165.689, 507.1433
1166.171, 503.7580
1166.654, 505.5151
1167.136, 502.9707
1167.618, 500.1995
1168.100, 499.7883
1168.582, 501.0137
1169.064, 502.9157
1169.546, 505.2957
1170.028, 506.2028
1170.510, 505.6082
1170.993, 504.4417
1171.475, 502.7797
1171.957, 501.9586
1172.439, 502.5076
1172.921, 502.9491
1173.403, 501.9051
1173.885, 500.0381
1174.367, 498.2406
1174.849, 496.8137
1175.332, 497.1128
1175.814, 498.7586
1176.296, 500.4421
1176.778, 501.7766
1177.260, 502.2024
1177.742, 501.4620
1178.224, 500.6336
1178.706, 500.5295
1179.189, 501.1695
1179.671, 503.4987
1180.153, 505.9550
1180.635, 506.0446
1181.117, 504.3462
1181.599, 502.4448
1182.081, 500.7180
1182.563, 498.6395
1183.046, 495.4646
1183.528, 493.6206
1184.010, 495.2598
1184.492, 497.8983
1184.974, 500.5106
1185.456, 502.7010
1185.938, 504.7289
1186.420, 505.9161
1186.902, 504.3958
1187.385, 499.7223
1187.867, 495.7760
1188.349, 492.0424
1188.831, 490.9906
1189.313, 495.6187
1189.795, 499.9699
1190.277, 500.7135
1190.759, 500.2061
1191.241, 501.0697
1191.724, 502.6363
1192.206, 502.1875
1192.688, 499.1509
1193.170, 496.3652
1193.652, 493.3719
1194.134, 492.2821
1194.616, 494.0689
1195.098, 495.9714
1195.581, 496.4529
1196.063, 496.2625
1196.545, 496.5388
1197.027, 496.9223
1197.509, 495.4001
1197.991, 492.1687
1198.473, 490.5553
1198.955, 490.6698
1199.438, 491.2515
1199.920, 491.8803
1200.402, 491.8190
1200.884, 490.4940
1201.366, 489.1302
1201.848, 489.5953
1202.330, 490.9795
1202.812, 491.7150
1203.294, 491.9566
1203.776, 491.9645
1204.259, 491.8116
1204.741, 491.3149
1205.223, 490.5870
1205.705, 490.8957
1206.187, 493.8159
1206.669, 495.7036
1207.151, 492.4481
1207.633, 488.9033
1208.116, 489.3354
1208.598, 491.2956
1209.080, 492.0454
1209.562, 491.6117
1210.044, 490.8329
1210.526, 489.8164
1211.008, 488.9786
1211.490, 488.3041
1211.973, 487.9360
1212.455, 488.5311
1212.937, 488.6073
1213.419, 486.5925
1213.901, 484.7655
1214.383, 485.9535
1214.865, 488.9525
1215.347, 489.5976
1215.829, 487.5456
1216.312, 485.2558
1216.794, 482.3668
1217.276, 481.5224
1217.758, 483.6099
1218.240, 484.6967
1218.722, 482.6077
1219.204, 480.7377
1219.686, 483.2902
1220.168, 487.9654
1220.651, 488.6156
1221.133, 486.2631
1221.615, 484.7713
1222.097, 484.2115
1222.579, 484.1099
1223.061, 484.2867
1223.543, 484.4048
1224.025, 484.3052
1224.508, 484.5690
1224.990, 486.4818
1225.472, 488.0274
1225.954, 486.4377
1226.436, 483.9922
1226.918, 483.6050
1227.400, 484.1201
1227.882, 482.9395
1228.365, 480.2799
1228.847, 478.9656
1229.329, 480.2813
1229.811, 480.8291
1230.293, 478.7015
1230.775, 477.0050
1231.257, 476.9881
1231.739, 477.4636
1232.221, 478.0630
1232.703, 478.4113
1233.186, 477.6515
1233.668, 476.1510
1234.150, 476.5978
1234.632, 476.7605
1235.114, 476.9557
1235.596, 479.0820
1236.078, 478.5773
1236.560, 480.9663
1237.043, 482.3611
1237.525, 480.3766
1238.007, 477.2653
1238.489, 476.0287
1238.971, 475.7711
1239.453, 473.2563
1239.935, 473.7283
1240.417, 474.2541
1240.900, 473.9480
1241.382, 476.4214
1241.864, 476.9669
1242.346, 477.2186
1242.828, 477.9770
1243.310, 478.4611
1243.792, 477.7388
1244.274, 476.8578
1244.756, 476.8617
1245.239, 476.9125
1245.721, 475.9755
1246.203, 474.6566
1246.685, 474.0082
1247.167, 473.9970
1247.649, 473.8012
1248.131, 473.2007
1248.613, 472.6776
1249.095, 471.6888
1249.578, 471.7778
1250.060, 474.2837
1250.542, 476.1768
1251.024, 475.7552
1251.506, 474.2612
1251.988, 473.1566
1252.470, 472.2422
1252.952, 470.4116
1253.435, 467.5886
1253.917, 467.1128
1254.399, 468.9472
1254.881, 471.0069
1255.363, 472.7758
1255.845, 472.5605
1256.327, 469.6585
1256.809, 467.6045
1257.292, 470.3663
1257.774, 474.2822
1258.256, 474.0880
1258.738, 472.0481
1259.220, 470.3646
1259.702, 469.8224
1260.184, 472.7840
1260.666, 477.6124
1261.148, 478.5514
1261.630, 474.0038
1262.113, 470.7021
1262.595, 472.5970
1263.077, 473.8384
1263.559, 472.0046
1264.041, 470.0934
1264.523, 469.5143
1265.005, 469.5597
1265.487, 469.7846
1265.970, 470.0369
1266.452, 469.9321
1266.934, 469.4637
1267.416, 469.1501
1267.898, 468.9833
1268.380, 469.2072
1268.862, 469.9042
1269.344, 469.7212
1269.827, 468.2059
1270.309, 466.9883
1270.791, 467.3255
1271.273, 467.9065
1271.755, 466.1306
1272.237, 463.8802
1272.719, 465.5834
1273.201, 464.5555
1273.683, 468.5716
1274.166, 466.2354
1274.648, 466.2630
1275.130, 468.8166
1275.612, 469.3634
1276.094, 465.5087
1276.576, 462.6892
1277.058, 464.0694
1277.540, 465.4908
1278.022, 464.9427
1278.505, 464.3638
1278.987, 465.3213
1279.469, 466.7555
1279.951, 467.6043
1280.433, 467.8302
1280.915, 467.0711
1281.397, 465.0600
1281.879, 465.2110
1282.362, 467.8913
1282.844, 468.0316
1283.326, 464.7654
1283.808, 462.4783
1284.290, 462.9647
1284.772, 464.0921
1285.254, 463.9157
1285.736, 462.4295
##END=



