##NAMES=Eosphorite
##RRUFFID=R061055
##IDEAL CHEMISTRY=Mn^2+^AlPO_4_(OH)_2_&#183;H_2_O
##LOCALITY=Mendes Pimental Pegmatite, Minas Gerais, Brazil
##OWNER=RRUFF
##SOURCE=Royal Ontario Museum
##DESCRIPTION=Brown pyramidal crystal
##STATUS=The identification of this mineral has been confirmed by X-ray diffraction and chemical analysis
##URL=rruff.info/R061055
##MEASURED CHEMISTRY=(Mn^2+^_0.78_Fe_0.21_Ca_0.01_)_Σ=1_Al_1.00_P_1.00_O_4_((OH)_1.85_F_0.15_)_Σ=2_·H_2_O; H_2_O estimated by difference; OH by charge balance
186.1257, 6402.111
186.6079, 6401.550
187.0900, 6410.085
187.5721, 6427.737
188.0542, 6451.265
188.5363, 6479.507
189.0184, 6511.943
189.5006, 6547.742
189.9827, 6590.009
190.4648, 6633.739
190.9469, 6663.295
191.4290, 6676.958
191.9111, 6685.804
192.3932, 6699.616
192.8754, 6718.326
193.3575, 6739.779
193.8396, 6763.436
194.3217, 6789.537
194.8038, 6819.798
195.2859, 6856.258
195.7681, 6890.735
196.2502, 6910.865
196.7323, 6915.441
197.2144, 6924.272
197.6965, 6948.072
198.1786, 6986.070
198.6608, 7013.974
199.1429, 7028.294
199.6250, 7038.460
200.1071, 7062.407
200.5892, 7102.875
201.0714, 7139.678
201.5535, 7160.074
202.0356, 7161.921
202.5177, 7174.447
202.9998, 7202.719
203.4819, 7236.845
203.9641, 7252.409
204.4462, 7245.074
204.9283, 7234.712
205.4104, 7234.101
205.8925, 7246.475
206.3746, 7248.382
206.8568, 7236.902
207.3389, 7214.803
207.8210, 7187.913
208.3031, 7151.624
208.7852, 7123.059
209.2673, 7120.672
209.7495, 7156.911
210.2316, 7166.718
210.7137, 7134.271
211.1958, 7069.813
211.6779, 7024.506
212.1600, 7001.127
212.6422, 6990.916
213.1243, 6989.388
213.6064, 7000.047
214.0885, 7007.954
214.5706, 7011.204
215.0527, 7009.574
215.5349, 7000.271
216.0170, 6976.494
216.4991, 6954.524
216.9812, 6952.016
217.4633, 6978.216
217.9454, 6999.156
218.4276, 7006.663
218.9097, 7000.365
219.3918, 6995.899
219.8739, 6994.656
220.3560, 6993.979
220.8381, 6990.514
221.3203, 6982.680
221.8024, 6976.218
222.2845, 6972.989
222.7666, 6973.492
223.2487, 6974.572
223.7308, 6977.571
224.2129, 6980.254
224.6951, 6979.082
225.1772, 6971.497
225.6593, 6964.915
226.1414, 6962.532
226.6235, 6966.646
227.1056, 6962.444
227.5878, 6940.529
228.0699, 6915.955
228.5520, 6916.578
229.0341, 6962.915
229.5162, 6999.313
229.9983, 7003.984
230.4805, 6963.606
230.9626, 6932.773
231.4447, 6911.634
231.9268, 6900.274
232.4089, 6901.660
232.8910, 6929.739
233.3732, 6948.979
233.8553, 6943.053
234.3374, 6897.122
234.8195, 6861.996
235.3016, 6837.813
235.7837, 6824.506
236.2659, 6823.961
236.7480, 6847.587
237.2301, 6867.725
237.7122, 6869.487
238.1943, 6835.612
238.6764, 6821.807
239.1586, 6837.095
239.6407, 6872.491
240.1228, 6898.193
240.6049, 6909.564
241.0870, 6917.934
241.5691, 6928.135
242.0513, 6937.781
242.5334, 6954.478
243.0155, 6982.019
243.4976, 7016.785
243.9797, 7044.204
244.4618, 7060.168
244.9440, 7073.227
245.4261, 7088.189
245.9082, 7106.753
246.3903, 7122.565
246.8724, 7132.338
247.3545, 7138.349
247.8367, 7154.100
248.3188, 7188.172
248.8009, 7220.620
249.2830, 7238.123
249.7651, 7233.606
250.2472, 7230.061
250.7294, 7228.621
251.2115, 7229.967
251.6936, 7237.917
252.1757, 7256.448
252.6578, 7277.175
253.1399, 7297.701
253.6220, 7328.091
254.1042, 7334.227
254.5863, 7300.844
255.0684, 7235.261
255.5505, 7199.366
256.0326, 7204.540
256.5147, 7223.963
256.9969, 7239.305
257.4790, 7250.716
257.9611, 7256.631
258.4432, 7254.904
258.9253, 7246.275
259.4074, 7240.856
259.8896, 7240.927
260.3717, 7240.389
260.8538, 7234.339
261.3359, 7221.582
261.8180, 7205.228
262.3001, 7181.839
262.7823, 7153.334
263.2644, 7141.954
263.7465, 7158.162
264.2286, 7175.033
264.7107, 7166.510
265.1928, 7122.943
265.6750, 7084.649
266.1571, 7058.202
266.6392, 7043.133
267.1213, 7032.714
267.6034, 7029.294
268.0855, 7026.813
268.5677, 7020.414
269.0498, 7010.235
269.5319, 6995.797
270.0140, 6974.738
270.4961, 6948.595
270.9782, 6930.281
271.4604, 6921.347
271.9425, 6916.793
272.4246, 6912.368
272.9067, 6908.058
273.3888, 6903.085
273.8709, 6893.137
274.3531, 6881.265
274.8352, 6895.537
275.3173, 6945.585
275.7994, 6996.575
276.2815, 7010.943
276.7636, 6983.272
277.2458, 6962.448
277.7279, 6961.702
278.2100, 6976.509
278.6921, 6978.999
279.1742, 6965.352
279.6563, 6952.058
280.1385, 6955.485
280.6206, 6976.131
281.1027, 7000.912
281.5848, 7030.310
282.0669, 7061.012
282.5490, 7078.829
283.0312, 7083.319
283.5133, 7077.400
283.9954, 7056.106
284.4775, 7019.705
284.9596, 7000.422
285.4417, 7010.671
285.9239, 7041.336
286.4060, 7061.247
286.8881, 7069.233
287.3702, 7074.987
287.8523, 7086.435
288.3344, 7103.333
288.8166, 7122.997
289.2987, 7146.794
289.7808, 7171.754
290.2629, 7190.281
290.7450, 7202.061
291.2271, 7209.625
291.7093, 7212.894
292.1914, 7212.965
292.6735, 7215.565
293.1556, 7222.863
293.6377, 7232.799
294.1198, 7237.844
294.6020, 7238.392
295.0841, 7247.101
295.5662, 7289.296
296.0483, 7350.800
296.5304, 7381.204
297.0125, 7353.118
297.4947, 7307.311
297.9768, 7315.604
298.4589, 7373.313
298.9410, 7433.249
299.4231, 7451.705
299.9052, 7445.915
300.3873, 7454.505
300.8694, 7493.909
301.3516, 7538.927
301.8337, 7556.261
302.3158, 7549.166
302.7979, 7538.703
303.2800, 7535.671
303.7621, 7539.029
304.2443, 7548.778
304.7264, 7568.986
305.2085, 7587.830
305.6906, 7596.146
306.1727, 7594.059
306.6548, 7582.232
307.1370, 7549.487
307.6191, 7511.983
308.1012, 7490.631
308.5833, 7496.148
309.0654, 7505.580
309.5475, 7504.384
310.0297, 7493.734
310.5118, 7476.541
310.9939, 7448.798
311.4760, 7418.391
311.9581, 7392.156
312.4402, 7372.978
312.9224, 7354.489
313.4045, 7329.169
313.8866, 7301.358
314.3687, 7281.326
314.8508, 7287.091
315.3329, 7293.236
315.8151, 7281.074
316.2972, 7241.285
316.7793, 7202.395
317.2614, 7178.704
317.7435, 7163.601
318.2256, 7145.223
318.7078, 7103.471
319.1899, 7070.211
319.6720, 7067.290
320.1541, 7108.985
320.6362, 7135.799
321.1183, 7120.563
321.6005, 7082.573
322.0826, 7049.050
322.5647, 7020.539
323.0468, 7002.050
323.5289, 6998.356
324.0110, 7013.915
324.4932, 7025.325
324.9753, 7021.570
325.4574, 7014.436
325.9395, 7017.162
326.4216, 7047.243
326.9037, 7070.938
327.3859, 7081.757
327.8680, 7079.114
328.3501, 7065.758
328.8322, 7028.848
329.3143, 6988.556
329.7964, 6963.106
330.2786, 6962.297
330.7607, 6963.836
331.2428, 6965.560
331.7249, 6967.555
332.2070, 6966.193
332.6891, 6957.980
333.1713, 6949.895
333.6534, 6949.156
334.1355, 6965.048
334.6176, 6968.484
335.0997, 6949.042
335.5818, 6911.244
336.0640, 6889.637
336.5461, 6884.693
337.0282, 6894.960
337.5103, 6925.089
337.9924, 6983.761
338.4745, 7025.668
338.9567, 7043.613
339.4388, 7041.599
339.9209, 7034.310
340.4030, 7022.830
340.8851, 7002.495
341.3672, 6962.234
341.8494, 6899.517
342.3315, 6865.895
342.8136, 6872.309
343.2957, 6901.282
343.7778, 6916.680
344.2599, 6917.800
344.7421, 6918.064
345.2242, 6929.324
345.7063, 6948.499
346.1884, 6951.310
346.6705, 6932.408
347.1526, 6907.883
347.6348, 6899.947
348.1169, 6907.444
348.5990, 6923.441
349.0811, 6956.230
349.5632, 6993.206
350.0453, 6999.189
350.5275, 6968.895
351.0096, 6934.298
351.4917, 6932.345
351.9738, 6953.485
352.4559, 6970.752
352.9380, 6971.815
353.4202, 6963.012
353.9023, 6948.600
354.3844, 6928.855
354.8665, 6913.766
355.3486, 6913.584
355.8307, 6922.771
356.3129, 6933.111
356.7950, 6939.951
357.2771, 6948.187
357.7592, 6967.918
358.2413, 6996.315
358.7234, 7011.412
359.2056, 6979.554
359.6877, 6938.371
360.1698, 6924.346
360.6519, 6971.204
361.1340, 7017.105
361.6161, 7032.268
362.0982, 7023.896
362.5804, 7017.982
363.0625, 7029.262
363.5446, 7041.763
364.0267, 7044.813
364.5088, 7026.246
364.9909, 7016.525
365.4731, 7024.379
365.9552, 7045.405
366.4373, 7069.892
366.9194, 7105.486
367.4015, 7136.722
367.8836, 7155.972
368.3658, 7152.273
368.8479, 7162.696
369.3300, 7195.073
369.8121, 7239.451
370.2942, 7281.158
370.7763, 7315.982
371.2585, 7354.099
371.7406, 7401.375
372.2227, 7460.130
372.7048, 7502.537
373.1869, 7518.867
373.6690, 7527.975
374.1512, 7549.595
374.6333, 7588.533
375.1154, 7626.947
375.5975, 7661.255
376.0796, 7692.311
376.5617, 7726.619
377.0439, 7766.063
377.5260, 7803.643
378.0081, 7829.548
378.4902, 7842.541
378.9723, 7869.981
379.4544, 7923.381
379.9366, 7986.632
380.4187, 8014.448
380.9008, 8004.755
381.3829, 7998.629
381.8650, 8026.520
382.3471, 8081.846
382.8293, 8133.586
383.3114, 8180.200
383.7935, 8219.856
384.2756, 8244.063
384.7577, 8256.670
385.2398, 8277.255
385.7220, 8327.564
386.2041, 8388.308
386.6862, 8425.269
387.1683, 8435.572
387.6504, 8440.278
388.1325, 8454.381
388.6147, 8476.379
389.0968, 8503.100
389.5789, 8541.324
390.0610, 8578.466
390.5431, 8603.511
391.0252, 8617.234
391.5074, 8627.755
391.9895, 8640.536
392.4716, 8652.500
392.9537, 8660.501
393.4358, 8661.688
393.9179, 8661.828
394.4001, 8665.355
394.8822, 8670.246
395.3643, 8669.210
395.8464, 8654.025
396.3285, 8636.529
396.8106, 8622.532
397.2928, 8611.439
397.7749, 8605.511
398.2570, 8617.542
398.7391, 8633.275
399.2212, 8625.352
399.7033, 8561.485
400.1855, 8506.590
400.6676, 8479.513
401.1497, 8486.202
401.6318, 8494.065
402.1139, 8512.607
402.5960, 8524.600
403.0782, 8507.594
403.5603, 8445.145
404.0424, 8392.617
404.5245, 8363.082
405.0066, 8353.867
405.4887, 8339.521
405.9709, 8316.935
406.4530, 8297.134
406.9351, 8294.366
407.4172, 8310.699
407.8993, 8305.793
408.3814, 8268.298
408.8636, 8213.820
409.3457, 8172.313
409.8278, 8143.575
410.3099, 8130.567
410.7920, 8148.045
411.2741, 8184.090
411.7563, 8194.896
412.2384, 8173.371
412.7205, 8145.595
413.2026, 8144.201
413.6847, 8161.062
414.1668, 8172.039
414.6490, 8156.791
415.1311, 8135.043
415.6132, 8133.990
416.0953, 8153.259
416.5774, 8167.499
417.0595, 8149.218
417.5417, 8119.842
418.0238, 8105.153
418.5059, 8130.626
418.9880, 8152.608
419.4701, 8139.510
419.9522, 8101.534
420.4344, 8076.246
420.9165, 8093.453
421.3986, 8116.639
421.8807, 8124.283
422.3628, 8105.118
422.8449, 8088.432
423.3270, 8077.898
423.8091, 8073.601
424.2913, 8075.543
424.7734, 8089.062
425.2555, 8103.726
425.7376, 8119.289
426.2197, 8137.322
426.7018, 8143.396
427.1840, 8128.996
427.6661, 8110.136
428.1482, 8101.406
428.6303, 8105.292
429.1124, 8113.038
429.5945, 8124.789
430.0767, 8139.127
430.5588, 8150.661
431.0409, 8159.551
431.5230, 8164.782
432.0051, 8163.564
432.4872, 8156.000
432.9694, 8154.054
433.4515, 8160.085
433.9336, 8168.687
434.4157, 8170.233
434.8978, 8165.623
435.3799, 8162.464
435.8621, 8157.387
436.3442, 8184.464
436.8263, 8203.728
437.3084, 8215.599
437.7905, 8197.934
438.2726, 8218.408
438.7548, 8223.600
439.2369, 8228.163
439.7190, 8254.005
440.2011, 8240.637
440.6832, 8266.142
441.1653, 8276.129
441.6475, 8293.220
442.1296, 8294.930
442.6117, 8301.390
443.0938, 8323.234
443.5759, 8336.561
444.0580, 8336.500
444.5402, 8354.043
445.0223, 8340.137
445.5044, 8353.825
445.9865, 8379.420
446.4686, 8380.133
446.9507, 8397.955
447.4329, 8409.263
447.9150, 8390.956
448.3971, 8424.148
448.8792, 8435.069
449.3613, 8423.122
449.8434, 8475.910
450.3256, 8509.376
450.8077, 8527.931
451.2898, 8536.073
451.7719, 8548.071
452.2540, 8562.938
452.7361, 8584.182
453.2183, 8617.859
453.7004, 8663.948
454.1825, 8698.660
454.6646, 8719.138
455.1467, 8734.381
455.6288, 8756.599
456.1110, 8784.897
456.5931, 8811.251
457.0752, 8828.707
457.5573, 8844.234
458.0394, 8875.230
458.5215, 8920.678
459.0037, 8960.138
459.4858, 8971.211
459.9679, 8968.711
460.4500, 8974.487
460.9321, 8996.656
461.4142, 9020.820
461.8964, 9041.938
462.3785, 9057.510
462.8606, 9062.115
463.3427, 9043.714
463.8248, 9021.388
464.3069, 9006.478
464.7891, 9000.856
465.2712, 8993.080
465.7533, 8976.635
466.2354, 8958.357
466.7175, 8944.728
467.1996, 8953.057
467.6818, 8946.490
468.1639, 8918.978
468.6460, 8872.787
469.1281, 8816.790
469.6102, 8741.632
470.0923, 8669.845
470.5745, 8611.479
471.0566, 8568.683
471.5387, 8534.258
472.0208, 8512.580
472.5029, 8492.811
472.9850, 8454.394
473.4672, 8395.506
473.9493, 8346.314
474.4314, 8322.630
474.9135, 8314.635
475.3956, 8288.643
475.8777, 8244.407
476.3599, 8195.019
476.8420, 8141.502
477.3241, 8091.986
477.8062, 8069.994
478.2883, 8089.174
478.7704, 8114.007
479.2526, 8105.185
479.7347, 8073.613
480.2168, 8046.631
480.6989, 8038.596
481.1810, 8038.346
481.6631, 8040.533
482.1453, 8044.725
482.6274, 8043.968
483.1095, 8023.926
483.5916, 8002.874
484.0737, 7996.782
484.5558, 8028.660
485.0379, 8052.352
485.5201, 8057.042
486.0022, 8047.284
486.4843, 8039.823
486.9664, 8034.727
487.4485, 8032.576
487.9306, 8036.705
488.4128, 8052.250
488.8949, 8047.643
489.3770, 8011.902
489.8591, 7972.417
490.3412, 7964.879
490.8233, 7993.510
491.3055, 8022.303
491.7876, 8044.849
492.2697, 8060.864
492.7518, 8070.480
493.2339, 8073.519
493.7160, 8067.472
494.1982, 8047.704
494.6803, 8017.490
495.1624, 7980.708
495.6445, 7933.813
496.1266, 7898.889
496.6087, 7908.218
497.0909, 7942.841
497.5730, 7967.725
498.0551, 7952.916
498.5372, 7936.247
499.0193, 7949.234
499.5014, 7986.879
499.9836, 8014.117
500.4657, 8015.608
500.9478, 8003.076
501.4299, 7982.449
501.9120, 7948.847
502.3941, 7918.566
502.8763, 7890.796
503.3584, 7868.378
503.8405, 7856.656
504.3226, 7870.416
504.8047, 7872.054
505.2868, 7846.809
505.7690, 7797.094
506.2511, 7770.257
506.7332, 7775.650
507.2153, 7783.465
507.6974, 7767.839
508.1795, 7728.098
508.6617, 7703.448
509.1438, 7701.930
509.6259, 7707.543
510.1080, 7693.576
510.5901, 7662.633
511.0722, 7631.099
511.5544, 7606.714
512.0365, 7586.444
512.5186, 7567.178
513.0007, 7548.536
513.4828, 7527.534
513.9650, 7490.541
514.4471, 7454.769
514.9292, 7442.602
515.4113, 7472.939
515.8934, 7497.997
516.3755, 7486.063
516.8576, 7454.425
517.3397, 7434.774
517.8218, 7451.505
518.3040, 7465.667
518.7861, 7462.006
519.2682, 7438.006
519.7503, 7421.587
520.2324, 7417.382
520.7145, 7416.389
521.1967, 7413.741
521.6788, 7411.371
522.1609, 7400.608
522.6430, 7375.555
523.1251, 7347.262
523.6072, 7342.735
524.0894, 7364.931
524.5715, 7378.543
525.0536, 7362.539
525.5357, 7327.988
526.0178, 7315.028
526.4999, 7323.939
526.9821, 7339.258
527.4642, 7348.928
527.9463, 7355.735
528.4284, 7366.005
528.9105, 7383.695
529.3926, 7397.414
529.8748, 7392.324
530.3569, 7376.802
530.8390, 7367.036
531.3211, 7366.599
531.8032, 7376.377
532.2853, 7406.930
532.7675, 7457.439
533.2496, 7485.380
533.7317, 7463.538
534.2138, 7430.063
534.6959, 7407.188
535.1780, 7397.092
535.6602, 7395.253
536.1423, 7403.075
536.6244, 7418.246
537.1065, 7439.282
537.5886, 7469.855
538.0707, 7492.682
538.5529, 7498.157
539.0350, 7491.789
539.5171, 7508.504
539.9992, 7550.654
540.4813, 7587.454
540.9634, 7584.303
541.4456, 7556.597
541.9277, 7552.108
542.4098, 7578.689
542.8919, 7618.514
543.3740, 7668.972
543.8561, 7717.156
544.3383, 7738.473
544.8204, 7688.409
545.3025, 7638.440
545.7846, 7638.310
546.2667, 7679.895
546.7488, 7717.064
547.2310, 7728.875
547.7131, 7735.732
548.1952, 7748.688
548.6773, 7772.660
549.1594, 7792.524
549.6415, 7801.724
550.1237, 7810.689
550.6058, 7833.388
551.0879, 7880.063
551.5700, 7912.772
552.0521, 7920.217
552.5342, 7911.469
553.0164, 7917.939
553.4985, 7940.991
553.9806, 7967.197
554.4627, 7988.824
554.9448, 8007.526
555.4269, 8030.083
555.9091, 8057.104
556.3912, 8084.394
556.8733, 8112.958
557.3554, 8137.963
557.8375, 8149.531
558.3196, 8137.619
558.8018, 8123.573
559.2839, 8126.811
559.7660, 8138.929
560.2481, 8140.569
560.7302, 8115.539
561.2123, 8086.866
561.6945, 8065.190
562.1766, 8052.352
562.6587, 8032.233
563.1408, 7990.107
563.6229, 7952.338
564.1050, 7936.662
564.5872, 7954.816
565.0693, 7965.514
565.5514, 7967.997
566.0335, 7961.396
566.5156, 7936.483
566.9977, 7891.054
567.4799, 7866.338
567.9620, 7887.884
568.4441, 7933.879
568.9262, 7946.295
569.4083, 7927.102
569.8904, 7900.257
570.3726, 7868.687
570.8547, 7845.230
571.3368, 7851.846
571.8189, 7895.990
572.3010, 7940.219
572.7831, 7964.391
573.2653, 7973.705
573.7474, 7973.975
574.2295, 7942.159
574.7116, 7928.993
575.1937, 7959.280
575.6758, 8020.790
576.1580, 8065.757
576.6401, 8082.525
577.1222, 8096.777
577.6043, 8116.850
578.0864, 8143.572
578.5685, 8169.171
579.0507, 8192.291
579.5328, 8218.066
580.0149, 8248.656
580.4970, 8284.425
580.9791, 8337.046
581.4612, 8411.522
581.9434, 8493.635
582.4255, 8562.628
582.9076, 8620.507
583.3897, 8672.781
583.8718, 8709.824
584.3539, 8750.643
584.8361, 8817.420
585.3182, 8906.159
585.8003, 8993.842
586.2824, 9063.712
586.7645, 9132.154
587.2466, 9211.003
587.7288, 9307.985
588.2109, 9395.450
588.6930, 9454.539
589.1751, 9511.951
589.6572, 9594.357
590.1393, 9720.167
590.6215, 9831.481
591.1036, 9920.957
591.5857, 9993.440
592.0678, 10059.32
592.5499, 10118.05
593.0320, 10176.31
593.5142, 10238.73
593.9963, 10303.21
594.4784, 10362.30
594.9605, 10416.51
595.4426, 10464.55
595.9247, 10505.25
596.4069, 10539.94
596.8890, 10570.04
597.3711, 10595.61
597.8532, 10617.91
598.3353, 10645.03
598.8174, 10667.48
599.2996, 10672.79
599.7817, 10645.23
600.2638, 10613.73
600.7459, 10582.71
601.2280, 10552.20
601.7101, 10522.96
602.1923, 10495.66
602.6744, 10468.72
603.1565, 10443.46
603.6386, 10419.83
604.1207, 10385.60
604.6028, 10338.37
605.0850, 10289.38
605.5671, 10248.74
606.0492, 10215.47
606.5313, 10186.96
607.0134, 10164.42
607.4955, 10139.73
607.9777, 10096.57
608.4598, 10044.81
608.9419, 10003.66
609.4240, 10000.32
609.9061, 9992.931
610.3882, 9955.263
610.8704, 9892.298
611.3525, 9828.052
611.8346, 9761.205
612.3167, 9700.900
612.7988, 9651.049
613.2809, 9611.233
613.7631, 9583.267
614.2452, 9578.781
614.7273, 9570.305
615.2094, 9530.768
615.6915, 9455.582
616.1736, 9389.177
616.6558, 9335.097
617.1379, 9294.450
617.6200, 9279.100
618.1021, 9282.517
618.5842, 9271.191
619.0663, 9220.769
619.5485, 9159.861
620.0306, 9122.413
620.5127, 9104.148
620.9948, 9086.472
621.4769, 9065.242
621.9590, 9037.089
622.4412, 8998.611
622.9233, 8948.061
623.4054, 8895.997
623.8875, 8830.962
624.3696, 8774.650
624.8517, 8743.580
625.3339, 8753.515
625.8160, 8755.749
626.2981, 8752.665
626.7802, 8737.386
627.2623, 8689.986
627.7444, 8608.101
628.2266, 8544.225
628.7087, 8516.967
629.1908, 8513.014
629.6729, 8510.181
630.1550, 8507.771
630.6371, 8501.772
631.1193, 8499.026
631.6014, 8485.933
632.0835, 8438.099
632.5656, 8354.933
633.0477, 8290.002
633.5298, 8296.186
634.0120, 8309.679
634.4941, 8280.950
634.9762, 8161.201
635.4583, 8082.662
635.9404, 8075.574
636.4225, 8093.105
636.9047, 8077.126
637.3868, 8017.738
637.8689, 7959.200
638.3510, 7908.257
638.8331, 7864.356
639.3152, 7829.539
639.7973, 7803.487
640.2794, 7775.674
640.7615, 7736.914
641.2437, 7695.538
641.7258, 7670.471
642.2079, 7659.055
642.6900, 7635.234
643.1721, 7567.631
643.6542, 7491.317
644.1364, 7433.063
644.6185, 7401.181
645.1006, 7373.884
645.5827, 7351.273
646.0648, 7328.367
646.5469, 7300.188
647.0291, 7258.484
647.5112, 7226.056
647.9933, 7203.542
648.4754, 7191.292
648.9575, 7200.178
649.4396, 7232.835
649.9218, 7237.609
650.4039, 7186.583
650.8860, 7106.538
651.3681, 7055.498
651.8502, 7029.379
652.3323, 7003.952
652.8145, 6963.597
653.2966, 6918.202
653.7787, 6873.801
654.2608, 6831.143
654.7429, 6796.600
655.2250, 6778.656
655.7072, 6765.769
656.1893, 6750.230
656.6714, 6729.533
657.1535, 6710.082
657.6356, 6693.932
658.1177, 6676.943
658.5999, 6652.944
659.0820, 6619.876
659.5641, 6591.847
660.0462, 6572.375
660.5283, 6557.551
661.0104, 6539.743
661.4926, 6519.606
661.9747, 6500.103
662.4568, 6482.728
662.9389, 6466.884
663.4210, 6453.693
663.9031, 6442.418
664.3853, 6428.304
664.8674, 6405.013
665.3495, 6381.575
665.8316, 6363.672
666.3137, 6352.933
666.7958, 6339.359
667.2780, 6312.717
667.7601, 6291.607
668.2422, 6292.026
668.7243, 6322.686
669.2064, 6335.886
669.6885, 6326.058
670.1707, 6306.556
670.6528, 6293.470
671.1349, 6286.126
671.6170, 6281.756
672.0991, 6284.379
672.5812, 6281.669
673.0634, 6253.421
673.5455, 6208.795
674.0276, 6168.967
674.5097, 6144.075
674.9918, 6126.740
675.4739, 6112.982
675.9561, 6103.667
676.4382, 6103.088
676.9203, 6125.938
677.4024, 6142.310
677.8845, 6137.946
678.3666, 6110.235
678.8488, 6100.213
679.3309, 6112.087
679.8130, 6127.833
680.2951, 6133.599
680.7772, 6130.568
681.2593, 6125.047
681.7415, 6116.748
682.2236, 6110.665
682.7057, 6116.770
683.1878, 6127.027
683.6699, 6127.731
684.1520, 6106.456
684.6342, 6090.307
685.1163, 6101.130
685.5984, 6123.393
686.0805, 6130.669
686.5626, 6098.498
687.0447, 6075.962
687.5269, 6075.174
688.0090, 6088.863
688.4911, 6090.441
688.9732, 6078.061
689.4553, 6061.084
689.9374, 6038.828
690.4196, 6015.562
690.9017, 6011.393
691.3838, 6025.266
691.8659, 6039.502
692.3480, 6046.225
692.8301, 6043.940
693.3123, 6026.783
693.7944, 5992.664
694.2765, 5964.305
694.7586, 5956.223
695.2407, 5955.026
695.7228, 5949.633
696.2050, 5930.666
696.6871, 5923.481
697.1692, 5935.999
697.6513, 5953.040
698.1334, 5954.782
698.6155, 5939.310
699.0977, 5925.170
699.5798, 5914.954
700.0619, 5908.318
700.5440, 5909.114
701.0261, 5913.932
701.5082, 5909.787
701.9904, 5879.433
702.4725, 5848.361
702.9546, 5840.528
703.4367, 5850.267
703.9188, 5859.548
704.4009, 5861.798
704.8831, 5862.453
705.3652, 5863.184
705.8473, 5864.026
706.3294, 5866.583
706.8115, 5875.617
707.2936, 5877.257
707.7758, 5860.139
708.2579, 5824.761
708.7400, 5799.229
709.2221, 5784.190
709.7042, 5775.518
710.1863, 5772.236
710.6685, 5772.189
711.1506, 5771.452
711.6327, 5769.228
712.1148, 5767.296
712.5969, 5766.354
713.0790, 5766.460
713.5612, 5767.699
714.0433, 5772.581
714.5254, 5775.043
715.0075, 5773.792
715.4896, 5770.305
715.9717, 5767.076
716.4539, 5764.861
716.9360, 5759.964
717.4181, 5751.719
717.9002, 5740.153
718.3823, 5721.044
718.8644, 5696.804
719.3466, 5681.084
719.8287, 5689.294
720.3108, 5703.226
720.7929, 5700.210
721.2750, 5685.019
721.7571, 5677.099
722.2393, 5695.470
722.7214, 5713.576
723.2035, 5719.769
723.6856, 5713.166
724.1677, 5698.713
724.6498, 5671.033
725.1320, 5644.264
725.6141, 5626.027
726.0962, 5616.660
726.5783, 5608.434
727.0604, 5601.198
727.5425, 5595.985
728.0247, 5594.412
728.5068, 5595.394
728.9889, 5598.278
729.4710, 5604.061
729.9531, 5605.294
730.4352, 5583.915
730.9174, 5562.197
731.3995, 5563.208
731.8816, 5623.355
732.3637, 5659.476
732.8458, 5652.378
733.3279, 5628.007
733.8101, 5624.082
734.2922, 5647.044
734.7743, 5656.833
735.2564, 5642.627
735.7385, 5617.830
736.2206, 5610.055
736.7028, 5615.012
737.1849, 5612.951
737.6670, 5586.862
738.1491, 5559.854
738.6312, 5558.846
739.1133, 5574.493
739.5955, 5580.339
740.0776, 5554.398
740.5597, 5530.269
741.0418, 5519.841
741.5239, 5521.814
742.0060, 5529.083
742.4882, 5543.577
742.9703, 5558.289
743.4524, 5570.177
743.9345, 5579.221
744.4166, 5585.430
744.8987, 5588.641
745.3809, 5590.628
745.8630, 5595.891
746.3451, 5598.942
746.8272, 5588.593
747.3093, 5563.280
747.7914, 5546.828
748.2736, 5565.672
748.7557, 5557.270
749.2378, 5573.293
749.7199, 5581.505
750.2020, 5582.323
750.6841, 5553.604
751.1663, 5563.025
751.6484, 5557.163
752.1305, 5550.673
752.6126, 5565.462
753.0947, 5541.040
753.5768, 5555.492
754.0590, 5554.426
754.5411, 5560.462
755.0232, 5551.119
755.5053, 5546.526
755.9874, 5557.318
756.4695, 5559.591
756.9517, 5548.477
757.4338, 5554.965
757.9159, 5530.005
758.3980, 5532.641
758.8801, 5547.183
759.3622, 5536.843
759.8444, 5543.611
760.3265, 5543.864
760.8086, 5556.063
761.2907, 5556.312
761.7728, 5550.547
762.2549, 5544.566
762.7370, 5540.574
763.2191, 5545.356
763.7012, 5573.022
764.1833, 5600.282
764.6655, 5614.093
765.1476, 5615.720
765.6297, 5611.594
766.1118, 5596.439
766.5939, 5581.727
767.0760, 5564.928
767.5582, 5549.386
768.0403, 5567.724
768.5224, 5625.091
769.0045, 5674.789
769.4866, 5685.560
769.9688, 5670.179
770.4509, 5655.140
770.9330, 5641.135
771.4151, 5633.515
771.8972, 5642.255
772.3793, 5653.955
772.8615, 5658.179
773.3436, 5653.519
773.8257, 5651.584
774.3078, 5656.194
774.7899, 5661.969
775.2720, 5665.899
775.7542, 5667.533
776.2363, 5675.622
776.7184, 5692.538
777.2005, 5704.206
777.6826, 5690.623
778.1647, 5663.667
778.6469, 5653.011
779.1290, 5662.236
779.6111, 5676.000
780.0932, 5684.833
780.5753, 5692.452
781.0574, 5701.227
781.5396, 5708.503
782.0217, 5725.583
782.5038, 5766.769
782.9859, 5805.041
783.4680, 5813.315
783.9501, 5786.199
784.4323, 5771.032
784.9144, 5773.287
785.3965, 5781.547
785.8786, 5779.894
786.3607, 5773.884
786.8428, 5777.500
787.3250, 5796.523
787.8071, 5818.073
788.2892, 5841.772
788.7713, 5860.105
789.2534, 5864.300
789.7355, 5830.744
790.2177, 5812.408
790.6998, 5816.101
791.1819, 5832.258
791.6640, 5848.234
792.1461, 5863.765
792.6282, 5880.556
793.1104, 5900.104
793.5925, 5918.401
794.0746, 5932.849
794.5567, 5941.551
795.0388, 5940.021
795.5209, 5915.292
796.0031, 5895.280
796.4852, 5897.606
796.9673, 5913.742
797.4494, 5926.498
797.9315, 5929.360
798.4136, 5936.807
798.8958, 5953.365
799.3779, 5973.878
799.8600, 5986.298
800.3421, 5990.660
800.8242, 5989.132
801.3063, 5977.183
801.7885, 5966.498
802.2706, 5975.872
802.7527, 5999.866
803.2348, 6025.401
803.7169, 6059.526
804.1990, 6080.468
804.6812, 6066.853
805.1633, 6031.212
805.6454, 6020.310
806.1275, 6044.847
806.6096, 6072.771
807.0917, 6099.381
807.5739, 6121.746
808.0560, 6126.479
808.5381, 6115.532
809.0202, 6109.191
809.5023, 6083.337
809.9844, 6131.579
810.4666, 6161.314
810.9487, 6173.536
811.4308, 6115.790
811.9129, 6148.392
812.3950, 6144.787
812.8771, 6139.696
813.3593, 6185.016
813.8414, 6137.446
814.3235, 6181.964
814.8056, 6189.723
815.2877, 6214.306
815.7698, 6202.458
816.2520, 6201.864
816.7341, 6237.710
817.2162, 6253.378
817.6983, 6237.336
818.1804, 6262.989
818.6625, 6214.146
819.1447, 6230.676
819.6268, 6275.407
820.1089, 6261.197
820.5910, 6287.516
821.0731, 6298.399
821.5552, 6239.134
822.0374, 6301.864
822.5195, 6311.834
823.0016, 6267.634
823.4837, 6326.183
823.9658, 6289.451
824.4479, 6286.728
824.9301, 6309.601
825.4122, 6305.791
825.8943, 6344.047
826.3764, 6341.779
826.8585, 6335.889
827.3406, 6345.800
827.8228, 6310.938
828.3049, 6359.141
828.7870, 6350.603
829.2691, 6370.270
829.7512, 6396.330
830.2333, 6373.437
830.7155, 6402.371
831.1976, 6350.935
831.6797, 6366.747
832.1618, 6375.317
832.6439, 6426.870
833.1260, 6375.826
833.6082, 6389.770
834.0903, 6431.383
834.5724, 6434.279
835.0545, 6453.363
835.5366, 6424.524
836.0187, 6440.705
836.5009, 6444.479
836.9830, 6491.130
837.4651, 6503.931
837.9472, 6475.905
838.4293, 6448.053
838.9114, 6497.791
839.3936, 6473.989
839.8757, 6489.860
840.3578, 6464.756
840.8399, 6475.032
841.3220, 6484.747
841.8041, 6512.597
842.2863, 6485.455
842.7684, 6529.647
843.2505, 6532.609
843.7326, 6547.717
844.2147, 6561.473
844.6968, 6519.902
845.1790, 6523.688
845.6611, 6592.370
846.1432, 6562.079
846.6253, 6551.765
847.1074, 6555.651
847.5895, 6626.556
848.0717, 6635.169
848.5538, 6569.320
849.0359, 6637.272
849.5180, 6622.908
850.0001, 6633.005
850.4822, 6634.177
850.9644, 6637.994
851.4465, 6608.203
851.9286, 6622.697
852.4107, 6673.199
852.8928, 6662.313
853.3749, 6693.140
853.8571, 6647.950
854.3392, 6647.880
854.8213, 6659.789
855.3034, 6676.066
855.7855, 6657.441
856.2676, 6708.616
856.7498, 6713.317
857.2319, 6677.741
857.7140, 6685.855
858.1961, 6686.716
858.6782, 6763.096
859.1603, 6735.645
859.6425, 6700.843
860.1246, 6748.352
860.6067, 6769.478
861.0888, 6754.937
861.5709, 6759.349
862.0530, 6727.803
862.5352, 6751.400
863.0173, 6756.031
863.4994, 6791.910
863.9815, 6760.509
864.4636, 6806.561
864.9457, 6776.963
865.4279, 6826.152
865.9100, 6794.956
866.3921, 6835.366
866.8742, 6790.305
867.3563, 6807.107
867.8384, 6828.812
868.3206, 6866.357
868.8027, 6843.009
869.2848, 6884.310
869.7669, 6868.877
870.2490, 6890.372
870.7311, 6891.389
871.2133, 6866.779
871.6954, 6914.453
872.1775, 6896.200
872.6596, 6922.463
873.1417, 6876.622
873.6238, 6918.434
874.1060, 6913.837
874.5881, 6956.212
875.0702, 6983.282
875.5523, 6995.867
876.0344, 6950.588
876.5165, 6980.028
876.9987, 6979.526
877.4808, 6977.794
877.9629, 7017.752
878.4450, 6980.889
878.9271, 7020.185
879.4092, 7029.079
879.8914, 7051.890
880.3735, 7044.569
880.8556, 7046.554
881.3377, 7078.679
881.8198, 7094.115
882.3019, 7083.326
882.7841, 7107.021
883.2662, 7069.104
883.7483, 7085.251
884.2304, 7124.725
884.7125, 7115.451
885.1946, 7139.694
885.6768, 7151.174
886.1588, 7104.637
886.6409, 7158.994
887.1230, 7169.717
887.6052, 7135.642
888.0873, 7186.542
888.5694, 7158.641
889.0515, 7158.867
889.5336, 7180.261
890.0157, 7179.587
890.4979, 7213.707
890.9800, 7214.308
891.4621, 7211.915
891.9442, 7222.590
892.4263, 7196.234
892.9084, 7238.578
893.3906, 7233.997
893.8727, 7252.739
894.3548, 7276.770
894.8369, 7260.315
895.3190, 7286.720
895.8011, 7246.660
896.2833, 7262.216
896.7654, 7271.781
897.2475, 7316.896
897.7296, 7277.159
898.2117, 7291.167
898.6938, 7328.061
899.1760, 7332.937
899.6581, 7351.197
900.1402, 7329.824
900.6223, 7345.685
901.1044, 7351.281
901.5865, 7392.342
902.0687, 7405.409
902.5508, 7384.708
903.0329, 7364.151
903.5150, 7407.765
903.9971, 7390.556
904.4792, 7406.160
904.9614, 7387.878
905.4435, 7398.854
905.9256, 7409.366
906.4077, 7434.878
906.8898, 7414.906
907.3719, 7453.933
907.8541, 7458.863
908.3362, 7473.835
908.8183, 7487.690
909.3004, 7455.787
909.7825, 7461.394
910.2646, 7520.676
910.7468, 7498.104
911.2289, 7492.050
911.7110, 7497.743
912.1931, 7558.862
912.6752, 7568.461
913.1573, 7516.480
913.6395, 7575.159
914.1216, 7565.756
914.6037, 7576.585
915.0858, 7580.033
915.5679, 7585.665
916.0500, 7563.506
916.5322, 7577.973
917.0143, 7622.217
917.4964, 7615.692
917.9785, 7643.666
918.4606, 7608.767
918.9427, 7611.188
919.4249, 7623.518
919.9070, 7639.457
920.3891, 7626.530
920.8712, 7671.332
921.3533, 7677.696
921.8354, 7650.752
922.3176, 7659.943
922.7997, 7663.132
923.2818, 7728.778
923.7639, 7708.554
924.2460, 7682.248
924.7281, 7724.018
925.2103, 7743.970
925.6924, 7734.421
926.1745, 7740.547
926.6566, 7716.937
927.1387, 7738.928
927.6208, 7745.237
928.1030, 7777.389
928.5851, 7753.897
929.0672, 7794.461
929.5493, 7772.462
930.0314, 7815.619
930.5135, 7792.297
930.9957, 7828.197
931.4778, 7793.407
931.9599, 7809.781
932.4420, 7844.323
932.9241, 7866.374
933.4063, 7917.143
933.8884, 7960.565
934.3705, 7969.213
934.8526, 7939.128
935.3347, 7926.354
935.8168, 7930.921
936.2990, 7950.727
936.7811, 7993.814
937.2632, 8045.269
937.7453, 8086.725
938.2274, 8117.832
938.7095, 8147.334
939.1917, 8181.986
939.6738, 8210.575
940.1559, 8227.944
940.6380, 8236.322
941.1201, 8243.790
941.6022, 8250.264
942.0844, 8263.276
942.5665, 8284.625
943.0486, 8315.437
943.5307, 8367.889
944.0128, 8429.298
944.4949, 8473.007
944.9771, 8457.846
945.4592, 8469.354
945.9413, 8532.272
946.4234, 8614.954
946.9055, 8668.879
947.3876, 8694.919
947.8698, 8738.252
948.3519, 8806.791
948.8340, 8886.543
949.3161, 8968.203
949.7982, 9049.251
950.2803, 9125.365
950.7625, 9190.385
951.2446, 9270.605
951.7267, 9369.565
952.2088, 9482.892
952.6909, 9611.408
953.1730, 9754.247
953.6552, 9891.618
954.1373, 10022.72
954.6194, 10161.42
955.1015, 10309.72
955.5836, 10473.71
956.0657, 10657.52
956.5479, 10861.48
957.0300, 11088.40
957.5121, 11357.40
957.9942, 11615.32
958.4763, 11838.72
958.9584, 12048.34
959.4406, 12297.47
959.9227, 12581.32
960.4048, 12871.23
960.8869, 13154.96
961.3690, 13440.42
961.8511, 13732.25
962.3333, 14031.74
962.8154, 14345.92
963.2975, 14695.54
963.7796, 15027.61
964.2617, 15346.30
964.7438, 15644.20
965.2260, 15909.26
965.7081, 16142.98
966.1902, 16335.60
966.6723, 16484.20
967.1544, 16623.09
967.6365, 16807.58
968.1187, 16964.33
968.6008, 17027.18
969.0829, 16991.96
969.5650, 16953.56
970.0471, 16922.84
970.5292, 16853.89
971.0114, 16718.71
971.4935, 16535.23
971.9756, 16333.10
972.4577, 16117.04
972.9398, 15895.59
973.4219, 15668.68
973.9041, 15439.62
974.3862, 15193.30
974.8683, 14949.09
975.3504, 14745.68
975.8325, 14593.71
976.3146, 14418.82
976.7968, 14203.85
977.2789, 13984.74
977.7610, 13800.20
978.2431, 13641.46
978.7252, 13496.19
979.2073, 13366.11
979.6895, 13229.07
980.1716, 13056.06
980.6537, 12897.79
981.1358, 12789.21
981.6179, 12730.75
982.1000, 12650.10
982.5822, 12545.90
983.0643, 12444.05
983.5464, 12363.94
984.0285, 12294.28
984.5106, 12226.04
984.9927, 12158.33
985.4749, 12088.50
985.9570, 12007.69
986.4391, 11935.80
986.9212, 11877.17
987.4033, 11828.27
987.8854, 11782.75
988.3676, 11740.11
988.8497, 11695.41
989.3318, 11644.28
989.8139, 11602.90
990.2960, 11600.75
990.7781, 11606.58
991.2603, 11583.79
991.7424, 11512.02
992.2245, 11462.51
992.7066, 11439.72
993.1887, 11428.65
993.6708, 11419.88
994.1530, 11414.13
994.6351, 11419.65
995.1172, 11433.26
995.5993, 11433.21
996.0814, 11391.34
996.5635, 11348.84
997.0457, 11322.51
997.5278, 11312.03
998.0099, 11318.45
998.4920, 11345.25
998.9741, 11370.65
999.4562, 11389.82
999.9384, 11404.05
1000.420, 11413.66
1000.903, 11419.75
1001.385, 11424.42
1001.867, 11427.94
1002.349, 11430.33
1002.831, 11434.65
1003.313, 11434.78
1003.795, 11424.17
1004.277, 11402.46
1004.760, 11387.71
1005.242, 11379.89
1005.724, 11379.23
1006.206, 11390.32
1006.688, 11405.03
1007.170, 11416.93
1007.652, 11426.23
1008.134, 11436.55
1008.616, 11457.77
1009.099, 11461.50
1009.581, 11437.38
1010.063, 11397.93
1010.545, 11361.90
1011.027, 11330.39
1011.509, 11310.04
1011.991, 11306.68
1012.473, 11301.78
1012.955, 11294.98
1013.438, 11274.20
1013.920, 11224.92
1014.402, 11138.78
1014.884, 11071.41
1015.366, 11023.36
1015.848, 10988.17
1016.330, 10964.91
1016.812, 10949.37
1017.294, 10942.45
1017.777, 10939.64
1018.259, 10921.04
1018.741, 10863.42
1019.223, 10808.96
1019.705, 10768.04
1020.187, 10736.26
1020.669, 10701.90
1021.151, 10666.52
1021.634, 10647.12
1022.116, 10651.76
1022.598, 10655.79
1023.080, 10630.66
1023.562, 10597.85
1024.044, 10580.96
1024.526, 10589.64
1025.008, 10585.98
1025.490, 10563.52
1025.973, 10546.78
1026.455, 10557.45
1026.937, 10583.52
1027.419, 10595.68
1027.901, 10595.32
1028.383, 10588.20
1028.865, 10561.95
1029.347, 10547.78
1029.830, 10568.07
1030.312, 10602.14
1030.794, 10614.82
1031.276, 10604.89
1031.758, 10599.73
1032.240, 10603.58
1032.722, 10614.75
1033.204, 10643.64
1033.687, 10671.71
1034.169, 10669.99
1034.651, 10624.35
1035.133, 10621.27
1035.615, 10688.32
1036.097, 10753.48
1036.579, 10782.07
1037.061, 10784.09
1037.543, 10791.96
1038.026, 10803.22
1038.508, 10808.33
1038.990, 10798.32
1039.472, 10786.42
1039.954, 10776.91
1040.436, 10769.92
1040.918, 10765.05
1041.400, 10762.33
1041.882, 10765.02
1042.365, 10774.27
1042.847, 10785.39
1043.329, 10789.50
1043.811, 10795.80
1044.293, 10823.11
1044.775, 10872.36
1045.257, 10895.63
1045.739, 10870.31
1046.222, 10840.31
1046.704, 10811.37
1047.186, 10793.41
1047.668, 10828.64
1048.150, 10901.11
1048.632, 10944.88
1049.114, 10923.97
1049.596, 10897.53
1050.078, 10898.73
1050.561, 10910.28
1051.043, 10911.83
1051.525, 10896.87
1052.007, 10905.56
1052.489, 10940.84
1052.971, 10974.02
1053.453, 10978.35
1053.935, 10970.79
1054.417, 10978.33
1054.900, 10994.86
1055.382, 10989.17
1055.864, 10927.88
1056.346, 10882.22
1056.828, 10871.70
1057.310, 10872.65
1057.792, 10841.00
1058.274, 10785.28
1058.757, 10733.04
1059.239, 10689.49
1059.721, 10653.09
1060.203, 10639.78
1060.685, 10619.32
1061.167, 10564.53
1061.649, 10475.04
1062.131, 10410.14
1062.614, 10370.35
1063.096, 10335.12
1063.578, 10292.43
1064.060, 10250.29
1064.542, 10224.24
1065.024, 10204.85
1065.506, 10174.05
1065.988, 10116.77
1066.470, 10064.06
1066.953, 10017.91
1067.435, 9974.025
1067.917, 9926.401
1068.399, 9877.605
1068.881, 9834.920
1069.363, 9799.204
1069.845, 9773.891
1070.327, 9769.424
1070.809, 9767.078
1071.292, 9762.383
1071.774, 9752.189
1072.256, 9723.572
1072.738, 9676.511
1073.220, 9627.351
1073.702, 9577.975
1074.184, 9536.218
1074.666, 9520.581
1075.148, 9511.611
1075.631, 9487.381
1076.113, 9440.604
1076.595, 9391.589
1077.077, 9337.161
1077.559, 9291.782
1078.041, 9270.629
1078.523, 9262.070
1079.005, 9240.187
1079.488, 9209.663
1079.970, 9184.965
1080.452, 9179.250
1080.934, 9169.765
1081.416, 9150.376
1081.898, 9127.173
1082.380, 9106.035
1082.862, 9087.351
1083.344, 9073.245
1083.827, 9063.789
1084.309, 9069.233
1084.791, 9122.836
1085.273, 9170.637
1085.755, 9168.667
1086.237, 9126.190
1086.719, 9092.722
1087.201, 9068.431
1087.683, 9054.170
1088.166, 9052.675
1088.648, 9056.303
1089.130, 9057.731
1089.612, 9057.544
1090.094, 9056.662
1090.576, 9055.984
1091.058, 9052.362
1091.540, 9045.024
1092.023, 9036.022
1092.505, 9018.187
1092.987, 9002.250
1093.469, 9035.579
1093.951, 9102.271
1094.433, 9145.864
1094.915, 9117.486
1095.397, 9090.044
1095.880, 9077.026
1096.362, 9080.612
1096.844, 9111.750
1097.326, 9168.415
1097.808, 9211.559
1098.290, 9238.531
1098.772, 9243.171
1099.254, 9199.852
1099.736, 9151.683
1100.219, 9129.729
1100.701, 9131.673
1101.183, 9131.149
1101.665, 9123.931
1102.147, 9142.021
1102.629, 9202.708
1103.111, 9261.096
1103.593, 9234.635
1104.075, 9183.099
1104.558, 9198.497
1105.040, 9323.014
1105.522, 9386.601
1106.004, 9354.978
1106.486, 9310.849
1106.968, 9297.038
1107.450, 9298.075
1107.932, 9265.674
1108.415, 9213.014
1108.897, 9178.015
1109.379, 9195.411
1109.861, 9205.499
1110.343, 9190.163
1110.825, 9164.979
1111.307, 9143.222
1111.789, 9124.528
1112.271, 9097.836
1112.754, 9063.343
1113.236, 9033.808
1113.718, 9019.796
1114.200, 9009.739
1114.682, 8992.469
1115.164, 8974.547
1115.646, 8974.319
1116.128, 8993.938
1116.610, 9012.911
1117.093, 9027.984
1117.575, 9043.064
1118.057, 9080.259
1118.539, 9107.951
1119.021, 9084.704
1119.503, 9004.536
1119.985, 8937.227
1120.467, 8874.596
1120.950, 8862.647
1121.432, 8937.213
1121.914, 9036.267
1122.396, 9060.521
1122.878, 9030.106
1123.360, 8978.694
1123.842, 8903.913
1124.324, 8837.890
1124.807, 8783.853
1125.289, 8741.016
1125.771, 8708.605
1126.253, 8686.983
1126.735, 8687.191
1127.217, 8701.996
1127.699, 8701.354
1128.181, 8643.653
1128.663, 8601.306
1129.146, 8617.439
1129.628, 8645.350
1130.110, 8629.957
1130.592, 8573.809
1131.074, 8545.423
1131.556, 8548.164
1132.038, 8556.077
1132.520, 8561.958
1133.002, 8557.039
1133.485, 8530.547
1133.967, 8489.387
1134.449, 8452.111
1134.931, 8418.317
1135.413, 8390.856
1135.895, 8368.739
1136.377, 8362.974
1136.859, 8414.608
1137.342, 8467.603
1137.824, 8448.117
1138.306, 8345.233
1138.788, 8310.973
1139.270, 8368.188
1139.752, 8413.354
1140.234, 8408.908
1140.716, 8376.967
1141.198, 8333.856
1141.681, 8292.947
1142.163, 8281.147
1142.645, 8322.277
1143.127, 8334.495
1143.609, 8304.417
1144.091, 8263.773
1144.573, 8226.417
1145.055, 8194.790
1145.537, 8175.973
1146.020, 8168.817
1146.502, 8170.175
1146.984, 8189.582
1147.466, 8202.384
1147.948, 8204.616
1148.430, 8199.492
1148.912, 8185.752
1149.394, 8166.104
1149.877, 8156.736
1150.359, 8156.943
1150.841, 8158.316
1151.323, 8165.113
1151.805, 8160.661
1152.287, 8129.241
1152.769, 8089.248
1153.251, 8068.232
1153.734, 8065.487
1154.216, 8070.721
1154.698, 8083.211
1155.180, 8091.000
1155.662, 8082.048
1156.144, 8069.091
1156.626, 8062.669
1157.108, 8059.214
1157.590, 8040.086
1158.073, 8004.174
1158.555, 7994.554
1159.037, 8028.139
1159.519, 8060.179
1160.001, 8049.786
1160.483, 8017.078
1160.965, 7970.500
1161.447, 7911.789
1161.929, 7897.317
1162.412, 7933.312
1162.894, 7966.267
1163.376, 7978.844
1163.858, 7972.328
1164.340, 7930.618
1164.822, 7879.336
1165.304, 7853.908
1165.786, 7867.598
1166.269, 7879.417
1166.751, 7889.302
1167.233, 7898.762
1167.715, 7915.941
1168.197, 7927.351
1168.679, 7899.678
1169.161, 7852.123
1169.643, 7824.610
1170.125, 7835.049
1170.608, 7857.453
1171.090, 7898.846
1171.572, 7931.547
1172.054, 7920.912
1172.536, 7889.544
1173.018, 7877.838
1173.500, 7884.237
1173.982, 7898.286
1174.464, 7940.599
1174.947, 7951.152
1175.429, 7910.327
1175.911, 7860.494
1176.393, 7858.034
1176.875, 7884.316
1177.357, 7897.884
1177.839, 7895.770
1178.321, 7886.103
1178.804, 7859.501
1179.286, 7842.369
1179.768, 7841.899
1180.250, 7852.819
1180.732, 7872.058
1181.214, 7894.688
1181.696, 7906.413
1182.178, 7904.401
1182.661, 7896.608
1183.143, 7881.151
1183.625, 7866.969
1184.107, 7859.667
1184.589, 7854.288
1185.071, 7831.981
1185.553, 7799.014
1186.035, 7782.449
1186.517, 7793.862
1187.000, 7802.470
1187.482, 7781.165
1187.964, 7767.802
1188.446, 7792.982
1188.928, 7841.419
1189.410, 7827.096
1189.892, 7763.051
1190.374, 7718.927
1190.856, 7726.752
1191.339, 7742.968
1191.821, 7750.427
1192.303, 7754.433
1192.785, 7760.458
1193.267, 7767.503
1193.749, 7758.021
1194.231, 7734.883
1194.713, 7719.666
1195.195, 7735.095
1195.678, 7745.479
1196.160, 7723.056
1196.642, 7693.846
1197.124, 7688.037
1197.606, 7706.392
1198.088, 7696.520
1198.570, 7660.595
1199.052, 7634.292
1199.535, 7647.794
1200.017, 7667.950
1200.499, 7681.215
1200.981, 7687.731
1201.463, 7684.287
1201.945, 7670.452
1202.427, 7677.675
1202.909, 7706.954
1203.391, 7724.765
1203.874, 7698.070
1204.356, 7662.126
1204.838, 7627.239
1205.320, 7602.827
1205.802, 7612.280
1206.284, 7655.982
1206.766, 7674.793
1207.248, 7661.126
1207.730, 7646.043
1208.213, 7653.195
1208.695, 7666.959
1209.177, 7678.560
1209.659, 7688.247
1210.141, 7699.531
1210.623, 7712.298
1211.105, 7711.600
1211.587, 7692.701
1212.070, 7679.093
1212.552, 7698.993
1213.034, 7723.323
1213.516, 7730.416
1213.998, 7724.071
1214.480, 7718.955
1214.962, 7715.027
1215.444, 7708.575
1215.927, 7699.192
1216.409, 7685.899
1216.891, 7659.236
1217.373, 7636.320
1217.855, 7632.147
1218.337, 7644.069
1218.819, 7654.687
1219.301, 7664.328
1219.783, 7682.642
1220.266, 7719.208
1220.748, 7744.875
1221.230, 7723.471
1221.712, 7692.545
1222.194, 7681.457
1222.676, 7689.771
1223.158, 7716.327
1223.640, 7759.417
1224.122, 7792.150
1224.605, 7805.446
1225.087, 7802.267
1225.569, 7769.567
1226.051, 7732.804
1226.533, 7714.166
1227.015, 7713.528
1227.497, 7724.361
1227.979, 7745.583
1228.462, 7764.321
1228.944, 7778.285
1229.426, 7782.267
1229.908, 7762.466
1230.390, 7740.876
1230.872, 7762.495
1231.354, 7776.302
1231.836, 7782.715
1232.318, 7759.592
1232.801, 7774.616
1233.283, 7774.348
1233.765, 7773.454
1234.247, 7793.838
1234.729, 7775.011
1235.211, 7795.059
1235.693, 7799.587
1236.175, 7811.219
1236.657, 7807.471
1237.140, 7808.481
1237.622, 7824.867
1238.104, 7832.736
1238.586, 7827.218
1239.068, 7839.300
1239.550, 7819.936
1240.032, 7811.533
1240.514, 7828.667
1240.997, 7859.771
1241.479, 7877.769
1241.961, 7848.234
1242.443, 7829.308
1242.925, 7848.747
1243.407, 7877.239
1243.889, 7880.839
1244.371, 7863.341
1244.854, 7835.724
1245.336, 7802.378
1245.818, 7790.853
1246.300, 7833.508
1246.782, 7875.887
1247.264, 7906.775
1247.746, 7927.371
1248.228, 7936.438
1248.710, 7937.166
1249.193, 7937.631
1249.675, 7939.278
1250.157, 7947.008
1250.639, 7989.438
1251.121, 7997.674
1251.603, 7947.531
1252.085, 7879.491
1252.567, 7835.854
1253.049, 7819.467
1253.532, 7853.764
1254.014, 7932.707
1254.496, 7980.789
1254.978, 7957.348
1255.460, 7926.790
1255.942, 7894.384
1256.424, 7871.042
1256.906, 7881.470
1257.389, 7906.523
1257.871, 7912.844
1258.353, 7899.096
1258.835, 7889.847
1259.317, 7888.382
1259.799, 7894.275
1260.281, 7910.759
1260.763, 7924.718
1261.245, 7916.590
1261.728, 7898.572
1262.210, 7883.119
1262.692, 7872.509
1263.174, 7874.928
1263.656, 7896.806
1264.138, 7901.924
1264.620, 7877.015
1265.102, 7858.979
1265.584, 7908.448
1266.067, 7971.479
1266.549, 7986.147
1267.031, 7954.233
1267.513, 7939.414
1267.995, 7943.101
1268.477, 7948.849
1268.959, 7952.459
1269.441, 7958.854
1269.924, 7974.441
1270.406, 7992.849
1270.888, 8012.228
1271.370, 8029.848
1271.852, 8031.806
1272.334, 8018.541
1272.816, 8011.333
1273.298, 8015.690
1273.781, 8021.370
1274.263, 8024.992
1274.745, 8023.125
1275.227, 8010.298
1275.709, 7992.683
1276.191, 7991.504
1276.673, 8004.215
1277.155, 8017.571
1277.637, 8030.503
1278.120, 8031.132
1278.602, 7993.943
1279.084, 7966.439
1279.566, 7971.351
1280.048, 7996.380
1280.530, 8013.001
1281.012, 8023.282
1281.494, 8034.313
1281.976, 8048.199
1282.459, 8054.603
1282.941, 8041.582
1283.423, 8035.172
1283.905, 8048.267
1284.387, 8065.486
1284.869, 8052.074
1285.351, 8023.433
1285.833, 8006.702
1286.316, 8007.770
1286.798, 8012.469
1287.280, 8017.580
1287.762, 8031.969
1288.244, 8064.321
1288.726, 8093.138
1289.208, 8075.789
1289.690, 8044.342
1290.172, 8043.450
1290.655, 8080.647
1291.137, 8099.424
1291.619, 8098.482
1292.101, 8095.478
1292.583, 8094.481
1293.065, 8091.594
##END=



