##NAMES=Eosphorite
##RRUFFID=R060293
##IDEAL CHEMISTRY=Mn^2+^AlPO_4_(OH)_2_&#183;H_2_O
##LOCALITY=Mawi area, Nuristan, Laghman Province, Afghanistan
##OWNER=RRUFF
##SOURCE=Herb Obodda
##DESCRIPTION=Orange brown prismatic crystal
##STATUS=The identification of this mineral has been confirmed by X-ray diffraction and chemical analysis
##URL=rruff.info/R060293
##MEASURED CHEMISTRY=(Mn^2+^_0.67_Fe^2+^_0.30_Ca_0.03_)_Σ=1_Al_1.00_(P_1.00_O_4_)(OH)_2_·H_2_O
90.01007, 0.0000000E+00
90.49219, 30.77525
90.97430, 29.72664
91.45642, 29.35477
91.93854, 30.35690
92.42065, 31.83237
92.90277, 32.49405
93.38489, 32.23918
93.86700, 31.31660
94.34912, 29.71716
94.83124, 27.55606
95.31335, 25.53639
95.79547, 23.97914
96.27759, 22.89769
96.75970, 22.36875
97.24182, 22.57727
97.72394, 23.14271
98.20605, 23.25802
98.68817, 22.89479
99.17029, 22.30157
99.65240, 21.28693
100.1345, 19.74548
100.6166, 19.50145
101.0988, 21.50156
101.5809, 25.30973
102.0630, 27.03284
102.5451, 25.93736
103.0272, 24.08917
103.5093, 24.17545
103.9915, 27.52679
104.4736, 29.29189
104.9557, 27.43083
105.4378, 20.79203
105.9199, 17.12075
106.4020, 17.67603
106.8842, 20.55848
107.3663, 22.48027
107.8484, 22.64710
108.3305, 22.75270
108.8126, 23.39548
109.2947, 25.13380
109.7769, 26.48667
110.2590, 27.97556
110.7411, 29.17164
111.2232, 28.70482
111.7053, 23.98013
112.1874, 19.39404
112.6696, 16.95798
113.1517, 18.85190
113.6338, 20.76069
114.1159, 22.13157
114.5980, 23.01498
115.0801, 23.84552
115.5623, 24.99642
116.0444, 25.99225
116.5265, 26.46382
117.0086, 25.60670
117.4907, 24.83468
117.9728, 24.90686
118.4550, 25.87485
118.9371, 26.47952
119.4192, 25.77886
119.9013, 24.47551
120.3834, 23.47562
120.8655, 23.19643
121.3477, 23.32060
121.8298, 23.73756
122.3119, 24.50337
122.7940, 25.18576
123.2761, 25.47961
123.7582, 25.46040
124.2404, 25.29626
124.7225, 25.25918
125.2046, 25.06157
125.6867, 24.05603
126.1688, 21.64804
126.6509, 19.63562
127.1331, 20.65594
127.6152, 24.15419
128.0973, 27.37251
128.5794, 27.57955
129.0615, 26.08030
129.5436, 26.17800
130.0258, 29.29744
130.5079, 33.56322
130.9900, 35.10494
131.4721, 33.91220
131.9542, 33.13588
132.4363, 36.09752
132.9185, 42.26800
133.4006, 48.01730
133.8827, 52.43337
134.3648, 55.65246
134.8469, 57.94444
135.3290, 58.96221
135.8112, 60.59052
136.2933, 65.40810
136.7754, 73.63536
137.2575, 81.82879
137.7396, 88.46104
138.2217, 93.50809
138.7039, 100.8280
139.1860, 111.1893
139.6681, 122.6366
140.1502, 132.3311
140.6323, 139.7629
141.1144, 146.8244
141.5966, 154.1967
142.0787, 161.8880
142.5608, 169.7353
143.0429, 177.8764
143.5250, 186.0782
144.0071, 193.7813
144.4893, 200.9150
144.9714, 207.5547
145.4535, 213.5035
145.9356, 218.0097
146.4177, 223.4254
146.8998, 229.6833
147.3820, 236.8651
147.8641, 245.6952
148.3462, 257.1555
148.8283, 269.2271
149.3104, 280.9169
149.7925, 290.4104
150.2747, 301.8393
150.7568, 316.4663
151.2389, 333.9081
151.7210, 349.4533
152.2031, 361.9398
152.6852, 373.0949
153.1674, 384.1253
153.6495, 394.4478
154.1316, 405.1981
154.6137, 417.2013
155.0958, 430.5069
155.5779, 442.0765
156.0601, 450.8600
156.5422, 458.0998
157.0243, 464.7470
157.5064, 470.6346
157.9885, 476.2639
158.4706, 481.5948
158.9528, 486.5523
159.4349, 491.9305
159.9170, 497.9167
160.3991, 504.4357
160.8812, 511.4008
161.3633, 518.5256
161.8455, 526.3007
162.3276, 535.1129
162.8097, 545.0287
163.2918, 555.2311
163.7739, 564.7347
164.2560, 573.7008
164.7382, 579.7426
165.2203, 586.4678
165.7024, 594.4797
166.1845, 603.7924
166.6666, 615.0748
167.1487, 625.5256
167.6309, 632.4169
168.1130, 637.4551
168.5951, 644.1179
169.0772, 656.3023
169.5593, 669.6447
170.0414, 680.5156
170.5236, 688.1877
171.0057, 693.7347
171.4878, 697.9174
171.9699, 700.7188
172.4520, 701.9765
172.9341, 700.9962
173.4163, 698.7019
173.8984, 696.0706
174.3805, 693.0314
174.8626, 690.1447
175.3447, 688.3734
175.8268, 687.3818
176.3090, 685.6062
176.7911, 680.1423
177.2732, 673.5191
177.7553, 670.1804
178.2374, 672.8231
178.7195, 677.3965
179.2017, 678.7228
179.6838, 677.0590
180.1659, 674.6480
180.6480, 672.0840
181.1301, 670.0396
181.6122, 670.2390
182.0944, 674.4325
182.5765, 680.1914
183.0586, 683.4594
183.5407, 684.2131
184.0228, 684.0242
184.5049, 683.3729
184.9871, 682.6857
185.4692, 683.6057
185.9513, 687.3079
186.4334, 692.6834
186.9155, 697.4446
187.3976, 701.5764
187.8798, 705.0538
188.3619, 707.2451
188.8440, 708.4596
189.3261, 710.6324
189.8082, 715.5107
190.2903, 721.8491
190.7725, 724.7535
191.2546, 723.8343
191.7367, 721.7463
192.2188, 721.5357
192.7009, 723.1057
193.1830, 724.7418
193.6652, 725.6328
194.1473, 725.9833
194.6294, 727.2093
195.1115, 729.5090
195.5936, 732.0175
196.0757, 733.4100
196.5579, 733.6407
197.0400, 734.1270
197.5221, 735.8216
198.0042, 738.5739
198.4863, 739.7590
198.9684, 738.8666
199.4506, 737.5389
199.9327, 738.6791
200.4148, 742.6331
200.8969, 745.9143
201.3790, 746.5618
201.8611, 744.4252
202.3433, 743.9799
202.8254, 745.5168
203.3075, 748.2532
203.7896, 750.8445
204.2717, 753.1970
204.7538, 755.8692
205.2360, 759.4398
205.7181, 764.1404
206.2002, 767.5578
206.6823, 769.6375
207.1644, 770.5068
207.6465, 770.3505
208.1287, 769.1379
208.6108, 767.0659
209.0929, 764.1121
209.5750, 760.1490
210.0571, 756.0189
210.5392, 751.7706
211.0214, 747.3225
211.5035, 742.3152
211.9856, 736.4971
212.4677, 730.9938
212.9498, 726.3207
213.4319, 722.6341
213.9140, 719.3176
214.3962, 716.4067
214.8783, 713.8135
215.3604, 711.4357
215.8425, 709.3463
216.3246, 707.2274
216.8067, 704.7904
217.2889, 701.7775
217.7710, 699.3508
218.2531, 697.5096
218.7352, 696.2525
219.2173, 695.6067
219.6994, 695.7504
220.1816, 696.1431
220.6637, 696.6288
221.1458, 697.3975
221.6279, 697.6176
222.1100, 696.7894
222.5921, 695.6112
223.0743, 696.1338
223.5564, 699.4744
224.0385, 702.5845
224.5206, 703.6661
225.0027, 701.2027
225.4848, 700.9631
225.9670, 703.7577
226.4491, 708.5884
226.9312, 712.9336
227.4133, 716.4962
227.8954, 720.0120
228.3775, 723.8281
228.8597, 728.4533
229.3418, 732.1977
229.8239, 734.6976
230.3060, 736.3757
230.7881, 738.2585
231.2702, 740.0633
231.7524, 742.4968
232.2345, 746.0672
232.7166, 751.9647
233.1987, 756.2851
233.6808, 758.6225
234.1629, 759.4717
234.6451, 759.9964
235.1272, 759.4925
235.6093, 759.7426
236.0914, 761.7351
236.5735, 766.6591
237.0556, 770.5807
237.5378, 772.7883
238.0199, 774.2336
238.5020, 777.4845
238.9841, 784.0099
239.4662, 790.2542
239.9483, 794.3864
240.4305, 794.3519
240.9126, 797.0726
241.3947, 803.8195
241.8768, 812.9055
242.3589, 819.9494
242.8410, 823.0416
243.3232, 826.9691
243.8053, 834.0361
244.2874, 846.3409
244.7695, 856.6346
245.2516, 864.1110
245.7337, 869.9562
246.2159, 876.7491
246.6980, 884.5947
247.1801, 893.2673
247.6622, 903.0908
248.1443, 915.2354
248.6264, 925.3286
249.1086, 933.1486
249.5907, 939.1238
250.0728, 943.9117
250.5549, 946.6868
251.0370, 949.6806
251.5191, 954.1560
252.0013, 961.2945
252.4834, 965.7571
252.9655, 967.0020
253.4476, 965.8469
253.9297, 963.8546
254.4118, 961.6140
254.8940, 957.4635
255.3761, 950.6968
255.8582, 940.9113
256.3403, 929.9095
256.8224, 917.6360
257.3046, 904.1998
257.7867, 890.0804
258.2688, 875.3119
258.7509, 859.5543
259.2330, 842.4400
259.7151, 823.3730
260.1973, 806.0850
260.6794, 791.6960
261.1615, 778.3662
261.6436, 763.3957
262.1257, 745.2311
262.6078, 728.9343
263.0900, 716.5219
263.5721, 708.2759
264.0542, 700.0294
264.5363, 691.5027
265.0184, 683.1949
265.5005, 675.5280
265.9827, 668.7587
266.4648, 662.0104
266.9469, 654.8571
267.4290, 647.2841
267.9111, 641.0798
268.3932, 636.7081
268.8754, 633.0512
269.3575, 628.5839
269.8396, 622.6702
270.3217, 618.2331
270.8038, 616.5607
271.2859, 617.4302
271.7681, 616.4075
272.2502, 612.8348
272.7323, 608.7463
273.2144, 606.4426
273.6965, 606.2656
274.1786, 605.8824
274.6608, 604.4782
275.1429, 602.3666
275.6250, 601.9030
276.1071, 603.3768
276.5892, 605.6641
277.0714, 607.6849
277.5535, 609.3694
278.0356, 611.5410
278.5177, 614.3945
278.9998, 617.8445
279.4819, 621.7465
279.9641, 626.3358
280.4462, 630.5803
280.9283, 633.2868
281.4104, 634.3602
281.8925, 636.3040
282.3746, 639.5141
282.8568, 643.8254
283.3389, 649.0087
283.8210, 655.1607
284.3031, 661.4091
284.7852, 667.0256
285.2673, 672.0117
285.7495, 677.4019
286.2316, 683.3613
286.7137, 689.6913
287.1958, 696.3914
287.6779, 703.4940
288.1600, 709.6349
288.6422, 712.8906
289.1243, 713.9222
289.6064, 717.5035
290.0885, 724.5143
290.5706, 733.0421
291.0527, 740.3174
291.5349, 746.3792
292.0170, 751.7433
292.4991, 756.0763
292.9812, 759.8499
293.4633, 764.8154
293.9454, 771.3152
294.4276, 778.1122
294.9097, 783.2324
295.3918, 787.0123
295.8739, 791.1148
296.3560, 796.2037
296.8381, 802.1887
297.3203, 809.0703
297.8024, 816.9246
298.2845, 824.6189
298.7666, 830.8383
299.2487, 835.8361
299.7308, 840.5856
300.2130, 845.3737
300.6951, 850.1940
301.1772, 855.1042
301.6593, 860.0889
302.1414, 865.0791
302.6235, 870.3040
303.1057, 875.4615
303.5878, 879.8289
304.0699, 883.4486
304.5520, 886.0165
305.0341, 886.7432
305.5162, 885.8099
305.9984, 884.7360
306.4805, 885.4193
306.9626, 886.4240
307.4447, 885.6833
307.9268, 882.1394
308.4089, 877.3051
308.8911, 871.9249
309.3732, 866.1808
309.8553, 860.8513
310.3374, 857.0223
310.8195, 853.5246
311.3016, 849.2565
311.7838, 843.9345
312.2659, 837.9515
312.7480, 831.2693
313.2301, 824.1726
313.7122, 817.2189
314.1943, 811.1303
314.6765, 804.9322
315.1586, 797.5808
315.6407, 788.3884
316.1228, 780.0635
316.6049, 774.3544
317.0870, 770.3431
317.5692, 766.5944
318.0513, 762.3014
318.5334, 758.3167
319.0155, 755.5013
319.4976, 754.2000
319.9797, 751.7003
320.4619, 745.4246
320.9440, 738.0246
321.4261, 732.5477
321.9082, 732.4122
322.3903, 731.6364
322.8724, 727.8298
323.3546, 720.8640
323.8367, 714.7537
324.3188, 709.8697
324.8009, 706.3317
325.2830, 704.2791
325.7651, 705.5564
326.2473, 706.2806
326.7294, 705.9001
327.2115, 704.4904
327.6936, 702.6263
328.1757, 699.6552
328.6578, 696.7689
329.1400, 694.5408
329.6221, 692.9781
330.1042, 692.1028
330.5863, 692.2962
331.0684, 693.1791
331.5505, 693.6550
332.0327, 693.6285
332.5148, 693.2872
332.9969, 692.6278
333.4790, 691.4489
333.9611, 690.4811
334.4432, 689.5734
334.9254, 688.9552
335.4075, 689.1464
335.8896, 690.6846
336.3717, 691.9492
336.8538, 692.3368
337.3359, 691.7481
337.8180, 691.5106
338.3001, 691.8533
338.7823, 692.2137
339.2644, 691.9014
339.7465, 690.7853
340.2286, 689.5616
340.7107, 688.3182
341.1928, 687.0823
341.6750, 686.0472
342.1571, 685.0753
342.6392, 684.7222
343.1213, 686.0588
343.6034, 689.1152
344.0855, 690.5303
344.5677, 689.2947
345.0498, 686.5458
345.5319, 685.1751
346.0140, 685.2294
346.4961, 685.3467
346.9782, 684.1534
347.4604, 682.1120
347.9425, 681.7399
348.4246, 683.5857
348.9067, 686.2122
349.3888, 687.8538
349.8709, 688.5548
350.3531, 688.5176
350.8352, 687.2897
351.3173, 685.5287
351.7994, 684.4413
352.2815, 684.0858
352.7636, 684.2891
353.2458, 685.3309
353.7279, 686.8032
354.2100, 687.8115
354.6921, 687.4343
355.1742, 686.8129
355.6563, 687.1517
356.1385, 688.3974
356.6206, 690.0195
357.1027, 692.9041
357.5848, 695.4941
358.0669, 695.7461
358.5490, 691.4653
359.0312, 687.1893
359.5133, 685.7592
359.9954, 686.6596
360.4775, 688.2494
360.9596, 690.6771
361.4417, 692.9047
361.9239, 694.1410
362.4060, 693.9547
362.8881, 693.6758
363.3702, 693.9559
363.8523, 694.4265
364.3344, 694.5238
364.8166, 693.4405
365.2987, 692.5371
365.7808, 692.3892
366.2629, 693.0897
366.7450, 693.9617
367.2271, 695.5922
367.7093, 697.0236
368.1914, 697.4138
368.6735, 695.5305
369.1556, 693.8992
369.6377, 693.2063
370.1198, 693.2725
370.6020, 692.4634
371.0841, 689.2147
371.5662, 686.5397
372.0483, 686.2023
372.5304, 689.9158
373.0125, 692.7465
373.4947, 694.4866
373.9768, 695.3005
374.4589, 695.5314
374.9410, 695.0377
375.4231, 694.2178
375.9052, 692.8312
376.3874, 690.5556
376.8695, 690.6135
377.3516, 693.8917
377.8337, 698.0187
378.3158, 700.0099
378.7979, 699.6246
379.2801, 698.8696
379.7622, 697.9515
380.2443, 697.1255
380.7264, 697.6906
381.2085, 699.7686
381.6906, 702.3534
382.1728, 705.0246
382.6549, 707.6456
383.1370, 708.9733
383.6191, 708.3381
384.1012, 707.1635
384.5833, 708.0673
385.0655, 710.8123
385.5476, 713.5571
386.0297, 715.3361
386.5118, 716.4026
386.9939, 717.1523
387.4760, 717.5689
387.9582, 717.9706
388.4403, 718.4121
388.9224, 719.0762
389.4045, 720.3239
389.8866, 723.0284
390.3687, 725.8900
390.8509, 727.6469
391.3330, 728.3708
391.8151, 729.0460
392.2972, 730.5829
392.7793, 732.1840
393.2614, 732.9902
393.7436, 731.7886
394.2257, 731.1593
394.7078, 732.5292
395.1899, 735.3381
395.6720, 738.1149
396.1541, 741.4484
396.6363, 743.8161
397.1184, 744.2773
397.6005, 742.1288
398.0826, 740.0201
398.5647, 738.0949
399.0468, 736.5096
399.5290, 735.4531
400.0111, 735.0631
400.4932, 735.0970
400.9753, 736.1629
401.4574, 738.2454
401.9395, 738.0383
402.4217, 734.0985
402.9038, 729.3822
403.3859, 725.8127
403.8680, 723.7072
404.3501, 722.0589
404.8322, 721.1668
405.3144, 720.5187
405.7965, 718.6109
406.2786, 715.0205
406.7607, 711.5436
407.2428, 709.1674
407.7249, 707.9334
408.2071, 705.9548
408.6892, 703.0344
409.1713, 699.9121
409.6534, 697.5494
410.1355, 695.9234
410.6176, 694.2992
411.0998, 692.2455
411.5819, 690.1795
412.0640, 689.4647
412.5461, 690.0463
413.0282, 690.3537
413.5103, 689.0554
413.9925, 686.6384
414.4746, 683.9381
414.9567, 680.8971
415.4388, 678.1655
415.9209, 676.6141
416.4030, 675.8997
416.8852, 675.1255
417.3673, 673.6125
417.8494, 672.0174
418.3315, 670.8404
418.8136, 670.1210
419.2957, 669.6965
419.7779, 669.6163
420.2600, 669.7353
420.7421, 669.9130
421.2242, 671.0944
421.7063, 671.3074
422.1884, 669.1209
422.6706, 665.2667
423.1527, 662.4179
423.6348, 662.1725
424.1169, 662.3203
424.5990, 661.6669
425.0811, 659.0677
425.5633, 658.1623
426.0454, 660.5424
426.5275, 664.0474
427.0096, 665.8632
427.4917, 664.1977
427.9738, 663.6217
428.4560, 665.7971
428.9381, 670.5146
429.4202, 672.2579
429.9023, 669.6290
430.3844, 666.5652
430.8665, 666.2261
431.3487, 669.1980
431.8308, 671.1798
432.3129, 671.5215
432.7950, 671.0492
433.2771, 671.2198
433.7592, 672.0152
434.2414, 673.7330
434.7235, 677.1264
435.2056, 681.6298
435.6877, 684.9530
436.1698, 687.0439
436.6519, 688.4456
437.1341, 688.8018
437.6162, 688.8259
438.0983, 690.6149
438.5804, 695.7116
439.0625, 701.4102
439.5446, 703.9586
440.0268, 704.2503
440.5089, 705.5381
440.9910, 710.9080
441.4731, 717.4219
441.9552, 722.2825
442.4373, 724.7537
442.9195, 727.6695
443.4016, 733.3389
443.8837, 739.9805
444.3658, 745.4267
444.8479, 746.8707
445.3300, 749.2098
445.8122, 754.3175
446.2943, 761.9260
446.7764, 769.7625
447.2585, 777.7576
447.7406, 785.6923
448.2227, 793.5170
448.7049, 801.2773
449.1870, 808.6670
449.6691, 815.1643
450.1512, 821.5214
450.6333, 828.7679
451.1154, 837.0754
451.5976, 846.0516
452.0797, 855.6859
452.5618, 865.9521
453.0439, 875.8765
453.5260, 885.0988
454.0081, 894.5011
454.4903, 905.0353
454.9724, 916.5906
455.4545, 927.3901
455.9366, 936.8457
456.4187, 946.0362
456.9008, 956.7633
457.3830, 968.9786
457.8651, 981.0652
458.3472, 993.1656
458.8293, 1004.536
459.3114, 1013.504
459.7935, 1020.021
460.2757, 1026.604
460.7578, 1035.977
461.2399, 1046.372
461.7220, 1055.198
462.2041, 1061.214
462.6862, 1066.648
463.1684, 1073.199
463.6505, 1080.315
464.1326, 1086.569
464.6147, 1091.240
465.0968, 1095.049
465.5789, 1098.534
466.0611, 1101.935
466.5432, 1103.479
467.0253, 1102.231
467.5074, 1099.249
467.9895, 1095.407
468.4716, 1088.908
468.9538, 1083.905
469.4359, 1081.928
469.9180, 1081.645
470.4001, 1078.711
470.8822, 1072.461
471.3643, 1064.790
471.8465, 1056.374
472.3286, 1047.225
472.8107, 1037.330
473.2928, 1026.835
473.7749, 1015.606
474.2570, 1003.290
474.7392, 989.9047
475.2213, 977.4050
475.7034, 966.7200
476.1855, 956.5450
476.6676, 943.9360
477.1497, 929.0319
477.6319, 913.8410
478.1140, 898.5697
478.5961, 883.9393
479.0782, 871.5896
479.5603, 861.7565
480.0424, 852.2310
480.5246, 840.8234
481.0067, 828.6855
481.4888, 817.4210
481.9709, 807.5411
482.4530, 798.5314
482.9352, 790.2850
483.4173, 782.7222
483.8994, 775.5937
484.3815, 769.5294
484.8636, 763.2719
485.3457, 755.9355
485.8279, 746.8099
486.3100, 738.9495
486.7921, 733.1488
487.2742, 728.4520
487.7563, 724.0336
488.2384, 720.1133
488.7206, 716.0897
489.2027, 711.9980
489.6848, 707.7479
490.1669, 702.9096
490.6490, 697.2580
491.1311, 691.8339
491.6133, 686.8747
492.0954, 682.3768
492.5775, 680.2205
493.0596, 680.9319
493.5417, 681.8240
494.0238, 679.5873
494.5060, 674.8400
494.9881, 670.3682
495.4702, 666.7291
495.9523, 663.9584
496.4344, 662.5437
496.9165, 662.2064
497.3987, 661.9054
497.8808, 661.0292
498.3629, 659.9191
498.8450, 658.8088
499.3271, 657.6926
499.8092, 656.8330
500.2914, 657.0994
500.7735, 657.3192
501.2556, 656.3636
501.7377, 652.5932
502.2198, 649.2659
502.7019, 647.0115
503.1841, 645.6917
503.6662, 644.9093
504.1483, 645.5274
504.6304, 645.7093
505.1125, 644.7421
505.5946, 642.4906
506.0768, 641.0369
506.5589, 641.0217
507.0410, 640.8845
507.5231, 638.9961
508.0052, 634.9215
508.4873, 632.0509
508.9695, 630.8620
509.4516, 630.9554
509.9337, 632.3524
510.4158, 634.9213
510.8979, 636.1428
511.3800, 633.7900
511.8622, 629.6854
512.3443, 628.2579
512.8264, 629.3831
513.3085, 630.5836
513.7906, 629.6005
514.2728, 627.7101
514.7549, 626.6412
515.2370, 626.9348
515.7191, 627.4257
516.2012, 627.4617
516.6833, 627.2100
517.1655, 626.9283
517.6476, 626.3768
518.1297, 626.1384
518.6118, 626.8562
519.0939, 628.3716
519.5760, 628.8743
520.0582, 627.3743
520.5403, 625.4645
521.0224, 623.6178
521.5045, 621.2553
521.9866, 620.7738
522.4688, 623.1409
522.9509, 626.3120
523.4330, 627.6873
523.9151, 626.9306
524.3972, 626.2051
524.8793, 625.9874
525.3615, 626.0749
525.8436, 625.7306
526.3257, 624.9689
526.8078, 624.7657
527.2899, 626.3337
527.7720, 628.7682
528.2542, 629.8746
528.7363, 629.5335
529.2184, 628.8342
529.7005, 628.6545
530.1826, 628.6989
530.6647, 628.5698
531.1469, 628.1492
531.6290, 627.5506
532.1111, 626.1088
532.5932, 624.5798
533.0753, 624.5045
533.5574, 627.9550
534.0396, 631.3553
534.5217, 633.1424
535.0038, 633.1060
535.4859, 634.2728
535.9680, 638.1224
536.4501, 641.7773
536.9323, 643.3176
537.4144, 641.3550
537.8965, 641.2289
538.3786, 643.2874
538.8607, 646.8508
539.3428, 651.4043
539.8250, 657.1523
540.3071, 661.5246
540.7892, 663.0519
541.2713, 663.2967
541.7534, 666.3598
542.2355, 672.0038
542.7177, 677.6585
543.1998, 681.0549
543.6819, 683.7299
544.1640, 688.0878
544.6461, 694.3450
545.1282, 701.3418
545.6104, 708.6461
546.0925, 716.0173
546.5746, 723.1677
547.0567, 729.7108
547.5388, 736.4316
548.0209, 743.4957
548.5031, 750.8523
548.9852, 758.5463
549.4673, 766.2533
549.9494, 774.6597
550.4315, 784.0431
550.9136, 794.3997
551.3958, 804.7435
551.8779, 814.5193
552.3600, 825.2564
552.8421, 838.4472
553.3242, 854.4423
553.8063, 869.4310
554.2885, 883.0145
554.7706, 896.2494
555.2527, 910.7887
555.7348, 926.3810
556.2169, 941.4950
556.6990, 955.4092
557.1812, 968.7100
557.6633, 983.5515
558.1454, 998.8382
558.6275, 1010.484
559.1096, 1015.908
559.5917, 1016.791
560.0739, 1014.865
560.5560, 1010.307
561.0381, 1000.429
561.5202, 982.2155
562.0023, 959.5485
562.4844, 935.1716
562.9666, 907.4463
563.4487, 880.9130
563.9308, 855.1154
564.4129, 830.9005
564.8950, 809.6395
565.3771, 791.7042
565.8593, 776.3864
566.3414, 763.8095
566.8235, 753.7546
567.3056, 744.6957
567.7877, 736.6208
568.2698, 729.9844
568.7520, 725.5256
569.2341, 722.7679
569.7162, 719.1846
570.1983, 714.5894
570.6804, 711.4988
571.1625, 714.1950
571.6447, 719.5245
572.1268, 721.9674
572.6089, 718.5226
573.0910, 715.6574
573.5731, 718.3336
574.0552, 724.3010
574.5374, 729.6859
575.0195, 731.7841
575.5016, 734.5408
575.9837, 739.8039
576.4658, 747.3199
576.9479, 753.8428
577.4301, 759.2702
577.9122, 763.6618
578.3943, 766.8699
578.8764, 768.5865
579.3585, 770.6564
579.8406, 772.9232
580.3228, 775.8883
580.8049, 780.4987
581.2870, 786.6097
581.7691, 792.0020
582.2512, 796.1086
582.7333, 799.6754
583.2155, 803.4945
583.6975, 807.6065
584.1796, 812.3654
584.6617, 818.3555
585.1439, 824.6824
585.6260, 829.8050
586.1081, 834.2338
586.5902, 840.5712
587.0723, 852.0976
587.5544, 864.2172
588.0366, 874.2518
588.5187, 881.1844
589.0008, 889.0069
589.4829, 897.6172
589.9650, 907.7198
590.4471, 920.3405
590.9293, 938.0905
591.4114, 952.2610
591.8935, 961.6617
592.3756, 968.0998
592.8577, 974.8429
593.3398, 981.9203
593.8220, 987.9492
594.3041, 992.5334
594.7862, 995.7322
595.2683, 998.0927
595.7504, 999.4173
596.2325, 998.3968
596.7147, 994.2682
597.1968, 987.3152
597.6789, 977.0151
598.1610, 963.2958
598.6431, 949.4354
599.1252, 937.5986
599.6074, 926.3782
600.0895, 914.3962
600.5716, 900.0528
601.0537, 887.2897
601.5358, 877.1215
602.0179, 868.7874
602.5001, 861.5291
602.9822, 855.9877
603.4643, 850.2067
603.9464, 843.1278
604.4285, 835.8337
604.9106, 831.9138
605.3928, 831.6180
605.8749, 832.6298
606.3570, 834.0734
606.8391, 835.9274
607.3212, 838.4971
607.8033, 841.7194
608.2855, 844.3961
608.7676, 844.5790
609.2497, 844.0792
609.7318, 845.4572
610.2139, 849.4948
610.6960, 853.4759
611.1782, 855.6073
611.6603, 857.0361
612.1424, 859.0084
612.6245, 862.1975
613.1066, 865.4453
613.5887, 869.0206
614.0709, 872.4913
614.5530, 875.1000
615.0351, 876.8998
615.5172, 877.6008
615.9993, 876.8751
616.4814, 874.9937
616.9636, 873.7300
617.4457, 873.2525
617.9278, 871.6707
618.4099, 866.8787
618.8920, 860.1735
619.3741, 855.1972
619.8563, 852.0621
620.3384, 849.0681
620.8205, 845.3756
621.3026, 840.7657
621.7847, 834.8193
622.2668, 826.8969
622.7490, 818.9246
623.2311, 811.6740
623.7132, 804.8056
624.1953, 797.8867
624.6774, 790.6865
625.1595, 783.6130
625.6417, 776.4942
626.1238, 769.5469
626.6059, 763.6619
627.0880, 759.2396
627.5701, 754.5653
628.0522, 748.8352
628.5344, 742.3679
629.0165, 736.7875
629.4986, 732.1078
629.9807, 727.7584
630.4628, 723.1680
630.9449, 718.6819
631.4271, 715.3039
631.9092, 713.1744
632.3913, 710.1859
632.8734, 703.5418
633.3555, 695.8776
633.8376, 689.8294
634.3198, 686.5158
634.8019, 683.9200
635.2840, 682.1526
635.7661, 680.5931
636.2482, 678.2860
636.7303, 674.2491
637.2125, 671.1185
637.6946, 669.6094
638.1767, 669.0837
638.6588, 667.6420
639.1409, 665.1321
639.6230, 662.7463
640.1052, 661.1135
640.5873, 659.8885
641.0694, 657.9257
641.5515, 655.2885
642.0336, 652.7882
642.5157, 651.1439
642.9979, 649.8558
643.4800, 648.4873
643.9621, 647.0018
644.4442, 645.1677
644.9263, 642.3381
645.4084, 639.4060
645.8906, 637.0439
646.3727, 634.9945
646.8548, 634.2477
647.3369, 635.7946
647.8190, 637.9427
648.3011, 638.5597
648.7833, 637.0750
649.2654, 635.9623
649.7475, 635.7452
650.2296, 635.8700
650.7117, 634.9859
651.1938, 633.1881
651.6760, 631.7644
652.1581, 631.6140
652.6402, 631.8372
653.1223, 630.7968
653.6044, 628.8379
654.0865, 627.3395
654.5687, 627.4080
655.0508, 627.9639
655.5329, 628.4229
656.0150, 628.7426
656.4971, 628.8510
656.9792, 628.8123
657.4614, 628.4753
657.9435, 627.5447
658.4256, 625.3792
658.9077, 625.1382
659.3898, 627.8125
659.8719, 630.6533
660.3541, 630.2590
660.8362, 626.7634
661.3183, 624.7072
661.8004, 625.0498
662.2825, 626.1215
662.7646, 625.5416
663.2468, 623.9741
663.7289, 623.0676
664.2110, 623.8156
664.6931, 624.9249
665.1752, 625.7067
665.6573, 626.1645
666.1395, 626.3178
666.6216, 626.4065
667.1037, 625.9619
667.5858, 624.1754
668.0679, 621.4156
668.5500, 620.4337
669.0322, 621.8910
669.5143, 623.8345
669.9964, 625.8187
670.4785, 627.7385
670.9606, 627.4139
671.4427, 624.5911
671.9249, 621.9453
672.4070, 621.8518
672.8891, 623.4375
673.3712, 624.8684
673.8533, 625.9447
674.3354, 627.0978
674.8176, 629.4542
675.2997, 631.6798
675.7818, 632.2351
676.2639, 629.7726
676.7460, 627.5604
677.2281, 626.2189
677.7103, 625.6170
678.1924, 625.6542
678.6745, 626.6218
679.1566, 627.7040
679.6387, 629.1573
680.1208, 630.3387
680.6030, 629.2245
681.0851, 625.8491
681.5672, 623.6841
682.0493, 624.6758
682.5314, 626.9647
683.0135, 626.9832
683.4957, 625.3398
683.9778, 624.4465
684.4599, 626.5099
684.9420, 629.0508
685.4241, 630.5797
685.9063, 631.0303
686.3884, 630.7891
686.8705, 628.9006
687.3526, 627.3179
687.8347, 627.1412
688.3168, 628.7410
688.7990, 629.0615
689.2811, 627.6257
689.7632, 626.0135
690.2453, 625.3669
690.7274, 625.6508
691.2095, 626.5866
691.6917, 628.2142
692.1738, 630.0211
692.6559, 631.6669
693.1380, 633.0302
693.6201, 633.8789
694.1022, 634.1112
694.5844, 633.9309
695.0665, 633.0465
695.5486, 631.9471
696.0307, 631.2592
696.5128, 631.1232
696.9949, 631.4623
697.4771, 632.9036
697.9592, 634.5333
698.4413, 634.1481
698.9234, 630.9640
699.4055, 629.0483
699.8876, 629.9758
700.3698, 632.3847
700.8519, 632.5986
701.3340, 630.9371
701.8161, 629.4847
702.2982, 629.3943
702.7803, 630.0372
703.2625, 631.1088
703.7446, 632.4445
704.2267, 633.2084
704.7088, 632.8246
705.1909, 631.9734
705.6730, 630.8281
706.1552, 629.3567
706.6373, 628.2709
707.1194, 627.3187
707.6015, 627.1172
708.0836, 628.4984
708.5657, 631.6227
709.0479, 632.3546
709.5300, 630.3152
710.0121, 628.1315
710.4942, 628.3841
710.9763, 630.2695
711.4584, 632.1005
711.9406, 633.7022
712.4227, 634.7814
712.9048, 634.9106
713.3869, 634.5213
713.8690, 633.9791
714.3511, 632.7787
714.8333, 632.5299
715.3154, 635.0617
715.7975, 637.9073
716.2796, 638.1701
716.7617, 634.5549
717.2438, 632.3311
717.7260, 632.4680
718.2081, 633.7773
718.6902, 634.2342
719.1723, 633.9454
719.6544, 633.6699
720.1365, 633.6389
720.6187, 633.7319
721.1008, 634.1877
721.5829, 634.6439
722.0650, 634.2693
722.5471, 631.1551
723.0292, 628.6674
723.5114, 628.6962
723.9935, 630.6916
724.4756, 632.1740
724.9577, 632.4828
725.4398, 633.1393
725.9219, 634.7943
726.4041, 637.1735
726.8862, 638.6954
727.3683, 639.3495
727.8504, 639.4765
728.3325, 639.0168
728.8146, 638.2598
729.2968, 637.9192
729.7789, 637.9413
730.2610, 637.7745
730.7431, 636.4362
731.2252, 635.2563
731.7073, 635.5821
732.1895, 637.7037
732.6716, 638.8364
733.1537, 637.3603
733.6358, 635.7681
734.1179, 635.2570
734.6000, 635.9792
735.0822, 637.0379
735.5643, 638.6066
736.0464, 639.9162
736.5285, 640.2188
737.0106, 639.6741
737.4927, 638.5936
737.9749, 636.8981
738.4570, 635.8469
738.9391, 637.6773
739.4212, 640.2562
739.9033, 640.9174
740.3854, 638.0255
740.8676, 635.9319
741.3497, 636.2850
741.8318, 637.8162
742.3139, 639.2241
742.7960, 640.4848
743.2781, 641.6624
743.7603, 642.7901
744.2424, 643.7629
744.7245, 644.5148
745.2066, 644.9994
745.6887, 644.8488
746.1708, 643.7348
746.6530, 642.5303
747.1351, 642.1208
747.6172, 642.3420
748.0993, 642.9291
748.5814, 644.3381
749.0635, 645.4506
749.5457, 645.7301
750.0278, 645.4847
750.5099, 645.3810
750.9920, 645.5873
751.4741, 645.6613
751.9562, 645.4365
752.4384, 645.1158
752.9205, 645.2924
753.4026, 645.9556
753.8847, 646.5323
754.3668, 646.8351
754.8489, 646.8944
755.3311, 646.6102
755.8132, 646.1008
756.2953, 645.7208
756.7774, 645.2698
757.2595, 645.3356
757.7416, 646.7943
758.2238, 649.2129
758.7059, 650.2693
759.1880, 649.0558
759.6701, 647.7432
760.1522, 646.7562
760.6343, 646.1863
761.1165, 646.7350
761.5986, 648.4558
762.0807, 650.0910
762.5628, 650.8869
763.0449, 651.1733
763.5270, 651.3470
764.0092, 651.4662
764.4913, 651.8572
764.9734, 653.3029
765.4555, 654.5610
765.9376, 654.4730
766.4197, 653.0090
766.9019, 652.9141
767.3840, 655.9057
767.8661, 657.9695
768.3482, 656.7550
768.8303, 652.4770
769.3124, 651.2068
769.7946, 653.2003
770.2767, 655.2031
770.7588, 654.0500
771.2409, 651.6720
771.7230, 651.9789
772.2051, 654.9747
772.6873, 657.5287
773.1694, 657.5524
773.6515, 656.6714
774.1336, 655.7500
774.6157, 654.7546
775.0978, 654.5861
775.5800, 655.6926
776.0621, 657.0260
776.5442, 657.9480
777.0263, 658.4313
777.5084, 659.0748
777.9905, 659.8597
778.4727, 660.9796
778.9548, 663.4056
779.4369, 666.0103
779.9190, 666.3622
780.4011, 664.1137
780.8832, 662.2967
781.3654, 663.3604
781.8475, 665.0482
782.3296, 665.5707
782.8117, 664.0666
783.2938, 663.5751
783.7759, 664.5926
784.2581, 665.9528
784.7402, 666.6275
785.2223, 666.6157
785.7044, 667.5527
786.1865, 669.6058
786.6686, 671.5711
787.1508, 672.1293
787.6329, 671.8989
788.1150, 671.6307
788.5971, 671.3046
789.0792, 671.8272
789.5613, 674.4197
790.0435, 677.5087
790.5256, 679.9260
791.0077, 681.7369
791.4898, 682.2838
791.9719, 680.9184
792.4540, 679.3546
792.9362, 679.5369
793.4183, 681.2469
793.9004, 681.5168
794.3825, 679.9395
794.8646, 678.5968
795.3467, 680.0596
795.8289, 682.7473
796.3110, 684.3158
796.7931, 683.9968
797.2752, 684.2901
797.7573, 686.7006
798.2394, 689.7238
798.7216, 692.1819
799.2037, 694.2612
799.6858, 695.1233
800.1679, 694.3177
800.6500, 693.3062
801.1321, 693.6736
801.6143, 695.1432
802.0964, 696.2322
802.5785, 696.6884
803.0606, 697.4847
803.5427, 699.9612
804.0248, 702.9750
804.5070, 705.2672
804.9891, 706.3935
805.4712, 707.4389
805.9533, 708.9998
806.4354, 710.2972
806.9175, 710.5392
807.3997, 709.1818
807.8818, 709.3881
808.3639, 711.5677
808.8460, 714.0767
809.3281, 714.9954
809.8102, 714.9332
810.2924, 715.5485
810.7745, 717.1447
811.2566, 718.6594
811.7387, 719.2561
812.2208, 719.4670
812.7029, 719.7498
813.1851, 720.2092
813.6672, 720.6369
814.1493, 721.1482
814.6314, 721.4614
815.1135, 721.3953
815.5956, 720.9489
816.0778, 719.8839
816.5599, 718.1262
817.0420, 716.2288
817.5241, 714.3600
818.0062, 712.8434
818.4883, 712.3563
818.9705, 713.1175
819.4526, 713.7335
819.9347, 713.6013
820.4168, 713.0406
820.8989, 712.1991
821.3810, 710.9908
821.8632, 709.9728
822.3453, 709.1237
822.8274, 708.5137
823.3095, 708.7558
823.7916, 709.4465
824.2737, 707.6907
824.7559, 703.3171
825.2380, 699.6094
825.7201, 700.1086
826.2022, 702.0770
826.6843, 702.8387
827.1664, 701.9597
827.6486, 701.0203
828.1307, 699.9045
828.6128, 699.2845
829.0949, 699.7537
829.5770, 701.4518
830.0591, 701.8461
830.5413, 700.7433
831.0234, 699.4987
831.5055, 699.5390
831.9876, 700.0085
832.4697, 698.6317
832.9518, 695.5320
833.4340, 693.4913
833.9161, 695.0433
834.3982, 697.4352
834.8803, 699.4251
835.3624, 700.9073
835.8445, 700.2637
836.3267, 696.1520
836.8088, 692.5652
837.2909, 691.7449
837.7730, 693.1557
838.2551, 693.5115
838.7372, 692.8955
839.2194, 692.5391
839.7015, 693.8228
840.1836, 695.3364
840.6657, 695.4839
841.1478, 694.4763
841.6299, 693.7860
842.1121, 693.7958
842.5942, 694.3442
843.0763, 695.6981
843.5584, 697.5665
844.0405, 697.9086
844.5226, 696.3459
845.0048, 695.9777
845.4869, 698.8990
845.9690, 703.2385
846.4511, 705.4625
846.9332, 705.9395
847.4153, 705.8511
847.8975, 704.9496
848.3796, 704.4505
848.8617, 705.3903
849.3438, 707.2424
849.8259, 708.1349
850.3080, 707.3746
850.7902, 707.2426
851.2723, 708.6169
851.7544, 710.4932
852.2365, 710.1176
852.7186, 707.9645
853.2007, 706.8135
853.6829, 707.9491
854.1650, 710.0105
854.6471, 713.0105
855.1292, 715.8391
855.6113, 716.6279
856.0934, 711.1017
856.5756, 708.6033
857.0577, 711.5290
857.5398, 716.7653
858.0219, 720.1326
858.5040, 721.5888
858.9861, 721.4611
859.4683, 719.2833
859.9504, 717.4406
860.4325, 719.8257
860.9146, 724.3400
861.3967, 727.3727
861.8788, 727.6486
862.3610, 727.4236
862.8431, 727.0505
863.3252, 726.8541
863.8073, 727.1568
864.2894, 728.1961
864.7715, 728.9648
865.2537, 729.3388
865.7358, 729.8129
866.2179, 731.0577
866.7000, 732.7924
867.1821, 734.1447
867.6642, 735.0226
868.1464, 736.1379
868.6285, 739.0369
869.1106, 741.6078
869.5927, 741.7565
870.0748, 738.4153
870.5569, 737.5399
871.0391, 740.1514
871.5212, 743.3652
872.0033, 745.7991
872.4854, 747.4096
872.9675, 747.6589
873.4496, 746.6042
873.9318, 745.2094
874.4139, 743.1689
874.8960, 741.7960
875.3781, 742.8470
875.8602, 745.9857
876.3423, 748.3040
876.8245, 747.9469
877.3066, 748.0755
877.7887, 749.8682
878.2708, 752.7449
878.7529, 754.2759
879.2350, 754.4685
879.7172, 754.0932
880.1993, 753.2819
880.6814, 752.3200
881.1635, 752.1781
881.6456, 752.1609
882.1277, 750.6348
882.6099, 743.7933
883.0920, 739.2025
883.5741, 740.5585
884.0562, 744.6215
884.5383, 746.2953
885.0204, 745.2164
885.5026, 743.9533
885.9847, 742.8290
886.4668, 742.0457
886.9489, 742.5988
887.4310, 743.5623
887.9131, 742.6094
888.3953, 737.8877
888.8774, 734.9023
889.3595, 738.3199
889.8416, 743.2318
890.3237, 744.8414
890.8058, 741.7355
891.2880, 739.1172
891.7701, 736.9398
892.2522, 735.4460
892.7343, 735.3385
893.2164, 736.0150
893.6985, 735.7091
894.1807, 734.2979
894.6628, 732.9556
895.1449, 732.6703
895.6270, 732.5331
896.1091, 731.6102
896.5912, 729.7463
897.0734, 729.5897
897.5555, 731.9402
898.0376, 734.0921
898.5197, 734.7347
899.0018, 734.1830
899.4839, 733.4046
899.9661, 732.4091
900.4482, 731.2526
900.9303, 729.3194
901.4124, 727.8422
901.8945, 728.4635
902.3766, 730.2759
902.8588, 730.0690
903.3409, 725.5080
903.8230, 722.9044
904.3051, 724.0014
904.7872, 726.8860
905.2693, 727.9111
905.7515, 727.2655
906.2336, 726.1481
906.7157, 724.8884
907.1978, 723.2170
907.6799, 719.1163
908.1620, 715.2631
908.6442, 715.0516
909.1263, 722.5515
909.6084, 727.8792
910.0905, 730.7556
910.5726, 731.4129
911.0547, 729.1057
911.5369, 724.2400
912.0190, 721.9425
912.5011, 722.6085
912.9832, 723.1182
913.4653, 719.4057
913.9474, 715.3342
914.4296, 715.0151
914.9117, 718.9776
915.3938, 722.4252
915.8759, 725.0753
916.3580, 726.4360
916.8401, 725.8295
917.3223, 723.7245
917.8044, 722.6917
918.2865, 722.7319
918.7686, 723.8300
919.2507, 727.1135
919.7328, 730.4739
920.2150, 731.7464
920.6971, 731.4642
921.1792, 730.9891
921.6613, 730.6909
922.1434, 730.1760
922.6255, 729.1956
923.1077, 728.1642
923.5898, 727.7452
924.0719, 727.9373
924.5540, 728.6282
925.0361, 729.8120
925.5182, 731.4344
926.0004, 734.1799
926.4825, 736.9752
926.9646, 738.4664
927.4467, 737.9365
927.9288, 737.3096
928.4109, 736.2759
928.8931, 735.8604
929.3752, 737.1799
929.8573, 740.1749
930.3394, 741.5519
930.8215, 741.3055
931.3036, 741.1980
931.7858, 742.8623
932.2679, 745.0583
932.7500, 746.5226
933.2321, 747.3180
933.7142, 748.4900
934.1964, 751.1879
934.6785, 752.9425
935.1606, 752.4324
935.6427, 750.9382
936.1248, 752.9707
936.6069, 758.1983
937.0891, 761.9875
937.5712, 761.8956
938.0533, 761.6012
938.5354, 765.2822
939.0175, 770.8839
939.4996, 775.3226
939.9818, 775.7335
940.4639, 778.4006
940.9460, 784.7798
941.4281, 791.6738
941.9102, 795.2354
942.3923, 795.9402
942.8745, 798.2969
943.3566, 802.6777
943.8387, 807.8590
944.3208, 812.8722
944.8029, 818.1512
945.2850, 823.8325
945.7672, 829.9006
946.2493, 837.8265
946.7314, 848.6804
947.2135, 859.3821
947.6956, 868.2082
948.1777, 876.2891
948.6599, 887.2864
949.1420, 900.9457
949.6241, 915.5960
950.1062, 929.7485
950.5883, 945.4756
951.0704, 964.8358
951.5526, 986.7180
952.0347, 1008.597
952.5168, 1028.380
952.9989, 1052.117
953.4810, 1080.459
953.9631, 1112.458
954.4453, 1146.652
954.9274, 1183.493
955.4095, 1224.999
955.8916, 1271.195
956.3737, 1320.354
956.8558, 1373.265
957.3380, 1427.035
957.8201, 1479.209
958.3022, 1529.393
958.7843, 1583.834
959.2664, 1642.557
959.7485, 1706.216
960.2307, 1775.259
960.7128, 1849.271
961.1949, 1926.607
961.6770, 2007.850
962.1591, 2093.301
962.6412, 2184.093
963.1234, 2279.125
963.6055, 2378.937
964.0876, 2483.169
964.5697, 2594.370
965.0518, 2714.298
965.5339, 2830.094
966.0161, 2942.097
966.4982, 3044.021
966.9803, 3132.663
967.4624, 3205.411
967.9445, 3257.978
968.4266, 3291.173
968.9088, 3295.575
969.3909, 3267.108
969.8730, 3207.398
970.3551, 3112.881
970.8372, 2986.667
971.3193, 2855.294
971.8015, 2719.667
972.2836, 2581.407
972.7657, 2437.627
973.2478, 2297.301
973.7299, 2167.040
974.2120, 2047.846
974.6942, 1940.723
975.1763, 1850.000
975.6584, 1767.146
976.1405, 1690.042
976.6226, 1619.905
977.1047, 1558.696
977.5869, 1505.687
978.0690, 1458.569
978.5511, 1417.609
979.0332, 1380.814
979.5153, 1346.274
979.9974, 1314.980
980.4796, 1288.242
980.9617, 1266.758
981.4438, 1245.889
981.9259, 1224.299
982.4080, 1205.332
982.8901, 1191.159
983.3723, 1180.161
983.8544, 1167.058
984.3365, 1152.469
984.8186, 1138.975
985.3007, 1127.009
985.7828, 1117.352
986.2650, 1110.979
986.7471, 1106.921
987.2292, 1103.450
987.7113, 1100.801
988.1934, 1097.815
988.6755, 1094.364
989.1577, 1090.618
989.6398, 1086.181
990.1219, 1081.842
990.6040, 1079.186
991.0861, 1078.409
991.5682, 1077.856
992.0504, 1076.354
992.5325, 1075.552
993.0146, 1076.441
993.4967, 1078.652
993.9788, 1079.366
994.4609, 1078.612
994.9431, 1080.881
995.4252, 1089.213
995.9073, 1099.622
996.3894, 1107.844
996.8715, 1115.207
997.3536, 1124.059
997.8358, 1136.746
998.3179, 1148.044
998.8000, 1156.856
999.2821, 1165.770
999.7642, 1177.187
1000.246, 1191.084
1000.728, 1206.714
1001.211, 1224.182
1001.693, 1242.874
1002.175, 1263.894
1002.657, 1284.930
1003.139, 1303.316
1003.621, 1319.908
1004.103, 1339.617
1004.585, 1362.766
1005.068, 1387.854
1005.550, 1415.072
1006.032, 1443.279
1006.514, 1471.910
1006.996, 1500.259
1007.478, 1527.145
1007.960, 1550.538
1008.442, 1576.400
1008.924, 1609.466
1009.407, 1643.708
1009.889, 1675.958
1010.371, 1706.075
1010.853, 1733.946
1011.335, 1759.881
1011.817, 1784.310
1012.299, 1809.699
1012.781, 1832.288
1013.263, 1848.843
1013.746, 1859.793
1014.228, 1867.133
1014.710, 1872.921
1015.192, 1872.295
1015.674, 1864.332
1016.156, 1849.896
1016.638, 1830.328
1017.120, 1805.261
1017.603, 1772.594
1018.085, 1731.041
1018.567, 1687.599
1019.049, 1645.862
1019.531, 1604.011
1020.013, 1559.836
1020.495, 1513.500
1020.977, 1469.004
1021.459, 1426.318
1021.942, 1385.670
1022.424, 1346.565
1022.906, 1310.258
1023.388, 1278.510
1023.870, 1250.288
1024.352, 1223.562
1024.834, 1196.352
1025.316, 1172.795
1025.799, 1153.245
1026.281, 1137.118
1026.763, 1124.239
1027.245, 1114.520
1027.727, 1106.260
1028.209, 1099.333
1028.691, 1092.887
1029.173, 1086.200
1029.656, 1079.890
1030.138, 1074.718
1030.620, 1070.425
1031.102, 1065.333
1031.584, 1058.920
1032.066, 1053.871
1032.548, 1051.220
1033.030, 1049.157
1033.512, 1044.506
1033.995, 1038.739
1034.477, 1034.833
1034.959, 1034.389
1035.441, 1032.209
1035.923, 1025.901
1036.405, 1018.808
1036.887, 1012.477
1037.369, 1006.903
1037.851, 1001.643
1038.334, 996.7473
1038.816, 991.8163
1039.298, 986.4138
1039.780, 981.1680
1040.262, 976.1647
1040.744, 971.6790
1041.226, 968.2016
1041.708, 965.8871
1042.191, 963.9387
1042.673, 962.1935
1043.155, 961.1068
1043.637, 961.3731
1044.119, 962.5038
1044.601, 963.8715
1045.083, 965.3909
1045.565, 966.4688
1046.047, 965.0222
1046.530, 965.4562
1047.012, 969.5637
1047.494, 976.1722
1047.976, 982.3083
1048.458, 988.0555
1048.940, 993.3152
1049.422, 997.8074
1049.904, 1002.771
1050.386, 1010.665
1050.869, 1018.622
1051.351, 1023.287
1051.833, 1023.840
1052.315, 1026.205
1052.797, 1031.163
1053.279, 1034.325
1053.761, 1032.356
1054.243, 1027.508
1054.726, 1023.898
1055.208, 1020.628
1055.690, 1015.325
1056.172, 1006.127
1056.654, 996.0765
1057.136, 985.3483
1057.618, 974.3150
1058.100, 963.1599
1058.583, 952.0189
1059.065, 941.9082
1059.547, 932.8907
1060.029, 923.9891
1060.511, 914.7963
1060.993, 905.5315
1061.475, 896.1099
1061.957, 886.7484
1062.439, 878.2636
1062.922, 870.6234
1063.404, 864.3087
1063.886, 859.9341
1064.368, 855.5721
1064.850, 847.8568
1065.332, 839.0618
1065.814, 832.3773
1066.296, 828.9228
1066.778, 825.5297
1067.261, 821.8629
1067.743, 818.1608
1068.225, 814.4855
1068.707, 810.8785
1069.189, 807.1232
1069.671, 803.5782
1070.153, 801.6448
1070.635, 803.5859
1071.118, 805.0608
1071.600, 803.9268
1072.082, 801.7092
1072.564, 799.8234
1073.046, 798.3027
1073.528, 796.5997
1074.010, 794.6725
1074.492, 793.7292
1074.974, 796.1201
1075.457, 798.7257
1075.939, 798.0423
1076.421, 795.0285
1076.903, 794.1575
1077.385, 796.9656
1077.867, 798.1964
1078.349, 796.5530
1078.831, 794.2543
1079.313, 794.4631
1079.796, 796.0140
1080.278, 796.6450
1080.760, 795.9756
1081.242, 795.9922
1081.724, 798.4611
1082.206, 800.4590
1082.688, 800.9950
1083.170, 800.2776
1083.652, 798.5377
1084.135, 796.0143
1084.617, 794.0072
1085.099, 793.0227
1085.581, 792.4412
1086.063, 792.1760
1086.545, 791.9481
1087.027, 791.2581
1087.509, 789.9084
1087.992, 790.6745
1088.474, 793.7177
1088.956, 796.5413
1089.438, 797.7691
1089.920, 797.8879
1090.402, 796.5782
1090.884, 794.6954
1091.366, 794.1513
1091.849, 796.4723
1092.331, 797.3258
1092.813, 795.8148
1093.295, 794.6132
1093.777, 797.4595
1094.259, 802.1359
1094.741, 803.6288
1095.223, 802.1873
1095.705, 801.5844
1096.188, 804.3654
1096.670, 806.9086
1097.152, 808.2137
1097.634, 808.8957
1098.116, 810.2927
1098.598, 812.1793
1099.080, 812.8994
1099.562, 812.0494
1100.044, 811.8270
1100.527, 813.5495
1101.009, 816.5823
1101.491, 821.4070
1101.973, 827.3524
1102.455, 829.7282
1102.937, 828.3990
1103.419, 827.7992
1103.901, 829.7399
1104.384, 832.1083
1104.866, 832.8829
1105.348, 832.7009
1105.830, 832.3722
1106.312, 832.1883
1106.794, 830.6348
1107.276, 827.0323
1107.758, 824.4994
1108.240, 826.0574
1108.723, 828.7516
1109.205, 826.4596
1109.687, 821.2631
1110.169, 817.9429
1110.651, 820.4433
1111.133, 821.2706
1111.615, 819.3176
1112.097, 816.5458
1112.579, 815.2565
1113.062, 814.6266
1113.544, 810.4782
1114.026, 803.4611
1114.508, 798.6281
1114.990, 801.2895
1115.472, 803.3326
1115.954, 801.1948
1116.436, 797.2741
1116.919, 795.2170
1117.401, 794.8621
1117.883, 793.7432
1118.365, 791.5421
1118.847, 789.7156
1119.329, 789.9848
1119.811, 790.4343
1120.293, 789.1892
1120.776, 786.9124
1121.258, 786.8019
1121.740, 789.2136
1122.222, 790.3365
1122.704, 789.1260
1123.186, 787.0439
1123.668, 785.1384
1124.150, 783.4825
1124.632, 781.9932
1125.115, 780.6290
1125.597, 780.8180
1126.079, 783.5334
1126.561, 784.3796
1127.043, 780.5753
1127.525, 775.7013
1128.007, 776.3438
1128.489, 779.9022
1128.971, 781.7384
1129.454, 779.6016
1129.936, 779.1566
1130.418, 782.1766
1130.900, 784.4516
1131.382, 782.5084
1131.864, 778.4011
1132.346, 778.5050
1132.828, 781.7138
1133.311, 784.5336
1133.793, 784.7219
1134.275, 785.5238
1134.757, 788.6310
1135.239, 791.5222
1135.721, 791.3733
1136.203, 788.7465
1136.685, 788.5491
1137.167, 790.6082
1137.650, 792.6331
1138.132, 793.0970
1138.614, 793.4449
1139.096, 793.9023
1139.578, 794.9124
1140.060, 797.4650
1140.542, 801.6124
1141.024, 804.5333
1141.506, 805.9919
1141.989, 807.0118
1142.471, 808.2508
1142.953, 809.4537
1143.435, 810.5340
1143.917, 811.4227
1144.399, 811.8568
1144.881, 811.7070
1145.363, 812.2946
1145.846, 814.0223
1146.328, 815.3615
1146.810, 814.0529
1147.292, 812.1093
1147.774, 811.8979
1148.256, 813.4656
1148.738, 812.9714
1149.220, 809.6730
1149.703, 807.1466
1150.185, 806.6130
1150.667, 806.5351
1151.149, 804.6683
1151.631, 802.0738
1152.113, 800.2656
1152.595, 799.6178
1153.077, 798.6740
1153.559, 797.1769
1154.042, 795.7945
1154.524, 794.8556
1155.006, 794.0793
1155.488, 792.5209
1155.970, 790.8398
1156.452, 790.6290
1156.934, 793.2846
1157.416, 794.1094
1157.898, 791.6860
1158.381, 789.1842
1158.863, 788.2923
1159.345, 788.6335
1159.827, 790.1906
1160.309, 792.0548
1160.791, 791.5350
1161.273, 785.3418
1161.755, 780.9473
1162.238, 780.3337
1162.720, 781.2296
1163.202, 782.5378
1163.684, 784.0134
1164.166, 784.1151
1164.648, 783.1169
1165.130, 782.2157
1165.612, 781.5514
1166.094, 781.6459
1166.577, 782.9333
1167.059, 784.7465
1167.541, 786.7388
1168.023, 788.7813
1168.505, 789.7348
1168.987, 789.5709
1169.469, 788.4232
1169.951, 784.5831
1170.433, 781.8101
1170.916, 782.9789
1171.398, 785.4202
1171.880, 785.6016
1172.362, 783.6625
1172.844, 781.9003
1173.326, 780.5343
1173.808, 780.4472
1174.290, 784.2164
1174.773, 787.4655
1175.255, 787.0452
1175.737, 784.5359
1176.219, 782.7133
1176.701, 781.5717
1177.183, 780.6796
1177.665, 779.9998
1178.147, 779.1181
1178.630, 776.3751
1179.112, 774.5391
1179.594, 776.7108
1180.076, 781.3517
1180.558, 783.3123
1181.040, 782.4489
1181.522, 781.9252
1182.004, 782.3754
1182.486, 782.9788
1182.969, 782.1290
1183.451, 781.8218
1183.933, 784.7853
1184.415, 790.2006
1184.897, 792.0354
1185.379, 789.9681
1185.861, 787.8270
1186.343, 786.4432
1186.825, 785.9645
1187.308, 787.5637
1187.790, 789.4225
1188.272, 789.5660
1188.754, 787.9710
1189.236, 786.7194
1189.718, 785.7833
1190.200, 785.8068
1190.682, 787.3365
1191.165, 788.9525
1191.647, 789.6135
1192.129, 789.2546
1192.611, 787.1669
1193.093, 783.1271
1193.575, 781.3997
1194.057, 782.0424
1194.539, 784.9073
1195.021, 791.2137
1195.504, 797.0494
1195.986, 797.5524
1196.468, 795.1552
1196.950, 792.4882
1197.432, 789.5059
1197.914, 789.0515
1198.396, 791.5792
1198.878, 793.4344
1199.360, 792.0952
1199.843, 790.4413
1200.325, 793.0349
1200.807, 796.9436
1201.289, 797.6077
1201.771, 793.5054
1202.253, 791.2887
1202.735, 791.1879
1203.217, 791.5880
1203.700, 791.8898
1204.182, 791.8785
1204.664, 790.9587
1205.146, 789.6934
1205.628, 789.0179
1206.110, 789.2224
1206.592, 789.2263
1207.074, 788.9407
1207.557, 788.9622
1208.039, 789.9899
1208.521, 791.1944
1209.003, 791.7423
1209.485, 791.7777
1209.967, 791.4824
1210.449, 790.5452
1210.931, 790.1351
1211.413, 790.1659
1211.896, 791.3157
1212.378, 796.2849
1212.860, 800.6956
1213.342, 797.8356
1213.824, 791.3830
1214.306, 789.3228
1214.788, 794.0504
1215.270, 796.4666
1215.752, 796.2177
1216.235, 794.9349
1216.717, 793.0481
1217.199, 791.3956
1217.681, 791.0145
1218.163, 791.4720
1218.645, 791.8226
1219.127, 792.0745
1219.609, 791.8217
1220.092, 790.9606
1220.574, 790.4491
1221.056, 791.4329
1221.538, 792.7610
1222.020, 793.3397
1222.502, 793.4340
1222.984, 793.6799
1223.466, 793.9714
1223.948, 795.3852
1224.431, 798.1371
1224.913, 799.9655
1225.395, 798.2170
1225.877, 795.5565
1226.359, 793.6429
1226.841, 792.6858
1227.323, 792.9919
1227.805, 794.8584
1228.287, 795.9128
1228.770, 795.9758
1229.252, 795.4667
1229.734, 793.7380
1230.216, 792.5139
1230.698, 793.8633
1231.180, 796.4562
1231.662, 796.9929
1232.144, 795.2338
1232.627, 794.9486
1233.109, 796.4887
1233.591, 797.9361
1234.073, 797.6932
1234.555, 797.0483
1235.037, 796.9658
1235.519, 797.0234
1236.001, 796.1514
1236.484, 794.3627
1236.966, 794.0087
1237.448, 795.2934
1237.930, 795.9138
1238.412, 792.6641
1238.894, 790.0557
1239.376, 791.4704
1239.858, 794.7444
1240.340, 796.6573
1240.823, 797.2531
1241.305, 797.1967
1241.787, 796.5752
1242.269, 796.0705
1242.751, 796.7911
1243.233, 796.8439
1243.715, 794.4993
1244.197, 791.8668
1244.679, 792.6746
1245.162, 796.2460
1245.644, 799.0936
1246.126, 800.9240
1246.608, 802.0961
1247.090, 802.8586
1247.572, 802.7959
1248.054, 801.3419
1248.536, 799.7029
1249.019, 800.0501
1249.501, 801.7164
1249.983, 802.4046
1250.465, 802.0276
1250.947, 802.2054
1251.429, 804.4496
1251.911, 806.2107
1252.393, 807.0817
1252.875, 807.0531
1253.358, 805.4191
1253.840, 803.1042
1254.322, 802.4205
1254.804, 803.3458
1255.286, 803.9250
1255.768, 802.8690
1256.250, 802.8757
1256.732, 804.7142
1257.214, 806.8314
1257.697, 807.5295
1258.179, 807.1345
1258.661, 805.3094
1259.143, 802.5616
1259.625, 802.4373
1260.107, 807.1738
1260.589, 809.2025
1261.071, 806.9359
1261.554, 803.9540
1262.036, 804.2343
1262.518, 805.8314
1263.000, 806.7706
1263.482, 806.9484
1263.964, 806.5833
1264.446, 805.4754
1264.928, 804.8221
1265.411, 804.7926
1265.893, 805.0477
1266.375, 805.3651
1266.857, 805.7506
1267.339, 806.1394
1267.821, 806.6187
1268.303, 807.6259
1268.785, 809.3006
1269.267, 809.4453
1269.750, 807.7766
1270.232, 806.1697
1270.714, 805.8313
1271.196, 806.2040
1271.678, 807.3439
1272.160, 808.7753
1272.642, 810.0951
1273.124, 811.2032
1273.606, 810.1801
1274.089, 807.0438
1274.571, 804.5987
1275.053, 805.3477
1275.535, 806.0740
1276.017, 805.0675
1276.499, 803.9766
1276.981, 805.6201
1277.463, 809.0548
1277.946, 810.5848
1278.428, 810.1705
1278.910, 809.4698
1279.392, 809.1405
1279.874, 808.6171
1280.356, 807.5696
1280.838, 806.7311
1281.320, 806.8231
1281.802, 807.7265
1282.285, 809.7157
1282.767, 812.3908
1283.249, 814.0107
1283.731, 813.9354
1284.213, 812.9720
1284.695, 810.9237
1285.177, 808.9918
1285.659, 808.3098
1286.141, 808.3637
1286.624, 808.7126
1287.106, 809.2549
1287.588, 809.7914
1288.070, 810.3792
1288.552, 810.4190
1289.034, 809.7645
1289.516, 809.9921
1289.998, 814.0093
1290.481, 817.6949
1290.963, 816.7302
1291.445, 813.6105
1291.927, 812.9067
1292.409, 814.8265
1292.891, 815.0205
1293.373, 813.5325
1293.855, 812.5015
1294.338, 813.6523
1294.820, 815.0312
1295.302, 816.3129
1295.784, 816.8693
1296.266, 815.4693
1296.748, 812.6481
1297.230, 812.2980
1297.712, 814.0120
1298.194, 815.7372
1298.677, 816.0154
1299.159, 816.6755
1299.641, 818.4493
1300.123, 819.6909
1300.605, 818.2287
1301.087, 815.7598
1301.569, 817.0143
1302.051, 820.2734
1302.533, 821.7159
1303.016, 819.8128
##END=



