##NAMES=Eosphorite
##RRUFFID=R050557
##IDEAL CHEMISTRY=Mn^2+^AlPO_4_(OH)_2_&#183;H_2_O
##LOCALITY=Minas Gerais, Brazil
##OWNER=RRUFF
##SOURCE=Dave Bunk Minerals
##DESCRIPTION=A radial group of light brown bladed crystals
##STATUS=The identification of this mineral has been confirmed by X-ray diffraction and chemical analysis
##URL=rruff.info/R050557
##MEASURED CHEMISTRY=(Mn^2+^_0.46_Fe^2+^_0.32_Ca_0.16_Mg_0.06_)_Σ=1_Al_1.00_(P_1.00_O_4_)(OH)_2_·H_2_O
92.06543, 827.6982
92.54755, 820.7815
93.02966, 823.0856
93.51178, 834.4138
93.99390, 839.9371
94.47601, 838.1136
94.95813, 831.3157
95.44025, 823.0431
95.92236, 815.8004
96.40448, 809.3112
96.88660, 804.8258
97.36871, 805.0768
97.85082, 805.5724
98.33294, 803.0388
98.81506, 796.6242
99.29717, 787.4371
99.77929, 780.0408
100.2614, 774.4506
100.7435, 769.5683
101.2256, 765.2961
101.7078, 761.3217
102.1899, 756.9164
102.6720, 751.1160
103.1541, 745.9167
103.6362, 743.0958
104.1183, 742.5580
104.6005, 742.5604
105.0826, 741.3423
105.5647, 738.5509
106.0468, 737.0182
106.5289, 738.4609
107.0110, 740.3591
107.4931, 741.2147
107.9753, 740.5992
108.4574, 739.1592
108.9395, 738.1422
109.4216, 737.6122
109.9037, 737.4138
110.3858, 737.7569
110.8680, 738.2704
111.3501, 738.5939
111.8322, 738.5307
112.3143, 738.1033
112.7964, 737.4510
113.2785, 736.7119
113.7607, 735.6263
114.2428, 733.8858
114.7249, 731.6910
115.2070, 729.6615
115.6891, 728.5170
116.1712, 728.0577
116.6534, 725.6370
117.1355, 720.5330
117.6176, 714.1046
118.0997, 707.2105
118.5818, 699.8943
119.0639, 692.2616
119.5461, 684.8043
120.0282, 677.2343
120.5103, 668.3313
120.9924, 656.4748
121.4745, 643.0859
121.9566, 631.8223
122.4388, 624.9280
122.9209, 617.1716
123.4030, 603.6780
123.8851, 586.0264
124.3672, 569.5731
124.8493, 558.8450
125.3315, 554.1318
125.8136, 550.3801
126.2957, 548.8619
126.7778, 547.1569
127.2599, 543.8667
127.7420, 539.0490
128.2242, 533.9720
128.7063, 530.5284
129.1884, 530.0175
129.6705, 528.4496
130.1526, 524.8107
130.6347, 520.8682
131.1169, 517.9396
131.5990, 516.4594
132.0811, 515.9716
132.5632, 515.4957
133.0453, 515.2386
133.5274, 514.7291
134.0096, 513.8489
134.4917, 512.7234
134.9738, 511.4990
135.4559, 510.2192
135.9380, 508.9354
136.4201, 507.8177
136.9023, 506.6524
137.3844, 505.8696
137.8665, 506.1865
138.3486, 507.2798
138.8307, 507.5435
139.3128, 505.5257
139.7950, 502.2875
140.2771, 500.3296
140.7592, 500.0557
141.2413, 500.8130
141.7234, 502.3501
142.2055, 504.9179
142.6877, 506.9206
143.1698, 507.1718
143.6519, 506.4273
144.1340, 505.3652
144.6161, 504.0382
145.0982, 502.6698
145.5803, 501.7675
146.0625, 501.0850
146.5446, 501.4106
147.0267, 503.8338
147.5088, 507.1749
147.9909, 509.5056
148.4730, 509.1780
148.9552, 506.4171
149.4373, 505.8042
149.9194, 510.0668
150.4015, 514.1391
150.8836, 516.7809
151.3657, 518.1516
151.8479, 519.0086
152.3300, 519.9861
152.8121, 521.1252
153.2942, 522.1700
153.7763, 522.5484
154.2584, 523.3176
154.7406, 525.3698
155.2227, 528.5673
155.7048, 531.7676
156.1869, 533.5141
156.6690, 532.9255
157.1511, 534.4788
157.6333, 540.6838
158.1154, 547.5911
158.5975, 551.4784
159.0796, 551.5201
159.5617, 549.7897
160.0438, 548.5603
160.5260, 547.7569
161.0081, 547.7704
161.4902, 549.3026
161.9723, 551.6387
162.4544, 553.2331
162.9365, 553.2294
163.4187, 553.4642
163.9008, 556.5690
164.3829, 562.3888
164.8650, 567.6296
165.3471, 569.5098
165.8292, 568.6953
166.3113, 569.7393
166.7935, 575.2219
167.2756, 581.3502
167.7577, 584.8545
168.2398, 585.6904
168.7219, 586.4089
169.2040, 590.1605
169.6862, 597.7106
170.1683, 602.9922
170.6504, 603.8448
171.1325, 602.8451
171.6146, 600.6722
172.0967, 597.6328
172.5789, 594.4934
173.0610, 592.5480
173.5431, 592.7694
174.0252, 591.9283
174.5073, 589.6627
174.9894, 586.5649
175.4716, 582.4642
175.9537, 577.4895
176.4358, 572.7149
176.9179, 570.4305
177.4000, 573.2084
177.8821, 575.1381
178.3643, 576.2845
178.8464, 576.4778
179.3285, 575.1779
179.8106, 572.1670
180.2927, 568.2819
180.7748, 565.8383
181.2570, 565.2709
181.7391, 565.5900
182.2212, 567.2232
182.7033, 569.6068
183.1854, 571.8801
183.6675, 573.6373
184.1497, 575.0684
184.6318, 576.7917
185.1139, 578.9621
185.5960, 581.1015
186.0781, 583.1680
186.5602, 585.0892
187.0423, 586.5433
187.5245, 587.0751
188.0066, 587.3211
188.4887, 588.8766
188.9708, 592.7086
189.4529, 596.1278
189.9350, 596.7719
190.4172, 594.9326
190.8993, 593.8692
191.3814, 595.3663
191.8635, 598.3809
192.3456, 601.4510
192.8277, 604.6393
193.3099, 607.4372
193.7920, 609.1320
194.2741, 609.5656
194.7562, 610.1053
195.2383, 611.6885
195.7204, 613.4858
196.2026, 614.5729
196.6847, 614.4627
197.1668, 614.3591
197.6489, 616.5374
198.1310, 622.2267
198.6131, 626.6604
199.0953, 628.0354
199.5774, 627.9021
200.0595, 627.2877
200.5416, 626.5145
201.0237, 625.8590
201.5058, 625.9184
201.9880, 626.7672
202.4701, 628.3167
202.9522, 630.6865
203.4343, 633.5408
203.9164, 636.7483
204.3985, 640.2704
204.8807, 643.7372
205.3628, 646.0294
205.8449, 646.8871
206.3270, 646.6534
206.8091, 644.9430
207.2912, 642.3802
207.7733, 639.6736
208.2555, 637.1921
208.7376, 634.7231
209.2197, 631.4659
209.7018, 625.9816
210.1839, 621.3096
210.6660, 617.3693
211.1482, 614.5248
211.6303, 613.6541
212.1124, 615.3715
212.5945, 618.7513
213.0766, 619.9591
213.5587, 616.2579
214.0409, 613.7793
214.5230, 614.8757
215.0051, 617.9202
215.4872, 619.8428
215.9693, 618.9160
216.4514, 616.0875
216.9336, 615.0320
217.4157, 616.4670
217.8978, 618.2440
218.3799, 620.4777
218.8620, 622.6084
219.3441, 622.8065
219.8263, 619.3645
220.3084, 614.3566
220.7905, 613.4683
221.2726, 618.6743
221.7547, 624.0089
222.2368, 626.3295
222.7190, 626.2332
223.2011, 626.1283
223.6832, 627.0126
224.1653, 628.5088
224.6474, 629.7918
225.1295, 630.7683
225.6117, 631.7577
226.0938, 632.7081
226.5759, 633.7018
227.0580, 635.5672
227.5401, 639.4650
228.0222, 643.7225
228.5043, 646.2129
228.9865, 646.5260
229.4686, 646.2512
229.9507, 646.5695
230.4328, 647.4760
230.9149, 648.6580
231.3970, 650.9982
231.8792, 652.7975
232.3613, 652.0540
232.8434, 648.3456
233.3255, 644.6588
233.8076, 644.6123
234.2897, 648.6532
234.7719, 651.0843
235.2540, 648.2089
235.7361, 644.9228
236.2182, 644.4229
236.7003, 647.1246
237.1824, 651.0464
237.6646, 654.6767
238.1467, 658.3718
238.6288, 659.7991
239.1109, 655.0188
239.5930, 650.3993
240.0751, 649.9319
240.5573, 653.7979
241.0394, 658.6653
241.5215, 660.3920
242.0036, 657.9269
242.4857, 656.6093
242.9678, 656.9908
243.4500, 658.3309
243.9321, 661.3681
244.4142, 665.5753
244.8963, 668.7698
245.3784, 667.7206
245.8605, 660.3717
246.3427, 656.4062
246.8248, 659.5478
247.3069, 662.7341
247.7890, 661.9398
248.2711, 657.4064
248.7532, 652.4314
249.2354, 650.6876
249.7175, 653.3275
250.1996, 654.2921
250.6817, 652.7297
251.1638, 650.4996
251.6459, 648.4984
252.1281, 646.6784
252.6102, 644.3480
253.0923, 640.6145
253.5744, 634.9803
254.0565, 631.2004
254.5386, 631.2041
255.0208, 630.9335
255.5029, 627.8693
255.9850, 622.6260
256.4671, 617.9114
256.9492, 616.3054
257.4313, 618.3013
257.9135, 617.5292
258.3956, 612.3705
258.8777, 606.6947
259.3598, 601.9044
259.8419, 597.9873
260.3240, 594.4229
260.8062, 590.8954
261.2883, 587.3950
261.7704, 583.3232
262.2525, 578.4789
262.7346, 573.3848
263.2167, 568.0043
263.6989, 562.5120
264.1810, 557.3936
264.6631, 552.9741
265.1452, 549.1797
265.6273, 545.3060
266.1094, 541.0297
266.5916, 537.0457
267.0737, 534.0884
267.5558, 531.6649
268.0379, 528.3929
268.5200, 523.2527
269.0021, 516.9915
269.4843, 512.7789
269.9664, 511.7425
270.4485, 510.8774
270.9306, 509.2080
271.4127, 507.0392
271.8948, 504.9510
272.3770, 503.1299
272.8591, 501.6622
273.3412, 500.8104
273.8233, 500.6018
274.3054, 500.7285
274.7875, 501.4865
275.2697, 502.4740
275.7518, 502.8926
276.2339, 502.4111
276.7160, 501.3880
277.1981, 500.2831
277.6802, 498.8522
278.1623, 498.1930
278.6444, 498.8920
279.1266, 500.5018
279.6087, 502.5151
280.0908, 504.9880
280.5729, 507.1526
281.0550, 507.6284
281.5371, 506.4547
282.0193, 505.3973
282.5014, 505.2195
282.9835, 505.3138
283.4656, 504.4010
283.9477, 502.0055
284.4298, 500.0909
284.9120, 501.3423
285.3941, 505.3004
285.8762, 508.8156
286.3583, 511.2105
286.8404, 512.8420
287.3225, 514.2301
287.8047, 515.4659
288.2868, 515.9973
288.7689, 514.9214
289.2510, 512.6867
289.7331, 510.8785
290.2152, 509.0010
290.6974, 508.1245
291.1795, 510.4289
291.6616, 516.0812
292.1437, 520.3456
292.6258, 519.1741
293.1079, 514.6954
293.5901, 512.1010
294.0722, 512.5276
294.5543, 514.2640
295.0364, 516.5052
295.5185, 519.1817
296.0006, 520.8092
296.4828, 520.2286
296.9649, 518.3904
297.4470, 517.1702
297.9291, 516.9252
298.4112, 516.5825
298.8933, 514.7679
299.3755, 511.8899
299.8576, 510.7054
300.3397, 513.3379
300.8218, 516.7516
301.3039, 516.5338
301.7860, 512.1859
302.2682, 508.0482
302.7503, 506.7451
303.2324, 507.6176
303.7145, 508.5814
304.1966, 509.7574
304.6787, 509.8999
305.1609, 507.3334
305.6430, 502.3636
306.1251, 497.3434
306.6072, 492.8163
307.0893, 489.0096
307.5714, 486.6754
308.0536, 486.3070
308.5357, 486.2739
309.0178, 485.2705
309.4999, 483.5265
309.9820, 481.5050
310.4641, 479.0635
310.9463, 476.5497
311.4284, 474.7946
311.9105, 474.0678
312.3926, 472.7151
312.8747, 469.2493
313.3568, 464.4713
313.8390, 459.6333
314.3211, 454.1101
314.8032, 449.5152
315.2853, 448.3576
315.7674, 450.7220
316.2495, 452.1675
316.7317, 450.4453
317.2138, 446.6382
317.6959, 442.3705
318.1780, 437.4051
318.6601, 432.8811
319.1422, 429.7815
319.6243, 427.9513
320.1064, 426.4208
320.5886, 424.9091
321.0707, 423.5882
321.5528, 422.6519
322.0349, 422.1103
322.5170, 421.6766
322.9991, 421.6926
323.4813, 421.7297
323.9634, 420.1779
324.4455, 415.9839
324.9276, 411.8421
325.4097, 410.9711
325.8918, 412.7299
326.3740, 414.2085
326.8561, 414.2591
327.3382, 413.4586
327.8203, 412.8197
328.3024, 412.5284
328.7845, 411.7871
329.2667, 409.2695
329.7488, 405.8306
330.2309, 403.6412
330.7130, 403.6989
331.1951, 404.7643
331.6772, 405.9538
332.1594, 407.2562
332.6415, 407.9910
333.1236, 407.6384
333.6057, 406.5006
334.0878, 405.3169
334.5699, 403.9844
335.0521, 402.8398
335.5342, 401.8806
336.0163, 401.2249
336.4984, 401.4893
336.9805, 403.2325
337.4626, 405.5206
337.9448, 406.9362
338.4269, 407.4828
338.9090, 407.6152
339.3911, 407.7128
339.8732, 407.4893
340.3553, 405.9455
340.8375, 402.4979
341.3196, 399.3450
341.8017, 399.6975
342.2838, 403.1620
342.7659, 405.4620
343.2480, 404.6419
343.7302, 402.9185
344.2123, 402.5659
344.6944, 403.7568
345.1765, 405.8197
345.6586, 408.9205
346.1407, 412.5322
346.6229, 414.0256
347.1050, 411.3499
347.5871, 408.3547
348.0692, 407.3369
348.5513, 407.9773
349.0334, 409.0758
349.5156, 410.2147
349.9977, 411.2443
350.4798, 411.6764
350.9619, 411.1168
351.4440, 410.8589
351.9261, 411.6371
352.4083, 412.9097
352.8904, 413.5792
353.3725, 413.2210
353.8546, 412.9025
354.3367, 414.6310
354.8188, 419.4478
355.3010, 421.7265
355.7831, 418.0291
356.2652, 413.4098
356.7473, 412.9322
357.2294, 416.9467
357.7115, 421.6861
358.1937, 423.9192
358.6758, 423.4913
359.1579, 423.1505
359.6400, 422.6100
360.1221, 422.4155
360.6042, 423.1314
361.0863, 424.4411
361.5685, 425.4073
362.0506, 425.4165
362.5327, 424.8493
363.0148, 425.3056
363.4969, 426.8331
363.9790, 429.2303
364.4612, 433.9256
364.9433, 438.9408
365.4254, 441.1900
365.9075, 439.7657
366.3896, 437.2919
366.8717, 438.0364
367.3539, 443.8083
367.8360, 448.9378
368.3181, 452.9162
368.8002, 456.6757
369.2823, 460.1393
369.7644, 463.7425
370.2466, 469.1320
370.7287, 478.4157
371.2108, 492.0781
371.6929, 500.7826
372.1750, 500.4305
372.6571, 499.9074
373.1393, 502.8724
373.6214, 507.3209
374.1035, 508.5824
374.5856, 503.7198
375.0677, 496.0946
375.5498, 497.1040
376.0320, 515.8055
376.5141, 529.9359
376.9962, 534.9160
377.4783, 536.4652
377.9604, 539.3148
378.4425, 544.7280
378.9247, 551.0748
379.4068, 555.9369
379.8889, 558.4600
380.3710, 562.5124
380.8531, 570.7829
381.3352, 578.1754
381.8174, 581.6426
382.2995, 582.1131
382.7816, 582.6648
383.2637, 585.4590
383.7458, 590.3240
384.2279, 596.4157
384.7101, 606.1760
385.1922, 613.2520
385.6743, 614.8261
386.1564, 613.4157
386.6385, 611.1589
387.1206, 608.3929
387.6028, 607.7299
388.0849, 614.9426
388.5670, 632.3231
389.0491, 646.5538
389.5312, 655.1391
390.0133, 658.9345
390.4955, 655.9737
390.9776, 646.8839
391.4597, 638.7831
391.9418, 637.8596
392.4239, 643.0065
392.9060, 648.1605
393.3882, 654.0469
393.8703, 657.7812
394.3524, 657.0842
394.8345, 653.0900
395.3166, 647.9651
395.7987, 642.4684
396.2809, 636.2822
396.7630, 628.6480
397.2451, 619.3879
397.7272, 610.5338
398.2093, 603.0420
398.6914, 596.4395
399.1736, 589.8827
399.6557, 583.2206
400.1378, 576.8148
400.6199, 571.0289
401.1020, 565.6555
401.5841, 560.3711
402.0662, 555.3768
402.5483, 549.6344
403.0305, 541.4762
403.5126, 531.0759
403.9947, 520.8996
404.4768, 510.6288
404.9589, 501.2558
405.4410, 494.2828
405.9232, 489.5627
406.4053, 484.9371
406.8874, 478.9337
407.3695, 471.9236
407.8516, 465.6508
408.3337, 460.1848
408.8159, 455.2780
409.2980, 450.9024
409.7801, 447.0064
410.2622, 443.9994
410.7443, 442.0481
411.2264, 439.5750
411.7086, 433.7180
412.1907, 421.7211
412.6728, 413.3715
413.1549, 410.9335
413.6370, 410.1977
414.1191, 409.3314
414.6013, 407.6632
415.0834, 403.9625
415.5655, 396.7124
416.0476, 386.3510
416.5297, 381.0568
417.0118, 386.8663
417.4940, 390.9956
417.9761, 390.3430
418.4582, 387.1988
418.9403, 384.5620
419.4224, 383.5634
419.9045, 383.0942
420.3867, 380.8258
420.8688, 375.1642
421.3509, 372.0532
421.8330, 373.7129
422.3151, 376.1608
422.7972, 378.0705
423.2794, 378.9732
423.7615, 378.2274
424.2436, 374.5041
424.7257, 368.5799
425.2078, 366.0356
425.6899, 369.4062
426.1721, 371.7294
426.6542, 368.9970
427.1363, 364.5541
427.6184, 362.5493
428.1005, 364.5116
428.5826, 367.9865
429.0648, 370.2987
429.5469, 371.4582
430.0290, 371.8163
430.5111, 371.1143
430.9932, 369.9501
431.4753, 368.2688
431.9575, 366.2991
432.4396, 365.9017
432.9217, 369.5820
433.4038, 374.8462
433.8859, 376.9978
434.3680, 375.4907
434.8502, 374.0160
435.3323, 375.2378
435.8144, 378.1149
436.2965, 379.5899
436.7786, 378.7366
437.2607, 377.7273
437.7429, 377.4748
438.2250, 377.9414
438.7071, 379.1421
439.1892, 381.1362
439.6713, 383.5752
440.1534, 386.0973
440.6356, 388.8583
441.1177, 390.8947
441.5998, 391.3424
442.0819, 391.6826
442.5640, 393.1469
443.0461, 395.5562
443.5282, 397.8455
444.0103, 399.2478
444.4925, 399.9771
444.9746, 401.2218
445.4567, 403.0267
445.9388, 405.3101
446.4209, 408.3269
446.9030, 411.6699
447.3852, 415.1172
447.8673, 418.5294
448.3494, 421.6544
448.8315, 424.0425
449.3136, 425.4102
449.7957, 427.4560
450.2779, 430.5524
450.7600, 433.9935
451.2421, 437.5380
451.7242, 441.2596
452.2063, 445.5015
452.6884, 450.5905
453.1706, 455.8509
453.6527, 459.5836
454.1348, 461.5003
454.6169, 462.7509
455.0990, 462.6658
455.5811, 462.6409
456.0633, 463.5937
456.5454, 465.6244
457.0275, 468.3692
457.5096, 472.4235
457.9917, 477.0734
458.4738, 479.5521
458.9560, 479.1160
459.4381, 478.1461
459.9202, 478.0996
460.4023, 478.6477
460.8844, 479.2608
461.3665, 480.0526
461.8487, 480.5898
462.3308, 480.4972
462.8129, 479.8677
463.2950, 478.9857
463.7771, 477.8766
464.2592, 476.7041
464.7414, 475.7977
465.2235, 475.2726
465.7056, 474.1766
466.1877, 471.8572
466.6698, 469.3281
467.1519, 467.6437
467.6341, 466.6015
468.1162, 465.0747
468.5983, 462.2998
469.0804, 458.5375
469.5625, 455.0860
470.0446, 452.9708
470.5268, 449.8514
471.0089, 444.6254
471.4910, 438.8629
471.9731, 434.1115
472.4552, 430.6199
472.9373, 427.5454
473.4195, 423.9625
473.9016, 419.8236
474.3837, 415.8782
474.8658, 411.8651
475.3479, 408.3946
475.8300, 406.7025
476.3122, 405.3390
476.7943, 401.9585
477.2764, 395.4171
477.7585, 387.7412
478.2406, 381.9209
478.7227, 378.1203
479.2049, 374.9108
479.6870, 372.1969
480.1691, 369.9051
480.6512, 368.2036
481.1333, 366.9387
481.6154, 365.3966
482.0976, 363.3094
482.5797, 360.7120
483.0618, 357.1236
483.5439, 352.4866
484.0260, 349.2866
484.5081, 349.7256
484.9902, 351.6585
485.4724, 350.1790
485.9545, 343.7970
486.4366, 338.6216
486.9187, 337.4915
487.4008, 338.4161
487.8829, 338.9081
488.3651, 338.5478
488.8472, 337.9235
489.3293, 337.6066
489.8114, 337.5873
490.2935, 336.8238
490.7756, 334.6783
491.2578, 332.6800
491.7399, 331.3292
492.2220, 330.3547
492.7041, 329.5512
493.1862, 328.8044
493.6683, 327.7260
494.1505, 325.4469
494.6326, 321.1709
495.1147, 318.8784
495.5968, 320.6197
496.0789, 322.3980
496.5610, 322.7243
497.0432, 322.0202
497.5253, 321.3749
498.0074, 321.4591
498.4895, 321.5489
498.9716, 319.9822
499.4537, 316.3828
499.9359, 313.5060
500.4180, 312.2486
500.9001, 311.7289
501.3822, 311.3959
501.8643, 311.1827
502.3464, 310.7251
502.8286, 310.0689
503.3107, 308.9644
503.7928, 306.3708
504.2749, 302.2770
504.7570, 299.6837
505.2391, 300.8409
505.7213, 304.1047
506.2034, 305.0219
506.6855, 302.6939
507.1676, 300.4728
507.6497, 298.8557
508.1318, 298.0081
508.6140, 298.6479
509.0961, 300.6196
509.5782, 302.2767
510.0603, 302.1388
510.5424, 300.2970
511.0245, 298.5420
511.5067, 295.9407
511.9888, 294.5738
512.4709, 296.4633
512.9530, 298.9212
513.4351, 298.5158
513.9172, 294.5961
514.3994, 290.0567
514.8815, 288.7800
515.3636, 291.1391
515.8457, 291.5530
516.3278, 288.1160
516.8099, 285.2657
517.2921, 285.2047
517.7742, 286.7239
518.2563, 288.0263
518.7384, 288.5720
519.2205, 288.5956
519.7026, 288.8080
520.1848, 288.9697
520.6669, 286.5700
521.1490, 279.5870
521.6311, 272.9567
522.1132, 272.7587
522.5953, 277.7970
523.0775, 282.1652
523.5596, 285.6866
524.0417, 287.4786
524.5238, 285.2162
525.0059, 280.5917
525.4880, 278.6981
525.9702, 281.8482
526.4523, 287.0837
526.9344, 289.3738
527.4165, 287.4548
527.8986, 285.6247
528.3807, 282.9502
528.8629, 281.2111
529.3450, 282.2240
529.8271, 284.9420
530.3092, 286.9704
530.7913, 286.9581
531.2734, 285.4654
531.7556, 283.3548
532.2377, 279.3922
532.7198, 278.3580
533.2019, 284.6271
533.6840, 291.0211
534.1661, 293.5314
534.6483, 292.4844
535.1304, 290.4857
535.6125, 288.1430
536.0946, 286.3103
536.5767, 286.9503
537.0588, 290.1844
537.5410, 293.3068
538.0231, 295.1582
538.5052, 296.4433
538.9873, 298.1353
539.4694, 300.1886
539.9515, 302.8291
540.4337, 306.5930
540.9158, 310.6707
541.3979, 314.6781
541.8800, 318.3616
542.3621, 320.9117
542.8442, 321.7710
543.3264, 321.2171
543.8085, 320.1333
544.2906, 315.5897
544.7726, 314.8004
545.2548, 321.5601
545.7369, 329.2002
546.2190, 332.1689
546.7011, 331.0141
547.1832, 330.2805
547.6653, 333.7459
548.1475, 339.9834
548.6296, 342.7397
549.1117, 339.9957
549.5938, 339.0839
550.0759, 343.5190
550.5580, 349.7208
551.0402, 355.6980
551.5223, 361.1433
552.0044, 365.3792
552.4865, 367.3756
552.9686, 368.1571
553.4507, 369.6875
553.9329, 372.0519
554.4150, 373.8456
554.8971, 373.9638
555.3792, 373.3210
555.8613, 374.3365
556.3434, 377.4691
556.8256, 380.7250
557.3077, 385.3224
557.7898, 388.7965
558.2719, 388.2292
558.7540, 384.0387
559.2361, 379.0600
559.7183, 375.1887
560.2004, 372.2096
560.6825, 369.0916
561.1646, 365.5854
561.6467, 362.4211
562.1288, 359.2061
562.6110, 356.6540
563.0931, 355.9499
563.5752, 356.6245
564.0573, 356.3732
564.5394, 352.6285
565.0215, 347.3365
565.5037, 346.0843
565.9858, 349.5705
566.4679, 352.4641
566.9500, 352.3301
567.4321, 351.0340
567.9142, 350.7997
568.3964, 351.5962
568.8785, 353.7121
569.3606, 358.1597
569.8427, 363.3483
570.3248, 367.9353
570.8069, 371.7850
571.2891, 374.7274
571.7712, 376.4069
572.2533, 377.7972
572.7354, 381.3132
573.2175, 388.1656
573.6996, 395.1736
574.1818, 402.9352
574.6639, 410.3434
575.1460, 416.7101
575.6281, 422.1620
576.1102, 427.0200
576.5923, 431.3824
577.0745, 435.5937
577.5566, 440.3460
578.0387, 445.6100
578.5208, 451.5341
579.0029, 458.0777
579.4850, 465.3622
579.9672, 474.1494
580.4493, 483.8812
580.9314, 492.1905
581.4135, 497.5024
581.8956, 501.6132
582.3777, 505.8084
582.8599, 510.2228
583.3420, 515.4232
583.8241, 521.6057
584.3062, 528.7276
584.7883, 537.0167
585.2704, 547.0687
585.7526, 555.2864
586.2347, 560.5548
586.7168, 565.3576
587.1989, 570.0435
587.6810, 575.1967
588.1631, 581.9685
588.6453, 590.6794
589.1274, 599.7540
589.6095, 607.0699
590.0916, 612.6041
590.5737, 616.5029
591.0558, 617.5942
591.5380, 618.7532
592.0201, 622.1309
592.5022, 626.1523
592.9843, 628.2772
593.4664, 627.5496
593.9485, 626.1490
594.4307, 625.2512
594.9128, 624.9873
595.3949, 626.0294
595.8770, 628.5485
596.3591, 630.9460
596.8412, 632.2701
597.3234, 632.4332
597.8055, 630.6676
598.2876, 625.1703
598.7697, 620.4503
599.2518, 616.8154
599.7339, 614.5369
600.2161, 614.1050
600.6982, 615.3791
601.1803, 617.6564
601.6624, 620.5877
602.1445, 623.8788
602.6266, 626.2197
603.1088, 627.7219
603.5909, 627.9290
604.0730, 625.2654
604.5551, 622.2873
605.0372, 620.6713
605.5193, 620.4987
606.0015, 621.3923
606.4836, 623.5267
606.9657, 626.4054
607.4478, 629.9664
607.9299, 633.9184
608.4120, 636.7482
608.8942, 637.9188
609.3763, 637.4186
609.8584, 634.8358
610.3405, 629.0281
610.8226, 625.5412
611.3047, 626.6933
611.7869, 627.6608
612.2690, 626.2297
612.7511, 623.0973
613.2332, 619.5993
613.7153, 616.2420
614.1974, 612.6754
614.6796, 608.1894
615.1617, 602.6828
615.6438, 597.9789
616.1259, 594.9279
616.6080, 591.2499
617.0901, 585.0424
617.5723, 577.7087
618.0544, 571.4195
618.5365, 566.9163
619.0186, 562.0260
619.5007, 554.7852
619.9828, 546.6338
620.4650, 539.9865
620.9471, 535.0269
621.4292, 530.4367
621.9113, 525.4904
622.3934, 520.0377
622.8755, 513.5517
623.3577, 503.9986
623.8398, 496.3800
624.3219, 492.1210
624.8040, 488.6487
625.2861, 484.6772
625.7682, 480.0261
626.2504, 474.7722
626.7325, 468.9589
627.2145, 462.6650
627.6967, 455.7124
628.1788, 448.0197
628.6609, 441.5273
629.1430, 437.2035
629.6251, 433.2011
630.1072, 427.1851
630.5894, 419.9128
631.0715, 414.2819
631.5536, 412.6233
632.0357, 410.5904
632.5178, 405.5501
632.9999, 398.8326
633.4821, 392.2247
633.9642, 386.2534
634.4463, 381.1069
634.9284, 377.1580
635.4105, 374.2518
635.8926, 370.1973
636.3748, 363.3073
636.8569, 358.0395
637.3390, 356.1583
637.8211, 355.2792
638.3032, 353.8734
638.7853, 351.6539
639.2675, 348.5000
639.7496, 343.6503
640.2317, 338.2682
640.7138, 334.0847
641.1959, 331.0876
641.6780, 328.9961
642.1602, 327.9374
642.6423, 327.1896
643.1244, 325.8231
643.6065, 323.7386
644.0886, 321.5258
644.5707, 319.5471
645.0529, 317.0479
645.5350, 313.4759
646.0171, 309.2767
646.4992, 304.5764
646.9813, 299.6465
647.4634, 295.8041
647.9456, 294.9277
648.4277, 296.7120
648.9098, 297.6777
649.3919, 298.1061
649.8740, 296.9169
650.3561, 292.0272
650.8383, 286.3323
651.3204, 283.1830
651.8025, 282.8441
652.2846, 283.0195
652.7667, 283.6485
653.2488, 283.7881
653.7310, 282.2297
654.2131, 279.3316
654.6952, 276.2585
655.1773, 273.4767
655.6594, 271.0481
656.1415, 268.9474
656.6237, 266.9233
657.1058, 266.4409
657.5879, 269.5021
658.0700, 271.9366
658.5521, 272.6084
659.0342, 272.0417
659.5164, 270.8731
659.9985, 269.2616
660.4806, 267.1884
660.9627, 264.1925
661.4448, 260.8266
661.9269, 257.9549
662.4091, 255.6234
662.8912, 255.5610
663.3733, 259.5067
663.8554, 264.8688
664.3375, 266.3537
664.8196, 262.2896
665.3018, 259.0670
665.7839, 256.5500
666.2660, 255.1612
666.7481, 255.9719
667.2302, 257.8341
667.7123, 258.8195
668.1945, 258.2245
668.6766, 256.9134
669.1587, 256.0811
669.6408, 255.6479
670.1229, 254.0937
670.6050, 250.7657
671.0872, 248.1841
671.5693, 248.0386
672.0514, 249.2158
672.5335, 249.8495
673.0156, 249.8848
673.4977, 249.5342
673.9799, 247.9286
674.4620, 246.7162
674.9441, 248.1594
675.4262, 251.1880
675.9083, 252.5692
676.3904, 250.8672
676.8726, 247.8691
677.3547, 246.5282
677.8368, 247.1782
678.3189, 247.3203
678.8010, 247.1549
679.2831, 246.1477
679.7653, 243.1630
680.2474, 239.7458
680.7295, 237.9490
681.2116, 238.1983
681.6937, 238.7059
682.1758, 238.4248
682.6580, 237.8873
683.1401, 237.6390
683.6222, 237.7558
684.1043, 238.4571
684.5864, 239.8980
685.0685, 241.6514
685.5507, 242.9649
686.0328, 243.6833
686.5149, 244.5659
686.9970, 247.4004
687.4791, 248.3403
687.9612, 244.2759
688.4434, 238.6186
688.9255, 235.9225
689.4076, 237.1854
689.8897, 238.7613
690.3718, 237.5730
690.8539, 234.8543
691.3361, 232.5787
691.8182, 230.8775
692.3003, 231.0180
692.7824, 234.0397
693.2645, 237.8300
693.7466, 238.8430
694.2288, 236.0318
694.7109, 234.7817
695.1930, 236.1914
695.6751, 237.7697
696.1572, 239.4831
696.6393, 240.4633
697.1215, 239.1732
697.6036, 235.5130
698.0857, 231.8602
698.5678, 230.3491
699.0499, 230.4582
699.5320, 231.0830
700.0142, 232.2943
700.4963, 231.9621
700.9784, 228.4398
701.4605, 224.5867
701.9426, 224.8956
702.4247, 230.2304
702.9069, 232.7529
703.3890, 229.6480
703.8711, 226.8465
704.3532, 226.8170
704.8353, 228.2766
705.3174, 229.9971
705.7996, 231.4653
706.2817, 232.0534
706.7638, 231.0990
707.2459, 228.8945
707.7280, 225.7092
708.2101, 221.2001
708.6923, 219.2793
709.1743, 222.1399
709.6564, 226.3217
710.1385, 228.2129
710.6207, 227.9665
711.1028, 227.3787
711.5849, 225.8468
712.0670, 224.8455
712.5491, 225.1236
713.0313, 226.1168
713.5134, 227.9134
713.9955, 229.9881
714.4776, 230.0679
714.9597, 225.6978
715.4418, 219.5419
715.9240, 220.0620
716.4061, 228.4548
716.8882, 232.6270
717.3703, 228.1332
717.8524, 222.3401
718.3345, 221.7720
718.8167, 224.9369
719.2988, 226.6613
719.7809, 225.2147
720.2630, 224.3096
720.7451, 225.7808
721.2272, 227.9926
721.7094, 229.7662
722.1915, 230.7183
722.6736, 230.2870
723.1557, 228.0282
723.6378, 224.8854
724.1199, 222.5119
724.6021, 220.8405
725.0842, 220.7544
725.5663, 223.0093
726.0484, 225.5461
726.5305, 227.9109
727.0126, 229.4346
727.4948, 228.3109
727.9769, 223.0557
728.4590, 219.4410
728.9411, 220.4013
729.4232, 222.6434
729.9053, 223.2705
730.3875, 222.8566
730.8696, 223.6007
731.3517, 226.4125
731.8338, 229.6975
732.3159, 231.2190
732.7980, 230.9755
733.2802, 230.5474
733.7623, 230.1298
734.2444, 228.9212
734.7265, 225.8723
735.2086, 222.3625
735.6907, 220.0226
736.1729, 218.8123
736.6550, 219.3140
737.1371, 223.4774
737.6192, 227.5104
738.1013, 229.2108
738.5834, 229.2414
739.0656, 228.5814
739.5477, 227.5883
740.0298, 226.5254
740.5119, 225.5784
740.9940, 224.7997
741.4761, 224.3783
741.9583, 224.2934
742.4404, 224.8462
742.9225, 226.9283
743.4046, 228.5417
743.8867, 226.6365
744.3688, 222.1028
744.8510, 220.2019
745.3331, 224.0281
745.8152, 227.1926
746.2973, 227.3867
746.7794, 226.0703
747.2615, 224.2044
747.7437, 222.2629
748.2258, 220.8936
748.7079, 220.4998
749.1900, 220.8894
749.6721, 221.8611
750.1542, 223.4088
750.6364, 225.1358
751.1185, 227.3406
751.6006, 228.5904
752.0827, 227.6553
752.5648, 225.2421
753.0469, 223.1487
753.5291, 220.9565
754.0112, 220.1087
754.4933, 221.8535
754.9754, 223.9489
755.4575, 225.0532
755.9396, 225.4947
756.4218, 226.3607
756.9039, 227.9262
757.3860, 228.6570
757.8681, 225.7905
758.3502, 220.7925
758.8323, 219.2389
759.3145, 221.2812
759.7966, 224.0287
760.2787, 227.0727
760.7608, 228.8433
761.2429, 226.5944
761.7250, 219.6748
762.2072, 216.5872
762.6893, 220.1336
763.1714, 223.6048
763.6535, 225.9018
764.1356, 227.1203
764.6177, 227.1203
765.0999, 226.1315
765.5820, 224.8640
766.0641, 223.5339
766.5462, 222.4564
767.0283, 222.2965
767.5104, 222.7654
767.9926, 222.5697
768.4747, 221.4681
768.9568, 220.8263
769.4389, 221.6772
769.9210, 223.6182
770.4031, 225.3370
770.8853, 227.0220
771.3674, 228.1134
771.8495, 227.8934
772.3316, 227.8818
772.8137, 229.8651
773.2958, 232.0233
773.7780, 230.9112
774.2601, 225.5497
774.7422, 221.0639
775.2243, 221.5710
775.7064, 224.1945
776.1885, 225.2551
776.6707, 225.1100
777.1528, 225.7654
777.6349, 227.9244
778.1170, 230.3573
778.5991, 231.6279
779.0812, 231.7718
779.5634, 231.3702
780.0455, 230.0272
780.5276, 229.0437
781.0097, 229.5339
781.4918, 229.7387
781.9739, 227.5950
782.4561, 223.8540
782.9382, 221.7744
783.4203, 222.8195
783.9024, 224.5656
784.3845, 226.1405
784.8666, 227.6201
785.3488, 229.4413
785.8309, 231.3022
786.3130, 232.0020
786.7951, 230.8306
787.2772, 228.7997
787.7593, 227.2427
788.2415, 226.1919
788.7236, 227.3257
789.2057, 231.6568
789.6878, 234.4957
790.1699, 232.4486
790.6520, 228.6159
791.1342, 228.6135
791.6162, 233.1915
792.0983, 236.7483
792.5804, 240.1579
793.0626, 241.1261
793.5447, 235.6410
794.0268, 229.0762
794.5089, 228.8886
794.9910, 234.9129
795.4731, 239.2488
795.9553, 235.4658
796.4374, 228.8469
796.9195, 227.8101
797.4016, 231.1512
797.8837, 233.2876
798.3658, 233.1445
798.8480, 233.6874
799.3301, 237.6492
799.8122, 243.1555
800.2943, 243.4765
800.7764, 234.0137
801.2585, 229.2503
801.7407, 233.0800
802.2228, 237.6209
802.7049, 240.6484
803.1870, 242.2932
803.6691, 242.6706
804.1512, 241.7682
804.6334, 240.5076
805.1155, 239.0777
805.5976, 237.7207
806.0797, 236.3896
806.5618, 235.3698
807.0439, 235.2423
807.5261, 236.1541
808.0082, 237.9713
808.4903, 240.9352
808.9724, 244.2680
809.4545, 244.3337
809.9366, 240.3596
810.4188, 238.6325
810.9009, 241.4031
811.3830, 244.3981
811.8651, 244.5583
812.3472, 242.3913
812.8293, 239.6716
813.3115, 235.0075
813.7936, 232.7554
814.2757, 236.1015
814.7578, 239.4901
815.2399, 239.0353
815.7220, 236.3833
816.2042, 234.3151
816.6863, 233.7030
817.1684, 234.4685
817.6505, 237.6673
818.1326, 241.6727
818.6147, 243.4326
819.0969, 243.1730
819.5790, 242.0053
820.0611, 240.1967
820.5432, 238.4659
821.0253, 237.4095
821.5074, 237.0835
821.9896, 238.1007
822.4717, 241.9809
822.9538, 243.6906
823.4359, 240.1652
823.9180, 237.0792
824.4001, 238.5606
824.8823, 242.3625
825.3644, 244.0503
825.8465, 242.5525
826.3286, 240.6088
826.8107, 238.0696
827.2928, 236.5605
827.7750, 238.6635
828.2571, 242.4790
828.7392, 244.0414
829.2213, 242.3840
829.7034, 240.0583
830.1855, 239.3239
830.6677, 239.8643
831.1498, 241.2934
831.6319, 243.5422
832.1140, 244.0565
832.5961, 241.8614
833.0782, 239.6273
833.5604, 239.6661
834.0425, 241.3654
834.5246, 242.0795
835.0067, 240.8180
835.4888, 240.2474
835.9709, 241.0359
836.4531, 241.7395
836.9352, 241.4508
837.4173, 240.8037
837.8994, 240.8449
838.3815, 241.7799
838.8636, 242.6348
839.3458, 243.4227
839.8279, 243.4669
840.3100, 240.7891
840.7921, 237.3075
841.2742, 237.5273
841.7563, 241.8476
842.2385, 245.9070
842.7206, 246.0899
843.2027, 243.8152
843.6848, 242.4155
844.1669, 241.8979
844.6490, 242.2196
845.1312, 243.5412
845.6133, 245.1768
846.0954, 247.0802
846.5775, 248.6959
847.0596, 248.6001
847.5417, 245.7666
848.0239, 244.4336
848.5060, 245.8565
848.9881, 247.1908
849.4702, 247.5074
849.9523, 247.2837
850.4344, 246.7607
850.9166, 246.1498
851.3987, 246.2501
851.8808, 248.1880
852.3629, 249.9072
852.8450, 249.2342
853.3271, 247.4329
853.8093, 246.6150
854.2914, 246.8400
854.7735, 246.7640
855.2556, 245.6088
855.7377, 244.4431
856.2198, 245.4653
856.7020, 248.5362
857.1841, 249.9414
857.6662, 249.3595
858.1483, 248.4353
858.6304, 247.3888
859.1125, 246.9718
859.5947, 248.5270
860.0768, 252.0704
860.5589, 253.6576
861.0410, 252.7943
861.5231, 250.7378
862.0052, 245.2331
862.4874, 240.7778
862.9695, 241.4866
863.4516, 245.3997
863.9337, 247.6505
864.4158, 246.5656
864.8979, 245.7277
865.3801, 248.1972
865.8622, 251.3426
866.3443, 252.2984
866.8264, 251.5499
867.3085, 250.3588
867.7906, 249.2093
868.2728, 248.5737
868.7549, 249.2604
869.2370, 250.3343
869.7191, 247.9362
870.2012, 242.1312
870.6833, 241.2319
871.1655, 247.7125
871.6476, 253.7339
872.1297, 253.6288
872.6118, 249.8506
873.0939, 248.7134
873.5760, 252.0002
874.0581, 252.6427
874.5402, 247.3099
875.0223, 243.3242
875.5045, 243.4833
875.9866, 245.3806
876.4687, 247.1169
876.9508, 248.3630
877.4329, 248.4561
877.9150, 246.1598
878.3972, 243.9816
878.8793, 242.9818
879.3614, 242.9892
879.8435, 244.3083
880.3256, 246.4338
880.8077, 248.3122
881.2899, 249.4841
881.7720, 249.5105
882.2541, 246.8127
882.7362, 242.7631
883.2183, 242.0125
883.7004, 244.2379
884.1826, 245.1864
884.6647, 243.4309
885.1468, 241.3793
885.6289, 241.4501
886.1110, 243.2091
886.5931, 244.3126
887.0753, 244.4780
887.5574, 244.8868
888.0395, 246.1188
888.5216, 246.9025
889.0037, 246.0621
889.4858, 244.5359
889.9680, 244.2094
890.4501, 245.5674
890.9322, 245.2488
891.4143, 240.2903
891.8964, 236.5571
892.3785, 237.7448
892.8607, 240.5140
893.3428, 241.5870
893.8249, 240.7237
894.3070, 238.8805
894.7891, 236.0726
895.2712, 233.7269
895.7534, 233.0128
896.2355, 233.6509
896.7176, 236.6827
897.1997, 240.8067
897.6818, 240.8875
898.1639, 235.1314
898.6461, 228.3804
899.1282, 226.2378
899.6103, 227.6585
900.0924, 227.9477
900.5745, 227.0109
901.0566, 227.3318
901.5388, 229.7787
902.0209, 232.0640
902.5030, 232.6783
902.9851, 231.7679
903.4672, 229.4298
903.9493, 223.8096
904.4315, 222.0430
904.9136, 228.1692
905.3957, 232.9527
905.8778, 232.7524
906.3599, 230.5501
906.8420, 229.0025
907.3242, 228.2151
907.8063, 227.5199
908.2884, 226.7114
908.7705, 226.0449
909.2526, 226.1014
909.7347, 225.9426
910.2169, 223.8198
910.6990, 221.0031
911.1811, 220.7692
911.6632, 224.1638
912.1453, 227.4569
912.6274, 226.8827
913.1096, 224.7540
913.5917, 224.3755
914.0738, 225.4068
914.5559, 227.1155
915.0380, 229.1687
915.5201, 230.4485
916.0023, 230.0950
916.4844, 228.7222
916.9665, 227.5301
917.4486, 226.5174
917.9307, 225.7066
918.4128, 225.0073
918.8950, 225.0067
919.3771, 225.9126
919.8592, 227.7955
920.3413, 231.3036
920.8234, 236.3446
921.3055, 237.7512
921.7877, 232.8674
922.2698, 229.0444
922.7519, 226.2809
923.2340, 225.5945
923.7161, 229.2326
924.1982, 234.7489
924.6804, 237.6304
925.1625, 237.0289
925.6446, 236.5452
926.1267, 236.7447
926.6088, 237.6244
927.0909, 239.9382
927.5731, 242.4137
928.0552, 243.6131
928.5373, 243.5820
929.0194, 243.1174
929.5015, 242.3388
929.9836, 242.1401
930.4658, 243.1490
930.9479, 245.2978
931.4300, 249.0060
931.9121, 253.7386
932.3942, 258.3177
932.8763, 262.2394
933.3585, 264.6517
933.8406, 264.1631
934.3227, 262.4985
934.8048, 264.6946
935.2869, 270.1475
935.7690, 272.9842
936.2512, 272.2840
936.7333, 271.5120
937.2154, 272.3716
937.6975, 274.8556
938.1796, 279.1885
938.6617, 285.4879
939.1439, 291.1096
939.6260, 295.9220
940.1081, 300.4186
940.5902, 304.4794
941.0723, 308.6594
941.5544, 313.6264
942.0366, 319.0356
942.5187, 323.4346
943.0008, 324.8476
943.4829, 330.0649
943.9650, 342.4498
944.4471, 354.9467
944.9293, 365.2739
945.4114, 374.1712
945.8935, 381.3443
946.3756, 387.5735
946.8577, 396.4917
947.3398, 410.1746
947.8220, 425.0784
948.3041, 439.4436
948.7862, 454.2110
949.2683, 470.1151
949.7504, 487.0842
950.2325, 503.9658
950.7147, 520.9354
951.1968, 542.1556
951.6789, 573.0648
952.1610, 607.4100
952.6431, 637.5118
953.1252, 665.2393
953.6074, 694.6391
954.0895, 726.0529
954.5716, 757.7509
955.0537, 788.9899
955.5358, 820.5652
956.0179, 854.2346
956.5000, 889.2244
956.9821, 921.1797
957.4642, 950.4685
957.9464, 982.1194
958.4285, 1017.527
958.9106, 1054.506
959.3927, 1091.642
959.8748, 1128.132
960.3569, 1160.446
960.8391, 1187.558
961.3212, 1217.018
961.8033, 1249.516
962.2854, 1282.614
962.7675, 1317.353
963.2496, 1349.217
963.7318, 1373.150
964.2139, 1389.885
964.6960, 1405.324
965.1781, 1423.548
965.6602, 1433.570
966.1423, 1433.127
966.6245, 1427.233
967.1066, 1417.375
967.5887, 1403.435
968.0708, 1385.991
968.5529, 1364.843
969.0350, 1336.647
969.5172, 1296.429
969.9993, 1254.753
970.4814, 1215.357
970.9635, 1175.542
971.4456, 1132.712
971.9277, 1088.267
972.4099, 1044.877
972.8920, 1003.317
973.3741, 963.1686
973.8562, 923.3883
974.3383, 885.7923
974.8204, 852.2968
975.3026, 821.8514
975.7847, 793.3111
976.2668, 766.4234
976.7489, 740.3674
977.2310, 714.8088
977.7131, 692.7338
978.1953, 680.9064
978.6774, 672.3101
979.1595, 653.2200
979.6416, 626.9251
980.1237, 603.8575
980.6058, 586.0195
981.0880, 570.9176
981.5701, 557.0554
982.0522, 544.2670
982.5343, 532.6201
983.0164, 522.0334
983.4985, 511.7217
983.9807, 501.7493
984.4628, 493.3592
984.9449, 486.9905
985.4270, 481.8450
985.9091, 477.4883
986.3912, 473.3136
986.8734, 467.3712
987.3555, 459.5043
987.8376, 450.7444
988.3197, 440.3301
988.8018, 432.3275
989.2839, 428.8255
989.7661, 427.1316
990.2482, 424.4624
990.7303, 420.9676
991.2124, 417.7297
991.6945, 415.2695
992.1766, 411.7150
992.6588, 405.3998
993.1409, 400.3773
993.6230, 398.7907
994.1051, 399.1326
994.5872, 399.9432
995.0693, 401.2012
995.5515, 401.4119
996.0336, 399.3919
996.5157, 398.0408
996.9978, 397.8753
997.4799, 398.2512
997.9620, 399.3798
998.4442, 400.5587
998.9263, 400.1530
999.4084, 398.0420
999.8905, 398.2500
1000.373, 404.1641
1000.855, 409.3569
1001.337, 411.8217
1001.819, 412.4232
1002.301, 410.5739
1002.783, 407.8362
1003.265, 407.1572
1003.747, 409.1973
1004.230, 411.1156
1004.712, 410.2951
1005.194, 410.2852
1005.676, 415.0595
1006.158, 420.7528
1006.640, 422.8487
1007.122, 421.8007
1007.604, 419.7723
1008.086, 417.5353
1008.569, 416.4598
1009.051, 419.3580
1009.533, 422.3586
1010.015, 420.2178
1010.497, 415.6309
1010.979, 413.8076
1011.461, 414.5129
1011.943, 413.6113
1012.426, 409.1788
1012.908, 404.0344
1013.390, 401.2863
1013.872, 398.0825
1014.354, 397.3271
1014.836, 394.3546
1015.318, 392.9702
1015.800, 393.0883
1016.282, 391.9039
1016.765, 387.7958
1017.247, 382.1889
1017.729, 376.6449
1018.211, 371.3125
1018.693, 366.4503
1019.175, 362.2665
1019.657, 360.6728
1020.139, 361.9204
1020.622, 362.3217
1021.104, 359.3243
1021.586, 354.9161
1022.068, 352.8827
1022.550, 352.9173
1023.032, 351.2152
1023.514, 347.7320
1023.996, 345.2917
1024.478, 344.5812
1024.961, 345.2049
1025.443, 347.2470
1025.925, 349.3424
1026.407, 347.9303
1026.889, 342.7489
1027.371, 340.0480
1027.853, 340.3734
1028.335, 339.6504
1028.818, 336.2135
1029.300, 333.8345
1029.782, 335.9313
1030.264, 340.4911
1030.746, 342.1346
1031.228, 340.3708
1031.710, 338.6272
1032.192, 336.8051
1032.674, 335.1323
1033.156, 333.0155
1033.639, 332.5209
1034.121, 336.4385
1034.603, 342.4908
1035.085, 343.8146
1035.567, 338.8986
1036.049, 334.9340
1036.531, 332.2269
1037.013, 329.8924
1037.496, 327.7977
1037.978, 325.9218
1038.460, 324.4130
1038.942, 323.0777
1039.424, 321.2588
1039.906, 318.7445
1040.388, 316.4123
1040.870, 314.1801
1041.353, 312.2639
1041.835, 311.3789
1042.317, 310.2132
1042.799, 307.6104
1043.281, 303.9406
1043.763, 299.9593
1044.245, 294.4064
1044.727, 292.4015
1045.209, 298.0123
1045.692, 302.0618
1046.174, 300.8707
1046.656, 298.3221
1047.138, 296.8881
1047.620, 296.6434
1048.102, 297.7046
1048.584, 300.7237
1049.066, 302.5660
1049.548, 302.4560
1050.031, 301.5872
1050.513, 299.9402
1050.995, 298.0448
1051.477, 295.8227
1051.959, 293.7643
1052.441, 293.1225
1052.923, 294.4028
1053.405, 295.3936
1053.888, 296.5944
1054.370, 296.1821
1054.852, 291.3642
1055.334, 286.5336
1055.816, 286.3403
1056.298, 288.8389
1056.780, 289.0961
1057.262, 286.0848
1057.745, 282.2144
1058.227, 276.5552
1058.709, 272.2340
1059.191, 271.3679
1059.673, 271.6682
1060.155, 271.7608
1060.637, 271.2671
1061.119, 269.6990
1061.601, 266.9062
1062.083, 263.9305
1062.566, 261.8973
1063.048, 258.7483
1063.530, 251.8223
1064.012, 244.9472
1064.494, 242.1814
1064.976, 241.7891
1065.458, 239.6962
1065.940, 235.0860
1066.423, 231.1009
1066.905, 229.5063
1067.387, 228.0799
1067.869, 225.4758
1068.351, 222.9179
1068.833, 221.7526
1069.315, 221.3116
1069.797, 220.5392
1070.280, 219.1589
1070.762, 216.5049
1071.244, 210.4351
1071.726, 205.5000
1072.208, 204.2663
1072.690, 204.5260
1073.172, 205.1582
1073.654, 205.6692
1074.136, 205.7086
1074.619, 205.1488
1075.101, 203.5692
1075.583, 199.6987
1076.065, 196.6204
1076.547, 197.3165
1077.029, 197.8758
1077.511, 194.0600
1077.993, 188.7107
1078.475, 186.3955
1078.958, 187.4112
1079.440, 188.8783
1079.922, 189.7141
1080.404, 190.8852
1080.886, 192.9568
1081.368, 195.4260
1081.850, 199.9001
1082.332, 203.3280
1082.814, 199.9875
1083.297, 191.3642
1083.779, 186.3415
1084.261, 188.8475
1084.743, 191.8704
1085.225, 192.8966
1085.707, 192.6316
1086.189, 190.1453
1086.671, 187.6242
1087.154, 187.7476
1087.636, 190.1079
1088.118, 192.7895
1088.600, 195.6104
1089.082, 196.7571
1089.564, 194.0299
1090.046, 191.1800
1090.528, 190.1574
1091.010, 190.1614
1091.493, 190.7737
1091.975, 191.5791
1092.457, 191.7648
1092.939, 191.0871
1093.421, 190.6370
1093.903, 190.5589
1094.385, 191.1259
1094.867, 193.4201
1095.349, 195.5272
1095.832, 194.7984
1096.314, 193.0964
1096.796, 194.6766
1097.278, 200.1332
1097.760, 203.6782
1098.242, 201.5012
1098.724, 199.9656
1099.206, 202.9200
1099.689, 205.3956
1100.171, 201.8104
1100.653, 196.7864
1101.135, 198.6069
1101.617, 207.0401
1102.099, 211.4832
1102.581, 206.4531
1103.063, 202.4102
1103.546, 203.1535
1104.028, 203.9022
1104.510, 201.0509
1104.992, 197.6703
1105.474, 197.7007
1105.956, 200.5869
1106.438, 202.7369
1106.920, 203.8655
1107.402, 203.6283
1107.885, 200.7696
1108.367, 198.0888
1108.849, 195.4315
1109.331, 194.3758
1109.813, 198.4942
1110.295, 204.9808
1110.777, 205.5576
1111.259, 197.8282
1111.741, 192.0810
1112.224, 189.6068
1112.706, 188.3996
1113.188, 188.8121
1113.670, 189.5742
1114.152, 190.1008
1114.634, 190.3522
1115.116, 190.1674
1115.598, 189.4844
1116.081, 189.1416
1116.563, 189.3463
1117.045, 189.6031
1117.527, 191.2812
1118.009, 190.9213
1118.491, 185.7325
1118.973, 178.7815
1119.455, 173.4986
1119.938, 169.8880
1120.420, 167.8907
1120.902, 168.2885
1121.384, 168.3260
1121.866, 167.5442
1122.348, 167.3447
1122.830, 168.8431
1123.312, 169.8866
1123.794, 168.1061
1124.276, 164.6143
1124.759, 162.9320
1125.241, 163.2756
1125.723, 164.3386
1126.205, 166.4694
1126.687, 167.9412
1127.169, 168.2573
1127.651, 168.2527
1128.133, 168.6032
1128.616, 168.6169
1129.098, 166.6195
1129.580, 162.8895
1130.062, 162.8803
1130.544, 167.1126
1131.026, 168.2913
1131.508, 165.0258
1131.990, 162.5494
1132.473, 163.3278
1132.955, 165.9442
1133.437, 169.1724
1133.919, 172.2339
1134.401, 171.4455
1134.883, 173.1896
1135.365, 174.6647
1135.847, 172.8285
1136.329, 175.8152
1136.812, 174.6895
1137.294, 171.4513
1137.776, 167.3403
1138.258, 163.7358
1138.740, 163.7032
1139.222, 166.0788
1139.704, 167.1099
1140.186, 166.9570
1140.668, 166.3251
1141.151, 165.5854
1141.633, 166.1882
1142.115, 168.8974
1142.597, 171.3412
1143.079, 170.1906
1143.561, 167.7218
1144.043, 168.5497
1144.525, 170.5416
1145.008, 168.1704
1145.490, 162.9088
1145.972, 161.4999
1146.454, 165.4970
1146.936, 168.9641
1147.418, 167.4331
1147.900, 164.6538
1148.382, 164.1110
1148.865, 164.3741
1149.347, 163.6369
1149.829, 162.5427
1150.311, 162.7320
1150.793, 163.9864
1151.275, 164.1848
1151.757, 162.1557
1152.239, 160.7830
1152.721, 162.9604
1153.203, 164.8455
1153.686, 163.4611
1154.168, 160.9084
1154.650, 158.9689
1155.132, 157.8337
1155.614, 157.2826
1156.096, 157.2685
1156.578, 158.3330
1157.060, 163.3135
1157.543, 165.4949
1158.025, 159.0131
1158.507, 153.7172
1158.989, 156.6044
1159.471, 163.0626
1159.953, 168.5642
1160.435, 172.4234
1160.917, 171.4601
1161.400, 160.5269
1161.882, 155.5382
1162.364, 160.8618
1162.846, 165.5886
1163.328, 166.3246
1163.810, 166.5380
1164.292, 169.2764
1164.774, 172.7305
1165.256, 172.6930
1165.739, 173.4643
1166.221, 174.0217
1166.703, 171.3847
1167.185, 172.4567
1167.667, 169.7690
1168.149, 166.4208
1168.631, 163.5172
1169.113, 161.5259
1169.595, 160.8243
1170.078, 161.6382
1170.560, 165.7868
1171.042, 173.0700
1171.524, 176.1544
1172.006, 174.8352
1172.488, 172.1811
1172.970, 168.9955
1173.452, 165.3796
1173.934, 161.2254
1174.417, 158.4878
1174.899, 160.9941
1175.381, 166.5499
1175.863, 169.6559
1176.345, 170.7267
1176.827, 170.1404
1177.309, 168.6888
1177.791, 169.6995
1178.274, 173.8652
1178.756, 176.3162
1179.238, 173.0466
1179.720, 167.3944
1180.202, 161.1982
1180.684, 156.1655
1181.166, 155.4146
1181.648, 156.8681
1182.130, 156.8656
1182.613, 155.2785
1183.095, 154.1719
1183.577, 154.3437
1184.059, 154.5179
1184.541, 154.1154
1185.023, 153.4339
1185.505, 151.9523
1185.987, 150.9173
1186.469, 151.9936
1186.952, 153.9385
1187.434, 154.4957
1187.916, 153.5313
1188.398, 152.7773
1188.880, 152.0840
1189.362, 152.3289
1189.844, 154.7732
1190.326, 156.6027
1190.809, 156.3850
1191.291, 155.8040
1191.773, 156.5219
1192.255, 157.6689
1192.737, 156.9656
1193.219, 156.6608
1193.701, 155.6793
1194.183, 153.5376
1194.666, 152.6777
1195.148, 148.8540
1195.630, 147.0928
1196.112, 150.1422
1196.594, 154.2264
1197.076, 155.2834
1197.558, 154.0991
1198.040, 152.7538
1198.522, 151.2464
1199.005, 149.0879
1199.487, 146.5267
1199.969, 145.8742
1200.451, 147.4225
1200.933, 149.0633
1201.415, 149.6454
1201.897, 149.3838
1202.379, 147.9433
1202.861, 146.4182
1203.344, 146.6780
1203.826, 148.0214
1204.308, 149.9579
1204.790, 151.6921
1205.272, 151.0306
1205.754, 148.1113
1206.236, 146.6413
1206.718, 149.0502
1207.201, 150.8852
1207.683, 148.1926
1208.165, 145.4209
1208.647, 145.7971
1209.129, 147.4024
1209.611, 148.4728
1210.093, 149.0312
1210.575, 149.4309
1211.057, 149.7081
1211.540, 150.4923
1212.022, 154.1540
1212.504, 154.7435
1212.986, 148.4694
1213.468, 143.1803
1213.950, 141.5624
1214.432, 142.0722
1214.914, 143.8329
1215.396, 146.3417
1215.879, 148.3091
1216.361, 149.7639
1216.843, 150.2485
1217.325, 149.7105
1217.807, 148.4048
1218.289, 146.2866
1218.771, 144.0777
1219.253, 142.0160
1219.736, 141.1710
1220.218, 143.0706
1220.700, 145.7552
1221.182, 143.9377
1221.664, 139.5384
1222.146, 139.2381
1222.628, 142.1240
1223.110, 144.3083
1223.593, 145.1976
1224.075, 146.3023
1224.557, 148.2655
1225.039, 149.1135
1225.521, 145.8345
1226.003, 142.6024
1226.485, 143.9922
1226.967, 146.5868
1227.449, 146.8813
1227.932, 145.8806
1228.414, 145.6958
1228.896, 146.2686
1229.378, 145.6918
1229.860, 142.7713
1230.342, 141.6321
1230.824, 144.7284
1231.306, 147.5948
1231.788, 150.1606
1232.271, 150.6375
1232.753, 145.5034
1233.235, 140.1113
1233.717, 142.7039
1234.199, 151.5011
1234.681, 154.3341
1235.163, 149.4992
1235.645, 147.2711
1236.128, 148.4489
1236.610, 147.7318
1237.092, 143.5234
1237.574, 141.0031
1238.056, 143.4304
1238.538, 147.6289
1239.020, 149.8195
1239.502, 150.1531
1239.984, 148.0518
1240.467, 144.7163
1240.949, 143.8682
1241.431, 144.9815
1241.913, 145.2797
1242.395, 144.4844
1242.877, 145.1093
1243.359, 148.6455
1243.841, 151.2153
1244.323, 148.6766
1244.806, 145.6573
1245.288, 145.4752
1245.770, 146.5282
1246.252, 148.2242
1246.734, 149.5104
1247.216, 148.4901
1247.698, 145.4138
1248.180, 143.2192
1248.662, 142.1843
1249.145, 142.3973
1249.627, 145.7920
1250.109, 147.0485
1250.591, 143.4963
1251.073, 140.5712
1251.555, 141.7975
1252.037, 144.5553
1252.519, 145.3180
1253.002, 144.4689
1253.484, 143.7886
1253.966, 143.2600
1254.448, 142.2377
1254.930, 140.7354
1255.412, 139.2652
1255.894, 137.9795
1256.376, 137.0085
1256.859, 136.4315
1257.341, 136.2958
1257.823, 136.6270
1258.305, 137.4662
1258.787, 139.7689
1259.269, 141.8888
1259.751, 141.0957
1260.233, 138.7044
1260.715, 136.7947
1261.198, 135.9081
1261.680, 136.3999
1262.162, 138.5421
1262.644, 140.8529
1263.126, 144.3267
1263.608, 145.8023
1264.090, 141.9974
1264.572, 138.7727
1265.054, 140.1418
1265.537, 142.6990
1266.019, 142.6148
1266.501, 144.4012
1266.983, 145.3634
1267.465, 145.4089
1267.947, 146.3315
1268.429, 144.2351
1268.911, 142.6563
1269.394, 142.1238
1269.876, 143.4172
1270.358, 146.8676
1270.840, 149.9032
1271.322, 150.1257
1271.804, 149.1041
1272.286, 149.9655
1272.768, 150.6666
1273.250, 146.2283
1273.733, 139.8835
1274.215, 136.8134
1274.697, 137.4872
1275.179, 141.6429
1275.661, 148.7934
1276.143, 154.9140
1276.625, 159.9078
1277.107, 160.7808
1277.589, 152.4856
1278.072, 145.1632
1278.554, 144.1056
1279.036, 144.9883
1279.518, 144.7850
1280.000, 143.9462
1280.482, 143.2090
1280.964, 142.5703
1281.446, 141.8855
1281.929, 141.1246
1282.411, 140.3501
1282.893, 139.5373
1283.375, 139.5315
1283.857, 140.5288
1284.339, 141.6339
1284.821, 142.3349
1285.303, 142.9507
1285.786, 143.7998
1286.268, 144.8596
##END=



