##NAMES=Eosphorite
##RRUFFID=R050570
##IDEAL CHEMISTRY=Mn^2+^AlPO_4_(OH)_2_&#183;H_2_O
##LOCALITY=Lavra da Ilha, Minas Gerais, Brazil
##OWNER=RRUFF
##SOURCE=University of Arizona Mineral Museum
##DESCRIPTION=Pale brown prismatic crystals with wedge-shaped terminations
##STATUS=The identification of this mineral has been confirmed by X-ray diffraction and chemical analysis
##URL=rruff.info/R050570
##MEASURED CHEMISTRY=(Mn_0.42_Fe^2+^_0.40_Ca_0.13_Mg_0.05_)Al(PO_4_)((OH)_0.96_F_0.04_)_2_Î‡H_2_O
91.11523, 68.91795
91.59735, 70.33179
92.07947, 69.55244
92.56158, 67.06068
93.04370, 64.35658
93.52582, 61.77362
94.00793, 59.61659
94.49006, 58.80613
94.97218, 59.70827
95.45429, 61.35613
95.93641, 62.42360
96.41853, 62.91400
96.90064, 62.96547
97.38276, 62.30446
97.86488, 61.04609
98.34699, 60.57691
98.82911, 61.43502
99.31123, 63.06573
99.79334, 63.39916
100.2755, 62.09701
100.7576, 60.66047
101.2397, 60.62619
101.7218, 62.36965
102.2039, 63.72152
102.6861, 64.20010
103.1682, 63.81512
103.6503, 63.14984
104.1324, 61.85182
104.6145, 60.65508
105.0966, 60.54198
105.5788, 62.24977
106.0609, 63.74995
106.5430, 64.25237
107.0251, 63.04752
107.5072, 63.42469
107.9893, 66.02396
108.4715, 70.05546
108.9536, 74.13206
109.4357, 80.04549
109.9178, 84.42539
110.3999, 85.83432
110.8820, 79.91362
111.3642, 78.16840
111.8463, 83.18394
112.3284, 92.92862
112.8105, 101.7555
113.2926, 110.7590
113.7747, 117.5772
114.2569, 120.8455
114.7390, 115.5412
115.2211, 112.2652
115.7032, 113.5587
116.1853, 118.9850
116.6674, 126.2925
117.1496, 135.1507
117.6317, 145.4963
118.1138, 157.1771
118.5959, 170.9637
119.0780, 185.4889
119.5602, 199.3044
120.0423, 212.6737
120.5244, 228.3896
121.0065, 249.0637
121.4886, 272.8259
121.9707, 297.3149
122.4529, 321.4838
122.9350, 345.7572
123.4171, 370.7321
123.8992, 396.5293
124.3813, 421.7797
124.8634, 445.8277
125.3456, 468.5218
125.8277, 489.6049
126.3098, 508.1618
126.7919, 525.0774
127.2740, 540.7605
127.7561, 554.6683
128.2383, 569.6905
128.7204, 589.6569
129.2025, 614.0217
129.6846, 639.9198
130.1667, 664.4398
130.6488, 688.7578
131.1310, 718.7030
131.6131, 756.1874
132.0952, 797.2842
132.5773, 834.9125
133.0594, 869.1702
133.5415, 903.0140
134.0237, 939.1696
134.5058, 977.6191
134.9879, 1015.352
135.4700, 1052.342
135.9521, 1088.304
136.4343, 1123.737
136.9164, 1158.996
137.3985, 1192.710
137.8806, 1224.965
138.3627, 1256.497
138.8448, 1282.426
139.3270, 1300.846
139.8091, 1312.733
140.2912, 1326.731
140.7733, 1343.844
141.2554, 1361.531
141.7375, 1376.708
142.2197, 1388.396
142.7018, 1400.561
143.1839, 1413.844
143.6660, 1428.130
144.1481, 1444.140
144.6302, 1460.969
145.1124, 1480.184
145.5945, 1503.926
146.0766, 1536.568
146.5587, 1567.417
147.0408, 1592.661
147.5230, 1615.921
148.0051, 1636.689
148.4872, 1653.010
148.9693, 1669.020
149.4514, 1682.623
149.9335, 1692.309
150.4157, 1701.536
150.8978, 1711.019
151.3799, 1720.815
151.8620, 1731.222
152.3441, 1742.742
152.8262, 1754.926
153.3084, 1766.651
153.7905, 1779.421
154.2726, 1790.477
154.7547, 1798.949
155.2368, 1803.884
155.7189, 1807.509
156.2011, 1809.464
156.6832, 1810.244
157.1653, 1811.031
157.6474, 1810.981
158.1295, 1811.670
158.6116, 1813.917
159.0938, 1818.643
159.5759, 1823.719
160.0580, 1828.837
160.5401, 1833.905
161.0222, 1838.661
161.5044, 1842.342
161.9865, 1846.036
162.4686, 1850.467
162.9507, 1855.814
163.4328, 1861.888
163.9149, 1869.090
164.3971, 1877.226
164.8792, 1884.981
165.3613, 1891.070
165.8434, 1896.823
166.3255, 1903.484
166.8076, 1911.723
167.2898, 1920.651
167.7719, 1930.325
168.2540, 1940.620
168.7361, 1950.300
169.2182, 1957.752
169.7003, 1964.458
170.1825, 1972.188
170.6646, 1983.761
171.1467, 1995.116
171.6288, 2003.056
172.1109, 2007.573
172.5931, 2010.544
173.0752, 2011.824
173.5573, 2012.578
174.0394, 2014.729
174.5215, 2020.526
175.0036, 2027.301
175.4858, 2032.126
175.9679, 2034.991
176.4500, 2036.666
176.9321, 2037.648
177.4142, 2037.966
177.8963, 2037.682
178.3785, 2036.184
178.8606, 2034.309
179.3427, 2033.339
179.8248, 2033.296
180.3069, 2033.984
180.7890, 2035.909
181.2712, 2038.575
181.7533, 2040.361
182.2354, 2039.885
182.7175, 2038.069
183.1996, 2036.461
183.6818, 2034.884
184.1639, 2034.594
184.6460, 2038.327
185.1281, 2045.220
185.6102, 2050.939
186.0923, 2052.715
186.5745, 2051.580
187.0566, 2050.381
187.5387, 2049.009
188.0208, 2048.409
188.5029, 2050.489
188.9850, 2055.031
189.4672, 2059.287
189.9493, 2061.431
190.4314, 2061.974
190.9135, 2063.810
191.3956, 2067.371
191.8777, 2071.535
192.3599, 2074.528
192.8420, 2076.328
193.3241, 2078.247
193.8062, 2081.114
194.2883, 2084.826
194.7704, 2088.020
195.2526, 2090.377
195.7347, 2092.536
196.2168, 2095.714
196.6989, 2099.928
197.1810, 2104.460
197.6632, 2109.217
198.1453, 2114.213
198.6274, 2117.833
199.1095, 2119.326
199.5916, 2120.332
200.0737, 2124.822
200.5559, 2133.412
201.0380, 2141.766
201.5201, 2147.213
202.0022, 2149.597
202.4843, 2152.570
202.9664, 2156.367
203.4486, 2160.926
203.9307, 2166.188
204.4128, 2172.229
204.8949, 2178.592
205.3770, 2185.521
205.8591, 2193.382
206.3413, 2198.973
206.8234, 2201.551
207.3055, 2202.137
207.7876, 2203.539
208.2697, 2206.177
208.7519, 2208.172
209.2340, 2208.613
209.7161, 2207.448
210.1982, 2204.617
210.6803, 2199.414
211.1624, 2192.930
211.6446, 2188.109
212.1267, 2185.175
212.6088, 2183.517
213.0909, 2183.386
213.5730, 2185.757
214.0551, 2185.815
214.5373, 2182.304
215.0194, 2176.839
215.5015, 2174.146
215.9836, 2175.346
216.4657, 2177.081
216.9478, 2177.392
217.4300, 2175.351
217.9121, 2174.968
218.3942, 2177.127
218.8763, 2180.728
219.3584, 2182.138
219.8405, 2179.457
220.3227, 2177.925
220.8048, 2180.654
221.2869, 2189.723
221.7690, 2196.866
222.2511, 2200.796
222.7333, 2202.891
223.2154, 2207.091
223.6975, 2214.123
224.1796, 2222.184
224.6617, 2230.457
225.1438, 2238.802
225.6260, 2247.927
226.1081, 2258.358
226.5902, 2269.510
227.0723, 2279.195
227.5544, 2286.741
228.0365, 2294.141
228.5187, 2302.711
229.0008, 2314.208
229.4829, 2322.437
229.9650, 2326.582
230.4471, 2327.599
230.9292, 2327.875
231.4114, 2326.440
231.8935, 2325.596
232.3756, 2326.600
232.8577, 2330.957
233.3398, 2333.374
233.8220, 2333.042
234.3041, 2330.991
234.7862, 2329.685
235.2683, 2328.976
235.7504, 2329.273
236.2325, 2331.043
236.7147, 2335.340
237.1968, 2338.371
237.6789, 2339.165
238.1610, 2339.204
238.6431, 2341.832
239.1252, 2348.486
239.6074, 2355.717
240.0895, 2362.226
240.5716, 2367.521
241.0537, 2373.413
241.5358, 2379.941
242.0179, 2387.040
242.5001, 2394.827
242.9822, 2404.485
243.4643, 2412.763
243.9464, 2417.853
244.4285, 2417.804
244.9106, 2421.094
245.3928, 2429.832
245.8749, 2440.548
246.3570, 2446.995
246.8391, 2446.900
247.3212, 2446.331
247.8034, 2447.422
248.2855, 2450.899
248.7676, 2453.031
249.2497, 2453.816
249.7318, 2453.344
250.2139, 2451.601
250.6961, 2447.961
251.1782, 2444.314
251.6603, 2441.358
252.1424, 2439.381
252.6245, 2436.601
253.1066, 2433.065
253.5888, 2428.731
254.0709, 2423.467
254.5530, 2417.225
255.0351, 2410.023
255.5172, 2401.190
255.9993, 2390.212
256.4815, 2383.023
256.9636, 2382.286
257.4457, 2382.535
257.9278, 2377.098
258.4099, 2363.469
258.8921, 2349.800
259.3742, 2337.984
259.8563, 2328.163
260.3384, 2317.278
260.8205, 2304.967
261.3026, 2292.235
261.7848, 2279.949
262.2669, 2268.435
262.7490, 2256.805
263.2311, 2245.237
263.7132, 2233.614
264.1953, 2220.389
264.6775, 2204.706
265.1596, 2188.940
265.6417, 2175.146
266.1238, 2163.641
266.6059, 2153.154
267.0880, 2143.829
267.5702, 2135.424
268.0523, 2126.699
268.5344, 2117.076
269.0165, 2108.119
269.4986, 2101.422
269.9807, 2097.772
270.4629, 2092.432
270.9450, 2084.148
271.4271, 2073.854
271.9092, 2065.267
272.3913, 2058.152
272.8734, 2053.388
273.3556, 2051.969
273.8377, 2054.282
274.3198, 2057.213
274.8019, 2060.491
275.2840, 2064.211
275.7661, 2068.598
276.2483, 2073.559
276.7304, 2079.495
277.2125, 2086.949
277.6946, 2096.116
278.1768, 2104.365
278.6589, 2111.257
279.1410, 2117.562
279.6231, 2124.501
280.1052, 2132.043
280.5873, 2141.022
281.0695, 2152.331
281.5516, 2165.983
282.0337, 2178.703
282.5158, 2189.926
282.9979, 2201.245
283.4800, 2215.807
283.9622, 2233.767
284.4443, 2251.262
284.9264, 2265.808
285.4085, 2277.809
285.8906, 2292.319
286.3727, 2309.550
286.8549, 2328.408
287.3370, 2348.061
287.8191, 2368.432
288.3012, 2388.277
288.7833, 2407.056
289.2654, 2424.771
289.7476, 2441.358
290.2297, 2456.656
290.7118, 2472.211
291.1939, 2490.535
291.6760, 2510.918
292.1581, 2529.851
292.6403, 2545.667
293.1224, 2559.684
293.6045, 2575.513
294.0866, 2593.048
294.5687, 2610.803
295.0508, 2627.436
295.5330, 2643.253
296.0151, 2658.862
296.4972, 2674.308
296.9793, 2690.070
297.4614, 2706.829
297.9435, 2724.562
298.4257, 2742.015
298.9078, 2757.871
299.3899, 2772.749
299.8720, 2787.719
300.3541, 2803.442
300.8362, 2818.666
301.3184, 2831.303
301.8005, 2842.003
302.2826, 2852.883
302.7647, 2866.311
303.2469, 2880.446
303.7290, 2893.125
304.2111, 2904.110
304.6932, 2912.981
305.1753, 2919.047
305.6574, 2922.516
306.1396, 2923.642
306.6217, 2920.578
307.1038, 2916.258
307.5859, 2914.442
308.0680, 2915.687
308.5501, 2915.805
309.0323, 2911.054
309.5144, 2903.173
309.9965, 2894.969
310.4786, 2889.202
310.9607, 2882.316
311.4428, 2871.301
311.9250, 2856.266
312.4071, 2839.723
312.8892, 2822.164
313.3713, 2804.636
313.8534, 2788.104
314.3355, 2774.180
314.8177, 2760.353
315.2998, 2745.186
315.7819, 2728.978
316.2640, 2712.870
316.7461, 2697.776
317.2282, 2682.907
317.7104, 2667.622
318.1925, 2652.651
318.6746, 2635.921
319.1567, 2614.876
319.6388, 2591.207
320.1209, 2570.011
320.6031, 2553.912
321.0852, 2539.903
321.5673, 2526.399
322.0494, 2513.235
322.5315, 2500.538
323.0136, 2488.032
323.4958, 2476.099
323.9779, 2465.348
324.4600, 2456.889
324.9421, 2448.736
325.4242, 2440.193
325.9064, 2430.901
326.3885, 2422.580
326.8706, 2415.544
327.3527, 2409.518
327.8348, 2404.099
328.3170, 2398.933
328.7991, 2394.722
329.2812, 2391.846
329.7633, 2390.303
330.2454, 2388.689
330.7275, 2387.120
331.2097, 2385.305
331.6918, 2382.926
332.1739, 2378.815
332.6560, 2375.948
333.1381, 2375.204
333.6202, 2375.983
334.1024, 2375.495
334.5845, 2373.180
335.0666, 2370.406
335.5487, 2367.953
336.0308, 2366.230
336.5129, 2363.675
336.9951, 2359.731
337.4772, 2355.405
337.9593, 2352.653
338.4414, 2351.855
338.9235, 2351.793
339.4056, 2352.702
339.8878, 2354.902
340.3699, 2353.749
340.8520, 2348.172
341.3341, 2341.335
341.8162, 2336.891
342.2983, 2334.923
342.7805, 2334.813
343.2626, 2337.207
343.7447, 2341.329
344.2268, 2343.051
344.7089, 2342.168
345.1910, 2339.825
345.6732, 2336.339
346.1553, 2331.902
346.6374, 2328.853
347.1195, 2328.062
347.6016, 2328.375
348.0837, 2327.387
348.5659, 2325.178
349.0480, 2322.924
349.5301, 2321.505
350.0122, 2320.716
350.4944, 2319.985
350.9765, 2319.204
351.4586, 2318.781
351.9407, 2320.169
352.4228, 2322.602
352.9049, 2323.479
353.3871, 2319.479
353.8692, 2314.027
354.3513, 2311.847
354.8334, 2313.258
355.3155, 2315.603
355.7976, 2317.407
356.2798, 2318.587
356.7619, 2319.037
357.2440, 2316.942
357.7261, 2315.411
358.2082, 2317.716
358.6903, 2323.206
359.1725, 2327.544
359.6546, 2327.064
360.1367, 2324.999
360.6188, 2324.328
361.1009, 2327.120
361.5830, 2329.289
362.0652, 2328.824
362.5473, 2326.424
363.0294, 2323.800
363.5115, 2321.559
363.9936, 2319.252
364.4757, 2316.483
364.9579, 2312.766
365.4400, 2310.087
365.9221, 2309.611
366.4042, 2310.181
366.8863, 2310.325
367.3684, 2309.813
367.8506, 2308.956
368.3327, 2307.529
368.8148, 2305.445
369.2969, 2304.323
369.7790, 2305.090
370.2611, 2306.165
370.7433, 2306.461
371.2254, 2305.722
371.7075, 2304.485
372.1896, 2301.948
372.6717, 2298.822
373.1538, 2298.427
373.6360, 2302.457
374.1181, 2306.394
374.6002, 2308.011
375.0823, 2306.757
375.5645, 2304.942
376.0466, 2302.073
376.5287, 2299.210
377.0108, 2298.625
377.4929, 2301.019
377.9750, 2302.358
378.4572, 2300.450
378.9393, 2295.907
379.4214, 2295.042
379.9035, 2298.534
380.3856, 2302.961
380.8677, 2304.864
381.3499, 2304.405
381.8320, 2303.687
382.3141, 2302.927
382.7962, 2302.376
383.2783, 2302.638
383.7604, 2303.664
384.2426, 2304.949
384.7247, 2306.381
385.2068, 2307.772
385.6889, 2308.608
386.1710, 2308.653
386.6531, 2308.820
387.1353, 2311.111
387.6174, 2314.420
388.0995, 2315.906
388.5816, 2311.749
389.0637, 2306.636
389.5458, 2305.766
390.0280, 2309.158
390.5101, 2313.132
390.9922, 2315.543
391.4743, 2317.112
391.9564, 2318.632
392.4385, 2320.094
392.9207, 2321.857
393.4028, 2324.394
393.8849, 2327.403
394.3670, 2330.018
394.8491, 2331.229
395.3312, 2332.380
395.8134, 2334.330
396.2955, 2337.576
396.7776, 2340.479
397.2597, 2342.488
397.7418, 2343.983
398.2239, 2345.473
398.7061, 2345.799
399.1882, 2347.380
399.6703, 2351.980
400.1524, 2359.876
400.6346, 2364.340
401.1167, 2363.484
401.5988, 2360.812
402.0809, 2358.598
402.5630, 2357.197
403.0451, 2355.468
403.5273, 2353.040
404.0094, 2350.295
404.4915, 2348.781
404.9736, 2349.594
405.4557, 2348.835
405.9378, 2343.905
406.4200, 2334.192
406.9021, 2327.782
407.3842, 2325.691
407.8663, 2324.715
408.3484, 2320.510
408.8305, 2313.013
409.3127, 2306.080
409.7948, 2300.995
410.2769, 2297.160
410.7590, 2293.096
411.2411, 2288.822
411.7232, 2284.385
412.2054, 2279.499
412.6875, 2274.413
413.1696, 2269.840
413.6517, 2265.679
414.1338, 2262.433
414.6159, 2261.536
415.0981, 2262.132
415.5802, 2261.936
416.0623, 2258.620
416.5444, 2254.544
417.0265, 2252.416
417.5086, 2252.242
417.9908, 2251.928
418.4729, 2250.267
418.9550, 2247.688
419.4371, 2244.628
419.9192, 2240.354
420.4013, 2236.617
420.8835, 2234.427
421.3656, 2233.421
421.8477, 2232.444
422.3298, 2230.822
422.8119, 2229.490
423.2940, 2228.878
423.7762, 2229.130
424.2583, 2229.884
424.7404, 2231.533
425.2225, 2233.513
425.7047, 2235.171
426.1868, 2235.190
426.6689, 2236.697
427.1510, 2241.286
427.6331, 2248.455
428.1152, 2252.233
428.5974, 2250.503
429.0795, 2248.606
429.5616, 2250.042
430.0437, 2255.837
430.5258, 2260.223
431.0079, 2262.095
431.4901, 2263.455
431.9722, 2268.223
432.4543, 2276.656
432.9364, 2285.506
433.4185, 2293.470
433.9006, 2300.727
434.3828, 2307.533
434.8649, 2313.776
435.3470, 2320.979
435.8291, 2331.743
436.3112, 2344.830
436.7933, 2355.656
437.2755, 2362.586
437.7576, 2368.747
438.2397, 2377.837
438.7218, 2389.400
439.2039, 2401.852
439.6860, 2413.895
440.1682, 2426.769
440.6503, 2441.388
441.1324, 2457.925
441.6145, 2475.884
442.0966, 2495.486
442.5787, 2516.074
443.0609, 2536.943
443.5430, 2557.551
444.0251, 2578.624
444.5072, 2600.890
444.9893, 2623.865
445.4714, 2646.141
445.9536, 2664.406
446.4357, 2684.586
446.9178, 2709.750
447.3999, 2742.375
447.8820, 2774.085
448.3641, 2804.344
448.8463, 2834.049
449.3284, 2864.526
449.8105, 2894.791
450.2926, 2927.327
450.7747, 2963.438
451.2569, 3002.512
451.7390, 3038.802
452.2211, 3070.799
452.7032, 3104.622
453.1853, 3145.079
453.6674, 3193.022
454.1496, 3236.938
454.6317, 3275.698
455.1138, 3312.732
455.5959, 3352.363
456.0780, 3394.699
456.5602, 3437.421
457.0423, 3479.853
457.5244, 3521.987
458.0065, 3564.758
458.4886, 3607.774
458.9707, 3650.553
459.4529, 3693.616
459.9350, 3735.871
460.4171, 3773.544
460.8992, 3805.759
461.3813, 3837.279
461.8634, 3873.537
462.3456, 3911.610
462.8277, 3945.732
463.3098, 3972.979
463.7919, 3996.712
464.2740, 4019.279
464.7561, 4040.458
465.2383, 4056.866
465.7204, 4066.539
466.2025, 4071.675
466.6846, 4073.450
467.1667, 4071.864
467.6488, 4066.990
468.1310, 4058.194
468.6131, 4046.237
469.0952, 4032.215
469.5773, 4017.370
470.0594, 3998.532
470.5415, 3974.437
471.0237, 3945.280
471.5058, 3913.736
471.9879, 3879.983
472.4700, 3843.386
472.9521, 3804.237
473.4342, 3762.485
473.9164, 3716.297
474.3985, 3664.297
474.8806, 3609.331
475.3627, 3555.704
475.8448, 3503.246
476.3270, 3449.864
476.8091, 3393.490
477.2912, 3336.567
477.7733, 3284.966
478.2554, 3238.435
478.7375, 3193.229
479.2197, 3146.594
479.7018, 3099.326
480.1839, 3052.590
480.6660, 3006.085
481.1481, 2962.057
481.6302, 2923.563
482.1124, 2888.418
482.5945, 2852.917
483.0766, 2813.585
483.5587, 2775.403
484.0408, 2740.869
484.5229, 2710.134
485.0051, 2680.851
485.4872, 2652.879
485.9693, 2625.965
486.4514, 2600.261
486.9335, 2575.961
487.4156, 2552.176
487.8978, 2528.253
488.3799, 2505.315
488.8620, 2484.387
489.3441, 2465.747
489.8262, 2448.415
490.3083, 2432.260
490.7905, 2417.089
491.2726, 2401.870
491.7547, 2386.362
492.2368, 2371.504
492.7189, 2358.355
493.2010, 2346.638
493.6832, 2335.979
494.1653, 2326.442
494.6474, 2317.098
495.1295, 2305.824
495.6116, 2293.500
496.0938, 2282.765
496.5759, 2275.300
497.0580, 2269.335
497.5401, 2263.334
498.0222, 2257.285
498.5044, 2251.444
498.9865, 2245.743
499.4686, 2240.377
499.9507, 2235.755
500.4328, 2232.356
500.9149, 2228.106
501.3971, 2221.390
501.8792, 2213.775
502.3613, 2207.064
502.8434, 2201.597
503.3255, 2196.911
503.8076, 2193.015
504.2898, 2189.827
504.7719, 2187.111
505.2540, 2185.114
505.7361, 2183.178
506.2182, 2181.095
506.7003, 2178.935
507.1825, 2176.156
507.6646, 2172.765
508.1467, 2168.767
508.6288, 2163.777
509.1109, 2157.823
509.5930, 2152.786
510.0752, 2149.131
510.5573, 2146.525
511.0394, 2144.828
511.5215, 2143.856
512.0037, 2142.332
512.4858, 2138.971
512.9679, 2134.898
513.4500, 2131.657
513.9321, 2129.291
514.4142, 2127.349
514.8964, 2125.501
515.3785, 2123.880
515.8606, 2122.719
516.3427, 2122.463
516.8248, 2121.896
517.3069, 2120.207
517.7891, 2117.910
518.2712, 2115.959
518.7533, 2115.120
519.2354, 2114.097
519.7175, 2112.332
520.1996, 2109.844
520.6818, 2107.797
521.1639, 2105.101
521.6460, 2104.211
522.1281, 2107.664
522.6102, 2118.082
523.0923, 2121.935
523.5745, 2116.655
524.0566, 2108.521
524.5387, 2107.412
525.0208, 2113.303
525.5029, 2117.802
525.9850, 2117.939
526.4672, 2115.635
526.9493, 2115.136
527.4314, 2116.227
527.9135, 2117.049
528.3956, 2115.879
528.8777, 2113.987
529.3599, 2113.157
529.8420, 2113.580
530.3241, 2114.376
530.8062, 2114.222
531.2883, 2114.448
531.7704, 2116.633
532.2526, 2123.841
532.7347, 2129.660
533.2168, 2130.592
533.6989, 2128.781
534.1810, 2129.268
534.6631, 2134.050
535.1453, 2140.002
535.6274, 2146.348
536.1095, 2153.179
536.5916, 2160.277
537.0737, 2167.812
537.5558, 2175.477
538.0380, 2182.582
538.5201, 2188.725
539.0022, 2197.613
539.4843, 2209.552
539.9664, 2223.721
540.4485, 2239.142
540.9307, 2255.620
541.4128, 2272.249
541.8949, 2288.254
542.3770, 2304.389
542.8591, 2321.817
543.3412, 2340.414
543.8234, 2360.779
544.3055, 2384.892
544.7876, 2409.928
545.2697, 2431.826
545.7518, 2449.781
546.2339, 2470.441
546.7161, 2499.431
547.1982, 2531.198
547.6803, 2561.451
548.1624, 2585.163
548.6445, 2612.270
549.1266, 2645.642
549.6088, 2683.176
550.0909, 2720.477
550.5730, 2756.552
551.0551, 2794.304
551.5372, 2833.926
552.0193, 2875.664
552.5015, 2920.616
552.9836, 2969.511
553.4657, 3019.155
553.9478, 3067.554
554.4299, 3114.773
554.9120, 3162.686
555.3942, 3211.574
555.8763, 3257.569
556.3584, 3296.971
556.8405, 3329.802
557.3226, 3356.684
557.8047, 3380.323
558.2869, 3394.229
558.7690, 3393.848
559.2511, 3379.277
559.7332, 3350.529
560.2154, 3302.365
560.6975, 3244.614
561.1796, 3180.051
561.6617, 3108.890
562.1439, 3036.815
562.6260, 2960.665
563.1081, 2887.442
563.5902, 2819.511
564.0723, 2756.889
564.5544, 2699.174
565.0366, 2645.042
565.5187, 2596.364
566.0008, 2557.325
566.4829, 2528.930
566.9650, 2502.450
567.4471, 2475.737
567.9293, 2449.909
568.4114, 2428.154
568.8935, 2410.343
569.3756, 2396.511
569.8577, 2388.965
570.3398, 2384.682
570.8220, 2378.276
571.3041, 2369.688
571.7862, 2362.077
572.2683, 2357.542
572.7504, 2355.091
573.2325, 2354.084
573.7147, 2355.395
574.1968, 2355.530
574.6789, 2351.035
575.1610, 2345.401
575.6431, 2343.094
576.1252, 2348.843
576.6074, 2353.242
577.0895, 2354.716
577.5716, 2353.933
578.0537, 2353.301
578.5358, 2352.628
579.0179, 2352.571
579.5001, 2353.452
579.9822, 2355.235
580.4643, 2357.450
580.9464, 2360.193
581.4285, 2362.624
581.9106, 2363.684
582.3928, 2363.826
582.8749, 2364.219
583.3570, 2364.740
583.8391, 2366.827
584.3212, 2371.788
584.8033, 2379.336
585.2855, 2388.998
585.7676, 2400.712
586.2497, 2414.388
586.7318, 2431.334
587.2139, 2450.414
587.6960, 2468.368
588.1782, 2482.617
588.6603, 2497.297
589.1424, 2513.522
589.6245, 2531.375
590.1066, 2551.146
590.5887, 2573.260
591.0709, 2596.301
591.5530, 2620.208
592.0351, 2645.484
592.5172, 2667.355
592.9993, 2685.095
593.4814, 2701.107
593.9636, 2720.016
594.4457, 2740.417
594.9278, 2755.337
595.4099, 2762.037
595.8920, 2764.411
596.3741, 2767.175
596.8563, 2769.636
597.3384, 2769.855
597.8205, 2767.243
598.3026, 2761.842
598.7847, 2752.773
599.2668, 2740.409
599.7490, 2728.109
600.2311, 2717.813
600.7132, 2707.020
601.1953, 2694.016
601.6774, 2677.674
602.1595, 2662.313
602.6417, 2647.708
603.1238, 2633.864
603.6059, 2620.808
604.0880, 2608.299
604.5701, 2597.473
605.0522, 2588.848
605.5344, 2581.334
606.0165, 2573.539
606.4986, 2565.470
606.9807, 2557.403
607.4628, 2548.893
607.9449, 2541.137
608.4271, 2537.282
608.9092, 2536.177
609.3913, 2533.340
609.8735, 2523.816
610.3556, 2513.680
610.8377, 2507.561
611.3198, 2505.961
611.8019, 2503.299
612.2841, 2496.665
612.7662, 2489.449
613.2483, 2483.581
613.7304, 2478.861
614.2125, 2476.446
614.6946, 2478.259
615.1768, 2480.196
615.6589, 2476.649
616.1410, 2466.605
616.6231, 2458.044
617.1052, 2452.678
617.5873, 2448.996
618.0695, 2444.701
618.5516, 2439.754
619.0337, 2433.932
619.5158, 2426.800
619.9979, 2419.002
620.4800, 2411.115
620.9622, 2403.230
621.4443, 2395.964
621.9264, 2390.113
622.4085, 2384.554
622.8906, 2378.230
623.3727, 2370.802
623.8549, 2364.540
624.3370, 2361.796
624.8191, 2358.855
625.3012, 2353.188
625.7833, 2343.076
626.2654, 2334.091
626.7476, 2326.515
627.2297, 2319.695
627.7118, 2312.664
628.1939, 2305.404
628.6760, 2298.983
629.1581, 2294.031
629.6403, 2289.461
630.1224, 2282.833
630.6045, 2274.784
631.0866, 2267.598
631.5687, 2262.454
632.0508, 2258.703
632.5330, 2256.729
633.0151, 2256.063
633.4972, 2254.142
633.9793, 2248.604
634.4614, 2242.617
634.9435, 2237.759
635.4257, 2234.351
635.9078, 2231.321
636.3899, 2229.099
636.8720, 2226.677
637.3541, 2223.055
637.8362, 2217.448
638.3184, 2214.078
638.8005, 2213.552
639.2826, 2214.220
639.7647, 2214.145
640.2468, 2213.389
640.7289, 2212.473
641.2111, 2211.544
641.6932, 2210.453
642.1753, 2208.857
642.6574, 2206.936
643.1395, 2205.153
643.6216, 2203.755
644.1038, 2202.481
644.5859, 2201.236
645.0680, 2200.001
645.5501, 2198.688
646.0322, 2197.260
646.5143, 2195.782
646.9965, 2194.442
647.4786, 2193.282
647.9607, 2191.286
648.4428, 2188.113
648.9249, 2184.778
649.4070, 2181.565
649.8892, 2178.523
650.3713, 2177.173
650.8534, 2177.748
651.3355, 2178.937
651.8176, 2179.848
652.2997, 2180.261
652.7819, 2179.474
653.2640, 2176.867
653.7461, 2174.345
654.2282, 2174.065
654.7103, 2174.628
655.1924, 2173.959
655.6746, 2169.077
656.1567, 2165.512
656.6388, 2166.275
657.1209, 2169.461
657.6030, 2169.562
658.0851, 2164.304
658.5673, 2160.116
659.0494, 2159.157
659.5316, 2160.857
660.0137, 2161.789
660.4958, 2161.905
660.9779, 2161.752
661.4600, 2161.587
661.9421, 2161.404
662.4243, 2161.061
662.9064, 2160.559
663.3885, 2160.365
663.8706, 2160.272
664.3527, 2160.959
664.8348, 2163.698
665.3170, 2169.539
665.7991, 2173.640
666.2812, 2173.153
666.7633, 2170.834
667.2454, 2169.209
667.7275, 2167.938
668.2097, 2168.346
668.6918, 2171.544
669.1739, 2175.427
669.6560, 2176.541
670.1381, 2174.663
670.6202, 2172.555
671.1024, 2171.000
671.5845, 2169.414
672.0666, 2165.489
672.5487, 2160.254
673.0308, 2157.801
673.5129, 2163.101
673.9951, 2169.769
674.4772, 2172.325
674.9593, 2171.426
675.4414, 2170.034
675.9235, 2168.213
676.4056, 2167.141
676.8878, 2167.725
677.3699, 2170.119
677.8520, 2171.663
678.3341, 2171.329
678.8162, 2171.671
679.2983, 2175.065
679.7805, 2181.978
680.2626, 2184.183
680.7447, 2181.026
681.2268, 2176.561
681.7089, 2174.595
682.1910, 2174.414
682.6732, 2174.180
683.1553, 2173.518
683.6374, 2173.266
684.1195, 2174.750
684.6016, 2176.792
685.0837, 2177.948
685.5659, 2177.450
686.0480, 2176.557
686.5301, 2174.373
687.0122, 2172.362
687.4943, 2173.045
687.9764, 2178.087
688.4586, 2182.559
688.9407, 2185.939
689.4228, 2188.066
689.9049, 2188.131
690.3870, 2186.083
690.8691, 2183.989
691.3513, 2182.513
691.8334, 2181.646
692.3155, 2181.731
692.7976, 2182.546
693.2797, 2183.087
693.7618, 2181.892
694.2440, 2180.926
694.7261, 2182.339
695.2082, 2186.059
695.6903, 2187.968
696.1724, 2184.830
696.6545, 2181.806
697.1367, 2181.715
697.6188, 2185.361
698.1009, 2186.023
698.5830, 2182.203
699.0651, 2178.905
699.5472, 2181.219
700.0294, 2188.293
700.5115, 2192.681
700.9936, 2193.656
701.4757, 2193.251
701.9578, 2192.634
702.4399, 2192.206
702.9221, 2192.816
703.4042, 2195.219
703.8863, 2196.956
704.3684, 2195.288
704.8505, 2192.798
705.3326, 2192.552
705.8148, 2199.374
706.2969, 2202.487
706.7790, 2199.045
707.2611, 2193.002
707.7432, 2191.828
708.2253, 2196.325
708.7075, 2200.600
709.1896, 2203.445
709.6718, 2204.986
710.1539, 2204.991
710.6360, 2203.779
711.1181, 2202.566
711.6002, 2201.818
712.0823, 2201.454
712.5645, 2201.478
713.0466, 2201.844
713.5287, 2202.365
714.0108, 2202.273
714.4929, 2202.973
714.9750, 2205.544
715.4572, 2209.758
715.9393, 2212.888
716.4214, 2214.742
716.9035, 2215.883
717.3856, 2216.529
717.8677, 2216.664
718.3499, 2215.762
718.8320, 2213.744
719.3141, 2212.620
719.7962, 2215.046
720.2783, 2218.907
720.7604, 2220.855
721.2426, 2220.537
721.7247, 2219.911
722.2068, 2219.409
722.6889, 2219.540
723.1710, 2221.069
723.6531, 2225.520
724.1353, 2227.389
724.6174, 2224.777
725.0995, 2221.267
725.5816, 2220.172
726.0637, 2222.093
726.5458, 2221.866
727.0280, 2218.310
727.5101, 2215.184
727.9922, 2218.235
728.4743, 2225.522
728.9564, 2231.518
729.4385, 2234.486
729.9207, 2236.737
730.4028, 2240.368
730.8849, 2244.349
731.3670, 2247.198
731.8491, 2248.767
732.3312, 2248.819
732.8134, 2246.092
733.2955, 2242.229
733.7776, 2239.928
734.2597, 2239.646
734.7418, 2239.511
735.2239, 2239.059
735.7061, 2238.690
736.1882, 2239.613
736.6703, 2241.646
737.1524, 2243.203
737.6345, 2242.960
738.1166, 2242.660
738.5988, 2244.899
739.0809, 2248.749
739.5630, 2251.556
740.0451, 2251.428
740.5272, 2250.798
741.0093, 2250.240
741.4915, 2249.899
741.9736, 2250.639
742.4557, 2253.345
742.9378, 2255.266
743.4199, 2254.789
743.9020, 2252.644
744.3842, 2253.568
744.8663, 2257.567
745.3484, 2261.659
745.8305, 2264.270
746.3126, 2265.769
746.7947, 2266.738
747.2769, 2267.174
747.7590, 2266.717
748.2411, 2263.429
748.7232, 2260.672
749.2053, 2260.648
749.6874, 2263.873
750.1696, 2267.103
750.6517, 2269.817
751.1338, 2273.146
751.6159, 2278.715
752.0980, 2286.840
752.5801, 2288.419
753.0623, 2282.630
753.5444, 2276.805
754.0265, 2277.999
754.5086, 2283.239
754.9907, 2286.742
755.4728, 2287.871
755.9550, 2288.871
756.4371, 2291.632
756.9192, 2294.563
757.4013, 2296.386
757.8835, 2296.610
758.3656, 2296.528
758.8477, 2296.176
759.3298, 2295.665
759.8120, 2294.932
760.2941, 2293.897
760.7762, 2293.661
761.2583, 2294.332
761.7404, 2295.722
762.2225, 2298.432
762.7047, 2301.633
763.1868, 2303.027
763.6689, 2301.765
764.1510, 2300.675
764.6331, 2301.919
765.1152, 2304.241
765.5974, 2306.270
766.0795, 2307.082
766.5616, 2308.656
767.0437, 2311.270
767.5258, 2314.459
768.0079, 2317.619
768.4901, 2320.648
768.9722, 2324.267
769.4543, 2328.792
769.9364, 2332.998
770.4185, 2334.957
770.9006, 2335.239
771.3828, 2335.214
771.8649, 2334.820
772.3470, 2335.211
772.8291, 2337.989
773.3112, 2341.789
773.7933, 2344.724
774.2755, 2346.051
774.7576, 2347.035
775.2397, 2347.757
775.7218, 2348.330
776.2039, 2348.930
776.6860, 2349.601
777.1682, 2349.997
777.6503, 2349.692
778.1324, 2349.894
778.6145, 2353.215
779.0966, 2358.582
779.5787, 2363.221
780.0609, 2366.579
780.5430, 2368.316
781.0251, 2366.028
781.5072, 2362.358
781.9893, 2362.152
782.4714, 2370.679
782.9536, 2376.988
783.4357, 2378.768
783.9178, 2378.384
784.3999, 2380.979
784.8820, 2386.819
785.3641, 2392.401
785.8463, 2397.007
786.3284, 2400.567
786.8105, 2402.253
787.2926, 2402.714
787.7747, 2403.517
788.2568, 2404.695
788.7390, 2406.978
789.2211, 2411.647
789.7032, 2417.559
790.1853, 2422.051
790.6674, 2423.252
791.1495, 2425.526
791.6317, 2429.877
792.1138, 2435.528
792.5959, 2440.713
793.0780, 2445.492
793.5601, 2449.384
794.0422, 2452.039
794.5244, 2454.166
795.0065, 2456.395
795.4886, 2458.981
795.9707, 2462.429
796.4528, 2469.071
796.9349, 2474.452
797.4171, 2475.223
797.8992, 2473.455
798.3813, 2475.020
798.8634, 2481.935
799.3455, 2487.758
799.8276, 2490.479
800.3098, 2491.747
800.7919, 2496.260
801.2740, 2503.590
801.7561, 2509.510
802.2382, 2511.674
802.7203, 2512.505
803.2025, 2514.050
803.6846, 2516.312
804.1667, 2519.306
804.6488, 2524.202
805.1309, 2528.541
805.6130, 2531.518
806.0952, 2533.449
806.5773, 2534.865
807.0594, 2535.504
807.5416, 2536.587
808.0237, 2538.623
808.5058, 2541.023
808.9879, 2542.797
809.4700, 2543.882
809.9521, 2543.949
810.4343, 2542.200
810.9164, 2540.203
811.3985, 2539.028
811.8806, 2538.495
812.3627, 2538.225
812.8448, 2537.544
813.3270, 2538.042
813.8091, 2541.478
814.2912, 2545.409
814.7733, 2543.258
815.2554, 2534.161
815.7375, 2528.238
816.2197, 2529.281
816.7018, 2532.862
817.1839, 2531.781
817.6660, 2527.490
818.1481, 2523.420
818.6302, 2522.223
819.1124, 2519.946
819.5945, 2513.069
820.0766, 2504.202
820.5587, 2498.511
821.0408, 2497.797
821.5229, 2497.473
822.0051, 2497.386
822.4872, 2496.921
822.9693, 2495.008
823.4514, 2491.656
823.9335, 2486.735
824.4156, 2478.998
824.8978, 2472.366
825.3799, 2471.838
825.8620, 2474.890
826.3441, 2477.437
826.8262, 2479.434
827.3083, 2479.112
827.7905, 2474.014
828.2726, 2467.339
828.7547, 2462.859
829.2368, 2460.949
829.7189, 2460.098
830.2010, 2460.372
830.6832, 2461.047
831.1653, 2461.020
831.6474, 2460.592
832.1295, 2460.853
832.6116, 2462.727
833.0938, 2463.438
833.5759, 2459.652
834.0580, 2454.466
834.5401, 2451.369
835.0222, 2453.005
835.5043, 2453.626
835.9865, 2452.740
836.4686, 2451.504
836.9507, 2451.256
837.4328, 2451.956
837.9149, 2452.487
838.3970, 2452.711
838.8792, 2452.873
839.3613, 2452.886
839.8434, 2453.119
840.3255, 2454.406
840.8076, 2457.442
841.2897, 2459.172
841.7719, 2456.311
842.2540, 2453.405
842.7361, 2454.316
843.2182, 2460.895
843.7003, 2463.206
844.1824, 2460.230
844.6646, 2456.633
845.1467, 2456.653
845.6288, 2459.320
846.1109, 2462.672
846.5930, 2466.555
847.0751, 2469.326
847.5573, 2468.831
848.0394, 2467.586
848.5215, 2467.625
849.0036, 2469.501
849.4857, 2470.567
849.9678, 2470.755
850.4500, 2470.166
850.9321, 2468.282
851.4142, 2465.388
851.8963, 2464.932
852.3784, 2466.876
852.8605, 2469.470
853.3427, 2471.750
853.8248, 2473.860
854.3069, 2476.466
854.7890, 2479.359
855.2711, 2480.499
855.7532, 2476.258
856.2354, 2473.301
856.7175, 2474.680
857.1996, 2479.552
857.6818, 2481.688
858.1639, 2480.635
858.6460, 2479.962
859.1281, 2481.564
859.6102, 2484.385
860.0923, 2486.799
860.5745, 2488.783
861.0566, 2490.220
861.5387, 2490.797
862.0208, 2491.134
862.5029, 2491.466
862.9850, 2491.831
863.4672, 2492.171
863.9493, 2492.222
864.4314, 2493.130
864.9135, 2495.333
865.3956, 2498.387
865.8777, 2502.128
866.3599, 2506.099
866.8420, 2507.902
867.3241, 2505.323
867.8062, 2502.857
868.2883, 2504.417
868.7704, 2508.032
869.2526, 2510.776
869.7347, 2510.452
870.2168, 2511.481
870.6989, 2514.657
871.1810, 2518.413
871.6631, 2520.630
872.1453, 2521.382
872.6274, 2522.593
873.1095, 2524.755
873.5916, 2526.271
874.0737, 2523.304
874.5558, 2519.753
875.0380, 2521.441
875.5201, 2532.282
876.0022, 2539.184
876.4843, 2535.660
876.9664, 2530.059
877.4485, 2527.642
877.9307, 2528.943
878.4128, 2529.815
878.8949, 2530.256
879.3770, 2530.430
879.8591, 2529.837
880.3412, 2529.339
880.8234, 2530.849
881.3055, 2534.369
881.7876, 2536.997
882.2697, 2536.012
882.7518, 2535.088
883.2339, 2536.746
883.7161, 2540.739
884.1982, 2542.067
884.6803, 2540.085
885.1624, 2537.996
885.6445, 2537.546
886.1266, 2537.976
886.6088, 2536.656
887.0909, 2534.358
887.5730, 2534.237
888.0551, 2541.591
888.5372, 2547.814
889.0193, 2547.279
889.5015, 2542.006
889.9836, 2538.995
890.4657, 2539.183
890.9478, 2539.676
891.4299, 2539.910
891.9120, 2540.100
892.3942, 2540.896
892.8763, 2542.047
893.3584, 2542.453
893.8405, 2541.440
894.3226, 2540.355
894.8047, 2540.574
895.2869, 2541.101
895.7690, 2540.663
896.2511, 2536.898
896.7332, 2535.820
897.2153, 2538.482
897.6974, 2542.199
898.1796, 2544.306
898.6617, 2544.966
899.1438, 2544.883
899.6259, 2544.082
900.1080, 2543.574
900.5901, 2545.079
901.0723, 2546.723
901.5544, 2546.754
902.0365, 2544.835
902.5186, 2542.255
903.0007, 2538.063
903.4828, 2534.929
903.9650, 2534.501
904.4471, 2536.441
904.9292, 2537.725
905.4113, 2538.364
905.8935, 2538.146
906.3756, 2535.060
906.8577, 2532.482
907.3398, 2535.178
907.8220, 2541.643
908.3041, 2545.756
908.7862, 2542.564
909.2683, 2541.163
909.7504, 2544.414
910.2325, 2550.030
910.7147, 2551.974
911.1968, 2550.320
911.6789, 2549.125
912.1610, 2549.548
912.6431, 2550.887
913.1252, 2553.067
913.6074, 2555.407
914.0895, 2556.812
914.5716, 2555.931
915.0537, 2555.890
915.5358, 2557.827
916.0179, 2560.120
916.5001, 2561.130
916.9822, 2560.767
917.4643, 2561.342
917.9464, 2563.133
918.4285, 2564.601
918.9106, 2563.262
919.3928, 2561.367
919.8749, 2562.048
920.3570, 2565.727
920.8391, 2568.871
921.3212, 2570.492
921.8033, 2571.293
922.2855, 2571.004
922.7676, 2569.948
923.2497, 2572.090
923.7318, 2577.542
924.2139, 2581.741
924.6960, 2580.886
925.1782, 2578.584
925.6603, 2579.066
926.1424, 2581.895
926.6245, 2585.969
927.1066, 2591.277
927.5887, 2597.315
928.0709, 2604.880
928.5530, 2612.474
929.0351, 2616.813
929.5172, 2617.734
929.9993, 2619.726
930.4814, 2623.816
930.9636, 2628.480
931.4457, 2631.543
931.9278, 2634.286
932.4099, 2638.492
932.8920, 2644.744
933.3741, 2651.818
933.8563, 2661.440
934.3384, 2669.865
934.8205, 2673.521
935.3026, 2672.074
935.7847, 2675.184
936.2668, 2682.976
936.7490, 2693.119
937.2311, 2705.212
937.7132, 2717.883
938.1953, 2729.670
938.6774, 2740.491
939.1595, 2749.503
939.6417, 2752.702
940.1238, 2758.658
940.6059, 2770.341
941.0880, 2785.843
941.5701, 2799.567
942.0522, 2811.590
942.5344, 2824.855
943.0165, 2840.487
943.4986, 2857.869
943.9807, 2876.418
944.4628, 2896.324
944.9449, 2917.816
945.4271, 2942.083
945.9092, 2966.505
946.3913, 2989.684
946.8734, 3014.584
947.3555, 3043.802
947.8376, 3077.157
948.3198, 3113.915
948.8019, 3153.869
949.2840, 3198.321
949.7661, 3248.362
950.2482, 3302.786
950.7303, 3359.540
951.2125, 3418.591
951.6946, 3485.155
952.1767, 3561.262
952.6588, 3641.715
953.1409, 3724.347
953.6230, 3810.137
954.1052, 3904.829
954.5873, 4008.120
955.0695, 4118.131
955.5516, 4233.694
956.0337, 4356.718
956.5158, 4487.504
956.9979, 4625.558
957.4800, 4771.727
957.9622, 4926.162
958.4443, 5087.377
958.9264, 5253.964
959.4085, 5430.581
959.8906, 5628.071
960.3727, 5842.904
960.8549, 6056.062
961.3370, 6267.277
961.8191, 6486.514
962.3012, 6729.378
962.7833, 6978.940
963.2654, 7222.936
963.7476, 7461.829
964.2297, 7696.288
964.7118, 7927.914
965.1939, 8136.706
965.6760, 8317.293
966.1581, 8465.322
966.6403, 8574.502
967.1224, 8645.820
967.6045, 8685.201
968.0866, 8705.749
968.5687, 8681.746
969.0508, 8591.105
969.5330, 8454.968
970.0151, 8299.607
970.4972, 8124.889
970.9793, 7935.114
971.4614, 7729.330
971.9435, 7518.648
972.4257, 7312.967
972.9078, 7111.714
973.3899, 6908.427
973.8720, 6702.814
974.3541, 6511.526
974.8362, 6342.156
975.3184, 6184.099
975.8005, 6034.144
976.2826, 5891.087
976.7647, 5759.642
977.2468, 5640.265
977.7289, 5531.144
978.2111, 5433.858
978.6932, 5345.432
979.1753, 5265.556
979.6574, 5191.688
980.1395, 5118.938
980.6216, 5042.420
981.1038, 4972.736
981.5859, 4911.286
982.0680, 4855.958
982.5501, 4806.094
983.0322, 4761.070
983.5143, 4717.180
983.9965, 4673.743
984.4786, 4635.537
984.9607, 4608.971
985.4428, 4586.773
985.9249, 4562.834
986.4070, 4536.733
986.8892, 4515.780
987.3713, 4501.611
987.8534, 4488.275
988.3355, 4472.749
988.8176, 4457.369
989.2997, 4448.633
989.7819, 4444.603
990.2640, 4439.358
990.7461, 4426.599
991.2282, 4418.294
991.7103, 4420.498
992.1924, 4429.397
992.6746, 4440.526
993.1567, 4454.212
993.6388, 4468.934
994.1209, 4484.750
994.6030, 4501.608
995.0851, 4519.071
995.5673, 4537.834
996.0494, 4557.809
996.5315, 4579.415
997.0136, 4605.864
997.4957, 4640.741
997.9778, 4678.303
998.4600, 4715.525
998.9421, 4758.841
999.4242, 4799.620
999.9063, 4851.041
1000.388, 4903.454
1000.871, 4955.686
1001.353, 5007.613
1001.835, 5057.313
1002.317, 5107.436
1002.799, 5161.860
1003.281, 5223.253
1003.763, 5284.592
1004.245, 5346.870
1004.728, 5407.967
1005.210, 5465.538
1005.692, 5521.440
1006.174, 5583.672
1006.656, 5651.261
1007.138, 5715.970
1007.620, 5774.279
1008.102, 5828.695
1008.584, 5880.270
1009.067, 5929.545
1009.549, 5977.681
1010.031, 6026.065
1010.513, 6067.105
1010.995, 6099.326
1011.477, 6123.111
1011.959, 6137.523
1012.441, 6143.808
1012.924, 6144.192
1013.406, 6139.886
1013.888, 6125.057
1014.370, 6098.046
1014.852, 6062.250
1015.334, 6018.708
1015.816, 5967.542
1016.298, 5908.491
1016.780, 5842.009
1017.263, 5767.614
1017.745, 5680.151
1018.227, 5589.956
1018.709, 5505.032
1019.191, 5422.471
1019.673, 5335.880
1020.155, 5241.935
1020.637, 5152.819
1021.120, 5069.660
1021.602, 4989.243
1022.084, 4905.767
1022.566, 4823.344
1023.048, 4750.884
1023.530, 4689.191
1024.012, 4628.384
1024.494, 4560.268
1024.976, 4498.150
1025.458, 4448.176
1025.941, 4407.844
1026.423, 4368.606
1026.905, 4330.279
1027.387, 4292.349
1027.869, 4254.379
1028.351, 4218.081
1028.833, 4186.249
1029.316, 4156.657
1029.798, 4125.833
1030.280, 4091.225
1030.762, 4060.316
1031.244, 4034.546
1031.726, 4009.298
1032.208, 3981.180
1032.690, 3950.572
1033.172, 3917.329
1033.655, 3882.378
1034.137, 3850.913
1034.619, 3831.381
1035.101, 3809.501
1035.583, 3780.485
1036.065, 3745.951
1036.547, 3706.843
1037.029, 3663.176
1037.511, 3624.966
1037.994, 3594.881
1038.476, 3566.341
1038.958, 3533.017
1039.440, 3498.540
1039.922, 3467.782
1040.404, 3441.612
1040.886, 3413.802
1041.368, 3382.249
1041.851, 3352.656
1042.333, 3328.026
1042.815, 3305.973
1043.297, 3279.628
1043.779, 3250.464
1044.261, 3223.921
1044.743, 3202.591
1045.225, 3183.405
1045.708, 3167.683
1046.190, 3152.031
1046.672, 3132.407
1047.154, 3107.990
1047.636, 3088.132
1048.118, 3072.920
1048.600, 3060.620
1049.082, 3051.591
1049.564, 3043.338
1050.047, 3034.320
1050.529, 3024.086
1051.011, 3011.046
1051.493, 2991.623
1051.975, 2977.464
1052.457, 2972.285
1052.939, 2969.879
1053.421, 2960.132
1053.903, 2945.816
1054.386, 2932.817
1054.868, 2922.310
1055.350, 2912.919
1055.832, 2905.421
1056.314, 2897.531
1056.796, 2887.645
1057.278, 2876.184
1057.760, 2867.000
1058.243, 2859.985
1058.725, 2853.126
1059.207, 2844.949
1059.689, 2837.529
1060.171, 2833.639
1060.653, 2831.218
1061.135, 2827.077
1061.617, 2818.845
1062.099, 2813.591
1062.582, 2811.570
1063.064, 2811.634
1063.546, 2816.144
1064.028, 2820.711
1064.510, 2813.891
1064.992, 2797.840
1065.474, 2785.146
1065.956, 2782.211
1066.438, 2781.797
1066.921, 2783.576
1067.403, 2785.278
1067.885, 2782.052
1068.367, 2774.582
1068.849, 2769.290
1069.331, 2767.079
1069.813, 2766.890
1070.295, 2769.788
1070.778, 2772.881
1071.260, 2773.606
1071.742, 2772.081
1072.224, 2771.198
1072.706, 2771.042
1073.188, 2770.970
1073.670, 2770.598
1074.152, 2770.475
1074.635, 2770.920
1075.117, 2772.274
1075.599, 2775.465
1076.081, 2782.832
1076.563, 2786.542
1077.045, 2784.717
1077.527, 2781.700
1078.009, 2780.464
1078.491, 2780.481
1078.974, 2779.392
1079.456, 2777.517
1079.938, 2776.494
1080.420, 2778.316
1080.902, 2779.744
1081.384, 2778.603
1081.866, 2776.894
1082.348, 2777.540
1082.831, 2780.716
1083.313, 2781.822
1083.795, 2780.425
1084.277, 2778.300
1084.759, 2777.660
1085.241, 2776.364
1085.723, 2770.871
1086.205, 2762.221
1086.688, 2760.010
1087.170, 2767.480
1087.652, 2770.739
1088.134, 2765.344
1088.616, 2757.379
1089.098, 2756.076
1089.580, 2758.179
1090.062, 2758.010
1090.544, 2753.839
1091.026, 2751.352
1091.509, 2753.540
1091.991, 2754.666
1092.473, 2751.424
1092.955, 2745.489
1093.437, 2743.130
1093.919, 2743.610
1094.401, 2743.904
1094.883, 2742.796
1095.366, 2741.272
1095.848, 2738.629
1096.330, 2736.628
1096.812, 2737.145
1097.294, 2740.502
1097.776, 2742.836
1098.258, 2744.107
1098.740, 2745.579
1099.223, 2748.660
1099.705, 2751.769
1100.187, 2753.497
1100.669, 2754.173
1101.151, 2754.866
1101.633, 2756.212
1102.115, 2755.373
1102.597, 2751.497
1103.079, 2747.795
1103.562, 2748.794
1104.044, 2751.631
1104.526, 2752.148
1105.008, 2750.182
1105.490, 2747.886
1105.972, 2745.323
1106.454, 2743.439
1106.936, 2742.714
1107.418, 2742.560
1107.901, 2741.501
1108.383, 2740.116
1108.865, 2740.180
1109.347, 2742.258
1109.829, 2744.503
1110.311, 2746.829
1110.793, 2748.274
1111.275, 2748.321
1111.758, 2747.073
1112.240, 2744.599
1112.722, 2741.123
1113.204, 2739.183
1113.686, 2739.597
1114.168, 2742.008
1114.650, 2749.046
1115.132, 2756.091
1115.615, 2757.818
1116.097, 2753.149
1116.579, 2749.915
1117.061, 2748.216
1117.543, 2747.191
1118.025, 2745.688
1118.507, 2745.122
1118.989, 2748.604
1119.471, 2753.913
1119.953, 2755.828
1120.436, 2751.864
1120.918, 2748.466
1121.400, 2745.679
1121.882, 2744.373
1122.364, 2747.178
1122.846, 2751.133
1123.328, 2750.551
1123.810, 2745.963
1124.293, 2742.143
1124.775, 2740.735
1125.257, 2739.874
1125.739, 2738.746
1126.221, 2738.871
1126.703, 2744.459
1127.185, 2753.099
1127.667, 2756.934
1128.150, 2754.895
1128.632, 2752.458
1129.114, 2751.141
1129.596, 2751.357
1130.078, 2753.736
1130.560, 2757.389
1131.042, 2758.856
1131.524, 2758.727
1132.006, 2761.534
1132.489, 2769.361
1132.971, 2776.258
1133.453, 2775.516
1133.935, 2774.415
1134.417, 2779.246
1134.899, 2789.657
1135.381, 2796.385
1135.863, 2799.477
1136.346, 2803.046
1136.828, 2809.072
1137.310, 2815.671
1137.792, 2821.558
1138.274, 2826.761
1138.756, 2831.302
1139.238, 2835.323
1139.720, 2838.274
1140.203, 2839.941
1140.685, 2842.217
1141.167, 2846.831
1141.649, 2852.387
1142.131, 2858.171
1142.613, 2863.411
1143.095, 2866.557
1143.577, 2865.975
1144.059, 2865.934
1144.542, 2866.663
1145.024, 2867.627
1145.506, 2868.920
1145.988, 2869.775
1146.470, 2868.772
1146.952, 2866.054
1147.434, 2862.565
1147.916, 2857.168
1148.398, 2853.296
1148.881, 2852.602
1149.363, 2851.301
1149.845, 2843.140
1150.327, 2830.976
1150.809, 2821.370
1151.291, 2814.992
1151.773, 2811.112
1152.255, 2811.308
1152.738, 2811.873
1153.220, 2812.184
1153.702, 2811.789
1154.184, 2809.256
1154.666, 2805.177
1155.148, 2802.456
1155.630, 2801.798
1156.112, 2799.185
1156.594, 2788.751
1157.077, 2779.698
1157.559, 2777.151
1158.041, 2779.012
1158.523, 2777.680
1159.005, 2773.592
1159.487, 2770.194
1159.969, 2768.429
1160.451, 2767.509
1160.933, 2768.166
1161.416, 2768.401
1161.898, 2766.188
1162.380, 2762.005
1162.862, 2760.927
1163.344, 2762.879
1163.826, 2765.055
1164.308, 2766.981
1164.790, 2767.492
1165.273, 2763.954
1165.755, 2759.602
1166.237, 2758.095
1166.719, 2759.815
1167.201, 2760.368
1167.683, 2759.629
1168.165, 2759.340
1168.647, 2761.335
1169.130, 2763.004
1169.612, 2760.892
1170.094, 2757.248
1170.576, 2755.594
1171.058, 2756.470
1171.540, 2758.292
1172.022, 2761.301
1172.504, 2763.497
1172.986, 2762.235
1173.469, 2760.523
1173.951, 2762.259
1174.433, 2766.091
1174.915, 2768.722
1175.397, 2770.071
1175.879, 2769.567
1176.361, 2766.878
1176.843, 2763.792
1177.326, 2760.441
1177.808, 2758.542
1178.290, 2762.104
1178.772, 2769.292
1179.254, 2772.363
1179.736, 2767.757
1180.218, 2765.687
1180.700, 2767.608
1181.182, 2770.848
1181.665, 2773.447
1182.147, 2775.023
1182.629, 2774.510
1183.111, 2772.192
1183.593, 2770.121
1184.075, 2768.607
1184.557, 2767.554
1185.039, 2766.969
1185.521, 2766.871
1186.004, 2767.566
1186.486, 2768.643
1186.968, 2769.464
1187.450, 2769.955
1187.932, 2770.310
1188.414, 2771.231
1188.896, 2770.455
1189.378, 2766.694
1189.861, 2762.417
1190.343, 2761.370
1190.825, 2762.808
1191.307, 2765.865
1191.789, 2770.531
1192.271, 2774.752
1192.753, 2779.098
1193.235, 2781.007
1193.718, 2778.738
1194.200, 2775.098
1194.682, 2776.105
1195.164, 2779.554
1195.646, 2780.551
1196.128, 2777.474
1196.610, 2776.098
1197.092, 2779.030
1197.574, 2781.359
1198.057, 2780.887
1198.539, 2778.933
1199.021, 2778.003
1199.503, 2778.007
1199.985, 2778.898
1200.467, 2780.980
1200.949, 2782.745
1201.431, 2783.802
1201.913, 2784.719
1202.396, 2785.817
1202.878, 2786.930
1203.360, 2787.193
1203.842, 2787.184
1204.324, 2788.607
1204.806, 2793.292
1205.288, 2795.769
1205.770, 2793.820
1206.253, 2791.855
1206.735, 2792.765
1207.217, 2795.257
1207.699, 2795.942
1208.181, 2795.083
1208.663, 2793.226
1209.145, 2788.535
1209.627, 2787.204
1210.109, 2791.585
1210.592, 2796.459
1211.074, 2797.821
1211.556, 2797.162
1212.038, 2799.223
1212.520, 2803.118
1213.002, 2806.261
1213.484, 2807.666
1213.966, 2808.333
1214.448, 2808.563
1214.931, 2807.967
1215.413, 2805.018
1215.895, 2801.367
1216.377, 2803.044
1216.859, 2808.156
1217.341, 2810.671
1217.823, 2804.853
1218.305, 2801.631
1218.788, 2803.021
1219.270, 2805.242
1219.752, 2804.521
1220.234, 2802.356
1220.716, 2802.721
1221.198, 2805.052
1221.680, 2807.188
1222.162, 2808.326
1222.645, 2809.340
1223.127, 2810.700
1223.609, 2811.170
1224.091, 2808.299
1224.573, 2804.242
1225.055, 2804.224
1225.537, 2807.391
1226.019, 2809.853
1226.501, 2809.348
1226.984, 2809.596
1227.466, 2811.042
1227.948, 2812.885
1228.430, 2814.892
1228.912, 2816.425
1229.394, 2815.153
1229.876, 2812.083
1230.358, 2811.836
1230.841, 2817.932
1231.323, 2822.419
1231.805, 2824.730
1232.287, 2824.751
1232.769, 2820.636
1233.251, 2815.132
1233.733, 2812.692
1234.215, 2812.999
1234.698, 2813.747
1235.180, 2814.927
1235.662, 2815.487
1236.144, 2814.977
1236.626, 2815.278
1237.108, 2819.889
1237.590, 2825.420
1238.072, 2826.884
1238.554, 2829.411
1239.036, 2831.362
1239.519, 2830.227
1240.001, 2832.273
1240.483, 2830.449
1240.965, 2828.108
1241.447, 2829.204
1241.929, 2831.115
1242.411, 2830.207
1242.893, 2832.026
1243.376, 2827.962
1243.858, 2833.404
1244.340, 2836.366
1244.822, 2835.722
1245.304, 2833.590
1245.786, 2829.054
1246.268, 2826.394
1246.750, 2831.831
1247.233, 2842.874
1247.715, 2847.781
1248.197, 2845.730
1248.679, 2845.086
1249.161, 2847.139
1249.643, 2849.229
1250.125, 2848.677
1250.607, 2847.594
1251.089, 2847.828
1251.572, 2848.729
1252.054, 2847.937
1252.536, 2845.426
1253.018, 2845.438
1253.500, 2848.661
1253.982, 2852.050
1254.464, 2853.000
1254.946, 2853.747
1255.428, 2856.071
1255.911, 2858.905
1256.393, 2860.017
1256.875, 2859.512
1257.357, 2857.735
1257.839, 2854.719
1258.321, 2853.616
1258.803, 2859.962
1259.285, 2864.315
1259.768, 2861.695
1260.250, 2856.062
1260.732, 2855.586
1261.214, 2858.789
1261.696, 2858.793
1262.178, 2854.816
1262.660, 2852.768
1263.142, 2856.667
1263.625, 2861.457
1264.107, 2866.073
1264.589, 2870.102
1265.071, 2872.079
1265.553, 2873.165
1266.035, 2876.907
1266.517, 2883.448
1266.999, 2888.188
1267.481, 2887.980
1267.964, 2888.745
1268.446, 2892.281
1268.928, 2895.794
1269.410, 2895.083
1269.892, 2891.817
1270.374, 2888.217
1270.856, 2884.620
1271.338, 2881.501
1271.820, 2878.427
1272.303, 2877.474
1272.785, 2879.582
1273.267, 2881.827
1273.749, 2878.828
1274.231, 2875.383
1274.713, 2878.640
1275.195, 2887.481
1275.677, 2890.480
1276.160, 2885.815
1276.642, 2884.093
1277.124, 2887.303
1277.606, 2891.794
1278.088, 2896.134
1278.570, 2898.511
1279.052, 2895.785
1279.534, 2890.034
1280.016, 2887.792
1280.499, 2889.179
1280.981, 2890.546
1281.463, 2891.457
1281.945, 2891.477
1282.427, 2889.148
1282.909, 2887.067
1283.391, 2886.700
1283.873, 2887.518
1284.356, 2888.858
1284.838, 2890.609
1285.320, 2891.903
1285.802, 2892.688
1286.284, 2894.313
1286.766, 2899.864
1287.248, 2902.960
1287.730, 2900.598
1288.213, 2896.690
1288.695, 2897.192
1289.177, 2900.591
1289.659, 2903.227
1290.141, 2904.753
1290.623, 2905.201
1291.105, 2903.899
1291.587, 2902.361
1292.069, 2900.424
1292.552, 2899.335
1293.034, 2902.168
1293.516, 2905.757
1293.998, 2904.121
1294.480, 2898.417
1294.962, 2896.464
1295.444, 2899.594
1295.926, 2904.235
1296.408, 2910.441
1296.891, 2915.291
1297.373, 2914.798
1297.855, 2912.677
1298.337, 2913.130
1298.819, 2914.971
1299.301, 2913.261
1299.783, 2907.364
1300.265, 2905.334
1300.748, 2907.826
1301.230, 2911.380
1301.712, 2915.434
1302.194, 2918.107
1302.676, 2919.106
##END=



