##NAMES=Eosphorite
##RRUFFID=R050557
##IDEAL CHEMISTRY=Mn^2+^AlPO_4_(OH)_2_&#183;H_2_O
##LOCALITY=Minas Gerais, Brazil
##OWNER=RRUFF
##SOURCE=Dave Bunk Minerals
##DESCRIPTION=A radial group of light brown bladed crystals
##STATUS=The identification of this mineral has been confirmed by X-ray diffraction and chemical analysis
##URL=rruff.info/R050557
##MEASURED CHEMISTRY=(Mn^2+^_0.46_Fe^2+^_0.32_Ca_0.16_Mg_0.06_)_Σ=1_Al_1.00_(P_1.00_O_4_)(OH)_2_·H_2_O
91.11523, 39.20316
91.59735, 37.58681
92.07947, 38.53790
92.56158, 41.46777
93.04370, 44.53746
93.52582, 47.48723
94.00793, 49.79107
94.49006, 49.62129
94.97218, 45.97163
95.45429, 41.68710
95.93641, 42.08034
96.41853, 47.03029
96.90064, 51.57760
97.38276, 51.41471
97.86488, 47.03760
98.34699, 44.08576
98.82911, 43.93460
99.31123, 45.56009
99.79334, 45.47063
100.2755, 43.35473
100.7576, 40.60469
101.2397, 38.25248
101.7218, 36.17844
102.2039, 35.02687
102.6861, 35.19067
103.1682, 36.65426
103.6503, 37.58488
104.1324, 37.76831
104.6145, 37.66521
105.0966, 37.79057
105.5788, 38.06593
106.0609, 38.70203
106.5430, 39.67762
107.0251, 40.86706
107.5072, 42.94225
107.9893, 46.90611
108.4715, 51.52209
108.9536, 54.59853
109.4357, 55.80721
109.9178, 55.78149
110.3999, 54.53056
110.8820, 50.40306
111.3642, 47.78441
111.8463, 47.31435
112.3284, 48.51348
112.8105, 50.01906
113.2926, 51.55447
113.7747, 53.45094
114.2569, 55.86719
114.7390, 59.23222
115.2211, 62.67126
115.7032, 65.65921
116.1853, 68.39896
116.6674, 71.90430
117.1496, 76.48849
117.6317, 82.05010
118.1138, 88.45043
118.5959, 96.81292
119.0780, 105.0774
119.5602, 111.4073
120.0423, 116.0276
120.5244, 122.2757
121.0065, 134.1924
121.4886, 148.4099
121.9707, 160.5346
122.4529, 166.5711
122.9350, 170.9481
123.4171, 177.3526
123.8992, 186.0489
124.3813, 195.3770
124.8634, 204.5110
125.3456, 213.2952
125.8277, 221.4093
126.3098, 227.9744
126.7919, 233.9102
127.2740, 240.7065
127.7561, 248.6797
128.2383, 256.7115
128.7204, 262.1678
129.2025, 265.8412
129.6846, 271.8928
130.1667, 285.1702
130.6488, 302.9701
131.1310, 317.4072
131.6131, 326.7439
132.0952, 333.8078
132.5773, 343.4749
133.0594, 355.8247
133.5415, 369.1735
134.0237, 382.6710
134.5058, 396.3760
134.9879, 410.2302
135.4700, 424.5447
135.9521, 438.9067
136.4343, 452.3299
136.9164, 464.6982
137.3985, 476.7760
137.8806, 490.0098
138.3627, 505.0305
138.8448, 517.2701
139.3270, 525.5243
139.8091, 530.2246
140.2912, 535.0381
140.7733, 539.9514
141.2554, 545.0793
141.7375, 550.4183
142.2197, 555.9034
142.7018, 561.9301
143.1839, 568.6426
143.6660, 576.0373
144.1481, 583.6160
144.6302, 590.7739
145.1124, 598.5766
145.5945, 608.4513
146.0766, 622.5051
146.5587, 635.5456
147.0408, 645.5783
147.5230, 650.9319
148.0051, 659.4732
148.4872, 670.3793
148.9693, 679.7424
149.4514, 686.9376
149.9335, 689.3948
150.4157, 692.5524
150.8978, 698.0842
151.3799, 707.9818
151.8620, 716.2224
152.3441, 721.6589
152.8262, 725.6657
153.3084, 730.6876
153.7905, 739.7659
154.2726, 747.4559
154.7547, 751.5270
155.2368, 748.0516
155.7189, 747.1979
156.2011, 752.2731
156.6832, 760.9058
157.1653, 767.1478
157.6474, 767.4633
158.1295, 766.8206
158.6116, 767.6580
159.0938, 770.3909
159.5759, 774.5228
160.0580, 780.6243
160.5401, 788.1721
161.0222, 795.4078
161.5044, 800.9406
161.9865, 806.4186
162.4686, 812.9803
162.9507, 821.6833
163.4328, 830.6132
163.9149, 838.5733
164.3971, 845.9839
164.8792, 854.5832
165.3613, 866.3392
165.8434, 879.1596
166.3255, 891.1751
166.8076, 900.5015
167.2898, 909.8635
167.7719, 921.2901
168.2540, 934.5374
168.7361, 947.4171
169.2182, 959.8014
169.7003, 970.7952
170.1825, 979.3214
170.6646, 984.0487
171.1467, 986.8135
171.6288, 989.1710
172.1109, 991.0739
172.5931, 991.7562
173.0752, 990.2701
173.5573, 987.2309
174.0394, 983.6218
174.5215, 979.1453
175.0036, 974.6481
175.4858, 971.1553
175.9679, 968.6483
176.4500, 966.7189
176.9321, 965.6635
177.4142, 964.9332
177.8963, 963.3033
178.3785, 959.6647
178.8606, 954.9646
179.3427, 950.3421
179.8248, 945.6727
180.3069, 942.1083
180.7890, 941.1517
181.2712, 942.3658
181.7533, 944.4171
182.2354, 947.3570
182.7175, 950.6144
183.1996, 952.6243
183.6818, 953.1728
184.1639, 953.5378
184.6460, 955.1901
185.1281, 957.9863
185.6102, 961.2914
186.0923, 965.1848
186.5745, 969.3860
187.0566, 972.7348
187.5387, 975.0967
188.0208, 977.1117
188.5029, 979.6910
188.9850, 982.8065
189.4672, 986.1337
189.9493, 989.5742
190.4314, 993.1135
190.9135, 996.7352
191.3956, 1000.343
191.8777, 1004.256
192.3599, 1009.170
192.8420, 1015.067
193.3241, 1021.404
193.8062, 1028.594
194.2883, 1036.455
194.7704, 1041.662
195.2526, 1043.126
195.7347, 1043.559
196.2168, 1048.302
196.6989, 1057.631
197.1810, 1067.607
197.6632, 1076.455
198.1453, 1084.241
198.6274, 1090.475
199.1095, 1094.576
199.5916, 1097.908
200.0737, 1103.357
200.5559, 1111.197
201.0380, 1119.580
201.5201, 1127.691
202.0022, 1135.637
202.4843, 1143.069
202.9664, 1149.973
203.4486, 1156.410
203.9307, 1162.645
204.4128, 1168.786
204.8949, 1174.144
205.3770, 1178.414
205.8591, 1181.626
206.3413, 1183.532
206.8234, 1184.059
207.3055, 1183.293
207.7876, 1181.309
208.2697, 1177.874
208.7519, 1173.871
209.2340, 1169.563
209.7161, 1164.781
210.1982, 1160.454
210.6803, 1156.681
211.1624, 1153.357
211.6446, 1150.033
212.1267, 1146.379
212.6088, 1143.634
213.0909, 1142.880
213.5730, 1145.030
214.0551, 1145.587
214.5373, 1143.676
215.0194, 1140.352
215.5015, 1138.646
215.9836, 1139.088
216.4657, 1140.097
216.9478, 1140.821
217.4300, 1140.999
217.9121, 1141.839
218.3942, 1143.914
218.8763, 1146.461
219.3584, 1147.010
219.8405, 1144.508
220.3227, 1141.858
220.8048, 1140.540
221.2869, 1140.958
221.7690, 1141.377
222.2511, 1141.335
222.7333, 1141.371
223.2154, 1143.317
223.6975, 1148.405
224.1796, 1153.389
224.6617, 1156.463
225.1438, 1156.393
225.6260, 1157.779
226.1081, 1161.066
226.5902, 1165.826
227.0723, 1171.142
227.5544, 1178.905
228.0365, 1184.368
228.5187, 1184.815
229.0008, 1177.537
229.4829, 1171.916
229.9650, 1168.692
230.4471, 1166.944
230.9292, 1164.134
231.4114, 1159.408
231.8935, 1154.782
232.3756, 1151.350
232.8577, 1150.076
233.3398, 1147.360
233.8220, 1142.235
234.3041, 1135.951
234.7862, 1131.870
235.2683, 1131.291
235.7504, 1130.932
236.2325, 1129.380
236.7147, 1126.073
237.1968, 1123.130
237.6789, 1120.395
238.1610, 1118.144
238.6431, 1117.044
239.1252, 1117.691
239.6074, 1118.628
240.0895, 1119.359
240.5716, 1119.894
241.0537, 1120.113
241.5358, 1119.414
242.0179, 1118.680
242.5001, 1119.936
242.9822, 1124.924
243.4643, 1128.994
243.9464, 1130.050
244.4285, 1126.505
244.9106, 1125.194
245.3928, 1127.214
245.8749, 1130.744
246.3570, 1132.563
246.8391, 1131.791
247.3212, 1130.765
247.8034, 1130.207
248.2855, 1130.214
248.7676, 1130.309
249.2497, 1130.564
249.7318, 1130.882
250.2139, 1131.182
250.6961, 1131.766
251.1782, 1131.817
251.6603, 1130.888
252.1424, 1128.684
252.6245, 1127.462
253.1066, 1127.822
253.5888, 1128.640
254.0709, 1128.264
254.5530, 1125.738
255.0351, 1124.047
255.5172, 1124.712
255.9993, 1128.264
256.4815, 1128.208
256.9636, 1123.102
257.4457, 1115.930
257.9278, 1110.068
258.4099, 1106.152
258.8921, 1102.056
259.3742, 1097.223
259.8563, 1091.686
260.3384, 1086.133
260.8205, 1080.886
261.3026, 1075.278
261.7848, 1068.511
262.2669, 1060.386
262.7490, 1051.799
263.2311, 1042.962
263.7132, 1033.845
264.1953, 1024.396
264.6775, 1014.349
265.1596, 1004.502
265.6417, 995.7314
266.1238, 988.5150
266.6059, 980.7888
267.0880, 972.1902
267.5702, 962.7756
268.0523, 953.3007
268.5344, 943.2432
269.0165, 933.9698
269.4986, 926.6517
269.9807, 921.6838
270.4629, 916.5825
270.9450, 910.8893
271.4271, 904.8405
271.9092, 899.5443
272.3913, 894.9990
272.8734, 891.2006
273.3556, 888.1239
273.8377, 885.7478
274.3198, 884.3260
274.8019, 884.1883
275.2840, 884.7762
275.7661, 884.4365
276.2483, 882.9499
276.7304, 881.4445
277.2125, 880.3688
277.6946, 879.6662
278.1768, 880.2467
278.6589, 882.4314
279.1410, 885.5841
279.6231, 888.5832
280.1052, 891.5059
280.5873, 893.9865
281.0695, 895.5452
281.5516, 896.2114
282.0337, 897.4882
282.5158, 899.4466
282.9979, 901.9554
283.4800, 904.8317
283.9622, 908.0695
284.4443, 911.6492
284.9264, 915.8651
285.4085, 920.5375
285.8906, 924.5471
286.3727, 927.9238
286.8549, 930.4821
287.3370, 931.4481
287.8191, 930.9184
288.3012, 930.9942
288.7833, 932.3176
289.2654, 934.8359
289.7476, 938.9618
290.2297, 944.9333
290.7118, 950.7126
291.1939, 954.1036
291.6760, 955.3372
292.1581, 955.8162
292.6403, 955.3051
293.1224, 954.6953
293.6045, 956.6880
294.0866, 961.2924
294.5687, 965.6869
295.0508, 966.8758
295.5330, 965.7311
296.0151, 965.2835
296.4972, 966.4611
296.9793, 968.4236
297.4614, 969.7161
297.9435, 970.4196
298.4257, 971.1140
298.9078, 972.3004
299.3899, 973.7728
299.8720, 975.2249
300.3541, 976.8988
300.8362, 977.9103
301.3184, 976.4365
301.8005, 973.0710
302.2826, 970.3185
302.7647, 970.5294
303.2469, 971.9968
303.7290, 972.1413
304.2111, 970.4741
304.6932, 968.1533
305.1753, 966.2012
305.6574, 964.4632
306.1396, 962.6566
306.6217, 960.5643
307.1038, 958.3391
307.5859, 956.3017
308.0680, 954.5124
308.5501, 952.2394
309.0323, 948.6150
309.5144, 944.1852
309.9965, 939.8380
310.4786, 936.4780
310.9607, 932.9056
311.4428, 928.0026
311.9250, 921.8223
312.4071, 915.5491
312.8892, 909.6368
313.3713, 904.2374
313.8534, 899.4778
314.3355, 896.1828
314.8177, 892.8845
315.2998, 888.9376
315.7819, 884.3939
316.2640, 879.4006
316.7461, 873.3140
317.2282, 867.2458
317.7104, 862.0417
318.1925, 858.6080
318.6746, 854.9792
319.1567, 850.2464
319.6388, 844.7572
320.1209, 839.5693
320.6031, 834.8674
321.0852, 830.6557
321.5673, 826.9775
322.0494, 824.1210
322.5315, 821.1552
323.0136, 817.6497
323.4958, 813.9686
323.9779, 810.7004
324.4600, 807.6151
324.9421, 805.2652
325.4242, 804.1484
325.9064, 804.6896
326.3885, 804.6215
326.8706, 803.5226
327.3527, 801.8392
327.8348, 800.0284
328.3170, 797.5852
328.7991, 795.5521
329.2812, 793.7600
329.7633, 792.1525
330.2454, 792.3475
330.7275, 795.8478
331.2097, 799.9022
331.6918, 802.6425
332.1739, 804.0869
332.6560, 804.0553
333.1381, 801.9030
333.6202, 798.1341
334.1024, 795.1524
334.5845, 792.7430
335.0666, 791.4660
335.5487, 791.8953
336.0308, 794.8971
336.5129, 797.0964
336.9951, 798.3209
337.4772, 798.7998
337.9593, 798.9150
338.4414, 798.4902
338.9235, 798.3030
339.4056, 798.8571
339.8878, 800.2624
340.3699, 800.9150
340.8520, 800.5367
341.3341, 799.9644
341.8162, 800.2999
342.2983, 801.5945
342.7805, 803.1650
343.2626, 804.7866
343.7447, 806.4933
344.2268, 808.8064
344.7089, 811.9673
345.1910, 814.2953
345.6732, 813.2299
346.1553, 809.3041
346.6374, 807.1902
347.1195, 808.2546
347.6016, 811.1113
348.0837, 813.1645
348.5659, 814.4607
349.0480, 815.3775
349.5301, 815.9860
350.0122, 816.4366
350.4944, 817.2064
350.9765, 818.5195
351.4586, 819.6580
351.9407, 819.2864
352.4228, 817.8829
352.9049, 817.0107
353.3871, 818.2590
353.8692, 820.1599
354.3513, 820.2864
354.8334, 818.4039
355.3155, 817.1621
355.7976, 819.5228
356.2798, 823.7677
356.7619, 827.1661
357.2440, 828.1914
357.7261, 828.2941
358.2082, 827.8904
358.6903, 827.1633
359.1725, 827.4405
359.6546, 830.7612
360.1367, 834.7412
360.6188, 837.1549
361.1009, 836.4470
361.5830, 835.6662
362.0652, 835.9677
362.5473, 837.1683
363.0294, 838.8126
363.5115, 842.0999
363.9936, 844.7696
364.4757, 845.2270
364.9579, 842.2518
365.4400, 840.5847
365.9221, 841.8453
366.4042, 844.7344
366.8863, 847.6027
367.3684, 850.6061
367.8506, 853.2100
368.3327, 855.2313
368.8148, 856.6210
369.2969, 857.8782
369.7790, 857.5751
370.2611, 858.1594
370.7433, 861.5418
371.2254, 870.7964
371.7075, 877.8709
372.1896, 881.1873
372.6717, 881.7654
373.1538, 883.8000
373.6360, 887.7621
374.1181, 892.3760
374.6002, 897.0355
375.0823, 901.7492
375.5645, 906.4567
376.0466, 910.8101
376.5287, 915.4725
377.0108, 921.8965
377.4929, 930.4160
377.9750, 938.5408
378.4572, 945.0076
378.9393, 950.1230
379.4214, 956.6348
379.9035, 964.6787
380.3856, 973.3541
380.8677, 981.8237
381.3499, 990.0859
381.8320, 997.8662
382.3141, 1004.572
382.7962, 1011.432
383.2783, 1021.920
383.7604, 1035.785
384.2426, 1049.598
384.7247, 1061.095
385.2068, 1070.843
385.6889, 1080.702
386.1710, 1090.803
386.6531, 1100.986
387.1353, 1111.017
387.6174, 1121.054
388.0995, 1131.572
388.5816, 1144.283
389.0637, 1156.826
389.5458, 1166.533
390.0280, 1173.518
390.5101, 1180.278
390.9922, 1187.924
391.4743, 1196.456
391.9564, 1206.169
392.4385, 1219.350
392.9207, 1230.939
393.4028, 1237.602
393.8849, 1240.393
394.3670, 1242.458
394.8491, 1244.798
395.3312, 1246.816
395.8134, 1248.176
396.2955, 1248.769
396.7776, 1248.862
397.2597, 1248.788
397.7418, 1248.167
398.2239, 1246.484
398.7061, 1245.730
399.1882, 1241.822
399.6703, 1232.406
400.1524, 1217.170
400.6346, 1204.324
401.1167, 1196.490
401.5988, 1188.920
402.0809, 1178.276
402.5630, 1162.267
403.0451, 1147.648
403.5273, 1135.551
404.0094, 1125.004
404.4915, 1113.401
404.9736, 1100.382
405.4557, 1087.043
405.9378, 1073.391
406.4200, 1059.257
406.9021, 1046.951
407.3842, 1037.026
407.8663, 1027.944
408.3484, 1017.702
408.8305, 1006.238
409.3127, 995.3219
409.7948, 985.8354
410.2769, 977.0513
410.7590, 966.3597
411.2411, 953.7167
411.7232, 942.3291
412.2054, 935.5002
412.6875, 931.7001
413.1696, 926.9414
413.6517, 920.5389
414.1338, 913.2156
414.6159, 904.5472
415.0981, 895.4841
415.5802, 888.7338
416.0623, 887.8740
416.5444, 888.7311
417.0265, 886.9824
417.5086, 882.4877
417.9908, 877.7579
418.4729, 874.4952
418.9550, 871.7978
419.4371, 868.7269
419.9192, 864.1122
420.4013, 860.1212
420.8835, 858.3745
421.3656, 858.0940
421.8477, 856.8925
422.3298, 853.5662
422.8119, 849.5992
423.2940, 845.1839
423.7762, 839.4513
424.2583, 836.1915
424.7404, 838.6932
425.2225, 842.7687
425.7047, 843.6004
426.1868, 837.5500
426.6689, 833.0704
427.1510, 831.9042
427.6331, 833.7563
428.1152, 835.1877
428.5974, 836.2977
429.0795, 836.8566
429.5616, 836.4837
430.0437, 834.7254
430.5258, 834.0311
431.0079, 834.7806
431.4901, 836.2833
431.9722, 837.3275
432.4543, 837.8635
432.9364, 838.3489
433.4185, 838.7878
433.9006, 839.2959
434.3828, 840.6230
434.8649, 842.8403
435.3470, 845.0188
435.8291, 845.7534
436.3112, 845.7022
436.7933, 847.1585
437.2755, 851.0743
437.7576, 855.6233
438.2397, 858.2454
438.7218, 859.4587
439.2039, 860.9718
439.6860, 863.8723
440.1682, 867.4847
440.6503, 870.9208
441.1324, 874.1191
441.6145, 877.8606
442.0966, 883.1377
442.5787, 888.9700
443.0609, 894.2982
443.5430, 898.1843
444.0251, 902.1250
444.5072, 906.4809
444.9893, 911.2575
445.4714, 916.5326
445.9536, 922.7256
446.4357, 929.1309
446.9178, 935.3005
447.3999, 940.7089
447.8820, 947.4113
448.3641, 957.0032
448.8463, 967.0850
449.3284, 974.9960
449.8105, 978.5019
450.2926, 983.9129
450.7747, 993.0402
451.2569, 1005.147
451.7390, 1015.154
452.2211, 1022.388
452.7032, 1029.423
453.1853, 1037.988
453.6674, 1048.276
454.1496, 1057.399
454.6317, 1064.972
455.1138, 1072.169
455.5959, 1080.548
456.0780, 1090.102
456.5602, 1100.144
457.0423, 1111.178
457.5244, 1122.062
458.0065, 1130.431
458.4886, 1136.369
458.9707, 1141.484
459.4529, 1146.324
459.9350, 1151.284
460.4171, 1157.120
460.8992, 1164.520
461.3813, 1171.124
461.8634, 1174.719
462.3456, 1176.381
462.8277, 1177.839
463.3098, 1180.505
463.7919, 1182.537
464.2740, 1182.812
464.7561, 1181.384
465.2383, 1179.533
465.7204, 1178.270
466.2025, 1176.241
466.6846, 1172.514
467.1667, 1165.591
467.6488, 1159.211
468.1310, 1154.241
468.6131, 1149.710
469.0952, 1144.016
469.5773, 1137.467
470.0594, 1129.223
470.5415, 1118.339
471.0237, 1105.005
471.5058, 1093.635
471.9879, 1085.087
472.4700, 1076.564
472.9521, 1065.672
473.4342, 1052.200
473.9164, 1040.107
474.3985, 1029.968
474.8806, 1020.651
475.3627, 1010.381
475.8448, 999.1887
476.3270, 987.2756
476.8091, 974.2382
477.2912, 960.8488
477.7733, 948.7856
478.2554, 938.0003
478.7375, 927.7693
479.2197, 917.3660
479.7018, 907.2027
480.1839, 897.9305
480.6660, 889.7114
481.1481, 882.3651
481.6302, 876.6837
482.1124, 871.6852
482.5945, 865.7066
483.0766, 856.7169
483.5587, 847.8910
484.0408, 841.0657
484.5229, 836.2289
485.0051, 830.5788
485.4872, 822.0560
485.9693, 813.6534
486.4514, 807.2835
486.9335, 804.4570
487.4156, 800.9594
487.8978, 796.2524
488.3799, 791.1857
488.8620, 786.9924
489.3441, 783.9827
489.8262, 781.0317
490.3083, 777.6138
490.7905, 773.9258
491.2726, 771.8939
491.7547, 771.8981
492.2368, 771.6357
492.7189, 769.1007
493.2010, 764.6087
493.6832, 760.4262
494.1653, 756.6248
494.6474, 753.5183
495.1295, 751.9193
495.6116, 751.3688
496.0938, 750.4098
496.5759, 747.8927
497.0580, 745.1578
497.5401, 743.9005
498.0222, 743.8475
498.5044, 743.6747
498.9865, 742.8210
499.4686, 741.4141
499.9507, 739.4776
500.4328, 736.9078
500.9149, 734.2608
501.3971, 731.4412
501.8792, 728.7362
502.3613, 726.4711
502.8434, 725.4039
503.3255, 723.9407
503.8076, 721.2526
504.2898, 717.7928
504.7719, 715.7935
505.2540, 716.2133
505.7361, 716.6769
506.2182, 716.3094
506.7003, 715.1205
507.1825, 712.6600
507.6646, 708.2656
508.1467, 704.0223
508.6288, 702.9066
509.1109, 704.9078
509.5930, 705.3965
510.0752, 703.0441
510.5573, 699.3286
511.0394, 697.0446
511.5215, 696.0010
512.0037, 694.9614
512.4858, 693.0915
512.9679, 690.8821
513.4500, 688.8125
513.9321, 686.9114
514.4142, 685.7070
514.8964, 686.7081
515.3785, 688.0836
515.8606, 687.7284
516.3427, 684.0494
516.8248, 680.5146
517.3069, 678.2600
517.7891, 677.0850
518.2712, 676.6209
518.7533, 677.8990
519.2354, 678.7678
519.7175, 678.7297
520.1996, 677.8038
520.6818, 675.7483
521.1639, 670.8928
521.6460, 666.9650
522.1281, 666.6577
522.6102, 671.4159
523.0923, 674.1444
523.5745, 674.4587
524.0566, 673.1086
524.5387, 670.2299
525.0208, 665.8071
525.5029, 663.8724
525.9850, 666.6088
526.4672, 671.6668
526.9493, 674.1495
527.4314, 674.2338
527.9135, 673.4183
528.3956, 672.1409
528.8777, 670.7501
529.3599, 669.7320
529.8420, 669.1260
530.3241, 668.7731
530.8062, 668.7045
531.2883, 668.7726
531.7704, 668.7891
532.2526, 668.1765
532.7347, 668.2003
533.2168, 669.9036
533.6989, 672.5125
534.1810, 674.2567
534.6631, 674.1137
535.1453, 673.8302
535.6274, 673.6086
536.1095, 673.4196
536.5916, 674.4677
537.0737, 677.3265
537.5558, 680.5584
538.0380, 683.1569
538.5201, 685.0230
539.0022, 687.0184
539.4843, 689.0795
539.9664, 691.4669
540.4485, 694.5136
540.9307, 698.1799
541.4128, 702.3975
541.8949, 707.4783
542.3770, 712.6799
542.8591, 716.7382
543.3412, 719.7680
543.8234, 722.7059
544.3055, 725.6218
544.7876, 728.9951
545.2697, 733.5013
545.7518, 739.2919
546.2339, 744.9221
546.7161, 749.0692
547.1982, 753.0330
547.6803, 758.0889
548.1624, 766.1393
548.6445, 773.1847
549.1266, 777.2664
549.6088, 780.2333
550.0909, 785.8448
550.5730, 795.5831
551.0551, 805.7334
551.5372, 815.5838
552.0193, 825.1132
552.5015, 833.2328
552.9836, 839.4862
553.4657, 845.9640
553.9478, 854.6088
554.4299, 865.0959
554.9120, 874.0381
555.3942, 881.0562
555.8763, 887.0548
556.3584, 893.3403
556.8405, 899.3759
557.3226, 903.8743
557.8047, 906.6821
558.2869, 907.4337
558.7690, 905.2001
559.2511, 900.6310
559.7332, 895.3723
560.2154, 889.8510
560.6975, 884.1241
561.1796, 878.2025
561.6617, 872.0988
562.1439, 865.7269
562.6260, 858.1564
563.1081, 851.0484
563.5902, 845.1923
564.0723, 840.8124
564.5544, 837.1371
565.0366, 833.7360
565.5187, 831.4072
566.0008, 831.5727
566.4829, 834.6693
566.9650, 837.7773
567.4471, 840.1456
567.9293, 842.2357
568.4114, 844.6857
568.8935, 847.5753
569.3756, 852.1196
569.8577, 859.2618
570.3398, 868.4365
570.8220, 878.5527
571.3041, 889.6849
571.7862, 901.4199
572.2683, 915.0460
572.7504, 928.4309
573.2325, 939.1564
573.7147, 945.1590
574.1968, 952.5734
574.6789, 964.4714
575.1610, 978.7656
575.6431, 992.9275
576.1252, 1005.492
576.6074, 1019.016
577.0895, 1033.507
577.5716, 1049.244
578.0537, 1067.866
578.5358, 1090.731
579.0179, 1113.302
579.5001, 1133.229
579.9822, 1150.937
580.4643, 1170.823
580.9464, 1193.088
581.4285, 1216.007
581.9106, 1238.007
582.3928, 1259.679
582.8749, 1282.901
583.3570, 1308.185
583.8391, 1334.264
584.3212, 1359.731
584.8033, 1385.394
585.2855, 1412.837
585.7676, 1444.364
586.2497, 1475.952
586.7318, 1505.921
587.2139, 1534.603
587.6960, 1562.944
588.1782, 1592.199
588.6603, 1620.126
589.1424, 1645.301
589.6245, 1667.772
590.1066, 1691.683
590.5887, 1719.200
591.0709, 1744.612
591.5530, 1764.222
592.0351, 1777.402
592.5172, 1789.443
592.9993, 1800.727
593.4814, 1810.238
593.9636, 1817.443
594.4457, 1821.991
594.9278, 1821.981
595.4099, 1816.125
595.8920, 1807.043
596.3741, 1797.963
596.8563, 1788.443
597.3384, 1777.311
597.8205, 1763.194
598.3026, 1748.088
598.7847, 1733.381
599.2668, 1718.988
599.7490, 1704.279
600.2311, 1686.902
600.7132, 1670.874
601.1953, 1658.578
601.6774, 1651.251
602.1595, 1642.946
602.6417, 1632.646
603.1238, 1622.269
603.6059, 1613.906
604.0880, 1607.928
604.5701, 1601.107
605.0522, 1592.551
605.5344, 1584.118
606.0165, 1580.386
606.4986, 1580.470
606.9807, 1578.748
607.4628, 1571.890
607.9449, 1563.389
608.4271, 1558.534
608.9092, 1556.481
609.3913, 1554.034
609.8735, 1549.967
610.3556, 1544.508
610.8377, 1536.824
611.3198, 1526.809
611.8019, 1518.809
612.2841, 1516.785
612.7662, 1515.061
613.2483, 1509.694
613.7304, 1498.659
614.2125, 1488.806
614.6946, 1480.767
615.1768, 1473.050
615.6589, 1463.917
616.1410, 1453.182
616.6231, 1441.569
617.1052, 1429.004
617.5873, 1415.899
618.0695, 1403.759
618.5516, 1392.323
619.0337, 1380.373
619.5158, 1367.197
619.9979, 1353.316
620.4800, 1339.439
620.9622, 1325.516
621.4443, 1311.651
621.9264, 1297.306
622.4085, 1283.388
622.8906, 1270.536
623.3727, 1259.073
623.8549, 1247.179
624.3370, 1234.266
624.8191, 1220.887
625.3012, 1207.506
625.7833, 1193.876
626.2654, 1180.576
626.7476, 1167.614
627.2297, 1154.956
627.7118, 1142.596
628.1939, 1130.539
628.6760, 1118.644
629.1581, 1106.810
629.6403, 1095.248
630.1224, 1084.481
630.6045, 1074.219
631.0866, 1063.317
631.5687, 1050.096
632.0508, 1036.783
632.5330, 1025.772
633.0151, 1016.763
633.4972, 1007.759
633.9793, 998.1937
634.4614, 988.2157
634.9435, 977.4586
635.4257, 965.5353
635.9078, 955.4578
636.3899, 948.7078
636.8720, 942.2659
637.3541, 933.9009
637.8362, 922.7054
638.3184, 913.3441
638.8005, 906.3305
639.2826, 900.5625
639.7647, 895.0688
640.2468, 889.7186
640.7289, 883.7807
641.2111, 876.9732
641.6932, 869.7389
642.1753, 862.0410
642.6574, 854.2472
643.1395, 847.3754
643.6216, 842.1077
644.1038, 837.5735
644.5859, 833.7263
645.0680, 830.3371
645.5501, 826.2987
646.0322, 821.1273
646.5143, 815.5057
646.9965, 809.5645
647.4786, 803.2039
647.9607, 797.4921
648.4428, 792.3730
648.9249, 787.9092
649.4070, 784.2523
649.8892, 781.3954
650.3713, 778.3820
650.8534, 775.2354
651.3355, 771.3962
651.8176, 765.0391
652.2997, 757.6732
652.7819, 752.8675
653.2640, 752.1555
653.7461, 752.1140
654.2282, 750.5186
654.7103, 747.8618
655.1924, 744.8898
655.6746, 742.0813
656.1567, 738.6490
656.6388, 733.4991
657.1209, 727.5859
657.6030, 723.6901
658.0851, 722.8380
658.5673, 722.0970
659.0494, 720.5767
659.5316, 718.4554
660.0137, 716.8805
660.4958, 715.9174
660.9779, 714.9430
661.4600, 713.5300
661.9421, 711.8168
662.4243, 710.1205
662.9064, 708.4471
663.3885, 706.7941
663.8706, 704.4448
664.3527, 702.5267
664.8348, 702.7191
665.3170, 706.1125
665.7991, 707.9691
666.2812, 705.6037
666.7633, 701.5633
667.2454, 698.1764
667.7275, 695.2150
668.2097, 693.5974
668.6918, 693.8256
669.1739, 694.9397
669.6560, 695.6532
670.1381, 696.0071
670.6202, 695.4374
671.1024, 693.5537
671.5845, 691.0798
672.0666, 689.4963
672.5487, 688.5615
673.0308, 687.3555
673.5129, 684.6838
673.9951, 682.1393
674.4772, 681.5319
674.9593, 682.3974
675.4414, 682.7050
675.9235, 680.7630
676.4056, 678.9068
676.8878, 678.2349
677.3699, 678.8441
677.8520, 679.7158
678.3341, 681.1880
678.8162, 682.4070
679.2983, 682.9044
679.7805, 682.6664
680.2626, 681.9817
680.7447, 680.9014
681.2268, 679.1116
681.7089, 675.4262
682.1910, 670.8412
682.6732, 668.2668
683.1553, 668.4183
683.6374, 669.1259
684.1195, 668.9695
684.6016, 668.2316
685.0837, 667.1952
685.5659, 664.7807
686.0480, 663.7379
686.5301, 666.4434
687.0122, 670.4474
687.4943, 671.4371
687.9764, 667.2700
688.4586, 664.6235
688.9407, 665.3954
689.4228, 667.8383
689.9049, 666.7968
690.3870, 662.1811
690.8691, 658.1224
691.3513, 656.5502
691.8334, 656.4576
692.3155, 656.6895
692.7976, 657.0186
693.2797, 656.4089
693.7618, 652.4114
694.2440, 648.7549
694.7261, 648.9869
695.2082, 653.0545
695.6903, 655.1722
696.1724, 651.5843
696.6545, 647.9305
697.1367, 646.9713
697.6188, 649.2236
698.1009, 650.6687
698.5830, 651.2911
699.0651, 651.1307
699.5472, 649.4071
700.0294, 646.5204
700.5115, 646.5006
700.9936, 649.9626
701.4757, 653.5976
701.9578, 653.9929
702.4399, 652.3627
702.9221, 650.3650
703.4042, 647.8951
703.8863, 646.3917
704.3684, 647.6029
704.8505, 649.7734
705.3326, 650.8355
705.8148, 650.0668
706.2969, 648.4832
706.7790, 644.8781
707.2611, 641.3068
707.7432, 642.6832
708.2253, 650.3309
708.7075, 653.7653
709.1896, 648.8603
709.6718, 640.3176
710.1539, 637.6051
710.6360, 639.8359
711.1181, 643.3224
711.6002, 648.6213
712.0823, 652.5687
712.5645, 651.5889
713.0466, 646.7869
713.5287, 642.2982
714.0108, 639.2307
714.4929, 637.0432
714.9750, 635.6432
715.4572, 634.9564
715.9393, 634.8502
716.4214, 635.7499
716.9035, 636.2903
717.3856, 635.3988
717.8677, 633.3103
718.3499, 633.2751
718.8320, 635.3649
719.3141, 637.0096
719.7962, 635.2295
720.2783, 632.1548
720.7604, 631.3943
721.2426, 633.3596
721.7247, 635.0865
722.2068, 634.2875
722.6889, 632.9861
723.1710, 632.8008
723.6531, 634.5258
724.1353, 635.8658
724.6174, 636.7072
725.0995, 637.1448
725.5816, 637.2916
726.0637, 637.1826
726.5458, 636.1393
727.0280, 633.6275
727.5101, 631.7377
727.9922, 634.1835
728.4743, 639.3850
728.9564, 642.8954
729.4385, 643.5099
729.9207, 642.4164
730.4028, 639.1830
730.8849, 635.2518
731.3670, 632.6789
731.8491, 633.1472
732.3312, 633.7094
732.8134, 633.2086
733.2955, 632.6888
733.7776, 634.2467
734.2597, 639.1481
734.7418, 642.0829
735.2239, 641.4217
735.7061, 638.7607
736.1882, 637.5258
736.6703, 637.5884
737.1524, 637.9699
737.6345, 638.3215
738.1166, 638.7492
738.5988, 639.5820
739.0809, 640.6100
739.5630, 641.2307
740.0451, 640.9039
740.5272, 640.4001
741.0093, 639.7117
741.4915, 639.0082
741.9736, 639.3483
742.4557, 641.4114
742.9378, 643.1910
743.4199, 643.9547
743.9020, 643.8257
744.3842, 643.1557
744.8663, 641.9353
745.3484, 641.5637
745.8305, 644.6384
746.3126, 648.2598
746.7947, 646.8381
747.2769, 640.9897
747.7590, 636.6739
748.2411, 638.5577
748.7232, 641.7774
749.2053, 643.6431
749.6874, 643.8386
750.1696, 643.2633
750.6517, 640.9404
751.1338, 639.2775
751.6159, 640.0596
752.0980, 643.4501
752.5801, 644.9229
753.0623, 644.2758
753.5444, 643.3073
754.0265, 643.6546
754.5086, 644.7111
754.9907, 645.1816
755.4728, 644.8978
755.9550, 644.8735
756.4371, 646.2623
756.9192, 647.8473
757.4013, 648.6059
757.8835, 648.0617
758.3656, 647.5684
758.8477, 646.9962
759.3298, 646.7266
759.8120, 647.4464
760.2941, 649.4652
760.7762, 649.4145
761.2583, 646.7298
761.7404, 643.7136
762.2225, 642.7960
762.7047, 643.5217
763.1868, 645.2507
763.6689, 648.2772
764.1510, 650.4221
764.6331, 649.1477
765.1152, 646.7263
765.5974, 645.5738
766.0795, 646.4431
766.5616, 648.2646
767.0437, 652.0113
767.5258, 655.7346
768.0079, 656.8053
768.4901, 654.7996
768.9722, 653.5323
769.4543, 653.4841
769.9364, 654.3091
770.4185, 656.3283
770.9006, 658.8195
771.3828, 659.7704
771.8649, 657.9418
772.3470, 655.9498
772.8291, 655.1601
773.3112, 655.4045
773.7933, 656.4496
774.2755, 659.8181
774.7576, 661.9006
775.2397, 661.9509
775.7218, 660.9446
776.2039, 660.6339
776.6860, 661.2386
777.1682, 660.3820
777.6503, 657.0485
778.1324, 653.2497
778.6145, 652.0120
779.0966, 652.8713
779.5787, 654.6367
780.0609, 657.6089
780.5430, 660.3123
781.0251, 661.5944
781.5072, 662.0504
781.9893, 662.7526
782.4714, 665.0226
782.9536, 665.9711
783.4357, 664.4370
783.9178, 661.9495
784.3999, 661.8948
784.8820, 664.4636
785.3641, 666.9725
785.8463, 668.9195
786.3284, 670.0712
786.8105, 669.1588
787.2926, 667.1146
787.7747, 666.2679
788.2568, 668.6906
788.7390, 671.4325
789.2211, 673.3573
789.7032, 674.5161
790.1853, 675.0434
790.6674, 674.4276
791.1495, 673.9855
791.6317, 673.7946
792.1138, 674.0016
792.5959, 675.3326
793.0780, 677.7942
793.5601, 679.4156
794.0422, 679.0281
794.5244, 678.2190
795.0065, 679.5539
795.4886, 682.2565
795.9707, 684.4153
796.4528, 685.7115
796.9349, 685.8270
797.4171, 683.0638
797.8992, 679.0731
798.3813, 678.6660
798.8634, 684.2816
799.3455, 688.1365
799.8276, 687.9777
800.3098, 685.5496
800.7919, 685.0419
801.2740, 686.2898
801.7561, 687.8577
802.2382, 689.2701
802.7203, 690.6061
803.2025, 692.4095
803.6846, 694.1865
804.1667, 694.8370
804.6488, 692.2197
805.1309, 690.3716
805.6130, 690.8998
806.0952, 692.9545
806.5773, 694.9376
807.0594, 696.9014
807.5416, 698.6644
808.0237, 700.3868
808.5058, 701.6241
808.9879, 701.0812
809.4700, 699.0995
809.9521, 697.1315
810.4343, 695.3282
810.9164, 694.2627
811.3985, 694.5131
811.8806, 695.8083
812.3627, 697.5810
812.8448, 700.9589
813.3270, 703.1711
813.8091, 703.4116
814.2912, 702.4146
814.7733, 701.6520
815.2554, 701.1282
815.7375, 700.8449
816.2197, 700.9681
816.7018, 701.0323
817.1839, 699.5728
817.6660, 697.4776
818.1481, 696.9437
818.6302, 700.6996
819.1124, 703.8811
819.5945, 703.4089
820.0766, 701.0127
820.5587, 700.0829
821.0408, 701.5461
821.5229, 703.1262
822.0051, 704.7723
822.4872, 706.1399
822.9693, 706.3344
823.4514, 705.4964
823.9335, 705.1953
824.4156, 706.0673
824.8978, 707.1012
825.3799, 706.4277
825.8620, 705.3727
826.3441, 706.1533
826.8262, 712.7903
827.3083, 716.9761
827.7905, 714.2955
828.2726, 709.4605
828.7547, 708.5303
829.2368, 712.6990
829.7189, 715.7563
830.2010, 716.8016
830.6832, 716.7191
831.1653, 716.3652
831.6474, 715.9067
832.1295, 715.8652
832.6116, 716.5665
833.0938, 717.1451
833.5759, 716.7732
834.0580, 716.1078
834.5401, 715.8766
835.0222, 716.0010
835.5043, 717.0718
835.9865, 719.8473
836.4686, 722.6262
836.9507, 723.1208
837.4328, 721.4561
837.9149, 721.0235
838.3970, 722.3391
838.8792, 723.9772
839.3613, 724.2883
839.8434, 724.0932
840.3255, 724.4915
840.8076, 725.7261
841.2897, 727.3542
841.7719, 730.1631
842.2540, 732.5755
842.7361, 733.2087
843.2182, 731.2541
843.7003, 730.8812
844.1824, 732.3920
844.6646, 734.3674
845.1467, 735.5582
845.6288, 736.2144
846.1109, 737.0644
846.5930, 738.1715
847.0751, 738.9735
847.5573, 739.0284
848.0394, 738.6855
848.5215, 737.8448
849.0036, 736.1819
849.4857, 736.4709
849.9678, 739.8383
850.4500, 743.3981
850.9321, 745.6310
851.4142, 746.6366
851.8963, 747.4667
852.3784, 748.1240
852.8605, 748.3153
853.3427, 747.2745
853.8248, 746.0471
854.3069, 745.8230
854.7890, 746.5560
855.2711, 747.2771
855.7532, 746.4791
856.2354, 746.9756
856.7175, 750.6681
857.1996, 756.7399
857.6818, 759.1110
858.1639, 757.3083
858.6460, 755.1909
859.1281, 754.2619
859.6102, 754.3527
860.0923, 755.3629
860.5745, 757.1478
861.0566, 759.1861
861.5387, 762.1169
862.0208, 764.3517
862.5029, 764.8397
862.9850, 764.0596
863.4672, 763.7023
863.9493, 763.9220
864.4314, 764.2245
864.9135, 764.5555
865.3956, 764.8562
865.8777, 765.0672
866.3599, 765.1517
866.8420, 764.8170
867.3241, 763.2733
867.8062, 762.4846
868.2883, 764.5265
868.7704, 768.0636
869.2526, 771.0934
869.7347, 773.4218
870.2168, 774.7554
870.6989, 774.5634
871.1810, 773.9164
871.6631, 774.3584
872.1453, 775.8052
872.6274, 776.5780
873.1095, 776.2585
873.5916, 776.2053
874.0737, 779.1130
874.5558, 782.5071
875.0380, 782.7413
875.5201, 777.4393
876.0022, 774.5646
876.4843, 778.7922
876.9664, 783.7321
877.4485, 784.9316
877.9307, 781.5656
878.4128, 780.9569
878.8949, 783.4791
879.3770, 785.7855
879.8591, 784.1992
880.3412, 780.9500
880.8234, 779.7647
881.3055, 780.8176
881.7876, 781.7920
882.2697, 781.5807
882.7518, 781.0477
883.2339, 780.4770
883.7161, 779.8963
884.1982, 779.8365
884.6803, 780.3091
885.1624, 781.2571
885.6445, 782.9138
886.1266, 784.8795
886.6088, 786.6318
887.0909, 787.9783
887.5730, 788.1019
888.0551, 785.0598
888.5372, 782.2631
889.0193, 782.0333
889.5015, 783.4865
889.9836, 783.4661
890.4657, 780.8487
890.9478, 779.4700
891.4299, 780.4742
891.9120, 782.5818
892.3942, 783.3934
892.8763, 783.1694
893.3584, 782.9623
893.8405, 783.0522
894.3226, 783.2901
894.8047, 783.6618
895.2869, 784.0674
895.7690, 784.3959
896.2511, 785.2190
896.7332, 784.8204
897.2153, 782.5475
897.6974, 780.0980
898.1796, 779.3474
898.6617, 780.0999
899.1438, 781.3182
899.6259, 782.9879
900.1080, 783.9610
900.5901, 782.6193
901.0723, 780.5931
901.5544, 779.3475
902.0365, 779.1528
902.5186, 779.2491
903.0007, 780.2235
903.4828, 780.4678
903.9650, 778.6105
904.4471, 775.0978
904.9292, 774.6606
905.4113, 777.1349
905.8935, 779.0793
906.3756, 776.6767
906.8577, 773.9870
907.3398, 776.1808
907.8220, 781.8863
908.3041, 785.4259
908.7862, 783.3294
909.2683, 781.3212
909.7504, 780.2847
910.2325, 780.2607
910.7147, 781.7845
911.1968, 784.8259
911.6789, 787.3262
912.1610, 788.8837
912.6431, 789.1572
913.1252, 785.7536
913.6074, 781.4235
914.0895, 780.5587
914.5716, 787.4911
915.0537, 792.6620
915.5358, 794.2834
916.0179, 794.1047
916.5001, 793.3591
916.9822, 791.9746
917.4643, 791.5989
917.9464, 792.3963
918.4285, 793.5772
918.9106, 794.4709
919.3928, 795.2787
919.8749, 796.2080
920.3570, 797.2859
920.8391, 798.6165
921.3212, 800.8279
921.8033, 802.6699
922.2855, 803.3636
922.7676, 803.1145
923.2497, 804.1241
923.7318, 806.4152
924.2139, 808.9031
924.6960, 811.2871
925.1782, 813.3349
925.6603, 813.9898
926.1424, 814.0188
926.6245, 815.4812
927.1066, 820.5752
927.5887, 825.3411
928.0709, 829.0397
928.5530, 831.9151
929.0351, 833.9874
929.5172, 835.1796
929.9993, 837.6747
930.4814, 842.0125
930.9636, 847.2382
931.4457, 853.0071
931.9278, 858.6648
932.4099, 863.0394
932.8920, 865.1058
933.3741, 868.3098
933.8563, 874.9153
934.3384, 881.4908
934.8205, 885.2253
935.3026, 885.9344
935.7847, 889.5213
936.2668, 896.0978
936.7490, 903.7062
937.2311, 910.5978
937.7132, 917.9778
938.1953, 927.4515
938.6774, 938.8010
939.1595, 949.8014
939.6417, 959.9842
940.1238, 969.3426
940.6059, 977.0137
941.0880, 984.1236
941.5701, 994.4437
942.0522, 1007.933
942.5344, 1021.864
943.0165, 1035.293
943.4986, 1049.613
943.9807, 1066.885
944.4628, 1085.922
944.9449, 1104.844
945.4271, 1122.299
945.9092, 1141.572
946.3913, 1162.737
946.8734, 1186.019
947.3555, 1211.546
947.8376, 1239.223
948.3198, 1269.601
948.8019, 1302.601
949.2840, 1338.160
949.7661, 1374.489
950.2482, 1414.138
950.7303, 1460.061
951.2125, 1512.371
951.6946, 1565.826
952.1767, 1617.127
952.6588, 1673.738
953.1409, 1738.978
953.6230, 1810.864
954.1052, 1884.775
954.5873, 1960.981
955.0695, 2041.068
955.5516, 2124.677
956.0337, 2214.215
956.5158, 2312.511
956.9979, 2416.558
957.4800, 2522.386
957.9622, 2625.777
958.4443, 2738.119
958.9264, 2861.450
959.4085, 2991.282
959.8906, 3126.045
960.3727, 3265.082
960.8549, 3402.454
961.3370, 3538.681
961.8191, 3676.491
962.3012, 3825.576
962.7833, 3972.801
963.2654, 4107.493
963.7476, 4229.792
964.2297, 4347.432
964.7118, 4461.657
965.1939, 4560.626
965.6760, 4641.031
966.1581, 4700.651
966.6403, 4736.998
967.1224, 4749.786
967.6045, 4739.043
968.0866, 4703.471
968.5687, 4645.961
969.0508, 4560.867
969.5330, 4456.628
970.0151, 4342.847
970.4972, 4219.634
970.9793, 4089.379
971.4614, 3951.735
971.9435, 3812.500
972.4257, 3676.506
972.9078, 3544.034
973.3899, 3412.853
973.8720, 3283.186
974.3541, 3160.148
974.8362, 3042.156
975.3184, 2933.287
975.8005, 2837.587
976.2826, 2752.562
976.7647, 2669.161
977.2468, 2587.740
977.7289, 2510.857
978.2111, 2440.745
978.6932, 2375.732
979.1753, 2314.216
979.6574, 2256.464
980.1395, 2202.941
980.6216, 2156.130
981.1038, 2110.387
981.5859, 2064.559
982.0680, 2020.837
982.5501, 1982.998
983.0322, 1950.262
983.5143, 1918.281
983.9965, 1886.452
984.4786, 1856.446
984.9607, 1829.404
985.4428, 1804.745
985.9249, 1782.625
986.4070, 1763.099
986.8892, 1742.752
987.3713, 1721.056
987.8534, 1700.322
988.3355, 1681.187
988.8176, 1663.842
989.2997, 1649.024
989.7819, 1636.385
990.2640, 1624.922
990.7461, 1614.970
991.2282, 1605.243
991.7103, 1593.090
992.1924, 1582.236
992.6746, 1577.598
993.1567, 1580.828
993.6388, 1581.551
994.1209, 1579.185
994.6030, 1575.357
995.0851, 1570.802
995.5673, 1566.144
996.0494, 1561.339
996.5315, 1556.680
997.0136, 1555.449
997.4957, 1561.195
997.9778, 1567.684
998.4600, 1573.004
998.9421, 1577.709
999.4242, 1583.404
999.9063, 1589.958
1000.388, 1596.718
1000.871, 1603.542
1001.353, 1610.325
1001.835, 1616.047
1002.317, 1622.098
1002.799, 1630.383
1003.281, 1642.489
1003.763, 1653.860
1004.245, 1664.696
1004.728, 1674.574
1005.210, 1682.807
1005.692, 1690.003
1006.174, 1698.441
1006.656, 1707.920
1007.138, 1716.616
1007.620, 1724.593
1008.102, 1730.630
1008.584, 1733.115
1009.067, 1733.505
1009.549, 1735.316
1010.031, 1738.966
1010.513, 1740.994
1010.995, 1740.993
1011.477, 1738.024
1011.959, 1729.691
1012.441, 1718.208
1012.924, 1706.521
1013.406, 1695.183
1013.888, 1683.503
1014.370, 1671.771
1014.852, 1659.173
1015.334, 1645.360
1015.816, 1630.251
1016.298, 1612.092
1016.780, 1591.497
1017.263, 1571.871
1017.745, 1557.160
1018.227, 1541.944
1018.709, 1521.143
1019.191, 1498.020
1019.673, 1479.183
1020.155, 1466.772
1020.637, 1452.728
1021.120, 1435.943
1021.602, 1418.750
1022.084, 1403.111
1022.566, 1389.120
1023.048, 1377.305
1023.530, 1367.698
1024.012, 1358.489
1024.494, 1348.418
1024.976, 1339.399
1025.458, 1332.297
1025.941, 1326.770
1026.423, 1321.503
1026.905, 1316.500
1027.387, 1312.246
1027.869, 1308.761
1028.351, 1306.475
1028.833, 1306.799
1029.316, 1308.110
1029.798, 1308.322
1030.280, 1306.729
1030.762, 1304.770
1031.244, 1302.293
1031.726, 1299.836
1032.208, 1298.044
1032.690, 1296.501
1033.172, 1293.974
1033.655, 1290.600
1034.137, 1287.230
1034.619, 1285.933
1035.101, 1282.830
1035.583, 1275.537
1036.065, 1266.077
1036.547, 1258.042
1037.029, 1251.557
1037.511, 1244.973
1037.994, 1238.179
1038.476, 1230.670
1038.958, 1222.443
1039.440, 1213.125
1039.922, 1201.925
1040.404, 1188.305
1040.886, 1176.740
1041.368, 1168.079
1041.851, 1159.758
1042.333, 1150.161
1042.815, 1140.442
1043.297, 1134.359
1043.779, 1130.748
1044.261, 1126.350
1044.743, 1119.245
1045.225, 1112.180
1045.708, 1106.062
1046.190, 1100.649
1046.672, 1095.605
1047.154, 1090.829
1047.636, 1087.613
1048.118, 1086.003
1048.600, 1084.728
1049.082, 1083.079
1049.564, 1081.044
1050.047, 1078.133
1050.529, 1074.698
1051.011, 1072.634
1051.493, 1072.702
1051.975, 1072.976
1052.457, 1073.625
1052.939, 1073.331
1053.421, 1068.605
1053.903, 1061.637
1054.386, 1057.723
1054.868, 1058.204
1055.350, 1058.716
1055.832, 1057.876
1056.314, 1055.917
1056.796, 1053.094
1057.278, 1049.357
1057.760, 1044.259
1058.243, 1037.821
1058.725, 1030.760
1059.207, 1022.885
1059.689, 1015.287
1060.171, 1009.472
1060.653, 1004.247
1061.135, 997.7898
1061.617, 989.2103
1062.099, 981.0388
1062.582, 973.1723
1063.064, 965.9481
1063.546, 960.7232
1064.028, 955.7963
1064.510, 946.1227
1064.992, 932.9501
1065.474, 923.1269
1065.956, 923.5010
1066.438, 922.2799
1066.921, 916.5363
1067.403, 907.7653
1067.885, 897.1224
1068.367, 885.0422
1068.849, 876.7105
1069.331, 873.0129
1069.813, 870.2714
1070.295, 865.6973
1070.778, 860.9597
1071.260, 857.8840
1071.742, 853.2353
1072.224, 852.3825
1072.706, 845.6580
1073.188, 840.1109
1073.670, 837.4316
1074.152, 836.0539
1074.635, 834.0870
1075.117, 831.7805
1075.599, 829.3813
1076.081, 826.3956
1076.563, 825.0446
1077.045, 826.7888
1077.527, 827.7401
1078.009, 824.0586
1078.491, 817.4645
1078.974, 815.3596
1079.456, 816.8806
1079.938, 817.6388
1080.420, 814.9225
1080.902, 811.6414
1081.384, 807.9489
1081.866, 804.9174
1082.348, 804.2997
1082.831, 806.2257
1083.313, 807.2551
1083.795, 807.0383
1084.277, 807.1642
1084.759, 810.5300
1085.241, 813.5358
1085.723, 812.5173
1086.205, 807.8193
1086.688, 804.3240
1087.170, 802.3373
1087.652, 800.9603
1088.134, 800.0602
1088.616, 799.4880
1089.098, 798.5325
1089.580, 797.9415
1090.062, 799.2512
1090.544, 803.1893
1091.026, 806.5328
1091.509, 808.4306
1091.991, 810.0319
1092.473, 812.1249
1092.955, 814.1829
1093.437, 813.5861
1093.919, 811.0710
1094.401, 809.7898
1094.883, 811.8018
1095.366, 813.8964
1095.848, 813.8304
1096.330, 813.7763
1096.812, 815.9736
1097.294, 820.7462
1097.776, 824.3525
1098.258, 826.7596
1098.740, 829.0052
1099.223, 832.2512
1099.705, 835.2287
1100.187, 836.3825
1100.669, 836.4610
1101.151, 837.4333
1101.633, 839.4568
1102.115, 842.5059
1102.597, 847.0433
1103.079, 850.7748
1103.562, 850.3009
1104.044, 847.9342
1104.526, 847.0828
1105.008, 847.8934
1105.490, 848.4001
1105.972, 848.0272
1106.454, 847.4867
1106.936, 846.8824
1107.418, 846.3108
1107.901, 845.8710
1108.383, 845.6301
1108.865, 845.9805
1109.347, 847.2003
1109.829, 847.7453
1110.311, 847.1288
1110.793, 845.3038
1111.275, 841.6984
1111.758, 836.8907
1112.240, 834.5322
1112.722, 834.3399
1113.204, 834.0261
1113.686, 832.9934
1114.168, 831.0027
1114.650, 827.3187
1115.132, 822.9470
1115.615, 818.8382
1116.097, 814.9763
1116.579, 811.9268
1117.061, 809.7830
1117.543, 807.6998
1118.025, 804.6702
1118.507, 801.8583
1118.989, 801.3164
1119.471, 801.7969
1119.953, 800.2932
1120.436, 794.2175
1120.918, 791.7131
1121.400, 794.1659
1121.882, 796.9236
1122.364, 795.5553
1122.846, 791.4977
1123.328, 785.7769
1123.810, 779.1705
1124.293, 775.6342
1124.775, 779.7726
1125.257, 782.3201
1125.739, 781.2049
1126.221, 778.6900
1126.703, 778.3793
1127.185, 779.4979
1127.667, 779.6611
1128.150, 778.5441
1128.632, 777.3401
1129.114, 776.9524
1129.596, 776.1953
1130.078, 774.5417
1130.560, 772.2112
1131.042, 769.4011
1131.524, 766.3878
1132.006, 765.0847
1132.489, 766.2340
1132.971, 768.0799
1133.453, 769.4818
1133.935, 771.0756
1134.417, 773.7173
1134.899, 777.2870
1135.381, 778.6780
1135.863, 777.9055
1136.346, 776.8769
1136.828, 775.8096
1137.310, 775.8530
1137.792, 779.5754
1138.274, 784.2969
1138.756, 786.2067
1139.238, 784.4280
1139.720, 783.4481
1140.203, 783.3240
1140.685, 783.6267
1141.167, 783.8799
1141.649, 784.5893
1142.131, 787.8513
1142.613, 791.8008
1143.095, 792.3890
1143.577, 785.9539
1144.059, 781.9351
1144.542, 781.0148
1145.024, 781.4362
1145.506, 782.5966
1145.988, 783.5309
1146.470, 782.1679
1146.952, 778.9167
1147.434, 775.8571
1147.916, 773.5975
1148.398, 771.6447
1148.881, 770.0986
1149.363, 768.5270
1149.845, 766.3666
1150.327, 763.8047
1150.809, 761.0346
1151.291, 758.1594
1151.773, 756.0779
1152.255, 755.9701
1152.738, 755.7453
1153.220, 754.6047
1153.702, 753.1952
1154.184, 753.2007
1154.666, 754.0698
1155.148, 753.2280
1155.630, 750.0792
1156.112, 747.4665
1156.594, 747.9421
1157.077, 748.1544
1157.559, 745.8477
1158.041, 742.1854
1158.523, 741.9208
1159.005, 744.5405
1159.487, 746.0729
1159.969, 745.2789
1160.451, 743.8770
1160.933, 742.4023
1161.416, 741.3705
1161.898, 741.4266
1162.380, 742.3953
1162.862, 742.1720
1163.344, 740.8071
1163.826, 739.2394
1164.308, 737.3859
1164.790, 736.4487
1165.273, 738.6141
1165.755, 741.4008
1166.237, 741.9921
1166.719, 740.0787
1167.201, 738.7517
1167.683, 738.0250
1168.165, 737.2888
1168.647, 735.7537
1169.130, 734.5776
1169.612, 735.6517
1170.094, 737.4584
1170.576, 737.4754
1171.058, 734.7848
1171.540, 733.2161
1172.022, 732.8293
1172.504, 733.2333
1172.986, 735.2025
1173.469, 736.9722
1173.951, 735.8675
1174.433, 733.1442
1174.915, 731.9232
1175.397, 733.0567
1175.879, 733.9508
1176.361, 734.4053
1176.843, 735.0014
1177.326, 737.0538
1177.808, 738.9814
1178.290, 738.2207
1178.772, 735.4527
1179.254, 733.6813
1179.736, 733.5614
1180.218, 733.7346
1180.700, 734.1695
1181.182, 734.4821
1181.665, 734.4854
1182.147, 733.9783
1182.629, 731.7956
1183.111, 728.4393
1183.593, 727.7806
1184.075, 732.6212
1184.557, 735.4147
1185.039, 734.4888
1185.521, 732.2117
1186.004, 731.0764
1186.486, 731.0870
1186.968, 733.0393
1187.450, 736.8311
1187.932, 738.5311
1188.414, 736.3246
1188.896, 733.8951
1189.378, 731.8592
1189.861, 730.4526
1190.343, 730.0737
1190.825, 730.6059
1191.307, 732.5093
1191.789, 736.0629
1192.271, 736.9861
1192.753, 732.1295
1193.235, 728.8660
1193.718, 729.9496
1194.200, 733.1932
1194.682, 734.9500
1195.164, 735.6223
1195.646, 735.9984
1196.128, 736.2458
1196.610, 736.1016
1197.092, 735.2616
1197.574, 734.4362
1198.057, 733.7921
1198.539, 733.4460
1199.021, 733.8983
1199.503, 734.7978
1199.985, 735.4713
1200.467, 735.9713
1200.949, 735.2369
1201.431, 731.8983
1201.913, 729.3581
1202.396, 729.0930
1202.878, 730.9028
1203.360, 736.1891
1203.842, 742.9643
1204.324, 745.6528
1204.806, 740.5633
1205.288, 736.9839
1205.770, 737.3152
1206.253, 738.0759
1206.735, 737.0948
1207.217, 735.2211
1207.699, 735.2533
1208.181, 736.4069
1208.663, 736.4890
1209.145, 733.6096
1209.627, 731.9581
1210.109, 732.5629
1210.592, 733.6348
1211.074, 733.9105
1211.556, 733.7593
1212.038, 734.7366
1212.520, 736.2455
1213.002, 736.5225
1213.484, 733.2003
1213.966, 731.5458
1214.448, 732.9633
1214.931, 734.5417
1215.413, 733.4615
1215.895, 730.9492
1216.377, 730.5791
1216.859, 731.8223
1217.341, 732.9601
1217.823, 732.8688
1218.305, 733.4337
1218.788, 735.1700
1219.270, 736.8986
1219.752, 737.5547
1220.234, 737.4752
1220.716, 737.7698
1221.198, 738.1037
1221.680, 737.2812
1222.162, 733.0847
1222.645, 730.4672
1223.127, 730.1136
1223.609, 730.7393
1224.091, 731.0472
1224.573, 731.4689
1225.055, 733.2940
1225.537, 736.1476
1226.019, 738.4802
1226.501, 740.7977
1226.984, 740.4611
1227.466, 736.2888
1227.948, 731.8692
1228.430, 730.8877
1228.912, 732.1246
1229.394, 733.8273
1229.876, 735.7618
1230.358, 737.4187
1230.841, 738.9512
1231.323, 739.6454
1231.805, 739.3369
1232.287, 738.4565
1232.769, 737.2640
1233.251, 735.8914
1233.733, 734.0056
1234.215, 732.0266
1234.698, 732.2043
1235.180, 736.9118
1235.662, 738.4500
1236.144, 735.2799
1236.626, 731.6189
1237.108, 732.5045
1237.590, 735.1214
1238.072, 735.9749
1238.554, 735.2350
1239.036, 734.7578
1239.519, 734.5865
1240.001, 735.1286
1240.483, 736.5590
1240.965, 738.0632
1241.447, 739.1266
1241.929, 739.5884
1242.411, 738.8032
1242.893, 737.1506
1243.376, 736.6157
1243.858, 737.6135
1244.340, 737.9283
1244.822, 737.1566
1245.304, 736.4539
1245.786, 737.0119
1246.268, 738.0486
1246.750, 739.4601
1247.233, 740.7103
1247.715, 739.4221
1248.197, 734.9686
1248.679, 734.2001
1249.161, 738.3771
1249.643, 742.6746
1250.125, 742.6797
1250.607, 741.3826
1251.089, 740.9807
1251.572, 741.0816
1252.054, 740.0136
1252.536, 737.7647
1253.018, 737.7647
1253.500, 740.5983
1253.982, 743.3830
1254.464, 744.5012
1254.946, 744.2950
1255.428, 741.9805
1255.911, 739.0162
1256.393, 738.6552
1256.875, 740.6103
1257.357, 742.2269
1257.839, 743.1483
1258.321, 743.4678
1258.803, 743.2914
1259.285, 742.3663
1259.768, 740.0380
1260.250, 737.5435
1260.732, 737.6142
1261.214, 739.6223
1261.696, 741.0623
1262.178, 741.6202
1262.660, 741.8114
1263.142, 741.7996
1263.625, 741.4560
1264.107, 740.3978
1264.589, 739.4966
1265.071, 740.6944
1265.553, 743.0281
1266.035, 744.0042
1266.517, 743.4072
1266.999, 742.7893
1267.481, 742.4348
1267.964, 742.4139
1268.446, 742.8023
1268.928, 743.3986
1269.410, 744.0594
1269.892, 744.6657
1270.374, 745.2118
1270.856, 745.6373
1271.338, 745.0450
1271.820, 742.8525
1272.303, 741.1869
1272.785, 740.4543
1273.267, 740.2894
1273.749, 740.7465
1274.231, 741.1941
1274.713, 740.4689
1275.195, 738.8694
1275.677, 739.0497
1276.160, 741.6835
1276.642, 742.3351
1277.124, 739.9857
1277.606, 737.6972
1278.088, 738.4500
1278.570, 740.4114
1279.052, 742.7863
1279.534, 745.0134
1280.016, 745.5659
1280.499, 744.3986
1280.981, 742.9176
1281.463, 741.2511
1281.945, 740.4695
1282.427, 742.1514
1282.909, 744.0663
1283.391, 744.6487
1283.873, 744.8027
1284.356, 746.9059
1284.838, 750.3154
1285.320, 750.1174
1285.802, 746.0028
1286.284, 743.6010
1286.766, 748.9119
1287.248, 752.4107
1287.730, 750.3930
1288.213, 746.4822
1288.695, 746.2474
1289.177, 748.2145
1289.659, 748.4061
1290.141, 746.6627
1290.623, 744.7390
1291.105, 742.1648
1291.587, 741.3945
1292.069, 743.2651
1292.552, 745.6654
1293.034, 746.2313
1293.516, 745.6985
1293.998, 744.7333
1294.480, 743.6016
1294.962, 743.4554
1295.444, 744.7537
1295.926, 745.7352
1296.408, 746.2748
1296.891, 746.0682
1297.373, 743.9964
1297.855, 741.7423
1298.337, 740.7108
1298.819, 740.9953
1299.301, 742.3961
1299.783, 745.1425
1300.265, 746.2015
1300.748, 745.3483
1301.230, 744.3085
1301.712, 743.7678
1302.194, 744.0554
1302.676, 745.5723
##END=



