##NAMES=Ephesite
##RRUFFID=R060848
##IDEAL CHEMISTRY=NaLiAl_2_(Si_2_Al_2_)O_10_(OH)_2_
##LOCALITY=Postmaasburg, South Africa
##OWNER=RRUFF
##SOURCE=Michael Scott
##DESCRIPTION=Pale pink hexagonal mica books, polytype 2M1
##STATUS=The identification of this mineral has been confirmed by X-ray diffraction and chemical analysis
##URL=rruff.info/R060848
##MEASURED CHEMISTRY=Na_1.00_Li_1.00_Al_2.00_(Si_2.00_Al_2.00_)O_10_(OH)_2_; trace amounts of Fe and Ca; Li and OH assumed by stoichiometry
178.8993, 10914.53
179.3814, 10930.38
179.8635, 10913.00
180.3457, 10886.40
180.8278, 10890.57
181.3099, 10935.30
181.7920, 10978.72
182.2741, 10973.78
182.7562, 10938.13
183.2384, 10916.63
183.7205, 10931.54
184.2026, 10964.67
184.6847, 10987.72
185.1668, 10996.35
185.6489, 11005.32
186.1311, 11027.79
186.6132, 11059.43
187.0953, 11091.82
187.5774, 11123.90
188.0595, 11154.78
188.5416, 11152.38
189.0238, 11196.94
189.5059, 11226.89
189.9880, 11243.04
190.4701, 11203.98
190.9522, 11236.20
191.4343, 11239.86
191.9165, 11242.35
192.3986, 11284.60
192.8807, 11253.57
193.3628, 11295.19
193.8449, 11307.81
194.3270, 11333.70
194.8092, 11324.44
195.2913, 11323.27
195.7734, 11321.44
196.2555, 11324.30
196.7376, 11330.69
197.2197, 11346.41
197.7019, 11388.51
198.1840, 11442.53
198.6661, 11481.43
199.1482, 11485.53
199.6303, 11475.18
200.1124, 11482.01
200.5946, 11509.35
201.0767, 11539.98
201.5588, 11555.10
202.0409, 11566.69
202.5230, 11596.56
203.0051, 11666.35
203.4873, 11747.99
203.9694, 11799.54
204.4515, 11815.30
204.9336, 11827.79
205.4157, 11856.87
205.8978, 11895.01
206.3800, 11930.07
206.8621, 11948.19
207.3442, 11970.95
207.8263, 12031.14
208.3084, 12133.51
208.7905, 12238.21
209.2727, 12316.96
209.7548, 12385.68
210.2369, 12469.13
210.7190, 12579.19
211.2011, 12697.61
211.6832, 12811.91
212.1654, 12923.54
212.6475, 13007.58
213.1296, 13041.75
213.6117, 13041.83
214.0938, 13032.49
214.5760, 13023.25
215.0581, 12996.86
215.5402, 12925.92
216.0223, 12809.94
216.5044, 12701.94
216.9865, 12634.60
217.4687, 12584.22
217.9508, 12510.04
218.4329, 12391.38
218.9150, 12281.36
219.3971, 12231.15
219.8792, 12237.19
220.3614, 12245.41
220.8435, 12229.95
221.3256, 12209.55
221.8077, 12212.58
222.2898, 12246.12
222.7719, 12286.95
223.2541, 12317.91
223.7362, 12341.13
224.2183, 12371.31
224.7004, 12420.11
225.1825, 12470.99
225.6646, 12497.39
226.1468, 12493.23
226.6289, 12488.25
227.1110, 12509.81
227.5931, 12546.53
228.0752, 12554.25
228.5573, 12509.43
229.0395, 12444.92
229.5216, 12408.11
230.0037, 12401.42
230.4858, 12398.19
230.9679, 12393.16
231.4500, 12382.99
231.9322, 12355.64
232.4143, 12301.90
232.8964, 12244.72
233.3785, 12215.95
233.8606, 12214.77
234.3427, 12218.25
234.8249, 12209.90
235.3070, 12203.90
235.7891, 12233.08
236.2712, 12311.43
236.7533, 12390.87
237.2354, 12405.79
237.7176, 12358.37
238.1997, 12323.61
238.6818, 12315.72
239.1639, 12327.92
239.6460, 12355.57
240.1281, 12398.66
240.6103, 12447.37
241.0924, 12492.20
241.5745, 12533.51
242.0566, 12580.71
242.5387, 12628.22
243.0208, 12686.29
243.5030, 12769.46
243.9851, 12876.81
244.4672, 12986.04
244.9493, 13075.14
245.4314, 13145.93
245.9135, 13244.06
246.3957, 13375.90
246.8778, 13528.90
247.3599, 13700.68
247.8420, 13888.57
248.3241, 14079.02
248.8062, 14262.49
249.2884, 14441.58
249.7705, 14637.91
250.2526, 14841.34
250.7347, 15068.96
251.2168, 15330.42
251.6989, 15621.31
252.1811, 15944.53
252.6632, 16313.10
253.1453, 16695.41
253.6274, 16955.97
254.1095, 17089.48
254.5916, 17126.55
255.0738, 17050.81
255.5559, 16885.79
256.0380, 16653.78
256.5201, 16361.56
257.0022, 16032.32
257.4843, 15716.99
257.9665, 15432.91
258.4486, 15144.76
258.9307, 14833.01
259.4128, 14525.87
259.8949, 14249.03
260.3770, 14010.22
260.8592, 13806.68
261.3413, 13634.88
261.8234, 13518.71
262.3055, 13388.47
262.7876, 13233.96
263.2697, 13073.72
263.7519, 12907.87
264.2340, 12743.92
264.7161, 12607.47
265.1982, 12534.42
265.6803, 12545.49
266.1624, 12536.80
266.6446, 12489.59
267.1267, 12442.30
267.6088, 12412.18
268.0909, 12398.41
268.5730, 12391.93
269.0551, 12385.44
269.5373, 12378.92
270.0194, 12374.62
270.5015, 12366.38
270.9836, 12367.10
271.4657, 12378.57
271.9478, 12401.78
272.4300, 12439.68
272.9121, 12497.06
273.3942, 12567.67
273.8763, 12624.22
274.3584, 12656.39
274.8405, 12688.25
275.3227, 12720.75
275.8048, 12757.54
276.2869, 12802.81
276.7690, 12857.92
277.2511, 12922.65
277.7332, 13000.52
278.2154, 13100.33
278.6975, 13187.25
279.1796, 13225.36
279.6617, 13263.29
280.1438, 13348.16
280.6259, 13492.65
281.1081, 13648.17
281.5902, 13753.26
282.0723, 13803.22
282.5544, 13875.03
283.0365, 14004.96
283.5186, 14143.41
284.0008, 14244.77
284.4829, 14309.96
284.9650, 14392.07
285.4471, 14551.68
285.9292, 14767.28
286.4113, 14934.97
286.8935, 15034.57
287.3756, 15098.32
287.8577, 15154.06
288.3398, 15199.65
288.8219, 15221.91
289.3040, 15235.97
289.7862, 15217.31
290.2683, 15113.03
290.7504, 14910.48
291.2325, 14681.09
291.7146, 14461.31
292.1967, 14253.61
292.6789, 14063.46
293.1610, 13889.66
293.6431, 13737.18
294.1252, 13612.72
294.6073, 13515.01
295.0894, 13432.78
295.5716, 13355.67
296.0537, 13293.94
296.5358, 13275.30
297.0179, 13314.47
297.5000, 13369.60
297.9821, 13427.76
298.4643, 13489.35
298.9464, 13557.61
299.4285, 13634.52
299.9106, 13713.49
300.3927, 13783.99
300.8748, 13850.10
301.3570, 13897.65
301.8391, 13906.18
302.3212, 13905.36
302.8033, 13932.05
303.2854, 13991.28
303.7675, 14048.81
304.2497, 14064.02
304.7318, 14024.90
305.2139, 13988.47
305.6960, 13967.84
306.1781, 13938.29
306.6602, 13873.83
307.1424, 13785.65
307.6245, 13712.13
308.1066, 13687.46
308.5887, 13708.43
309.0708, 13692.78
309.5529, 13580.49
310.0351, 13495.05
310.5172, 13476.60
310.9993, 13496.91
311.4814, 13511.36
311.9635, 13496.20
312.4456, 13471.47
312.9278, 13495.24
313.4099, 13608.67
313.8920, 13689.19
314.3741, 13685.02
314.8562, 13664.99
315.3383, 13682.77
315.8205, 13751.66
316.3026, 13851.22
316.7847, 13958.25
317.2668, 14071.57
317.7489, 14204.74
318.2310, 14367.45
318.7132, 14545.05
319.1953, 14721.62
319.6774, 14900.97
320.1595, 15109.95
320.6416, 15384.55
321.1237, 15704.56
321.6059, 15991.66
322.0880, 16234.20
322.5701, 16469.58
323.0522, 16742.77
323.5343, 17027.35
324.0164, 17267.14
324.4986, 17425.04
324.9807, 17549.09
325.4628, 17690.25
325.9449, 17847.70
326.4270, 18003.45
326.9091, 18166.15
327.3913, 18308.41
327.8734, 18383.72
328.3555, 18415.79
328.8376, 18342.49
329.3197, 18117.49
329.8018, 17770.78
330.2840, 17338.14
330.7661, 16820.25
331.2482, 16274.11
331.7303, 15775.65
332.2124, 15325.44
332.6945, 14926.55
333.1767, 14574.08
333.6588, 14277.09
334.1409, 14047.52
334.6230, 13883.50
335.1051, 13767.38
335.5873, 13687.60
336.0694, 13647.27
336.5515, 13597.00
337.0336, 13510.33
337.5157, 13443.41
337.9979, 13420.08
338.4800, 13428.49
338.9621, 13446.63
339.4442, 13462.94
339.9263, 13479.03
340.4084, 13499.72
340.8906, 13527.10
341.3727, 13556.08
341.8548, 13599.99
342.3369, 13636.65
342.8190, 13641.70
343.3011, 13611.24
343.7833, 13570.87
344.2654, 13548.50
344.7475, 13544.68
345.2296, 13553.90
345.7117, 13587.62
346.1938, 13622.87
346.6760, 13634.58
347.1581, 13633.88
347.6402, 13659.36
348.1223, 13741.36
348.6044, 13865.15
349.0865, 13991.51
349.5687, 14117.20
350.0508, 14258.50
350.5329, 14428.43
351.0150, 14620.17
351.4971, 14825.14
351.9792, 15050.96
352.4614, 15274.82
352.9435, 15469.40
353.4256, 15642.81
353.9077, 15837.35
354.3898, 16072.43
354.8719, 16325.40
355.3541, 16560.06
355.8362, 16780.92
356.3183, 16973.02
356.8004, 17116.87
357.2825, 17237.03
357.7646, 17365.57
358.2468, 17505.97
358.7289, 17627.70
359.2110, 17701.21
359.6931, 17722.34
360.1752, 17730.51
360.6573, 17721.57
361.1395, 17706.46
361.6216, 17694.49
362.1037, 17679.28
362.5858, 17660.89
363.0679, 17644.24
363.5500, 17598.85
364.0322, 17426.25
364.5143, 17066.03
364.9964, 16663.02
365.4785, 16197.75
365.9606, 15721.34
366.4427, 15261.25
366.9249, 14828.30
367.4070, 14439.39
367.8891, 14121.97
368.3712, 13877.75
368.8533, 13655.94
369.3354, 13449.24
369.8176, 13273.38
370.2997, 13143.82
370.7818, 13049.17
371.2639, 12961.66
371.7460, 12859.89
372.2281, 12762.82
372.7103, 12710.32
373.1924, 12708.81
373.6745, 12700.16
374.1566, 12646.79
374.6387, 12575.63
375.1208, 12535.73
375.6030, 12541.42
376.0851, 12548.02
376.5672, 12529.21
377.0493, 12494.94
377.5314, 12463.90
378.0135, 12440.05
378.4957, 12425.42
378.9778, 12425.35
379.4599, 12445.35
379.9420, 12453.25
380.4241, 12431.79
380.9063, 12412.24
381.3884, 12416.26
381.8705, 12440.89
382.3526, 12473.56
382.8347, 12507.79
383.3168, 12540.80
383.7990, 12555.97
384.2811, 12527.79
384.7632, 12513.28
385.2453, 12525.63
385.7274, 12550.16
386.2095, 12576.07
386.6917, 12599.17
387.1738, 12614.69
387.6559, 12609.30
388.1380, 12575.72
388.6201, 12568.46
389.1022, 12605.21
389.5844, 12654.71
390.0665, 12708.91
390.5486, 12763.97
391.0307, 12810.55
391.5128, 12840.89
391.9949, 12861.56
392.4771, 12881.46
392.9592, 12898.39
393.4413, 12929.48
393.9234, 12985.31
394.4055, 13059.87
394.8876, 13139.92
395.3698, 13222.24
395.8519, 13316.98
396.3340, 13418.72
396.8161, 13537.74
397.2982, 13698.59
397.7803, 13908.35
398.2625, 14142.17
398.7446, 14375.53
399.2267, 14607.19
399.7088, 14846.99
400.1909, 15083.70
400.6730, 15338.48
401.1552, 15646.86
401.6373, 15982.88
402.1194, 16295.85
402.6015, 16557.30
403.0836, 16767.46
403.5657, 16925.38
404.0479, 17054.61
404.5300, 17085.97
405.0121, 16970.82
405.4942, 16798.63
405.9763, 16639.90
406.4584, 16502.40
406.9406, 16348.81
407.4227, 16142.51
407.9048, 15884.72
408.3869, 15597.88
408.8690, 15267.27
409.3511, 14931.84
409.8333, 14600.24
410.3154, 14280.57
410.7975, 13988.53
411.2796, 13731.71
411.7617, 13499.83
412.2438, 13281.05
412.7260, 13076.66
413.2081, 12897.84
413.6902, 12751.72
414.1723, 12628.57
414.6544, 12513.40
415.1365, 12401.05
415.6187, 12314.89
416.1008, 12267.27
416.5829, 12241.91
417.0650, 12235.98
417.5471, 12242.43
418.0292, 12232.63
418.5114, 12181.90
418.9935, 12096.43
419.4756, 12033.28
419.9577, 12002.05
420.4398, 11982.62
420.9219, 11977.64
421.4041, 11980.89
421.8862, 11984.36
422.3683, 11986.44
422.8504, 11994.76
423.3325, 12026.10
423.8146, 12086.13
424.2968, 12120.29
424.7789, 12101.26
425.2610, 12085.22
425.7431, 12109.45
426.2252, 12157.79
426.7073, 12190.84
427.1895, 12186.35
427.6716, 12163.88
428.1537, 12142.74
428.6358, 12123.25
429.1179, 12124.01
429.6000, 12155.20
430.0822, 12207.22
430.5643, 12267.82
431.0464, 12340.88
431.5285, 12404.74
432.0106, 12451.80
432.4927, 12488.02
432.9749, 12516.44
433.4570, 12538.68
433.9391, 12560.73
434.4212, 12587.16
434.9033, 12617.69
435.3854, 12649.10
435.8676, 12692.36
436.3497, 12722.99
436.8318, 12721.00
437.3139, 12711.87
437.7960, 12723.31
438.2781, 12763.36
438.7603, 12820.94
439.2424, 12885.32
439.7245, 12957.69
440.2066, 13025.36
440.6887, 13102.56
441.1708, 13155.04
441.6530, 13163.32
442.1351, 13136.61
442.6172, 13095.68
443.0993, 13049.46
443.5814, 12990.85
444.0635, 12906.31
444.5457, 12798.03
445.0278, 12686.14
445.5099, 12572.68
445.9920, 12467.03
446.4741, 12385.29
446.9562, 12324.34
447.4384, 12289.93
447.9205, 12298.53
448.4026, 12322.57
448.8847, 12342.22
449.3668, 12355.70
449.8489, 12363.91
450.3311, 12364.92
450.8132, 12365.02
451.2953, 12395.73
451.7774, 12467.33
452.2595, 12558.91
452.7416, 12676.58
453.2238, 12806.51
453.7059, 12937.61
454.1880, 13068.04
454.6701, 13206.17
455.1522, 13359.21
455.6343, 13526.91
456.1165, 13708.24
456.5986, 13908.96
457.0807, 14113.16
457.5628, 14304.31
458.0449, 14496.01
458.5270, 14713.72
459.0092, 14975.73
459.4913, 15237.32
459.9734, 15478.12
460.4555, 15694.25
460.9376, 15882.66
461.4197, 16042.52
461.9019, 16165.20
462.3840, 16243.29
462.8661, 16278.12
463.3482, 16234.06
463.8303, 16095.15
464.3124, 15901.45
464.7946, 15645.21
465.2767, 15352.08
465.7588, 15060.05
466.2409, 14784.85
466.7230, 14523.18
467.2051, 14266.69
467.6873, 14012.58
468.1694, 13773.65
468.6515, 13538.36
469.1336, 13332.37
469.6157, 13183.67
470.0978, 13078.40
470.5800, 12965.76
471.0621, 12801.78
471.5442, 12630.62
472.0263, 12526.64
472.5084, 12487.76
472.9905, 12443.90
473.4727, 12364.85
473.9548, 12269.89
474.4369, 12191.64
474.9190, 12125.79
475.4011, 12084.17
475.8832, 12088.70
476.3654, 12103.74
476.8475, 12099.29
477.3296, 12075.62
477.8117, 12047.92
478.2938, 12026.11
478.7759, 12009.26
479.2581, 11991.83
479.7402, 11959.58
480.2223, 11951.86
480.7044, 11986.78
481.1865, 12035.18
481.6686, 12071.46
482.1508, 12095.33
482.6329, 12129.47
483.1150, 12196.24
483.5971, 12287.51
484.0792, 12376.18
484.5613, 12459.88
485.0435, 12550.42
485.5256, 12657.74
486.0077, 12774.51
486.4898, 12883.46
486.9719, 12978.57
487.4540, 13080.70
487.9362, 13197.72
488.4183, 13325.74
488.9004, 13466.38
489.3825, 13616.92
489.8646, 13757.94
490.3467, 13871.56
490.8289, 13959.55
491.3110, 14058.15
491.7931, 14218.09
492.2752, 14324.20
492.7573, 14353.95
493.2394, 14327.42
493.7216, 14262.33
494.2037, 14163.55
494.6858, 14032.19
495.1679, 13856.85
495.6500, 13644.62
496.1321, 13445.69
496.6143, 13269.56
497.0964, 13087.00
497.5785, 12867.62
498.0606, 12633.72
498.5427, 12432.67
499.0248, 12276.04
499.5070, 12138.79
499.9891, 12014.16
500.4712, 11899.95
500.9533, 11794.35
501.4355, 11696.79
501.9176, 11606.57
502.3997, 11524.32
502.8818, 11450.07
503.3639, 11374.80
503.8460, 11276.20
504.3282, 11203.63
504.8103, 11179.53
505.2924, 11179.79
505.7745, 11181.37
506.2566, 11177.53
506.7387, 11169.50
507.2209, 11155.38
507.7030, 11136.82
508.1851, 11126.71
508.6672, 11127.79
509.1493, 11132.28
509.6314, 11143.80
510.1136, 11153.57
510.5957, 11140.34
511.0778, 11086.33
511.5599, 11037.03
512.0420, 11009.79
512.5241, 11001.73
513.0062, 11016.97
513.4883, 11053.29
513.9705, 11085.40
514.4526, 11087.72
514.9347, 11060.71
515.4168, 11036.83
515.8989, 11017.37
516.3810, 10999.84
516.8632, 10978.35
517.3453, 10961.62
517.8274, 10961.64
518.3095, 10979.99
518.7916, 11001.05
519.2737, 11010.72
519.7559, 11010.82
520.2380, 11008.35
520.7201, 11003.00
521.2022, 10997.57
521.6843, 10992.75
522.1664, 10989.39
522.6486, 10989.86
523.1307, 10998.68
523.6128, 11002.71
524.0949, 10998.88
524.5770, 10987.40
525.0591, 10963.77
525.5413, 10930.32
526.0234, 10901.65
526.5055, 10891.48
526.9876, 10896.05
527.4697, 10883.65
527.9518, 10829.01
528.4340, 10801.61
528.9161, 10839.37
529.3982, 10889.12
529.8803, 10908.37
530.3624, 10892.45
530.8445, 10861.34
531.3267, 10816.58
531.8088, 10769.34
532.2909, 10742.15
532.7730, 10735.73
533.2551, 10743.46
533.7372, 10770.93
534.2194, 10801.35
534.7015, 10789.45
535.1836, 10704.05
535.6657, 10651.72
536.1478, 10657.19
536.6299, 10687.63
537.1121, 10733.57
537.5942, 10783.73
538.0763, 10815.47
538.5584, 10813.79
539.0405, 10788.84
539.5226, 10762.40
540.0048, 10728.82
540.4869, 10716.54
540.9690, 10749.00
541.4511, 10786.84
541.9332, 10800.57
542.4153, 10793.56
542.8975, 10786.13
543.3796, 10782.70
543.8617, 10784.55
544.3438, 10805.90
544.8259, 10835.20
545.3080, 10826.40
545.7902, 10759.74
546.2723, 10680.66
546.7544, 10657.20
547.2365, 10707.96
547.7186, 10737.65
548.2007, 10733.85
548.6829, 10724.84
549.1650, 10717.04
549.6471, 10711.47
550.1292, 10707.58
550.6113, 10704.98
551.0934, 10707.22
551.5756, 10727.63
552.0577, 10760.42
552.5398, 10759.51
553.0219, 10708.07
553.5040, 10661.96
553.9861, 10666.01
554.4683, 10708.02
554.9504, 10731.10
555.4325, 10724.74
555.9146, 10713.82
556.3967, 10698.48
556.8788, 10686.73
557.3610, 10693.77
557.8431, 10717.55
558.3252, 10734.98
558.8073, 10724.56
559.2894, 10691.93
559.7715, 10670.82
560.2537, 10663.42
560.7358, 10662.61
561.2179, 10676.69
561.7000, 10689.76
562.1821, 10683.31
562.6642, 10658.23
563.1464, 10645.64
563.6285, 10676.26
564.1106, 10716.54
564.5927, 10730.26
565.0748, 10717.85
565.5569, 10683.23
566.0391, 10624.38
566.5212, 10560.28
567.0033, 10525.04
567.4854, 10528.00
567.9675, 10533.96
568.4496, 10554.41
568.9318, 10565.70
569.4139, 10539.75
569.8960, 10502.35
570.3781, 10501.58
570.8602, 10559.55
571.3423, 10634.01
571.8245, 10674.88
572.3066, 10687.84
572.7887, 10703.88
573.2708, 10725.60
573.7529, 10757.67
574.2350, 10810.63
574.7172, 10877.66
575.1993, 10923.00
575.6814, 10924.68
576.1635, 10934.50
576.6456, 10973.35
577.1277, 11019.49
577.6099, 11045.99
578.0920, 11054.86
578.5741, 11076.47
579.0562, 11140.53
579.5383, 11229.42
580.0204, 11274.66
580.5026, 11263.40
580.9847, 11259.75
581.4668, 11288.40
581.9489, 11323.40
582.4310, 11342.50
582.9132, 11345.88
583.3953, 11335.19
583.8774, 11302.02
584.3596, 11262.90
584.8417, 11230.35
585.3238, 11201.39
585.8059, 11168.35
586.2880, 11128.66
586.7701, 11084.73
587.2523, 11039.70
587.7344, 10993.50
588.2165, 10947.86
588.6986, 10904.38
589.1807, 10859.21
589.6628, 10799.52
590.1450, 10743.13
590.6271, 10716.11
591.1092, 10726.37
591.5913, 10737.24
592.0734, 10717.35
592.5555, 10686.03
593.0377, 10680.57
593.5198, 10700.22
594.0019, 10709.54
594.4840, 10687.64
594.9661, 10644.13
595.4482, 10603.51
595.9304, 10561.82
596.4125, 10530.22
596.8946, 10498.91
597.3767, 10485.65
597.8588, 10515.99
598.3409, 10569.43
598.8231, 10601.69
599.3052, 10590.55
599.7873, 10563.32
600.2694, 10549.66
600.7515, 10546.92
601.2336, 10543.84
601.7158, 10538.96
602.1979, 10530.52
602.6800, 10512.86
603.1621, 10489.68
603.6442, 10490.01
604.1263, 10557.03
604.6085, 10587.72
605.0906, 10522.75
605.5727, 10449.11
606.0548, 10449.91
606.5369, 10518.21
607.0190, 10583.07
607.5012, 10594.19
607.9833, 10574.86
608.4654, 10575.47
608.9475, 10596.33
609.4296, 10602.50
609.9117, 10578.33
610.3939, 10550.07
610.8760, 10549.46
611.3581, 10576.63
611.8402, 10584.79
612.3223, 10551.55
612.8044, 10523.83
613.2866, 10529.03
613.7687, 10544.29
614.2508, 10535.59
614.7329, 10499.60
615.2150, 10467.05
615.6971, 10471.59
616.1793, 10502.40
616.6614, 10509.99
617.1435, 10491.21
617.6256, 10463.96
618.1077, 10425.00
618.5898, 10389.67
619.0720, 10382.22
619.5541, 10403.24
620.0362, 10421.36
620.5183, 10423.36
621.0004, 10429.10
621.4825, 10454.02
621.9647, 10489.62
622.4468, 10521.63
622.9289, 10545.17
623.4110, 10562.85
623.8931, 10575.57
624.3752, 10583.87
624.8574, 10599.71
625.3395, 10625.48
625.8216, 10651.61
626.3037, 10665.50
626.7858, 10683.61
627.2679, 10735.40
627.7501, 10829.19
628.2322, 10901.25
628.7143, 10917.59
629.1964, 10921.91
629.6785, 10943.41
630.1606, 10980.69
630.6428, 11025.93
631.1249, 11075.97
631.6070, 11129.75
632.0891, 11189.01
632.5712, 11254.86
633.0533, 11305.04
633.5355, 11338.15
634.0176, 11358.55
634.4997, 11361.22
634.9818, 11355.02
635.4639, 11352.76
635.9460, 11356.00
636.4282, 11358.74
636.9103, 11361.50
637.3924, 11360.85
637.8745, 11354.85
638.3566, 11342.75
638.8387, 11320.54
639.3209, 11286.15
639.8030, 11250.54
640.2851, 11239.98
640.7672, 11259.92
641.2493, 11237.96
641.7314, 11155.20
642.2136, 11061.92
642.6957, 10968.28
643.1778, 10886.48
643.6599, 10842.09
644.1420, 10851.36
644.6241, 10845.90
645.1063, 10789.38
645.5884, 10718.94
646.0705, 10666.00
646.5526, 10628.83
647.0347, 10596.92
647.5168, 10565.73
647.9990, 10528.48
648.4811, 10461.55
648.9632, 10358.40
649.4453, 10317.97
649.9274, 10376.38
650.4095, 10432.22
650.8917, 10424.34
651.3738, 10379.93
651.8559, 10345.71
652.3380, 10320.56
652.8201, 10315.20
653.3022, 10351.55
653.7844, 10393.75
654.2665, 10403.20
654.7486, 10392.20
655.2307, 10398.99
655.7128, 10441.65
656.1949, 10504.31
656.6771, 10567.29
657.1592, 10630.53
657.6413, 10677.67
658.1234, 10695.25
658.6055, 10729.95
659.0876, 10812.21
659.5698, 10927.53
660.0519, 11041.90
660.5340, 11153.40
661.0161, 11270.44
661.4982, 11374.34
661.9803, 11502.81
662.4625, 11694.92
662.9446, 11931.63
663.4267, 12163.47
663.9088, 12370.38
664.3909, 12584.05
664.8730, 12843.09
665.3552, 13146.12
665.8373, 13488.09
666.3194, 13877.42
666.8015, 14261.63
667.2836, 14603.70
667.7657, 14929.65
668.2479, 15301.35
668.7300, 15744.54
669.2121, 16147.51
669.6942, 16521.12
670.1763, 16831.48
670.6584, 17082.17
671.1406, 17248.31
671.6227, 17292.99
672.1048, 17203.74
672.5869, 16993.77
673.0690, 16659.66
673.5511, 16216.38
674.0333, 15698.48
674.5154, 15103.38
674.9975, 14517.06
675.4796, 13975.24
675.9617, 13471.64
676.4438, 12992.38
676.9260, 12521.42
677.4081, 12131.38
677.8902, 11857.10
678.3723, 11616.92
678.8544, 11387.97
679.3365, 11173.75
679.8187, 10979.67
680.3008, 10807.51
680.7829, 10663.70
681.2650, 10567.43
681.7471, 10495.90
682.2292, 10410.00
682.7114, 10313.19
683.1935, 10230.25
683.6756, 10171.18
684.1577, 10125.00
684.6398, 10078.55
685.1219, 10031.82
685.6041, 9983.244
686.0862, 9926.273
686.5683, 9877.163
687.0504, 9841.922
687.5325, 9814.034
688.0146, 9787.578
688.4968, 9762.205
688.9789, 9741.042
689.4610, 9729.791
689.9431, 9719.426
690.4252, 9696.757
690.9073, 9669.788
691.3895, 9659.899
691.8716, 9670.746
692.3537, 9682.477
692.8358, 9676.690
693.3179, 9654.614
693.8000, 9619.862
694.2822, 9562.550
694.7643, 9523.432
695.2464, 9514.629
695.7285, 9523.632
696.2106, 9551.120
696.6927, 9589.981
697.1749, 9604.907
697.6570, 9565.098
698.1391, 9531.104
698.6212, 9543.782
699.1033, 9563.994
699.5854, 9538.654
700.0676, 9473.557
700.5497, 9420.871
701.0318, 9416.541
701.5139, 9436.542
701.9960, 9431.882
702.4781, 9414.727
702.9603, 9443.665
703.4424, 9458.006
703.9245, 9458.529
704.4066, 9403.859
704.8887, 9420.462
705.3708, 9408.502
705.8530, 9395.369
706.3351, 9422.004
706.8172, 9375.361
707.2993, 9401.365
707.7814, 9398.370
708.2635, 9408.647
708.7457, 9367.148
709.2278, 9362.496
709.7099, 9348.954
710.1920, 9334.939
710.6741, 9321.355
711.1563, 9306.879
711.6384, 9292.968
712.1205, 9292.448
712.6026, 9312.878
713.0847, 9341.764
713.5668, 9356.800
714.0490, 9354.063
714.5311, 9360.786
715.0132, 9391.885
715.4953, 9409.924
715.9774, 9387.974
716.4595, 9355.669
716.9417, 9346.520
717.4238, 9363.567
717.9059, 9378.336
718.3880, 9363.015
718.8701, 9359.564
719.3522, 9423.129
719.8344, 9511.418
720.3165, 9539.807
720.7986, 9495.063
721.2807, 9447.041
721.7628, 9462.924
722.2449, 9522.268
722.7271, 9551.309
723.2092, 9546.739
723.6913, 9556.547
724.1734, 9595.737
724.6555, 9643.479
725.1376, 9682.306
725.6198, 9712.588
726.1019, 9739.871
726.5840, 9747.833
727.0661, 9775.732
727.5482, 9853.907
728.0303, 9932.041
728.5125, 9975.916
728.9946, 9987.721
729.4767, 9979.334
729.9588, 9948.620
730.4409, 9923.547
730.9230, 9947.048
731.4052, 9989.830
731.8873, 9990.421
732.3694, 9946.056
732.8515, 9887.685
733.3336, 9831.196
733.8157, 9775.413
734.2979, 9716.377
734.7800, 9651.962
735.2621, 9597.687
735.7442, 9562.635
736.2263, 9521.778
736.7084, 9456.024
737.1906, 9382.761
737.6727, 9322.091
738.1548, 9274.847
738.6369, 9240.548
739.1190, 9222.522
739.6011, 9213.995
740.0833, 9221.867
740.5654, 9231.909
741.0475, 9218.777
741.5296, 9181.351
742.0117, 9084.216
742.4938, 9113.773
742.9760, 9126.481
743.4581, 9123.250
743.9402, 9056.334
744.4223, 9071.653
744.9044, 9054.017
745.3865, 9035.028
745.8687, 9061.921
746.3508, 9004.266
746.8329, 9030.433
747.3150, 9023.140
747.7971, 9031.159
748.2792, 9006.020
748.7614, 8991.119
749.2435, 9016.392
749.7256, 9007.042
750.2077, 9015.764
750.6898, 9056.917
751.1719, 9080.268
751.6541, 9040.538
752.1362, 8987.619
752.6183, 8975.691
753.1004, 8993.841
753.5825, 9005.494
754.0646, 8996.322
754.5468, 8975.619
755.0289, 8952.495
755.5110, 8927.540
755.9931, 8900.498
756.4752, 8869.938
756.9573, 8860.229
757.4395, 8887.671
757.9216, 8919.667
758.4037, 8915.621
758.8858, 8874.301
759.3679, 8843.188
759.8500, 8818.635
760.3322, 8810.025
760.8143, 8835.654
761.2964, 8863.512
761.7785, 8870.527
762.2606, 8858.338
762.7427, 8839.201
763.2249, 8812.973
763.7070, 8789.498
764.1891, 8774.077
764.6712, 8765.713
765.1533, 8769.587
765.6354, 8780.150
766.1176, 8776.282
766.5997, 8746.649
767.0818, 8707.761
767.5639, 8684.043
768.0460, 8674.913
768.5281, 8672.518
769.0103, 8676.860
769.4924, 8687.289
769.9745, 8705.581
770.4566, 8726.363
770.9387, 8740.991
771.4208, 8747.966
771.9030, 8760.215
772.3851, 8798.665
772.8672, 8815.311
773.3493, 8783.575
773.8314, 8738.962
774.3135, 8708.093
774.7957, 8693.298
775.2778, 8690.463
775.7599, 8693.820
776.2420, 8735.397
776.7241, 8760.129
777.2062, 8768.919
777.6884, 8714.024
778.1705, 8741.366
778.6526, 8735.751
779.1347, 8728.785
779.6168, 8767.702
780.0989, 8722.069
780.5811, 8760.260
781.0632, 8697.348
781.5453, 8629.227
782.0274, 8579.754
782.5095, 8570.491
782.9916, 8578.813
783.4738, 8566.010
783.9559, 8523.078
784.4380, 8518.412
784.9201, 8596.388
785.4022, 8653.838
785.8843, 8662.247
786.3665, 8647.880
786.8486, 8627.302
787.3307, 8603.701
787.8128, 8583.261
788.2949, 8559.526
788.7770, 8550.708
789.2592, 8577.495
789.7413, 8617.458
790.2234, 8649.402
790.7055, 8669.816
791.1876, 8679.547
791.6697, 8678.997
792.1519, 8668.781
792.6340, 8642.056
793.1161, 8606.394
793.5982, 8596.469
794.0803, 8613.012
794.5624, 8614.700
795.0446, 8581.853
795.5267, 8538.716
796.0088, 8520.383
796.4909, 8528.123
796.9730, 8521.021
797.4551, 8491.371
797.9373, 8462.005
798.4194, 8433.898
798.9015, 8411.898
799.3836, 8402.636
799.8657, 8403.413
800.3478, 8401.738
800.8300, 8397.561
801.3121, 8388.411
801.7942, 8365.627
802.2763, 8344.543
802.7584, 8334.877
803.2405, 8337.365
803.7227, 8354.672
804.2048, 8388.732
804.6869, 8418.741
805.1690, 8425.816
805.6511, 8418.006
806.1332, 8398.599
806.6154, 8375.045
807.0975, 8378.428
807.5796, 8417.382
808.0617, 8456.535
808.5438, 8457.192
809.0259, 8428.500
809.5081, 8413.738
809.9902, 8414.330
810.4723, 8419.507
810.9544, 8431.403
811.4365, 8436.232
811.9186, 8419.096
812.4008, 8388.242
812.8829, 8373.128
813.3650, 8386.274
813.8471, 8391.834
814.3292, 8392.022
814.8113, 8382.392
815.2935, 8346.272
815.7756, 8306.747
816.2577, 8298.298
816.7398, 8326.124
817.2219, 8350.771
817.7040, 8354.266
818.1862, 8351.617
818.6683, 8348.900
819.1504, 8348.677
819.6325, 8359.404
820.1146, 8377.664
820.5967, 8384.620
821.0789, 8366.827
821.5610, 8336.058
822.0431, 8298.901
822.5252, 8263.553
823.0073, 8269.562
823.4894, 8316.750
823.9716, 8340.600
824.4537, 8305.216
824.9358, 8251.480
825.4179, 8248.327
825.9000, 8298.557
826.3821, 8334.087
826.8643, 8354.934
827.3464, 8358.981
827.8285, 8334.280
828.3106, 8307.842
828.7927, 8315.119
829.2748, 8351.562
829.7570, 8354.503
830.2391, 8286.371
830.7212, 8240.518
831.2033, 8242.584
831.6854, 8254.560
832.1675, 8250.909
832.6497, 8240.484
833.1318, 8244.073
833.6139, 8268.132
834.0960, 8294.276
834.5781, 8327.290
835.0602, 8345.553
835.5424, 8323.640
836.0245, 8276.103
836.5066, 8218.811
836.9887, 8161.785
837.4708, 8131.339
837.9529, 8153.455
838.4351, 8202.785
838.9172, 8249.591
839.3993, 8287.568
839.8814, 8285.247
840.3635, 8241.207
840.8456, 8195.990
841.3278, 8172.287
841.8099, 8166.913
842.2920, 8179.781
842.7741, 8213.745
843.2562, 8219.224
843.7383, 8185.842
844.2205, 8159.895
844.7026, 8156.363
845.1847, 8168.363
845.6668, 8195.619
846.1489, 8236.777
846.6310, 8249.125
847.1132, 8202.612
847.5953, 8170.005
848.0774, 8154.139
848.5595, 8155.340
849.0416, 8190.927
849.5237, 8239.066
850.0059, 8252.766
850.4880, 8215.273
850.9701, 8187.188
851.4522, 8207.365
851.9343, 8226.048
852.4164, 8200.306
852.8986, 8156.504
853.3807, 8135.735
853.8628, 8142.793
854.3449, 8152.581
854.8270, 8148.246
855.3091, 8141.741
855.7913, 8148.930
856.2734, 8163.227
856.7555, 8172.133
857.2376, 8174.516
857.7197, 8175.103
858.2018, 8176.482
858.6840, 8171.631
859.1661, 8141.256
859.6482, 8092.952
860.1303, 8081.583
860.6124, 8108.171
861.0945, 8128.178
861.5767, 8127.760
862.0588, 8121.384
862.5409, 8123.430
863.0230, 8130.968
863.5051, 8125.050
863.9872, 8092.690
864.4694, 8089.596
864.9515, 8143.599
865.4336, 8188.656
865.9157, 8187.597
866.3978, 8157.003
866.8799, 8120.776
867.3621, 8073.252
867.8442, 8050.883
868.3263, 8087.812
868.8084, 8108.276
869.2905, 8068.925
869.7726, 8021.582
870.2548, 8015.677
870.7369, 8044.655
871.2190, 8071.445
871.7011, 8089.593
872.1832, 8094.437
872.6653, 8069.355
873.1475, 8042.710
873.6296, 8043.843
874.1117, 8061.038
874.5938, 8067.249
875.0759, 8056.148
875.5580, 8047.762
876.0402, 8063.859
876.5223, 8084.867
877.0044, 8083.920
877.4865, 8069.215
877.9686, 8057.924
878.4507, 8052.864
878.9329, 8051.635
879.4150, 8053.265
879.8971, 8053.887
880.3792, 8043.698
880.8613, 8026.406
881.3434, 8026.553
881.8256, 8044.135
882.3077, 8045.081
882.7898, 8014.818
883.2719, 7992.227
883.7540, 8025.186
884.2361, 8095.786
884.7183, 8098.948
885.2004, 8014.850
885.6825, 7958.949
886.1646, 7951.547
886.6467, 7956.498
887.1288, 7955.355
887.6110, 7952.207
888.0931, 7954.042
888.5752, 7959.858
889.0573, 7975.676
889.5394, 8016.329
890.0215, 8045.973
890.5037, 8051.514
890.9858, 8048.336
891.4679, 8049.389
891.9500, 8051.998
892.4321, 8043.368
892.9142, 8005.569
893.3964, 7990.349
893.8785, 8022.898
894.3606, 8065.620
894.8427, 8114.311
895.3248, 8150.525
895.8069, 8143.574
896.2891, 8092.972
896.7712, 8046.586
897.2533, 8021.945
897.7354, 8013.928
898.2175, 8029.149
898.6996, 8052.226
899.1818, 8061.051
899.6639, 8061.479
900.1460, 8078.668
900.6281, 8123.127
901.1102, 8168.735
901.5923, 8188.622
902.0745, 8197.036
902.5566, 8216.686
903.0387, 8242.146
903.5208, 8257.860
904.0029, 8261.066
904.4850, 8260.308
904.9672, 8261.726
905.4493, 8262.042
905.9314, 8246.052
906.4135, 8223.372
906.8956, 8246.164
907.3777, 8313.071
907.8599, 8360.081
908.3420, 8362.069
908.8241, 8343.280
909.3062, 8330.438
909.7883, 8321.059
910.2704, 8295.253
910.7526, 8248.985
911.2347, 8247.314
911.7169, 8313.071
912.1990, 8357.735
912.6811, 8320.687
913.1632, 8246.505
913.6453, 8221.186
914.1274, 8252.772
914.6096, 8264.935
915.0917, 8246.274
915.5738, 8237.242
916.0559, 8257.643
916.5380, 8276.387
917.0201, 8262.172
917.5023, 8225.235
917.9844, 8208.649
918.4665, 8222.904
918.9486, 8236.690
919.4307, 8246.141
919.9128, 8259.887
920.3950, 8283.241
920.8771, 8310.712
921.3592, 8340.138
921.8413, 8370.092
922.3234, 8386.516
922.8055, 8368.766
923.2877, 8363.958
923.7698, 8390.618
924.2519, 8424.703
924.7340, 8390.054
925.2161, 8477.197
925.6982, 8527.839
926.1804, 8543.943
926.6625, 8422.061
927.1446, 8478.359
927.6267, 8433.690
928.1088, 8485.012
928.5909, 8519.485
929.0731, 8538.023
929.5552, 8492.871
930.0373, 8529.957
930.5194, 8534.086
931.0015, 8536.864
931.4836, 8585.523
931.9658, 8549.640
932.4479, 8426.300
932.9300, 8358.017
933.4121, 8299.825
933.8942, 8257.838
934.3763, 8225.767
934.8585, 8203.126
935.3406, 8177.154
935.8227, 8119.465
936.3048, 8057.981
936.7869, 8044.748
937.2690, 8068.446
937.7512, 8088.895
938.2333, 8093.665
938.7154, 8091.248
939.1975, 8089.110
939.6796, 8083.530
940.1617, 8063.348
940.6439, 8034.821
941.1260, 8017.573
941.6081, 8012.622
942.0902, 8012.043
942.5723, 8012.388
943.0544, 8015.021
943.5366, 8022.995
944.0187, 8033.566
944.5008, 8036.240
944.9829, 8032.024
945.4650, 8032.625
945.9471, 8039.834
946.4293, 8036.844
946.9114, 8012.642
947.3935, 7980.344
947.8756, 7954.933
948.3577, 7938.831
948.8398, 7985.009
949.3220, 8100.087
949.8041, 8160.614
950.2862, 8129.542
950.7683, 8084.455
951.2504, 8080.827
951.7325, 8108.966
952.2147, 8148.189
952.6968, 8201.045
953.1789, 8246.081
953.6610, 8283.652
954.1431, 8310.883
954.6252, 8323.544
955.1074, 8333.398
955.5895, 8348.896
956.0716, 8372.211
956.5537, 8413.221
957.0358, 8475.026
957.5179, 8544.804
958.0001, 8617.700
958.4822, 8710.081
958.9643, 8835.261
959.4464, 8972.525
959.9285, 9094.683
960.4106, 9204.483
960.8928, 9335.442
961.3749, 9489.423
961.8570, 9660.641
962.3391, 9852.889
962.8212, 10055.74
963.3033, 10263.60
963.7855, 10478.47
964.2676, 10706.77
964.7497, 10948.09
965.2318, 11183.89
965.7139, 11418.27
966.1960, 11640.76
966.6782, 11861.09
967.1603, 12058.73
967.6424, 12229.56
968.1245, 12366.76
968.6066, 12457.65
969.0887, 12499.46
969.5709, 12515.37
970.0530, 12514.39
970.5351, 12476.85
971.0172, 12392.37
971.4993, 12276.89
971.9814, 12144.39
972.4636, 11988.12
972.9457, 11791.08
973.4278, 11549.31
973.9099, 11285.76
974.3920, 10978.70
974.8741, 10683.63
975.3563, 10418.65
975.8384, 10169.81
976.3205, 9925.390
976.8026, 9687.915
977.2847, 9460.275
977.7668, 9238.007
978.2490, 9048.290
978.7311, 8906.183
979.2132, 8783.814
979.6953, 8680.036
980.1774, 8581.918
980.6595, 8469.594
981.1417, 8352.526
981.6238, 8269.245
982.1059, 8244.275
982.5880, 8200.338
983.0701, 8080.524
983.5522, 7976.132
984.0344, 7950.362
984.5165, 7952.417
984.9986, 7922.310
985.4807, 7864.795
985.9628, 7826.799
986.4449, 7831.167
986.9271, 7827.632
987.4092, 7797.061
987.8913, 7754.555
988.3734, 7694.988
988.8555, 7638.196
989.3376, 7613.655
989.8198, 7616.420
990.3019, 7608.677
990.7840, 7578.128
991.2661, 7536.344
991.7482, 7471.752
992.2303, 7414.767
992.7125, 7384.559
993.1946, 7375.659
993.6767, 7384.713
994.1588, 7407.468
994.6409, 7426.694
995.1230, 7427.410
995.6052, 7442.662
996.0873, 7513.439
996.5694, 7577.604
997.0515, 7581.586
997.5336, 7554.071
998.0157, 7541.535
998.4979, 7547.002
998.9800, 7535.469
999.4621, 7473.771
999.9442, 7429.860
1000.426, 7454.917
1000.908, 7491.158
1001.391, 7497.558
1001.873, 7483.388
1002.355, 7463.513
1002.837, 7441.972
1003.319, 7423.884
1003.801, 7416.014
1004.283, 7403.971
1004.765, 7360.428
1005.247, 7330.275
1005.730, 7368.738
1006.212, 7434.410
1006.694, 7461.728
1007.176, 7442.927
1007.658, 7414.471
1008.140, 7385.782
1008.622, 7358.966
1009.104, 7329.820
1009.587, 7308.107
1010.069, 7309.665
1010.551, 7319.738
1011.033, 7306.083
1011.515, 7270.087
1011.997, 7264.952
1012.479, 7340.039
1012.961, 7402.404
1013.443, 7401.778
1013.926, 7383.375
1014.408, 7380.187
1014.890, 7382.274
1015.372, 7365.424
1015.854, 7330.091
1016.336, 7311.511
1016.818, 7340.273
1017.300, 7358.142
1017.783, 7334.253
1018.265, 7300.032
1018.747, 7267.823
1019.229, 7245.047
1019.711, 7247.192
1020.193, 7271.440
1020.675, 7281.446
1021.157, 7254.632
1021.639, 7230.902
1022.122, 7229.792
1022.604, 7229.461
1023.086, 7216.132
1023.568, 7195.029
1024.050, 7168.669
1024.532, 7140.497
1025.014, 7129.948
1025.496, 7156.482
1025.979, 7176.332
1026.461, 7164.395
1026.943, 7157.820
1027.425, 7188.498
1027.907, 7229.367
1028.389, 7244.134
1028.871, 7233.502
1029.353, 7228.542
1029.835, 7241.885
1030.318, 7248.662
1030.800, 7238.112
1031.282, 7227.314
1031.764, 7229.348
1032.246, 7231.962
1032.728, 7214.942
1033.210, 7182.826
1033.692, 7170.592
1034.174, 7196.561
1034.657, 7214.986
1035.139, 7209.649
1035.621, 7210.618
1036.103, 7251.236
1036.585, 7286.963
1037.067, 7253.938
1037.549, 7171.144
1038.031, 7144.430
1038.514, 7225.260
1038.996, 7263.101
1039.478, 7221.467
1039.960, 7185.288
1040.442, 7174.220
1040.924, 7182.914
1041.406, 7221.221
1041.888, 7274.167
1042.370, 7283.611
1042.853, 7223.601
1043.335, 7197.273
1043.817, 7227.642
1044.299, 7248.773
1044.781, 7242.378
1045.263, 7222.829
1045.745, 7195.387
1046.227, 7166.890
1046.709, 7156.292
1047.192, 7166.643
1047.674, 7180.982
1048.156, 7205.070
1048.638, 7215.513
1049.120, 7201.560
1049.602, 7186.458
1050.084, 7187.015
1050.566, 7195.785
1051.049, 7197.902
1051.531, 7193.339
1052.013, 7182.238
1052.495, 7163.540
1052.977, 7141.314
1053.459, 7113.299
1053.941, 7096.808
1054.423, 7103.530
1054.906, 7122.733
1055.388, 7139.709
1055.870, 7153.247
1056.352, 7149.179
1056.834, 7126.964
1057.316, 7114.710
1057.798, 7116.317
1058.280, 7135.847
1058.762, 7177.646
1059.245, 7214.089
1059.727, 7208.706
1060.209, 7173.125
1060.691, 7143.053
1061.173, 7119.091
1061.655, 7108.383
1062.137, 7109.780
1062.619, 7104.324
1063.101, 7085.037
1063.584, 7067.830
1064.066, 7068.470
1064.548, 7079.156
1065.030, 7087.433
1065.512, 7092.649
1065.994, 7091.958
1066.476, 7086.322
1066.958, 7076.617
1067.441, 7064.964
1067.923, 7066.129
1068.405, 7096.305
1068.887, 7124.200
1069.369, 7099.040
1069.851, 7054.170
1070.333, 7040.040
1070.815, 7049.700
1071.297, 7065.239
1071.780, 7081.144
1072.262, 7095.674
1072.744, 7109.186
1073.226, 7114.486
1073.708, 7096.581
1074.190, 7076.766
1074.672, 7082.811
1075.154, 7095.130
1075.636, 7078.265
1076.119, 7041.483
1076.601, 7029.133
1077.083, 7059.166
1077.565, 7077.359
1078.047, 7040.201
1078.529, 7004.961
1079.011, 7007.730
1079.494, 7023.183
1079.976, 7036.146
1080.458, 7040.057
1080.940, 7019.190
1081.422, 6969.618
1081.904, 6943.769
1082.386, 6981.195
1082.868, 7004.644
1083.350, 6981.894
1083.833, 6954.457
1084.315, 6938.841
1084.797, 6937.831
1085.279, 6959.376
1085.761, 7002.567
1086.243, 7036.099
1086.725, 7064.977
1087.207, 7074.086
1087.689, 7052.308
1088.172, 7027.729
1088.654, 7006.813
1089.136, 6991.521
1089.618, 6982.856
1090.100, 6981.665
1090.582, 6993.723
1091.064, 7025.226
1091.546, 7041.848
1092.029, 7042.509
1092.511, 7030.093
1092.993, 7001.810
1093.475, 6974.803
1093.957, 6960.880
1094.439, 6957.523
1094.921, 6959.543
1095.403, 6967.505
1095.885, 6991.633
1096.368, 7030.783
1096.850, 7058.377
1097.332, 7070.278
1097.814, 7073.009
1098.296, 7069.896
1098.778, 7054.857
1099.260, 7012.195
1099.742, 6963.524
1100.224, 6970.304
1100.707, 7008.648
1101.189, 7005.474
1101.671, 6967.382
1102.153, 6942.096
1102.635, 6945.371
1103.117, 6974.973
1103.599, 7045.240
1104.081, 7097.849
1104.564, 7050.430
1105.046, 6966.083
1105.528, 6912.833
1106.010, 6886.410
1106.492, 6872.521
1106.974, 6868.336
1107.456, 6876.549
1107.938, 6899.746
1108.421, 6927.152
1108.903, 6964.651
1109.385, 6990.741
1109.867, 6981.433
1110.349, 6963.954
1110.831, 6968.964
1111.313, 6985.845
1111.795, 6983.427
1112.277, 6954.823
1112.760, 6936.521
1113.242, 6943.641
1113.724, 6947.461
1114.206, 6930.689
1114.688, 6923.828
1115.170, 6952.874
1115.652, 6990.816
1116.134, 7006.163
1116.616, 7000.278
1117.099, 6981.978
1117.581, 6940.127
1118.063, 6924.438
1118.545, 6945.921
1119.027, 6962.713
1119.509, 6962.223
1119.991, 6952.725
1120.473, 6939.979
1120.956, 6924.558
1121.438, 6903.608
1121.920, 6878.907
1122.402, 6882.229
1122.884, 6911.355
1123.366, 6932.222
1123.848, 6939.604
1124.330, 6954.991
1124.813, 6989.095
1125.295, 7008.980
1125.777, 6966.035
1126.259, 6900.841
1126.741, 6892.081
1127.223, 6915.577
1127.705, 6929.266
1128.187, 6927.842
1128.669, 6902.337
1129.151, 6857.667
1129.634, 6835.130
1130.116, 6865.521
1130.598, 6902.956
1131.080, 6915.954
1131.562, 6918.925
1132.044, 6931.568
1132.526, 6936.094
1133.008, 6892.162
1133.491, 6821.281
1133.973, 6799.210
1134.455, 6852.685
1134.937, 6883.654
1135.419, 6837.644
1135.901, 6810.510
1136.383, 6851.759
1136.865, 6893.687
1137.348, 6889.620
1137.830, 6865.130
1138.312, 6857.977
1138.794, 6864.934
1139.276, 6840.097
1139.758, 6753.352
1140.240, 6739.493
1140.722, 6830.932
1141.204, 6894.389
1141.687, 6882.951
1142.169, 6851.957
1142.651, 6846.010
1143.133, 6848.271
1143.615, 6815.058
1144.097, 6755.869
1144.579, 6747.454
1145.061, 6781.964
1145.543, 6809.434
1146.026, 6821.436
1146.508, 6817.265
1146.990, 6797.500
1147.472, 6782.272
1147.954, 6794.704
1148.436, 6813.808
1148.918, 6805.417
1149.400, 6790.776
1149.883, 6812.542
1150.365, 6847.434
1150.847, 6838.377
1151.329, 6786.577
1151.811, 6750.409
1152.293, 6756.182
1152.775, 6764.251
1153.257, 6751.930
1153.740, 6743.255
1154.222, 6762.884
1154.704, 6779.506
1155.186, 6756.173
1155.668, 6713.545
1156.150, 6698.865
1156.632, 6717.128
1157.114, 6721.484
1157.596, 6694.284
1158.078, 6692.723
1158.561, 6733.225
1159.043, 6769.471
1159.525, 6782.898
1160.007, 6790.770
1160.489, 6812.802
1160.971, 6833.937
1161.453, 6802.722
1161.935, 6724.925
1162.418, 6707.525
1162.900, 6745.316
1163.382, 6781.961
1163.864, 6804.305
1164.346, 6786.962
1164.828, 6718.844
1165.310, 6657.768
1165.792, 6667.224
1166.275, 6705.393
1166.757, 6721.972
1167.239, 6725.437
1167.721, 6721.362
1168.203, 6717.169
1168.685, 6730.283
1169.167, 6757.255
1169.649, 6768.432
1170.131, 6748.885
1170.614, 6729.091
1171.096, 6718.021
1171.578, 6713.834
1172.060, 6724.036
1172.542, 6732.667
1173.024, 6722.530
1173.506, 6704.770
1173.988, 6700.621
1174.470, 6709.832
1174.953, 6718.025
1175.435, 6725.293
1175.917, 6731.541
1176.399, 6737.314
1176.881, 6740.610
1177.363, 6741.432
1177.845, 6734.974
1178.327, 6715.626
1178.810, 6694.066
1179.292, 6693.734
1179.774, 6708.035
1180.256, 6707.547
1180.738, 6697.070
1181.220, 6697.734
1181.702, 6707.767
1182.184, 6703.097
1182.667, 6678.359
1183.149, 6665.917
1183.631, 6694.571
1184.113, 6727.808
1184.595, 6746.645
1185.077, 6744.503
1185.559, 6692.793
1186.041, 6633.072
1186.523, 6622.824
1187.005, 6649.940
1187.488, 6661.848
1187.970, 6646.194
1188.452, 6642.528
1188.934, 6669.279
1189.416, 6686.528
1189.898, 6679.655
1190.380, 6681.139
1190.862, 6713.829
1191.345, 6743.305
1191.827, 6730.137
1192.309, 6691.449
1192.791, 6683.454
1193.273, 6705.415
1193.755, 6713.104
1194.237, 6707.053
1194.719, 6691.997
1195.202, 6671.925
1195.684, 6678.851
1196.166, 6725.863
1196.648, 6762.718
1197.130, 6733.574
1197.612, 6688.032
1198.094, 6689.631
1198.576, 6706.219
1199.058, 6697.937
1199.541, 6675.851
1200.023, 6660.566
1200.505, 6653.789
1200.987, 6594.135
1201.469, 6630.712
1201.951, 6650.442
1202.433, 6654.231
1202.915, 6594.334
1203.397, 6616.675
1203.880, 6606.054
1204.362, 6594.085
1204.844, 6628.000
1205.326, 6577.366
1205.808, 6610.553
1206.290, 6610.280
1206.772, 6625.321
1207.254, 6607.202
1207.737, 6599.320
1208.219, 6624.614
1208.701, 6631.541
1209.183, 6609.604
1209.665, 6625.617
1210.147, 6573.825
1210.629, 6581.533
1211.111, 6614.915
1211.594, 6621.075
1212.076, 6631.299
1212.558, 6634.015
1213.040, 6634.459
1213.522, 6647.739
1214.004, 6667.875
1214.486, 6664.346
1214.968, 6622.470
1215.450, 6605.085
1215.932, 6660.848
1216.415, 6690.891
1216.897, 6652.611
1217.379, 6618.000
1217.861, 6619.853
1218.343, 6636.083
1218.825, 6648.672
1219.307, 6652.460
1219.789, 6622.144
1220.272, 6559.234
1220.754, 6550.879
1221.236, 6591.355
1221.718, 6620.624
1222.200, 6628.747
1222.682, 6613.040
1223.164, 6575.283
1223.646, 6557.583
1224.129, 6608.411
1224.611, 6654.759
1225.093, 6592.548
1225.575, 6521.450
1226.057, 6553.393
1226.539, 6626.447
1227.021, 6671.373
1227.503, 6679.501
1227.985, 6642.739
1228.468, 6553.669
1228.950, 6506.430
1229.432, 6533.674
1229.914, 6558.943
1230.396, 6582.632
1230.878, 6591.398
1231.360, 6575.679
1231.842, 6561.426
1232.324, 6571.604
1232.807, 6587.232
1233.289, 6571.450
1233.771, 6532.871
1234.253, 6501.080
1234.735, 6476.743
1235.217, 6463.218
1235.699, 6459.218
1236.181, 6460.173
1236.664, 6464.822
1237.146, 6477.567
1237.628, 6506.843
1238.110, 6516.361
1238.592, 6450.560
1239.074, 6403.413
1239.556, 6454.786
1240.038, 6515.196
1240.521, 6504.627
1241.003, 6462.918
1241.485, 6451.600
1241.967, 6468.583
1242.449, 6504.957
1242.931, 6571.521
1243.413, 6597.773
1243.895, 6579.840
1244.377, 6557.781
1244.859, 6539.544
1245.342, 6529.140
1245.824, 6528.535
1246.306, 6527.973
1246.788, 6517.537
1247.270, 6502.983
1247.752, 6482.915
1248.234, 6471.521
1248.716, 6501.781
1249.199, 6543.595
1249.681, 6548.127
1250.163, 6522.577
1250.645, 6500.380
1251.127, 6487.265
1251.609, 6492.127
1252.091, 6532.317
1252.573, 6565.036
1253.056, 6596.368
1253.538, 6599.036
1254.020, 6554.025
1254.502, 6507.445
1254.984, 6492.827
1255.466, 6500.128
1255.948, 6517.665
1256.430, 6539.425
1256.912, 6536.844
1257.395, 6524.191
1257.877, 6559.657
1258.359, 6621.504
1258.841, 6625.846
1259.323, 6570.125
1259.805, 6535.580
1260.287, 6557.832
1260.769, 6582.163
1261.251, 6598.655
1261.734, 6588.597
1262.216, 6506.546
1262.698, 6440.945
1263.180, 6453.394
1263.662, 6496.616
1264.144, 6532.715
1264.626, 6557.867
1265.108, 6558.054
1265.591, 6534.170
1266.073, 6520.418
1266.555, 6517.137
1267.037, 6534.065
1267.519, 6566.229
1268.001, 6573.725
1268.483, 6547.728
1268.965, 6523.625
1269.448, 6522.557
1269.930, 6532.826
1270.412, 6554.408
1270.894, 6572.405
1271.376, 6577.759
1271.858, 6571.465
##END=



