##NAMES=Epidote
##RRUFFID=R050202
##IDEAL CHEMISTRY=Ca_2_Fe^3+^Al_2_(Si_2_O_7_)(SiO_4_)O(OH)
##LOCALITY=Iron Cap mine, Landsman Camp, Graham County, Arizona, USA
##OWNER=RRUFF
##SOURCE=Bob Downs
##DESCRIPTION=Green colored prismatic single crystal associated with quartz, diopside and tremolite
##STATUS=The identification of this mineral has been confirmed by X-ray diffraction and chemical analysis
##URL=rruff.info/R050202
##MEASURED CHEMISTRY=Ca_2.00_Al_2.00_(Fe^3+^_0.68_Al_0.32_)(SiO_4_)(Si_2_O_7_)O(OH)
92.96582, 1424.271
93.44794, 1410.567
93.93005, 1412.927
94.41217, 1429.974
94.89429, 1439.975
95.37640, 1446.402
95.85852, 1450.851
96.34064, 1453.606
96.82275, 1455.251
97.30487, 1455.385
97.78699, 1454.956
98.26910, 1457.406
98.75122, 1457.407
99.23334, 1453.258
99.71545, 1444.449
100.1976, 1426.755
100.6797, 1399.669
101.1618, 1366.716
101.6439, 1331.761
102.1260, 1294.129
102.6081, 1254.892
103.0903, 1216.419
103.5724, 1176.741
104.0545, 1140.423
104.5366, 1108.298
105.0187, 1079.877
105.5008, 1054.265
105.9830, 1030.602
106.4651, 1009.689
106.9472, 989.8440
107.4293, 974.9842
107.9114, 962.0619
108.3935, 950.7952
108.8757, 940.9436
109.3578, 932.3369
109.8399, 924.7725
110.3220, 918.4485
110.8041, 912.8577
111.2862, 907.4405
111.7684, 902.8697
112.2505, 900.2264
112.7326, 899.7872
113.2147, 900.2260
113.6968, 898.5807
114.1789, 893.3587
114.6611, 888.9686
115.1432, 886.4694
115.6253, 885.3491
116.1074, 884.5763
116.5895, 883.7225
117.0716, 882.9535
117.5538, 882.6356
118.0359, 882.9720
118.5180, 883.3730
119.0001, 883.3216
119.4822, 882.7972
119.9643, 882.4313
120.4465, 882.6337
120.9286, 883.1537
121.4107, 883.7501
121.8928, 884.3395
122.3749, 884.9841
122.8570, 885.7384
123.3392, 886.3617
123.8213, 887.6135
124.3034, 890.4435
124.7855, 893.8006
125.2676, 896.1863
125.7497, 896.3593
126.2319, 894.5679
126.7140, 894.3734
127.1961, 897.3252
127.6782, 900.6151
128.1603, 904.1209
128.6424, 907.4999
129.1246, 910.1526
129.6067, 911.4260
130.0888, 910.8927
130.5709, 911.1877
131.0530, 912.6564
131.5351, 914.4882
132.0173, 916.1852
132.4994, 917.7037
132.9815, 919.3837
133.4636, 921.7755
133.9457, 925.3460
134.4278, 928.0098
134.9100, 928.7902
135.3921, 928.9177
135.8742, 929.8360
136.3563, 931.9465
136.8384, 934.8288
137.3205, 938.2644
137.8027, 942.4288
138.2848, 945.6309
138.7669, 946.1600
139.2490, 944.8428
139.7311, 945.0597
140.2132, 948.4948
140.6954, 953.2847
141.1775, 957.3007
141.6596, 960.3938
142.1417, 963.4382
142.6238, 967.3304
143.1059, 972.2379
143.5881, 977.0145
144.0702, 981.1514
144.5523, 985.1734
145.0344, 989.8580
145.5165, 995.4797
145.9986, 1000.717
146.4807, 1002.779
146.9629, 999.1467
147.4450, 996.9365
147.9271, 996.9537
148.4092, 998.7379
148.8913, 1002.053
149.3734, 1006.819
149.8556, 1012.702
150.3377, 1018.354
150.8198, 1022.843
151.3019, 1028.151
151.7840, 1034.570
152.2661, 1041.981
152.7483, 1050.144
153.2304, 1058.947
153.7125, 1068.427
154.1946, 1078.403
154.6767, 1089.105
155.1588, 1099.946
155.6410, 1110.698
156.1231, 1121.377
156.6052, 1132.023
157.0873, 1142.584
157.5694, 1153.071
158.0515, 1163.831
158.5337, 1175.111
159.0158, 1186.456
159.4979, 1197.795
159.9800, 1209.155
160.4621, 1219.582
160.9442, 1228.295
161.4264, 1235.437
161.9085, 1240.999
162.3906, 1244.341
162.8727, 1246.249
163.3548, 1248.135
163.8369, 1250.328
164.3191, 1251.776
164.8012, 1251.392
165.2833, 1249.775
165.7654, 1248.152
166.2475, 1247.599
166.7296, 1247.774
167.2118, 1246.613
167.6939, 1243.257
168.1760, 1239.459
168.6581, 1235.614
169.1402, 1231.988
169.6223, 1229.077
170.1045, 1227.478
170.5866, 1227.306
171.0687, 1227.165
171.5508, 1227.524
172.0329, 1227.508
172.5150, 1227.043
172.9972, 1225.959
173.4793, 1223.909
173.9614, 1220.413
174.4435, 1215.051
174.9256, 1209.603
175.4077, 1204.360
175.8899, 1198.792
176.3720, 1191.919
176.8541, 1183.951
177.3362, 1176.586
177.8183, 1172.275
178.3004, 1173.138
178.7826, 1172.072
179.2647, 1167.693
179.7468, 1162.348
180.2289, 1157.446
180.7110, 1153.428
181.1931, 1150.775
181.6752, 1150.707
182.1574, 1154.652
182.6395, 1156.941
183.1216, 1156.206
183.6037, 1153.728
184.0858, 1150.837
184.5679, 1147.705
185.0501, 1145.037
185.5322, 1144.413
186.0143, 1145.935
186.4964, 1147.325
186.9785, 1148.071
187.4606, 1148.110
187.9428, 1147.106
188.4249, 1144.470
188.9070, 1141.450
189.3891, 1139.616
189.8712, 1138.995
190.3533, 1138.684
190.8355, 1138.268
191.3176, 1137.731
191.7997, 1136.981
192.2818, 1135.852
192.7639, 1134.590
193.2460, 1133.153
193.7282, 1131.530
194.2103, 1130.473
194.6924, 1130.790
195.1745, 1132.596
195.6566, 1134.710
196.1387, 1136.932
196.6209, 1139.417
197.1030, 1142.510
197.5851, 1146.220
198.0672, 1149.865
198.5493, 1152.314
199.0314, 1152.863
199.5136, 1154.550
199.9957, 1158.228
200.4778, 1162.692
200.9599, 1167.259
201.4420, 1171.768
201.9241, 1176.442
202.4063, 1181.800
202.8884, 1188.725
203.3705, 1194.610
203.8526, 1198.213
204.3347, 1201.622
204.8168, 1206.777
205.2990, 1214.114
205.7811, 1222.292
206.2632, 1228.763
206.7453, 1231.615
207.2274, 1235.338
207.7095, 1241.772
208.1917, 1248.134
208.6738, 1251.541
209.1559, 1251.056
209.6380, 1248.269
210.1201, 1246.329
210.6022, 1245.419
211.0844, 1245.192
211.5665, 1245.870
212.0486, 1247.150
212.5307, 1248.812
213.0128, 1250.809
213.4949, 1252.877
213.9771, 1254.369
214.4592, 1254.631
214.9413, 1255.777
215.4234, 1258.935
215.9055, 1263.063
216.3876, 1266.475
216.8698, 1268.489
217.3519, 1269.894
217.8340, 1272.143
218.3161, 1275.112
218.7982, 1278.811
219.2803, 1283.539
219.7625, 1289.005
220.2446, 1294.394
220.7267, 1299.121
221.2088, 1304.311
221.6909, 1312.080
222.1730, 1322.778
222.6552, 1332.845
223.1373, 1339.877
223.6194, 1344.695
224.1015, 1350.372
224.5836, 1357.835
225.0657, 1366.289
225.5479, 1374.643
226.0300, 1382.889
226.5121, 1391.429
226.9942, 1401.269
227.4763, 1411.990
227.9584, 1420.981
228.4406, 1426.681
228.9227, 1431.406
229.4048, 1437.518
229.8869, 1444.930
230.3690, 1451.467
230.8511, 1455.124
231.3333, 1455.960
231.8154, 1456.769
232.2975, 1459.123
232.7796, 1460.257
233.2617, 1458.359
233.7438, 1453.572
234.2260, 1447.495
234.7081, 1440.964
235.1902, 1433.863
235.6723, 1428.057
236.1544, 1425.186
236.6365, 1422.375
237.1187, 1418.107
237.6008, 1412.568
238.0829, 1407.025
238.5650, 1402.387
239.0471, 1398.554
239.5292, 1396.367
240.0114, 1397.423
240.4935, 1398.861
240.9756, 1399.345
241.4577, 1399.130
241.9398, 1399.418
242.4219, 1401.354
242.9041, 1405.066
243.3862, 1409.494
243.8683, 1415.572
244.3504, 1421.526
244.8325, 1427.060
245.3146, 1431.931
245.7968, 1435.788
246.2789, 1438.193
246.7610, 1439.004
247.2431, 1439.747
247.7252, 1440.476
248.2073, 1441.108
248.6895, 1441.888
249.1716, 1442.591
249.6537, 1442.676
250.1358, 1441.678
250.6179, 1439.551
251.1000, 1436.857
251.5822, 1432.574
252.0643, 1428.765
252.5464, 1426.781
253.0285, 1425.973
253.5106, 1424.683
253.9927, 1421.664
254.4748, 1416.929
254.9570, 1411.374
255.4391, 1404.669
255.9212, 1397.630
256.4033, 1390.765
256.8854, 1383.832
257.3676, 1376.253
257.8497, 1367.693
258.3318, 1358.150
258.8139, 1347.157
259.2960, 1334.376
259.7781, 1320.950
260.2603, 1306.834
260.7424, 1292.325
261.2245, 1277.918
261.7066, 1263.955
262.1887, 1250.387
262.6708, 1237.114
263.1530, 1223.340
263.6351, 1210.565
264.1172, 1199.855
264.5993, 1190.470
265.0814, 1180.441
265.5635, 1168.520
266.0457, 1155.788
266.5278, 1145.960
267.0099, 1139.401
267.4920, 1134.193
267.9741, 1130.168
268.4562, 1127.037
268.9384, 1124.329
269.4204, 1121.959
269.9026, 1119.723
270.3847, 1116.896
270.8668, 1112.723
271.3489, 1110.034
271.8310, 1110.978
272.3131, 1113.898
272.7953, 1115.625
273.2774, 1115.097
273.7595, 1113.292
274.2416, 1111.823
274.7237, 1110.910
275.2058, 1109.042
275.6880, 1105.442
276.1701, 1100.645
276.6522, 1095.827
277.1343, 1091.430
277.6164, 1086.311
278.0985, 1077.889
278.5807, 1066.550
279.0628, 1056.566
279.5449, 1049.796
280.0270, 1044.920
280.5091, 1039.749
280.9912, 1033.826
281.4734, 1028.295
281.9555, 1024.560
282.4376, 1022.241
282.9197, 1020.179
283.4018, 1017.972
283.8839, 1015.909
284.3661, 1014.540
284.8482, 1014.014
285.3303, 1013.432
285.8124, 1011.573
286.2945, 1009.118
286.7766, 1007.829
287.2588, 1009.007
287.7409, 1011.010
288.2230, 1011.959
288.7051, 1011.779
289.1872, 1011.380
289.6693, 1011.707
290.1515, 1012.023
290.6336, 1010.927
291.1157, 1007.585
291.5978, 1003.541
292.0799, 1000.202
292.5620, 997.5638
293.0442, 995.1670
293.5263, 992.9617
294.0084, 990.8232
294.4905, 988.4580
294.9726, 985.6083
295.4547, 983.1697
295.9369, 981.7603
296.4190, 981.3767
296.9011, 982.0821
297.3832, 984.4625
297.8653, 987.4796
298.3474, 989.7299
298.8296, 991.0533
299.3117, 992.8340
299.7938, 996.3513
300.2759, 1001.273
300.7580, 1005.738
301.2401, 1009.085
301.7223, 1012.265
302.2044, 1016.366
302.6865, 1021.267
303.1686, 1025.739
303.6507, 1029.241
304.1328, 1031.829
304.6150, 1033.445
305.0971, 1033.549
305.5792, 1033.723
306.0613, 1035.201
306.5434, 1037.671
307.0255, 1040.380
307.5077, 1043.639
307.9898, 1046.794
308.4719, 1048.292
308.9540, 1047.680
309.4361, 1046.748
309.9182, 1046.241
310.4004, 1046.200
310.8825, 1046.873
311.3646, 1048.829
311.8467, 1051.055
312.3288, 1052.182
312.8109, 1052.158
313.2931, 1051.391
313.7752, 1048.986
314.2573, 1046.414
314.7394, 1045.625
315.2215, 1047.477
315.7036, 1049.752
316.1858, 1050.219
316.6679, 1048.891
317.1500, 1047.351
317.6321, 1045.985
318.1142, 1044.681
318.5963, 1043.383
319.0785, 1042.101
319.5606, 1040.634
320.0427, 1038.616
320.5248, 1036.182
321.0069, 1034.248
321.4890, 1033.196
321.9712, 1032.404
322.4533, 1030.904
322.9354, 1028.909
323.4175, 1027.942
323.8996, 1029.172
324.3817, 1032.004
324.8639, 1034.849
325.3460, 1037.538
325.8281, 1040.388
326.3102, 1043.333
326.7923, 1046.554
327.2744, 1050.624
327.7566, 1056.207
328.2387, 1062.495
328.7208, 1068.008
329.2029, 1072.466
329.6850, 1077.738
330.1671, 1086.187
330.6493, 1095.715
331.1314, 1103.240
331.6135, 1107.707
332.0956, 1110.841
332.5777, 1113.957
333.0598, 1117.058
333.5420, 1120.467
334.0241, 1124.603
334.5062, 1128.846
334.9883, 1132.753
335.4704, 1136.534
335.9525, 1138.824
336.4347, 1137.840
336.9168, 1134.419
337.3989, 1131.848
337.8810, 1131.113
338.3631, 1130.989
338.8452, 1130.329
339.3274, 1129.176
339.8094, 1127.476
340.2916, 1124.283
340.7737, 1120.785
341.2558, 1119.200
341.7379, 1119.981
342.2200, 1121.683
342.7021, 1123.555
343.1843, 1125.465
343.6664, 1126.939
344.1485, 1126.823
344.6306, 1126.932
345.1127, 1129.654
345.5948, 1134.924
346.0770, 1139.687
346.5591, 1142.096
347.0412, 1142.794
347.5233, 1143.948
348.0054, 1146.480
348.4875, 1148.008
348.9697, 1147.264
349.4518, 1144.391
349.9339, 1139.923
350.4160, 1134.135
350.8981, 1126.623
351.3802, 1116.458
351.8624, 1103.757
352.3445, 1089.490
352.8266, 1072.988
353.3087, 1055.396
353.7908, 1038.476
354.2729, 1022.626
354.7551, 1007.028
355.2372, 990.4843
355.7193, 972.9276
356.2014, 956.6901
356.6835, 942.6345
357.1656, 929.5588
357.6478, 916.2664
358.1299, 902.7955
358.6120, 889.8661
359.0941, 877.8889
359.5762, 866.9664
360.0583, 857.0217
360.5405, 847.7981
361.0226, 839.6225
361.5047, 833.0126
361.9868, 827.5146
362.4689, 822.0518
362.9510, 816.1750
363.4332, 810.1277
363.9153, 804.6653
364.3974, 800.0254
364.8795, 795.3834
365.3616, 790.2497
365.8438, 785.2372
366.3259, 781.3143
366.8080, 778.6145
367.2901, 776.0790
367.7722, 772.3721
368.2543, 767.0951
368.7365, 762.3353
369.2186, 758.3864
369.7007, 754.6840
370.1828, 750.9297
370.6649, 747.1144
371.1470, 743.3580
371.6292, 739.7717
372.1113, 736.3260
372.5934, 732.6083
373.0755, 728.1116
373.5576, 723.9633
374.0397, 720.5858
374.5219, 717.6761
375.0040, 714.9193
375.4861, 712.1631
375.9682, 709.3080
376.4503, 706.1078
376.9324, 702.4677
377.4146, 698.5647
377.8967, 694.0282
378.3788, 689.5215
378.8609, 685.3771
379.3430, 681.7203
379.8251, 678.6537
380.3073, 676.4539
380.7894, 675.3639
381.2715, 673.3777
381.7536, 669.2324
382.2357, 665.4213
382.7178, 662.8799
383.2000, 661.2978
383.6821, 659.8511
384.1642, 657.9713
384.6463, 655.9714
385.1284, 655.1673
385.6105, 656.3419
386.0927, 657.4765
386.5748, 658.3285
387.0569, 658.9037
387.5390, 659.1592
388.0211, 659.0935
388.5032, 658.8554
388.9854, 658.7643
389.4675, 658.9706
389.9496, 658.5052
390.4317, 656.2120
390.9138, 654.1058
391.3959, 653.6156
391.8781, 654.3722
392.3602, 654.7535
392.8423, 653.6038
393.3244, 651.1077
393.8065, 648.0267
394.2886, 643.9929
394.7708, 640.1411
395.2529, 637.2490
395.7350, 634.7672
396.2171, 631.9081
396.6992, 628.2758
397.1813, 624.4564
397.6635, 620.9976
398.1456, 617.8855
398.6277, 615.4784
399.1098, 614.1021
399.5919, 613.3729
400.0740, 612.8153
400.5562, 612.4065
401.0383, 612.3260
401.5204, 612.6166
402.0025, 613.3116
402.4846, 614.5073
402.9667, 616.2302
403.4489, 618.3965
403.9310, 621.1274
404.4131, 624.2819
404.8952, 627.3765
405.3773, 629.6673
405.8594, 632.3645
406.3416, 637.0304
406.8237, 643.3567
407.3058, 649.0491
407.7879, 652.7820
408.2700, 655.2681
408.7521, 658.2718
409.2343, 661.4980
409.7164, 665.6844
410.1985, 671.6461
410.6806, 678.5067
411.1627, 684.8265
411.6448, 690.2699
412.1269, 695.7242
412.6090, 702.1624
413.0912, 709.7249
413.5733, 717.9073
414.0554, 727.4108
414.5375, 736.8928
415.0196, 745.3193
415.5017, 753.0177
415.9839, 761.0744
416.4660, 770.1160
416.9481, 780.1412
417.4302, 791.1746
417.9123, 804.7662
418.3944, 817.4840
418.8766, 828.3615
419.3587, 838.5687
419.8408, 849.0844
420.3229, 860.2147
420.8050, 872.1427
421.2871, 885.3298
421.7693, 900.5286
422.2514, 914.2341
422.7335, 926.2018
423.2156, 937.0899
423.6977, 947.0629
424.1798, 956.2196
424.6620, 964.7760
425.1441, 973.0682
425.6262, 980.6265
426.1083, 985.4749
426.5904, 986.5080
427.0725, 986.8742
427.5547, 986.9158
428.0368, 986.9371
428.5189, 987.2214
429.0010, 987.8311
429.4831, 988.5939
429.9652, 989.1773
430.4474, 989.5829
430.9295, 990.6432
431.4116, 992.4830
431.8937, 995.0076
432.3758, 998.6186
432.8579, 1002.826
433.3401, 1006.185
433.8222, 1007.200
434.3043, 1007.552
434.7864, 1010.294
435.2685, 1015.687
435.7506, 1020.721
436.2328, 1023.745
436.7149, 1025.792
437.1970, 1028.730
437.6791, 1033.063
438.1612, 1036.705
438.6433, 1037.740
439.1255, 1037.422
439.6076, 1038.638
440.0897, 1042.156
440.5718, 1046.001
441.0539, 1048.049
441.5360, 1048.274
442.0182, 1048.949
442.5003, 1050.348
442.9824, 1052.091
443.4645, 1054.265
443.9466, 1056.625
444.4287, 1058.228
444.9109, 1058.414
445.3930, 1058.066
445.8751, 1059.631
446.3572, 1064.059
446.8393, 1069.009
447.3214, 1074.663
447.8036, 1080.618
448.2857, 1086.654
448.7678, 1092.667
449.2499, 1098.629
449.7320, 1104.538
450.2141, 1110.426
450.6963, 1115.599
451.1784, 1119.608
451.6605, 1123.412
452.1426, 1126.922
452.6247, 1130.450
453.1068, 1134.542
453.5890, 1139.432
454.0711, 1144.484
454.5532, 1148.428
455.0353, 1151.020
455.5174, 1153.400
455.9995, 1154.900
456.4817, 1156.865
456.9638, 1160.469
457.4459, 1165.328
457.9280, 1169.778
458.4101, 1172.744
458.8922, 1174.476
459.3744, 1175.492
459.8565, 1175.400
460.3386, 1175.857
460.8207, 1178.622
461.3028, 1181.957
461.7849, 1183.554
462.2671, 1182.641
462.7492, 1181.680
463.2313, 1183.626
463.7134, 1187.038
464.1955, 1186.981
464.6776, 1181.774
465.1598, 1175.235
465.6419, 1171.717
466.1240, 1170.802
466.6061, 1167.619
467.0882, 1161.142
467.5703, 1152.639
468.0525, 1142.409
468.5346, 1130.819
469.0167, 1119.111
469.4988, 1108.157
469.9809, 1096.576
470.4630, 1080.772
470.9452, 1057.551
471.4273, 1035.764
471.9094, 1016.572
472.3915, 998.2388
472.8736, 979.5403
473.3557, 960.3497
473.8379, 941.1301
474.3200, 922.2850
474.8021, 903.7386
475.2842, 885.4046
475.7663, 867.0091
476.2484, 849.3549
476.7306, 832.3657
477.2127, 816.2598
477.6948, 801.2997
478.1769, 787.6251
478.6590, 775.1575
479.1411, 763.9041
479.6233, 753.8353
480.1054, 745.0547
480.5875, 738.1286
481.0696, 731.9163
481.5517, 725.6748
482.0338, 719.6539
482.5159, 714.2966
482.9980, 709.7244
483.4802, 706.0416
483.9623, 703.6833
484.4444, 702.6539
484.9265, 701.8022
485.4086, 701.0663
485.8907, 699.9890
486.3729, 697.3749
486.8550, 693.0739
487.3371, 690.6823
487.8192, 693.1151
488.3013, 697.1647
488.7834, 698.8156
489.2656, 697.9232
489.7477, 696.8607
490.2298, 697.0801
490.7119, 698.3815
491.1940, 699.8076
491.6761, 701.0730
492.1583, 702.8069
492.6404, 705.7855
493.1225, 708.9633
493.6046, 711.0121
494.0867, 711.7512
494.5688, 712.1291
495.0510, 713.1232
495.5331, 714.7592
496.0152, 716.6071
496.4973, 718.2798
496.9794, 720.6097
497.4615, 724.0834
497.9437, 728.2401
498.4258, 732.7054
498.9079, 737.3323
499.3900, 741.4913
499.8721, 743.8597
500.3542, 744.0580
500.8364, 745.3531
501.3185, 748.8869
501.8006, 752.6854
502.2827, 755.6450
502.7648, 757.9639
503.2469, 760.2862
503.7291, 762.8857
504.2112, 765.6026
504.6933, 768.3733
505.1754, 771.1766
505.6575, 773.4088
506.1396, 774.8207
506.6218, 775.5898
507.1039, 775.8096
507.5860, 775.4198
508.0681, 775.3493
508.5502, 776.8797
509.0323, 778.1742
509.5145, 776.8237
509.9966, 773.1241
510.4787, 769.7540
510.9608, 768.5250
511.4429, 768.7410
511.9250, 767.6013
512.4072, 764.4418
512.8893, 760.7955
513.3714, 756.2956
513.8535, 751.6360
514.3356, 747.3830
514.8177, 743.6215
515.2999, 740.0750
515.7820, 736.4897
516.2641, 732.9065
516.7462, 729.6849
517.2283, 726.6198
517.7104, 724.3285
518.1926, 723.5040
518.6747, 723.1307
519.1568, 722.0729
519.6389, 720.0812
520.1210, 718.0947
520.6031, 716.9078
521.0853, 716.4950
521.5674, 716.7719
522.0495, 717.9336
522.5316, 719.3133
523.0137, 720.6755
523.4958, 721.9125
523.9780, 722.7332
524.4601, 722.8942
524.9422, 722.9651
525.4243, 723.1827
525.9064, 723.5983
526.3885, 724.2789
526.8707, 725.2266
527.3528, 726.6270
527.8349, 728.7667
528.3170, 731.7661
528.7991, 734.5449
529.2813, 737.3041
529.7634, 739.6429
530.2455, 741.0338
530.7276, 741.9791
531.2097, 743.2184
531.6918, 745.0528
532.1740, 747.4477
532.6561, 750.4415
533.1382, 754.1946
533.6203, 757.9293
534.1024, 761.8355
534.5845, 765.5285
535.0667, 768.8874
535.5488, 771.9247
536.0309, 774.6822
536.5130, 777.1185
536.9951, 779.4594
537.4772, 782.1445
537.9594, 785.1907
538.4415, 788.0274
538.9236, 790.7249
539.4057, 792.9073
539.8878, 793.7468
540.3699, 793.5809
540.8521, 794.4218
541.3342, 798.0081
541.8163, 801.8754
542.2984, 803.8832
542.7805, 804.3069
543.2626, 804.0065
543.7448, 803.0717
544.2269, 802.6603
544.7090, 804.9883
545.1911, 811.8665
545.6732, 816.7405
546.1553, 818.1868
546.6375, 818.9924
547.1196, 820.5396
547.6017, 822.7672
548.0838, 825.0121
548.5659, 826.8903
549.0480, 828.9285
549.5302, 832.6580
550.0123, 839.0530
550.4944, 844.1712
550.9765, 846.8801
551.4586, 848.7732
551.9407, 850.3265
552.4229, 851.6858
552.9050, 853.0924
553.3871, 854.8041
553.8692, 856.4719
554.3513, 857.5905
554.8334, 858.1619
555.3156, 858.1443
555.7977, 857.0178
556.2798, 855.9906
556.7619, 856.8943
557.2440, 859.6489
557.7261, 862.6062
558.2083, 865.3810
558.6904, 868.3232
559.1725, 871.7128
559.6546, 875.5137
560.1367, 879.5449
560.6188, 883.6664
561.1010, 888.1854
561.5831, 893.6537
562.0652, 900.3557
562.5473, 907.4922
563.0294, 914.9889
563.5115, 922.9030
563.9937, 931.6306
564.4758, 940.7621
564.9579, 949.8256
565.4400, 958.8071
565.9221, 966.5768
566.4042, 971.3546
566.8864, 973.1765
567.3685, 971.4940
567.8506, 966.0023
568.3327, 956.9467
568.8148, 944.0947
569.2969, 928.0451
569.7791, 910.8423
570.2612, 891.8875
570.7433, 873.2727
571.2254, 856.5102
571.7075, 841.6160
572.1896, 828.8173
572.6718, 818.1464
573.1539, 809.4689
573.6360, 802.6129
574.1181, 797.6483
574.6002, 794.4940
575.0823, 793.0984
575.5645, 793.4352
576.0466, 795.9736
576.5287, 800.1092
577.0108, 804.8409
577.4929, 809.7941
577.9750, 815.4753
578.4572, 822.8069
578.9393, 831.9597
579.4214, 841.2503
579.9035, 849.8834
580.3856, 859.7136
580.8677, 871.7811
581.3499, 885.3534
581.8320, 899.2253
582.3141, 913.0277
582.7962, 926.9529
583.2783, 941.1404
583.7604, 955.5300
584.2426, 969.7080
584.7247, 983.4376
585.2068, 997.6613
585.6889, 1013.031
586.1710, 1029.494
586.6531, 1046.867
587.1352, 1067.122
587.6173, 1085.662
588.0994, 1099.936
588.5815, 1112.433
589.0637, 1126.066
589.5458, 1141.320
590.0279, 1156.974
590.5100, 1171.733
590.9921, 1185.746
591.4742, 1200.565
591.9564, 1217.024
592.4385, 1232.997
592.9206, 1247.745
593.4027, 1262.126
593.8848, 1276.873
594.3669, 1292.153
594.8491, 1307.175
595.3312, 1321.414
595.8133, 1335.128
596.2954, 1349.101
596.7775, 1363.414
597.2596, 1376.846
597.7418, 1388.738
598.2239, 1399.461
598.7060, 1409.775
599.1881, 1419.961
599.6702, 1428.876
600.1523, 1436.959
600.6345, 1443.159
601.1166, 1446.369
601.5987, 1447.001
602.0808, 1446.284
602.5629, 1444.856
603.0450, 1442.390
603.5272, 1438.291
604.0093, 1432.738
604.4914, 1424.931
604.9735, 1412.348
605.4556, 1399.723
605.9377, 1389.619
606.4199, 1380.956
606.9020, 1371.295
607.3841, 1359.536
607.8662, 1346.956
608.3483, 1334.689
608.8304, 1322.705
609.3126, 1310.805
609.7947, 1299.019
610.2768, 1287.054
610.7589, 1274.375
611.2410, 1261.215
611.7231, 1249.669
612.2053, 1241.575
612.6874, 1232.776
613.1695, 1221.643
613.6516, 1209.432
614.1337, 1197.750
614.6158, 1186.779
615.0980, 1175.235
615.5801, 1161.664
616.0622, 1146.562
616.5443, 1133.083
617.0264, 1122.202
617.5085, 1111.034
617.9907, 1098.366
618.4728, 1085.508
618.9549, 1073.292
619.4370, 1061.797
619.9191, 1050.740
620.4012, 1040.373
620.8834, 1030.048
621.3655, 1018.489
621.8476, 1005.947
622.3297, 994.4796
622.8118, 984.9908
623.2939, 976.4150
623.7761, 967.0939
624.2582, 956.7816
624.7403, 946.9652
625.2224, 937.2286
625.7045, 928.3474
626.1866, 921.6380
626.6688, 915.7249
627.1509, 908.4574
627.6330, 899.1404
628.1151, 888.9586
628.5972, 879.0908
629.0793, 869.5489
629.5615, 861.5800
630.0436, 855.9744
630.5257, 850.4344
631.0078, 843.4965
631.4899, 836.1393
631.9720, 829.6537
632.4542, 824.3824
632.9363, 818.8740
633.4184, 812.2520
633.9005, 805.1119
634.3826, 797.9123
634.8647, 790.8331
635.3469, 784.5808
635.8290, 779.6026
636.3111, 775.4444
636.7932, 771.0396
637.2753, 766.6750
637.7574, 761.4014
638.2396, 753.6823
638.7217, 746.6827
639.2038, 742.4404
639.6859, 740.0170
640.1680, 737.5349
640.6501, 734.2014
641.1323, 730.5048
641.6144, 727.3577
642.0965, 724.5717
642.5786, 720.2206
643.0607, 713.4249
643.5428, 707.3240
644.0250, 704.6234
644.5071, 704.3842
644.9892, 702.9371
645.4713, 699.5541
645.9534, 696.2654
646.4355, 694.3111
646.9177, 692.2920
647.3998, 688.5860
647.8819, 683.3319
648.3640, 677.7184
648.8461, 672.4401
649.3282, 667.7004
649.8104, 664.1340
650.2925, 661.8442
650.7746, 660.3845
651.2567, 660.1261
651.7388, 660.2997
652.2209, 661.3018
652.7031, 662.3662
653.1852, 661.5427
653.6673, 657.6514
654.1494, 652.7464
654.6315, 648.2070
655.1136, 644.0140
655.5958, 640.0228
656.0779, 636.2148
656.5600, 633.0780
657.0421, 631.2117
657.5242, 630.3502
658.0063, 628.6528
658.4885, 625.3525
658.9706, 622.1871
659.4527, 618.8697
659.9348, 616.0265
660.4169, 613.6599
660.8990, 612.1330
661.3812, 612.6531
661.8633, 616.6816
662.3454, 621.5484
662.8275, 622.6133
663.3096, 619.9766
663.7917, 615.6907
664.2739, 609.3816
664.7560, 603.4717
665.2381, 600.5624
665.7202, 600.1747
666.2023, 598.6051
666.6844, 593.7615
667.1666, 590.2107
667.6487, 590.3308
668.1308, 591.9281
668.6129, 593.3094
669.0950, 593.8060
669.5771, 592.2844
670.0593, 587.4880
670.5414, 580.8181
671.0235, 576.8552
671.5056, 576.0207
671.9877, 576.3370
672.4698, 578.0504
672.9520, 580.2379
673.4341, 583.1703
673.9162, 586.1241
674.3983, 586.6245
674.8804, 582.8232
675.3625, 578.0738
675.8447, 574.1522
676.3268, 570.9674
676.8089, 568.1999
677.2910, 565.8566
677.7731, 564.9778
678.2552, 566.8524
678.7374, 570.5222
679.2195, 570.4436
679.7016, 563.5953
680.1837, 558.4566
680.6658, 556.9318
681.1479, 556.2407
681.6301, 554.7735
682.1122, 552.6777
682.5943, 550.7308
683.0764, 549.0748
683.5585, 548.1101
684.0406, 548.3412
684.5228, 549.6344
685.0049, 552.0750
685.4870, 555.8063
685.9691, 558.4962
686.4512, 558.2180
686.9333, 555.2891
687.4155, 551.6055
687.8976, 544.6008
688.3797, 540.4348
688.8618, 542.2681
689.3439, 544.5884
689.8260, 543.2669
690.3082, 539.0513
690.7903, 535.0452
691.2724, 532.8984
691.7545, 531.4315
692.2366, 528.3882
692.7188, 524.1614
693.2009, 522.7994
693.6830, 525.8926
694.1651, 527.6637
694.6472, 523.0943
695.1293, 513.9841
695.6115, 507.9346
696.0936, 506.7277
696.5757, 505.0549
697.0578, 501.5954
697.5399, 497.7469
698.0220, 494.8221
698.5042, 492.4701
698.9863, 489.3763
699.4684, 484.8318
699.9505, 479.7956
700.4326, 475.8066
700.9147, 472.8601
701.3969, 470.2861
701.8790, 468.0563
702.3611, 466.1063
702.8432, 464.5022
703.3253, 463.1303
703.8074, 461.7280
704.2896, 460.2658
704.7717, 458.8516
705.2538, 457.7915
705.7359, 456.5571
706.2180, 454.3556
706.7001, 451.6217
707.1823, 449.5997
707.6644, 448.8297
708.1465, 448.5946
708.6286, 447.8099
709.1107, 446.4455
709.5928, 445.1228
710.0750, 443.8082
710.5571, 442.6120
711.0392, 441.9106
711.5213, 441.1714
712.0034, 439.5515
712.4855, 436.8903
712.9677, 434.5215
713.4498, 433.0706
713.9319, 431.9063
714.4140, 430.3813
714.8961, 428.7558
715.3782, 427.8110
715.8604, 427.7839
716.3425, 427.9045
716.8246, 427.1998
717.3067, 425.6873
717.7888, 424.3140
718.2709, 423.0732
718.7531, 421.9863
719.2352, 421.2705
719.7173, 420.5617
720.1994, 419.3742
720.6815, 417.7621
721.1636, 416.5645
721.6458, 416.1915
722.1279, 416.1880
722.6100, 416.6447
723.0921, 417.1164
723.5742, 416.5658
724.0563, 414.8580
724.5385, 413.1167
725.0206, 412.4399
725.5027, 412.5801
725.9848, 411.9768
726.4669, 410.2492
726.9490, 408.7643
727.4312, 407.7640
727.9132, 407.0850
728.3953, 406.9995
728.8774, 407.1676
729.3596, 406.4547
729.8417, 404.0358
730.3238, 401.5501
730.8059, 399.5952
731.2880, 398.3843
731.7701, 398.8595
732.2523, 400.6969
732.7344, 401.6802
733.2165, 400.2440
733.6986, 397.4169
734.1807, 395.9152
734.6628, 396.1602
735.1450, 396.1183
735.6271, 395.3434
736.1092, 394.6972
736.5913, 394.9618
737.0734, 395.5058
737.5555, 395.2293
738.0377, 393.7827
738.5198, 392.3669
739.0019, 391.4012
739.4840, 390.8511
739.9661, 391.0413
740.4482, 391.6342
740.9304, 391.5164
741.4125, 390.2148
741.8946, 388.6112
742.3767, 388.0583
742.8588, 388.6311
743.3409, 388.6074
743.8231, 387.7043
744.3052, 386.7671
744.7873, 385.6808
745.2694, 384.9777
745.7515, 385.6862
746.2336, 387.7177
746.7158, 388.5180
747.1979, 385.9514
747.6800, 383.2902
748.1621, 383.1269
748.6442, 384.2781
749.1263, 384.5462
749.6085, 383.5818
750.0906, 382.8155
750.5727, 383.5697
751.0548, 385.3972
751.5369, 386.5154
752.0190, 386.7646
752.5012, 387.0296
752.9833, 387.5193
753.4654, 387.9829
753.9475, 388.1885
754.4296, 388.2224
754.9117, 388.3156
755.3939, 388.6032
755.8760, 388.7386
756.3581, 388.1103
756.8402, 387.6287
757.3223, 388.5273
757.8044, 390.3921
758.2866, 391.6948
758.7687, 391.6678
759.2508, 391.2310
759.7329, 392.1003
760.2150, 394.2172
760.6971, 394.8162
761.1793, 393.3373
761.6614, 391.9442
762.1435, 391.5963
762.6256, 391.9056
763.1077, 392.3560
763.5898, 392.9896
764.0720, 393.4022
764.5541, 393.5050
765.0362, 393.4254
765.5183, 393.1011
766.0004, 392.6929
766.4825, 392.4292
766.9647, 392.3300
767.4468, 392.2051
767.9289, 391.8972
768.4110, 391.4671
768.8931, 391.1516
769.3752, 390.9344
769.8574, 390.2017
770.3395, 388.6693
770.8216, 387.1126
771.3037, 386.2740
771.7858, 385.9732
772.2679, 385.1139
772.7501, 383.2459
773.2322, 381.4865
773.7143, 379.9532
774.1964, 378.5013
774.6785, 376.9770
775.1606, 375.4816
775.6428, 374.3241
776.1249, 373.6475
776.6070, 372.8969
777.0891, 371.2980
777.5712, 369.3113
778.0533, 368.2560
778.5355, 368.0687
779.0176, 366.9166
779.4997, 363.8080
779.9818, 360.4393
780.4639, 359.4115
780.9460, 361.0524
781.4282, 361.8450
781.9103, 361.4899
782.3924, 360.6707
782.8745, 359.0008
783.3566, 357.3351
783.8387, 356.3659
784.3209, 356.0880
784.8030, 356.1809
785.2851, 356.8428
785.7672, 357.3701
786.2493, 357.0907
786.7314, 356.3269
787.2136, 355.4244
787.6957, 354.5494
788.1778, 354.3599
788.6599, 355.3930
789.1420, 356.8307
789.6241, 356.5297
790.1063, 353.9940
790.5884, 352.5037
791.0705, 352.5513
791.5526, 353.0207
792.0347, 353.6994
792.5168, 354.3224
792.9990, 354.4852
793.4811, 354.1309
793.9632, 353.6783
794.4453, 353.0005
794.9274, 352.4988
795.4095, 352.5629
795.8917, 352.9046
796.3738, 353.0915
796.8559, 353.0358
797.3380, 352.8908
797.8201, 352.7178
798.3022, 352.6266
798.7844, 352.9113
799.2665, 353.5625
799.7486, 354.4012
800.2307, 355.5249
800.7128, 356.2805
801.1949, 355.9847
801.6771, 355.0008
802.1592, 354.7492
802.6413, 355.8264
803.1234, 356.6239
803.6055, 357.1192
804.0876, 357.3499
804.5698, 356.9357
805.0519, 356.4313
805.5340, 356.8203
806.0161, 358.3257
806.4982, 359.7894
806.9803, 360.4025
807.4625, 360.4922
807.9446, 360.1644
808.4267, 359.6869
808.9088, 360.1356
809.3909, 361.8001
809.8730, 363.5764
810.3552, 364.3877
810.8373, 364.3718
811.3194, 364.3335
811.8015, 364.1456
812.2836, 364.3200
812.7657, 365.2751
813.2479, 366.1938
813.7300, 366.4281
814.2121, 366.2743
814.6942, 366.4093
815.1763, 367.1186
815.6584, 367.4891
816.1406, 366.5688
816.6227, 365.7826
817.1048, 366.6926
817.5869, 368.4887
818.0690, 369.3534
818.5511, 368.7856
819.0333, 367.9985
819.5154, 368.1455
819.9975, 369.0182
820.4796, 370.1377
820.9617, 371.4923
821.4438, 372.5647
821.9260, 373.2223
822.4081, 373.5449
822.8902, 373.5399
823.3723, 373.2655
823.8544, 373.0831
824.3365, 372.6874
824.8187, 372.8870
825.3008, 374.4000
825.7829, 375.7701
826.2650, 376.1589
826.7471, 375.9253
827.2292, 375.6328
827.7114, 375.3928
828.1935, 375.4171
828.6756, 375.9153
829.1577, 376.6716
829.6398, 377.7044
830.1219, 378.7700
830.6041, 379.2371
831.0862, 378.9673
831.5683, 378.4771
832.0504, 378.2527
832.5325, 378.1884
833.0146, 377.8530
833.4968, 377.1997
833.9789, 376.6243
834.4610, 376.1485
834.9431, 375.8423
835.4252, 375.7079
835.9073, 375.7901
836.3895, 376.3463
836.8716, 377.9163
837.3537, 378.5280
837.8358, 377.1763
838.3179, 375.7536
838.8000, 375.2378
839.2822, 375.1846
839.7643, 374.9697
840.2464, 374.4686
840.7285, 373.8734
841.2106, 372.9836
841.6927, 372.3806
842.1749, 373.1956
842.6570, 374.8276
843.1391, 375.4449
843.6212, 374.8314
844.1033, 374.5460
844.5854, 375.7635
845.0676, 377.7510
845.5497, 378.4099
846.0318, 377.2918
846.5139, 377.7461
846.9960, 380.8824
847.4781, 383.4557
847.9603, 383.4687
848.4424, 382.4639
848.9245, 382.8798
849.4066, 384.8315
849.8887, 385.9908
850.3708, 385.0153
850.8530, 384.5429
851.3351, 385.8582
851.8172, 387.8828
852.2993, 389.7398
852.7814, 391.2643
853.2635, 392.4827
853.7457, 393.3613
854.2278, 394.1237
854.7099, 394.9980
855.1920, 395.9440
855.6741, 396.8492
856.1563, 397.7262
856.6384, 398.6859
857.1205, 399.7804
857.6026, 400.9741
858.0847, 402.2383
858.5668, 403.5668
859.0490, 404.7921
859.5311, 405.8179
860.0132, 407.0300
860.4953, 408.4636
860.9774, 410.1747
861.4595, 412.4457
861.9417, 415.0597
862.4238, 417.1551
862.9059, 418.4279
863.3880, 419.6972
863.8701, 421.1896
864.3522, 422.6466
864.8344, 423.6676
865.3165, 424.6251
865.7986, 426.2342
866.2807, 428.6240
866.7628, 431.0491
867.2449, 432.8923
867.7271, 434.5127
868.2092, 436.4442
868.6913, 438.5592
869.1733, 440.4688
869.6555, 442.1231
870.1376, 443.8106
870.6197, 445.7353
871.1018, 447.8288
871.5839, 449.8290
872.0660, 451.6646
872.5482, 454.3247
873.0303, 458.3578
873.5124, 461.7395
873.9945, 463.1904
874.4766, 463.9184
874.9587, 465.6549
875.4409, 468.5226
875.9230, 471.1671
876.4051, 473.0786
876.8872, 475.4290
877.3693, 479.0746
877.8514, 482.7370
878.3336, 485.1468
878.8157, 486.7192
879.2978, 488.8610
879.7799, 492.2540
880.2620, 495.2240
880.7441, 496.1396
881.2263, 496.3019
881.7084, 497.0899
882.1905, 498.5175
882.6726, 500.5082
883.1547, 502.9577
883.6368, 505.3018
884.1190, 507.0835
884.6011, 508.2564
885.0832, 508.2543
885.5653, 507.0940
886.0474, 507.2339
886.5295, 509.2169
887.0117, 511.7116
887.4938, 513.9333
887.9759, 516.0406
888.4580, 518.4086
888.9401, 521.0535
889.4222, 523.8622
889.9044, 527.2269
890.3865, 530.2040
890.8686, 531.8046
891.3507, 533.5204
891.8328, 536.8318
892.3149, 541.5545
892.7971, 546.3877
893.2792, 551.1949
893.7613, 555.7477
894.2434, 559.4442
894.7255, 563.2947
895.2076, 568.3344
895.6898, 574.2881
896.1719, 580.2756
896.6540, 586.0676
897.1361, 592.2281
897.6182, 598.8327
898.1003, 606.3974
898.5825, 616.9207
899.0646, 629.3692
899.5467, 638.4778
900.0288, 643.3547
900.5109, 649.1548
900.9930, 659.6812
901.4752, 673.1734
901.9573, 685.0887
902.4394, 694.9216
902.9215, 707.2420
903.4036, 723.3304
903.8857, 738.4781
904.3679, 750.7611
904.8500, 761.2278
905.3321, 770.8364
905.8142, 779.5353
906.2963, 788.6602
906.7784, 799.0853
907.2606, 808.6385
907.7427, 816.0626
908.2248, 823.5570
908.7069, 832.8365
909.1890, 843.1081
909.6711, 852.9006
910.1533, 861.9792
910.6354, 869.9167
911.1175, 876.4315
911.5996, 881.8604
912.0817, 886.5748
912.5638, 890.3147
913.0460, 892.6469
913.5281, 893.5399
914.0102, 893.1601
914.4923, 891.5408
914.9744, 889.0254
915.4565, 886.5116
915.9387, 883.4761
916.4208, 878.0038
916.9029, 870.1062
917.3850, 861.2014
917.8671, 851.8641
918.3492, 841.2054
918.8314, 827.8899
919.3135, 812.3079
919.7956, 796.7208
920.2777, 781.2903
920.7598, 765.4104
921.2419, 748.8543
921.7241, 732.1053
922.2062, 715.3359
922.6883, 698.5300
923.1704, 681.5134
923.6525, 663.9457
924.1346, 647.2672
924.6168, 631.3106
925.0989, 616.4675
925.5810, 603.3342
926.0631, 590.9494
926.5452, 578.6094
927.0273, 566.3674
927.5095, 554.5476
927.9916, 543.4815
928.4737, 532.1523
928.9558, 518.9596
929.4379, 506.2822
929.9200, 496.9177
930.4022, 489.3983
930.8843, 480.6409
931.3664, 470.2409
931.8485, 460.7130
932.3306, 454.2583
932.8127, 449.0316
933.2949, 442.3237
933.7770, 434.8095
934.2591, 428.1727
934.7412, 422.5974
935.2233, 417.8115
935.7054, 413.7049
936.1876, 409.7396
936.6697, 405.1327
937.1518, 400.0065
937.6339, 395.0750
938.1160, 390.2201
938.5981, 386.6550
939.0803, 384.8373
939.5624, 383.5922
940.0445, 382.2202
940.5266, 380.6572
941.0087, 378.7472
941.4908, 376.5649
941.9730, 373.7267
942.4551, 368.8633
942.9372, 365.4324
943.4193, 365.6214
943.9014, 366.7475
944.3835, 366.6476
944.8657, 365.5043
945.3478, 364.2843
945.8299, 362.5368
946.3120, 361.7603
946.7941, 363.6449
947.2762, 365.1284
947.7584, 363.6057
948.2405, 360.9186
948.7226, 359.9994
949.2047, 361.1310
949.6868, 362.0611
950.1689, 361.5512
950.6511, 360.6148
951.1332, 359.6818
951.6153, 358.9969
952.0974, 359.0333
952.5795, 359.5990
953.0616, 360.1281
953.5438, 360.3947
954.0259, 360.4052
954.5080, 360.0251
954.9901, 359.4919
955.4722, 359.2754
955.9543, 359.3206
956.4365, 359.5558
956.9186, 359.9130
957.4007, 359.8292
957.8828, 358.9367
958.3649, 357.6123
958.8470, 356.4082
959.3292, 355.3356
959.8113, 354.8468
960.2934, 355.0460
960.7755, 354.8314
961.2576, 353.7795
961.7397, 352.6826
962.2219, 352.2170
962.7040, 352.2188
963.1861, 352.1143
963.6682, 351.8491
964.1503, 351.6275
964.6324, 351.3604
965.1146, 351.2852
965.5967, 351.4103
966.0788, 351.8267
966.5609, 352.9993
967.0430, 354.7074
967.5251, 355.3731
968.0073, 353.1300
968.4894, 352.6410
968.9715, 356.1320
969.4536, 359.5546
969.9357, 360.4321
970.4178, 360.2054
970.9000, 360.8638
971.3821, 362.6134
971.8642, 364.5159
972.3463, 366.3856
972.8284, 368.1801
973.3105, 369.7939
973.7927, 371.3981
974.2748, 373.2271
974.7569, 375.1530
975.2390, 376.8503
975.7211, 378.2416
976.2032, 379.6636
976.6854, 381.6000
977.1675, 383.4500
977.6496, 384.4568
978.1317, 384.9747
978.6138, 385.6099
979.0959, 386.3876
979.5781, 387.0737
980.0602, 387.5545
980.5423, 387.7321
981.0244, 387.6207
981.5065, 387.0704
981.9886, 385.7112
982.4708, 383.5709
982.9529, 380.6623
983.4350, 377.0168
983.9171, 373.1039
984.3992, 369.2102
984.8813, 365.1124
985.3635, 360.2436
985.8456, 354.6971
986.3277, 349.6934
986.8098, 345.2663
987.2919, 341.0193
987.7740, 336.8081
988.2562, 333.0273
988.7383, 330.1011
989.2204, 327.6371
989.7025, 324.5060
990.1846, 320.3975
990.6667, 317.2497
991.1489, 315.5887
991.6310, 313.4764
992.1131, 309.8763
992.5952, 306.3261
993.0773, 304.3168
993.5594, 303.5703
994.0416, 302.8278
994.5237, 302.2236
995.0058, 301.3494
995.4879, 300.0804
995.9700, 298.7048
996.4521, 296.9981
996.9343, 295.4626
997.4164, 294.8317
997.8985, 294.8900
998.3806, 294.3523
998.8627, 292.7223
999.3448, 291.1737
999.8270, 289.6759
1000.309, 288.5529
1000.791, 288.3180
1001.273, 288.3356
1001.755, 287.8274
1002.238, 286.7772
1002.720, 285.6826
1003.202, 284.4680
1003.684, 283.6517
1004.166, 283.8424
1004.648, 284.1512
1005.130, 283.6797
1005.612, 282.9313
1006.094, 282.9845
1006.577, 283.8530
1007.059, 284.1859
1007.541, 282.9520
1008.023, 281.5731
1008.505, 281.0192
1008.987, 281.0088
1009.469, 281.3716
1009.951, 281.9507
1010.433, 282.6973
1010.916, 283.4799
1011.398, 283.5456
1011.880, 281.9419
1012.362, 280.1229
1012.844, 279.8438
1013.326, 280.6106
1013.808, 281.8043
1014.290, 283.1615
1014.773, 284.1872
1015.255, 284.7063
1015.737, 284.8748
1016.219, 284.7940
1016.701, 284.5119
1017.183, 283.9922
1017.665, 283.3613
1018.147, 283.0110
1018.629, 282.9765
1019.112, 283.2032
1019.594, 283.6650
1020.076, 284.2437
1020.558, 284.8404
1021.040, 285.4276
1021.522, 286.0918
1022.004, 286.7508
1022.486, 286.3853
1022.969, 284.9065
1023.451, 284.1532
1023.933, 284.9993
1024.415, 286.2636
1024.897, 286.5521
1025.379, 286.0695
1025.861, 285.8154
1026.343, 285.8109
1026.825, 285.4854
1027.308, 284.6585
1027.790, 284.4535
1028.272, 285.5397
1028.754, 286.9594
1029.236, 287.4583
1029.718, 287.1803
1030.200, 287.3351
1030.682, 288.1186
1031.165, 288.2887
1031.647, 287.3865
1032.129, 287.0040
1032.611, 288.1832
1033.093, 289.6634
1033.575, 289.6169
1034.057, 288.2263
1034.539, 288.1941
1035.021, 290.2067
1035.504, 291.6914
1035.986, 292.2287
1036.468, 292.6381
1036.950, 293.3240
1037.432, 294.0221
1037.914, 294.2710
1038.396, 294.1172
1038.878, 294.6268
1039.360, 296.6870
1039.843, 297.6470
1040.325, 296.4202
1040.807, 295.3881
1041.289, 295.7092
1041.771, 296.6580
1042.253, 297.5876
1042.735, 298.4596
1043.217, 298.5750
1043.700, 296.8027
1044.182, 296.0591
1044.664, 297.9123
1045.146, 299.0510
1045.628, 297.2270
1046.110, 294.5973
1046.592, 293.7231
1047.074, 294.4575
1047.557, 294.8940
1048.039, 294.9485
1048.521, 294.6013
1049.003, 293.4936
1049.485, 292.4047
1049.967, 291.4662
1050.449, 290.8827
1050.931, 291.2074
1051.413, 292.1935
1051.896, 292.3560
1052.378, 291.0972
1052.860, 289.7611
1053.342, 288.6572
1053.824, 287.4577
1054.306, 285.6292
1054.788, 283.9124
1055.270, 283.2599
1055.752, 283.4890
1056.235, 283.4981
1056.717, 282.9123
1057.199, 282.5036
1057.681, 282.8380
1058.163, 282.9677
1058.645, 282.0509
1059.127, 280.9665
1059.609, 280.7706
1060.092, 281.2771
1060.574, 281.5875
1061.056, 281.5308
1061.538, 281.1520
1062.020, 280.0353
1062.502, 279.1196
1062.984, 279.1313
1063.466, 279.3883
1063.948, 279.2562
1064.431, 278.7362
1064.913, 277.9506
1065.395, 276.8202
1065.877, 276.1373
1066.359, 276.3032
1066.841, 276.8850
1067.323, 277.8818
1067.805, 278.9955
1068.287, 279.8742
1068.770, 280.6555
1069.252, 281.6650
1069.734, 282.9679
1070.216, 284.7250
1070.698, 287.8145
1071.180, 290.3747
1071.662, 290.6837
1072.144, 290.7016
1072.627, 292.1812
1073.109, 294.8413
1073.591, 297.9578
1074.073, 301.3415
1074.555, 304.4370
1075.037, 306.4962
1075.519, 308.8952
1076.001, 312.4355
1076.484, 316.4887
1076.966, 321.2388
1077.448, 325.7761
1077.930, 328.3670
1078.412, 328.9117
1078.894, 329.7734
1079.376, 332.0460
1079.858, 334.6358
1080.340, 337.3054
1080.823, 339.8011
1081.305, 341.6199
1081.787, 343.2944
1082.269, 345.7774
1082.751, 349.0277
1083.233, 352.0190
1083.715, 354.4233
1084.197, 356.3712
1084.679, 357.6391
1085.161, 358.7640
1085.644, 360.3860
1086.126, 361.9056
1086.608, 362.6626
1087.090, 362.5746
1087.572, 361.7040
1088.054, 359.9366
1088.536, 357.9136
1089.018, 356.3915
1089.501, 354.1277
1089.983, 350.4294
1090.465, 345.5622
1090.947, 339.3735
1091.429, 332.3864
1091.911, 325.7341
1092.393, 319.6484
1092.875, 314.2369
1093.358, 310.4911
1093.840, 306.1972
1094.322, 299.1497
1094.804, 292.0425
1095.286, 287.6862
1095.768, 284.9842
1096.250, 281.2217
1096.732, 275.8968
1097.214, 271.5213
1097.697, 269.4925
1098.179, 267.7696
1098.661, 265.8243
1099.143, 263.6998
1099.625, 261.1125
1100.107, 258.5481
1100.589, 256.7687
1101.071, 255.7968
1101.553, 254.9840
1102.036, 254.1946
1102.518, 253.5149
1103.000, 253.2201
1103.482, 252.7523
1103.964, 251.6648
1104.446, 250.3512
1104.928, 249.0594
1105.410, 247.9382
1105.893, 247.5213
1106.375, 248.3567
1106.857, 248.5834
1107.339, 247.4282
1107.821, 246.1642
1108.303, 244.8821
1108.785, 244.0235
1109.267, 244.4840
1109.750, 245.5505
1110.232, 245.2621
1110.714, 243.0761
1111.196, 241.6612
1111.678, 241.6008
1112.160, 241.8933
1112.642, 242.5568
1113.124, 243.2774
1113.606, 244.1986
1114.089, 244.8972
1114.571, 244.5602
1115.053, 243.1282
1115.535, 241.9442
1116.017, 241.0839
1116.499, 240.3526
1116.981, 239.6767
1117.463, 239.2232
1117.945, 239.3054
1118.428, 239.4016
1118.910, 238.6836
1119.392, 237.4373
1119.874, 237.4206
1120.356, 237.0406
1120.838, 236.1636
1121.320, 237.4055
1121.802, 235.5231
1122.285, 236.2904
1122.767, 237.7653
1123.249, 238.6736
1123.731, 239.0069
1124.213, 238.7054
1124.695, 237.7262
1125.177, 236.4356
1125.659, 234.4822
1126.141, 233.4648
1126.624, 233.8652
1127.106, 234.6975
1127.588, 235.6152
1128.070, 236.2265
1128.552, 235.9001
1129.034, 234.7455
1129.516, 233.6042
1129.998, 232.3659
1130.480, 232.1534
1130.963, 233.2223
1131.445, 234.1940
1131.927, 234.5751
1132.409, 234.4846
1132.891, 233.9504
1133.373, 233.2359
1133.855, 233.2387
1134.337, 232.6205
1134.820, 232.0827
1135.302, 232.0526
1135.784, 231.2356
1136.266, 231.4163
1136.748, 231.8004
1137.230, 231.9148
1137.712, 231.7352
1138.194, 230.9992
1138.677, 230.0492
1139.159, 230.2927
1139.641, 231.4268
1140.123, 232.2064
1140.605, 232.4258
1141.087, 231.8205
1141.569, 230.3518
1142.051, 229.0929
1142.533, 229.1472
1143.016, 228.2909
1143.498, 229.2171
1143.980, 228.3406
1144.462, 228.8056
1144.944, 230.0651
1145.426, 230.1864
1145.908, 228.9301
1146.390, 227.6156
1146.872, 226.9650
1147.355, 226.6483
1147.837, 226.3974
1148.319, 226.2568
1148.801, 226.4019
1149.283, 226.6185
1149.765, 226.4707
1150.247, 226.0981
1150.729, 226.1896
1151.212, 226.9013
1151.694, 227.0142
1152.176, 225.0808
1152.658, 223.3199
1153.140, 223.4204
1153.622, 224.0690
1154.104, 224.0810
1154.586, 223.8297
1155.068, 224.2487
1155.551, 225.2008
1156.033, 225.3049
1156.515, 223.7152
1156.997, 222.5328
1157.479, 222.6156
1157.961, 223.0448
1158.443, 223.7285
1158.925, 224.2734
1159.407, 224.2554
1159.890, 223.8709
1160.372, 223.5918
1160.854, 223.4686
1161.336, 223.3273
1161.818, 223.2381
1162.300, 222.9939
1162.782, 221.6349
1163.264, 221.3417
1163.747, 224.3344
1164.229, 227.6466
1164.711, 227.6035
1165.193, 224.8786
1165.675, 223.2072
1166.157, 222.9745
1166.639, 222.5348
1167.121, 221.7643
1167.604, 221.1517
1168.086, 220.8109
1168.568, 220.6896
1169.050, 220.7586
1169.532, 221.0332
1170.014, 221.6726
1170.496, 222.5584
1170.978, 222.2590
1171.460, 220.7376
1171.943, 219.9297
1172.425, 220.0641
1172.907, 220.1962
1173.389, 219.9578
1173.871, 219.7192
1174.353, 219.8140
1174.835, 220.1353
1175.317, 220.6379
1175.799, 221.1493
1176.282, 220.9673
1176.764, 220.2463
1177.246, 219.5853
1177.728, 219.1208
1178.210, 218.7981
1178.692, 218.5921
1179.174, 218.5762
1179.656, 219.0564
1180.139, 219.4905
1180.621, 218.8407
1181.103, 217.9403
1181.585, 218.1897
1182.067, 219.1557
1182.549, 219.7638
1183.031, 219.7636
1183.513, 219.2630
1183.995, 218.0723
1184.478, 217.2455
1184.960, 217.6234
1185.442, 218.3046
1185.924, 219.0718
1186.406, 219.5163
1186.888, 218.9950
1187.370, 217.9165
1187.852, 217.1552
1188.334, 216.8453
1188.817, 216.9072
1189.299, 217.9013
1189.781, 218.3909
1190.263, 217.6713
1190.745, 216.9571
1191.227, 216.9444
1191.709, 217.0558
1192.191, 216.6202
1192.674, 215.8810
1193.156, 215.7340
1193.638, 216.3580
1194.120, 216.7008
1194.602, 216.8090
1195.084, 216.3755
1195.566, 215.0756
1196.048, 214.2417
1196.531, 214.7164
1197.013, 215.5103
1197.495, 215.3162
1197.977, 215.6667
1198.459, 215.5704
1198.941, 215.2588
1199.423, 214.9930
1199.905, 213.7392
1200.387, 213.0323
1200.870, 213.2356
1201.352, 213.6733
1201.834, 213.9394
1202.316, 214.1705
1202.798, 214.6172
1203.280, 215.0708
1203.762, 215.0655
1204.244, 215.2991
1204.726, 214.8994
1205.209, 215.1291
1205.691, 214.9745
1206.173, 214.3452
1206.655, 213.5893
1207.137, 212.7730
1207.619, 212.2718
1208.101, 212.4874
1208.583, 212.9459
1209.066, 213.6663
1209.548, 214.1407
1210.030, 213.5707
1210.512, 212.4193
1210.994, 211.7273
1211.476, 211.6565
1211.958, 211.8525
1212.440, 212.6546
1212.922, 213.0839
1213.405, 212.7510
1213.887, 212.3457
1214.369, 211.9405
1214.851, 211.7829
1215.333, 212.3281
1215.815, 213.1189
1216.297, 212.9142
1216.779, 212.7640
1217.261, 210.9181
1217.744, 211.0791
1218.226, 210.3492
1218.708, 208.2643
1219.190, 207.2463
1219.672, 208.4795
1220.154, 209.6396
1220.636, 208.3368
1221.118, 206.0047
1221.600, 205.8185
1222.083, 207.2350
1222.565, 208.5360
1223.047, 209.5347
1223.529, 209.4741
1224.011, 208.5086
1224.493, 207.8849
1224.975, 208.0711
1225.457, 208.2484
1225.940, 207.6736
1226.422, 207.0402
1226.904, 207.0404
1227.386, 207.3011
1227.868, 207.8821
1228.350, 208.1731
1228.832, 206.8318
1229.314, 204.4649
1229.797, 203.2946
1230.279, 203.9331
1230.761, 204.8945
1231.243, 206.3990
1231.725, 207.2434
1232.207, 206.3754
1232.689, 205.6604
1233.171, 206.4912
1233.653, 207.5797
1234.135, 207.5052
1234.618, 207.8448
1235.100, 206.4876
1235.582, 207.1796
1236.064, 207.0367
1236.546, 205.7025
1237.028, 205.6280
1237.510, 207.4391
1237.992, 208.8063
1238.475, 208.6516
1238.957, 207.7532
1239.439, 206.8186
1239.921, 205.9873
1240.403, 205.7537
1240.885, 205.8171
1241.367, 205.0236
1241.849, 203.7418
1242.332, 203.1192
1242.814, 203.3032
1243.296, 204.1654
1243.778, 205.5770
1244.260, 206.5332
1244.742, 206.2132
1245.224, 205.4253
1245.706, 204.3108
1246.188, 203.4800
1246.671, 203.6911
1247.153, 204.2904
1247.635, 204.4674
1248.117, 204.2930
1248.599, 204.1853
1249.081, 204.1940
1249.563, 204.3358
1250.045, 204.9740
1250.527, 205.1442
1251.010, 204.6914
1251.492, 203.8235
1251.974, 202.1492
1252.456, 201.0072
1252.938, 201.7790
1253.420, 203.5808
1253.902, 204.4573
1254.384, 204.4488
1254.867, 204.0008
1255.349, 203.1690
1255.831, 203.2218
1256.313, 204.1823
1256.795, 204.5601
1257.277, 203.9226
1257.759, 203.5976
1258.241, 204.6630
1258.724, 205.6181
1259.206, 204.1572
1259.688, 202.0224
1260.170, 201.2714
1260.652, 201.4428
1261.134, 202.1217
1261.616, 202.9963
1262.098, 203.6487
1262.580, 204.0041
1263.063, 204.2281
1263.545, 204.4583
1264.027, 204.3321
1264.509, 203.2500
1264.991, 202.4951
1265.473, 202.7177
1265.955, 203.1700
1266.437, 203.4893
1266.919, 203.6767
1267.402, 203.7588
1267.884, 203.7048
1268.366, 203.1887
1268.848, 202.0746
1269.330, 202.0327
1269.812, 203.1667
1270.294, 203.3832
1270.776, 202.2663
1271.259, 201.3518
1271.741, 201.4126
1272.223, 201.7781
1272.705, 201.8157
1273.187, 201.6484
1273.669, 201.3398
1274.151, 201.0414
1274.633, 201.0232
1275.115, 201.1775
1275.598, 201.3680
1276.080, 201.5132
1276.562, 201.3983
1277.044, 200.9731
1277.526, 200.8457
1278.008, 201.7442
1278.490, 202.1911
1278.972, 201.2782
1279.454, 200.5185
1279.937, 200.6177
1280.419, 201.1279
1280.901, 201.8840
1281.383, 202.6869
1281.865, 203.1733
1282.347, 203.3405
1282.829, 203.1263
1283.311, 202.5220
1283.794, 201.5584
1284.276, 200.2498
1284.758, 199.4722
1285.240, 199.4429
1285.722, 199.7769
1286.204, 200.2640
##END=



