##NAMES=Epidote
##RRUFFID=R110127
##IDEAL CHEMISTRY=Ca_2_Fe^3+^Al_2_(Si_2_O_7_)(SiO_4_)O(OH)
##LOCALITY=Alchori, Pakistan
##OWNER=RRUFF
##SOURCE=Jack Lowell
##DESCRIPTION=Pale brown transparent prismatic crystals associated with green diopside, R110128
##STATUS=The identification of this mineral has been confirmed only by single crystal X-ray diffraction.
##URL=rruff.info/R110127
92.56775, 1416.100
93.04987, 1444.848
93.53198, 1480.256
94.01410, 1498.605
94.49622, 1500.010
94.97833, 1490.912
95.46045, 1476.418
95.94257, 1456.482
96.42468, 1436.500
96.90680, 1417.107
97.38892, 1398.773
97.87103, 1380.268
98.35315, 1364.334
98.83527, 1345.599
99.31738, 1328.324
99.79950, 1313.044
100.2816, 1299.109
100.7637, 1284.952
101.2458, 1272.153
101.7280, 1262.345
102.2101, 1255.796
102.6922, 1251.565
103.1743, 1248.687
103.6564, 1246.999
104.1385, 1245.437
104.6207, 1243.528
105.1028, 1241.351
105.5849, 1239.204
106.0670, 1236.903
106.5491, 1234.428
107.0313, 1231.927
107.5134, 1229.410
107.9955, 1226.556
108.4776, 1222.835
108.9597, 1217.930
109.4418, 1213.348
109.9240, 1209.208
110.4061, 1205.629
110.8882, 1202.822
111.3703, 1200.871
111.8524, 1199.635
112.3345, 1198.782
112.8167, 1198.560
113.2988, 1198.442
113.7809, 1198.131
114.2630, 1197.900
114.7451, 1198.118
115.2272, 1199.031
115.7094, 1200.609
116.1915, 1202.223
116.6736, 1204.919
117.1557, 1206.644
117.6378, 1205.924
118.1199, 1203.341
118.6021, 1200.887
119.0842, 1200.182
119.5663, 1201.446
120.0484, 1203.131
120.5305, 1205.132
121.0126, 1207.578
121.4948, 1211.032
121.9769, 1215.719
122.4590, 1219.966
122.9411, 1221.329
123.4232, 1220.586
123.9053, 1220.105
124.3875, 1220.632
124.8696, 1222.008
125.3517, 1223.811
125.8338, 1226.090
126.3159, 1228.733
126.7980, 1231.588
127.2802, 1234.662
127.7623, 1237.945
128.2444, 1241.709
128.7265, 1246.059
129.2086, 1249.633
129.6907, 1250.963
130.1729, 1252.477
130.6550, 1255.546
131.1371, 1260.216
131.6192, 1265.374
132.1013, 1269.381
132.5834, 1271.339
133.0656, 1273.988
133.5477, 1277.238
134.0298, 1281.127
134.5119, 1285.904
134.9940, 1291.593
135.4761, 1297.771
135.9583, 1303.419
136.4404, 1307.736
136.9225, 1312.482
137.4046, 1318.322
137.8867, 1324.557
138.3688, 1330.270
138.8510, 1335.162
139.3331, 1339.061
139.8152, 1341.281
140.2973, 1341.157
140.7794, 1340.772
141.2615, 1341.351
141.7437, 1342.556
142.2258, 1342.782
142.7079, 1340.669
143.1900, 1337.229
143.6721, 1334.851
144.1542, 1334.449
144.6364, 1334.121
145.1185, 1331.500
145.6006, 1326.095
146.0827, 1321.401
146.5648, 1319.903
147.0469, 1319.864
147.5291, 1319.698
148.0112, 1318.922
148.4933, 1317.634
148.9754, 1315.951
149.4575, 1313.449
149.9396, 1311.301
150.4218, 1310.006
150.9039, 1309.191
151.3860, 1308.389
151.8681, 1307.331
152.3502, 1306.035
152.8323, 1304.714
153.3145, 1302.650
153.7966, 1301.307
154.2787, 1301.454
154.7608, 1302.563
155.2429, 1303.516
155.7250, 1303.327
156.2072, 1301.821
156.6893, 1301.829
157.1714, 1303.811
157.6535, 1306.516
158.1356, 1309.907
158.6177, 1313.705
159.0999, 1317.185
159.5820, 1319.579
160.0641, 1320.655
160.5462, 1322.299
161.0283, 1324.226
161.5104, 1326.853
161.9926, 1330.948
162.4747, 1336.566
162.9568, 1342.258
163.4389, 1346.370
163.9210, 1348.989
164.4031, 1351.358
164.8853, 1353.888
165.3674, 1356.229
165.8495, 1357.904
166.3316, 1358.931
166.8137, 1359.040
167.2958, 1357.897
167.7780, 1355.699
168.2601, 1352.792
168.7422, 1349.161
169.2243, 1344.906
169.7064, 1340.516
170.1885, 1336.148
170.6707, 1331.475
171.1528, 1326.308
171.6349, 1320.694
172.1170, 1314.796
172.5991, 1308.550
173.0812, 1301.918
173.5634, 1295.762
174.0455, 1290.662
174.5276, 1285.601
175.0097, 1280.039
175.4918, 1274.045
175.9739, 1268.151
176.4561, 1263.111
176.9382, 1259.315
177.4203, 1254.887
177.9024, 1249.298
178.3845, 1243.565
178.8666, 1237.948
179.3488, 1232.651
179.8309, 1227.962
180.3130, 1224.425
180.7951, 1222.699
181.2772, 1220.733
181.7593, 1218.649
182.2415, 1216.300
182.7236, 1213.483
183.2057, 1210.185
183.6878, 1206.693
184.1699, 1203.394
184.6520, 1200.064
185.1342, 1197.566
185.6163, 1196.419
186.0984, 1195.917
186.5805, 1195.461
187.0626, 1194.902
187.5447, 1194.069
188.0269, 1192.503
188.5090, 1189.984
188.9911, 1187.756
189.4732, 1186.318
189.9553, 1185.314
190.4374, 1184.111
190.9196, 1182.455
191.4017, 1180.670
191.8838, 1179.163
192.3659, 1177.911
192.8480, 1176.861
193.3301, 1176.106
193.8123, 1175.556
194.2944, 1174.875
194.7765, 1173.931
195.2586, 1172.870
195.7407, 1171.841
196.2228, 1170.847
196.7050, 1169.888
197.1871, 1168.820
197.6692, 1167.669
198.1513, 1167.055
198.6334, 1167.717
199.1155, 1168.452
199.5977, 1168.526
200.0798, 1167.886
200.5619, 1166.783
201.0440, 1165.117
201.5261, 1162.648
202.0082, 1161.229
202.4904, 1162.059
202.9725, 1163.352
203.4546, 1164.341
203.9367, 1164.898
204.4188, 1165.262
204.9009, 1165.714
205.3831, 1166.291
205.8652, 1166.837
206.3473, 1167.678
206.8294, 1168.250
207.3115, 1167.977
207.7936, 1166.886
208.2758, 1165.652
208.7579, 1165.275
209.2400, 1166.330
209.7221, 1167.004
210.2042, 1167.013
210.6863, 1166.905
211.1685, 1166.993
211.6506, 1167.363
212.1327, 1167.967
212.6148, 1168.751
213.0969, 1169.762
213.5790, 1170.874
214.0612, 1172.695
214.5433, 1174.245
215.0254, 1174.556
215.5075, 1173.458
215.9896, 1171.789
216.4717, 1170.716
216.9539, 1170.451
217.4360, 1170.384
217.9181, 1170.727
218.4002, 1171.153
218.8823, 1171.284
219.3644, 1171.027
219.8466, 1170.669
220.3287, 1170.463
220.8108, 1170.265
221.2929, 1171.033
221.7750, 1173.785
222.2571, 1177.241
222.7393, 1179.733
223.2214, 1180.837
223.7035, 1181.451
224.1856, 1182.574
224.6677, 1184.150
225.1498, 1186.003
225.6320, 1188.209
226.1141, 1190.639
226.5962, 1193.167
227.0783, 1195.868
227.5604, 1198.389
228.0425, 1199.932
228.5247, 1200.795
229.0068, 1202.498
229.4889, 1206.223
229.9710, 1211.126
230.4531, 1215.213
230.9352, 1217.834
231.4174, 1220.576
231.8995, 1224.768
232.3816, 1230.021
232.8637, 1235.352
233.3458, 1240.410
233.8279, 1245.193
234.3101, 1249.678
234.7922, 1253.449
235.2743, 1257.593
235.7564, 1262.885
236.2385, 1268.927
236.7206, 1274.980
237.2028, 1280.640
237.6849, 1285.949
238.1670, 1291.276
238.6491, 1297.181
239.1312, 1302.164
239.6133, 1305.073
240.0955, 1306.876
240.5776, 1309.216
241.0597, 1313.025
241.5418, 1318.138
242.0239, 1323.704
242.5060, 1329.885
242.9882, 1336.391
243.4703, 1343.238
243.9524, 1350.308
244.4345, 1357.437
244.9166, 1364.496
245.3987, 1371.580
245.8809, 1379.008
246.3630, 1386.895
246.8451, 1395.027
247.3272, 1403.395
247.8093, 1411.956
248.2914, 1420.615
248.7736, 1429.328
249.2557, 1438.117
249.7378, 1447.016
250.2199, 1456.947
250.7020, 1465.795
251.1841, 1473.104
251.6663, 1479.244
252.1484, 1484.825
252.6305, 1490.200
253.1126, 1494.792
253.5947, 1496.843
254.0768, 1494.505
254.5590, 1491.508
255.0411, 1488.534
255.5232, 1484.874
256.0053, 1479.691
256.4874, 1472.648
256.9695, 1464.016
257.4517, 1454.466
257.9338, 1442.226
258.4159, 1431.133
258.8980, 1421.958
259.3801, 1413.589
259.8622, 1404.836
260.3444, 1395.290
260.8265, 1385.221
261.3086, 1375.140
261.7907, 1364.729
262.2728, 1354.727
262.7549, 1344.808
263.2371, 1335.409
263.7192, 1327.020
264.2013, 1319.740
264.6834, 1313.382
265.1655, 1307.683
265.6476, 1302.744
266.1298, 1298.479
266.6119, 1295.562
267.0940, 1292.934
267.5761, 1289.505
268.0582, 1285.075
268.5403, 1280.453
269.0225, 1276.565
269.5046, 1273.598
269.9867, 1270.769
270.4688, 1268.066
270.9509, 1265.514
271.4330, 1263.130
271.9152, 1260.924
272.3973, 1258.915
272.8794, 1257.248
273.3615, 1255.937
273.8436, 1254.148
274.3257, 1251.549
274.8079, 1248.676
275.2900, 1246.018
275.7721, 1243.568
276.2542, 1240.950
276.7363, 1237.785
277.2184, 1234.149
277.7006, 1230.737
278.1827, 1227.444
278.6648, 1224.476
279.1469, 1222.342
279.6290, 1220.896
280.1111, 1218.896
280.5933, 1215.127
281.0754, 1210.418
281.5575, 1207.553
282.0396, 1208.156
282.5217, 1208.627
283.0038, 1206.446
283.4860, 1202.052
283.9681, 1197.642
284.4502, 1193.970
284.9323, 1191.125
285.4144, 1189.130
285.8965, 1188.216
286.3787, 1187.528
286.8608, 1186.861
287.3429, 1186.102
287.8250, 1184.736
288.3071, 1182.366
288.7892, 1179.620
289.2714, 1177.342
289.7535, 1175.518
290.2356, 1174.069
290.7177, 1173.034
291.1998, 1172.343
291.6819, 1171.897
292.1641, 1171.844
292.6462, 1171.686
293.1283, 1170.932
293.6104, 1169.641
294.0925, 1167.880
294.5746, 1164.547
295.0568, 1160.952
295.5389, 1160.330
296.0210, 1164.032
296.5031, 1167.787
296.9852, 1167.144
297.4673, 1163.504
297.9495, 1160.476
298.4316, 1159.887
298.9137, 1160.328
299.3958, 1159.533
299.8779, 1157.183
300.3600, 1154.927
300.8422, 1154.454
301.3243, 1154.739
301.8064, 1153.957
302.2885, 1151.156
302.7706, 1147.651
303.2527, 1144.907
303.7349, 1142.954
304.2170, 1141.154
304.6991, 1138.926
305.1812, 1136.859
305.6633, 1135.908
306.1454, 1136.618
306.6276, 1137.405
307.1097, 1136.688
307.5918, 1134.566
308.0739, 1132.695
308.5560, 1131.660
309.0381, 1131.115
309.5203, 1130.663
310.0024, 1130.303
310.4845, 1129.927
310.9666, 1129.332
311.4487, 1128.608
311.9308, 1128.214
312.4130, 1128.239
312.8951, 1128.635
313.3772, 1129.251
313.8593, 1130.100
314.3414, 1131.360
314.8235, 1133.253
315.3057, 1135.614
315.7878, 1138.393
316.2699, 1142.207
316.7520, 1144.872
317.2341, 1143.569
317.7162, 1139.918
318.1984, 1137.418
318.6805, 1137.780
319.1626, 1139.809
319.6447, 1141.865
320.1268, 1144.034
320.6089, 1145.823
321.0911, 1146.531
321.5732, 1146.809
322.0553, 1147.555
322.5374, 1149.064
323.0195, 1150.911
323.5016, 1152.701
323.9838, 1154.442
324.4659, 1156.165
324.9480, 1157.753
325.4301, 1159.426
325.9122, 1161.332
326.3943, 1163.453
326.8765, 1166.040
327.3586, 1169.693
327.8407, 1174.154
328.3228, 1177.836
328.8049, 1180.062
329.2870, 1181.815
329.7692, 1184.054
330.2513, 1186.737
330.7334, 1189.578
331.2155, 1192.167
331.6976, 1194.829
332.1797, 1198.372
332.6619, 1202.989
333.1440, 1208.180
333.6261, 1214.055
334.1082, 1220.232
334.5903, 1225.766
335.0724, 1229.950
335.5546, 1233.507
336.0367, 1237.444
336.5188, 1241.814
337.0009, 1245.908
337.4830, 1249.506
337.9651, 1252.456
338.4473, 1254.349
338.9294, 1254.369
339.4115, 1254.550
339.8936, 1256.888
340.3757, 1261.087
340.8578, 1264.811
341.3400, 1267.038
341.8221, 1268.542
342.3042, 1270.465
342.7863, 1272.790
343.2684, 1275.550
343.7505, 1278.851
344.2327, 1282.593
344.7148, 1286.411
345.1969, 1290.055
345.6790, 1294.226
346.1611, 1300.094
346.6432, 1307.383
347.1254, 1314.775
347.6075, 1322.389
348.0896, 1329.692
348.5717, 1335.818
349.0538, 1340.700
349.5359, 1345.042
350.0181, 1349.553
350.5002, 1353.929
350.9823, 1357.062
351.4644, 1359.101
351.9465, 1359.680
352.4286, 1358.714
352.9108, 1356.141
353.3929, 1351.589
353.8750, 1344.768
354.3571, 1335.893
354.8392, 1325.521
355.3214, 1313.389
355.8035, 1300.709
356.2856, 1287.802
356.7677, 1274.698
357.2498, 1261.400
357.7319, 1247.853
358.2141, 1234.304
358.6962, 1220.734
359.1783, 1206.947
359.6604, 1194.361
360.1425, 1183.156
360.6246, 1173.147
361.1068, 1164.508
361.5889, 1157.096
362.0710, 1150.243
362.5531, 1143.474
363.0352, 1136.762
363.5173, 1129.941
363.9995, 1122.085
364.4816, 1114.998
364.9637, 1109.883
365.4458, 1106.263
365.9279, 1102.816
366.4100, 1098.811
366.8922, 1094.626
367.3743, 1091.600
367.8564, 1090.399
368.3385, 1089.303
368.8206, 1088.065
369.3027, 1086.827
369.7849, 1086.000
370.2670, 1085.649
370.7491, 1085.012
371.2312, 1082.915
371.7133, 1078.580
372.1954, 1075.175
372.6776, 1073.352
373.1597, 1071.849
373.6418, 1069.841
374.1239, 1067.388
374.6060, 1065.072
375.0881, 1063.368
375.5703, 1062.260
376.0524, 1060.941
376.5345, 1059.096
377.0166, 1057.404
377.4987, 1056.174
377.9808, 1055.149
378.4630, 1053.814
378.9451, 1051.928
379.4272, 1049.949
379.9093, 1049.031
380.3914, 1050.184
380.8735, 1050.728
381.3557, 1050.213
381.8378, 1049.373
382.3199, 1048.433
382.8020, 1047.599
383.2841, 1047.388
383.7662, 1048.533
384.2484, 1051.292
384.7305, 1053.598
385.2126, 1055.429
385.6947, 1056.784
386.1768, 1057.372
386.6589, 1057.482
387.1411, 1057.682
387.6232, 1058.365
388.1053, 1059.313
388.5874, 1059.779
389.0695, 1059.751
389.5516, 1059.202
390.0338, 1057.918
390.5159, 1056.309
390.9980, 1054.731
391.4801, 1053.283
391.9622, 1051.875
392.4443, 1050.192
392.9265, 1048.123
393.4086, 1046.950
393.8907, 1047.845
394.3728, 1048.747
394.8549, 1048.539
395.3370, 1047.309
395.8192, 1045.605
396.3013, 1043.483
396.7834, 1041.158
397.2655, 1039.438
397.7476, 1038.560
398.2297, 1037.680
398.7119, 1036.302
399.1940, 1034.668
399.6761, 1033.016
400.1582, 1031.289
400.6403, 1029.812
401.1224, 1029.183
401.6046, 1029.322
402.0867, 1028.957
402.5688, 1027.530
403.0509, 1025.611
403.5330, 1023.674
404.0151, 1021.688
404.4973, 1020.408
404.9794, 1020.689
405.4615, 1021.739
405.9436, 1022.167
406.4257, 1021.772
406.9078, 1021.091
407.3900, 1020.467
407.8721, 1019.918
408.3542, 1019.478
408.8363, 1019.249
409.3184, 1019.054
409.8005, 1018.615
410.2827, 1018.085
410.7648, 1018.019
411.2469, 1018.708
411.7290, 1019.909
412.2111, 1021.172
412.6932, 1022.776
413.1754, 1023.772
413.6575, 1022.940
414.1396, 1021.979
414.6217, 1023.236
415.1038, 1026.894
415.5859, 1030.422
416.0681, 1031.115
416.5502, 1028.572
417.0323, 1027.576
417.5144, 1028.768
417.9965, 1030.548
418.4786, 1032.340
418.9608, 1034.235
419.4429, 1036.666
419.9250, 1039.895
420.4071, 1043.464
420.8892, 1046.057
421.3713, 1046.497
421.8535, 1047.727
422.3356, 1050.214
422.8177, 1053.206
423.2998, 1056.271
423.7819, 1059.275
424.2640, 1062.095
424.7462, 1064.430
425.2283, 1066.185
425.7104, 1069.076
426.1925, 1075.067
426.6746, 1080.062
427.1567, 1082.433
427.6389, 1083.160
428.1210, 1083.653
428.6031, 1084.504
429.0852, 1085.802
429.5673, 1087.878
430.0494, 1091.033
430.5316, 1093.889
431.0137, 1095.559
431.4958, 1097.202
431.9779, 1099.836
432.4600, 1103.415
432.9421, 1106.627
433.4243, 1108.003
433.9064, 1108.083
434.3885, 1109.255
434.8706, 1111.851
435.3527, 1115.048
435.8348, 1118.425
436.3170, 1122.025
436.7991, 1126.016
437.2812, 1130.452
437.7633, 1135.243
438.2454, 1140.486
438.7275, 1146.111
439.2097, 1151.364
439.6918, 1155.599
440.1739, 1159.886
440.6560, 1165.844
441.1381, 1173.450
441.6202, 1181.821
442.1024, 1190.855
442.5845, 1200.438
443.0666, 1210.609
443.5487, 1221.322
444.0308, 1231.773
444.5129, 1241.126
444.9951, 1249.611
445.4772, 1259.779
445.9593, 1273.024
446.4414, 1285.998
446.9235, 1297.349
447.4056, 1307.894
447.8878, 1319.057
448.3699, 1331.308
448.8520, 1343.794
449.3341, 1355.389
449.8162, 1366.312
450.2983, 1375.404
450.7805, 1382.488
451.2626, 1388.204
451.7447, 1393.275
452.2268, 1397.299
452.7089, 1399.336
453.1910, 1398.785
453.6732, 1395.690
454.1553, 1390.089
454.6374, 1381.037
455.1195, 1370.880
455.6016, 1360.493
456.0837, 1349.078
456.5659, 1335.676
457.0480, 1320.158
457.5301, 1304.056
458.0122, 1288.487
458.4943, 1273.410
458.9764, 1260.064
459.4586, 1249.457
459.9407, 1239.201
460.4228, 1227.716
460.9049, 1215.767
461.3870, 1204.653
461.8691, 1194.709
462.3513, 1185.988
462.8334, 1179.126
463.3155, 1174.042
463.7976, 1168.518
464.2797, 1161.550
464.7618, 1154.249
465.2440, 1147.760
465.7261, 1142.015
466.2082, 1137.469
466.6903, 1135.088
467.1724, 1133.531
467.6545, 1130.960
468.1367, 1127.322
468.6188, 1124.080
469.1009, 1122.333
469.5830, 1121.773
470.0651, 1120.776
470.5472, 1118.639
471.0294, 1117.016
471.5115, 1116.584
471.9936, 1116.785
472.4757, 1117.008
472.9578, 1117.070
473.4399, 1116.985
473.9221, 1116.788
474.4042, 1116.512
474.8863, 1115.893
475.3684, 1115.529
475.8505, 1114.239
476.3326, 1110.466
476.8148, 1105.693
477.2969, 1102.457
477.7790, 1102.030
478.2611, 1103.298
478.7432, 1103.912
479.2253, 1103.507
479.7075, 1103.496
480.1896, 1105.042
480.6717, 1106.190
481.1538, 1105.453
481.6359, 1103.177
482.1180, 1101.086
482.6002, 1100.541
483.0823, 1100.968
483.5644, 1100.737
484.0465, 1099.758
484.5286, 1098.460
485.0107, 1097.205
485.4929, 1095.608
485.9750, 1093.205
486.4571, 1089.938
486.9392, 1085.989
487.4213, 1080.841
487.9034, 1075.169
488.3856, 1070.693
488.8677, 1067.769
489.3498, 1065.084
489.8319, 1061.592
490.3140, 1057.282
490.7961, 1052.857
491.2783, 1047.469
491.7604, 1042.821
492.2425, 1040.366
492.7246, 1039.053
493.2067, 1036.742
493.6888, 1032.691
494.1710, 1028.102
494.6531, 1024.912
495.1352, 1023.652
495.6173, 1022.182
496.0994, 1020.334
496.5815, 1018.474
497.0637, 1016.667
497.5458, 1015.000
498.0279, 1013.687
498.5100, 1012.890
498.9921, 1012.283
499.4742, 1010.865
499.9564, 1007.973
500.4385, 1005.956
500.9206, 1005.084
501.4027, 1005.207
501.8848, 1006.685
502.3669, 1009.274
502.8491, 1011.924
503.3312, 1014.080
503.8133, 1015.741
504.2954, 1016.657
504.7775, 1016.576
505.2596, 1016.970
505.7418, 1018.901
506.2239, 1021.503
506.7060, 1023.560
507.1881, 1024.951
507.6702, 1026.037
508.1523, 1026.816
508.6345, 1027.468
509.1166, 1028.410
509.5987, 1029.710
510.0808, 1030.759
510.5629, 1030.914
511.0450, 1030.302
511.5272, 1030.453
512.0093, 1032.269
512.4914, 1033.662
512.9735, 1033.498
513.4556, 1032.777
513.9377, 1032.770
514.4199, 1033.831
514.9020, 1035.636
515.3841, 1038.042
515.8662, 1041.451
516.3483, 1042.707
516.8304, 1039.017
517.3126, 1036.105
517.7947, 1036.350
518.2768, 1038.147
518.7589, 1039.067
519.2410, 1038.136
519.7231, 1036.282
520.2053, 1034.630
520.6874, 1033.163
521.1695, 1032.356
521.6516, 1033.423
522.1337, 1033.629
522.6158, 1030.223
523.0980, 1024.502
523.5801, 1020.231
524.0622, 1019.637
524.5443, 1020.179
525.0264, 1019.092
525.5085, 1016.677
525.9907, 1014.828
526.4728, 1014.348
526.9549, 1014.391
527.4370, 1013.677
527.9191, 1012.080
528.4012, 1010.615
528.8834, 1009.699
529.3655, 1008.677
529.8476, 1007.617
530.3297, 1006.092
530.8118, 1002.893
531.2939, 997.2711
531.7761, 990.1686
532.2582, 983.9561
532.7403, 978.9174
533.2224, 974.2936
533.7045, 970.5356
534.1866, 966.7264
534.6688, 962.3377
535.1509, 957.3866
535.6330, 952.0205
536.1151, 946.0916
536.5972, 940.1332
537.0793, 935.6991
537.5615, 933.2153
538.0436, 930.5959
538.5257, 926.8605
539.0078, 923.1104
539.4899, 920.3422
539.9720, 918.5567
540.4542, 917.0549
540.9363, 915.8599
541.4184, 914.5870
541.9005, 912.4005
542.3826, 909.3502
542.8647, 906.7480
543.3469, 905.2764
543.8290, 904.6741
544.3111, 904.3576
544.7932, 904.5194
545.2753, 904.4645
545.7574, 903.6163
546.2396, 902.8452
546.7217, 903.1780
547.2038, 904.4089
547.6859, 905.4131
548.1680, 905.4098
548.6501, 904.5367
549.1323, 903.2966
549.6144, 900.7497
550.0965, 899.5411
550.5786, 900.5345
551.0607, 902.3249
551.5428, 904.0192
552.0250, 905.5117
552.5071, 907.0642
552.9892, 908.9427
553.4713, 911.0016
553.9534, 912.6992
554.4355, 913.8645
554.9177, 915.5710
555.3998, 918.6699
555.8819, 922.2353
556.3640, 924.9789
556.8461, 926.7858
557.3282, 928.5632
557.8104, 930.4771
558.2925, 932.6672
558.7746, 935.4435
559.2567, 938.7548
559.7388, 941.9636
560.2209, 944.6752
560.7031, 947.0765
561.1852, 949.7696
561.6673, 953.1370
562.1494, 956.3084
562.6315, 958.5982
563.1136, 961.2186
563.5958, 965.2626
564.0779, 970.5419
564.5600, 975.9151
565.0421, 980.5019
565.5242, 984.7426
566.0063, 990.1413
566.4885, 996.8480
566.9706, 1004.168
567.4527, 1012.171
567.9348, 1020.565
568.4169, 1029.529
568.8990, 1038.837
569.3812, 1047.524
569.8633, 1055.339
570.3454, 1062.015
570.8275, 1067.436
571.3096, 1071.520
571.7917, 1073.426
572.2739, 1072.943
572.7560, 1069.881
573.2381, 1063.531
573.7202, 1053.315
574.2023, 1042.306
574.6844, 1030.902
575.1666, 1018.637
575.6487, 1004.579
576.1308, 989.3790
576.6129, 974.4686
577.0950, 960.4828
577.5771, 947.6505
578.0593, 936.4900
578.5414, 927.3328
579.0235, 918.9451
579.5056, 910.1169
579.9877, 903.1724
580.4698, 900.5997
580.9520, 900.7064
581.4341, 899.4535
581.9162, 894.5272
582.3983, 888.5399
582.8804, 884.9401
583.3625, 883.5576
583.8447, 882.8683
584.3268, 882.7872
584.8089, 882.7009
585.2910, 881.8219
585.7731, 880.2589
586.2552, 879.1387
586.7374, 878.5814
587.2195, 878.4730
587.7016, 879.1431
588.1837, 880.1282
588.6658, 880.5385
589.1479, 880.1345
589.6301, 879.5536
590.1122, 879.5878
590.5943, 880.3024
591.0764, 881.0050
591.5585, 881.7200
592.0406, 882.3871
592.5228, 883.1639
593.0049, 883.7994
593.4870, 883.7761
593.9691, 882.9968
594.4512, 882.4651
594.9333, 883.6048
595.4155, 885.8823
595.8976, 886.6120
596.3797, 885.1729
596.8618, 884.3753
597.3439, 886.4362
597.8260, 890.0540
598.3082, 891.9803
598.7903, 891.7136
599.2724, 891.0475
599.7545, 890.0282
600.2366, 889.2252
600.7188, 889.2737
601.2009, 890.1885
601.6830, 891.7498
602.1651, 893.9358
602.6472, 896.3578
603.1293, 897.5026
603.6115, 896.4401
604.0936, 895.7891
604.5757, 896.1544
605.0578, 896.5616
605.5399, 896.6108
606.0220, 896.1859
606.5042, 895.1601
606.9863, 893.4240
607.4684, 891.1155
607.9505, 888.1014
608.4326, 884.4144
608.9147, 881.6820
609.3969, 880.7310
609.8790, 880.1258
610.3611, 878.2673
610.8432, 875.2519
611.3253, 872.2242
611.8074, 869.2032
612.2896, 866.3030
612.7717, 863.5367
613.2538, 860.9431
613.7359, 858.5357
614.2180, 856.3279
614.7001, 854.4780
615.1823, 853.2536
615.6644, 852.7050
616.1465, 851.6697
616.6286, 849.7864
617.1107, 847.8995
617.5928, 846.0481
618.0750, 844.4045
618.5571, 843.2576
619.0392, 842.6387
619.5213, 842.0161
620.0034, 841.1483
620.4855, 839.9572
620.9677, 837.9304
621.4498, 835.0091
621.9319, 832.8607
622.4140, 832.6306
622.8961, 833.3338
623.3782, 832.8198
623.8604, 830.7599
624.3425, 828.7193
624.8246, 826.7804
625.3067, 825.0053
625.7888, 823.2694
626.2709, 821.7395
626.7531, 820.8170
627.2352, 820.7119
627.7173, 821.0567
628.1994, 821.2330
628.6815, 821.2341
629.1636, 821.0844
629.6458, 820.8100
630.1279, 820.3292
630.6100, 819.4518
631.0921, 818.3959
631.5742, 817.5808
632.0563, 817.1828
632.5385, 816.8162
633.0206, 815.9296
633.5027, 814.9498
633.9848, 815.0051
634.4669, 816.2248
634.9490, 817.1616
635.4312, 816.7148
635.9133, 815.1689
636.3954, 813.8486
636.8775, 812.6542
637.3596, 811.8649
637.8417, 811.6472
638.3239, 811.7143
638.8060, 812.0319
639.2881, 812.4612
639.7702, 812.7172
640.2523, 812.6377
640.7344, 812.2667
641.2166, 811.6528
641.6987, 810.7843
642.1808, 809.7760
642.6629, 808.4280
643.1450, 807.2916
643.6271, 806.7695
644.1093, 806.8416
644.5914, 807.6205
645.0735, 810.1844
645.5556, 812.2404
646.0377, 812.6183
646.5198, 811.8810
647.0020, 810.3803
647.4841, 808.4135
647.9662, 807.1112
648.4483, 807.6285
648.9304, 809.6298
649.4125, 810.6998
649.8947, 810.2283
650.3768, 809.9501
650.8589, 810.3079
651.3410, 810.8342
651.8231, 811.3474
652.3052, 811.7598
652.7874, 811.8251
653.2695, 811.0915
653.7516, 810.2598
654.2337, 810.4305
654.7158, 811.3361
655.1979, 811.6944
655.6801, 811.0948
656.1622, 810.1193
656.6443, 809.3766
657.1264, 808.8840
657.6085, 808.3491
658.0906, 807.4411
658.5728, 806.9114
659.0549, 807.0524
659.5370, 807.5882
660.0191, 808.5287
660.5012, 809.6825
660.9833, 810.2789
661.4655, 809.5353
661.9476, 807.8450
662.4297, 806.5154
662.9118, 805.6452
663.3939, 804.3276
663.8760, 801.9845
664.3582, 799.4491
664.8403, 797.5746
665.3224, 796.3270
665.8045, 795.8482
666.2866, 796.8538
666.7687, 797.9088
667.2509, 798.2966
667.7330, 798.1721
668.2151, 797.8203
668.6972, 797.3179
669.1793, 796.5505
669.6614, 795.2936
670.1436, 793.6161
670.6257, 792.4415
671.1078, 791.5935
671.5899, 791.6067
672.0720, 793.7336
672.5541, 796.0087
673.0363, 796.7513
673.5184, 795.9891
674.0005, 795.1402
674.4826, 794.8859
674.9647, 794.7471
675.4468, 794.1794
675.9290, 793.3216
676.4111, 792.6465
676.8932, 792.3055
677.3753, 791.9766
677.8574, 791.1903
678.3395, 789.8959
678.8217, 789.4958
679.3038, 791.1197
679.7859, 792.2129
680.2680, 791.7097
680.7501, 790.9328
681.2322, 791.2824
681.7144, 792.7394
682.1965, 793.9904
682.6786, 793.9460
683.1607, 793.3337
683.6428, 793.4697
684.1249, 794.2359
684.6071, 794.5573
685.0892, 794.0315
685.5713, 793.2177
686.0534, 792.6478
686.5355, 792.3082
687.0176, 792.5555
687.4998, 794.3273
687.9819, 795.4442
688.4640, 794.8292
688.9461, 793.6276
689.4282, 793.0421
689.9103, 793.1735
690.3925, 793.3129
690.8746, 793.0222
691.3567, 792.2816
691.8388, 790.8098
692.3209, 788.5640
692.8030, 786.8461
693.2852, 786.1544
693.7673, 785.8092
694.2494, 784.9962
694.7315, 783.7923
695.2136, 783.2927
695.6957, 784.1510
696.1779, 784.9778
696.6600, 785.6718
697.1421, 785.8690
697.6242, 784.6760
698.1063, 782.3619
698.5884, 780.6710
699.0706, 781.1388
699.5527, 782.8133
700.0348, 782.7629
700.5169, 780.6340
700.9990, 779.0704
701.4811, 778.8465
701.9633, 778.9421
702.4454, 778.6778
702.9275, 778.0462
703.4096, 776.9095
703.8917, 774.4576
704.3738, 772.5859
704.8560, 772.7067
705.3381, 773.4645
705.8202, 773.1456
706.3023, 771.6902
706.7844, 770.1477
707.2665, 769.2372
707.7487, 768.7426
708.2308, 768.1068
708.7129, 767.2926
709.1950, 766.5291
709.6771, 766.0253
710.1592, 765.3326
710.6414, 763.8937
711.1235, 762.1135
711.6056, 760.9517
712.0877, 760.9901
712.5698, 760.6620
713.0519, 758.5558
713.5341, 756.0802
714.0162, 755.0828
714.4983, 755.4513
714.9804, 755.9993
715.4625, 756.1122
715.9446, 755.5487
716.4268, 753.3757
716.9089, 748.7514
717.3910, 746.3597
717.8731, 747.6902
718.3552, 749.4039
718.8373, 750.1390
719.3195, 750.1923
719.8016, 749.8626
720.2837, 749.0997
720.7658, 748.5007
721.2479, 748.6543
721.7300, 748.8981
722.2122, 748.4067
722.6943, 747.3320
723.1764, 746.3203
723.6585, 745.6517
724.1406, 745.2324
724.6227, 744.9665
725.1049, 744.8870
725.5870, 744.6134
726.0691, 744.0059
726.5512, 743.4288
727.0333, 743.1449
727.5154, 742.8630
727.9976, 742.0473
728.4797, 740.6935
728.9618, 740.0593
729.4439, 741.2780
729.9260, 742.9211
730.4081, 743.9760
730.8903, 744.3890
731.3724, 743.9531
731.8545, 742.6573
732.3366, 741.1747
732.8187, 740.1934
733.3008, 739.6868
733.7830, 739.3276
734.2651, 739.2644
734.7472, 739.0352
735.2293, 738.4358
735.7114, 737.7219
736.1935, 736.9592
736.6757, 736.2175
737.1578, 735.7394
737.6399, 735.5997
738.1220, 735.7466
738.6041, 736.6256
739.0862, 737.5756
739.5684, 737.2952
740.0505, 735.7670
740.5326, 734.1998
741.0147, 733.4420
741.4968, 733.3514
741.9789, 733.5844
742.4611, 734.3113
742.9432, 734.7283
743.4253, 734.7647
743.9074, 734.4562
744.3895, 733.4634
744.8716, 732.2510
745.3538, 731.8221
745.8359, 732.6953
746.3180, 733.1544
746.8001, 732.1007
747.2822, 730.4989
747.7643, 729.0272
748.2465, 727.9096
748.7286, 727.6047
749.2107, 728.3264
749.6928, 729.3708
750.1749, 729.6299
750.6570, 729.0554
751.1392, 728.7963
751.6213, 729.1521
752.1034, 729.1113
752.5855, 727.8531
753.0676, 726.2781
753.5497, 725.5948
754.0319, 725.8444
754.5140, 725.8278
754.9961, 724.7274
755.4782, 723.8283
755.9603, 724.3893
756.4424, 725.4604
756.9246, 725.3582
757.4067, 723.8760
757.8888, 722.3949
758.3709, 722.1544
758.8530, 722.7532
759.3351, 722.7776
759.8173, 722.1374
760.2994, 721.7552
760.7815, 722.0296
761.2636, 722.2415
761.7457, 721.5792
762.2278, 720.3036
762.7100, 719.6775
763.1921, 720.1851
763.6742, 716.9814
764.1563, 720.1739
764.6384, 722.1050
765.1205, 722.8355
765.6027, 719.1475
766.0848, 720.8766
766.5669, 720.2584
767.0490, 719.4230
767.5311, 721.5544
768.0132, 717.8610
768.4954, 719.6913
768.9775, 719.1406
769.4596, 719.4960
769.9417, 717.4902
770.4238, 718.2680
770.9059, 718.3920
771.3881, 719.2748
771.8702, 719.5236
772.3523, 718.6263
772.8344, 717.7223
773.3165, 717.1669
773.7986, 716.8300
774.2808, 716.5676
774.7629, 716.3461
775.2450, 716.1710
775.7271, 716.1227
776.2092, 716.0499
776.6913, 715.5548
777.1735, 714.8080
777.6556, 714.5365
778.1377, 714.9120
778.6198, 715.7244
779.1019, 716.9830
779.5840, 718.3928
780.0662, 718.3126
780.5483, 715.3405
781.0304, 713.5432
781.5125, 714.2477
781.9946, 715.0638
782.4767, 714.4825
782.9589, 713.2691
783.4410, 713.2247
783.9231, 715.1688
784.4052, 716.3220
784.8873, 713.7968
785.3694, 710.3821
785.8516, 709.9705
786.3337, 711.8687
786.8158, 712.8682
787.2979, 711.6960
787.7800, 709.8199
788.2621, 709.2208
788.7443, 709.8466
789.2264, 709.6746
789.7085, 705.8608
790.1906, 708.3785
790.6727, 709.7607
791.1548, 710.0684
791.6370, 706.0834
792.1191, 707.6415
792.6012, 706.9783
793.0833, 706.2239
793.5654, 708.5622
794.0475, 705.2016
794.5297, 707.4908
795.0118, 707.5248
795.4939, 708.5909
795.9760, 707.4219
796.4581, 706.9432
796.9402, 708.7004
797.4224, 709.2197
797.9045, 707.7933
798.3866, 708.9250
798.8687, 705.4863
799.3508, 706.0583
799.8329, 706.5466
800.3151, 707.0233
800.7972, 707.4400
801.2793, 707.8883
801.7614, 707.9072
802.2435, 706.9960
802.7256, 706.3155
803.2078, 706.2399
803.6899, 706.5413
804.1720, 707.1469
804.6541, 707.9415
805.1362, 708.4736
805.6183, 708.4734
806.1005, 708.1442
806.5826, 707.3295
807.0647, 706.4276
807.5468, 706.6054
808.0289, 707.9274
808.5110, 708.9833
808.9932, 708.7197
809.4753, 707.6945
809.9574, 707.5233
810.4395, 708.5885
810.9216, 708.6852
811.4037, 706.9969
811.8859, 705.5131
812.3680, 705.5299
812.8501, 706.2098
813.3322, 706.3219
813.8143, 705.7221
814.2964, 705.2488
814.7786, 703.7638
815.2607, 706.2935
815.7428, 707.6876
816.2249, 708.0072
816.7070, 704.0342
817.1891, 705.6042
817.6713, 704.9529
818.1534, 704.2104
818.6355, 706.5607
819.1176, 703.2120
819.5997, 705.5132
820.0818, 705.5591
820.5640, 706.6372
821.0461, 705.4801
821.5282, 705.0134
822.0103, 706.7826
822.4924, 707.3138
822.9745, 705.8994
823.4567, 707.0431
823.9388, 703.6163
824.4209, 704.2002
824.9030, 706.5145
825.3851, 705.2125
825.8672, 706.3971
826.3494, 706.6346
826.8315, 706.5242
827.3136, 707.0470
827.7957, 706.5655
828.2778, 707.0098
828.7599, 706.2638
829.2421, 705.6014
829.7242, 705.3385
830.2063, 705.3877
830.6884, 705.7265
831.1705, 706.2037
831.6526, 706.5110
832.1348, 706.6516
832.6169, 706.2948
833.0990, 705.2168
833.5811, 704.1759
834.0632, 703.4337
834.5453, 703.1464
835.0275, 703.8234
835.5096, 706.1284
835.9917, 707.3461
836.4738, 706.3318
836.9559, 705.5568
837.4380, 706.3362
837.9202, 707.5814
838.4023, 708.0006
838.8844, 707.5070
839.3665, 706.9778
839.8486, 707.0512
840.3307, 707.0970
840.8129, 706.1697
841.2950, 704.8484
841.7771, 704.3200
842.2592, 704.7076
842.7413, 705.5181
843.2234, 706.4816
843.7056, 707.4047
844.1877, 707.8185
844.6698, 707.6652
845.1519, 707.6861
845.6340, 707.9244
846.1161, 708.2818
846.5983, 708.9089
847.0804, 709.4441
847.5625, 709.1094
848.0446, 707.7873
848.5267, 707.5444
849.0089, 709.3956
849.4910, 711.1264
849.9731, 711.9094
850.4552, 712.4782
850.9373, 713.5880
851.4194, 715.1171
851.9016, 716.4504
852.3837, 717.3330
852.8658, 717.9385
853.3479, 718.2679
853.8300, 718.5115
854.3121, 718.8494
854.7943, 719.3902
855.2764, 720.6425
855.7585, 722.8285
856.2406, 725.1641
856.7227, 726.5543
857.2048, 727.0906
857.6870, 728.1075
858.1691, 729.6645
858.6512, 731.5461
859.1333, 734.2087
859.6154, 736.3317
860.0975, 736.1093
860.5797, 734.2012
861.0618, 734.3433
861.5439, 737.7217
862.0260, 741.1061
862.5081, 744.6337
862.9902, 747.6184
863.4724, 749.4318
863.9545, 750.5168
864.4366, 751.3738
864.9187, 752.1719
865.4008, 753.6847
865.8829, 756.9796
866.3651, 760.8177
866.8472, 763.9219
867.3293, 766.4202
867.8114, 768.5603
868.2935, 770.4745
868.7756, 772.6307
869.2578, 775.3847
869.7399, 778.6020
870.2220, 781.9500
870.7041, 785.4132
871.1862, 789.3125
871.6683, 793.9886
872.1505, 797.8967
872.6326, 800.1249
873.1147, 801.2230
873.5968, 801.9711
874.0789, 802.1740
874.5610, 803.0776
875.0432, 804.7615
875.5253, 806.9841
876.0074, 810.5082
876.4895, 813.8929
876.9716, 816.0471
877.4537, 816.9833
877.9359, 817.0624
878.4180, 815.8664
878.9001, 815.1832
879.3822, 816.6828
879.8643, 818.8641
880.3464, 820.2563
880.8286, 820.7936
881.3107, 820.7659
881.7928, 820.2859
882.2749, 819.2795
882.7570, 817.4734
883.2391, 815.1700
883.7213, 813.5814
884.2034, 812.6225
884.6855, 810.6588
885.1676, 807.2238
885.6497, 803.3891
886.1318, 799.9755
886.6140, 796.2701
887.0961, 792.4517
887.5782, 788.9147
888.0603, 784.8574
888.5424, 781.0960
889.0245, 777.4760
889.5067, 773.3500
889.9888, 769.6685
890.4709, 767.8531
890.9530, 767.9199
891.4351, 767.6086
891.9172, 766.3278
892.3994, 764.7314
892.8815, 762.8069
893.3636, 760.9005
893.8457, 759.6085
894.3278, 758.6302
894.8099, 756.8842
895.2921, 753.7990
895.7742, 750.8392
896.2563, 749.6917
896.7384, 749.4451
897.2205, 748.6514
897.7026, 747.3232
898.1848, 745.8245
898.6669, 744.2684
899.1490, 742.6271
899.6311, 740.8922
900.1132, 739.0041
900.5953, 736.5695
901.0775, 733.4809
901.5596, 731.1738
902.0417, 730.0174
902.5238, 729.0817
903.0059, 727.7425
903.4880, 726.3441
903.9702, 725.6481
904.4523, 725.9064
904.9344, 725.8373
905.4165, 725.0156
905.8986, 724.4078
906.3807, 724.0918
906.8629, 724.1735
907.3450, 725.0441
907.8271, 726.4349
908.3092, 727.3311
908.7913, 727.6069
909.2734, 727.0978
909.7556, 724.7628
910.2377, 722.4551
910.7198, 722.1080
911.2019, 723.0076
911.6840, 723.5725
912.1661, 723.3298
912.6483, 722.8232
913.1304, 722.5845
913.6125, 722.2894
914.0946, 721.2307
914.5767, 719.6718
915.0588, 718.5960
915.5410, 718.0990
916.0231, 717.2917
916.5052, 715.5609
916.9873, 713.4459
917.4694, 712.1632
917.9515, 711.7740
918.4337, 710.3082
918.9158, 707.5732
919.3979, 704.4855
919.8800, 701.0732
920.3621, 698.0510
920.8442, 696.5366
921.3264, 696.2594
921.8085, 694.3572
922.2906, 687.9202
922.7727, 684.6418
923.2548, 688.1124
923.7369, 691.1252
924.2191, 689.9008
924.7012, 686.2722
925.1833, 683.0341
925.6654, 680.5302
926.1475, 677.8217
926.6296, 673.5596
927.1118, 670.3053
927.5939, 670.2838
928.0760, 671.2753
928.5581, 670.6671
929.0402, 668.7091
929.5223, 667.3823
930.0045, 667.6451
930.4866, 668.0849
930.9687, 667.1765
931.4508, 665.7609
931.9329, 665.4608
932.4150, 665.8241
932.8972, 665.1105
933.3793, 662.9273
933.8614, 660.5184
934.3435, 658.9619
934.8256, 657.9578
935.3077, 656.6074
935.7899, 654.9919
936.2720, 654.6598
936.7541, 655.9695
937.2362, 656.0984
937.7183, 653.3412
938.2004, 649.7010
938.6826, 648.2850
939.1647, 649.1573
939.6468, 649.1906
940.1289, 647.9219
940.6110, 646.9833
941.0931, 647.1688
941.5753, 647.1234
942.0574, 645.5798
942.5395, 643.1416
943.0216, 641.4207
943.5037, 640.5539
943.9858, 640.0127
944.4680, 640.1545
944.9501, 640.1370
945.4322, 639.2705
945.9143, 638.3625
946.3964, 638.4341
946.8785, 639.3132
947.3607, 639.8707
947.8428, 639.7980
948.3249, 639.1998
948.8070, 637.5562
949.2891, 635.9005
949.7712, 635.2349
950.2534, 635.3170
950.7355, 635.6273
951.2176, 635.9821
951.6997, 636.3155
952.1818, 636.6464
952.6639, 636.8336
953.1461, 636.7109
953.6282, 636.2863
954.1103, 635.3441
954.5924, 634.0352
955.0745, 633.3212
955.5566, 633.6892
956.0388, 634.2852
956.5209, 633.7883
957.0030, 632.5182
957.4851, 632.2028
957.9672, 632.8372
958.4493, 633.3709
958.9315, 633.5797
959.4136, 633.6043
959.8957, 633.5856
960.3778, 633.3796
960.8599, 632.4285
961.3420, 632.4712
961.8242, 629.7399
962.3063, 631.5683
962.7884, 632.6350
963.2705, 631.4913
963.7526, 629.7083
964.2347, 628.5714
964.7169, 628.1253
965.1990, 628.7141
965.6811, 631.8773
966.1632, 633.7039
966.6453, 633.0406
967.1274, 632.3586
967.6096, 632.7302
968.0917, 633.6462
968.5738, 634.7286
969.0559, 635.8651
969.5380, 636.0441
970.0201, 634.1335
970.5023, 632.4177
970.9844, 631.4271
971.4665, 631.1920
971.9486, 632.1315
972.4307, 633.7128
972.9128, 634.8674
973.3950, 635.3298
973.8771, 635.9985
974.3592, 637.8820
974.8413, 639.7349
975.3234, 640.0870
975.8055, 639.9168
976.2877, 640.6279
976.7698, 642.2935
977.2519, 644.4851
977.7340, 647.0281
978.2161, 649.3379
978.6982, 650.6687
979.1804, 651.3824
979.6625, 651.7291
980.1446, 652.0562
980.6267, 653.7623
981.1088, 656.9742
981.5909, 660.1736
982.0731, 662.3416
982.5552, 663.7645
983.0373, 664.9243
983.5194, 665.8173
984.0015, 666.4221
984.4836, 666.7411
984.9658, 666.9648
985.4479, 667.2083
985.9300, 666.7957
986.4121, 664.9423
986.8942, 662.1903
987.3763, 660.6469
987.8585, 660.5806
988.3406, 660.0013
988.8227, 658.8743
989.3048, 656.9590
989.7869, 653.9924
990.2690, 650.4885
990.7512, 646.9529
991.2333, 643.4189
991.7154, 640.3879
992.1975, 637.8392
992.6796, 635.8470
993.1617, 634.7218
993.6439, 633.7393
994.1260, 632.7947
994.6081, 631.6483
995.0902, 629.7990
995.5723, 627.2117
996.0544, 625.0538
996.5366, 623.4094
997.0187, 622.1304
997.5008, 621.4572
997.9829, 620.8771
998.4650, 620.0593
998.9471, 619.1234
999.4293, 618.3277
999.9114, 617.7119
1000.393, 617.0209
1000.876, 616.2271
1001.358, 615.2920
1001.840, 613.9566
1002.322, 612.6884
1002.804, 611.8173
1003.286, 611.3727
1003.768, 611.4866
1004.250, 612.2485
1004.733, 612.5711
1005.215, 611.7195
1005.697, 610.3798
1006.179, 608.5687
1006.661, 606.8965
1007.143, 606.0886
1007.625, 606.1607
1008.107, 606.9175
1008.589, 608.3307
1009.072, 609.6962
1009.554, 610.9014
1010.036, 611.3323
1010.518, 609.5475
1011.000, 606.6688
1011.482, 604.8471
1011.964, 604.3616
1012.446, 604.3630
1012.929, 604.3962
1013.411, 604.6368
1013.893, 605.7736
1014.375, 607.0385
1014.857, 606.3077
1015.339, 604.3020
1015.821, 603.8310
1016.303, 605.3593
1016.785, 607.0411
1017.268, 607.6693
1017.750, 607.4682
1018.232, 608.5916
1018.714, 606.7455
1019.196, 608.2410
1019.678, 608.7994
1020.160, 605.6140
1020.642, 607.2629
1021.125, 606.9749
1021.607, 606.6070
1022.089, 608.9364
1022.571, 606.2953
1023.053, 608.5820
1023.535, 607.2985
1024.017, 607.1068
1024.499, 607.0143
1024.981, 606.7294
1025.464, 607.1258
1025.946, 609.3117
1026.428, 608.5097
1026.910, 612.0551
1027.392, 608.3506
1027.874, 606.1740
1028.356, 605.8507
1028.838, 606.4070
1029.321, 607.7815
1029.803, 609.1166
1030.285, 609.5379
1030.767, 609.2472
1031.249, 609.2458
1031.731, 609.8495
1032.213, 609.3654
1032.695, 607.0814
1033.177, 605.4508
1033.660, 605.6173
1034.142, 606.3846
1034.624, 606.5100
1035.106, 606.1351
1035.588, 606.1765
1036.070, 607.0626
1036.552, 607.3113
1037.034, 606.5133
1037.516, 605.7289
1037.999, 605.5325
1038.481, 605.0823
1038.963, 604.1490
1039.445, 605.2451
1039.927, 603.7087
1040.409, 604.8187
1040.891, 604.4078
1041.373, 603.6194
1041.855, 604.1623
1042.338, 601.3151
1042.820, 601.1740
1043.302, 599.4932
1043.784, 603.6032
1044.266, 603.3788
1044.748, 604.3748
1045.230, 604.4012
1045.712, 601.9904
1046.195, 600.2276
1046.677, 600.7627
1047.159, 602.2475
1047.641, 603.6689
1048.123, 604.7960
1048.605, 604.6091
1049.087, 602.0443
1049.569, 599.8975
1050.052, 598.4844
1050.534, 597.6641
1051.016, 597.7203
1051.498, 598.0900
1051.980, 598.2275
1052.462, 598.1030
1052.944, 597.7990
1053.426, 596.8488
1053.908, 596.6960
1054.391, 598.9174
1054.873, 600.5643
1055.355, 599.2525
1055.837, 597.1887
1056.319, 597.1111
1056.801, 598.8154
1057.283, 600.0380
1057.765, 600.0244
1058.248, 600.0385
1058.730, 600.7227
1059.212, 601.2270
1059.694, 601.0240
1060.176, 600.4255
1060.658, 599.5417
1061.140, 598.5985
1061.622, 598.3712
1062.104, 599.4216
1062.587, 600.1880
1063.069, 600.1238
1063.551, 599.6003
1064.033, 597.7881
1064.515, 596.3685
1064.997, 598.2919
1065.479, 602.4456
1065.961, 603.9670
1066.443, 600.6418
1066.926, 597.5676
1067.408, 596.9576
1067.890, 597.0378
1068.372, 596.6824
1068.854, 596.4815
1069.336, 597.5442
1069.818, 599.4223
1070.300, 600.4559
1070.782, 600.0547
1071.265, 599.3719
1071.747, 598.7515
1072.229, 598.1913
1072.711, 597.5992
1073.193, 597.1359
1073.675, 597.0811
1074.157, 597.3060
1074.639, 597.3796
1075.122, 597.1440
1075.604, 597.0713
1076.086, 597.6132
1076.568, 598.1041
1077.050, 597.8728
1077.532, 597.6202
1078.014, 598.2164
1078.496, 599.3956
1078.979, 600.2465
1079.461, 600.5026
1079.943, 601.1096
1080.425, 602.7781
1080.907, 604.5626
1081.389, 605.9282
1081.871, 607.1669
1082.353, 608.7639
1082.835, 610.4057
1083.318, 611.1292
1083.800, 610.7439
1084.282, 611.1019
1084.764, 614.1873
1085.246, 616.6920
1085.728, 616.0568
1086.210, 614.9754
1086.692, 615.6813
1087.175, 617.7296
1087.657, 620.0682
1088.139, 622.4813
1088.621, 625.1093
1089.103, 629.1268
1089.585, 631.7934
1090.067, 630.5215
1090.549, 628.8398
1091.031, 629.6656
1091.514, 631.7814
1091.996, 633.1950
1092.478, 633.6536
1092.960, 633.9178
1093.442, 634.3271
1093.924, 634.4137
1094.406, 634.3769
1094.888, 633.5576
1095.370, 631.2635
1095.853, 628.1091
1096.335, 624.7535
1096.817, 621.3034
1097.299, 617.8407
1097.781, 614.5800
1098.263, 610.8251
1098.745, 605.2567
1099.227, 600.4471
1099.709, 598.4420
1100.192, 597.3519
1100.674, 594.9302
1101.156, 591.5956
1101.638, 589.4556
1102.120, 589.3334
1102.602, 588.7457
1103.084, 586.5232
1103.566, 584.4290
1104.049, 583.4874
1104.531, 582.6478
1105.013, 583.8922
1105.495, 583.5676
1105.977, 582.8062
1106.459, 581.6412
1106.941, 578.3444
1107.423, 578.1956
1107.906, 577.0253
1108.388, 575.9807
1108.870, 576.7686
1109.352, 574.6703
1109.834, 575.7772
1110.316, 575.8460
1110.798, 576.6415
1111.280, 576.4100
1111.762, 576.7215
1112.245, 578.4073
1112.727, 571.3597
1113.209, 570.0837
1113.691, 569.1667
1114.173, 568.6398
1114.655, 568.6733
1115.137, 569.2134
1115.619, 569.5596
1116.102, 569.6923
1116.584, 569.6562
1117.066, 569.5519
1117.548, 569.0981
1118.030, 567.7553
1118.512, 566.4986
1118.994, 566.4328
1119.476, 567.1952
1119.958, 567.2439
1120.441, 567.5372
1120.923, 568.3139
1121.405, 567.8963
1121.887, 569.2022
1122.369, 569.1878
1122.851, 568.3823
1123.333, 566.8568
1123.815, 565.1349
1124.297, 564.4252
1124.780, 564.8210
1125.262, 565.0357
1125.744, 564.9618
1126.226, 565.1312
1126.708, 565.6990
1127.190, 566.3299
1127.672, 566.9040
1128.154, 567.2645
1128.636, 567.1312
1129.119, 566.5761
1129.601, 566.3624
1130.083, 565.5413
1130.565, 565.7746
1131.047, 563.6118
1131.529, 561.5345
1132.011, 560.0574
1132.493, 559.3450
1132.976, 559.6699
1133.458, 560.6760
1133.940, 561.4550
1134.422, 561.9916
1134.904, 561.9728
1135.386, 561.4131
1135.868, 560.7713
1136.350, 560.1833
1136.833, 559.9727
1137.315, 560.4057
1137.797, 561.1032
1138.279, 561.4599
1138.761, 561.5447
1139.243, 561.4448
1139.725, 561.2767
1140.207, 561.8223
1140.689, 562.9756
1141.172, 563.0832
1141.654, 561.3787
1142.136, 559.5347
1142.618, 559.4850
1143.100, 560.2616
1143.582, 560.3575
1144.064, 559.9764
1144.546, 559.3875
1145.029, 558.7433
1145.511, 558.3092
1145.993, 558.1721
1146.475, 558.3544
1146.957, 558.9890
1147.439, 559.6369
1147.921, 560.3340
1148.403, 560.4085
1148.885, 558.1533
1149.368, 555.1057
1149.850, 554.1348
1150.332, 555.2565
1150.814, 556.4309
1151.296, 556.8571
1151.778, 557.0505
1152.260, 557.1571
1152.742, 557.3251
1153.224, 557.8349
1153.707, 558.3179
1154.189, 558.5389
1154.671, 558.3652
1155.153, 557.3984
1155.635, 555.5436
1156.117, 554.2311
1156.599, 554.0162
1157.081, 554.2601
1157.563, 555.1654
1158.046, 556.0320
1158.528, 556.6801
1159.010, 556.8693
1159.492, 555.9702
1159.974, 554.1848
1160.456, 553.2637
1160.938, 553.7591
1161.420, 554.3221
1161.903, 555.3807
1162.385, 555.7955
1162.867, 554.6910
1163.349, 553.4832
1163.831, 553.2667
1164.313, 553.7599
1164.795, 554.4156
1165.277, 555.3836
1165.760, 555.0625
1166.242, 552.6656
1166.724, 551.6281
1167.206, 552.8942
1167.688, 554.2559
1168.170, 554.6376
1168.652, 554.4162
1169.134, 554.0378
1169.616, 553.5085
1170.099, 552.7144
1170.581, 552.6053
1171.063, 552.4089
1171.545, 552.1172
1172.027, 552.4766
1172.509, 552.1078
1172.991, 552.0603
1173.473, 553.2181
1173.956, 554.6575
1174.438, 554.7261
1174.920, 553.7852
1175.402, 552.7082
1175.884, 551.6971
1176.366, 551.5549
1176.848, 552.2452
1177.330, 553.1103
1177.813, 553.8355
1178.295, 553.9218
1178.777, 552.3470
1179.259, 550.7692
1179.741, 551.9415
1180.223, 553.9393
1180.705, 553.8770
1181.187, 552.4055
1181.669, 551.3464
1182.151, 550.9609
1182.634, 550.2267
1183.116, 548.4669
1183.598, 547.1251
1184.080, 547.2565
1184.562, 547.8511
1185.044, 548.4785
1185.526, 549.0164
1186.008, 549.3734
1186.490, 549.5638
1186.973, 549.7785
1187.455, 550.0920
1187.937, 549.5588
1188.419, 546.5319
1188.901, 544.8223
1189.383, 546.0357
1189.865, 547.7050
1190.347, 549.0141
1190.830, 549.8135
1191.312, 549.7911
1191.794, 549.1129
1192.276, 548.6194
1192.758, 548.4459
1193.240, 547.9364
1193.722, 546.8252
1194.204, 546.2162
1194.687, 546.4721
1195.169, 546.9766
1195.651, 547.4391
1196.133, 547.6325
1196.615, 547.0638
1197.097, 545.9517
1197.579, 545.6748
1198.061, 546.1935
1198.543, 546.8713
1199.026, 547.6087
1199.508, 547.8965
1199.990, 547.5721
1200.472, 546.9333
1200.954, 546.2039
1201.436, 545.3593
1201.918, 543.8276
1202.400, 542.4586
1202.883, 543.6234
1203.365, 546.1241
1203.847, 547.0221
1204.329, 546.3348
1204.811, 546.0052
1205.293, 546.7164
1205.775, 546.9704
1206.257, 545.3530
1206.740, 543.4596
1207.222, 542.2391
1207.704, 541.4672
1208.186, 540.9535
1208.668, 540.7459
1209.150, 541.0943
1209.632, 541.8666
1210.114, 542.4145
1210.596, 542.5734
1211.078, 542.5723
1211.561, 542.2924
1212.043, 542.0831
1212.525, 542.1084
1213.007, 542.1669
1213.489, 542.1553
1213.971, 542.0718
1214.453, 541.9252
1214.935, 541.7083
1215.417, 541.3058
1215.900, 541.1769
1216.382, 540.2798
1216.864, 540.6566
1217.346, 540.7702
1217.828, 540.3201
1218.310, 539.5212
1218.792, 538.4233
1219.274, 537.5237
1219.757, 538.0099
1220.239, 539.4455
1220.721, 539.6306
1221.203, 538.8005
1221.685, 537.8387
1222.167, 537.0268
1222.649, 537.1953
1223.131, 538.5413
1223.614, 539.9046
1224.096, 540.3785
1224.578, 541.2839
1225.060, 541.3034
1225.542, 542.0392
1226.024, 542.1249
1226.506, 541.8367
1226.988, 541.8002
1227.470, 541.8156
1227.953, 540.9128
1228.435, 538.7791
1228.917, 537.1893
1229.399, 537.3470
1229.881, 537.4081
1230.363, 536.4984
1230.845, 535.6202
1231.327, 535.1656
1231.810, 535.2056
1232.292, 535.9167
1232.774, 537.1747
1233.256, 538.5964
1233.738, 540.4093
1234.220, 541.4423
1234.702, 541.7805
1235.184, 540.8660
1235.667, 538.1848
1236.149, 535.8721
1236.631, 535.0652
1237.113, 534.9934
1237.595, 534.7523
1238.077, 534.5017
1238.559, 535.0312
1239.041, 534.2776
1239.523, 535.3275
1240.005, 533.3470
1240.488, 532.0201
1240.970, 531.7705
1241.452, 532.4406
1241.934, 533.9700
1242.416, 535.0300
1242.898, 533.8876
1243.380, 532.2757
1243.862, 531.6217
1244.344, 531.7137
1244.827, 532.7599
1245.309, 534.1205
1245.791, 534.7800
1246.273, 534.7131
1246.755, 534.6522
1247.237, 534.9257
1247.719, 534.7070
1248.201, 533.2566
1248.684, 532.0680
1249.166, 531.5712
1249.648, 531.4794
1250.130, 531.6607
1250.612, 532.1509
1251.094, 533.2004
1251.576, 534.5924
1252.058, 534.7913
1252.541, 533.5845
1253.023, 532.7961
1253.505, 532.5239
1253.987, 531.8881
1254.469, 530.6649
1254.951, 529.8743
1255.433, 530.1139
1255.915, 530.8694
1256.397, 531.7538
1256.880, 532.4001
1257.362, 531.5242
1257.844, 530.1844
1258.326, 530.7001
1258.808, 532.5102
1259.290, 534.1691
1259.772, 535.2640
1260.254, 535.6316
1260.737, 535.1190
1261.219, 534.5677
1261.701, 534.5294
1262.183, 534.4199
1262.665, 533.8725
1263.147, 533.2398
1263.629, 532.4059
1264.111, 531.8829
1264.594, 532.7140
1265.076, 534.5735
1265.558, 535.5054
1266.040, 535.2923
1266.522, 534.9195
1267.004, 534.4075
1267.486, 533.5599
1267.968, 532.1910
1268.450, 531.2683
1268.932, 531.3468
1269.415, 531.6555
1269.897, 531.2929
1270.379, 530.6008
1270.861, 530.3835
1271.343, 530.5276
1271.825, 530.5748
1272.307, 530.6953
1272.789, 531.8456
1273.271, 533.7023
1273.754, 534.3025
1274.236, 532.9512
1274.718, 531.5518
1275.200, 531.4892
1275.682, 531.5441
1276.164, 530.6552
1276.646, 529.9993
1277.128, 530.9411
1277.611, 532.1878
1278.093, 531.9711
1278.575, 530.7783
1279.057, 530.6494
1279.539, 531.9470
1280.021, 531.9055
1280.503, 529.4866
1280.985, 528.4904
1281.468, 529.8232
1281.950, 531.2355
1282.432, 531.9022
1282.914, 532.3106
1283.396, 532.8672
1283.878, 533.4818
1284.360, 534.0766
1284.842, 534.3119
1285.324, 533.3243
##END=



