##NAMES=Epidote
##RRUFFID=R050202
##IDEAL CHEMISTRY=Ca_2_Fe^3+^Al_2_(Si_2_O_7_)(SiO_4_)O(OH)
##LOCALITY=Iron Cap mine, Landsman Camp, Graham County, Arizona, USA
##OWNER=RRUFF
##SOURCE=Bob Downs
##DESCRIPTION=Green colored prismatic single crystal associated with quartz, diopside and tremolite
##STATUS=The identification of this mineral has been confirmed by X-ray diffraction and chemical analysis
##URL=rruff.info/R050202
##MEASURED CHEMISTRY=Ca_2.00_Al_2.00_(Fe^3+^_0.68_Al_0.32_)(SiO_4_)(Si_2_O_7_)O(OH)
93.77539, 57.69875
94.25751, 55.59792
94.73962, 56.48922
95.22174, 59.96373
95.70386, 64.55682
96.18597, 70.03712
96.66809, 76.23190
97.15021, 82.64005
97.63232, 89.29343
98.11444, 96.19457
98.59656, 102.8586
99.07867, 109.2762
99.56079, 116.9728
100.0429, 127.0397
100.5250, 139.4615
101.0071, 151.5223
101.4893, 162.6345
101.9714, 173.7774
102.4535, 186.8279
102.9356, 202.0157
103.4177, 218.7271
103.8998, 236.8819
104.3820, 257.6585
104.8641, 276.8648
105.3462, 294.3321
105.8283, 310.0807
106.3104, 325.1823
106.7925, 339.6220
107.2747, 353.2837
107.7568, 365.8553
108.2389, 377.0751
108.7210, 387.7768
109.2031, 397.6083
109.6852, 406.5406
110.1674, 416.8482
110.6495, 428.7480
111.1316, 442.0264
111.6137, 456.4919
112.0958, 471.9524
112.5779, 488.9681
113.0601, 507.7038
113.5422, 528.3832
114.0243, 550.5521
114.5064, 574.6231
114.9885, 599.9277
115.4706, 625.9805
115.9528, 653.5565
116.4349, 681.0424
116.9170, 707.3602
117.3991, 732.6262
117.8812, 757.3917
118.3633, 782.1234
118.8455, 806.5175
119.3276, 829.8776
119.8097, 851.6899
120.2918, 872.8431
120.7739, 893.8552
121.2560, 915.2154
121.7382, 936.0473
122.2203, 956.0165
122.7024, 975.0711
123.1845, 993.0391
123.6666, 1009.823
124.1487, 1025.399
124.6309, 1039.742
125.1130, 1051.014
125.5951, 1062.650
126.0772, 1078.571
126.5593, 1098.439
127.0414, 1119.212
127.5236, 1137.635
128.0057, 1155.119
128.4878, 1175.312
128.9699, 1200.621
129.4520, 1228.501
129.9341, 1253.733
130.4162, 1276.157
130.8984, 1299.570
131.3805, 1328.510
131.8626, 1362.172
132.3447, 1396.468
132.8268, 1429.486
133.3089, 1461.831
133.7911, 1492.473
134.2732, 1517.415
134.7553, 1536.702
135.2374, 1553.846
135.7195, 1569.059
136.2016, 1580.484
136.6838, 1586.116
137.1659, 1586.088
137.6480, 1587.929
138.1301, 1592.957
138.6122, 1597.866
139.0943, 1595.906
139.5765, 1585.683
140.0586, 1574.744
140.5407, 1566.525
141.0228, 1561.352
141.5049, 1556.749
141.9870, 1552.589
142.4692, 1548.829
142.9513, 1545.220
143.4334, 1541.008
143.9155, 1538.188
144.3976, 1538.216
144.8797, 1542.879
145.3619, 1545.837
145.8440, 1546.143
146.3261, 1544.303
146.8082, 1542.941
147.2903, 1542.475
147.7724, 1541.998
148.2546, 1540.852
148.7367, 1537.767
149.2188, 1535.922
149.7009, 1535.519
150.1830, 1536.540
150.6651, 1539.159
151.1473, 1544.942
151.6294, 1551.359
152.1115, 1556.561
152.5936, 1558.690
153.0757, 1561.664
153.5578, 1565.906
154.0400, 1571.395
154.5221, 1577.743
155.0042, 1586.122
155.4863, 1594.792
155.9684, 1602.234
156.4505, 1607.196
156.9327, 1611.985
157.4148, 1616.898
157.8969, 1621.797
158.3790, 1627.626
158.8611, 1635.240
159.3432, 1643.676
159.8254, 1651.905
160.3075, 1658.998
160.7896, 1666.452
161.2717, 1675.103
161.7538, 1685.307
162.2359, 1695.236
162.7181, 1704.030
163.2002, 1712.284
163.6823, 1720.813
164.1644, 1731.312
164.6465, 1741.189
165.1286, 1748.809
165.6108, 1753.610
166.0929, 1757.769
166.5750, 1762.639
167.0571, 1767.600
167.5392, 1771.541
168.0213, 1773.910
168.5035, 1775.046
168.9856, 1775.034
169.4677, 1773.635
169.9498, 1771.768
170.4319, 1770.264
170.9140, 1768.778
171.3962, 1766.519
171.8783, 1763.152
172.3604, 1758.781
172.8425, 1753.452
173.3246, 1747.044
173.8067, 1739.989
174.2889, 1733.427
174.7710, 1726.767
175.2531, 1718.067
175.7352, 1704.232
176.2173, 1688.304
176.6994, 1674.340
177.1816, 1662.976
177.6637, 1654.014
178.1458, 1648.132
178.6279, 1644.794
179.1100, 1641.703
179.5921, 1636.613
180.0743, 1630.681
180.5564, 1626.220
181.0385, 1623.729
181.5206, 1622.749
182.0027, 1622.599
182.4848, 1623.309
182.9670, 1625.257
183.4491, 1629.286
183.9312, 1634.847
184.4133, 1640.310
184.8954, 1645.257
185.3775, 1650.039
185.8597, 1655.043
186.3418, 1660.266
186.8239, 1666.595
187.3060, 1675.909
187.7881, 1687.388
188.2702, 1697.020
188.7523, 1703.840
189.2345, 1708.401
189.7166, 1712.253
190.1987, 1715.510
190.6808, 1717.114
191.1629, 1716.136
191.6451, 1712.688
192.1272, 1707.234
192.6093, 1698.929
193.0914, 1689.108
193.5735, 1681.614
194.0556, 1676.444
194.5378, 1673.228
195.0199, 1672.018
195.5020, 1672.742
195.9841, 1674.038
196.4662, 1675.426
196.9483, 1677.098
197.4305, 1679.771
197.9126, 1683.286
198.3947, 1688.229
198.8768, 1695.091
199.3589, 1703.865
199.8410, 1714.212
200.3232, 1726.664
200.8053, 1740.606
201.2874, 1752.791
201.7695, 1762.850
202.2516, 1771.960
202.7337, 1781.341
203.2159, 1790.980
203.6980, 1800.433
204.1801, 1809.899
204.6622, 1819.240
205.1443, 1826.883
205.6264, 1832.713
206.1086, 1837.230
206.5907, 1840.766
207.0728, 1843.160
207.5549, 1845.411
208.0370, 1847.914
208.5191, 1850.610
209.0013, 1852.316
209.4834, 1852.854
209.9655, 1852.751
210.4476, 1852.370
210.9297, 1851.482
211.4118, 1851.228
211.8940, 1851.963
212.3761, 1853.678
212.8582, 1855.394
213.3403, 1856.635
213.8224, 1858.677
214.3045, 1863.111
214.7867, 1870.713
215.2688, 1878.427
215.7509, 1885.280
216.2330, 1891.225
216.7151, 1899.366
217.1972, 1910.343
217.6794, 1922.643
218.1615, 1934.619
218.6436, 1946.333
219.1257, 1957.683
219.6078, 1968.040
220.0899, 1977.455
220.5721, 1988.523
221.0542, 2001.645
221.5363, 2015.755
222.0184, 2029.288
222.5005, 2041.293
222.9826, 2055.327
223.4648, 2072.520
223.9469, 2093.159
224.4290, 2112.011
224.9111, 2128.686
225.3932, 2144.251
225.8753, 2159.961
226.3575, 2175.590
226.8396, 2191.759
227.3217, 2208.916
227.8038, 2227.343
228.2859, 2242.922
228.7680, 2255.441
229.2502, 2265.401
229.7323, 2273.039
230.2144, 2278.245
230.6965, 2281.645
231.1786, 2284.077
231.6607, 2285.547
232.1429, 2281.359
232.6250, 2269.615
233.1071, 2254.363
233.5892, 2239.190
234.0713, 2224.180
234.5534, 2209.127
235.0356, 2193.882
235.5177, 2178.587
235.9998, 2163.831
236.4819, 2148.810
236.9640, 2134.976
237.4461, 2123.398
237.9283, 2113.930
238.4104, 2106.966
238.8925, 2102.522
239.3746, 2100.608
239.8567, 2101.866
240.3388, 2107.832
240.8210, 2115.145
241.3031, 2120.914
241.7852, 2123.034
242.2673, 2127.845
242.7494, 2136.485
243.2315, 2148.776
243.7137, 2162.165
244.1958, 2177.618
244.6779, 2193.124
245.1600, 2207.342
245.6421, 2220.307
246.1242, 2232.016
246.6064, 2243.002
247.0885, 2252.926
247.5706, 2259.208
248.0527, 2260.531
248.5348, 2259.921
249.0169, 2259.412
249.4990, 2259.948
249.9812, 2258.583
250.4633, 2255.301
250.9454, 2249.985
251.4275, 2241.372
251.9096, 2226.762
252.3917, 2212.917
252.8739, 2204.327
253.3560, 2203.605
253.8381, 2201.582
254.3202, 2197.370
254.8023, 2191.473
255.2844, 2185.665
255.7666, 2179.393
256.2487, 2174.082
256.7308, 2170.956
257.2129, 2171.533
257.6950, 2169.927
258.1772, 2165.245
258.6593, 2158.484
259.1414, 2152.193
259.6235, 2146.571
260.1056, 2141.000
260.5877, 2134.818
261.0699, 2127.348
261.5520, 2121.726
262.0341, 2118.592
262.5162, 2116.950
262.9983, 2114.310
263.4804, 2109.665
263.9626, 2106.331
264.4447, 2105.615
264.9268, 2107.696
265.4089, 2111.635
265.8910, 2117.496
266.3731, 2125.209
266.8553, 2134.732
267.3374, 2145.818
267.8195, 2159.282
268.3016, 2174.886
268.7837, 2192.676
269.2658, 2214.086
269.7480, 2238.898
270.2301, 2267.591
270.7122, 2300.915
271.1943, 2339.454
271.6764, 2380.171
272.1585, 2421.415
272.6407, 2463.149
273.1228, 2507.732
273.6049, 2556.696
274.0870, 2604.766
274.5691, 2647.873
275.0512, 2686.756
275.5334, 2715.552
276.0155, 2733.877
276.4976, 2741.259
276.9797, 2732.071
277.4618, 2705.349
277.9439, 2664.789
278.4261, 2610.506
278.9081, 2541.272
279.3903, 2473.278
279.8724, 2409.928
280.3545, 2351.413
280.8366, 2295.248
281.3187, 2240.924
281.8008, 2191.296
282.2830, 2149.008
282.7651, 2114.107
283.2472, 2084.172
283.7293, 2059.399
284.2114, 2038.790
284.6935, 2019.602
285.1757, 2001.552
285.6578, 1986.474
286.1399, 1976.592
286.6220, 1971.554
287.1041, 1966.913
287.5862, 1962.173
288.0684, 1957.392
288.5505, 1952.168
289.0326, 1946.452
289.5147, 1942.389
289.9968, 1942.795
290.4789, 1946.601
290.9611, 1947.290
291.4432, 1943.739
291.9253, 1938.481
292.4074, 1935.250
292.8895, 1933.907
293.3716, 1933.361
293.8538, 1933.100
294.3359, 1933.184
294.8180, 1934.072
295.3001, 1935.954
295.7822, 1937.763
296.2643, 1937.837
296.7465, 1936.557
297.2286, 1935.634
297.7107, 1935.656
298.1928, 1936.598
298.6749, 1938.773
299.1570, 1942.273
299.6392, 1945.751
300.1213, 1947.566
300.6034, 1948.262
301.0855, 1949.142
301.5676, 1950.730
302.0497, 1952.746
302.5319, 1955.246
303.0140, 1958.159
303.4961, 1960.067
303.9782, 1959.636
304.4603, 1957.472
304.9424, 1954.417
305.4246, 1949.702
305.9067, 1945.405
306.3888, 1944.901
306.8709, 1947.333
307.3530, 1948.546
307.8351, 1944.060
308.3173, 1937.452
308.7994, 1933.107
309.2815, 1932.406
309.7636, 1933.072
310.2457, 1933.869
310.7278, 1934.690
311.2100, 1935.207
311.6921, 1934.595
312.1742, 1934.005
312.6563, 1934.552
313.1384, 1936.616
313.6205, 1939.004
314.1027, 1941.294
314.5848, 1943.451
315.0669, 1945.419
315.5490, 1947.043
316.0311, 1948.592
316.5132, 1950.443
316.9954, 1952.739
317.4775, 1954.156
317.9596, 1954.081
318.4417, 1952.795
318.9238, 1950.603
319.4059, 1947.098
319.8881, 1943.080
320.3702, 1938.855
320.8523, 1934.388
321.3344, 1929.514
321.8165, 1923.413
322.2986, 1917.272
322.7808, 1911.995
323.2629, 1907.238
323.7450, 1903.935
324.2271, 1903.152
324.7092, 1904.365
325.1913, 1904.770
325.6735, 1903.446
326.1556, 1901.643
326.6377, 1900.017
327.1198, 1899.063
327.6019, 1897.723
328.0840, 1896.080
328.5662, 1894.058
329.0483, 1891.371
329.5304, 1887.404
330.0125, 1883.425
330.4946, 1879.718
330.9767, 1876.028
331.4589, 1873.339
331.9410, 1872.432
332.4231, 1872.134
332.9052, 1870.825
333.3873, 1868.141
333.8694, 1864.875
334.3516, 1860.735
334.8337, 1855.485
335.3158, 1852.462
335.7979, 1852.917
336.2800, 1854.143
336.7621, 1853.640
337.2443, 1850.971
337.7264, 1847.589
338.2085, 1843.174
338.6906, 1838.175
339.1727, 1835.350
339.6548, 1835.579
340.1370, 1835.927
340.6191, 1833.604
341.1012, 1827.916
341.5833, 1825.410
342.0654, 1827.315
342.5475, 1832.092
343.0297, 1836.323
343.5118, 1839.867
343.9939, 1843.706
344.4760, 1847.607
344.9581, 1851.712
345.4402, 1859.517
345.9224, 1871.756
346.4045, 1885.419
346.8866, 1895.771
347.3687, 1903.178
347.8508, 1911.107
348.3329, 1921.910
348.8151, 1934.074
349.2972, 1943.589
349.7793, 1950.435
350.2614, 1954.780
350.7435, 1956.395
351.2256, 1955.542
351.7078, 1952.933
352.1899, 1948.773
352.6720, 1942.954
353.1541, 1935.558
353.6362, 1926.420
354.1183, 1914.915
354.6005, 1898.917
355.0826, 1880.874
355.5647, 1863.860
356.0468, 1848.391
356.5289, 1834.339
357.0110, 1821.675
357.4932, 1810.193
357.9753, 1799.421
358.4574, 1789.512
358.9395, 1779.949
359.4216, 1770.164
359.9037, 1759.991
360.3859, 1750.820
360.8680, 1743.548
361.3501, 1737.773
361.8322, 1733.051
362.3143, 1730.369
362.7964, 1727.652
363.2786, 1723.512
363.7607, 1718.143
364.2428, 1713.820
364.7249, 1711.749
365.2070, 1710.759
365.6891, 1710.097
366.1713, 1710.370
366.6534, 1710.020
367.1355, 1708.637
367.6176, 1706.425
368.0997, 1703.957
368.5818, 1699.640
369.0640, 1696.533
369.5461, 1696.070
370.0282, 1699.868
370.5103, 1702.599
370.9924, 1704.871
371.4745, 1705.882
371.9567, 1704.247
372.4388, 1696.603
372.9209, 1691.368
373.4030, 1691.044
373.8851, 1695.775
374.3672, 1698.865
374.8494, 1699.352
375.3315, 1699.503
375.8136, 1701.407
376.2957, 1705.907
376.7778, 1709.093
377.2599, 1709.778
377.7421, 1709.085
378.2242, 1710.825
378.7063, 1715.328
379.1884, 1720.736
379.6705, 1725.898
380.1526, 1730.842
380.6348, 1736.817
381.1169, 1744.224
381.5990, 1751.737
382.0811, 1757.174
382.5632, 1760.642
383.0453, 1764.417
383.5275, 1768.924
384.0096, 1774.516
384.4917, 1782.553
384.9738, 1793.123
385.4559, 1804.115
385.9380, 1813.483
386.4202, 1821.892
386.9023, 1831.139
387.3844, 1842.047
387.8665, 1853.596
388.3486, 1864.631
388.8307, 1875.260
389.3129, 1885.929
389.7950, 1898.024
390.2771, 1909.776
390.7592, 1919.059
391.2413, 1925.433
391.7234, 1930.005
392.2056, 1934.256
392.6877, 1936.971
393.1698, 1936.340
393.6519, 1930.872
394.1340, 1922.538
394.6161, 1911.627
395.0983, 1898.268
395.5804, 1884.766
396.0625, 1871.800
396.5446, 1859.113
397.0267, 1846.510
397.5089, 1833.553
397.9910, 1821.161
398.4731, 1808.637
398.9552, 1796.680
399.4373, 1787.380
399.9194, 1783.248
400.4016, 1779.753
400.8837, 1775.065
401.3658, 1768.054
401.8479, 1763.201
402.3300, 1761.273
402.8121, 1761.018
403.2942, 1760.775
403.7763, 1759.351
404.2585, 1760.281
404.7406, 1764.615
405.2227, 1772.110
405.7048, 1780.096
406.1869, 1788.337
406.6690, 1797.433
407.1512, 1807.762
407.6333, 1819.341
408.1154, 1832.136
408.5975, 1846.430
409.0796, 1861.593
409.5617, 1876.628
410.0439, 1891.485
410.5260, 1907.901
411.0081, 1927.545
411.4902, 1949.473
411.9723, 1970.166
412.4544, 1989.577
412.9366, 2009.225
413.4187, 2029.892
413.9008, 2052.397
414.3829, 2078.897
414.8650, 2111.456
415.3471, 2146.980
415.8293, 2180.689
416.3114, 2213.500
416.7935, 2248.280
417.2756, 2286.397
417.7577, 2327.789
418.2398, 2371.663
418.7220, 2418.246
419.2041, 2467.748
419.6862, 2520.622
420.1683, 2577.390
420.6504, 2637.175
421.1325, 2702.911
421.6147, 2770.230
422.0968, 2837.427
422.5789, 2905.010
423.0610, 2972.295
423.5431, 3044.064
424.0252, 3112.825
424.5074, 3174.956
424.9895, 3230.262
425.4716, 3276.501
425.9537, 3316.814
426.4358, 3347.870
426.9179, 3362.330
427.4001, 3356.013
427.8822, 3338.117
428.3643, 3310.045
428.8464, 3270.785
429.3285, 3227.901
429.8106, 3180.330
430.2928, 3130.765
430.7749, 3080.608
431.2570, 3029.395
431.7391, 2980.631
432.2212, 2934.602
432.7033, 2891.614
433.1855, 2852.761
433.6676, 2818.158
434.1497, 2786.793
434.6318, 2757.627
435.1139, 2731.003
435.5960, 2709.571
436.0782, 2693.691
436.5603, 2680.829
437.0424, 2667.983
437.5245, 2655.573
438.0066, 2645.273
438.4887, 2638.124
438.9709, 2633.074
439.4530, 2628.337
439.9351, 2624.164
440.4172, 2622.350
440.8993, 2624.343
441.3814, 2629.153
441.8636, 2635.946
442.3457, 2644.906
442.8278, 2654.840
443.3099, 2663.625
443.7920, 2673.143
444.2741, 2686.665
444.7563, 2708.680
445.2384, 2731.614
445.7205, 2751.228
446.2026, 2767.402
446.6847, 2787.865
447.1668, 2815.853
447.6490, 2847.234
448.1311, 2879.508
448.6132, 2912.426
449.0953, 2946.208
449.5774, 2983.093
450.0595, 3020.110
450.5417, 3050.637
451.0238, 3073.170
451.5059, 3091.309
451.9880, 3105.594
452.4701, 3115.993
452.9522, 3125.083
453.4344, 3133.134
453.9165, 3139.557
454.3986, 3144.220
454.8807, 3147.179
455.3628, 3146.689
455.8449, 3141.702
456.3271, 3134.227
456.8092, 3128.648
457.2913, 3124.709
457.7734, 3119.691
458.2555, 3111.961
458.7376, 3102.130
459.2198, 3091.460
459.7019, 3080.088
460.1840, 3067.134
460.6661, 3052.329
461.1482, 3035.313
461.6303, 3015.521
462.1125, 2991.313
462.5946, 2966.358
463.0767, 2944.459
463.5588, 2924.236
464.0409, 2902.191
464.5230, 2876.220
465.0052, 2848.562
465.4873, 2820.562
465.9694, 2792.402
466.4515, 2764.015
466.9336, 2735.729
467.4157, 2707.207
467.8979, 2678.129
468.3800, 2648.652
468.8621, 2618.282
469.3442, 2586.178
469.8263, 2553.161
470.3084, 2521.900
470.7906, 2493.900
471.2727, 2465.752
471.7548, 2435.616
472.2369, 2402.695
472.7190, 2372.504
473.2011, 2344.810
473.6833, 2319.368
474.1654, 2296.348
474.6475, 2275.876
475.1296, 2254.990
475.6117, 2232.711
476.0938, 2209.813
476.5760, 2188.550
477.0581, 2168.739
477.5402, 2149.511
478.0223, 2129.602
478.5044, 2110.030
478.9865, 2092.749
479.4687, 2077.903
479.9508, 2065.052
480.4329, 2054.572
480.9150, 2045.796
481.3971, 2037.814
481.8792, 2030.284
482.3614, 2023.540
482.8435, 2017.393
483.3256, 2012.182
483.8077, 2009.026
484.2898, 2010.160
484.7719, 2012.075
485.2541, 2013.107
485.7362, 2012.946
486.2183, 2012.523
486.7004, 2010.113
487.1825, 2008.449
487.6646, 2010.214
488.1468, 2018.757
488.6289, 2025.223
489.1110, 2027.582
489.5931, 2027.292
490.0752, 2029.712
490.5573, 2035.854
491.0395, 2042.218
491.5216, 2047.389
492.0037, 2051.387
492.4858, 2054.812
492.9679, 2057.596
493.4500, 2060.261
493.9322, 2063.055
494.4143, 2066.102
494.8964, 2069.949
495.3785, 2074.640
495.8606, 2080.392
496.3427, 2087.812
496.8249, 2096.621
497.3070, 2106.013
497.7891, 2116.739
498.2712, 2127.019
498.7533, 2133.397
499.2354, 2135.749
499.7176, 2140.684
500.1997, 2154.367
500.6818, 2171.396
501.1639, 2186.607
501.6460, 2197.191
502.1281, 2208.484
502.6103, 2222.922
503.0924, 2239.141
503.5745, 2253.959
504.0566, 2265.241
504.5387, 2276.713
505.0208, 2289.675
505.5030, 2304.238
505.9851, 2316.805
506.4672, 2326.769
506.9493, 2335.438
507.4314, 2343.768
507.9135, 2352.086
508.3957, 2358.901
508.8778, 2364.071
509.3599, 2367.812
509.8420, 2370.571
510.3241, 2372.325
510.8062, 2372.542
511.2884, 2370.615
511.7705, 2367.170
512.2526, 2364.106
512.7347, 2361.280
513.2168, 2357.089
513.6989, 2349.426
514.1810, 2340.041
514.6631, 2331.310
515.1453, 2323.578
515.6274, 2316.408
516.1095, 2308.162
516.5916, 2300.612
517.0737, 2296.122
517.5558, 2297.816
518.0380, 2300.333
518.5201, 2301.029
519.0022, 2300.671
519.4843, 2303.022
519.9664, 2310.060
520.4485, 2318.774
520.9307, 2328.301
521.4128, 2339.314
521.8949, 2348.517
522.3770, 2355.673
522.8591, 2361.266
523.3412, 2365.819
523.8234, 2369.358
524.3055, 2371.798
524.7876, 2374.166
525.2697, 2374.270
525.7518, 2366.466
526.2339, 2350.781
526.7161, 2331.968
527.1982, 2311.660
527.6803, 2290.012
528.1624, 2267.225
528.6445, 2243.121
529.1266, 2218.170
529.6088, 2191.273
530.0909, 2163.865
530.5730, 2138.273
531.0551, 2114.649
531.5372, 2092.842
532.0193, 2071.674
532.5015, 2051.933
532.9836, 2035.133
533.4657, 2023.382
533.9478, 2012.750
534.4299, 2001.229
534.9120, 1989.219
535.3942, 1979.804
535.8763, 1974.753
536.3584, 1971.083
536.8405, 1967.722
537.3226, 1964.646
537.8047, 1962.034
538.2869, 1959.873
538.7690, 1958.270
539.2511, 1957.481
539.7332, 1957.591
540.2153, 1957.850
540.6974, 1958.082
541.1796, 1958.464
541.6617, 1959.213
542.1438, 1960.362
542.6259, 1962.275
543.1080, 1965.194
543.5901, 1968.962
544.0723, 1973.404
544.5544, 1978.474
545.0365, 1984.010
545.5186, 1990.375
546.0007, 1996.840
546.4828, 2002.276
546.9650, 2005.385
547.4471, 2010.292
547.9292, 2018.910
548.4113, 2030.275
548.8934, 2043.057
549.3755, 2056.986
549.8577, 2072.367
550.3398, 2090.147
550.8219, 2109.776
551.3040, 2127.655
551.7861, 2142.608
552.2682, 2158.230
552.7504, 2176.326
553.2325, 2197.119
553.7146, 2217.457
554.1967, 2237.022
554.6788, 2257.069
555.1609, 2279.117
555.6431, 2302.686
556.1252, 2326.919
556.6073, 2351.411
557.0894, 2377.075
557.5715, 2405.022
558.0536, 2435.175
558.5358, 2467.417
559.0179, 2498.577
559.5000, 2533.880
559.9821, 2577.762
560.4642, 2629.791
560.9464, 2685.961
561.4285, 2745.639
561.9106, 2808.238
562.3927, 2872.821
562.8748, 2939.997
563.3569, 3008.530
563.8391, 3080.908
564.3212, 3153.360
564.8033, 3223.943
565.2854, 3296.721
565.7675, 3360.097
566.2496, 3415.001
566.7318, 3459.367
567.2139, 3488.210
567.6960, 3502.750
568.1781, 3496.903
568.6602, 3467.560
569.1423, 3416.068
569.6245, 3345.313
570.1066, 3254.544
570.5887, 3155.325
571.0708, 3048.709
571.5529, 2939.281
572.0350, 2834.383
572.5172, 2733.013
572.9993, 2641.685
573.4814, 2566.820
573.9635, 2503.513
574.4456, 2446.890
574.9277, 2392.629
575.4099, 2347.973
575.8920, 2317.585
576.3741, 2298.233
576.8562, 2280.636
577.3383, 2261.151
577.8204, 2246.421
578.3026, 2238.932
578.7847, 2238.661
579.2668, 2238.370
579.7489, 2237.274
580.2310, 2238.075
580.7131, 2242.910
581.1953, 2251.710
581.6774, 2261.447
582.1595, 2271.709
582.6416, 2283.881
583.1237, 2300.338
583.6058, 2319.922
584.0880, 2339.440
584.5701, 2357.481
585.0522, 2375.643
585.5343, 2395.163
586.0164, 2416.109
586.4985, 2438.290
586.9807, 2462.256
587.4628, 2487.109
587.9449, 2511.916
588.4270, 2536.736
588.9091, 2563.149
589.3912, 2592.615
589.8734, 2622.863
590.3555, 2652.937
590.8376, 2682.586
591.3197, 2711.815
591.8018, 2739.662
592.2839, 2768.422
592.7661, 2800.917
593.2482, 2837.508
593.7303, 2874.008
594.2124, 2909.539
594.6945, 2945.322
595.1766, 2985.587
595.6588, 3029.560
596.1409, 3073.253
596.6230, 3114.909
597.1051, 3155.275
597.5872, 3196.050
598.0693, 3236.212
598.5515, 3274.355
599.0336, 3313.010
599.5157, 3346.759
599.9978, 3371.347
600.4799, 3385.262
600.9620, 3395.445
601.4442, 3406.343
601.9263, 3412.046
602.4084, 3408.265
602.8905, 3392.096
603.3726, 3372.009
603.8547, 3348.740
604.3369, 3321.352
604.8190, 3288.604
605.3011, 3250.135
605.7832, 3207.403
606.2653, 3160.139
606.7474, 3110.461
607.2296, 3065.035
607.7117, 3023.369
608.1938, 2983.087
608.6759, 2943.298
609.1580, 2904.088
609.6401, 2866.250
610.1223, 2829.751
610.6044, 2794.154
611.0865, 2757.215
611.5686, 2721.894
612.0507, 2690.892
612.5328, 2665.707
613.0150, 2640.875
613.4971, 2615.293
613.9792, 2589.410
614.4613, 2563.420
614.9434, 2537.090
615.4255, 2510.622
615.9077, 2484.008
616.3898, 2457.299
616.8719, 2431.383
617.3540, 2406.505
617.8361, 2380.821
618.3182, 2353.156
618.8004, 2325.089
619.2825, 2301.442
619.7646, 2281.639
620.2467, 2262.620
620.7288, 2242.541
621.2109, 2221.902
621.6931, 2201.133
622.1752, 2179.969
622.6573, 2160.275
623.1394, 2143.411
623.6215, 2128.097
624.1036, 2113.305
624.5858, 2098.548
625.0679, 2084.900
625.5500, 2073.430
626.0321, 2062.638
626.5142, 2050.785
626.9963, 2036.945
627.4785, 2024.273
627.9606, 2013.626
628.4427, 2004.081
628.9248, 1993.219
629.4069, 1981.087
629.8890, 1969.327
630.3712, 1958.576
630.8533, 1948.594
631.3354, 1938.717
631.8175, 1929.075
632.2996, 1920.454
632.7817, 1914.257
633.2639, 1908.745
633.7460, 1902.119
634.2281, 1894.176
634.7102, 1886.687
635.1923, 1880.364
635.6744, 1874.683
636.1566, 1869.341
636.6387, 1865.204
637.1208, 1859.651
637.6029, 1851.596
638.0850, 1843.127
638.5671, 1837.323
639.0493, 1834.742
639.5314, 1831.216
640.0135, 1825.692
640.4956, 1819.265
640.9777, 1813.683
641.4598, 1808.976
641.9420, 1805.212
642.4241, 1803.340
642.9062, 1801.740
643.3883, 1798.002
643.8704, 1792.607
644.3525, 1787.773
644.8347, 1784.638
645.3168, 1782.396
645.7989, 1780.561
646.2810, 1779.117
646.7631, 1778.087
647.2452, 1777.760
647.7274, 1777.629
648.2095, 1777.624
648.6916, 1778.332
649.1737, 1776.911
649.6558, 1772.519
650.1379, 1767.621
650.6201, 1765.045
651.1022, 1764.659
651.5843, 1765.201
652.0664, 1766.662
652.5485, 1768.313
653.0306, 1769.303
653.5128, 1769.691
653.9949, 1769.586
654.4770, 1767.894
654.9591, 1766.896
655.4412, 1769.008
655.9233, 1773.110
656.4055, 1775.875
656.8876, 1774.905
657.3697, 1773.887
657.8518, 1773.875
658.3339, 1774.871
658.8160, 1776.962
659.2982, 1780.905
659.7803, 1784.468
660.2624, 1786.257
660.7445, 1786.268
661.2266, 1786.772
661.7087, 1787.845
662.1909, 1788.638
662.6730, 1787.613
663.1551, 1785.804
663.6372, 1786.013
664.1193, 1789.140
664.6014, 1791.825
665.0836, 1790.709
665.5657, 1787.990
666.0478, 1786.360
666.5299, 1787.768
667.0120, 1788.791
667.4941, 1788.665
667.9763, 1787.645
668.4584, 1786.206
668.9405, 1783.942
669.4226, 1782.000
669.9047, 1780.501
670.3868, 1779.524
670.8690, 1779.528
671.3511, 1780.562
671.8332, 1781.651
672.3153, 1782.212
672.7974, 1782.545
673.2795, 1783.485
673.7617, 1784.921
674.2438, 1786.150
674.7259, 1786.580
675.2080, 1786.678
675.6901, 1786.610
676.1722, 1786.358
676.6544, 1786.852
677.1365, 1789.256
677.6186, 1791.881
678.1007, 1793.520
678.5828, 1793.567
679.0649, 1794.444
679.5471, 1796.669
680.0292, 1799.023
680.5113, 1799.812
680.9934, 1798.997
681.4755, 1799.628
681.9576, 1802.382
682.4398, 1805.812
682.9219, 1807.847
683.4040, 1808.948
683.8861, 1810.334
684.3682, 1813.026
684.8503, 1815.214
685.3325, 1815.769
685.8146, 1814.838
686.2967, 1812.773
686.7788, 1807.321
687.2609, 1803.242
687.7430, 1803.417
688.2252, 1806.371
688.7073, 1805.891
689.1894, 1800.667
689.6715, 1794.904
690.1536, 1790.228
690.6357, 1786.388
691.1179, 1782.040
691.6000, 1777.173
692.0821, 1771.835
692.5642, 1766.287
693.0463, 1760.104
693.5284, 1751.475
694.0106, 1740.453
694.4927, 1731.405
694.9748, 1729.970
695.4569, 1729.945
695.9390, 1725.656
696.4211, 1713.959
696.9033, 1705.450
697.3854, 1703.819
697.8675, 1704.109
698.3496, 1702.435
698.8317, 1698.049
699.3138, 1694.064
699.7960, 1690.657
700.2781, 1687.720
700.7602, 1685.522
701.2423, 1683.836
701.7244, 1681.162
702.2065, 1676.756
702.6887, 1672.105
703.1708, 1669.057
703.6529, 1667.046
704.1350, 1665.034
704.6171, 1663.058
705.0992, 1660.574
705.5814, 1656.885
706.0635, 1652.508
706.5456, 1649.045
707.0277, 1647.281
707.5098, 1645.383
707.9919, 1642.715
708.4741, 1639.563
708.9562, 1637.279
709.4383, 1635.875
709.9204, 1635.333
710.4025, 1636.703
710.8846, 1638.633
711.3667, 1636.533
711.8488, 1630.963
712.3309, 1626.618
712.8130, 1628.515
713.2952, 1631.643
713.7773, 1631.302
714.2594, 1626.928
714.7415, 1623.531
715.2236, 1623.889
715.7057, 1624.499
716.1879, 1623.165
716.6700, 1619.099
717.1521, 1616.416
717.6342, 1615.418
718.1163, 1615.164
718.5984, 1614.757
719.0806, 1614.263
719.5627, 1614.605
720.0448, 1616.019
720.5269, 1617.237
721.0090, 1616.614
721.4911, 1614.982
721.9733, 1613.683
722.4554, 1613.204
722.9375, 1612.699
723.4196, 1611.439
723.9017, 1610.033
724.3839, 1609.260
724.8660, 1610.162
725.3481, 1610.356
725.8302, 1609.529
726.3123, 1608.074
726.7944, 1606.663
727.2766, 1605.304
727.7587, 1604.063
728.2408, 1602.944
728.7229, 1602.053
729.2050, 1601.791
729.6871, 1601.974
730.1693, 1601.948
730.6514, 1601.089
731.1335, 1600.207
731.6156, 1599.260
732.0977, 1598.654
732.5798, 1599.653
733.0620, 1605.381
733.5441, 1609.620
734.0262, 1610.278
734.5083, 1607.808
734.9904, 1604.863
735.4725, 1600.855
735.9547, 1598.349
736.4368, 1599.205
736.9189, 1602.409
737.4010, 1604.175
737.8831, 1604.554
738.3652, 1604.256
738.8474, 1603.175
739.3295, 1602.054
739.8116, 1601.781
740.2937, 1602.390
740.7758, 1602.992
741.2579, 1603.107
741.7401, 1603.261
742.2222, 1603.952
742.7043, 1605.419
743.1864, 1605.749
743.6685, 1604.489
744.1506, 1602.977
744.6328, 1602.028
745.1149, 1601.637
745.5970, 1601.962
746.0791, 1603.026
746.5612, 1604.405
747.0433, 1605.926
747.5255, 1607.436
748.0076, 1608.764
748.4897, 1609.949
748.9718, 1610.656
749.4539, 1609.991
749.9360, 1609.211
750.4182, 1609.469
750.9003, 1611.611
751.3824, 1613.417
751.8645, 1614.870
752.3466, 1616.058
752.8287, 1616.771
753.3109, 1617.001
753.7930, 1618.581
754.2751, 1622.110
754.7572, 1625.756
755.2393, 1626.392
755.7214, 1625.685
756.2036, 1627.136
756.6857, 1632.952
757.1678, 1638.701
757.6499, 1641.823
758.1320, 1643.543
758.6141, 1645.486
759.0963, 1647.586
759.5784, 1650.369
760.0605, 1653.994
760.5426, 1658.237
761.0247, 1663.040
761.5068, 1668.482
761.9890, 1672.830
762.4711, 1675.340
762.9532, 1677.136
763.4353, 1679.997
763.9174, 1683.533
764.3995, 1686.825
764.8817, 1688.824
765.3638, 1691.104
765.8459, 1695.474
766.3280, 1700.722
766.8101, 1703.939
767.2922, 1703.390
767.7744, 1702.395
768.2565, 1701.050
768.7386, 1699.817
769.2207, 1700.557
769.7028, 1703.564
770.1849, 1705.039
770.6671, 1703.031
771.1492, 1699.243
771.6313, 1696.637
772.1134, 1694.942
772.5955, 1693.230
773.0776, 1691.338
773.5598, 1688.977
774.0419, 1685.506
774.5240, 1681.274
775.0061, 1677.894
775.4882, 1676.807
775.9703, 1674.935
776.4525, 1671.310
776.9346, 1666.253
777.4167, 1661.283
777.8988, 1656.323
778.3809, 1652.351
778.8630, 1650.678
779.3452, 1649.876
779.8273, 1646.610
780.3094, 1641.524
780.7915, 1637.425
781.2736, 1636.800
781.7557, 1636.860
782.2379, 1636.068
782.7200, 1634.426
783.2021, 1632.870
783.6842, 1631.473
784.1663, 1630.175
784.6484, 1628.763
785.1306, 1627.364
785.6127, 1627.288
786.0948, 1628.600
786.5769, 1629.745
787.0590, 1629.309
787.5411, 1628.252
788.0233, 1628.825
788.5054, 1630.636
788.9875, 1631.064
789.4696, 1626.208
789.9517, 1621.693
790.4338, 1621.160
790.9160, 1624.913
791.3981, 1628.062
791.8802, 1630.449
792.3623, 1632.260
792.8444, 1633.529
793.3265, 1634.298
793.8087, 1634.485
794.2908, 1634.101
794.7729, 1634.045
795.2550, 1634.999
795.7371, 1636.622
796.2192, 1638.644
796.7014, 1641.006
797.1835, 1643.142
797.6656, 1644.136
798.1477, 1645.375
798.6298, 1647.865
799.1119, 1651.653
799.5941, 1654.445
800.0762, 1655.704
800.5583, 1657.094
801.0404, 1659.956
801.5225, 1663.822
802.0046, 1665.314
802.4868, 1664.553
802.9689, 1664.338
803.4510, 1668.164
803.9331, 1672.550
804.4152, 1673.119
804.8973, 1669.972
805.3795, 1668.565
805.8616, 1672.434
806.3437, 1676.861
806.8258, 1679.486
807.3079, 1680.296
807.7900, 1682.611
808.2722, 1686.813
808.7543, 1691.061
809.2364, 1693.840
809.7185, 1695.792
810.2006, 1699.305
810.6827, 1704.179
811.1649, 1708.833
811.6470, 1712.580
812.1291, 1715.365
812.6112, 1716.603
813.0933, 1716.318
813.5754, 1716.978
814.0576, 1719.278
814.5397, 1722.225
815.0218, 1725.512
815.5039, 1729.162
815.9860, 1733.171
816.4681, 1737.637
816.9503, 1741.699
817.4324, 1744.382
817.9145, 1746.528
818.3966, 1749.940
818.8787, 1754.379
819.3608, 1758.122
819.8430, 1759.094
820.3251, 1760.191
820.8072, 1762.688
821.2893, 1766.735
821.7714, 1772.566
822.2535, 1780.885
822.7357, 1789.231
823.2178, 1796.717
823.6999, 1803.305
824.1820, 1808.899
824.6641, 1813.577
825.1462, 1818.325
825.6284, 1823.768
826.1105, 1829.585
826.5926, 1836.117
827.0747, 1843.061
827.5568, 1848.809
828.0389, 1851.736
828.5211, 1854.684
829.0032, 1859.111
829.4853, 1864.539
829.9674, 1867.949
830.4495, 1868.922
830.9316, 1870.377
831.4138, 1874.214
831.8959, 1878.847
832.3780, 1880.517
832.8601, 1879.822
833.3422, 1879.219
833.8243, 1881.215
834.3065, 1882.454
834.7886, 1880.469
835.2707, 1875.995
835.7528, 1872.027
836.2349, 1868.524
836.7170, 1866.035
837.1992, 1865.312
837.6813, 1865.291
838.1634, 1862.564
838.6455, 1857.298
839.1276, 1852.308
839.6097, 1848.327
840.0919, 1845.632
840.5740, 1845.221
841.0561, 1846.304
841.5382, 1847.154
842.0203, 1847.234
842.5024, 1846.945
842.9846, 1845.848
843.4667, 1844.655
843.9488, 1844.948
844.4309, 1847.247
844.9130, 1848.449
845.3951, 1847.529
845.8773, 1846.025
846.3594, 1845.997
846.8415, 1847.419
847.3236, 1850.401
847.8057, 1855.885
848.2878, 1861.246
848.7700, 1864.768
849.2521, 1867.258
849.7342, 1869.736
850.2163, 1871.334
850.6984, 1874.833
851.1805, 1881.196
851.6627, 1888.364
852.1448, 1893.503
852.6269, 1896.779
853.1090, 1899.678
853.5911, 1902.258
854.0732, 1905.540
854.5554, 1911.496
855.0375, 1918.292
855.5196, 1923.665
856.0017, 1926.600
856.4838, 1929.453
856.9659, 1931.992
857.4481, 1935.210
857.9302, 1940.086
858.4123, 1946.841
858.8944, 1953.902
859.3765, 1961.575
859.8586, 1967.800
860.3408, 1968.514
860.8229, 1967.161
861.3050, 1970.413
861.7871, 1979.296
862.2692, 1987.926
862.7513, 1993.447
863.2335, 1997.711
863.7156, 2001.903
864.1977, 2006.004
864.6798, 2010.124
865.1619, 2014.064
865.6440, 2018.464
866.1262, 2024.188
866.6083, 2030.707
867.0904, 2035.583
867.5725, 2038.958
868.0546, 2042.053
868.5367, 2046.188
869.0189, 2049.914
869.5010, 2051.364
869.9831, 2050.753
870.4652, 2052.374
870.9473, 2058.641
871.4294, 2063.720
871.9116, 2065.425
872.3937, 2064.548
872.8758, 2064.475
873.3579, 2065.121
873.8400, 2064.998
874.3221, 2062.659
874.8043, 2059.890
875.2864, 2058.658
875.7685, 2058.528
876.2506, 2058.423
876.7327, 2057.625
877.2148, 2057.380
877.6970, 2058.194
878.1791, 2059.579
878.6612, 2060.381
879.1433, 2060.497
879.6254, 2061.242
880.1075, 2063.047
880.5897, 2065.294
881.0718, 2066.883
881.5539, 2068.335
882.0360, 2070.501
882.5181, 2072.757
883.0002, 2077.357
883.4824, 2087.025
883.9645, 2098.350
884.4466, 2107.574
884.9287, 2114.100
885.4108, 2120.394
885.8929, 2126.355
886.3751, 2132.571
886.8572, 2139.828
887.3393, 2147.753
887.8214, 2155.601
888.3035, 2163.232
888.7856, 2171.307
889.2678, 2180.474
889.7499, 2189.979
890.2320, 2199.467
890.7141, 2209.036
891.1962, 2217.567
891.6783, 2224.821
892.1605, 2231.614
892.6426, 2238.050
893.1247, 2244.426
893.6068, 2251.950
894.0889, 2260.727
894.5710, 2270.784
895.0532, 2282.816
895.5353, 2295.787
896.0174, 2308.363
896.4995, 2320.878
896.9816, 2335.771
897.4637, 2353.878
897.9459, 2373.015
898.4280, 2392.093
898.9101, 2411.677
899.3922, 2432.807
899.8743, 2455.498
900.3564, 2478.587
900.8386, 2501.490
901.3207, 2525.259
901.8028, 2550.831
902.2849, 2577.887
902.7670, 2606.240
903.2491, 2635.517
903.7313, 2666.361
904.2134, 2699.379
904.6955, 2733.789
905.1776, 2768.742
905.6597, 2804.617
906.1418, 2840.062
906.6240, 2874.668
907.1061, 2910.538
907.5882, 2950.918
908.0703, 2992.415
908.5524, 3031.434
909.0345, 3066.341
909.5167, 3101.613
909.9988, 3139.021
910.4809, 3175.887
910.9630, 3211.384
911.4451, 3245.384
911.9272, 3275.405
912.4094, 3301.346
912.8915, 3326.646
913.3736, 3355.725
913.8557, 3383.981
914.3378, 3405.987
914.8199, 3421.747
915.3021, 3433.729
915.7842, 3443.089
916.2663, 3447.958
916.7484, 3447.782
917.2305, 3442.784
917.7126, 3434.366
918.1948, 3422.569
918.6769, 3404.179
919.1590, 3377.105
919.6411, 3344.199
920.1232, 3307.554
920.6053, 3267.828
921.0875, 3226.894
921.5696, 3186.126
922.0517, 3142.522
922.5338, 3093.966
923.0159, 3043.415
923.4980, 2994.235
923.9802, 2946.453
924.4623, 2899.070
924.9444, 2852.699
925.4265, 2807.361
925.9086, 2763.066
926.3907, 2720.065
926.8729, 2679.343
927.3550, 2640.913
927.8371, 2603.784
928.3192, 2568.418
928.8013, 2534.084
929.2834, 2499.916
929.7656, 2465.795
930.2477, 2435.149
930.7298, 2407.938
931.2119, 2381.380
931.6940, 2352.932
932.1761, 2324.842
932.6583, 2300.063
933.1404, 2278.052
933.6225, 2257.479
934.1046, 2238.502
934.5867, 2219.915
935.0688, 2201.278
935.5510, 2182.963
936.0331, 2166.815
936.5152, 2152.697
936.9973, 2138.925
937.4794, 2124.783
937.9615, 2111.749
938.4437, 2102.075
938.9258, 2094.640
939.4079, 2088.108
939.8900, 2083.323
940.3721, 2076.858
940.8542, 2066.514
941.3364, 2056.068
941.8185, 2048.587
942.3006, 2044.150
942.7827, 2039.442
943.2648, 2034.255
943.7469, 2029.063
944.2291, 2024.532
944.7112, 2019.941
945.1933, 2013.806
945.6754, 2006.323
946.1575, 2000.896
946.6396, 2000.197
947.1218, 1999.407
947.6039, 1996.709
948.0860, 1993.104
948.5681, 1992.945
949.0502, 1995.922
949.5323, 1997.643
950.0145, 1995.311
950.4966, 1992.600
950.9787, 1993.429
951.4608, 1996.198
951.9429, 1998.308
952.4250, 1997.078
952.9072, 1998.327
953.3893, 2003.416
953.8714, 2009.356
954.3535, 2012.394
954.8356, 2012.986
955.3177, 2014.793
955.7999, 2018.234
956.2820, 2021.482
956.7641, 2023.475
957.2462, 2024.380
957.7283, 2023.882
958.2104, 2021.794
958.6925, 2021.253
959.1746, 2023.849
959.6567, 2024.834
960.1389, 2021.710
960.6210, 2015.664
961.1031, 2009.936
961.5852, 2004.698
962.0673, 2000.951
962.5494, 2000.938
963.0316, 2000.643
963.5137, 1997.199
963.9958, 1992.059
964.4779, 1988.141
964.9600, 1986.052
965.4421, 1983.540
965.9243, 1979.971
966.4064, 1976.995
966.8885, 1977.564
967.3706, 1980.160
967.8527, 1980.831
968.3348, 1978.780
968.8170, 1977.139
969.2991, 1976.031
969.7812, 1977.335
970.2633, 1983.414
970.7454, 1994.286
971.2275, 2000.553
971.7097, 2001.338
972.1918, 2003.101
972.6739, 2009.821
973.1560, 2019.208
973.6381, 2027.010
974.1202, 2034.147
974.6024, 2043.181
975.0845, 2056.564
975.5666, 2070.295
976.0487, 2083.329
976.5308, 2096.286
977.0129, 2110.405
977.4951, 2125.579
977.9772, 2140.010
978.4593, 2153.187
978.9414, 2166.635
979.4235, 2183.412
979.9056, 2200.705
980.3878, 2215.887
980.8699, 2228.732
981.3520, 2236.990
981.8341, 2239.923
982.3162, 2239.356
982.7983, 2236.169
983.2805, 2230.193
983.7626, 2220.268
984.2447, 2206.446
984.7268, 2189.678
985.2089, 2168.951
985.6910, 2146.770
986.1732, 2124.132
986.6553, 2101.646
987.1374, 2080.747
987.6195, 2062.147
988.1016, 2043.573
988.5837, 2025.109
989.0659, 2006.339
989.5480, 1985.836
990.0301, 1964.680
990.5122, 1946.574
990.9943, 1931.989
991.4764, 1918.395
991.9586, 1904.585
992.4407, 1891.119
992.9228, 1877.860
993.4049, 1864.883
993.8870, 1854.466
994.3691, 1847.117
994.8513, 1839.512
995.3334, 1829.348
995.8155, 1818.998
996.2976, 1812.558
996.7797, 1808.692
997.2618, 1804.271
997.7440, 1796.712
998.2261, 1790.563
998.7082, 1787.475
999.1903, 1785.107
999.6724, 1780.529
1000.155, 1773.873
1000.637, 1767.691
1001.119, 1762.147
1001.601, 1758.407
1002.083, 1759.833
1002.565, 1761.779
1003.047, 1759.316
1003.529, 1752.146
1004.011, 1746.908
1004.494, 1745.013
1004.976, 1742.884
1005.458, 1738.840
1005.940, 1734.335
1006.422, 1733.850
1006.904, 1736.171
1007.386, 1737.069
1007.868, 1734.654
1008.351, 1731.357
1008.833, 1727.557
1009.315, 1724.009
1009.797, 1721.385
1010.279, 1719.570
1010.761, 1719.443
1011.243, 1721.297
1011.725, 1722.891
1012.207, 1721.234
1012.690, 1718.774
1013.172, 1719.360
1013.654, 1722.703
1014.136, 1725.717
1014.618, 1726.909
1015.100, 1728.168
1015.582, 1730.161
1016.064, 1732.330
1016.547, 1733.351
1017.029, 1733.309
1017.511, 1732.730
1017.993, 1731.484
1018.475, 1730.714
1018.957, 1731.609
1019.439, 1733.322
1019.921, 1734.930
1020.403, 1736.112
1020.886, 1738.384
1021.368, 1742.104
1021.850, 1745.850
1022.332, 1748.569
1022.814, 1750.708
1023.296, 1753.628
1023.778, 1756.940
1024.260, 1759.236
1024.743, 1757.675
1025.225, 1757.656
1025.707, 1762.156
1026.189, 1768.401
1026.671, 1772.184
1027.153, 1773.357
1027.635, 1776.676
1028.117, 1783.018
1028.599, 1789.540
1029.082, 1792.775
1029.564, 1795.447
1030.046, 1800.842
1030.528, 1809.536
1031.010, 1816.481
1031.492, 1820.359
1031.974, 1824.625
1032.456, 1830.554
1032.938, 1837.756
1033.421, 1845.412
1033.903, 1853.598
1034.385, 1862.725
1034.867, 1873.622
1035.349, 1884.402
1035.831, 1894.655
1036.313, 1903.933
1036.795, 1911.454
1037.278, 1916.760
1037.760, 1923.314
1038.242, 1931.205
1038.724, 1939.314
1039.206, 1946.559
1039.688, 1953.629
1040.170, 1961.411
1040.652, 1969.724
1041.135, 1977.458
1041.617, 1985.205
1042.099, 1991.094
1042.581, 1994.354
1043.063, 1996.323
1043.545, 1999.541
1044.027, 2003.508
1044.509, 2006.326
1044.991, 2007.600
1045.474, 2008.152
1045.956, 2007.904
1046.438, 2007.563
1046.920, 2008.127
1047.402, 2009.510
1047.884, 2007.838
1048.366, 2002.977
1048.848, 1996.635
1049.330, 1988.348
1049.813, 1980.545
1050.295, 1976.750
1050.777, 1975.343
1051.259, 1973.277
1051.741, 1969.236
1052.223, 1965.289
1052.705, 1961.534
1053.187, 1957.827
1053.670, 1953.849
1054.152, 1949.860
1054.634, 1946.619
1055.116, 1944.186
1055.598, 1942.738
1056.080, 1942.741
1056.562, 1943.361
1057.044, 1944.445
1057.526, 1945.787
1058.009, 1946.911
1058.491, 1947.803
1058.973, 1948.664
1059.455, 1949.574
1059.937, 1950.292
1060.419, 1951.148
1060.901, 1951.350
1061.383, 1949.602
1061.865, 1945.071
1062.348, 1942.328
1062.830, 1942.447
1063.312, 1942.226
1063.794, 1940.288
1064.276, 1936.789
1064.758, 1930.766
1065.240, 1923.490
1065.722, 1918.820
1066.205, 1920.249
1066.687, 1921.978
1067.169, 1921.353
1067.651, 1921.042
1068.133, 1923.853
1068.615, 1929.781
1069.097, 1935.294
1069.579, 1940.255
1070.062, 1945.543
1070.544, 1950.040
1071.026, 1956.669
1071.508, 1968.320
1071.990, 1984.440
1072.472, 2001.264
1072.954, 2019.029
1073.436, 2036.534
1073.918, 2053.561
1074.401, 2070.898
1074.883, 2090.107
1075.365, 2110.694
1075.847, 2131.844
1076.329, 2152.976
1076.811, 2177.317
1077.293, 2207.492
1077.775, 2238.623
1078.257, 2268.040
1078.740, 2296.623
1079.222, 2328.662
1079.704, 2363.147
1080.186, 2395.519
1080.668, 2422.997
1081.150, 2450.602
1081.632, 2479.918
1082.114, 2511.450
1082.596, 2545.637
1083.079, 2583.406
1083.561, 2617.503
1084.043, 2647.971
1084.525, 2677.600
1085.007, 2709.252
1085.489, 2740.462
1085.971, 2769.981
1086.453, 2797.406
1086.936, 2820.672
1087.418, 2839.788
1087.900, 2855.613
1088.382, 2870.023
1088.864, 2876.900
1089.346, 2866.187
1089.828, 2843.083
1090.310, 2819.065
1090.792, 2795.232
1091.275, 2762.721
1091.757, 2715.070
1092.239, 2660.522
1092.721, 2601.112
1093.203, 2538.250
1093.685, 2476.354
1094.167, 2415.207
1094.649, 2352.869
1095.131, 2287.271
1095.614, 2225.631
1096.096, 2173.650
1096.578, 2127.438
1097.060, 2082.306
1097.542, 2038.141
1098.024, 2000.889
1098.506, 1970.860
1098.988, 1943.859
1099.471, 1917.619
1099.953, 1893.409
1100.435, 1871.752
1100.917, 1852.709
1101.399, 1836.418
1101.881, 1823.816
1102.363, 1812.783
1102.845, 1803.511
1103.328, 1795.261
1103.810, 1787.804
1104.292, 1780.626
1104.774, 1771.904
1105.256, 1762.097
1105.738, 1754.109
1106.220, 1750.052
1106.702, 1746.635
1107.184, 1743.214
1107.667, 1739.922
1108.149, 1737.492
1108.631, 1735.474
1109.113, 1730.874
1109.595, 1723.112
1110.077, 1717.419
1110.559, 1718.459
1111.041, 1721.210
1111.523, 1723.316
1112.006, 1724.552
1112.488, 1723.773
1112.970, 1720.938
1113.452, 1718.468
1113.934, 1717.051
1114.416, 1716.068
1114.898, 1715.407
1115.380, 1714.569
1115.863, 1712.907
1116.345, 1710.223
1116.827, 1707.678
1117.309, 1705.037
1117.791, 1703.682
1118.273, 1705.434
1118.755, 1707.575
1119.237, 1704.962
1119.719, 1699.986
1120.202, 1697.282
1120.684, 1700.760
1121.166, 1701.945
1121.648, 1699.795
1122.130, 1696.906
1122.612, 1695.309
1123.094, 1694.626
1123.576, 1693.871
1124.058, 1693.064
1124.541, 1692.388
1125.023, 1692.363
1125.505, 1691.802
1125.987, 1689.652
1126.469, 1687.679
1126.951, 1688.817
1127.433, 1692.462
1127.915, 1694.568
1128.398, 1694.805
1128.880, 1694.965
1129.362, 1697.328
1129.844, 1698.763
1130.326, 1697.029
1130.808, 1693.270
1131.290, 1689.820
1131.772, 1686.677
1132.255, 1685.575
1132.737, 1687.292
1133.219, 1688.792
1133.701, 1686.445
1134.183, 1683.433
1134.665, 1682.849
1135.147, 1684.792
1135.629, 1685.898
1136.111, 1685.978
1136.594, 1686.296
1137.076, 1687.288
1137.558, 1688.696
1138.040, 1691.478
1138.522, 1693.845
1139.004, 1692.882
1139.486, 1686.066
1139.968, 1682.699
1140.450, 1683.848
1140.933, 1685.548
1141.415, 1685.835
1141.897, 1685.097
1142.379, 1683.695
1142.861, 1681.934
1143.343, 1680.452
1143.825, 1679.906
1144.307, 1679.049
1144.790, 1677.849
1145.272, 1676.325
1145.754, 1673.879
1146.236, 1671.250
1146.718, 1671.323
1147.200, 1673.527
1147.682, 1675.047
1148.164, 1672.998
1148.646, 1672.240
1149.129, 1674.855
1149.611, 1678.043
1150.093, 1677.821
1150.575, 1674.919
1151.057, 1673.590
1151.539, 1674.082
1152.021, 1674.678
1152.503, 1675.088
1152.985, 1674.572
1153.468, 1672.249
1153.950, 1669.125
1154.432, 1666.922
1154.914, 1665.679
1155.396, 1666.224
1155.878, 1668.897
1156.360, 1671.056
1156.842, 1670.065
1157.325, 1668.381
1157.807, 1667.751
1158.289, 1667.943
1158.771, 1667.842
1159.253, 1667.403
1159.735, 1667.415
1160.217, 1668.098
1160.699, 1669.136
1161.182, 1671.235
1161.664, 1672.839
1162.146, 1671.829
1162.628, 1668.025
1163.110, 1665.973
1163.592, 1665.772
1164.074, 1666.611
1164.556, 1668.709
1165.038, 1670.697
1165.521, 1670.365
1166.003, 1669.270
1166.485, 1669.936
1166.967, 1673.914
1167.449, 1673.988
1167.931, 1669.179
1168.413, 1665.015
1168.895, 1664.975
1169.377, 1666.961
1169.860, 1668.910
1170.342, 1670.328
1170.824, 1670.235
1171.306, 1666.846
1171.788, 1664.732
1172.270, 1663.953
1172.752, 1664.222
1173.234, 1666.158
1173.717, 1668.515
1174.199, 1668.632
1174.681, 1667.311
1175.163, 1666.938
1175.645, 1669.527
1176.127, 1671.116
1176.609, 1671.302
1177.091, 1670.861
1177.573, 1670.302
1178.056, 1669.805
1178.538, 1669.857
1179.020, 1670.376
1179.502, 1670.808
1179.984, 1671.486
1180.466, 1671.129
1180.948, 1668.940
1181.430, 1666.720
1181.912, 1667.254
1182.395, 1669.404
1182.877, 1669.869
1183.359, 1668.580
1183.841, 1668.364
1184.323, 1672.289
1184.805, 1674.814
1185.287, 1674.196
1185.769, 1672.087
1186.252, 1671.283
1186.734, 1671.369
1187.216, 1671.123
1187.698, 1670.374
1188.180, 1669.557
1188.662, 1668.735
1189.144, 1668.051
1189.626, 1667.384
1190.109, 1667.064
1190.591, 1668.652
1191.073, 1671.287
1191.555, 1671.367
1192.037, 1667.755
1192.519, 1664.801
1193.001, 1663.894
1193.483, 1665.096
1193.965, 1669.424
1194.448, 1675.194
1194.930, 1676.770
1195.412, 1674.832
1195.894, 1671.825
1196.376, 1667.734
1196.858, 1665.235
1197.340, 1667.287
1197.822, 1669.493
1198.304, 1669.002
1198.787, 1670.892
1199.269, 1672.407
1199.751, 1672.284
1200.233, 1675.259
1200.715, 1675.235
1201.197, 1675.119
1201.679, 1677.066
1202.161, 1678.585
1202.644, 1677.577
1203.126, 1674.611
1203.608, 1673.838
1204.090, 1674.886
1204.572, 1675.775
1205.054, 1675.586
1205.536, 1675.200
1206.018, 1675.057
1206.500, 1674.825
1206.983, 1674.008
1207.465, 1674.454
1207.947, 1673.199
1208.429, 1675.071
1208.911, 1676.643
1209.393, 1677.152
1209.875, 1677.037
1210.357, 1675.811
1210.839, 1674.589
1211.322, 1674.381
1211.804, 1675.128
1212.286, 1676.033
1212.768, 1677.046
1213.250, 1677.854
1213.732, 1678.444
1214.214, 1678.583
1214.696, 1677.435
1215.179, 1676.395
1215.661, 1677.432
1216.143, 1680.185
1216.625, 1680.800
1217.107, 1679.293
1217.589, 1677.091
1218.071, 1673.122
1218.553, 1670.938
1219.036, 1673.115
1219.518, 1676.722
1220.000, 1678.238
1220.482, 1677.983
1220.964, 1678.851
1221.446, 1680.829
1221.928, 1682.127
1222.410, 1680.401
1222.892, 1679.512
1223.375, 1681.902
1223.857, 1684.814
1224.339, 1684.028
1224.821, 1680.218
1225.303, 1676.811
1225.785, 1674.150
1226.267, 1673.105
1226.749, 1675.378
1227.231, 1677.977
1227.714, 1680.378
1228.196, 1682.091
1228.678, 1681.903
1229.160, 1680.348
1229.642, 1679.684
1230.124, 1680.070
1230.606, 1679.959
1231.088, 1676.338
1231.571, 1675.264
1232.053, 1679.861
1232.535, 1686.092
1233.017, 1686.790
1233.499, 1683.529
1233.981, 1680.901
1234.463, 1679.446
1234.945, 1678.752
1235.427, 1679.080
1235.910, 1679.747
1236.392, 1680.954
1236.874, 1681.905
1237.356, 1680.631
1237.838, 1678.125
1238.320, 1676.780
1238.802, 1676.949
1239.284, 1677.722
1239.766, 1679.754
1240.249, 1680.921
1240.731, 1680.414
1241.213, 1679.275
1241.695, 1679.220
1242.177, 1679.843
1242.659, 1680.136
1243.141, 1679.893
1243.623, 1680.680
1244.106, 1683.769
1244.588, 1685.892
1245.070, 1686.041
1245.552, 1685.043
1246.034, 1683.055
1246.516, 1681.372
1246.998, 1682.926
1247.480, 1688.388
1247.963, 1691.048
1248.445, 1689.534
1248.927, 1687.584
1249.409, 1686.292
1249.891, 1685.151
1250.373, 1682.819
1250.855, 1680.588
1251.337, 1680.701
1251.819, 1683.691
1252.302, 1684.682
1252.784, 1682.932
1253.266, 1681.624
1253.748, 1681.718
1254.230, 1682.685
1254.712, 1684.004
1255.194, 1685.703
1255.676, 1688.482
1256.158, 1692.339
1256.641, 1692.317
1257.123, 1687.566
1257.605, 1685.082
1258.087, 1687.667
1258.569, 1691.031
1259.051, 1690.695
1259.533, 1689.029
1260.015, 1688.069
1260.498, 1687.951
1260.980, 1689.730
1261.462, 1693.447
1261.944, 1695.138
1262.426, 1692.970
1262.908, 1690.833
1263.390, 1692.912
1263.872, 1695.413
1264.354, 1694.843
1264.837, 1691.888
1265.319, 1691.338
1265.801, 1692.876
1266.283, 1693.485
1266.765, 1692.040
1267.247, 1690.457
1267.729, 1689.306
1268.211, 1689.138
1268.693, 1690.899
1269.176, 1693.566
1269.658, 1692.352
1270.140, 1688.376
1270.622, 1686.662
1271.104, 1689.169
1271.586, 1691.254
1272.068, 1690.370
1272.550, 1689.221
1273.033, 1688.779
1273.515, 1688.938
1273.997, 1689.810
1274.479, 1690.980
1274.961, 1691.080
1275.443, 1689.266
1275.925, 1689.144
1276.407, 1692.354
1276.890, 1695.258
1277.372, 1696.492
1277.854, 1696.511
1278.336, 1695.818
1278.818, 1694.688
1279.300, 1693.511
1279.782, 1692.287
1280.264, 1691.791
1280.746, 1692.415
1281.229, 1692.439
1281.711, 1690.769
1282.193, 1689.313
1282.675, 1691.191
1283.157, 1694.534
1283.639, 1697.406
1284.121, 1699.641
1284.603, 1699.087
1285.085, 1695.356
1285.568, 1692.385
1286.050, 1691.434
1286.532, 1691.704
1287.014, 1693.303
1287.496, 1695.014
1287.978, 1695.429
1288.460, 1694.794
1288.942, 1695.484
1289.425, 1697.356
1289.907, 1697.919
1290.389, 1696.045
1290.871, 1694.438
1291.353, 1695.353
1291.835, 1696.638
1292.317, 1697.092
1292.799, 1696.822
1293.281, 1695.682
1293.764, 1694.108
1294.246, 1693.996
1294.728, 1696.082
1295.210, 1697.815
1295.692, 1698.044
1296.174, 1697.723
1296.656, 1696.714
1297.138, 1695.893
1297.620, 1698.063
1298.103, 1701.546
1298.585, 1702.489
1299.067, 1699.796
1299.549, 1698.880
1300.031, 1701.236
1300.513, 1703.847
1300.995, 1705.514
1301.477, 1706.145
1301.960, 1705.608
1302.442, 1704.839
1302.924, 1705.145
1303.406, 1706.637
1303.888, 1707.477
1304.370, 1707.307
1304.852, 1706.105
1305.334, 1701.888
##END=



