##NAMES=Epidote
##RRUFFID=R040092
##IDEAL CHEMISTRY=Ca_2_Fe^3+^Al_2_(Si_2_O_7_)(SiO_4_)O(OH)
##LOCALITY=Nahant, Massachusetts, USA
##OWNER=RRUFF
##SOURCE=University of Arizona Mineral Museum
##DESCRIPTION=Green prismatic crystals imbedded in quartz
##STATUS=The identification of this mineral has been confirmed by X-ray diffraction and chemical analysis
##URL=rruff.info/R040092
##MEASURED CHEMISTRY=Ca_2.01_Al_2.00_Fe_1.00_(Si_1.00_O_4_)(Si_1.97_Fe_0.02_Al_0.01_Ti_0.01_O_7_)O(OH)
127.4148, 1251.933
127.8969, 1302.040
128.3790, 1353.817
128.8611, 1413.158
129.3432, 1481.388
129.8254, 1545.231
130.3075, 1617.367
130.7896, 1675.005
131.2717, 1705.589
131.7538, 1710.999
132.2359, 1701.719
132.7181, 1687.101
133.2002, 1664.374
133.6823, 1647.044
134.1644, 1641.604
134.6465, 1635.550
135.1286, 1615.480
135.6108, 1582.983
136.0929, 1555.315
136.5750, 1554.464
137.0571, 1592.798
137.5392, 1627.719
138.0213, 1648.232
138.5035, 1672.246
138.9856, 1718.046
139.4677, 1788.114
139.9498, 1865.285
140.4319, 1923.063
140.9140, 1939.726
141.3962, 1988.592
141.8783, 2091.231
142.3604, 2217.298
142.8425, 2338.881
143.3246, 2447.928
143.8067, 2550.076
144.2889, 2655.003
144.7710, 2764.864
145.2531, 2871.258
145.7352, 2964.129
146.2173, 3015.821
146.6994, 3027.723
147.1816, 3033.792
147.6637, 3036.138
148.1458, 3039.008
148.6279, 3047.128
149.1100, 3044.049
149.5921, 3012.525
150.0743, 2968.866
150.5564, 2944.267
151.0385, 2950.580
151.5206, 2973.601
152.0027, 2989.802
152.4848, 2999.974
152.9670, 3002.588
153.4491, 2988.598
153.9312, 2965.095
154.4133, 2951.184
154.8954, 2954.019
155.3775, 2968.184
155.8597, 2981.287
156.3418, 2987.574
156.8239, 3005.736
157.3060, 3049.702
157.7881, 3114.105
158.2702, 3180.082
158.7524, 3240.665
159.2345, 3298.492
159.7166, 3356.229
160.1987, 3410.837
160.6808, 3473.534
161.1629, 3558.833
161.6451, 3662.290
162.1272, 3755.001
162.6093, 3818.616
163.0914, 3873.678
163.5735, 3949.278
164.0556, 4050.550
164.5378, 4159.752
165.0199, 4267.045
165.5020, 4372.806
165.9841, 4472.554
166.4662, 4566.482
166.9483, 4652.018
167.4305, 4727.147
167.9126, 4790.470
168.3947, 4847.409
168.8768, 4905.188
169.3589, 4964.168
169.8410, 5010.159
170.3232, 5037.955
170.8053, 5048.772
171.2874, 5046.037
171.7695, 5031.725
172.2516, 4998.383
172.7337, 4935.334
173.2159, 4840.831
173.6980, 4734.395
174.1801, 4615.307
174.6622, 4488.754
175.1443, 4356.691
175.6264, 4214.928
176.1086, 4079.539
176.5907, 3969.348
177.0728, 3886.646
177.5549, 3809.775
178.0370, 3732.730
178.5191, 3658.144
179.0013, 3587.071
179.4834, 3518.637
179.9655, 3457.593
180.4476, 3408.248
180.9297, 3370.216
181.4118, 3346.172
181.8940, 3349.849
182.3761, 3362.171
182.8582, 3368.752
183.3403, 3365.518
183.8224, 3359.448
184.3046, 3358.706
184.7867, 3363.823
185.2688, 3371.422
185.7509, 3396.992
186.2330, 3415.827
186.7151, 3405.759
187.1973, 3359.509
187.6794, 3296.630
188.1615, 3240.404
188.6436, 3193.507
189.1257, 3141.941
189.6078, 3071.428
190.0900, 3000.861
190.5721, 2943.321
191.0542, 2902.676
191.5363, 2872.324
192.0184, 2844.010
192.5005, 2817.012
192.9827, 2796.056
193.4648, 2785.128
193.9469, 2779.232
194.4290, 2774.177
194.9111, 2768.772
195.3932, 2768.552
195.8754, 2783.581
196.3575, 2818.046
196.8396, 2846.331
197.3217, 2851.989
197.8038, 2855.788
198.2859, 2873.858
198.7681, 2909.781
199.2502, 2948.099
199.7323, 2971.017
200.2144, 2976.631
200.6965, 2977.959
201.1786, 2972.469
201.6608, 2966.535
202.1429, 2966.709
202.6250, 2973.805
203.1071, 2977.436
203.5892, 2963.344
204.0713, 2928.559
204.5535, 2898.144
205.0356, 2879.811
205.5177, 2865.208
205.9998, 2849.154
206.4819, 2831.048
206.9640, 2814.910
207.4462, 2806.124
207.9283, 2805.490
208.4104, 2802.543
208.8925, 2789.787
209.3746, 2779.130
209.8567, 2777.496
210.3388, 2785.289
210.8210, 2798.877
211.3031, 2817.438
211.7852, 2841.249
212.2673, 2860.306
212.7494, 2868.694
213.2315, 2876.033
213.7137, 2883.547
214.1958, 2893.014
214.6779, 2912.700
215.1600, 2955.355
215.6421, 3019.831
216.1242, 3073.617
216.6064, 3102.050
217.0885, 3132.159
217.5706, 3179.925
218.0527, 3243.490
218.5348, 3312.089
219.0169, 3379.337
219.4991, 3445.405
219.9812, 3510.452
220.4633, 3569.691
220.9454, 3635.322
221.4275, 3714.937
221.9096, 3806.215
222.3918, 3900.598
222.8739, 3993.873
223.3560, 4086.699
223.8381, 4183.660
224.3202, 4292.987
224.8023, 4393.166
225.2845, 4471.589
225.7666, 4533.486
226.2487, 4590.808
226.7308, 4656.923
227.2129, 4722.019
227.6950, 4757.827
228.1772, 4758.768
228.6593, 4740.127
229.1414, 4702.778
229.6235, 4654.069
230.1056, 4606.584
230.5877, 4567.677
231.0699, 4532.021
231.5520, 4489.958
232.0341, 4441.663
232.5162, 4386.488
232.9983, 4311.922
233.4804, 4232.961
233.9626, 4169.211
234.4447, 4124.818
234.9268, 4100.595
235.4089, 4103.572
235.8910, 4138.162
236.3731, 4172.204
236.8553, 4187.361
237.3374, 4194.373
237.8195, 4207.068
238.3016, 4229.860
238.7837, 4255.646
239.2658, 4282.234
239.7480, 4309.912
240.2301, 4322.466
240.7122, 4313.991
241.1943, 4284.356
241.6764, 4234.328
242.1585, 4158.655
242.6407, 4075.542
243.1228, 3999.032
243.6049, 3927.639
244.0870, 3849.628
244.5691, 3755.943
245.0512, 3659.251
245.5334, 3577.024
246.0155, 3510.760
246.4976, 3452.564
246.9797, 3395.205
247.4618, 3342.511
247.9439, 3305.849
248.4261, 3290.906
248.9082, 3289.002
249.3903, 3290.596
249.8724, 3295.942
250.3545, 3299.713
250.8366, 3299.816
251.3188, 3297.101
251.8009, 3290.696
252.2830, 3278.692
252.7651, 3270.608
253.2472, 3283.830
253.7293, 3318.510
254.2115, 3337.866
254.6936, 3326.478
255.1757, 3300.859
255.6578, 3279.895
256.1399, 3266.127
256.6220, 3250.169
257.1042, 3221.733
257.5863, 3180.337
258.0684, 3146.302
258.5505, 3125.134
259.0326, 3108.025
259.5147, 3085.235
259.9969, 3058.144
260.4790, 3039.380
260.9611, 3038.511
261.4432, 3055.241
261.9253, 3075.032
262.4074, 3097.641
262.8896, 3122.997
263.3717, 3146.975
263.8538, 3173.284
264.3359, 3211.843
264.8180, 3268.349
265.3001, 3341.289
265.7823, 3423.051
266.2644, 3516.097
266.7465, 3614.133
267.2286, 3713.159
267.7107, 3816.976
268.1928, 3933.470
268.6750, 4066.171
269.1571, 4208.699
269.6392, 4343.261
270.1213, 4450.545
270.6034, 4574.831
271.0855, 4736.465
271.5677, 4904.882
272.0498, 5055.490
272.5319, 5179.592
273.0140, 5278.430
273.4961, 5353.556
273.9782, 5409.198
274.4604, 5426.553
274.9425, 5409.369
275.4246, 5357.837
275.9067, 5261.907
276.3888, 5126.884
276.8709, 4976.978
277.3531, 4835.893
277.8352, 4706.254
278.3173, 4571.197
278.7994, 4411.265
279.2815, 4264.780
279.7636, 4145.969
280.2458, 4052.360
280.7279, 3974.458
281.2100, 3906.680
281.6921, 3848.395
282.1742, 3794.834
282.6563, 3747.076
283.1385, 3702.644
283.6206, 3659.750
284.1027, 3619.920
284.5848, 3585.696
285.0669, 3558.942
285.5490, 3537.561
286.0312, 3516.842
286.5133, 3495.623
286.9954, 3478.068
287.4775, 3465.794
287.9596, 3457.135
288.4417, 3450.362
288.9239, 3444.822
289.4060, 3442.824
289.8881, 3446.855
290.3702, 3456.852
290.8523, 3473.459
291.3344, 3504.375
291.8166, 3536.081
292.2987, 3556.246
292.7808, 3564.198
293.2629, 3572.998
293.7450, 3592.269
294.2271, 3620.497
294.7093, 3652.733
295.1914, 3694.607
295.6735, 3729.317
296.1556, 3737.722
296.6377, 3725.248
297.1198, 3717.382
297.6020, 3734.783
298.0841, 3759.018
298.5662, 3756.216
299.0483, 3720.647
299.5304, 3684.748
300.0125, 3674.708
300.4947, 3683.677
300.9768, 3685.803
301.4589, 3667.749
301.9410, 3650.651
302.4231, 3651.075
302.9052, 3667.183
303.3874, 3687.765
303.8695, 3706.487
304.3516, 3726.467
304.8337, 3758.236
305.3158, 3813.006
305.7979, 3861.624
306.2801, 3890.634
306.7622, 3908.559
307.2443, 3929.409
307.7264, 3957.876
308.2085, 3991.710
308.6906, 4027.150
309.1728, 4067.535
309.6549, 4103.189
310.1370, 4132.294
310.6191, 4157.690
311.1012, 4185.774
311.5833, 4215.503
312.0655, 4235.626
312.5476, 4234.187
313.0297, 4209.779
313.5118, 4169.958
313.9939, 4115.983
314.4760, 4047.975
314.9582, 3957.903
315.4403, 3853.255
315.9224, 3750.487
316.4045, 3660.142
316.8866, 3580.965
317.3687, 3503.355
317.8509, 3419.796
318.3330, 3348.971
318.8151, 3294.416
319.2972, 3253.695
319.7793, 3226.396
320.2614, 3212.689
320.7436, 3206.104
321.2257, 3194.673
321.7078, 3175.756
322.1899, 3160.863
322.6720, 3154.876
323.1541, 3151.535
323.6363, 3146.947
324.1184, 3140.746
324.6005, 3135.524
325.0826, 3137.870
325.5647, 3146.121
326.0468, 3139.733
326.5290, 3110.376
327.0111, 3075.448
327.4932, 3042.914
327.9753, 3014.044
328.4574, 2993.326
328.9395, 2988.322
329.4217, 2990.513
329.9038, 2987.664
330.3859, 2979.928
330.8680, 2964.911
331.3501, 2935.795
331.8322, 2899.437
332.3144, 2872.125
332.7965, 2857.514
333.2786, 2848.888
333.7607, 2843.494
334.2428, 2840.989
334.7249, 2839.182
335.2070, 2835.710
335.6891, 2835.683
336.1713, 2850.386
336.6534, 2881.688
337.1355, 2918.925
337.6176, 2959.063
338.0997, 3004.799
338.5818, 3061.188
339.0640, 3128.371
339.5461, 3199.062
340.0282, 3264.414
340.5103, 3321.303
340.9924, 3393.744
341.4745, 3483.924
341.9567, 3584.542
342.4388, 3697.805
342.9209, 3818.667
343.4030, 3939.629
343.8851, 4056.593
344.3672, 4168.295
344.8494, 4268.830
345.3315, 4355.405
345.8136, 4432.378
346.2957, 4503.809
346.7778, 4565.667
347.2599, 4616.292
347.7421, 4655.070
348.2242, 4677.308
348.7063, 4676.501
349.1884, 4651.879
349.6705, 4608.291
350.1526, 4536.453
350.6348, 4452.661
351.1169, 4365.800
351.5990, 4274.953
352.0811, 4174.771
352.5632, 4053.990
353.0453, 3920.089
353.5275, 3800.206
354.0096, 3696.217
354.4917, 3600.819
354.9738, 3509.969
355.4559, 3425.231
355.9380, 3351.858
356.4202, 3292.126
356.9023, 3242.078
357.3844, 3199.631
357.8665, 3164.411
358.3486, 3133.774
358.8307, 3106.757
359.3129, 3083.590
359.7950, 3063.755
360.2771, 3045.051
360.7592, 3035.115
361.2413, 3047.847
361.7234, 3064.962
362.2056, 3060.848
362.6877, 3031.921
363.1698, 2999.118
363.6519, 2984.499
364.1340, 2991.187
364.6161, 2989.304
365.0983, 2975.609
365.5804, 2958.039
366.0625, 2939.156
366.5446, 2919.154
367.0267, 2898.707
367.5089, 2878.461
367.9910, 2856.473
368.4731, 2825.402
368.9552, 2776.064
369.4373, 2732.706
369.9194, 2701.465
370.4016, 2674.365
370.8837, 2645.151
371.3658, 2612.549
371.8479, 2579.066
372.3300, 2544.736
372.8121, 2508.986
373.2943, 2485.630
373.7764, 2482.668
374.2585, 2483.968
374.7406, 2483.212
375.2227, 2479.801
375.7048, 2472.316
376.1870, 2456.879
376.6691, 2439.193
377.1512, 2427.724
377.6333, 2422.392
378.1154, 2424.047
378.5975, 2435.152
379.0797, 2452.933
379.5618, 2470.678
380.0439, 2486.865
380.5260, 2506.813
381.0081, 2537.741
381.4902, 2573.438
381.9724, 2600.885
382.4545, 2616.573
382.9366, 2629.368
383.4187, 2648.963
383.9008, 2676.644
384.3829, 2707.220
384.8651, 2745.235
385.3472, 2781.929
385.8293, 2814.697
386.3114, 2842.084
386.7935, 2860.954
387.2756, 2869.080
387.7578, 2868.066
388.2399, 2864.543
388.7220, 2858.764
389.2041, 2849.823
389.6862, 2838.056
390.1683, 2823.193
390.6505, 2805.090
391.1326, 2783.756
391.6147, 2758.862
392.0968, 2728.690
392.5789, 2692.620
393.0610, 2659.011
393.5432, 2626.485
394.0253, 2598.941
394.5074, 2578.006
394.9895, 2563.222
395.4716, 2553.645
395.9537, 2550.067
396.4359, 2550.333
396.9180, 2553.339
397.4001, 2559.312
397.8822, 2559.934
398.3643, 2548.329
398.8464, 2532.134
399.3286, 2525.393
399.8107, 2531.566
400.2928, 2534.766
400.7749, 2523.754
401.2570, 2508.015
401.7391, 2501.727
402.2213, 2507.254
402.7034, 2517.605
403.1855, 2525.724
403.6676, 2531.122
404.1497, 2543.315
404.6318, 2568.368
405.1140, 2592.826
405.5961, 2611.348
406.0782, 2625.531
406.5603, 2637.211
407.0424, 2647.032
407.5245, 2658.483
408.0067, 2678.879
408.4888, 2708.631
408.9709, 2747.008
409.4530, 2802.583
409.9351, 2859.227
410.4172, 2904.188
410.8994, 2939.136
411.3815, 2976.424
411.8636, 3023.208
412.3457, 3079.728
412.8278, 3149.738
413.3099, 3235.945
413.7921, 3328.589
414.2742, 3422.994
414.7563, 3521.046
415.2384, 3627.313
415.7205, 3742.191
416.2026, 3864.592
416.6848, 3993.785
417.1669, 4129.488
417.6490, 4270.724
418.1311, 4418.807
418.6132, 4571.603
419.0953, 4727.310
419.5775, 4886.225
420.0596, 5048.311
420.5417, 5228.268
421.0238, 5399.561
421.5059, 5544.795
421.9880, 5667.053
422.4702, 5780.698
422.9523, 5894.652
423.4344, 6001.316
423.9165, 6071.893
424.3986, 6090.386
424.8807, 6094.610
425.3629, 6084.479
425.8450, 6064.781
426.3271, 6031.327
426.8092, 5987.966
427.2913, 5953.966
427.7734, 5948.232
428.2556, 5968.850
428.7377, 5996.990
429.2198, 6034.613
429.7019, 6076.280
430.1840, 6115.895
430.6661, 6158.370
431.1483, 6213.689
431.6304, 6290.084
432.1125, 6367.625
432.5946, 6438.480
433.0767, 6498.301
433.5588, 6530.478
434.0410, 6529.503
434.5231, 6503.055
435.0052, 6459.903
435.4873, 6399.663
435.9694, 6320.027
436.4515, 6197.755
436.9337, 6075.787
437.4158, 5986.867
437.8979, 5922.740
438.3800, 5853.657
438.8621, 5760.004
439.3442, 5656.745
439.8264, 5590.367
440.3085, 5573.146
440.7906, 5574.512
441.2727, 5587.773
441.7548, 5619.305
442.2369, 5678.477
442.7191, 5762.998
443.2012, 5857.226
443.6833, 5944.795
444.1654, 6030.479
444.6475, 6138.665
445.1296, 6273.557
445.6118, 6420.366
446.0939, 6576.771
446.5760, 6739.382
447.0581, 6906.390
447.5402, 7084.116
448.0223, 7250.188
448.5045, 7384.847
448.9866, 7498.249
449.4687, 7620.298
449.9508, 7758.591
450.4329, 7886.519
450.9150, 7974.896
451.3972, 8019.348
451.8793, 8052.008
452.3614, 8067.696
452.8435, 8077.438
453.3256, 8096.082
453.8077, 8109.958
454.2899, 8097.083
454.7720, 8047.708
455.2541, 7965.766
455.7362, 7857.262
456.2183, 7719.416
456.7004, 7563.587
457.1826, 7379.504
457.6647, 7184.826
458.1468, 6986.374
458.6289, 6784.387
459.1110, 6577.904
459.5931, 6362.424
460.0753, 6144.877
460.5574, 5933.150
461.0395, 5725.442
461.5216, 5548.278
462.0037, 5424.752
462.4858, 5324.896
462.9680, 5194.918
463.4501, 5025.202
463.9322, 4875.080
464.4143, 4762.542
464.8964, 4677.155
465.3785, 4619.706
465.8607, 4584.199
466.3428, 4542.826
466.8249, 4473.094
467.3070, 4382.112
467.7891, 4314.022
468.2712, 4286.327
468.7534, 4261.161
469.2355, 4241.824
469.7176, 4219.341
470.1997, 4182.178
470.6818, 4130.383
471.1639, 4078.077
471.6461, 4037.384
472.1282, 4008.002
472.6103, 3992.179
473.0924, 4000.339
473.5745, 3999.229
474.0566, 3956.627
474.5388, 3897.500
475.0209, 3857.527
475.5030, 3846.138
475.9851, 3845.162
476.4672, 3844.423
476.9493, 3845.584
477.4315, 3855.206
477.9136, 3875.068
478.3957, 3891.562
478.8778, 3888.548
479.3599, 3863.845
479.8420, 3854.425
480.3242, 3868.207
480.8063, 3885.814
481.2884, 3903.146
481.7705, 3919.639
482.2526, 3935.105
482.7347, 3949.434
483.2169, 3962.837
483.6990, 3974.978
484.1811, 3985.457
484.6632, 3998.470
485.1453, 4016.187
485.6274, 4034.057
486.1096, 4049.155
486.5917, 4062.642
487.0738, 4076.736
487.5559, 4090.954
488.0380, 4107.868
488.5201, 4130.176
489.0023, 4157.276
489.4844, 4186.099
489.9665, 4215.237
490.4486, 4248.088
490.9307, 4290.177
491.4128, 4343.830
491.8950, 4394.916
492.3771, 4435.876
492.8592, 4481.621
493.3413, 4542.409
493.8234, 4613.190
494.3055, 4684.800
494.7877, 4753.169
495.2698, 4819.982
495.7519, 4888.887
496.2340, 4961.860
496.7161, 5031.198
497.1982, 5092.711
497.6804, 5154.035
498.1625, 5223.552
498.6446, 5296.211
499.1267, 5356.525
499.6088, 5388.979
500.0909, 5416.628
500.5730, 5473.492
501.0551, 5552.888
501.5373, 5615.336
502.0194, 5646.758
502.5015, 5658.877
502.9836, 5664.871
503.4657, 5661.827
503.9478, 5666.313
504.4300, 5691.068
504.9121, 5711.722
505.3942, 5711.360
505.8763, 5696.849
506.3584, 5686.827
506.8405, 5690.931
507.3227, 5694.281
507.8048, 5664.323
508.2869, 5591.226
508.7690, 5524.840
509.2511, 5481.672
509.7332, 5433.397
510.2154, 5358.640
510.6975, 5266.144
511.1796, 5182.091
511.6617, 5120.912
512.1439, 5067.582
512.6260, 5004.249
513.1081, 4933.502
513.5902, 4868.967
514.0723, 4816.034
514.5544, 4766.760
515.0366, 4708.525
515.5187, 4634.413
516.0008, 4585.010
516.4829, 4584.027
516.9650, 4583.555
517.4471, 4556.419
517.9293, 4513.825
518.4114, 4480.039
518.8935, 4465.553
519.3756, 4457.884
519.8577, 4434.207
520.3398, 4391.132
520.8220, 4356.673
521.3041, 4340.418
521.7862, 4324.009
522.2683, 4296.209
522.7504, 4260.050
523.2325, 4222.646
523.7147, 4185.247
524.1968, 4148.431
524.6789, 4113.119
525.1610, 4078.582
525.6431, 4043.669
526.1252, 4008.162
526.6074, 3969.217
527.0895, 3922.208
527.5716, 3864.427
528.0537, 3819.345
528.5358, 3792.589
529.0179, 3770.462
529.5001, 3750.488
529.9822, 3732.093
530.4643, 3715.755
530.9464, 3701.491
531.4285, 3686.136
531.9106, 3661.956
532.3928, 3630.196
532.8749, 3613.475
533.3570, 3617.020
533.8391, 3626.262
534.3212, 3633.476
534.8033, 3640.223
535.2855, 3649.726
535.7676, 3663.482
536.2497, 3677.822
536.7318, 3695.292
537.2139, 3710.469
537.6960, 3710.491
538.1782, 3695.681
538.6603, 3686.724
539.1424, 3703.391
539.6245, 3741.976
540.1066, 3765.115
540.5887, 3754.781
541.0709, 3755.217
541.5530, 3776.939
542.0351, 3808.705
542.5172, 3846.834
542.9993, 3888.124
543.4814, 3919.542
543.9636, 3920.222
544.4457, 3907.352
544.9278, 3921.577
545.4099, 3964.309
545.8920, 4011.296
546.3741, 4055.892
546.8563, 4093.360
547.3384, 4109.174
547.8205, 4088.859
548.3026, 4091.272
548.7847, 4142.836
549.2668, 4202.379
549.7490, 4240.199
550.2311, 4260.754
550.7132, 4282.893
551.1953, 4316.913
551.6774, 4359.145
552.1595, 4397.178
552.6417, 4424.725
553.1238, 4481.351
553.6059, 4593.941
554.0880, 4712.215
554.5701, 4794.754
555.0522, 4853.771
555.5344, 4931.551
556.0165, 5049.029
556.4986, 5179.722
556.9807, 5301.197
557.4628, 5420.873
557.9449, 5556.315
558.4271, 5713.300
558.9092, 5883.346
559.3913, 6060.093
559.8734, 6244.715
560.3555, 6420.404
560.8376, 6594.741
561.3198, 6750.756
561.8019, 6884.230
562.2840, 6997.265
562.7661, 7100.030
563.2482, 7193.526
563.7303, 7243.322
564.2125, 7215.789
564.6946, 7121.701
565.1767, 6989.740
565.6588, 6820.673
566.1409, 6619.420
566.6230, 6373.123
567.1052, 6106.337
567.5873, 5883.827
568.0694, 5713.999
568.5515, 5560.316
569.0336, 5426.119
569.5157, 5301.490
569.9979, 5169.782
570.4800, 5040.866
570.9621, 4942.340
571.4442, 4892.397
571.9263, 4878.026
572.4084, 4875.936
572.8906, 4888.275
573.3727, 4897.962
573.8548, 4899.505
574.3369, 4901.386
574.8190, 4910.329
575.3011, 4924.907
575.7833, 4940.682
576.2654, 4956.198
576.7475, 4973.142
577.2296, 4991.281
577.7117, 5011.944
578.1938, 5039.673
578.6760, 5074.949
579.1581, 5108.779
579.6402, 5130.690
580.1223, 5141.230
580.6044, 5161.602
581.0865, 5201.836
581.5686, 5236.640
582.0507, 5252.921
582.5328, 5266.528
583.0150, 5294.505
583.4971, 5338.203
583.9792, 5380.384
584.4613, 5411.896
584.9434, 5434.948
585.4255, 5450.529
585.9077, 5459.723
586.3898, 5469.264
586.8719, 5481.818
587.3540, 5497.189
587.8361, 5515.334
588.3182, 5538.283
588.8004, 5558.063
589.2825, 5567.608
589.7646, 5581.574
590.2467, 5602.079
590.7288, 5632.472
591.2109, 5679.598
591.6931, 5746.708
592.1752, 5821.110
592.6573, 5888.448
593.1394, 5950.466
593.6215, 6020.188
594.1036, 6102.565
594.5858, 6174.797
595.0679, 6224.395
595.5500, 6251.958
596.0321, 6259.646
596.5142, 6243.753
596.9963, 6217.182
597.4785, 6187.589
597.9606, 6143.731
598.4427, 6074.808
598.9248, 5982.597
599.4069, 5874.796
599.8890, 5753.780
600.3712, 5626.846
600.8533, 5509.675
601.3354, 5403.132
601.8175, 5297.449
602.2996, 5194.045
602.7817, 5086.410
603.2639, 4955.167
603.7460, 4810.509
604.2281, 4704.459
604.7102, 4675.139
605.1923, 4647.215
605.6744, 4586.643
606.1566, 4511.058
606.6387, 4440.411
607.1208, 4379.612
607.6029, 4328.091
608.0850, 4286.939
608.5671, 4253.353
609.0493, 4211.727
609.5314, 4159.533
610.0135, 4106.637
610.4956, 4054.616
610.9777, 4003.987
611.4598, 3956.496
611.9420, 3911.584
612.4241, 3863.830
612.9062, 3813.265
613.3883, 3757.789
613.8704, 3698.948
614.3525, 3633.306
614.8347, 3551.328
615.3168, 3450.835
615.7989, 3346.897
616.2810, 3258.451
616.7631, 3185.554
617.2452, 3110.364
617.7274, 3030.486
618.2095, 2953.528
618.6916, 2886.442
619.1737, 2821.065
619.6558, 2745.520
620.1379, 2658.448
620.6201, 2583.396
621.1022, 2536.899
621.5843, 2502.672
622.0664, 2466.196
622.5485, 2427.849
623.0306, 2391.839
623.5128, 2359.913
623.9949, 2330.510
624.4770, 2301.481
624.9591, 2273.527
625.4412, 2242.462
625.9233, 2204.245
626.4055, 2168.426
626.8876, 2132.028
627.3697, 2102.545
627.8518, 2093.390
628.3339, 2108.906
628.8160, 2121.024
629.2982, 2111.442
629.7803, 2091.027
630.2624, 2072.864
630.7445, 2057.353
631.2266, 2041.146
631.7087, 2022.492
632.1909, 2002.828
632.6730, 1984.825
633.1551, 1968.429
633.6372, 1953.873
634.1193, 1941.986
634.6014, 1931.047
635.0836, 1920.117
635.5657, 1909.873
636.0478, 1901.735
636.5299, 1896.374
637.0120, 1890.676
637.4941, 1881.798
637.9763, 1871.771
638.4584, 1864.462
638.9405, 1859.441
639.4226, 1851.778
639.9047, 1838.198
640.3868, 1823.389
640.8690, 1818.554
641.3511, 1830.574
641.8332, 1832.755
642.3153, 1814.744
642.7974, 1797.843
643.2795, 1790.545
643.7617, 1789.592
644.2438, 1790.386
644.7259, 1792.691
645.2080, 1792.449
645.6901, 1786.081
646.1722, 1776.028
646.6544, 1764.595
647.1365, 1752.631
647.6186, 1742.468
648.1007, 1735.323
648.5828, 1731.355
649.0649, 1732.547
649.5471, 1745.012
650.0292, 1744.315
650.5113, 1715.854
650.9934, 1681.083
651.4755, 1689.299
651.9576, 1692.411
652.4398, 1690.688
652.9219, 1669.665
653.4040, 1673.567
653.8861, 1667.479
654.3682, 1660.982
654.8503, 1668.392
655.3325, 1650.175
655.8146, 1657.365
656.2967, 1656.930
656.7788, 1661.025
657.2609, 1665.517
657.7430, 1670.854
658.2252, 1675.100
658.7073, 1680.681
659.1894, 1681.703
659.6715, 1671.694
660.1536, 1657.034
660.6357, 1647.485
661.1179, 1644.843
661.6000, 1645.922
662.0821, 1653.667
662.5642, 1661.322
663.0463, 1659.557
663.5284, 1650.558
664.0106, 1644.354
664.4927, 1645.933
664.9748, 1650.223
665.4569, 1647.439
665.9390, 1636.125
666.4211, 1628.909
666.9033, 1625.901
667.3854, 1627.153
667.8675, 1636.848
668.3496, 1649.170
668.8317, 1655.707
669.3138, 1655.182
669.7960, 1652.147
670.2781, 1644.253
670.7602, 1637.583
671.2423, 1640.563
671.7244, 1648.375
672.2065, 1647.575
672.6887, 1632.988
673.1708, 1616.703
673.6529, 1616.921
674.1350, 1632.808
674.6171, 1642.583
675.0992, 1643.893
675.5814, 1647.270
676.0635, 1660.058
676.5456, 1675.517
677.0277, 1680.294
677.5098, 1671.539
677.9919, 1670.551
678.4741, 1683.854
678.9562, 1701.681
679.4383, 1724.880
679.9204, 1746.895
680.4025, 1755.700
680.8846, 1749.037
681.3668, 1740.288
681.8489, 1743.078
682.3310, 1754.483
682.8131, 1765.430
683.2952, 1775.895
683.7773, 1784.318
684.2595, 1789.086
684.7416, 1794.156
685.2237, 1807.503
685.7058, 1832.743
686.1879, 1838.928
686.6700, 1807.554
687.1522, 1781.633
687.6343, 1779.001
688.1164, 1783.497
688.5985, 1778.243
689.0806, 1761.155
689.5627, 1740.251
690.0449, 1719.750
690.5270, 1699.247
691.0091, 1677.353
691.4912, 1654.737
691.9733, 1635.726
692.4554, 1621.706
692.9376, 1605.698
693.4197, 1579.845
693.9018, 1545.227
694.3839, 1517.779
694.8660, 1499.209
695.3481, 1484.869
695.8303, 1474.564
696.3124, 1467.684
696.7945, 1467.279
697.2766, 1470.575
697.7587, 1467.273
698.2408, 1448.616
698.7230, 1430.189
699.2051, 1425.399
699.6872, 1426.718
700.1693, 1422.153
700.6514, 1410.610
701.1335, 1398.255
701.6157, 1389.452
702.0978, 1382.421
702.5799, 1370.961
703.0620, 1353.009
703.5441, 1344.537
704.0262, 1353.966
704.5084, 1361.572
704.9905, 1349.531
705.4726, 1327.010
705.9547, 1317.658
706.4368, 1328.787
706.9189, 1338.392
707.4011, 1340.717
707.8832, 1340.143
708.3653, 1340.813
708.8474, 1341.181
709.3295, 1335.578
709.8116, 1321.479
710.2938, 1308.147
710.7759, 1311.103
711.2580, 1324.580
711.7401, 1321.932
712.2222, 1300.981
712.7043, 1285.056
713.1865, 1286.166
713.6686, 1295.126
714.1507, 1295.959
714.6328, 1285.141
715.1149, 1281.377
715.5970, 1293.424
716.0792, 1301.758
716.5613, 1298.548
717.0434, 1290.328
717.5255, 1283.002
718.0076, 1277.831
718.4897, 1275.697
718.9719, 1279.667
719.4540, 1284.791
719.9361, 1285.247
720.4182, 1282.737
720.9003, 1282.080
721.3824, 1284.357
721.8646, 1286.221
722.3467, 1283.956
722.8288, 1278.956
723.3109, 1279.528
723.7930, 1287.852
724.2751, 1294.026
724.7573, 1296.315
725.2394, 1295.799
725.7215, 1291.821
726.2036, 1285.537
726.6857, 1281.033
727.1678, 1279.525
727.6500, 1278.490
728.1321, 1275.520
728.6142, 1274.059
729.0963, 1277.973
729.5784, 1286.038
730.0605, 1295.568
730.5427, 1305.863
731.0248, 1312.123
731.5069, 1303.806
731.9890, 1286.137
732.4711, 1281.115
732.9532, 1290.683
733.4354, 1296.250
733.9175, 1286.993
734.3996, 1271.976
734.8817, 1269.386
735.3638, 1285.098
735.8459, 1289.773
736.3281, 1269.372
736.8102, 1255.091
737.2923, 1260.542
737.7744, 1273.436
738.2565, 1280.410
738.7386, 1280.068
739.2208, 1278.951
739.7029, 1281.533
740.1850, 1282.706
740.6671, 1274.536
741.1492, 1263.388
741.6313, 1254.192
742.1135, 1269.760
742.5956, 1279.294
743.0777, 1283.117
743.5598, 1264.128
744.0419, 1274.596
744.5240, 1273.259
745.0062, 1271.439
745.4883, 1286.053
745.9704, 1270.382
746.4525, 1284.736
746.9346, 1287.104
747.4167, 1294.958
747.8989, 1290.934
748.3810, 1290.578
748.8631, 1294.186
749.3452, 1297.387
749.8273, 1303.204
750.3094, 1309.186
750.7916, 1310.241
751.2737, 1304.505
751.7558, 1297.409
752.2379, 1291.351
752.7200, 1287.011
753.2021, 1286.349
753.6843, 1288.325
754.1664, 1289.109
754.6485, 1287.309
755.1306, 1284.809
755.6127, 1283.203
756.0948, 1282.843
756.5770, 1289.311
757.0591, 1305.595
757.5412, 1316.558
758.0233, 1316.826
758.5054, 1311.797
758.9875, 1305.234
759.4697, 1297.431
759.9518, 1292.960
760.4339, 1293.975
760.9160, 1295.429
761.3981, 1298.443
761.8802, 1299.743
762.3624, 1294.751
762.8445, 1285.894
763.3266, 1280.221
763.8087, 1281.084
764.2908, 1284.326
764.7729, 1287.306
765.2551, 1289.599
765.7372, 1291.080
766.2193, 1291.330
766.7014, 1286.753
767.1835, 1275.271
767.6656, 1264.799
768.1478, 1269.638
768.6299, 1290.382
769.1120, 1304.533
769.5941, 1311.908
770.0762, 1312.502
770.5583, 1301.478
771.0405, 1288.620
771.5226, 1285.692
772.0047, 1292.708
772.4868, 1302.049
772.9689, 1319.159
773.4510, 1331.133
773.9332, 1332.271
774.4153, 1328.589
774.8974, 1323.744
775.3795, 1319.028
775.8616, 1315.995
776.3438, 1315.480
776.8259, 1316.541
777.3080, 1318.799
777.7901, 1321.839
778.2722, 1326.565
778.7543, 1331.880
779.2365, 1330.557
779.7186, 1318.428
780.2007, 1305.225
780.6828, 1309.897
781.1649, 1333.145
781.6470, 1342.064
782.1292, 1331.864
782.6113, 1324.674
783.0934, 1329.916
783.5755, 1340.266
784.0576, 1346.617
784.5397, 1348.554
785.0219, 1352.257
785.5040, 1362.990
785.9861, 1368.438
786.4682, 1360.024
786.9503, 1350.222
787.4324, 1350.907
787.9146, 1359.622
788.3967, 1364.911
788.8788, 1361.290
789.3609, 1355.888
789.8430, 1351.939
790.3251, 1350.531
790.8073, 1354.138
791.2894, 1361.824
791.7715, 1369.848
792.2536, 1376.506
792.7357, 1383.241
793.2178, 1394.004
793.7000, 1407.470
794.1821, 1410.858
794.6642, 1402.770
795.1463, 1399.473
795.6284, 1408.071
796.1105, 1419.272
796.5927, 1422.095
797.0748, 1416.718
797.5569, 1414.089
798.0390, 1415.593
798.5211, 1417.759
799.0032, 1421.964
799.4854, 1425.022
799.9675, 1420.692
800.4496, 1413.940
800.9317, 1418.566
801.4138, 1442.088
801.8959, 1464.709
802.3781, 1476.508
802.8602, 1485.084
803.3423, 1497.917
803.8244, 1512.668
804.3065, 1521.561
804.7886, 1522.642
805.2708, 1527.055
805.7529, 1548.891
806.2350, 1580.281
806.7171, 1605.599
807.1992, 1625.031
807.6813, 1636.791
808.1635, 1640.287
808.6456, 1645.147
809.1277, 1659.657
809.6098, 1682.798
810.0919, 1711.907
810.5740, 1750.543
811.0562, 1781.673
811.5383, 1803.712
812.0204, 1817.927
812.5025, 1821.639
812.9846, 1819.188
813.4667, 1821.368
813.9489, 1832.099
814.4310, 1833.686
814.9131, 1816.729
815.3952, 1799.544
815.8773, 1785.498
816.3594, 1778.027
816.8416, 1782.739
817.3237, 1798.838
817.8058, 1816.205
818.2879, 1831.437
818.7700, 1843.762
819.2521, 1848.949
819.7343, 1852.546
820.2164, 1866.733
820.6985, 1889.453
821.1806, 1903.440
821.6627, 1898.062
822.1448, 1889.374
822.6270, 1904.849
823.1091, 1939.823
823.5912, 1967.093
824.0733, 1985.262
824.5554, 2007.001
825.0375, 2038.832
825.5197, 2070.009
826.0018, 2085.716
826.4839, 2086.107
826.9660, 2090.864
827.4481, 2103.107
827.9302, 2112.812
828.4124, 2117.773
828.8945, 2119.972
829.3766, 2119.663
829.8587, 2117.781
830.3408, 2117.718
830.8229, 2124.017
831.3051, 2123.116
831.7872, 2105.463
832.2693, 2087.275
832.7514, 2080.866
833.2335, 2079.250
833.7156, 2068.362
834.1978, 2045.890
834.6799, 2028.916
835.1620, 2033.812
835.6441, 2043.556
836.1262, 2041.964
836.6083, 2033.001
837.0905, 2023.768
837.5726, 2015.660
838.0547, 2006.567
838.5368, 1994.325
839.0189, 1983.724
839.5010, 1984.494
839.9832, 1994.827
840.4653, 2004.957
840.9474, 2014.074
841.4295, 2020.877
841.9116, 2024.056
842.3937, 2027.674
842.8759, 2038.458
843.3580, 2056.638
843.8401, 2068.793
844.3222, 2071.600
844.8043, 2076.816
845.2864, 2087.166
845.7686, 2100.536
846.2507, 2115.525
846.7328, 2132.216
847.2149, 2151.175
847.6970, 2176.105
848.1791, 2196.717
848.6613, 2207.518
849.1434, 2218.790
849.6255, 2234.443
850.1076, 2254.762
850.5897, 2282.924
851.0718, 2319.020
851.5540, 2346.867
852.0361, 2353.544
852.5182, 2355.185
853.0003, 2360.991
853.4824, 2370.162
853.9645, 2381.964
854.4467, 2395.735
854.9288, 2410.467
855.4109, 2426.072
855.8930, 2440.360
856.3751, 2446.105
856.8572, 2449.661
857.3394, 2469.515
857.8215, 2503.814
858.3036, 2536.974
858.7857, 2563.142
859.2678, 2576.342
859.7499, 2563.743
860.2321, 2534.174
860.7142, 2544.344
861.1963, 2599.614
861.6784, 2634.864
862.1605, 2633.259
862.6426, 2624.829
863.1248, 2629.449
863.6069, 2644.546
864.0890, 2662.406
864.5711, 2681.648
865.0532, 2708.540
865.5353, 2755.648
866.0175, 2792.228
866.4996, 2795.838
866.9817, 2790.647
867.4638, 2802.143
867.9459, 2830.006
868.4280, 2857.374
868.9102, 2880.673
869.3923, 2905.275
869.8744, 2936.108
870.3565, 2965.480
870.8386, 2985.633
871.3207, 3000.152
871.8029, 3017.916
872.2850, 3041.621
872.7671, 3067.193
873.2492, 3093.338
873.7313, 3119.763
874.2134, 3144.501
874.6956, 3170.265
875.1777, 3200.868
875.6598, 3237.568
876.1419, 3280.475
876.6240, 3330.577
877.1061, 3384.746
877.5883, 3443.619
878.0704, 3502.392
878.5525, 3544.817
879.0346, 3572.651
879.5167, 3606.726
879.9988, 3656.203
880.4810, 3708.134
880.9631, 3744.308
881.4452, 3767.877
881.9273, 3796.402
882.4094, 3829.806
882.8915, 3869.123
883.3737, 3917.740
883.8558, 3951.181
884.3379, 3946.511
884.8200, 3918.291
885.3021, 3912.733
885.7842, 3941.655
886.2664, 3949.344
886.7485, 3927.442
887.2306, 3900.424
887.7127, 3874.479
888.1948, 3850.853
888.6769, 3831.954
889.1591, 3817.840
889.6412, 3801.427
890.1233, 3777.016
890.6054, 3758.487
891.0875, 3755.029
891.5696, 3750.108
892.0518, 3725.148
892.5339, 3694.433
893.0160, 3688.222
893.4981, 3715.406
893.9802, 3737.382
894.4623, 3737.658
894.9445, 3736.122
895.4266, 3738.699
895.9087, 3747.881
896.3908, 3768.664
896.8729, 3798.587
897.3550, 3825.979
897.8372, 3840.623
898.3193, 3866.033
898.8014, 3924.121
899.2835, 3997.906
899.7656, 4070.077
900.2477, 4141.747
900.7299, 4218.163
901.2120, 4301.349
901.6941, 4391.685
902.1762, 4491.962
902.6583, 4597.444
903.1404, 4698.060
903.6226, 4799.741
904.1047, 4919.422
904.5868, 5057.352
905.0689, 5195.156
905.5510, 5322.657
906.0331, 5461.792
906.5153, 5659.605
906.9974, 5899.210
907.4795, 6081.802
907.9616, 6210.071
908.4437, 6354.344
908.9258, 6533.169
909.4080, 6725.221
909.8900, 6917.463
910.3721, 7103.569
910.8542, 7266.785
911.3364, 7406.790
911.8185, 7525.049
912.3006, 7620.527
912.7827, 7698.575
913.2648, 7763.587
913.7469, 7807.963
914.2291, 7825.571
914.7112, 7815.516
915.1933, 7760.654
915.6754, 7653.750
916.1575, 7518.504
916.6396, 7356.580
917.1218, 7168.347
917.6039, 6945.450
918.0860, 6700.934
918.5681, 6459.307
919.0502, 6217.747
919.5323, 5988.043
920.0145, 5780.295
920.4966, 5571.179
920.9787, 5349.906
921.4608, 5129.789
921.9429, 4919.466
922.4250, 4720.553
922.9072, 4537.345
923.3893, 4374.602
923.8714, 4218.171
924.3535, 4061.919
924.8356, 3914.918
925.3177, 3782.500
925.7999, 3660.995
926.2820, 3544.729
926.7641, 3433.479
927.2462, 3331.615
927.7283, 3241.940
928.2104, 3159.973
928.6926, 3087.672
929.1747, 3017.274
929.6568, 2935.446
930.1389, 2851.851
930.6210, 2789.339
931.1031, 2751.097
931.5853, 2710.161
932.0674, 2643.147
932.5495, 2572.151
933.0316, 2516.514
933.5137, 2471.057
933.9958, 2430.705
934.4780, 2393.006
934.9601, 2353.631
935.4422, 2310.692
935.9243, 2269.342
936.4064, 2233.805
936.8885, 2203.849
937.3707, 2179.908
937.8528, 2161.358
938.3349, 2148.980
938.8170, 2141.204
939.2991, 2129.182
939.7813, 2106.892
940.2634, 2083.075
940.7455, 2072.674
941.2276, 2070.751
941.7097, 2060.861
942.1918, 2044.046
942.6740, 2029.714
943.1561, 2020.483
943.6382, 2014.410
944.1203, 2010.324
944.6024, 2007.030
945.0845, 2000.893
945.5667, 1992.521
946.0488, 1989.869
946.5309, 1993.464
947.0130, 1989.234
947.4951, 1970.852
947.9772, 1951.626
948.4594, 1945.665
948.9415, 1951.323
949.4236, 1963.854
949.9057, 1984.480
950.3878, 1992.077
950.8699, 1981.422
951.3521, 1975.463
951.8342, 1986.480
952.3163, 2004.663
952.7984, 2015.568
953.2805, 2019.703
953.7626, 2030.669
954.2448, 2052.689
954.7269, 2062.250
955.2090, 2050.073
955.6911, 2040.122
956.1732, 2048.685
956.6553, 2066.716
957.1375, 2077.247
957.6196, 2079.756
958.1017, 2078.678
958.5838, 2072.560
959.0659, 2066.423
959.5480, 2062.043
960.0302, 2056.753
960.5123, 2047.423
960.9944, 2036.302
961.4765, 2029.823
961.9586, 2029.720
962.4407, 2028.050
962.9229, 2017.501
963.4050, 2017.621
963.8871, 2048.229
964.3692, 2076.507
964.8513, 2068.794
965.3334, 2034.446
965.8156, 2013.077
966.2977, 2008.234
966.7798, 2009.364
967.2619, 2016.682
967.7440, 2029.661
968.2261, 2049.560
968.7083, 2073.920
969.1904, 2099.719
969.6725, 2127.638
970.1546, 2162.236
970.6367, 2212.195
971.1188, 2254.544
971.6010, 2276.598
972.0831, 2303.035
972.5652, 2346.133
973.0473, 2398.594
973.5294, 2453.839
974.0115, 2510.539
974.4937, 2564.267
974.9758, 2614.325
975.4579, 2661.114
975.9400, 2709.458
976.4221, 2749.629
976.9042, 2771.313
977.3864, 2784.358
977.8685, 2807.480
978.3506, 2840.931
978.8327, 2852.234
979.3148, 2824.399
979.7969, 2787.233
980.2791, 2745.165
980.7612, 2700.489
981.2433, 2654.163
981.7254, 2606.506
982.2075, 2558.760
982.6896, 2511.000
983.1718, 2458.047
983.6539, 2388.756
984.1360, 2326.782
984.6181, 2290.476
985.1002, 2255.788
985.5823, 2197.518
986.0645, 2128.997
986.5466, 2077.023
987.0287, 2047.255
987.5108, 2020.144
987.9929, 1983.820
988.4750, 1954.855
988.9572, 1953.145
989.4393, 1950.795
989.9214, 1916.538
990.4035, 1864.091
990.8856, 1826.072
991.3677, 1810.051
991.8499, 1798.996
992.3320, 1783.558
992.8141, 1774.455
993.2962, 1785.211
993.7783, 1798.152
994.2604, 1795.052
994.7426, 1780.321
995.2247, 1767.942
995.7068, 1761.577
996.1889, 1754.943
996.6710, 1748.341
997.1531, 1737.110
997.6353, 1711.795
998.1174, 1686.151
998.5995, 1675.972
999.0816, 1676.896
999.5637, 1674.780
1000.046, 1665.839
1000.528, 1653.559
1001.010, 1631.182
1001.492, 1615.635
1001.974, 1624.427
1002.456, 1639.185
1002.939, 1638.947
1003.421, 1627.702
1003.903, 1622.781
1004.385, 1630.303
1004.867, 1633.421
1005.349, 1619.331
1005.831, 1604.677
1006.313, 1597.545
1006.795, 1596.309
1007.278, 1602.145
1007.760, 1611.623
1008.242, 1615.797
1008.724, 1611.015
1009.206, 1609.605
1009.688, 1622.153
1010.170, 1633.523
1010.652, 1631.262
1011.135, 1626.293
1011.617, 1630.321
1012.099, 1641.878
1012.581, 1654.541
1013.063, 1667.330
1013.545, 1676.120
1014.027, 1673.951
1014.509, 1673.713
1014.991, 1683.692
1015.474, 1697.992
1015.956, 1712.948
1016.438, 1726.461
1016.920, 1734.680
1017.402, 1736.204
1017.884, 1735.890
1018.366, 1734.697
1018.848, 1733.095
1019.331, 1733.255
1019.813, 1731.498
1020.295, 1719.926
1020.777, 1704.350
1021.259, 1701.991
1021.741, 1719.570
1022.223, 1728.514
1022.705, 1708.462
1023.187, 1692.609
1023.670, 1699.717
1024.152, 1712.859
1024.634, 1712.154
1025.116, 1706.524
1025.598, 1721.667
1026.080, 1765.618
1026.562, 1803.155
1027.044, 1826.475
1027.526, 1841.782
1028.009, 1844.498
1028.491, 1846.368
1028.973, 1854.193
1029.455, 1868.728
1029.937, 1893.491
1030.419, 1931.878
1030.901, 1956.987
1031.383, 1949.770
1031.866, 1949.096
1032.348, 1964.937
1032.830, 1990.877
1033.312, 2030.069
1033.794, 2073.423
1034.276, 2103.297
1034.758, 2116.960
1035.240, 2131.967
1035.723, 2151.502
1036.205, 2169.905
1036.687, 2188.498
1037.169, 2203.547
1037.651, 2209.880
1038.133, 2212.639
1038.615, 2222.276
1039.097, 2240.140
1039.579, 2247.794
1040.062, 2235.498
1040.544, 2229.467
1041.026, 2242.866
1041.508, 2248.343
1041.990, 2226.052
1042.472, 2193.157
1042.954, 2174.120
1043.436, 2168.700
1043.918, 2159.274
1044.401, 2144.279
1044.883, 2128.928
1045.365, 2113.752
1045.847, 2098.115
1046.329, 2081.429
1046.811, 2064.806
1047.293, 2049.230
1047.775, 2034.903
1048.258, 2023.313
1048.740, 2015.563
1049.222, 2006.096
1049.704, 1992.924
1050.186, 1983.420
1050.668, 1980.390
1051.150, 1982.322
1051.632, 1988.401
1052.115, 1997.387
1052.597, 2003.721
1053.079, 2006.798
1053.561, 2015.148
1054.043, 2031.308
1054.525, 2032.953
1055.007, 2009.665
1055.489, 1991.178
1055.971, 2004.795
1056.453, 2038.501
1056.936, 2064.052
1057.418, 2081.532
1057.900, 2093.333
1058.382, 2099.612
1058.864, 2105.817
1059.346, 2113.343
1059.828, 2115.545
1060.310, 2107.524
1060.793, 2092.973
1061.275, 2078.136
1061.757, 2062.293
1062.239, 2038.261
1062.721, 2009.617
1063.203, 2001.836
1063.685, 2015.794
1064.167, 2015.863
1064.650, 1981.962
1065.132, 1941.058
1065.614, 1927.796
1066.096, 1930.770
1066.578, 1928.415
1067.060, 1922.420
1067.542, 1915.865
1068.024, 1909.936
1068.506, 1905.244
1068.989, 1902.339
1069.471, 1907.322
1069.953, 1933.234
1070.435, 1960.835
1070.917, 1962.248
1071.399, 1953.882
1071.881, 1958.201
1072.363, 1974.616
1072.845, 1994.471
1073.328, 2015.738
1073.810, 2043.595
1074.292, 2083.242
1074.774, 2126.828
1075.256, 2173.038
1075.738, 2216.391
1076.220, 2244.275
1076.702, 2269.221
1077.184, 2311.805
1077.667, 2373.222
1078.149, 2439.916
1078.631, 2510.976
1079.113, 2577.419
1079.595, 2625.884
1080.077, 2679.819
1080.559, 2758.728
1081.041, 2845.283
1081.524, 2924.345
1082.006, 2993.954
1082.488, 3054.026
1082.970, 3103.701
1083.452, 3145.681
1083.934, 3192.689
1084.416, 3215.291
1084.898, 3207.802
1085.380, 3170.149
1085.863, 3090.000
1086.345, 2984.454
1086.827, 2890.107
1087.309, 2809.479
1087.791, 2720.281
1088.273, 2614.927
1088.755, 2516.867
1089.237, 2434.783
1089.719, 2347.743
1090.202, 2239.338
1090.684, 2129.337
1091.166, 2046.544
1091.648, 1988.733
1092.130, 1939.886
1092.612, 1901.451
1093.094, 1859.311
1093.576, 1810.622
1094.059, 1772.318
1094.541, 1751.567
1095.023, 1735.586
1095.505, 1712.145
1095.987, 1684.286
1096.469, 1657.966
1096.951, 1633.758
1097.433, 1616.241
1097.916, 1604.705
1098.398, 1592.636
1098.880, 1578.734
1099.362, 1567.570
1099.844, 1562.265
1100.326, 1558.577
1100.808, 1550.226
1101.290, 1540.029
1101.772, 1536.024
1102.255, 1533.535
1102.737, 1517.939
1103.219, 1492.677
1103.701, 1478.425
1104.183, 1482.608
1104.665, 1486.914
1105.147, 1472.680
1105.629, 1458.136
1106.111, 1463.321
1106.594, 1473.058
1107.076, 1470.555
1107.558, 1459.599
1108.040, 1449.071
1108.522, 1440.911
1109.004, 1434.317
1109.486, 1429.051
1109.968, 1425.126
1110.451, 1423.210
1110.933, 1421.864
1111.415, 1424.513
1111.897, 1424.108
1112.379, 1408.474
1112.861, 1382.797
1113.343, 1369.106
1113.825, 1373.627
1114.307, 1376.375
1114.790, 1374.364
1115.272, 1374.715
1115.754, 1381.786
1116.236, 1387.151
1116.718, 1385.425
1117.200, 1378.806
1117.682, 1370.585
1118.164, 1360.829
1118.646, 1351.930
1119.129, 1342.651
1119.611, 1343.996
1120.093, 1360.171
1120.575, 1364.596
1121.057, 1344.776
1121.539, 1320.678
1122.021, 1311.896
1122.503, 1315.549
1122.986, 1328.779
1123.468, 1348.104
1123.950, 1354.464
1124.432, 1349.011
1124.914, 1341.999
1125.396, 1336.192
1125.878, 1331.584
1126.360, 1328.306
1126.843, 1325.167
1127.325, 1318.912
1127.807, 1313.612
1128.289, 1318.261
1128.771, 1325.948
1129.253, 1324.999
1129.735, 1316.587
1130.217, 1306.200
1130.699, 1295.897
1131.182, 1290.426
1131.664, 1298.319
1132.146, 1302.664
1132.628, 1285.275
1133.110, 1271.132
1133.592, 1290.494
1134.074, 1316.544
1134.556, 1307.682
1135.038, 1268.924
1135.521, 1244.799
1136.003, 1245.435
1136.485, 1250.078
1136.967, 1260.899
1137.449, 1270.313
1137.931, 1277.619
1138.413, 1281.717
1138.895, 1281.903
1139.378, 1278.177
1139.860, 1268.785
1140.342, 1254.089
1140.824, 1254.636
1141.306, 1274.852
1141.788, 1273.390
1142.270, 1243.019
1142.752, 1220.372
1143.234, 1220.275
1143.717, 1228.938
1144.199, 1234.428
1144.681, 1236.465
1145.163, 1231.118
1145.645, 1222.534
1146.127, 1229.189
1146.609, 1244.493
1147.091, 1240.575
1147.573, 1217.018
1148.056, 1200.673
1148.538, 1204.458
1149.020, 1212.740
1149.502, 1213.445
1149.984, 1211.028
1150.466, 1206.435
1150.948, 1203.679
1151.430, 1209.875
1151.913, 1220.250
1152.395, 1226.026
1152.877, 1225.656
1153.359, 1220.695
1153.841, 1205.442
1154.323, 1197.575
1154.805, 1207.809
1155.287, 1217.886
1155.770, 1219.518
1156.252, 1218.526
1156.734, 1221.830
1157.216, 1225.445
1157.698, 1218.645
1158.180, 1199.795
1158.662, 1187.640
1159.144, 1182.928
1159.626, 1182.947
1160.109, 1188.833
1160.591, 1190.190
1161.073, 1181.131
1161.555, 1174.988
1162.037, 1188.464
1162.519, 1209.155
1163.001, 1201.159
1163.483, 1173.957
1163.965, 1165.256
1164.448, 1172.261
1164.930, 1177.610
1165.412, 1177.823
1165.894, 1177.113
1166.376, 1177.599
1166.858, 1176.808
1167.340, 1170.425
1167.822, 1164.167
1168.305, 1166.485
1168.787, 1169.034
1169.269, 1161.057
1169.751, 1147.057
1170.233, 1132.758
1170.715, 1120.999
1171.197, 1124.868
1171.679, 1164.552
1172.161, 1184.355
1172.644, 1156.822
1173.126, 1132.045
1173.608, 1127.283
1174.090, 1129.028
1174.572, 1128.866
1175.054, 1127.926
1175.536, 1128.506
1176.018, 1130.565
1176.500, 1131.798
1176.983, 1132.126
1177.465, 1132.371
1177.947, 1132.613
1178.429, 1133.363
1178.911, 1134.844
1179.393, 1133.721
1179.875, 1126.645
1180.357, 1117.906
1180.840, 1113.237
1181.322, 1112.753
1181.804, 1120.263
1182.286, 1130.656
1182.768, 1131.607
1183.250, 1124.673
1183.732, 1121.230
1184.214, 1124.732
1184.697, 1124.927
1185.179, 1110.807
1185.661, 1099.817
1186.143, 1102.886
1186.625, 1108.911
1187.107, 1112.288
1187.589, 1113.271
1188.071, 1112.984
1188.553, 1110.953
1189.036, 1104.526
1189.518, 1091.501
1190.000, 1084.658
1190.482, 1085.361
1190.964, 1089.137
1191.446, 1097.051
1191.928, 1101.689
1192.410, 1099.799
1192.892, 1090.744
1193.375, 1071.539
1193.857, 1049.597
1194.339, 1046.418
1194.821, 1057.243
1195.303, 1065.268
1195.785, 1070.113
1196.267, 1072.906
1196.749, 1074.348
1197.232, 1076.211
1197.714, 1079.272
1198.196, 1081.622
1198.678, 1084.607
1199.160, 1082.866
1199.642, 1070.339
1200.124, 1053.746
1200.606, 1032.924
1201.089, 1015.796
1201.571, 1016.644
1202.053, 1031.819
1202.535, 1037.369
1203.017, 1024.761
1203.499, 1021.480
1203.981, 1034.162
1204.463, 1041.856
1204.945, 1040.850
1205.427, 1033.335
1205.910, 1017.753
1206.392, 1005.783
1206.874, 1013.833
1207.356, 1032.274
1207.838, 1027.642
1208.320, 1006.627
1208.802, 1003.164
1209.284, 1014.235
1209.767, 1021.478
1210.249, 1021.932
1210.731, 1021.816
1211.213, 1023.902
1211.695, 1027.233
1212.177, 1032.322
1212.659, 1036.845
1213.141, 1038.875
1213.624, 1039.899
1214.106, 1043.136
1214.588, 1044.842
1215.070, 1036.473
1215.552, 1021.371
1216.034, 1017.496
1216.516, 1031.706
1216.998, 1035.882
1217.480, 1026.154
1217.963, 1015.264
1218.445, 1002.850
1218.927, 997.3542
1219.409, 1003.332
1219.891, 1015.611
1220.373, 1030.470
1220.855, 1043.036
1221.337, 1038.517
1221.819, 1022.585
1222.302, 1012.655
1222.784, 1008.307
1223.266, 1007.092
1223.748, 1008.151
1224.230, 1011.445
1224.712, 1016.673
1225.194, 1018.952
1225.676, 1012.921
1226.159, 1007.296
1226.641, 1006.114
1227.123, 1007.382
1227.605, 1013.645
1228.087, 1018.567
1228.569, 1012.864
1229.051, 1001.376
1229.533, 997.0535
1230.016, 1000.385
1230.498, 1001.930
1230.980, 1001.185
1231.462, 1001.720
1231.944, 1004.211
1232.426, 1004.560
1232.908, 1001.382
1233.390, 995.1932
1233.872, 986.0347
1234.354, 976.4816
1234.837, 969.8536
1235.319, 965.4932
1235.801, 961.9532
1236.283, 960.0283
1236.765, 962.9023
1237.247, 967.8225
1237.729, 968.6849
1238.211, 964.6066
1238.694, 958.1265
1239.176, 944.5378
1239.658, 942.8853
1240.140, 972.6857
1240.622, 992.4103
1241.104, 986.7376
1241.586, 975.1775
1242.068, 965.8513
1242.551, 961.2765
1243.033, 965.6126
1243.515, 976.5436
1243.997, 986.9760
1244.479, 996.0833
1244.961, 994.1888
1245.443, 983.0816
1245.925, 973.7968
1246.407, 968.3058
1246.890, 963.1804
1247.372, 957.1739
1247.854, 955.8535
1248.336, 968.5397
1248.818, 978.6608
1249.300, 968.1082
1249.782, 957.7984
1250.264, 965.7794
1250.746, 980.5915
1251.229, 992.0169
1251.711, 997.9374
1252.193, 994.4745
1252.675, 981.1381
1253.157, 968.1287
1253.639, 954.2323
1254.121, 946.1879
1254.603, 944.7657
1255.086, 947.6295
1255.568, 954.1334
1256.050, 961.2634
1256.532, 967.2108
1257.014, 969.9875
##END=



