##NAMES=Erionite-Na
##RRUFFID=R061126
##IDEAL CHEMISTRY=Na_10_(Si_26_Al_10_O_72_)&#183;30H_2_O
##LOCALITY=Dunseverick, Ireland
##OWNER=RRUFF
##SOURCE=Michael Scott
##DESCRIPTION=Colorless prismatic crystals frozen in basalt nodules with chabazite
##STATUS=The identification of this mineral is confirmed by single-crystal X-ray diffraction and chemical analysis.
##URL=rruff.info/R061126
##MEASURED CHEMISTRY=(Na_5.05_K_2.42_Ca_1.08_[box]_1.05_Mg_0.40_)_Σ=10_(Si_25.57_Al_10.43_)_Σ=36_O_72_·22.80H_2_O; H_2_O estimated by difference
165.6094, 8725.715
166.0915, 8751.541
166.5736, 8782.766
167.0558, 8823.037
167.5379, 8863.917
168.0200, 8902.476
168.5021, 8937.776
168.9842, 8965.222
169.4663, 8977.588
169.9485, 8981.963
170.4306, 8986.689
170.9127, 8995.116
171.3948, 9003.986
171.8769, 9008.100
172.3590, 9008.192
172.8412, 9012.159
173.3233, 9031.988
173.8054, 9059.089
174.2875, 9078.863
174.7696, 9079.438
175.2517, 9072.459
175.7339, 9070.490
176.2160, 9073.448
176.6981, 9083.222
177.1802, 9110.652
177.6623, 9147.926
178.1444, 9173.351
178.6266, 9167.405
179.1087, 9145.456
179.5908, 9135.273
180.0729, 9138.933
180.5550, 9149.536
181.0371, 9161.208
181.5193, 9173.714
182.0014, 9185.378
182.4835, 9193.465
182.9656, 9200.012
183.4477, 9210.983
183.9298, 9227.397
184.4120, 9247.080
184.8941, 9268.827
185.3762, 9292.418
185.8583, 9312.701
186.3404, 9323.005
186.8225, 9326.165
187.3047, 9335.125
187.7868, 9351.413
188.2689, 9374.785
188.7510, 9408.090
189.2331, 9451.491
189.7152, 9494.012
190.1974, 9533.521
190.6795, 9568.029
191.1616, 9576.271
191.6437, 9543.572
192.1258, 9486.845
192.6080, 9458.636
193.0901, 9460.737
193.5722, 9475.978
194.0543, 9488.485
194.5364, 9498.254
195.0185, 9516.623
195.5007, 9551.882
195.9828, 9598.672
196.4649, 9625.693
196.9470, 9630.537
197.4291, 9625.534
197.9112, 9623.395
198.3934, 9624.372
198.8755, 9625.086
199.3576, 9621.624
199.8397, 9614.938
200.3218, 9624.297
200.8039, 9654.741
201.2861, 9690.627
201.7682, 9710.352
202.2503, 9711.609
202.7324, 9708.886
203.2145, 9703.930
203.6966, 9695.804
204.1788, 9702.867
204.6609, 9730.651
205.1430, 9765.903
205.6251, 9785.180
206.1072, 9784.382
206.5893, 9782.112
207.0715, 9784.892
207.5536, 9792.456
208.0357, 9807.479
208.5178, 9833.353
208.9999, 9863.864
209.4820, 9886.199
209.9642, 9898.748
210.4463, 9907.341
210.9284, 9913.292
211.4105, 9914.513
211.8926, 9922.396
212.3747, 9941.861
212.8569, 9966.247
213.3390, 9975.036
213.8211, 9961.023
214.3032, 9946.347
214.7853, 9943.803
215.2674, 9957.044
215.7496, 9970.985
216.2317, 9985.229
216.7138, 9999.396
217.1959, 10011.35
217.6780, 10018.53
218.1601, 10028.08
218.6423, 10045.28
219.1244, 10073.96
219.6065, 10101.18
220.0886, 10129.14
220.5707, 10155.79
221.0528, 10164.08
221.5350, 10143.62
222.0171, 10120.11
222.4992, 10112.71
222.9813, 10128.57
223.4634, 10143.89
223.9455, 10154.54
224.4277, 10161.36
224.9098, 10174.01
225.3919, 10198.39
225.8740, 10221.57
226.3561, 10231.19
226.8382, 10216.19
227.3204, 10210.65
227.8025, 10221.44
228.2846, 10248.22
228.7667, 10278.50
229.2488, 10318.86
229.7310, 10354.85
230.2131, 10371.89
230.6952, 10359.43
231.1773, 10347.95
231.6594, 10341.94
232.1415, 10341.48
232.6237, 10346.86
233.1058, 10362.45
233.5879, 10379.73
234.0700, 10389.23
234.5521, 10385.30
235.0342, 10383.74
235.5164, 10386.01
235.9985, 10391.31
236.4806, 10410.90
236.9627, 10456.14
237.4448, 10505.37
237.9269, 10533.11
238.4091, 10527.87
238.8912, 10520.86
239.3733, 10521.00
239.8554, 10530.78
240.3375, 10527.88
240.8196, 10500.94
241.3018, 10470.26
241.7839, 10462.93
242.2660, 10494.47
242.7481, 10522.07
243.2302, 10534.74
243.7123, 10530.73
244.1945, 10519.53
244.6766, 10487.41
245.1587, 10458.35
245.6408, 10469.95
246.1229, 10553.38
246.6050, 10622.11
247.0872, 10646.72
247.5693, 10615.15
248.0514, 10599.34
248.5335, 10606.11
249.0156, 10623.94
249.4977, 10634.43
249.9799, 10629.75
250.4620, 10632.31
250.9441, 10651.88
251.4262, 10694.72
251.9083, 10725.64
252.3904, 10740.93
252.8726, 10746.65
253.3547, 10752.49
253.8368, 10761.12
254.3189, 10764.58
254.8010, 10756.48
255.2831, 10729.70
255.7653, 10725.49
256.2474, 10755.40
256.7295, 10799.32
257.2116, 10821.88
257.6937, 10812.38
258.1758, 10804.21
258.6580, 10812.32
259.1401, 10844.15
259.6222, 10854.32
260.1043, 10832.60
260.5864, 10797.36
261.0685, 10780.04
261.5507, 10783.87
262.0328, 10798.29
262.5149, 10823.51
262.9970, 10864.33
263.4791, 10888.74
263.9612, 10886.94
264.4434, 10878.14
264.9255, 10902.17
265.4076, 10978.79
265.8897, 11034.24
266.3718, 11030.52
266.8539, 10952.72
267.3361, 10915.57
267.8182, 10932.07
268.3003, 10975.43
268.7824, 11000.55
269.2645, 11000.40
269.7466, 11003.94
270.2288, 11027.60
270.7109, 11076.06
271.1930, 11098.81
271.6751, 11089.16
272.1572, 11063.00
272.6393, 11043.08
273.1215, 11028.21
273.6036, 11024.88
274.0857, 11041.06
274.5678, 11078.52
275.0499, 11100.52
275.5320, 11103.23
276.0142, 11097.20
276.4963, 11098.08
276.9784, 11106.43
277.4605, 11118.60
277.9426, 11135.69
278.4247, 11157.53
278.9069, 11172.42
279.3890, 11179.68
279.8711, 11181.17
280.3532, 11174.76
280.8354, 11158.86
281.3175, 11154.21
281.7996, 11173.28
282.2817, 11213.91
282.7638, 11251.84
283.2459, 11288.54
283.7281, 11318.16
284.2102, 11329.70
284.6923, 11323.10
285.1744, 11315.20
285.6565, 11312.12
286.1386, 11313.26
286.6208, 11315.29
287.1029, 11317.94
287.5850, 11322.58
288.0671, 11329.75
288.5492, 11339.69
289.0313, 11355.56
289.5135, 11384.51
289.9956, 11420.65
290.4777, 11442.06
290.9598, 11447.94
291.4419, 11446.04
291.9240, 11442.76
292.4062, 11438.39
292.8883, 11434.39
293.3704, 11425.85
293.8525, 11419.22
294.3346, 11435.55
294.8167, 11476.21
295.2989, 11517.59
295.7810, 11533.73
296.2631, 11530.42
296.7452, 11527.02
297.2273, 11527.31
297.7094, 11533.15
298.1916, 11551.18
298.6737, 11581.18
299.1558, 11611.09
299.6379, 11615.70
300.1200, 11611.96
300.6021, 11641.62
301.0843, 11758.81
301.5664, 11886.26
302.0485, 11910.85
302.5306, 11839.42
303.0127, 11757.79
303.4948, 11727.51
303.9770, 11730.73
304.4591, 11738.22
304.9412, 11741.03
305.4233, 11744.52
305.9054, 11755.15
306.3875, 11771.89
306.8697, 11788.60
307.3518, 11800.67
307.8339, 11810.48
308.3160, 11819.93
308.7981, 11824.59
309.2802, 11835.46
309.7624, 11868.42
310.2445, 11917.49
310.7266, 11957.11
311.2087, 11968.89
311.6908, 11967.34
312.1729, 11965.45
312.6551, 11965.53
313.1372, 11966.88
313.6193, 11970.05
314.1014, 11974.37
314.5835, 11977.71
315.0656, 11977.34
315.5478, 11976.83
316.0299, 11977.63
316.5120, 11976.24
316.9941, 11983.58
317.4762, 12010.40
317.9583, 12048.83
318.4405, 12082.11
318.9226, 12103.69
319.4047, 12119.33
319.8868, 12129.43
320.3689, 12126.94
320.8510, 12136.23
321.3332, 12182.04
321.8153, 12240.76
322.2974, 12271.99
322.7795, 12239.32
323.2616, 12202.90
323.7437, 12181.40
324.2259, 12175.34
324.7080, 12186.92
325.1901, 12237.88
325.6722, 12301.14
326.1543, 12339.20
326.6364, 12314.74
327.1186, 12300.32
327.6007, 12320.31
328.0828, 12388.78
328.5649, 12425.10
329.0470, 12401.82
329.5291, 12360.83
330.0113, 12346.90
330.4934, 12382.47
330.9755, 12412.92
331.4576, 12425.54
331.9397, 12419.20
332.4218, 12420.62
332.9040, 12431.75
333.3861, 12448.74
333.8682, 12469.96
334.3503, 12501.65
334.8324, 12522.80
335.3145, 12526.25
335.7967, 12514.93
336.2788, 12513.79
336.7609, 12525.74
337.2430, 12542.27
337.7251, 12557.64
338.2072, 12572.45
338.6894, 12583.60
339.1715, 12589.21
339.6536, 12591.70
340.1357, 12601.27
340.6178, 12620.58
341.0999, 12635.71
341.5821, 12636.35
342.0642, 12622.51
342.5463, 12605.51
343.0284, 12583.22
343.5105, 12563.50
343.9926, 12567.38
344.4748, 12595.00
344.9569, 12620.14
345.4390, 12623.28
345.9211, 12609.88
346.4032, 12606.08
346.8853, 12614.63
347.3675, 12628.39
347.8496, 12635.95
348.3317, 12639.18
348.8138, 12647.77
349.2959, 12676.04
349.7780, 12710.66
350.2602, 12722.44
350.7423, 12708.53
351.2244, 12691.65
351.7065, 12698.68
352.1887, 12719.63
352.6708, 12731.78
353.1529, 12720.81
353.6350, 12699.23
354.1171, 12671.93
354.5992, 12639.89
355.0814, 12626.20
355.5635, 12669.51
356.0456, 12734.43
356.5277, 12774.04
357.0098, 12746.43
357.4919, 12715.98
357.9741, 12738.26
358.4562, 12800.28
358.9383, 12838.48
359.4204, 12790.75
359.9025, 12722.10
360.3846, 12685.59
360.8668, 12710.18
361.3489, 12742.23
361.8310, 12764.97
362.3131, 12780.10
362.7952, 12791.66
363.2773, 12794.94
363.7595, 12799.33
364.2416, 12811.48
364.7237, 12840.89
365.2058, 12857.66
365.6879, 12841.64
366.1700, 12812.65
366.6522, 12802.96
367.1343, 12837.64
367.6164, 12871.01
368.0985, 12888.89
368.5806, 12885.95
369.0627, 12890.78
369.5449, 12914.05
370.0270, 12938.86
370.5091, 12946.77
370.9912, 12922.30
371.4733, 12905.58
371.9554, 12904.04
372.4376, 12917.41
372.9197, 12942.38
373.4018, 12993.06
373.8839, 13034.32
374.3660, 13029.40
374.8481, 12958.60
375.3303, 12919.04
375.8124, 12933.24
376.2945, 12983.89
376.7766, 13010.77
377.2587, 13009.21
377.7408, 13002.52
378.2230, 13007.39
378.7051, 13023.50
379.1872, 13028.12
379.6693, 13015.57
380.1514, 12998.53
380.6335, 12998.81
381.1157, 13016.01
381.5978, 13040.85
382.0799, 13077.22
382.5620, 13117.88
383.0441, 13136.88
383.5262, 13131.30
384.0084, 13120.47
384.4905, 13124.36
384.9726, 13139.97
385.4547, 13158.08
385.9368, 13181.09
386.4189, 13201.57
386.9011, 13205.82
387.3832, 13195.04
387.8653, 13187.37
388.3474, 13199.33
388.8295, 13221.24
389.3116, 13240.12
389.7938, 13247.36
390.2759, 13256.47
390.7580, 13283.03
391.2401, 13320.71
391.7222, 13346.78
392.2043, 13339.10
392.6865, 13323.50
393.1686, 13319.01
393.6507, 13337.58
394.1328, 13348.31
394.6149, 13328.56
395.0970, 13296.28
395.5792, 13282.92
396.0613, 13305.70
396.5434, 13339.01
397.0255, 13380.81
397.5076, 13437.58
397.9897, 13471.06
398.4719, 13458.67
398.9540, 13431.36
399.4361, 13419.00
399.9182, 13437.71
400.4003, 13449.08
400.8824, 13440.46
401.3646, 13413.97
401.8467, 13412.65
402.3288, 13449.86
402.8109, 13492.99
403.2930, 13517.92
403.7751, 13516.60
404.2573, 13526.68
404.7394, 13557.29
405.2215, 13597.51
405.7036, 13613.75
406.1857, 13600.80
406.6678, 13591.57
407.1500, 13612.59
407.6321, 13661.17
408.1142, 13673.00
408.5963, 13638.41
409.0784, 13592.90
409.5605, 13586.08
410.0427, 13613.80
410.5248, 13643.95
411.0069, 13665.19
411.4890, 13680.56
411.9711, 13695.92
412.4532, 13711.31
412.9354, 13725.68
413.4175, 13732.58
413.8996, 13738.51
414.3817, 13757.13
414.8638, 13804.70
415.3459, 13848.19
415.8281, 13846.09
416.3102, 13811.32
416.7923, 13787.93
417.2744, 13813.31
417.7565, 13852.46
418.2386, 13878.76
418.7208, 13887.28
419.2029, 13886.39
419.6850, 13863.53
420.1671, 13837.00
420.6492, 13833.68
421.1313, 13887.79
421.6135, 13941.56
422.0956, 13976.96
422.5777, 13991.74
423.0598, 13999.24
423.5420, 13984.83
424.0241, 13972.88
424.5062, 13982.45
424.9883, 14034.27
425.4704, 14079.39
425.9525, 14117.93
426.4347, 14147.79
426.9168, 14157.98
427.3989, 14135.58
427.8810, 14114.41
428.3631, 14111.30
428.8452, 14129.24
429.3274, 14155.67
429.8095, 14197.24
430.2916, 14237.39
430.7737, 14238.86
431.2558, 14195.97
431.7379, 14174.58
432.2201, 14211.95
432.7022, 14292.13
433.1843, 14331.48
433.6664, 14326.12
434.1485, 14315.84
434.6306, 14340.36
435.1128, 14391.01
435.5949, 14438.85
436.0770, 14476.61
436.5591, 14509.12
437.0412, 14540.77
437.5233, 14571.71
438.0055, 14601.91
438.4876, 14627.11
438.9697, 14653.76
439.4518, 14692.63
439.9339, 14749.60
440.4160, 14797.53
440.8982, 14807.75
441.3803, 14800.63
441.8624, 14806.26
442.3445, 14833.07
442.8266, 14876.90
443.3087, 14944.40
443.7909, 15035.01
444.2730, 15115.33
444.7551, 15168.14
445.2372, 15214.49
445.7193, 15268.81
446.2014, 15348.94
446.6836, 15416.28
447.1657, 15454.39
447.6478, 15479.66
448.1299, 15538.83
448.6120, 15655.79
449.0941, 15771.10
449.5763, 15862.12
450.0584, 15926.71
450.5405, 15984.38
451.0226, 16034.13
451.5047, 16079.35
451.9868, 16119.60
452.4690, 16152.16
452.9511, 16206.12
453.4332, 16297.28
453.9153, 16410.65
454.3974, 16491.91
454.8795, 16540.87
455.3617, 16584.27
455.8438, 16647.21
456.3259, 16720.57
456.8080, 16776.21
457.2901, 16805.51
457.7722, 16830.03
458.2544, 16875.04
458.7365, 16934.55
459.2186, 16991.74
459.7007, 17051.53
460.1828, 17097.74
460.6649, 17103.25
461.1471, 17068.91
461.6292, 17050.07
462.1113, 17089.14
462.5934, 17151.68
463.0755, 17206.35
463.5576, 17252.90
464.0398, 17282.06
464.5219, 17277.79
465.0040, 17252.53
465.4861, 17242.41
465.9682, 17260.80
466.4503, 17288.49
466.9325, 17321.02
467.4146, 17361.56
467.8967, 17395.98
468.3788, 17432.00
468.8609, 17455.93
469.3430, 17445.97
469.8252, 17378.06
470.3073, 17338.75
470.7894, 17348.53
471.2715, 17399.08
471.7536, 17455.33
472.2357, 17519.75
472.7179, 17578.49
473.2000, 17621.86
473.6821, 17650.69
474.1642, 17673.13
474.6463, 17689.22
475.1284, 17700.94
475.6106, 17701.76
476.0927, 17697.64
476.5748, 17713.00
477.0569, 17773.63
477.5390, 17851.51
478.0211, 17917.27
478.5033, 17970.02
478.9854, 17999.42
479.4675, 17983.34
479.9496, 17946.94
480.4317, 17914.83
480.9138, 17891.70
481.3960, 17876.07
481.8781, 17874.33
482.3602, 17879.21
482.8423, 17876.26
483.3244, 17870.31
483.8065, 17847.85
484.2887, 17799.60
484.7708, 17721.26
485.2529, 17645.18
485.7350, 17575.31
486.2171, 17505.57
486.6992, 17430.38
487.1814, 17345.15
487.6635, 17266.34
488.1456, 17199.76
488.6277, 17138.79
489.1098, 17059.48
489.5919, 16953.83
490.0741, 16858.13
490.5562, 16796.14
491.0383, 16764.71
491.5204, 16708.44
492.0026, 16623.06
492.4847, 16531.77
492.9668, 16457.07
493.4489, 16397.44
493.9310, 16347.18
494.4131, 16310.68
494.8953, 16275.72
495.3774, 16224.52
495.8595, 16159.91
496.3416, 16097.50
496.8237, 16032.81
497.3058, 15981.17
497.7880, 15966.24
498.2701, 15999.85
498.7522, 16013.46
499.2343, 15953.28
499.7164, 15863.57
500.1985, 15792.55
500.6807, 15764.10
501.1628, 15744.80
501.6449, 15729.46
502.1270, 15717.83
502.6091, 15708.63
503.0912, 15711.47
503.5734, 15706.31
504.0555, 15679.14
504.5376, 15614.67
505.0197, 15586.11
505.5018, 15606.50
505.9839, 15646.86
506.4661, 15670.90
506.9482, 15677.55
507.4303, 15677.17
507.9124, 15672.71
508.3945, 15662.72
508.8766, 15638.12
509.3588, 15599.12
509.8409, 15565.31
510.3230, 15553.55
510.8051, 15556.24
511.2872, 15555.97
511.7693, 15549.80
512.2515, 15547.25
512.7336, 15563.77
513.2157, 15588.73
513.6978, 15604.27
514.1799, 15592.51
514.6620, 15578.98
515.1442, 15578.45
515.6263, 15589.14
516.1084, 15600.63
516.5905, 15606.02
517.0726, 15613.96
517.5547, 15632.52
518.0369, 15679.24
518.5190, 15696.52
519.0011, 15654.29
519.4832, 15596.89
519.9653, 15578.96
520.4474, 15621.51
520.9296, 15661.79
521.4117, 15691.97
521.8938, 15710.87
522.3759, 15705.79
522.8580, 15669.01
523.3401, 15640.81
523.8223, 15657.34
524.3044, 15710.66
524.7865, 15730.42
525.2686, 15707.07
525.7507, 15678.86
526.2328, 15701.00
526.7150, 15755.42
527.1971, 15791.10
527.6792, 15777.97
528.1613, 15750.67
528.6434, 15741.60
529.1255, 15747.86
529.6077, 15757.28
530.0898, 15764.35
530.5719, 15771.77
531.0540, 15780.50
531.5361, 15789.46
532.0182, 15804.72
532.5004, 15839.96
532.9825, 15877.00
533.4646, 15896.07
533.9467, 15882.21
534.4288, 15867.39
534.9109, 15846.53
535.3931, 15826.55
535.8752, 15837.49
536.3573, 15892.56
536.8394, 15948.33
537.3215, 15987.28
537.8036, 16009.02
538.2858, 16016.80
538.7679, 16006.83
539.2500, 15998.45
539.7321, 16022.15
540.2142, 16068.88
540.6964, 16092.50
541.1785, 16072.82
541.6606, 16042.08
542.1427, 16036.05
542.6248, 16053.72
543.1069, 16091.72
543.5891, 16180.62
544.0712, 16266.60
544.5533, 16296.89
545.0354, 16267.14
545.5175, 16245.81
545.9996, 16268.05
546.4818, 16306.19
546.9639, 16338.35
547.4460, 16352.23
547.9281, 16371.43
548.4102, 16400.57
548.8923, 16435.56
549.3745, 16468.88
549.8566, 16499.63
550.3387, 16530.07
550.8208, 16558.59
551.3029, 16586.25
551.7850, 16632.42
552.2672, 16704.79
552.7493, 16763.97
553.2314, 16771.83
553.7135, 16735.86
554.1956, 16700.32
554.6777, 16665.95
555.1599, 16647.86
555.6420, 16677.12
556.1241, 16738.00
556.6062, 16791.92
557.0883, 16828.97
557.5704, 16847.21
558.0526, 16830.86
558.5347, 16788.92
559.0168, 16762.68
559.4989, 16793.96
559.9810, 16829.68
560.4631, 16838.24
560.9453, 16808.58
561.4274, 16777.12
561.9095, 16735.27
562.3916, 16701.14
562.8737, 16695.11
563.3558, 16741.80
563.8380, 16766.17
564.3201, 16752.19
564.8022, 16713.24
565.2843, 16691.60
565.7664, 16692.54
566.2485, 16680.50
566.7307, 16624.35
567.2128, 16538.61
567.6949, 16498.63
568.1770, 16505.64
568.6591, 16524.87
569.1412, 16524.98
569.6234, 16516.03
570.1055, 16519.65
570.5876, 16548.35
571.0697, 16568.98
571.5518, 16547.93
572.0339, 16503.00
572.5161, 16465.09
572.9982, 16438.12
573.4803, 16427.19
573.9624, 16443.53
574.4445, 16484.58
574.9266, 16512.56
575.4088, 16523.08
575.8909, 16521.29
576.3730, 16505.54
576.8551, 16467.15
577.3372, 16448.72
577.8193, 16456.90
578.3015, 16474.97
578.7836, 16485.54
579.2657, 16488.41
579.7478, 16483.69
580.2299, 16468.97
580.7120, 16450.11
581.1942, 16431.81
581.6763, 16416.80
582.1584, 16420.18
582.6405, 16471.82
583.1226, 16534.09
583.6047, 16561.61
584.0869, 16553.71
584.5690, 16537.26
585.0511, 16517.52
585.5332, 16501.44
586.0153, 16495.20
586.4974, 16504.24
586.9796, 16514.89
587.4617, 16522.90
587.9438, 16531.78
588.4259, 16548.21
588.9080, 16589.01
589.3901, 16607.99
589.8723, 16588.83
590.3544, 16541.31
590.8365, 16509.63
591.3186, 16493.41
591.8007, 16493.72
592.2828, 16521.03
592.7650, 16568.33
593.2471, 16594.43
593.7292, 16597.16
594.2113, 16596.98
594.6934, 16615.79
595.1755, 16644.48
595.6577, 16667.15
596.1398, 16678.39
596.6219, 16686.34
597.1040, 16698.63
597.5862, 16711.19
598.0683, 16716.90
598.5504, 16704.36
599.0325, 16693.59
599.5146, 16692.15
599.9968, 16699.70
600.4789, 16706.38
600.9610, 16711.68
601.4431, 16716.39
601.9252, 16718.07
602.4073, 16713.29
602.8895, 16730.47
603.3716, 16777.63
603.8537, 16826.79
604.3358, 16847.25
604.8179, 16841.21
605.3000, 16826.83
605.7822, 16803.48
606.2643, 16782.02
606.7464, 16776.12
607.2285, 16783.63
607.7106, 16798.44
608.1927, 16829.74
608.6749, 16857.48
609.1570, 16862.12
609.6391, 16846.42
610.1212, 16835.58
610.6033, 16844.70
611.0854, 16856.08
611.5676, 16857.07
612.0497, 16835.07
612.5318, 16839.04
613.0139, 16888.45
613.4960, 16945.32
613.9781, 16968.90
614.4603, 16951.92
614.9424, 16936.52
615.4245, 16926.43
615.9066, 16923.51
616.3887, 16935.77
616.8708, 16961.53
617.3530, 16983.65
617.8351, 16993.87
618.3172, 16996.17
618.7993, 16992.88
619.2814, 16985.25
619.7635, 16981.38
620.2457, 16982.44
620.7278, 16991.76
621.2099, 17017.14
621.6920, 17065.54
622.1741, 17098.83
622.6563, 17091.79
623.1384, 17073.82
623.6205, 17072.03
624.1026, 17102.33
624.5847, 17121.42
625.0668, 17124.27
625.5490, 17116.54
626.0311, 17104.22
626.5132, 17084.24
626.9953, 17083.82
627.4774, 17120.81
627.9595, 17178.05
628.4417, 17209.90
628.9238, 17217.78
629.4059, 17216.63
629.8880, 17210.80
630.3701, 17204.25
630.8522, 17203.91
631.3344, 17210.69
631.8165, 17212.87
632.2986, 17183.50
632.7807, 17158.23
633.2628, 17170.76
633.7449, 17271.04
634.2271, 17337.66
634.7092, 17345.31
635.1913, 17320.25
635.6734, 17293.92
636.1555, 17259.06
636.6376, 17243.03
637.1198, 17256.01
637.6019, 17288.73
638.0840, 17320.04
638.5661, 17350.21
639.0482, 17364.04
639.5303, 17334.31
640.0125, 17287.31
640.4946, 17283.50
640.9767, 17321.36
641.4588, 17365.34
641.9409, 17397.56
642.4230, 17419.58
642.9052, 17432.07
643.3873, 17434.76
643.8694, 17429.84
644.3515, 17410.91
644.8336, 17387.96
645.3157, 17371.54
645.7979, 17358.86
646.2800, 17358.77
646.7621, 17379.16
647.2442, 17408.42
647.7263, 17415.87
648.2084, 17396.34
648.6906, 17388.79
649.1727, 17410.70
649.6548, 17451.81
650.1369, 17488.78
650.6190, 17520.83
651.1011, 17541.90
651.5833, 17544.18
652.0654, 17535.01
652.5475, 17515.72
653.0296, 17485.81
653.5117, 17473.13
653.9938, 17515.75
654.4760, 17566.18
654.9581, 17586.08
655.4402, 17550.46
655.9223, 17516.59
656.4044, 17469.96
656.8865, 17437.63
657.3687, 17464.68
657.8508, 17577.21
658.3329, 17649.29
658.8150, 17648.08
659.2971, 17605.83
659.7792, 17594.67
660.2614, 17612.18
660.7435, 17631.73
661.2256, 17643.80
661.7077, 17648.83
662.1898, 17642.39
662.6719, 17627.03
663.1541, 17617.98
663.6362, 17637.27
664.1183, 17655.93
664.6004, 17647.51
665.0825, 17600.59
665.5646, 17577.36
666.0468, 17606.53
666.5289, 17649.12
667.0110, 17682.84
667.4931, 17711.01
667.9752, 17718.22
668.4573, 17697.15
668.9395, 17666.51
669.4216, 17651.77
669.9037, 17652.24
670.3858, 17659.15
670.8679, 17673.85
671.3500, 17687.91
671.8322, 17686.46
672.3143, 17674.22
672.7964, 17663.93
673.2785, 17661.71
673.7606, 17663.24
674.2427, 17664.79
674.7249, 17667.12
675.2070, 17675.95
675.6891, 17713.43
676.1712, 17737.35
676.6533, 17724.91
677.1354, 17669.46
677.6176, 17637.53
678.0997, 17629.99
678.5818, 17644.51
679.0639, 17694.81
679.5460, 17775.56
680.0281, 17812.35
680.5103, 17793.61
680.9924, 17762.21
681.4745, 17773.39
681.9566, 17804.38
682.4387, 17809.05
682.9208, 17756.09
683.4030, 17707.53
683.8851, 17699.18
684.3672, 17720.13
684.8493, 17751.01
685.3314, 17815.38
685.8135, 17856.69
686.2957, 17857.37
686.7778, 17826.79
687.2599, 17800.06
687.7420, 17772.91
688.2241, 17763.29
688.7062, 17785.87
689.1884, 17832.47
689.6705, 17862.18
690.1526, 17875.08
690.6347, 17878.66
691.1168, 17874.75
691.5989, 17866.45
692.0811, 17856.30
692.5632, 17844.20
693.0453, 17836.55
693.5274, 17840.98
694.0095, 17848.84
694.4916, 17851.91
694.9738, 17838.07
695.4559, 17839.98
695.9380, 17867.70
696.4201, 17904.44
696.9022, 17934.76
697.3843, 17962.14
697.8665, 17962.65
698.3486, 17923.69
698.8307, 17870.49
699.3128, 17851.88
699.7949, 17862.54
700.2770, 17876.90
700.7592, 17884.98
701.2413, 17891.69
701.7234, 17901.36
702.2055, 17913.83
702.6876, 17928.69
703.1697, 17952.88
703.6519, 17972.38
704.1340, 17976.96
704.6161, 17966.21
705.0982, 17966.56
705.5803, 17987.66
706.0624, 18005.95
706.5446, 18006.72
707.0267, 17989.16
707.5088, 17982.07
707.9909, 17985.36
708.4730, 17999.71
708.9551, 18044.28
709.4373, 18098.00
709.9194, 18102.87
710.4015, 18043.38
710.8836, 17982.14
711.3657, 17961.68
711.8478, 17966.31
712.3300, 17978.24
712.8121, 17989.68
713.2942, 18013.23
713.7763, 18073.56
714.2584, 18138.48
714.7405, 18159.28
715.2227, 18117.96
715.7048, 18083.30
716.1869, 18067.88
716.6690, 18066.24
717.1511, 18068.90
717.6332, 18075.39
718.1154, 18079.86
718.5975, 18076.95
719.0796, 18073.01
719.5617, 18078.78
720.0438, 18091.33
720.5259, 18099.55
721.0081, 18093.49
721.4902, 18085.54
721.9723, 18082.87
722.4544, 18086.18
722.9365, 18084.88
723.4186, 18070.83
723.9008, 18062.38
724.3829, 18070.15
724.8650, 18095.30
725.3471, 18116.63
725.8292, 18134.56
726.3113, 18147.74
726.7935, 18151.78
727.2756, 18150.79
727.7577, 18156.30
728.2398, 18170.75
728.7219, 18183.35
729.2040, 18181.91
729.6862, 18176.17
730.1683, 18177.05
730.6504, 18192.87
731.1325, 18205.42
731.6146, 18214.04
732.0967, 18216.54
732.5789, 18206.35
733.0610, 18172.65
733.5431, 18161.54
734.0252, 18183.48
734.5073, 18225.78
734.9894, 18279.28
735.4716, 18338.03
735.9537, 18360.91
736.4358, 18314.02
736.9179, 18247.40
737.4000, 18215.72
737.8821, 18209.43
738.3643, 18204.03
738.8464, 18181.94
739.3286, 18166.19
739.8107, 18163.45
740.2928, 18174.82
740.7749, 18205.63
741.2570, 18272.45
741.7391, 18328.54
742.2213, 18354.06
742.7034, 18352.70
743.1855, 18356.47
743.6676, 18365.94
744.1497, 18363.03
744.6318, 18316.01
745.1140, 18256.04
745.5961, 18237.55
746.0782, 18262.56
746.5603, 18290.96
747.0424, 18304.96
747.5245, 18310.41
748.0067, 18309.46
748.4888, 18297.31
748.9709, 18295.71
749.4530, 18307.74
749.9351, 18327.35
750.4172, 18351.70
750.8994, 18382.01
751.3815, 18408.10
751.8636, 18431.01
752.3457, 18443.77
752.8278, 18427.55
753.3099, 18396.12
753.7921, 18383.14
754.2742, 18400.34
754.7563, 18424.72
755.2384, 18447.10
755.7205, 18465.20
756.2026, 18476.41
756.6848, 18481.59
757.1669, 18476.81
757.6490, 18457.59
758.1311, 18431.09
758.6132, 18403.51
759.0953, 18369.73
759.5775, 18367.87
760.0596, 18414.94
760.5417, 18486.54
761.0238, 18544.39
761.5059, 18587.99
761.9880, 18612.39
762.4702, 18602.79
762.9523, 18584.50
763.4344, 18576.30
763.9165, 18574.46
764.3986, 18567.67
764.8807, 18540.41
765.3629, 18522.20
765.8450, 18527.11
766.3271, 18548.89
766.8092, 18547.29
767.2913, 18514.66
767.7734, 18492.46
768.2556, 18507.80
768.7377, 18546.42
769.2198, 18563.15
769.7019, 18560.50
770.1840, 18559.50
770.6661, 18584.31
771.1483, 18608.92
771.6304, 18603.32
772.1125, 18566.89
772.5946, 18549.33
773.0767, 18586.63
773.5588, 18624.22
774.0410, 18635.21
774.5231, 18616.18
775.0052, 18605.58
775.4873, 18603.68
775.9694, 18609.29
776.4515, 18632.29
776.9337, 18662.49
777.4158, 18656.59
777.8979, 18610.54
778.3800, 18568.33
778.8621, 18572.97
779.3442, 18592.76
779.8264, 18591.82
780.3085, 18550.99
780.7906, 18538.18
781.2727, 18593.79
781.7548, 18662.51
782.2369, 18709.07
782.7191, 18731.87
783.2012, 18735.97
783.6833, 18719.37
784.1654, 18690.31
784.6475, 18646.49
785.1296, 18596.94
785.6118, 18573.81
786.0939, 18586.51
786.5760, 18608.60
787.0581, 18619.10
787.5402, 18626.58
788.0223, 18641.13
788.5045, 18673.42
788.9866, 18700.11
789.4687, 18723.35
789.9508, 18736.70
790.4329, 18728.53
790.9150, 18693.48
791.3972, 18664.09
791.8793, 18642.87
792.3614, 18632.90
792.8435, 18641.32
793.3256, 18664.66
793.8077, 18694.86
794.2899, 18739.25
794.7720, 18772.75
795.2541, 18765.65
795.7362, 18740.60
796.2183, 18734.49
796.7004, 18776.75
797.1826, 18810.79
797.6647, 18832.78
798.1468, 18842.05
798.6289, 18828.85
799.1110, 18789.97
799.5931, 18775.23
800.0753, 18807.36
800.5574, 18854.45
801.0395, 18858.01
801.5216, 18834.42
802.0037, 18826.00
802.4858, 18880.76
802.9680, 18925.55
803.4501, 18909.69
803.9322, 18857.01
804.4143, 18834.73
804.8964, 18871.45
805.3785, 18896.54
805.8607, 18894.30
806.3428, 18871.74
806.8249, 18841.36
807.3070, 18803.81
807.7891, 18784.84
808.2712, 18810.34
808.7534, 18844.29
809.2355, 18826.98
809.7176, 18776.41
810.1997, 18745.49
810.6818, 18777.72
811.1639, 18811.67
811.6461, 18822.79
812.1282, 18815.13
812.6103, 18805.35
813.0924, 18782.94
813.5745, 18788.35
814.0566, 18852.19
814.5388, 18941.98
815.0209, 18947.58
815.5030, 18878.56
815.9851, 18810.29
816.4672, 18768.72
816.9493, 18756.28
817.4315, 18796.60
817.9136, 18872.82
818.3957, 18921.58
818.8778, 18897.58
819.3599, 18871.62
819.8420, 18871.19
820.3242, 18887.99
820.8063, 18869.36
821.2884, 18805.32
821.7705, 18760.76
822.2526, 18775.21
822.7347, 18820.80
823.2169, 18829.54
823.6990, 18810.12
824.1811, 18803.72
824.6632, 18866.43
825.1453, 18919.40
825.6274, 18898.55
826.1096, 18815.57
826.5917, 18769.29
827.0738, 18783.79
827.5559, 18810.23
828.0380, 18838.61
828.5201, 18866.42
829.0023, 18877.44
829.4844, 18871.82
829.9665, 18863.55
830.4486, 18853.45
830.9307, 18849.17
831.4128, 18867.26
831.8950, 18901.99
832.3771, 18930.21
832.8592, 18942.08
833.3413, 18944.54
833.8234, 18937.95
834.3055, 18923.76
834.7877, 18907.86
835.2698, 18890.38
835.7519, 18868.74
836.2340, 18830.74
836.7161, 18793.61
837.1982, 18820.86
837.6804, 18901.18
838.1625, 18968.49
838.6446, 18975.61
839.1267, 18964.30
839.6088, 18962.74
840.0909, 18969.38
840.5731, 18971.95
841.0552, 18970.14
841.5373, 18960.78
842.0194, 18938.40
842.5015, 18908.18
842.9836, 18898.01
843.4658, 18908.76
843.9479, 18911.77
844.4300, 18878.31
844.9121, 18841.13
845.3942, 18858.65
845.8763, 18915.40
846.3585, 18960.01
846.8406, 18968.90
847.3227, 18962.12
847.8048, 18931.66
848.2869, 18890.38
848.7690, 18890.62
849.2512, 18951.73
849.7333, 18992.68
850.2154, 18979.57
850.6975, 18937.53
851.1796, 18928.53
851.6617, 18947.79
852.1439, 18972.57
852.6260, 18998.10
853.1081, 19019.57
853.5902, 19036.73
854.0723, 19047.41
854.5544, 19044.93
855.0366, 19008.90
855.5187, 18986.24
856.0008, 18986.98
856.4829, 19004.75
856.9650, 19027.58
857.4471, 19055.02
857.9293, 19075.26
858.4114, 19085.87
858.8935, 19084.85
859.3756, 19060.15
859.8577, 19023.11
860.3398, 18996.89
860.8220, 18984.85
861.3041, 18991.12
861.7862, 19042.52
862.2683, 19104.72
862.7504, 19111.97
863.2325, 19046.61
863.7147, 19008.33
864.1968, 19023.28
864.6789, 19061.49
865.1610, 19078.50
865.6431, 19079.92
866.1252, 19080.87
866.6074, 19086.31
867.0895, 19092.33
867.5716, 19093.25
868.0537, 19094.73
868.5358, 19106.92
869.0179, 19147.79
869.5001, 19161.85
869.9822, 19134.36
870.4643, 19095.71
870.9464, 19096.15
871.4285, 19127.69
871.9106, 19144.25
872.3928, 19133.38
872.8749, 19121.23
873.3570, 19141.15
873.8391, 19168.88
874.3212, 19173.51
874.8033, 19130.44
875.2855, 19099.60
875.7676, 19079.44
876.2497, 19079.26
876.7318, 19118.20
877.2139, 19198.63
877.6960, 19249.30
878.1782, 19264.14
878.6603, 19255.83
879.1424, 19213.32
879.6245, 19166.28
880.1067, 19165.80
880.5888, 19231.62
881.0709, 19268.47
881.5530, 19209.11
882.0352, 19138.50
882.5173, 19109.48
882.9994, 19127.27
883.4815, 19153.23
883.9636, 19189.58
884.4457, 19222.93
884.9279, 19243.14
885.4100, 19252.63
885.8921, 19251.06
886.3742, 19239.62
886.8563, 19237.19
887.3384, 19273.95
887.8206, 19305.77
888.3027, 19298.06
888.7848, 19249.77
889.2669, 19223.89
889.7490, 19224.91
890.2311, 19236.54
890.7133, 19255.42
891.1954, 19277.22
891.6775, 19286.77
892.1596, 19285.46
892.6417, 19282.33
893.1238, 19284.69
893.6060, 19285.09
894.0881, 19274.76
894.5702, 19256.88
895.0523, 19250.37
895.5344, 19264.38
896.0165, 19272.64
896.4987, 19262.27
896.9808, 19246.25
897.4629, 19273.90
897.9450, 19335.22
898.4271, 19365.97
898.9092, 19310.17
899.3914, 19251.74
899.8735, 19271.63
900.3556, 19338.96
900.8377, 19392.29
901.3198, 19414.89
901.8019, 19426.25
902.2841, 19423.83
902.7662, 19415.46
903.2483, 19416.54
903.7304, 19425.91
904.2125, 19423.94
904.6946, 19403.72
905.1768, 19381.32
905.6589, 19363.80
906.1410, 19357.84
906.6231, 19376.26
907.1052, 19449.79
907.5873, 19487.23
908.0695, 19451.90
908.5516, 19400.67
909.0337, 19381.37
909.5158, 19395.35
909.9979, 19409.94
910.4800, 19424.38
910.9622, 19431.17
911.4443, 19409.46
911.9264, 19383.39
912.4085, 19385.65
912.8906, 19421.70
913.3727, 19460.28
913.8549, 19507.56
914.3370, 19539.11
914.8191, 19537.90
915.3012, 19504.22
915.7833, 19488.46
916.2654, 19492.67
916.7476, 19490.72
917.2297, 19450.89
917.7118, 19403.79
918.1939, 19400.29
918.6760, 19431.64
919.1581, 19453.46
919.6403, 19428.15
920.1224, 19412.47
920.6045, 19432.65
921.0866, 19475.76
921.5687, 19497.79
922.0508, 19496.93
922.5330, 19488.98
923.0151, 19475.89
923.4972, 19463.44
923.9793, 19458.56
924.4614, 19461.04
924.9435, 19470.36
925.4257, 19495.33
925.9078, 19516.05
926.3899, 19525.43
926.8720, 19528.12
927.3541, 19530.54
927.8362, 19534.51
928.3184, 19522.63
928.8005, 19487.53
929.2826, 19457.12
929.7647, 19471.67
930.2468, 19510.83
930.7289, 19542.92
931.2111, 19564.46
931.6932, 19568.48
932.1753, 19517.00
932.6574, 19476.95
933.1395, 19503.54
933.6216, 19612.07
934.1038, 19654.89
934.5859, 19623.09
935.0680, 19579.87
935.5501, 19571.43
936.0322, 19582.53
936.5143, 19588.58
936.9965, 19589.89
937.4786, 19597.37
937.9607, 19629.30
938.4428, 19653.89
938.9249, 19655.79
939.4070, 19639.96
939.8892, 19628.11
940.3713, 19620.12
940.8534, 19616.46
941.3355, 19617.67
941.8176, 19622.80
942.2997, 19633.94
942.7819, 19647.52
943.2640, 19655.63
943.7461, 19640.89
944.2282, 19638.27
944.7103, 19676.30
945.1924, 19719.72
945.6746, 19715.95
946.1567, 19656.60
946.6388, 19632.76
947.1209, 19661.20
947.6030, 19699.07
948.0851, 19695.70
948.5673, 19671.32
949.0494, 19654.59
949.5315, 19651.39
950.0136, 19652.26
950.4957, 19652.76
950.9778, 19658.64
951.4600, 19677.91
951.9421, 19711.57
952.4242, 19714.52
952.9063, 19684.85
953.3884, 19661.36
953.8705, 19675.93
954.3527, 19708.37
954.8348, 19737.81
955.3169, 19763.77
955.7990, 19789.06
956.2811, 19816.38
956.7632, 19841.16
957.2454, 19864.48
957.7275, 19883.34
958.2096, 19886.23
958.6917, 19873.88
959.1738, 19861.06
959.6559, 19851.83
960.1381, 19845.06
960.6202, 19848.18
961.1023, 19850.14
961.5844, 19833.76
962.0665, 19755.38
962.5486, 19725.44
963.0308, 19774.98
963.5129, 19839.09
963.9950, 19851.45
964.4771, 19816.78
964.9592, 19779.13
965.4413, 19740.31
965.9235, 19724.98
966.4056, 19778.27
966.8877, 19844.39
967.3698, 19873.66
967.8519, 19858.98
968.3340, 19851.71
968.8162, 19858.41
969.2983, 19864.71
969.7804, 19860.96
970.2625, 19854.05
970.7446, 19877.29
971.2267, 19922.38
971.7089, 19947.37
972.1910, 19899.48
972.6731, 19858.18
973.1552, 19879.75
973.6373, 19937.85
974.1194, 19976.97
974.6016, 19990.78
975.0837, 19996.05
975.5658, 19991.60
976.0479, 19986.75
976.5300, 20002.81
977.0121, 20026.76
977.4943, 20021.13
977.9764, 19973.12
978.4585, 19936.74
978.9406, 19954.10
979.4227, 19982.34
979.9048, 19989.37
980.3870, 19972.84
980.8691, 19964.71
981.3512, 19965.18
981.8333, 19973.31
982.3154, 19991.76
982.7975, 20015.83
983.2797, 20041.95
983.7618, 20067.62
984.2439, 20083.30
984.7260, 20076.35
985.2081, 20069.53
985.6902, 20069.35
986.1724, 20072.98
986.6545, 20074.99
987.1366, 20075.36
987.6187, 20072.95
988.1008, 20066.03
988.5829, 20061.36
989.0651, 20075.50
989.5472, 20091.71
990.0293, 20085.17
990.5114, 20032.08
990.9935, 20010.26
991.4756, 20039.64
991.9578, 20076.14
992.4399, 20089.61
992.9220, 20082.80
993.4041, 20071.18
993.8862, 20056.02
994.3683, 20051.48
994.8505, 20071.09
995.3326, 20100.29
995.8147, 20139.27
996.2968, 20181.17
996.7789, 20194.07
997.2610, 20165.42
997.7432, 20141.05
998.2253, 20129.36
998.7074, 20131.38
999.1895, 20158.21
999.6716, 20199.00
1000.154, 20226.40
1000.636, 20229.04
1001.118, 20228.46
1001.600, 20228.65
1002.082, 20233.49
1002.564, 20249.91
1003.046, 20284.00
1003.529, 20281.80
1004.011, 20238.11
1004.493, 20207.86
1004.975, 20260.01
1005.457, 20332.31
1005.939, 20341.38
1006.421, 20294.20
1006.903, 20253.01
1007.385, 20224.04
1007.868, 20219.78
1008.350, 20252.47
1008.832, 20304.16
1009.314, 20337.29
1009.796, 20350.74
1010.278, 20332.37
1010.760, 20263.27
1011.242, 20205.08
1011.725, 20214.27
1012.207, 20255.90
1012.689, 20292.25
1013.171, 20321.41
1013.653, 20334.44
1014.135, 20324.22
1014.617, 20319.04
1015.099, 20350.41
1015.581, 20400.42
1016.064, 20426.72
1016.546, 20430.14
1017.028, 20424.53
1017.510, 20403.69
1017.992, 20389.72
1018.474, 20400.80
1018.956, 20422.35
1019.438, 20414.05
1019.921, 20374.19
1020.403, 20330.44
1020.885, 20281.88
1021.367, 20256.76
1021.849, 20314.39
1022.331, 20402.48
1022.813, 20452.22
1023.295, 20438.99
1023.778, 20415.95
1024.260, 20383.34
1024.742, 20349.99
1025.224, 20310.80
1025.706, 20274.19
1026.188, 20305.42
1026.670, 20393.80
1027.152, 20459.84
1027.634, 20424.22
1028.117, 20386.20
1028.599, 20414.25
1029.081, 20480.33
1029.563, 20502.87
1030.045, 20469.90
1030.527, 20448.98
1031.009, 20454.83
1031.491, 20466.94
1031.974, 20449.40
1032.456, 20423.83
1032.938, 20432.73
1033.420, 20497.92
1033.902, 20522.34
1034.384, 20438.95
1034.866, 20361.91
1035.348, 20353.71
1035.830, 20403.93
1036.313, 20440.27
1036.795, 20463.11
1037.277, 20478.38
1037.759, 20473.60
1038.241, 20477.78
1038.723, 20530.27
1039.205, 20601.61
1039.687, 20626.49
1040.169, 20584.29
1040.652, 20549.72
1041.134, 20527.65
1041.616, 20521.74
1042.098, 20551.85
1042.580, 20595.30
1043.062, 20605.09
1043.544, 20574.03
1044.026, 20555.15
1044.509, 20594.92
1044.991, 20620.19
1045.473, 20590.55
1045.955, 20523.60
1046.437, 20514.14
1046.919, 20556.36
1047.401, 20581.88
1047.883, 20548.59
1048.365, 20511.37
1048.848, 20515.53
1049.330, 20543.01
1049.812, 20570.27
1050.294, 20609.63
1050.776, 20604.36
1051.258, 20538.21
1051.740, 20479.04
1052.222, 20503.29
1052.704, 20571.91
1053.187, 20618.04
1053.669, 20637.77
1054.151, 20635.73
1054.633, 20583.08
1055.115, 20546.60
1055.597, 20553.34
1056.079, 20585.39
1056.561, 20600.38
1057.044, 20598.92
1057.526, 20584.34
1058.008, 20551.24
1058.490, 20527.96
1058.972, 20547.75
1059.454, 20582.72
1059.936, 20604.64
1060.418, 20608.63
1060.901, 20610.28
1061.383, 20606.54
1061.865, 20612.50
1062.347, 20652.44
1062.829, 20700.04
1063.311, 20696.31
1063.793, 20657.21
1064.275, 20633.16
1064.757, 20657.45
1065.240, 20678.70
1065.722, 20680.73
1066.204, 20682.61
1066.686, 20718.38
1067.168, 20781.83
1067.650, 20819.94
1068.132, 20826.17
1068.614, 20824.53
1069.096, 20844.49
1069.579, 20853.05
1070.061, 20804.32
1070.543, 20709.57
1071.025, 20696.17
1071.507, 20781.20
1071.989, 20846.06
1072.471, 20839.80
1072.953, 20811.86
1073.436, 20839.61
1073.918, 20890.99
1074.400, 20911.55
1074.882, 20863.51
1075.364, 20833.46
1075.846, 20827.20
1076.328, 20841.16
1076.810, 20890.37
1077.292, 20958.41
1077.775, 20957.31
1078.257, 20898.20
1078.739, 20863.40
1079.221, 20927.53
1079.703, 20993.67
1080.185, 21015.42
1080.667, 21011.21
1081.149, 21009.54
1081.631, 21010.66
1082.114, 21008.35
1082.596, 21000.10
1083.078, 20998.57
1083.560, 21033.78
1084.042, 21070.20
1084.524, 21062.96
1085.006, 21002.89
1085.488, 20983.16
1085.971, 21023.28
1086.453, 21053.58
1086.935, 21038.58
1087.417, 21007.62
1087.899, 21029.63
1088.381, 21079.63
1088.863, 21099.57
1089.345, 21046.79
1089.828, 21006.71
1090.310, 20996.76
1090.792, 21005.78
1091.274, 21035.74
1091.756, 21082.24
1092.238, 21089.62
1092.720, 21060.66
1093.202, 21035.83
1093.684, 21051.03
1094.167, 21067.08
1094.649, 21054.62
1095.131, 21027.83
1095.613, 21019.62
1096.095, 21032.68
1096.577, 21047.37
1097.059, 21061.64
1097.541, 21072.14
1098.024, 21071.83
1098.506, 21067.83
1098.988, 21067.36
1099.470, 21071.33
1099.952, 21079.19
1100.434, 21093.36
1100.916, 21104.80
1101.398, 21108.78
1101.880, 21110.17
1102.363, 21123.67
1102.845, 21142.04
1103.327, 21147.49
1103.809, 21128.65
1104.291, 21109.86
1104.773, 21089.84
1105.255, 21080.51
1105.737, 21097.04
1106.219, 21135.56
1106.702, 21150.82
1107.184, 21145.13
1107.666, 21136.97
1108.148, 21133.08
1108.630, 21133.91
1109.112, 21139.81
1109.594, 21150.80
1110.076, 21166.71
1110.559, 21187.48
1111.041, 21220.50
1111.523, 21270.81
1112.005, 21299.02
1112.487, 21242.56
1112.969, 21165.13
1113.451, 21127.87
1113.933, 21133.98
1114.416, 21147.16
1114.898, 21167.38
1115.380, 21190.27
1115.862, 21219.38
1116.344, 21240.48
1116.826, 21220.92
1117.308, 21179.70
1117.790, 21147.27
1118.272, 21127.00
1118.755, 21129.12
1119.237, 21171.48
1119.719, 21210.26
1120.201, 21219.64
1120.683, 21208.64
1121.165, 21211.72
1121.647, 21225.00
1122.129, 21233.37
1122.611, 21232.05
1123.094, 21222.07
1123.576, 21189.71
1124.058, 21159.05
1124.540, 21151.19
1125.022, 21166.01
1125.504, 21212.45
1125.986, 21289.39
1126.468, 21340.94
1126.951, 21298.33
1127.433, 21245.04
1127.915, 21247.32
1128.397, 21283.57
1128.879, 21283.92
1129.361, 21240.40
1129.843, 21206.52
1130.325, 21190.01
1130.807, 21184.44
1131.290, 21181.89
1131.772, 21187.54
1132.254, 21215.48
1132.736, 21267.17
1133.218, 21286.38
1133.700, 21259.04
1134.182, 21233.63
1134.664, 21224.74
1135.146, 21227.44
1135.629, 21236.62
1136.111, 21250.25
1136.593, 21267.24
1137.075, 21294.65
1137.557, 21299.15
1138.039, 21260.65
1138.521, 21228.10
1139.003, 21238.34
1139.486, 21272.80
1139.968, 21261.94
1140.450, 21220.16
1140.932, 21197.13
1141.414, 21238.83
1141.896, 21270.74
1142.378, 21257.54
1142.860, 21241.59
1143.343, 21274.36
1143.825, 21348.02
1144.307, 21367.53
1144.789, 21333.37
1145.271, 21293.43
1145.753, 21275.36
1146.235, 21262.52
1146.717, 21240.47
1147.199, 21219.78
1147.682, 21227.93
1148.164, 21266.70
1148.646, 21265.36
1149.128, 21209.74
1149.610, 21165.52
1150.092, 21212.67
1150.574, 21274.38
1151.056, 21277.26
1151.538, 21230.71
1152.021, 21235.38
1152.503, 21302.86
1152.985, 21341.33
1153.467, 21316.93
1153.949, 21280.44
1154.431, 21292.12
1154.913, 21323.29
1155.395, 21341.33
1155.878, 21338.37
1156.360, 21334.17
1156.842, 21328.17
1157.324, 21323.35
1157.806, 21324.67
1158.288, 21323.29
1158.770, 21299.50
1159.252, 21263.94
1159.734, 21235.23
1160.217, 21211.13
1160.699, 21214.91
1161.181, 21262.65
1161.663, 21300.15
1162.145, 21265.33
1162.627, 21199.73
1163.109, 21217.13
1163.591, 21291.88
1164.073, 21337.84
1164.556, 21289.37
1165.038, 21253.73
1165.520, 21244.20
1166.002, 21252.57
1166.484, 21280.78
1166.966, 21318.38
1167.448, 21324.75
1167.930, 21302.07
1168.413, 21292.84
1168.895, 21347.71
1169.377, 21377.62
1169.859, 21345.60
1170.341, 21288.46
1170.823, 21270.43
1171.305, 21284.77
1171.787, 21297.11
1172.270, 21302.11
1172.752, 21317.84
1173.234, 21384.84
1173.716, 21431.32
1174.198, 21419.95
1174.680, 21366.47
1175.162, 21309.04
1175.644, 21252.02
1176.126, 21225.41
1176.609, 21243.64
1177.091, 21265.30
1177.573, 21261.99
1178.055, 21252.44
1178.537, 21248.80
1179.019, 21251.21
1179.501, 21265.20
1179.983, 21289.35
1180.465, 21298.89
1180.948, 21279.64
1181.430, 21251.75
1181.912, 21215.30
1182.394, 21188.11
1182.876, 21190.94
1183.358, 21225.79
1183.840, 21266.92
1184.322, 21314.92
1184.805, 21341.25
1185.287, 21315.21
1185.769, 21275.85
1186.251, 21240.24
1186.733, 21218.33
1187.215, 21229.00
1187.697, 21282.44
1188.179, 21324.84
1188.661, 21356.56
1189.144, 21356.54
1189.626, 21263.21
1190.108, 21172.21
1190.590, 21186.36
1191.072, 21268.06
1191.554, 21310.14
1192.036, 21298.13
1192.518, 21295.33
1193.000, 21309.36
1193.483, 21319.49
1193.965, 21297.75
1194.447, 21269.75
1194.929, 21257.38
1195.411, 21262.45
1195.893, 21286.20
1196.375, 21338.58
1196.857, 21366.97
1197.340, 21357.86
1197.822, 21340.26
1198.304, 21348.47
1198.786, 21364.29
1199.268, 21363.73
1199.750, 21345.72
1200.232, 21345.94
1200.714, 21376.20
1201.197, 21382.43
1201.679, 21343.49
1202.161, 21294.88
1202.643, 21275.78
1203.125, 21278.75
1203.607, 21296.59
1204.089, 21330.48
1204.571, 21371.04
1205.053, 21429.21
1205.536, 21450.02
1206.018, 21396.46
1206.500, 21325.15
1206.982, 21316.82
1207.464, 21346.79
1207.946, 21382.89
1208.428, 21426.63
1208.910, 21445.55
1209.392, 21434.88
1209.875, 21415.43
1210.357, 21390.19
1210.839, 21371.21
1211.321, 21382.79
1211.803, 21411.64
1212.285, 21435.37
1212.767, 21448.60
1213.249, 21457.32
1213.732, 21462.38
1214.214, 21460.01
1214.696, 21445.21
1215.178, 21423.47
1215.660, 21388.49
1216.142, 21355.49
1216.624, 21360.46
1217.106, 21457.73
1217.589, 21491.31
1218.071, 21443.27
1218.553, 21389.29
1219.035, 21390.87
1219.517, 21422.05
1219.999, 21456.65
1220.481, 21488.93
1220.963, 21502.63
1221.445, 21482.32
1221.927, 21474.01
1222.410, 21481.07
1222.892, 21499.69
1223.374, 21541.53
1223.856, 21582.60
1224.338, 21589.67
1224.820, 21566.56
1225.302, 21532.34
1225.784, 21473.62
1226.267, 21451.96
1226.749, 21480.65
1227.231, 21520.95
1227.713, 21540.44
1228.195, 21541.80
1228.677, 21518.34
1229.159, 21475.92
1229.641, 21454.76
1230.124, 21461.82
1230.606, 21473.53
1231.088, 21485.93
1231.570, 21501.68
1232.052, 21540.32
1232.534, 21572.73
1233.016, 21555.25
1233.498, 21489.81
1233.980, 21449.38
1234.463, 21434.04
1234.945, 21460.42
1235.427, 21544.75
1235.909, 21624.31
1236.391, 21613.57
1236.873, 21567.47
1237.355, 21543.92
1237.837, 21548.06
1238.320, 21545.50
1238.802, 21534.86
1239.284, 21527.88
1239.766, 21530.15
1240.248, 21529.39
1240.730, 21485.62
1241.212, 21450.47
1241.694, 21498.51
1242.177, 21628.02
1242.659, 21680.38
1243.141, 21649.00
1243.623, 21618.69
1244.105, 21617.33
1244.587, 21629.73
1245.069, 21651.45
1245.551, 21672.99
1246.033, 21689.72
1246.516, 21701.19
1246.998, 21668.59
1247.480, 21591.48
1247.962, 21540.71
1248.444, 21551.46
1248.926, 21579.35
1249.408, 21602.01
1249.890, 21614.94
1250.372, 21608.68
1250.855, 21584.61
1251.337, 21597.10
1251.819, 21642.66
1252.301, 21677.04
1252.783, 21667.59
1253.265, 21666.93
1253.747, 21732.89
1254.229, 21800.62
1254.712, 21809.47
1255.194, 21763.94
1255.676, 21751.70
1256.158, 21766.69
1256.640, 21768.44
1257.122, 21730.69
1257.604, 21688.10
1258.086, 21639.32
1258.568, 21608.20
1259.051, 21618.38
1259.533, 21664.18
1260.015, 21720.70
1260.497, 21778.82
1260.979, 21795.04
1261.461, 21702.24
1261.943, 21632.30
1262.425, 21622.23
1262.907, 21642.72
1263.390, 21686.21
1263.872, 21740.99
1264.354, 21750.67
1264.836, 21727.32
1265.318, 21715.35
1265.800, 21752.17
1266.282, 21771.65
1266.764, 21757.88
1267.247, 21742.23
1267.729, 21757.25
1268.211, 21787.98
1268.693, 21803.12
1269.175, 21803.27
1269.657, 21792.14
1270.139, 21754.47
1270.621, 21733.64
1271.104, 21737.05
1271.586, 21741.36
1272.068, 21710.96
1272.550, 21678.35
1273.032, 21702.88
1273.514, 21767.40
1273.996, 21819.19
1274.478, 21851.07
1274.960, 21866.26
1275.443, 21862.41
1275.925, 21855.12
1276.407, 21866.89
1276.889, 21874.35
1277.371, 21838.65
1277.853, 21781.06
1278.335, 21760.79
1278.817, 21787.85
1279.299, 21809.88
1279.782, 21823.44
1280.264, 21834.31
1280.746, 21845.08
1281.228, 21856.80
1281.710, 21878.57
1282.192, 21897.86
1282.674, 21884.66
1283.156, 21836.73
1283.639, 21830.28
1284.121, 21869.40
1284.603, 21906.99
1285.085, 21906.14
1285.567, 21903.07
1286.049, 21927.39
1286.531, 21951.47
1287.013, 21928.30
1287.495, 21867.00
1287.978, 21835.90
1288.460, 21837.29
1288.942, 21844.72
1289.424, 21847.15
1289.906, 21850.53
1290.388, 21858.18
1290.870, 21864.88
1291.352, 21857.24
1291.834, 21844.94
1292.317, 21862.77
1292.799, 21906.00
1293.281, 21928.61
1293.763, 21875.83
1294.245, 21867.07
1294.727, 21932.93
1295.209, 22005.17
1295.691, 21997.07
1296.174, 21951.78
1296.656, 21929.59
1297.138, 21931.60
1297.620, 21946.33
1298.102, 21985.57
1298.584, 21988.31
1299.066, 21942.03
##END=



