##NAMES=Erythrite
##RRUFFID=R050073
##IDEAL CHEMISTRY=Co^2+^_3_(As^5+^O_4_)_2_&#183;8H_2_O
##LOCALITY=Bou Azzer, Morocco
##OWNER=RRUFF
##SOURCE=Rock Currier
##DESCRIPTION=Crimson flattened crystals
##STATUS=The identification of this mineral has been confirmed by X-ray diffraction and chemical analysis
##URL=rruff.info/R050073
##MEASURED CHEMISTRY=(Co_0.65_Mg_0.35_)_3_(As_1.00_O_4_)_2_Â·8H_2_O
134.7162, 218.1765
135.1983, 233.2451
135.6804, 246.1655
136.1626, 255.8336
136.6447, 264.6548
137.1268, 278.0265
137.6089, 297.2967
138.0910, 316.0188
138.5731, 329.8546
139.0553, 337.5982
139.5374, 347.0352
140.0195, 359.0693
140.5016, 373.0320
140.9837, 385.6640
141.4658, 396.1841
141.9480, 406.7969
142.4301, 418.4264
142.9122, 429.4636
143.3943, 445.1441
143.8764, 468.5802
144.3585, 499.3107
144.8407, 524.1207
145.3228, 539.1210
145.8049, 550.9824
146.2870, 565.6813
146.7691, 583.9762
147.2512, 603.8790
147.7334, 625.6890
148.2155, 650.7164
148.6976, 672.6823
149.1797, 692.0550
149.6618, 708.2548
150.1439, 720.3922
150.6261, 730.3059
151.1082, 734.3655
151.5903, 731.7299
152.0724, 722.7687
152.5545, 706.2870
153.0366, 676.3231
153.5188, 639.0114
154.0009, 606.5483
154.4830, 583.1384
154.9651, 562.7573
155.4472, 542.3959
155.9293, 519.9398
156.4115, 500.1397
156.8936, 484.8616
157.3757, 473.1648
157.8578, 461.5201
158.3399, 447.4281
158.8221, 433.9425
159.3042, 422.9129
159.7863, 415.9964
160.2684, 410.4258
160.7505, 404.6548
161.2326, 398.9728
161.7148, 396.0708
162.1969, 401.2140
162.6790, 408.0983
163.1611, 410.5900
163.6432, 400.8917
164.1253, 390.9232
164.6075, 387.4510
165.0896, 390.7335
165.5717, 395.1317
166.0538, 397.3144
166.5359, 398.6729
167.0180, 401.1943
167.5002, 407.4807
167.9823, 414.1497
168.4644, 417.8404
168.9465, 417.7395
169.4286, 418.6104
169.9107, 425.6155
170.3929, 436.2134
170.8750, 445.2362
171.3571, 448.3375
171.8392, 449.1612
172.3213, 451.3861
172.8034, 455.4157
173.2856, 460.9526
173.7677, 470.0277
174.2498, 481.1176
174.7319, 488.8620
175.2140, 486.6752
175.6961, 479.8904
176.1783, 476.4353
176.6604, 477.6927
177.1425, 482.8441
177.6246, 492.8800
178.1067, 506.9914
178.5888, 520.6105
179.0710, 528.4354
179.5531, 533.1497
180.0352, 540.8108
180.5173, 553.9061
180.9994, 569.4708
181.4815, 582.5464
181.9637, 593.2935
182.4458, 603.1243
182.9279, 612.1855
183.4100, 621.1167
183.8921, 632.4489
184.3742, 647.0150
184.8564, 664.4248
185.3385, 684.7009
185.8206, 708.3501
186.3027, 730.8256
186.7848, 745.4841
187.2669, 753.6075
187.7491, 765.5013
188.2312, 786.7374
188.7133, 814.5233
189.1954, 839.8418
189.6775, 862.7587
190.1596, 882.1318
190.6418, 894.9261
191.1239, 901.2688
191.6060, 908.7560
192.0881, 921.8149
192.5702, 939.5324
193.0524, 954.0230
193.5345, 965.1450
194.0166, 973.3522
194.4987, 976.5900
194.9808, 974.2183
195.4629, 976.5878
195.9451, 991.0947
196.4272, 1017.607
196.9093, 1038.602
197.3914, 1051.663
197.8735, 1062.146
198.3556, 1081.944
198.8378, 1112.726
199.3199, 1141.775
199.8020, 1158.958
200.2841, 1162.706
200.7662, 1176.781
201.2483, 1205.267
201.7305, 1242.322
202.2126, 1272.920
202.6947, 1295.224
203.1768, 1317.928
203.6589, 1347.889
204.1410, 1386.498
204.6232, 1420.279
205.1053, 1447.002
205.5874, 1468.580
206.0695, 1491.658
206.5516, 1517.193
207.0337, 1541.707
207.5159, 1564.990
207.9980, 1588.808
208.4801, 1600.449
208.9622, 1595.617
209.4443, 1577.450
209.9264, 1562.910
210.4086, 1556.571
210.8907, 1544.564
211.3728, 1513.904
211.8549, 1457.801
212.3370, 1405.600
212.8191, 1362.612
213.3013, 1327.693
213.7834, 1287.783
214.2655, 1241.714
214.7476, 1192.321
215.2297, 1141.583
215.7118, 1086.943
216.1940, 1036.593
216.6761, 991.8135
217.1582, 952.3953
217.6403, 919.1199
218.1224, 894.7450
218.6045, 873.3321
219.0867, 848.3914
219.5688, 816.5525
220.0509, 789.6692
220.5330, 771.3975
221.0151, 761.6517
221.4972, 753.3035
221.9794, 747.5172
222.4615, 741.7513
222.9436, 732.9089
223.4257, 719.2565
223.9078, 705.8670
224.3899, 693.5601
224.8721, 682.0235
225.3542, 673.4821
225.8363, 668.0980
226.3184, 665.4721
226.8005, 665.5041
227.2827, 669.9465
227.7648, 673.6152
228.2469, 674.3133
228.7290, 671.0684
229.2111, 672.7032
229.6932, 681.8874
230.1754, 693.7643
230.6575, 701.5694
231.1396, 701.4710
231.6217, 704.1057
232.1038, 713.6724
232.5859, 732.4271
233.0681, 745.6854
233.5502, 750.9931
234.0323, 752.5432
234.5144, 756.1968
234.9965, 761.7716
235.4786, 769.8192
235.9608, 781.4321
236.4429, 797.8931
236.9250, 811.2993
237.4071, 821.1713
237.8892, 828.1725
238.3713, 832.6141
238.8535, 831.0075
239.3356, 832.7521
239.8177, 841.9804
240.2998, 861.8033
240.7819, 877.1322
241.2640, 886.7994
241.7462, 892.9009
242.2283, 899.2145
242.7104, 906.8200
243.1925, 912.8094
243.6746, 915.3701
244.1567, 912.1949
244.6389, 913.8752
245.1210, 922.6486
245.6031, 934.9161
246.0852, 944.1069
246.5673, 948.3309
247.0494, 952.7191
247.5316, 959.5270
248.0137, 970.3167
248.4958, 978.4081
248.9779, 984.1624
249.4600, 986.9531
249.9421, 984.3398
250.4243, 971.1746
250.9064, 961.8835
251.3885, 964.3823
251.8706, 986.5604
252.3527, 993.4170
252.8348, 980.2065
253.3170, 954.7120
253.7991, 930.7607
254.2812, 907.7242
254.7633, 887.9352
255.2454, 873.0763
255.7275, 865.2180
256.2097, 854.9930
256.6918, 841.6943
257.1739, 826.6352
257.6560, 811.5394
258.1381, 794.9968
258.6202, 781.3339
259.1024, 773.3601
259.5845, 773.8196
260.0666, 768.3598
260.5487, 754.1827
261.0308, 736.2191
261.5129, 723.4706
261.9951, 718.4357
262.4772, 712.8599
262.9593, 702.1366
263.4414, 683.4113
263.9235, 673.9000
264.4056, 677.8798
264.8878, 686.9859
265.3699, 685.6171
265.8520, 670.1723
266.3341, 654.5112
266.8162, 644.6532
267.2983, 642.1811
267.7805, 635.2016
268.2626, 621.5081
268.7447, 605.8235
269.2268, 597.3453
269.7089, 598.4216
270.1910, 598.2849
270.6732, 591.8536
271.1553, 578.2337
271.6374, 567.1459
272.1195, 558.5319
272.6016, 552.5225
273.0837, 550.7658
273.5659, 554.4125
274.0480, 556.3629
274.5301, 552.7336
275.0122, 543.2352
275.4943, 537.4958
275.9764, 536.5993
276.4586, 537.4237
276.9407, 535.0712
277.4228, 529.2142
277.9049, 523.2897
278.3870, 518.0235
278.8691, 513.5031
279.3513, 512.3791
279.8334, 515.5129
280.3155, 519.8283
280.7976, 520.9637
281.2798, 518.7795
281.7619, 516.4529
282.2440, 514.8220
282.7261, 513.9497
283.2082, 514.3806
283.6903, 516.1873
284.1725, 519.0294
284.6546, 522.9855
285.1367, 527.9631
285.6188, 532.3635
286.1009, 534.9579
286.5830, 536.4489
287.0652, 540.0038
287.5473, 545.7474
288.0294, 552.6105
288.5115, 559.6489
288.9936, 566.8770
289.4757, 574.1814
289.9579, 582.3601
290.4400, 590.4232
290.9221, 594.9310
291.4042, 595.5894
291.8863, 596.3660
292.3684, 601.1777
292.8506, 609.5273
293.3327, 619.3977
293.8148, 631.2631
294.2969, 643.6797
294.7790, 653.4001
295.2611, 660.4586
295.7433, 667.8741
296.2254, 680.6498
296.7075, 696.3011
297.1896, 707.1873
297.6717, 709.2901
298.1538, 707.3939
298.6360, 708.0961
299.1181, 711.2970
299.6002, 715.7338
300.0823, 722.9182
300.5644, 730.4141
301.0465, 733.2346
301.5287, 727.6873
302.0108, 719.9464
302.4929, 718.5587
302.9750, 722.1686
303.4571, 723.0884
303.9392, 713.1008
304.4214, 698.2157
304.9035, 686.6238
305.3856, 682.2180
305.8677, 678.8701
306.3498, 672.4069
306.8319, 662.9330
307.3141, 650.5901
307.7962, 632.2526
308.2783, 612.7469
308.7604, 596.4035
309.2425, 584.4069
309.7246, 575.7767
310.2068, 572.2514
310.6889, 571.8863
311.1710, 569.5951
311.6531, 560.0952
312.1352, 549.4489
312.6173, 542.6955
313.0995, 542.1777
313.5816, 541.2672
314.0637, 536.5179
314.5458, 529.2254
315.0279, 521.8086
315.5100, 512.9882
315.9922, 505.9484
316.4743, 503.5132
316.9564, 507.6652
317.4385, 509.5169
317.9206, 504.5881
318.4027, 495.9555
318.8849, 487.9193
319.3670, 480.3048
319.8491, 474.6487
320.3312, 471.6938
320.8133, 471.6984
321.2954, 473.1370
321.7776, 477.2236
322.2597, 482.0200
322.7418, 485.4608
323.2239, 487.1858
323.7060, 487.5919
324.1881, 485.8582
324.6703, 481.6428
325.1524, 479.5801
325.6345, 482.5696
326.1166, 486.4888
326.5987, 488.0109
327.0808, 482.8057
327.5630, 480.3307
328.0451, 483.9382
328.5272, 493.1146
329.0093, 496.4395
329.4914, 489.7598
329.9735, 480.9520
330.4557, 474.9003
330.9378, 471.5238
331.4199, 471.2462
331.9020, 475.5923
332.3841, 483.3059
332.8662, 488.2608
333.3484, 489.7745
333.8305, 489.4902
334.3126, 487.6517
334.7947, 482.7829
335.2768, 481.2834
335.7589, 484.8892
336.2411, 491.2562
336.7232, 494.9232
337.2053, 495.9651
337.6874, 493.9852
338.1695, 486.3210
338.6516, 471.3918
339.1338, 466.8354
339.6159, 476.6040
340.0980, 491.0704
340.5801, 492.3539
341.0622, 478.9663
341.5443, 466.1310
342.0265, 459.9871
342.5086, 460.0017
342.9907, 461.2535
343.4728, 464.0698
343.9549, 466.7972
344.4370, 467.2517
344.9192, 465.6007
345.4013, 463.3081
345.8834, 460.1345
346.3655, 456.9133
346.8476, 456.5009
347.3297, 458.9778
347.8119, 461.8650
348.2940, 462.6302
348.7761, 461.9001
349.2582, 461.6979
349.7403, 463.5225
350.2225, 465.1893
350.7046, 462.0162
351.1867, 454.7565
351.6688, 449.4513
352.1509, 452.4486
352.6331, 459.6546
353.1152, 464.7247
353.5973, 465.3036
354.0794, 465.2068
354.5615, 468.1868
355.0436, 473.3676
355.5258, 478.0840
356.0079, 481.5461
356.4900, 483.5286
356.9721, 482.6838
357.4542, 477.0149
357.9363, 474.5926
358.4185, 483.9341
358.9006, 499.1677
359.3827, 510.1341
359.8648, 510.3925
360.3469, 507.3296
360.8290, 503.6243
361.3112, 499.0649
361.7933, 497.2971
362.2754, 499.1732
362.7575, 504.5077
363.2396, 513.1374
363.7217, 529.6990
364.2039, 544.7728
364.6860, 556.6044
365.1681, 565.1500
365.6502, 569.4896
366.1323, 563.3005
366.6144, 556.6818
367.0966, 556.6551
367.5787, 572.1790
368.0608, 583.5363
368.5429, 587.7310
369.0250, 586.2401
369.5071, 586.5251
369.9893, 589.3358
370.4714, 593.0308
370.9535, 596.8721
371.4356, 600.7599
371.9177, 604.8879
372.3998, 609.0552
372.8820, 613.5898
373.3641, 619.7325
373.8462, 628.8901
374.3283, 635.9671
374.8104, 638.4490
375.2925, 635.9684
375.7747, 632.5380
376.2568, 626.6831
376.7389, 622.7326
377.2210, 628.8884
377.7031, 646.0969
378.1852, 659.5411
378.6674, 663.2004
379.1495, 659.5727
379.6316, 660.0564
380.1137, 665.0908
380.5958, 670.2203
381.0779, 669.5067
381.5601, 664.6017
382.0422, 664.5734
382.5243, 674.4771
383.0064, 686.3063
383.4885, 683.2892
383.9706, 667.6026
384.4528, 655.5010
384.9349, 663.3219
385.4170, 680.5608
385.8991, 688.9384
386.3812, 683.7371
386.8633, 676.2717
387.3455, 677.7315
387.8276, 685.0446
388.3097, 691.2212
388.7918, 691.8085
389.2739, 690.3804
389.7560, 690.0350
390.2382, 691.1865
390.7203, 691.2658
391.2024, 687.7808
391.6845, 682.8469
392.1666, 678.8555
392.6487, 679.2113
393.1309, 678.2239
393.6130, 670.5637
394.0951, 657.3101
394.5772, 651.2725
395.0593, 664.8726
395.5414, 680.9131
396.0236, 688.5014
396.5057, 676.1856
396.9878, 667.1801
397.4699, 664.7916
397.9520, 667.4250
398.4341, 670.1077
398.9163, 674.1289
399.3984, 676.8568
399.8805, 677.2401
400.3626, 674.6745
400.8447, 671.3171
401.3268, 665.7255
401.8090, 660.4153
402.2911, 659.5323
402.7732, 665.3773
403.2553, 669.3885
403.7374, 667.4556
404.2195, 660.3066
404.7017, 662.8649
405.1838, 678.2194
405.6659, 695.0176
406.1480, 701.8544
406.6301, 698.6003
407.1122, 696.9575
407.5944, 699.1957
408.0765, 704.0864
408.5586, 708.0193
409.0407, 711.0647
409.5228, 716.5977
410.0049, 729.8326
410.4871, 747.2753
410.9692, 758.9440
411.4513, 763.2935
411.9334, 764.0843
412.4155, 761.4292
412.8976, 758.1293
413.3798, 762.1225
413.8619, 783.8776
414.3440, 810.7678
414.8261, 830.1998
415.3082, 841.9251
415.7903, 850.3181
416.2725, 855.0038
416.7546, 859.2698
417.2367, 866.9470
417.7188, 879.4536
418.2009, 895.1872
418.6830, 915.5240
419.1652, 939.0948
419.6473, 960.0806
420.1294, 973.4124
420.6115, 986.1383
421.0937, 1002.149
421.5758, 1021.793
422.0579, 1044.445
422.5400, 1073.435
423.0221, 1104.716
423.5042, 1132.242
423.9864, 1153.088
424.4685, 1172.867
424.9506, 1191.681
425.4327, 1208.757
425.9148, 1232.281
426.3969, 1265.845
426.8791, 1301.743
427.3612, 1332.445
427.8433, 1355.450
428.3254, 1380.803
428.8075, 1409.718
429.2896, 1441.934
429.7718, 1477.193
430.2539, 1516.586
430.7360, 1553.647
431.2181, 1584.138
431.7002, 1608.293
432.1823, 1627.773
432.6645, 1640.930
433.1466, 1655.270
433.6287, 1685.866
434.1108, 1728.645
434.5929, 1763.088
435.0750, 1772.470
435.5572, 1771.486
436.0393, 1789.394
436.5214, 1825.212
437.0035, 1858.165
437.4856, 1873.939
437.9677, 1875.947
438.4499, 1866.842
438.9320, 1839.509
439.4141, 1814.507
439.8962, 1810.792
440.3783, 1821.277
440.8604, 1827.584
441.3426, 1817.969
441.8247, 1804.572
442.3068, 1795.177
442.7889, 1792.412
443.2710, 1785.029
443.7531, 1763.552
444.2353, 1738.488
444.7174, 1721.082
445.1995, 1726.366
445.6816, 1724.931
446.1637, 1708.606
446.6458, 1679.189
447.1280, 1654.092
447.6101, 1635.847
448.0922, 1619.058
448.5743, 1600.132
449.0564, 1575.104
449.5385, 1558.803
450.0207, 1554.727
450.5028, 1556.707
450.9849, 1552.887
451.4670, 1542.188
451.9491, 1531.322
452.4312, 1522.552
452.9134, 1515.790
453.3955, 1510.405
453.8776, 1506.592
454.3597, 1502.871
454.8418, 1499.021
455.3239, 1494.369
455.8061, 1486.125
456.2882, 1472.937
456.7703, 1456.836
457.2524, 1439.198
457.7345, 1420.708
458.2166, 1403.752
458.6988, 1390.667
459.1809, 1379.567
459.6630, 1371.008
460.1451, 1366.256
460.6272, 1354.139
461.1093, 1320.844
461.5915, 1278.219
462.0736, 1241.629
462.5557, 1220.510
463.0378, 1201.957
463.5199, 1184.199
464.0020, 1166.424
464.4842, 1142.653
464.9663, 1103.792
465.4484, 1064.624
465.9305, 1032.991
466.4126, 1013.632
466.8947, 993.2405
467.3769, 969.9581
467.8590, 946.5353
468.3411, 927.8895
468.8232, 918.0265
469.3053, 904.9038
469.7874, 883.6993
470.2696, 855.0940
470.7517, 831.7989
471.2338, 814.5187
471.7159, 800.5195
472.1980, 788.0909
472.6801, 777.1787
473.1623, 767.4794
473.6444, 759.0355
474.1265, 751.4521
474.6086, 744.5523
475.0907, 738.1495
475.5728, 731.0370
476.0550, 720.1580
476.5371, 708.9739
477.0192, 705.3411
477.5013, 709.6251
477.9834, 711.6809
478.4655, 700.9829
478.9477, 684.1511
479.4298, 670.0757
479.9119, 663.3599
480.3940, 657.3024
480.8761, 647.2487
481.3582, 634.9697
481.8404, 625.6993
482.3225, 621.1273
482.8046, 619.9766
483.2867, 623.3361
483.7688, 634.6109
484.2509, 638.8275
484.7331, 629.7571
485.2152, 615.5999
485.6973, 603.3380
486.1794, 591.4222
486.6615, 584.3032
487.1436, 584.2741
487.6258, 589.5576
488.1079, 591.7837
488.5900, 590.4520
489.0721, 587.3756
489.5542, 583.0749
490.0363, 577.5178
490.5185, 572.4382
491.0006, 567.8481
491.4827, 563.9866
491.9648, 561.8990
492.4470, 561.1588
492.9291, 559.2662
493.4112, 554.0257
493.8933, 548.3860
494.3754, 548.1123
494.8575, 552.3596
495.3397, 555.8278
495.8218, 553.8954
496.3039, 549.9312
496.7860, 547.5668
497.2681, 547.4730
497.7502, 548.3171
498.2324, 550.3928
498.7145, 552.6929
499.1966, 553.8870
499.6787, 551.6500
500.1608, 550.1792
500.6429, 552.8093
501.1251, 558.9572
501.6072, 559.1851
502.0893, 544.9654
502.5714, 531.6686
503.0535, 526.7178
503.5356, 533.6938
504.0178, 541.2328
504.4999, 552.4469
504.9820, 561.2639
505.4641, 555.1545
505.9462, 529.7236
506.4283, 512.8705
506.9105, 515.9432
507.3926, 533.0485
507.8747, 540.0543
508.3568, 536.4941
508.8389, 531.6543
509.3210, 532.1893
509.8032, 536.7647
510.2853, 542.5965
510.7674, 550.1248
511.2495, 555.5099
511.7316, 552.7324
512.2137, 544.9893
512.6959, 538.8401
513.1780, 540.2222
513.6601, 541.3967
514.1422, 534.5365
514.6243, 521.3806
515.1064, 513.9686
515.5886, 524.6950
516.0707, 537.2481
516.5528, 540.7603
517.0349, 527.0119
517.5170, 518.6381
517.9991, 521.4236
518.4813, 529.3533
518.9634, 535.1132
519.4455, 538.1727
519.9276, 539.9227
520.4097, 540.3404
520.8918, 539.6017
521.3740, 538.8209
521.8561, 537.9371
522.3382, 537.2128
522.8203, 536.8275
523.3024, 536.7739
523.7845, 537.1058
524.2667, 538.0454
524.7488, 538.5215
525.2309, 536.4545
525.7130, 532.6601
526.1951, 530.0280
526.6772, 529.8899
527.1594, 531.0522
527.6415, 532.8968
528.1236, 535.0840
528.6057, 536.1451
529.0878, 534.6761
529.5699, 532.1119
530.0521, 528.8833
530.5342, 524.2957
531.0163, 522.3685
531.4984, 527.5588
531.9805, 534.6837
532.4626, 538.2552
532.9448, 532.4874
533.4269, 529.2776
533.9090, 531.8881
534.3911, 538.2317
534.8732, 539.8342
535.3553, 534.6160
535.8375, 528.4872
536.3196, 523.2047
536.8017, 518.5360
537.2838, 518.9677
537.7659, 525.7073
538.2480, 533.5837
538.7302, 536.6476
539.2123, 535.6009
539.6944, 535.3499
540.1765, 537.6436
540.6586, 539.9360
541.1407, 537.3776
541.6229, 531.4238
542.1050, 527.2651
542.5871, 530.3666
543.0692, 534.7539
543.5513, 534.0854
544.0334, 528.0953
544.5156, 523.5981
544.9977, 525.4240
545.4798, 529.1132
545.9619, 531.1210
546.4440, 529.5573
546.9261, 528.1144
547.4083, 525.7522
547.8904, 524.1553
548.3725, 526.7170
548.8546, 537.5383
549.3367, 545.7615
549.8188, 548.1839
550.3010, 545.3117
550.7831, 542.7303
551.2652, 540.2054
551.7473, 538.7524
552.2294, 539.7181
552.7115, 542.7958
553.1937, 544.7674
553.6758, 545.2183
554.1579, 545.2260
554.6400, 547.2952
555.1221, 550.1269
555.6042, 549.7547
556.0864, 541.3115
556.5685, 532.5544
557.0506, 531.4345
557.5327, 536.5154
558.0148, 542.5353
558.4969, 549.7261
558.9791, 554.9695
559.4612, 556.0054
559.9433, 552.0661
560.4254, 546.7955
560.9075, 536.1743
561.3896, 527.2191
561.8718, 526.2711
562.3539, 541.1814
562.8360, 550.5674
563.3181, 550.9253
563.8002, 545.6743
564.2823, 542.9653
564.7645, 543.3065
565.2466, 543.9697
565.7287, 543.4914
566.2108, 542.4233
566.6929, 545.1287
567.1750, 551.8766
567.6572, 555.7870
568.1393, 546.3160
568.6214, 530.5975
569.1035, 523.9963
569.5856, 530.2808
570.0677, 539.9061
570.5499, 547.9971
571.0320, 553.6193
571.5141, 555.3807
571.9962, 547.7592
572.4783, 541.1716
572.9604, 540.9892
573.4426, 545.9402
573.9247, 549.2070
574.4068, 547.3714
574.8889, 545.7605
575.3710, 546.2180
575.8531, 548.7882
576.3353, 553.5160
576.8174, 562.0445
577.2995, 570.2249
577.7816, 573.5453
578.2637, 571.4544
578.7458, 570.1414
579.2280, 570.4864
579.7101, 572.0127
580.1922, 575.2206
580.6743, 579.4409
581.1564, 580.8962
581.6385, 575.1627
582.1207, 567.1055
582.6028, 562.3184
583.0849, 560.8299
583.5670, 562.4830
584.0491, 571.7379
584.5313, 581.2019
585.0134, 584.4161
585.4955, 578.2340
585.9776, 572.9618
586.4597, 571.4696
586.9418, 572.1365
587.4240, 573.1089
587.9061, 573.0965
588.3882, 575.4504
588.8703, 582.4058
589.3524, 591.4482
589.8345, 594.3736
590.3167, 589.4966
590.7988, 584.9911
591.2809, 584.9176
591.7630, 588.2456
592.2451, 589.2208
592.7272, 587.7200
593.2094, 586.8784
593.6915, 590.8429
594.1736, 597.0106
594.6557, 600.0687
595.1378, 598.5319
595.6199, 596.3204
596.1021, 596.5294
596.5842, 597.8625
597.0663, 598.4733
597.5485, 598.1907
598.0306, 596.6082
598.5127, 590.6353
598.9948, 582.4542
599.4769, 581.5718
599.9590, 595.5364
600.4412, 608.3102
600.9233, 614.6447
601.4054, 614.2682
601.8875, 611.6854
602.3696, 605.6566
602.8517, 600.5186
603.3339, 601.0119
603.8160, 606.6172
604.2981, 610.1769
604.7802, 610.3198
605.2623, 610.2216
605.7444, 616.1708
606.2266, 625.3348
606.7087, 629.7327
607.1908, 622.7826
607.6729, 613.8795
608.1550, 609.3727
608.6371, 608.8906
609.1193, 611.0678
609.6014, 618.6566
610.0835, 625.9697
610.5656, 629.8554
611.0477, 629.6220
611.5298, 629.9646
612.0120, 631.7161
612.4941, 633.4215
612.9762, 633.6296
613.4583, 631.0292
613.9404, 632.3338
614.4225, 639.4951
614.9047, 647.6351
615.3868, 648.1644
615.8689, 641.8638
616.3510, 639.4648
616.8331, 646.1916
617.3152, 655.6661
617.7974, 657.2700
618.2795, 652.7861
618.7616, 649.2584
619.2437, 649.9996
619.7258, 653.5845
620.2079, 660.8349
620.6901, 671.6184
621.1722, 678.7132
621.6543, 675.5960
622.1364, 670.7913
622.6185, 670.1454
623.1006, 677.0837
623.5828, 681.0445
624.0649, 679.8514
624.5470, 677.6772
625.0291, 679.9700
625.5112, 687.7146
625.9933, 694.9736
626.4755, 701.2941
626.9576, 705.6288
627.4397, 703.6639
627.9218, 696.4268
628.4039, 691.7582
628.8860, 693.6615
629.3682, 700.3062
629.8503, 711.0745
630.3324, 725.2858
630.8145, 737.7919
631.2966, 746.8575
631.7787, 752.1232
632.2609, 751.7296
632.7430, 742.8795
633.2251, 738.6354
633.7072, 746.3485
634.1893, 756.7649
634.6714, 761.9875
635.1536, 758.4280
635.6357, 757.7581
636.1178, 761.6872
636.5999, 767.9532
637.0820, 772.1627
637.5641, 774.1749
638.0463, 777.3271
638.5284, 783.6642
639.0105, 790.9955
639.4926, 794.5142
639.9747, 794.8226
640.4568, 795.3207
640.9390, 799.1677
641.4211, 803.4633
641.9032, 804.2304
642.3853, 801.2031
642.8674, 801.5059
643.3495, 813.4128
643.8317, 826.0060
644.3138, 831.2515
644.7959, 821.0193
645.2780, 817.6560
645.7601, 825.2628
646.2422, 836.1274
646.7244, 840.7461
647.2065, 837.6154
647.6886, 836.1317
648.1707, 838.7981
648.6528, 842.6973
649.1349, 841.4742
649.6171, 835.7393
650.0992, 829.8156
650.5813, 823.7618
651.0634, 819.8346
651.5455, 822.3196
652.0276, 830.1304
652.5098, 837.3194
652.9919, 841.6871
653.4740, 843.7009
653.9561, 842.6907
654.4382, 837.7203
654.9203, 835.2609
655.4025, 840.4551
655.8846, 844.8549
656.3667, 841.9554
656.8488, 827.7050
657.3309, 818.2330
657.8130, 814.2557
658.2952, 814.7377
658.7773, 820.5261
659.2594, 830.9532
659.7415, 837.2493
660.2236, 836.3375
660.7057, 831.5701
661.1879, 824.9425
661.6700, 818.0933
662.1521, 815.7200
662.6342, 827.7435
663.1163, 838.3622
663.5984, 835.0661
664.0806, 819.6398
664.5627, 808.2864
665.0448, 808.6799
665.5269, 810.7831
666.0090, 810.3065
666.4911, 806.8154
666.9733, 803.6755
667.4554, 800.0720
667.9375, 798.4359
668.4196, 802.5667
668.9017, 812.1495
669.3839, 816.2909
669.8660, 813.3191
670.3481, 808.1638
670.8302, 806.8195
671.3123, 807.5892
671.7944, 806.4366
672.2766, 799.7933
672.7587, 794.7203
673.2408, 798.8201
673.7229, 807.4371
674.2050, 811.5368
674.6871, 802.7032
675.1693, 795.4675
675.6514, 795.0767
676.1335, 799.9182
676.6156, 801.7380
677.0977, 800.1870
677.5798, 796.2666
678.0620, 788.5204
678.5441, 777.9272
679.0262, 775.4240
679.5083, 781.3062
679.9904, 790.1465
680.4725, 800.3942
680.9547, 809.7952
681.4368, 813.6888
681.9189, 811.0468
682.4010, 807.2684
682.8831, 803.4532
683.3652, 801.5799
683.8474, 804.1587
684.3295, 818.3267
684.8116, 826.4751
685.2937, 819.6440
685.7758, 808.3110
686.2579, 807.0709
686.7401, 821.3548
687.2222, 830.6895
687.7043, 830.6725
688.1864, 824.2704
688.6685, 816.2989
689.1506, 807.1338
689.6328, 802.8962
690.1149, 808.3668
690.5970, 819.0089
691.0791, 830.3946
691.5612, 841.7261
692.0433, 848.7095
692.5255, 845.2350
693.0076, 839.9271
693.4897, 838.6527
693.9718, 842.3098
694.4539, 844.3478
694.9360, 843.0484
695.4182, 840.6682
695.9003, 837.6251
696.3824, 832.6744
696.8645, 833.3276
697.3466, 841.0907
697.8287, 850.5052
698.3109, 856.8060
698.7930, 859.9005
699.2751, 858.6686
699.7572, 852.1508
700.2393, 844.1498
700.7214, 836.5014
701.2036, 830.5438
701.6857, 828.5302
702.1678, 832.6399
702.6499, 839.2219
703.1320, 849.6958
703.6141, 861.5942
704.0963, 868.4376
704.5784, 864.6857
705.0605, 864.3557
705.5426, 872.7026
706.0247, 886.6055
706.5068, 891.0077
706.9890, 884.9302
707.4711, 877.8254
707.9532, 874.2964
708.4353, 873.3948
708.9174, 871.9850
709.3995, 870.3916
709.8817, 872.0119
710.3638, 885.2831
710.8459, 898.8288
711.3280, 899.9749
711.8101, 885.5230
712.2922, 876.5145
712.7744, 884.3491
713.2565, 895.5864
713.7386, 901.1652
714.2207, 898.9735
714.7028, 896.2245
715.1849, 892.1959
715.6671, 888.8234
716.1492, 888.5909
716.6313, 891.2564
717.1134, 893.9630
717.5955, 896.2375
718.0776, 898.3181
718.5598, 900.2806
719.0419, 902.2593
719.5240, 904.5641
720.0061, 908.8278
720.4882, 911.6125
720.9703, 910.5150
721.4525, 906.8591
721.9346, 903.6089
722.4167, 898.8167
722.8988, 897.5890
723.3809, 901.8565
723.8630, 910.3055
724.3452, 918.1261
724.8273, 925.4292
725.3094, 931.1599
725.7915, 934.5372
726.2736, 936.0223
726.7557, 936.0013
727.2379, 934.7584
727.7200, 934.5336
728.2021, 937.4995
728.6842, 941.5751
729.1663, 945.8137
729.6484, 950.1617
730.1306, 952.1248
730.6127, 949.4534
731.0948, 945.3980
731.5769, 941.3948
732.0590, 936.8226
732.5411, 934.9769
733.0233, 936.4261
733.5054, 939.3268
733.9875, 941.9684
734.4696, 944.5063
734.9517, 947.9783
735.4338, 952.5305
735.9160, 957.9233
736.3981, 965.0205
736.8802, 972.4530
737.3623, 977.9826
737.8444, 979.6888
738.3266, 982.0200
738.8087, 989.3918
739.2908, 997.5218
739.7729, 999.7212
740.2551, 990.7009
740.7372, 985.2716
741.2193, 986.1719
741.7014, 990.6619
742.1835, 992.9838
742.6656, 993.1011
743.1478, 993.3133
743.6299, 993.6979
744.1120, 995.4105
744.5941, 1001.433
745.0762, 1010.478
745.5583, 1018.747
746.0405, 1025.825
746.5226, 1030.153
747.0047, 1026.868
747.4868, 1018.451
747.9689, 1019.460
748.4510, 1041.724
748.9332, 1060.345
749.4153, 1065.957
749.8974, 1059.990
750.3795, 1059.534
750.8616, 1064.858
751.3438, 1073.418
751.8259, 1084.530
752.3080, 1097.483
752.7901, 1111.768
753.2722, 1127.149
753.7543, 1140.887
754.2365, 1150.848
754.7186, 1158.642
755.2007, 1165.020
755.6828, 1169.861
756.1649, 1174.982
756.6470, 1179.246
757.1292, 1185.234
757.6113, 1194.942
758.0934, 1209.407
758.5755, 1223.118
759.0576, 1236.343
759.5397, 1248.319
760.0219, 1254.306
760.5040, 1258.293
760.9861, 1275.650
761.4682, 1311.316
761.9503, 1345.252
762.4324, 1357.114
762.9146, 1360.376
763.3967, 1371.127
763.8788, 1397.669
764.3609, 1424.615
764.8430, 1449.312
765.3251, 1473.102
765.8073, 1497.799
766.2894, 1523.464
766.7715, 1549.406
767.2536, 1575.213
767.7357, 1601.501
768.2178, 1628.039
768.7000, 1655.774
769.1821, 1687.977
769.6642, 1726.535
770.1463, 1769.024
770.6284, 1814.988
771.1105, 1863.162
771.5927, 1911.105
772.0748, 1952.108
772.5569, 1999.990
773.0390, 2057.488
773.5211, 2123.687
774.0032, 2197.620
774.4854, 2281.496
774.9675, 2364.314
775.4496, 2440.605
775.9317, 2515.648
776.4138, 2606.512
776.8959, 2709.462
777.3781, 2808.537
777.8602, 2882.060
778.3423, 2958.602
778.8244, 3065.040
779.3065, 3196.869
779.7886, 3333.793
780.2708, 3474.737
780.7529, 3614.546
781.2350, 3750.989
781.7171, 3885.354
782.1992, 4032.063
782.6813, 4192.850
783.1635, 4353.790
783.6456, 4507.100
784.1277, 4654.397
784.6098, 4806.120
785.0919, 4961.428
785.5740, 5117.283
786.0562, 5275.775
786.5383, 5433.185
787.0204, 5588.292
787.5025, 5742.036
787.9846, 5879.378
788.4667, 5984.572
788.9489, 6083.800
789.4310, 6191.784
789.9131, 6309.299
790.3952, 6403.736
790.8773, 6472.199
791.3594, 6527.553
791.8416, 6578.913
792.3237, 6623.875
792.8058, 6658.250
793.2879, 6681.956
793.7700, 6687.542
794.2521, 6665.601
794.7343, 6626.365
795.2164, 6580.202
795.6985, 6531.042
796.1806, 6458.603
796.6627, 6358.609
797.1448, 6238.380
797.6270, 6099.253
798.1091, 5938.086
798.5912, 5784.878
799.0733, 5639.808
799.5554, 5494.946
800.0375, 5344.651
800.5197, 5190.071
801.0018, 5032.678
801.4839, 4873.814
801.9660, 4709.467
802.4481, 4526.522
802.9302, 4343.638
803.4124, 4176.338
803.8945, 4029.555
804.3766, 3894.988
804.8587, 3779.744
805.3408, 3667.485
805.8229, 3539.609
806.3051, 3396.306
806.7872, 3267.708
807.2693, 3156.634
807.7514, 3056.428
808.2335, 2964.802
808.7156, 2876.395
809.1978, 2780.664
809.6799, 2670.104
810.1620, 2570.217
810.6441, 2494.942
811.1262, 2433.449
811.6083, 2376.819
812.0905, 2330.561
812.5726, 2273.073
813.0547, 2200.305
813.5368, 2124.435
814.0189, 2057.122
814.5010, 1998.826
814.9832, 1953.620
815.4653, 1923.941
815.9474, 1900.229
816.4295, 1876.562
816.9116, 1852.142
817.3937, 1825.754
817.8759, 1796.417
818.3580, 1766.910
818.8401, 1737.957
819.3222, 1709.287
819.8043, 1679.550
820.2864, 1647.222
820.7686, 1621.611
821.2507, 1605.061
821.7328, 1591.404
822.2149, 1571.625
822.6970, 1548.812
823.1791, 1531.211
823.6613, 1522.468
824.1434, 1513.713
824.6255, 1495.536
825.1076, 1475.853
825.5897, 1463.763
826.0718, 1469.020
826.5540, 1469.861
827.0361, 1463.316
827.5182, 1455.661
828.0003, 1456.006
828.4824, 1464.202
828.9645, 1466.221
829.4467, 1458.677
829.9288, 1450.121
830.4109, 1449.894
830.8930, 1455.220
831.3751, 1462.623
831.8572, 1473.898
832.3394, 1480.829
832.8215, 1474.071
833.3036, 1465.133
833.7857, 1466.915
834.2678, 1483.123
834.7499, 1499.276
835.2321, 1514.570
835.7142, 1529.347
836.1963, 1541.236
836.6784, 1552.677
837.1605, 1573.906
837.6426, 1608.674
838.1248, 1644.186
838.6069, 1665.986
839.0890, 1685.232
839.5711, 1714.621
840.0532, 1766.434
840.5353, 1810.075
841.0175, 1836.394
841.4996, 1861.679
841.9817, 1903.458
842.4638, 1962.583
842.9459, 2020.514
843.4280, 2075.546
843.9102, 2129.080
844.3923, 2180.307
844.8744, 2232.053
845.3565, 2288.713
845.8386, 2352.802
846.3207, 2416.928
846.8029, 2478.024
847.2850, 2537.868
847.7671, 2598.421
848.2492, 2661.409
848.7313, 2720.156
849.2134, 2773.211
849.6956, 2824.654
850.1777, 2883.527
850.6598, 2944.884
851.1419, 2990.972
851.6240, 3019.369
852.1061, 3036.897
852.5883, 3044.411
853.0704, 3046.518
853.5525, 3048.858
854.0346, 3056.444
854.5167, 3049.648
854.9988, 3021.691
855.4810, 2987.237
855.9631, 2955.143
856.4452, 2925.294
856.9273, 2901.850
857.4094, 2886.127
857.8915, 2861.671
858.3737, 2806.945
858.8558, 2738.963
859.3379, 2679.575
859.8200, 2632.433
860.3021, 2584.281
860.7842, 2531.133
861.2664, 2475.857
861.7485, 2421.577
862.2306, 2368.421
862.7127, 2309.216
863.1948, 2241.863
863.6769, 2175.615
864.1591, 2114.713
864.6412, 2059.830
865.1233, 2012.818
865.6054, 1972.707
866.0875, 1932.024
866.5696, 1885.061
867.0518, 1836.431
867.5339, 1786.016
868.0160, 1733.231
868.4981, 1695.307
868.9802, 1679.412
869.4623, 1662.995
869.9445, 1635.145
870.4266, 1598.310
870.9087, 1562.060
871.3908, 1526.319
871.8729, 1495.042
872.3550, 1471.891
872.8372, 1452.636
873.3193, 1434.971
873.8014, 1418.307
874.2835, 1400.980
874.7656, 1379.616
875.2477, 1361.156
875.7299, 1347.389
876.2120, 1337.891
876.6941, 1331.697
877.1762, 1328.821
877.6583, 1324.708
878.1404, 1318.487
878.6226, 1308.873
879.1047, 1289.904
879.5869, 1266.175
880.0690, 1249.038
880.5511, 1249.829
881.0332, 1249.738
881.5153, 1241.608
881.9974, 1229.594
882.4796, 1221.822
882.9617, 1218.712
883.4438, 1217.620
883.9259, 1218.243
884.4080, 1219.980
884.8901, 1223.330
885.3723, 1226.950
885.8544, 1227.405
886.3365, 1220.746
886.8186, 1215.237
887.3007, 1216.997
887.7828, 1221.042
888.2650, 1220.020
888.7471, 1210.837
889.2292, 1204.981
889.7113, 1204.135
890.1934, 1205.120
890.6755, 1203.544
891.1577, 1200.353
891.6398, 1198.726
892.1219, 1199.607
892.6040, 1200.313
893.0861, 1198.443
893.5682, 1195.833
894.0504, 1194.304
894.5325, 1194.895
895.0146, 1194.392
895.4967, 1192.055
895.9788, 1189.991
896.4609, 1189.618
896.9431, 1190.986
897.4252, 1196.106
897.9073, 1205.152
898.3894, 1211.104
898.8715, 1203.197
899.3536, 1193.910
899.8358, 1197.086
900.3179, 1215.695
900.8000, 1221.889
901.2821, 1205.077
901.7642, 1187.456
902.2463, 1179.255
902.7285, 1179.174
903.2106, 1175.851
903.6927, 1169.469
904.1748, 1164.417
904.6569, 1165.994
905.1390, 1168.208
905.6212, 1162.773
906.1033, 1152.029
906.5854, 1146.212
907.0675, 1152.949
907.5496, 1159.482
908.0317, 1163.214
908.5139, 1164.500
908.9960, 1164.753
909.4781, 1163.970
909.9602, 1159.897
910.4423, 1150.279
910.9244, 1139.463
911.4066, 1132.285
911.8887, 1127.857
912.3708, 1124.453
912.8529, 1122.584
913.3350, 1120.357
913.8171, 1117.035
914.2993, 1113.510
914.7814, 1111.730
915.2635, 1112.089
915.7456, 1107.674
916.2277, 1096.101
916.7098, 1085.719
917.1920, 1090.451
917.6741, 1101.076
918.1562, 1103.235
918.6383, 1091.472
919.1204, 1080.379
919.6025, 1075.397
920.0847, 1071.699
920.5668, 1065.875
921.0489, 1057.335
921.5310, 1050.624
922.0131, 1045.772
922.4952, 1042.617
922.9774, 1042.399
923.4595, 1043.153
923.9416, 1042.456
924.4237, 1040.071
924.9058, 1035.345
925.3879, 1022.667
925.8701, 1013.285
926.3522, 1014.003
926.8343, 1022.794
927.3164, 1022.083
927.7985, 1010.786
928.2806, 1000.008
928.7628, 995.3107
929.2449, 993.7383
929.7270, 990.3081
930.2091, 986.1287
930.6912, 984.1077
931.1733, 990.8746
931.6555, 993.5850
932.1376, 984.9318
932.6197, 971.3369
933.1018, 963.0218
933.5839, 960.2480
934.0660, 961.7025
934.5482, 969.1753
935.0303, 974.4620
935.5124, 962.0286
935.9945, 941.3231
936.4766, 929.4203
936.9587, 932.7093
937.4409, 937.6893
937.9230, 943.3315
938.4051, 946.4346
938.8872, 944.1260
939.3693, 935.3693
939.8514, 926.0067
940.3336, 915.5775
940.8157, 908.7454
941.2978, 912.2161
941.7799, 920.3093
942.2620, 925.0721
942.7441, 926.0618
943.2263, 925.9127
943.7084, 924.1501
944.1905, 923.0548
944.6726, 924.3919
945.1547, 927.3140
945.6368, 924.7294
946.1190, 916.0140
946.6011, 912.6181
947.0832, 924.8167
947.5653, 939.4061
948.0474, 937.1876
948.5295, 923.6294
949.0117, 911.4531
949.4938, 904.8173
949.9759, 900.4457
950.4580, 898.1264
950.9401, 897.2117
951.4222, 897.1279
951.9044, 897.9015
952.3865, 897.8424
952.8686, 896.5863
953.3507, 894.9109
953.8328, 892.8297
954.3149, 891.2100
954.7971, 890.8176
955.2792, 891.2401
955.7613, 895.6888
956.2434, 913.2639
956.7255, 924.4294
957.2076, 912.6571
957.6898, 878.9841
958.1719, 863.9363
958.6540, 867.2056
959.1361, 875.6693
959.6182, 885.9067
960.1003, 892.8043
960.5825, 889.1349
961.0646, 876.8463
961.5467, 868.0838
962.0288, 865.4991
962.5109, 866.2394
962.9930, 870.7695
963.4752, 877.2899
963.9573, 880.7758
964.4394, 881.8138
964.9215, 884.7059
965.4036, 892.9808
965.8857, 899.2484
966.3679, 895.7437
966.8500, 887.4532
967.3321, 880.8388
967.8142, 877.8358
968.2963, 874.7530
968.7784, 871.3863
969.2606, 868.3734
969.7427, 864.7979
970.2248, 862.0962
970.7069, 868.7582
971.1890, 885.2026
971.6711, 895.5186
972.1533, 883.2240
972.6354, 866.1862
973.1175, 855.1124
973.5996, 850.6038
974.0817, 851.6072
974.5638, 859.9024
975.0460, 867.3781
975.5281, 870.4243
976.0102, 870.8188
976.4923, 873.7281
976.9744, 877.3307
977.4565, 876.2783
977.9387, 860.3348
978.4208, 848.5901
978.9029, 853.3019
979.3850, 863.3677
979.8671, 862.2452
980.3492, 846.6564
980.8314, 840.2590
981.3135, 847.0458
981.7956, 856.8384
982.2777, 859.1506
982.7598, 857.0548
983.2419, 853.9661
983.7241, 849.9241
984.2062, 849.0328
984.6883, 857.9012
985.1704, 864.5501
985.6525, 862.0917
986.1346, 851.8711
986.6168, 849.0720
987.0989, 853.4683
987.5810, 857.9611
988.0631, 858.4290
988.5452, 857.1644
989.0273, 854.6413
989.5095, 852.1524
989.9916, 853.2402
990.4737, 865.6302
990.9558, 869.5983
991.4379, 859.1047
991.9200, 844.5813
992.4022, 844.6324
992.8843, 855.3923
993.3664, 859.2035
993.8485, 851.7584
994.3306, 843.8068
994.8127, 842.8698
995.2949, 844.6151
995.7770, 845.6155
996.2591, 845.6687
996.7412, 844.4454
997.2233, 841.3877
997.7054, 839.1378
998.1876, 840.7072
998.6697, 843.6470
999.1518, 841.6467
999.6339, 835.9173
1000.116, 831.2988
1000.598, 828.5229
1001.080, 828.9291
1001.562, 835.2551
1002.044, 843.9501
1002.527, 848.8956
1003.009, 849.8814
1003.491, 849.3006
1003.973, 847.2498
1004.455, 845.1537
1004.937, 845.9022
1005.419, 846.9241
1005.901, 843.7881
1006.384, 833.3052
1006.866, 829.7069
1007.348, 839.2224
1007.830, 848.4894
1008.312, 848.7415
1008.794, 842.0903
1009.276, 841.9128
1009.758, 847.4270
1010.240, 852.0762
1010.723, 852.0154
1011.205, 849.9001
1011.687, 847.7250
1012.169, 844.6633
1012.651, 837.9555
1013.133, 824.3876
1013.615, 816.5564
1014.097, 816.7799
1014.580, 822.1172
1015.062, 833.0692
1015.544, 844.8520
1016.026, 846.4460
1016.508, 833.6392
1016.990, 823.6597
1017.472, 823.8008
1017.954, 828.7407
1018.436, 836.3082
1018.919, 846.2517
1019.401, 855.5564
1019.883, 864.2340
1020.365, 867.5354
1020.847, 857.0890
1021.329, 844.6413
1021.811, 842.1891
1022.293, 846.9318
1022.776, 852.0310
1023.258, 859.1569
1023.740, 861.0543
1024.222, 855.0682
1024.704, 846.8656
1025.186, 844.0962
1025.668, 845.6892
1026.150, 849.4099
1026.632, 855.3763
1027.115, 857.4950
1027.597, 844.7292
1028.079, 833.1585
1028.561, 836.1651
1029.043, 852.8401
1029.525, 860.9974
1030.007, 859.7223
1030.489, 856.2707
1030.972, 852.3969
1031.454, 849.9261
1031.936, 853.5654
1032.418, 860.2635
1032.900, 863.4413
1033.382, 858.1389
1033.864, 853.0341
1034.346, 848.2946
1034.828, 845.0599
1035.311, 844.8051
1035.793, 847.3165
1036.275, 851.7275
1036.757, 858.0114
1037.239, 863.9750
1037.721, 869.7303
1038.203, 873.2041
1038.685, 872.2005
1039.167, 867.0637
1039.650, 860.7603
1040.132, 852.1028
1040.614, 848.2653
1041.096, 853.8008
1041.578, 861.8630
1042.060, 859.7563
1042.542, 852.5081
1043.024, 849.8215
1043.507, 857.9709
1043.989, 864.0776
1044.471, 865.3956
1044.953, 864.5616
1045.435, 862.7631
1045.917, 860.2346
1046.399, 860.3794
1046.881, 863.1777
1047.364, 866.7930
1047.846, 873.3472
1048.328, 877.1877
1048.810, 872.1955
1049.292, 860.7005
1049.774, 852.7994
1050.256, 847.6267
1050.738, 850.9531
1051.220, 866.8699
1051.703, 883.7249
1052.185, 881.7974
1052.667, 869.8618
1053.149, 862.6677
1053.631, 863.9337
1054.113, 866.0927
1054.595, 867.9453
1055.077, 869.3101
1055.559, 870.0601
1056.042, 870.2222
1056.524, 870.1318
1057.006, 869.7308
1057.488, 868.5455
1057.970, 863.1226
1058.452, 860.1403
1058.934, 867.6495
1059.416, 879.2910
1059.899, 882.1934
1060.381, 872.1435
1060.863, 868.3946
1061.345, 873.6073
1061.827, 880.5027
1062.309, 881.5193
1062.791, 879.4405
1063.273, 877.8736
1063.755, 877.1824
1064.238, 877.7800
1064.720, 879.5972
1065.202, 883.5046
1065.684, 892.1488
1066.166, 901.3263
1066.648, 894.7011
1067.130, 876.6756
1067.612, 868.0746
1068.094, 879.6130
1068.577, 892.2288
1069.059, 896.9052
1069.541, 895.3265
1070.023, 887.9343
1070.505, 872.2466
1070.987, 867.5056
1071.469, 874.7543
1071.951, 882.1041
1072.434, 878.6332
1072.916, 872.7329
1073.398, 875.0679
1073.880, 883.6585
1074.362, 891.1122
1074.844, 898.9666
1075.326, 899.7155
1075.808, 889.5325
1076.291, 877.0429
1076.773, 875.8233
1077.255, 881.9932
1077.737, 884.2455
1078.219, 880.7841
1078.701, 877.2702
1079.183, 876.6638
1079.665, 876.6354
1080.147, 875.3005
1080.630, 873.4007
1081.112, 875.6345
1081.594, 881.9030
1082.076, 889.6320
1082.558, 899.8570
1083.040, 907.3217
1083.522, 903.4811
1084.004, 895.7373
1084.486, 894.8227
1084.969, 906.7895
1085.451, 910.7654
1085.933, 905.1924
1086.415, 897.3943
1086.897, 890.6977
1087.379, 886.6483
1087.861, 889.6139
1088.343, 898.1003
1088.826, 905.6601
1089.308, 912.1534
1089.790, 913.8237
1090.272, 907.6962
1090.754, 899.4878
1091.236, 899.9203
1091.718, 906.5258
1092.200, 906.5742
1092.682, 897.6044
1093.165, 890.6136
1093.647, 895.7679
1094.129, 902.1095
1094.611, 901.8381
1095.093, 896.2039
1095.575, 894.8407
1096.057, 897.9139
1096.539, 901.1549
1097.022, 902.8080
1097.504, 904.2276
1097.986, 907.8879
1098.468, 911.7036
1098.950, 912.4842
1099.432, 907.9546
1099.914, 905.0010
1100.396, 903.3566
1100.879, 904.2826
1101.361, 911.0556
1101.843, 919.9615
1102.325, 924.3186
1102.807, 924.5018
1103.289, 922.1669
1103.771, 912.4604
1104.253, 907.9294
1104.735, 911.3723
1105.218, 919.5433
1105.700, 930.5184
1106.182, 942.6856
1106.664, 947.0867
1107.146, 942.7023
1107.628, 935.9940
1108.110, 929.9137
1108.592, 923.5267
1109.074, 914.6736
1109.557, 905.1370
1110.039, 903.9969
1110.521, 911.3774
1111.003, 916.5339
1111.485, 915.6229
1111.967, 913.5583
1112.449, 914.4901
1112.931, 917.0847
1113.414, 920.6924
1113.896, 926.2892
1114.378, 925.3255
1114.860, 915.4636
1115.342, 909.3810
1115.824, 917.1219
1116.306, 930.4960
1116.788, 937.8745
1117.271, 940.4564
1117.753, 940.9912
1118.235, 939.8564
1118.717, 936.7963
1119.199, 930.6372
1119.681, 924.8082
1120.163, 922.9894
1120.645, 924.1876
1121.127, 925.8708
1121.609, 927.8376
1122.092, 929.5720
1122.574, 931.4796
1123.056, 918.4053
1123.538, 932.1435
1124.020, 939.6707
1124.502, 941.3208
1124.984, 919.4910
1125.466, 927.9807
1125.949, 924.3187
1126.431, 920.1594
1126.913, 932.9164
1127.395, 914.5017
1127.877, 926.9904
1128.359, 927.1430
1128.841, 932.9416
1129.323, 926.5144
1129.806, 923.8624
1130.288, 933.4410
1130.770, 936.2479
1131.252, 928.4135
1131.734, 934.5709
1132.216, 915.7292
1132.698, 935.8068
1133.180, 944.8639
1133.662, 949.7117
1134.145, 952.8867
1134.627, 955.2349
1135.109, 957.4729
1135.591, 963.4977
1136.073, 970.1927
1136.555, 969.5129
1137.037, 950.1719
1137.519, 936.5969
1138.001, 930.6230
1138.484, 929.8294
1138.966, 934.4201
1139.448, 941.6189
1139.930, 943.6309
1140.412, 940.7419
1140.894, 939.2554
1141.376, 944.5333
1141.858, 947.8234
1142.341, 945.7610
1142.823, 941.7164
1143.305, 942.5227
1143.787, 946.9518
1144.269, 949.1115
1144.751, 947.7708
1145.233, 946.9587
1145.715, 951.0920
1146.198, 954.1435
1146.680, 952.2537
1147.162, 946.7073
1147.644, 942.7770
1148.126, 940.5899
1148.608, 942.5070
1149.090, 951.2379
1149.572, 959.0004
1150.054, 959.1417
1150.536, 956.0260
1151.019, 953.4431
1151.501, 951.4554
1151.983, 952.0340
1152.465, 955.3801
1152.947, 956.2878
1153.429, 947.6613
1153.911, 940.1686
1154.393, 949.3320
1154.876, 965.0741
1155.358, 968.6429
1155.840, 953.5633
1156.322, 943.3323
1156.804, 938.6929
1157.286, 937.1556
1157.768, 938.5527
1158.250, 940.6123
1158.733, 938.7397
1159.215, 934.7878
1159.697, 936.3192
1160.179, 947.6595
1160.661, 957.6503
1161.143, 965.7083
1161.625, 970.1773
1162.107, 967.5956
1162.589, 960.9309
1163.072, 953.4700
1163.554, 945.9088
1164.036, 944.0406
1164.518, 955.7649
1165.000, 961.9399
1165.482, 956.2057
1165.964, 945.6219
1166.446, 942.5071
1166.928, 944.6345
1167.411, 947.8224
1167.893, 951.7968
1168.375, 952.9294
1168.857, 943.4992
1169.339, 939.9369
1169.821, 952.1366
1170.303, 972.0092
1170.785, 974.8882
1171.268, 965.0533
1171.750, 956.2245
1172.232, 951.8952
1172.714, 951.3497
1173.196, 958.2962
1173.678, 965.2255
1174.160, 967.3019
1174.642, 965.3297
1175.125, 963.9191
1175.607, 963.0906
1176.089, 963.0633
1176.571, 965.7281
1177.053, 966.8304
1177.535, 963.2531
1178.017, 958.1224
1178.499, 952.3922
1178.981, 946.1484
1179.464, 954.1346
1179.946, 975.2680
1180.428, 990.2795
1180.910, 980.1652
1181.392, 968.2314
1181.874, 970.0557
1182.356, 976.2749
1182.838, 970.7007
1183.320, 952.6526
1183.803, 941.7010
1184.285, 939.3962
1184.767, 943.5161
1185.249, 959.6998
1185.731, 974.7113
1186.213, 977.9905
1186.695, 972.7748
1187.177, 967.5798
1187.660, 962.1573
1188.142, 961.9384
1188.624, 968.6823
1189.106, 973.5975
1189.588, 966.0541
1190.070, 955.8392
1190.552, 951.0524
1191.034, 951.3052
1191.516, 950.4940
1191.999, 948.3162
1192.481, 948.2947
1192.963, 951.7835
1193.445, 955.8895
1193.927, 957.6060
1194.409, 958.5578
1194.891, 960.5820
1195.373, 963.8412
1195.855, 966.2766
1196.338, 968.0485
1196.820, 967.3840
1197.302, 962.1866
1197.784, 957.2213
1198.266, 956.7396
1198.748, 960.1111
1199.230, 968.7642
1199.712, 985.2887
1200.195, 987.4038
1200.677, 972.7911
1201.159, 959.9973
1201.641, 959.6175
1202.123, 965.2466
1202.605, 974.3106
1203.087, 982.6550
1203.569, 982.7546
1204.052, 969.7225
1204.534, 960.9976
1205.016, 956.3065
1205.498, 957.1776
1205.980, 971.8578
1206.462, 986.8326
1206.944, 982.1573
1207.426, 966.4122
1207.908, 960.1860
1208.391, 969.7257
1208.873, 975.0693
1209.355, 974.6323
1209.837, 974.3661
1210.319, 983.0854
1210.801, 991.8378
1211.283, 987.3381
1211.765, 973.7144
1212.247, 966.7949
1212.730, 969.8700
1213.212, 972.5166
1213.694, 973.5369
1214.176, 974.6980
1214.658, 979.8627
1215.140, 984.6235
1215.622, 982.8419
1216.104, 975.4703
1216.587, 969.4462
1217.069, 963.8414
1217.551, 965.1408
1218.033, 975.7752
1218.515, 987.5463
1218.997, 992.4359
1219.479, 992.6689
1219.961, 989.2009
1220.443, 982.6550
1220.926, 978.8234
1221.408, 977.8199
1221.890, 980.7623
1222.372, 989.3132
1222.854, 996.9634
1223.336, 995.6939
1223.818, 989.2997
1224.300, 979.7264
1224.782, 967.2793
1225.265, 965.4551
1225.747, 976.9990
1226.229, 985.3608
1226.711, 984.0101
1227.193, 981.4916
1227.675, 991.3572
1228.157, 1004.105
1228.639, 1006.687
1229.122, 996.4113
1229.604, 993.8123
1230.086, 999.8783
1230.568, 1007.573
1231.050, 1016.486
1231.532, 1021.018
1232.014, 1008.102
1232.496, 990.7384
1232.979, 986.2363
1233.461, 997.4011
1233.943, 1005.286
1234.425, 1009.592
1234.907, 1013.072
1235.389, 1017.616
1235.871, 1020.893
1236.353, 1019.852
1236.835, 1016.634
1237.318, 1013.588
1237.800, 1010.426
1238.282, 1012.026
1238.764, 1018.789
1239.246, 1021.558
1239.728, 1010.254
1240.210, 999.1764
1240.692, 1002.269
1241.175, 1012.081
1241.657, 1018.784
1242.139, 1022.242
1242.621, 1020.881
1243.103, 1014.632
1243.585, 1009.758
1244.067, 1010.894
1244.549, 1013.758
1245.031, 1018.457
1245.514, 1021.262
1245.996, 1015.408
1246.478, 999.1586
1246.960, 998.7264
1247.442, 1013.597
1247.924, 1024.437
1248.406, 1013.710
1248.888, 1000.992
1249.370, 996.9743
1249.853, 997.5571
1250.335, 996.7313
1250.817, 994.6829
1251.299, 1000.440
1251.781, 1013.419
1252.263, 1019.900
1252.745, 999.5519
1253.227, 985.0165
1253.710, 997.3160
1254.192, 1018.028
1254.674, 1023.481
1255.156, 1016.035
1255.638, 1012.603
1256.120, 1013.906
1256.602, 1015.330
1257.084, 1014.456
1257.567, 1012.976
1258.049, 1010.425
1258.531, 1008.812
1259.013, 1011.829
1259.495, 1018.163
1259.977, 1022.479
1260.459, 1024.700
1260.941, 1028.782
1261.423, 1041.473
1261.906, 1049.026
1262.388, 1047.441
1262.870, 1041.268
1263.352, 1036.982
1263.834, 1033.235
1264.316, 1024.806
1264.798, 1012.186
1265.280, 1006.190
1265.762, 1012.750
1266.245, 1022.718
1266.727, 1035.928
1267.209, 1048.799
1267.691, 1059.758
1268.173, 1065.381
1268.655, 1054.889
1269.137, 1029.102
1269.619, 1018.031
1270.102, 1029.255
1270.584, 1042.689
1271.066, 1055.898
1271.548, 1064.036
1272.030, 1056.633
1272.512, 1043.356
1272.994, 1034.973
1273.476, 1032.506
1273.958, 1031.078
1274.441, 1029.865
1274.923, 1033.774
1275.405, 1045.164
1275.887, 1055.957
1276.369, 1058.612
1276.851, 1055.941
1277.333, 1047.646
1277.815, 1035.747
1278.297, 1031.145
1278.780, 1034.158
1279.262, 1039.157
1279.744, 1045.495
1280.226, 1049.569
1280.708, 1045.462
1281.190, 1040.805
1281.672, 1041.872
1282.154, 1046.805
1282.637, 1048.730
1283.119, 1047.979
1283.601, 1048.022
1284.083, 1049.929
1284.565, 1050.212
1285.047, 1044.301
1285.529, 1038.929
1286.011, 1037.067
1286.494, 1038.245
1286.976, 1042.630
1287.458, 1048.931
1287.940, 1052.733
1288.422, 1053.016
1288.904, 1051.756
1289.386, 1048.811
1289.868, 1045.362
1290.350, 1041.153
1290.833, 1037.597
1291.315, 1039.058
1291.797, 1042.839
1292.279, 1042.146
1292.761, 1034.453
1293.243, 1035.539
1293.725, 1052.053
1294.207, 1063.113
1294.689, 1060.737
1295.172, 1052.645
1295.654, 1043.875
1296.136, 1039.782
1296.618, 1051.656
1297.100, 1083.167
1297.582, 1096.750
1298.064, 1090.252
1298.546, 1079.609
1299.029, 1068.420
1299.511, 1059.180
1299.993, 1053.544
1300.475, 1051.954
1300.957, 1058.952
1301.439, 1071.681
1301.921, 1068.002
1302.403, 1048.773
1302.885, 1041.327
1303.368, 1056.302
1303.850, 1070.592
1304.332, 1066.692
1304.814, 1057.702
##END=



