##NAMES=Erythrite
##RRUFFID=R050073
##IDEAL CHEMISTRY=Co^2+^_3_(As^5+^O_4_)_2_&#183;8H_2_O
##LOCALITY=Bou Azzer, Morocco
##OWNER=RRUFF
##SOURCE=Rock Currier
##DESCRIPTION=Crimson flattened crystals
##STATUS=The identification of this mineral has been confirmed by X-ray diffraction and chemical analysis
##URL=rruff.info/R050073
##MEASURED CHEMISTRY=(Co_0.65_Mg_0.35_)_3_(As_1.00_O_4_)_2_Â·8H_2_O
189.9621, 2008.849
190.4442, 2039.248
190.9263, 2053.738
191.4084, 2058.454
191.8905, 2068.941
192.3727, 2092.528
192.8548, 2108.501
193.3369, 2106.815
193.8190, 2100.290
194.3011, 2102.264
194.7832, 2118.139
195.2654, 2141.075
195.7475, 2156.082
196.2296, 2159.107
196.7117, 2161.486
197.1938, 2160.709
197.6759, 2162.128
198.1581, 2171.846
198.6402, 2191.711
199.1223, 2216.142
199.6044, 2234.963
200.0865, 2246.656
200.5686, 2255.192
201.0508, 2254.623
201.5329, 2255.452
202.0150, 2268.039
202.4971, 2294.566
202.9792, 2325.842
203.4613, 2345.895
203.9435, 2345.899
204.4256, 2354.624
204.9077, 2374.656
205.3898, 2401.378
205.8719, 2433.144
206.3540, 2469.023
206.8362, 2507.133
207.3183, 2546.400
207.8004, 2590.054
208.2825, 2625.295
208.7646, 2647.556
209.2467, 2666.104
209.7289, 2689.042
210.2110, 2715.526
210.6931, 2736.284
211.1752, 2740.148
211.6573, 2724.439
212.1395, 2700.787
212.6216, 2658.694
213.1037, 2618.273
213.5858, 2593.763
214.0679, 2582.379
214.5500, 2568.656
215.0322, 2535.136
215.5143, 2477.142
215.9964, 2431.179
216.4785, 2410.256
216.9606, 2388.919
217.4427, 2355.202
217.9249, 2312.056
218.4070, 2269.869
218.8891, 2237.106
219.3712, 2213.929
219.8533, 2194.371
220.3354, 2179.827
220.8176, 2167.823
221.2997, 2159.969
221.7818, 2154.191
222.2639, 2146.287
222.7460, 2132.652
223.2281, 2114.215
223.7103, 2102.249
224.1924, 2103.289
224.6745, 2104.152
225.1566, 2101.723
225.6387, 2097.458
226.1208, 2093.228
226.6030, 2089.788
227.0851, 2087.962
227.5672, 2091.932
228.0493, 2112.454
228.5314, 2123.850
229.0135, 2114.026
229.4957, 2096.214
229.9778, 2085.339
230.4599, 2088.169
230.9420, 2100.684
231.4241, 2113.416
231.9062, 2126.718
232.3884, 2139.524
232.8705, 2153.905
233.3526, 2166.639
233.8347, 2173.965
234.3168, 2174.799
234.7989, 2173.097
235.2811, 2176.023
235.7632, 2186.452
236.2453, 2194.719
236.7274, 2196.786
237.2095, 2198.960
237.6916, 2205.663
238.1738, 2217.632
238.6559, 2232.367
239.1380, 2248.470
239.6201, 2268.443
240.1022, 2280.283
240.5843, 2276.127
241.0665, 2269.850
241.5486, 2266.904
242.0307, 2268.043
242.5128, 2272.036
242.9949, 2278.675
243.4770, 2288.389
243.9592, 2295.688
244.4413, 2300.642
244.9234, 2302.804
245.4055, 2299.908
245.8876, 2293.824
246.3697, 2288.907
246.8519, 2287.960
247.3340, 2290.872
247.8161, 2296.804
248.2982, 2307.887
248.7803, 2319.377
249.2624, 2330.588
249.7446, 2340.954
250.2267, 2349.491
250.7088, 2355.487
251.1909, 2359.603
251.6730, 2363.663
252.1551, 2367.501
252.6373, 2371.675
253.1194, 2378.274
253.6015, 2384.514
254.0836, 2386.562
254.5657, 2382.324
255.0478, 2376.153
255.5300, 2378.573
256.0121, 2395.645
256.4942, 2397.962
256.9763, 2360.644
257.4584, 2314.588
257.9406, 2280.752
258.4227, 2263.632
258.9048, 2255.947
259.3869, 2252.574
259.8690, 2253.802
260.3511, 2252.429
260.8333, 2246.738
261.3154, 2238.008
261.7975, 2224.573
262.2796, 2207.191
262.7617, 2194.111
263.2438, 2194.469
263.7260, 2205.539
264.2081, 2210.980
264.6902, 2206.560
265.1723, 2200.133
265.6544, 2199.482
266.1365, 2202.264
266.6187, 2200.381
267.1008, 2184.627
267.5829, 2162.593
268.0650, 2151.441
268.5471, 2154.141
269.0292, 2159.324
269.5114, 2162.008
269.9935, 2161.642
270.4756, 2156.052
270.9577, 2140.943
271.4398, 2123.440
271.9219, 2112.715
272.4041, 2108.997
272.8862, 2102.972
273.3683, 2086.400
273.8504, 2066.470
274.3325, 2057.212
274.8146, 2064.162
275.2968, 2072.905
275.7789, 2072.860
276.2610, 2066.177
276.7431, 2062.410
277.2252, 2066.746
277.7073, 2072.934
278.1895, 2068.997
278.6716, 2052.351
279.1537, 2039.701
279.6358, 2040.626
280.1179, 2048.677
280.6000, 2052.632
281.0822, 2049.760
281.5643, 2044.303
282.0464, 2040.409
282.5285, 2037.976
283.0106, 2038.680
283.4927, 2047.379
283.9749, 2056.352
284.4570, 2057.976
284.9391, 2051.948
285.4212, 2043.001
285.9033, 2032.859
286.3854, 2022.267
286.8676, 2024.317
287.3497, 2054.351
287.8318, 2080.986
288.3139, 2084.547
288.7960, 2071.908
289.2781, 2062.701
289.7603, 2068.175
290.2424, 2084.653
290.7245, 2096.684
291.2066, 2099.784
291.6887, 2104.322
292.1708, 2114.327
292.6530, 2125.724
293.1351, 2132.988
293.6172, 2134.229
294.0993, 2132.297
294.5814, 2131.899
295.0635, 2131.351
295.5457, 2136.222
296.0278, 2149.378
296.5099, 2165.389
296.9920, 2182.018
297.4741, 2198.131
297.9562, 2211.456
298.4384, 2218.912
298.9205, 2218.973
299.4026, 2224.005
299.8847, 2236.053
300.3668, 2250.832
300.8489, 2272.558
301.3311, 2295.884
301.8131, 2308.877
302.2953, 2301.459
302.7774, 2279.826
303.2595, 2276.999
303.7416, 2311.113
304.2237, 2337.685
304.7058, 2346.090
305.1880, 2343.801
305.6701, 2338.560
306.1522, 2333.206
306.6343, 2326.184
307.1164, 2314.473
307.5985, 2297.036
308.0807, 2278.928
308.5628, 2259.404
309.0449, 2240.642
309.5270, 2224.140
310.0091, 2209.974
310.4912, 2197.521
310.9734, 2188.756
311.4555, 2182.774
311.9376, 2168.125
312.4197, 2135.805
312.9018, 2106.889
313.3839, 2097.246
313.8661, 2100.982
314.3482, 2102.970
314.8303, 2094.672
315.3124, 2081.218
315.7945, 2072.093
316.2766, 2068.163
316.7588, 2063.486
317.2409, 2053.697
317.7230, 2041.573
318.2051, 2031.506
318.6872, 2023.634
319.1693, 2018.646
319.6515, 2019.595
320.1336, 2024.749
320.6157, 2025.749
321.0978, 2018.436
321.5799, 2007.861
322.0620, 2002.039
322.5442, 2001.289
323.0263, 2001.479
323.5084, 2001.629
323.9905, 2001.995
324.4726, 2003.177
324.9547, 2005.272
325.4369, 2007.156
325.9190, 2007.455
326.4011, 2005.948
326.8832, 2006.314
327.3653, 2010.323
327.8474, 2014.508
328.3296, 2016.873
328.8117, 2017.759
329.2938, 2018.441
329.7759, 2019.641
330.2580, 2021.270
330.7401, 2022.897
331.2223, 2026.416
331.7044, 2027.565
332.1865, 2024.886
332.6686, 2020.083
333.1507, 2013.856
333.6328, 2006.768
334.1150, 2001.113
334.5971, 2000.233
335.0792, 2004.608
335.5613, 2012.868
336.0434, 2030.029
336.5255, 2046.170
337.0077, 2058.345
337.4898, 2065.157
337.9719, 2064.016
338.4540, 2050.163
338.9361, 2026.085
339.4182, 2015.031
339.9004, 2027.035
340.3825, 2037.754
340.8646, 2040.454
341.3467, 2037.793
341.8288, 2032.372
342.3109, 2024.613
342.7931, 2017.024
343.2752, 2013.642
343.7573, 2014.962
344.2394, 2016.987
344.7215, 2018.876
345.2036, 2021.132
345.6858, 2024.545
346.1679, 2029.091
346.6500, 2033.046
347.1321, 2036.421
347.6142, 2038.372
348.0963, 2036.002
348.5785, 2028.135
349.0606, 2018.604
349.5427, 2007.967
350.0248, 1997.757
350.5069, 1993.329
350.9890, 2001.414
351.4712, 2011.027
351.9533, 2012.336
352.4354, 2006.754
352.9175, 2002.068
353.3996, 2002.368
353.8817, 2005.330
354.3639, 2004.075
354.8460, 1994.183
355.3281, 1989.995
355.8102, 1998.039
356.2923, 2011.958
356.7744, 2026.589
357.2566, 2040.273
357.7387, 2048.469
358.2208, 2044.974
358.7029, 2026.521
359.1850, 2014.495
359.6671, 2005.758
360.1493, 2005.367
360.6314, 2024.232
361.1135, 2052.918
361.5956, 2070.396
362.0777, 2063.111
362.5598, 2039.747
363.0420, 2032.813
363.5241, 2056.456
364.0062, 2074.229
364.4883, 2084.219
364.9704, 2085.881
365.4525, 2073.798
365.9347, 2048.873
366.4168, 2025.631
366.8989, 2023.582
367.3810, 2044.415
367.8631, 2057.414
368.3452, 2053.606
368.8274, 2051.235
369.3095, 2062.010
369.7916, 2081.287
370.2737, 2097.679
370.7558, 2105.433
371.2379, 2107.641
371.7201, 2108.460
372.2022, 2107.639
372.6843, 2107.635
373.1664, 2107.960
373.6485, 2110.899
374.1306, 2120.584
374.6128, 2139.618
375.0949, 2156.435
375.5770, 2163.929
376.0591, 2165.065
376.5412, 2164.371
377.0233, 2162.250
377.5055, 2162.412
377.9876, 2169.752
378.4697, 2185.221
378.9518, 2197.033
379.4339, 2203.704
379.9160, 2207.868
380.3982, 2209.191
380.8803, 2209.090
381.3624, 2211.688
381.8445, 2219.710
382.3266, 2230.215
382.8087, 2234.203
383.2909, 2219.420
383.7730, 2214.362
384.2551, 2230.889
384.7372, 2249.921
385.2193, 2253.101
385.7014, 2239.331
386.1836, 2223.696
386.6657, 2222.880
387.1478, 2237.878
387.6299, 2248.565
388.1120, 2252.781
388.5941, 2254.867
389.0763, 2255.581
389.5584, 2255.341
390.0405, 2254.439
390.5226, 2252.726
391.0047, 2251.202
391.4868, 2251.873
391.9690, 2255.051
392.4511, 2257.409
392.9332, 2257.725
393.4153, 2257.148
393.8974, 2256.662
394.3795, 2256.290
394.8617, 2256.164
395.3438, 2256.906
395.8259, 2257.746
396.3080, 2256.017
396.7901, 2251.177
397.2722, 2250.193
397.7544, 2261.429
398.2365, 2280.648
398.7186, 2286.436
399.2007, 2273.572
399.6828, 2253.563
400.1649, 2218.731
400.6471, 2182.469
401.1292, 2171.820
401.6113, 2195.815
402.0934, 2230.921
402.5755, 2241.774
403.0576, 2217.281
403.5398, 2201.463
404.0219, 2198.720
404.5040, 2199.120
404.9861, 2198.269
405.4682, 2196.226
405.9503, 2195.004
406.4325, 2196.261
406.9146, 2198.413
407.3967, 2194.810
407.8788, 2179.803
408.3609, 2170.826
408.8430, 2175.292
409.3252, 2183.858
409.8073, 2190.823
410.2894, 2194.860
410.7715, 2194.734
411.2536, 2184.480
411.7357, 2167.634
412.2179, 2165.272
412.7000, 2185.053
413.1821, 2204.140
413.6642, 2199.979
414.1463, 2184.270
414.6284, 2181.017
415.1106, 2202.865
415.5927, 2228.285
416.0748, 2241.220
416.5569, 2244.849
417.0390, 2249.015
417.5211, 2257.199
418.0033, 2266.490
418.4854, 2272.381
418.9675, 2273.547
419.4496, 2275.648
419.9317, 2275.669
420.4138, 2279.308
420.8960, 2294.924
421.3781, 2318.334
421.8602, 2335.417
422.3423, 2336.147
422.8244, 2325.626
423.3065, 2326.189
423.7887, 2346.538
424.2708, 2364.815
424.7529, 2375.968
425.2350, 2386.190
425.7171, 2400.649
426.1992, 2420.007
426.6814, 2441.020
427.1635, 2460.609
427.6456, 2479.097
428.1277, 2498.106
428.6098, 2516.300
429.0919, 2537.634
429.5741, 2570.080
430.0562, 2605.472
430.5383, 2630.316
431.0204, 2637.975
431.5025, 2642.045
431.9846, 2654.299
432.4668, 2672.406
432.9489, 2686.969
433.4310, 2694.324
433.9131, 2701.840
434.3952, 2718.340
434.8773, 2744.538
435.3595, 2773.238
435.8416, 2808.019
436.3237, 2841.578
436.8058, 2871.678
437.2879, 2896.960
437.7701, 2915.046
438.2522, 2924.551
438.7343, 2927.001
439.2164, 2925.605
439.6985, 2914.954
440.1806, 2910.303
440.6628, 2916.169
441.1449, 2923.835
441.6270, 2928.929
442.1091, 2930.679
442.5912, 2929.132
443.0733, 2922.776
443.5555, 2913.736
444.0376, 2911.436
444.5197, 2919.248
445.0018, 2924.340
445.4839, 2920.245
445.9660, 2911.710
446.4482, 2902.580
446.9303, 2893.212
447.4124, 2884.380
447.8945, 2876.725
448.3766, 2869.908
448.8587, 2862.999
449.3409, 2855.762
449.8230, 2849.559
450.3051, 2845.114
450.7872, 2842.647
451.2693, 2843.028
451.7514, 2848.686
452.2336, 2854.126
452.7157, 2856.241
453.1978, 2857.521
453.6799, 2861.394
454.1620, 2868.852
454.6441, 2878.833
455.1263, 2890.819
455.6084, 2906.189
456.0905, 2915.651
456.5726, 2917.179
457.0547, 2914.369
457.5368, 2906.993
458.0190, 2896.194
458.5011, 2883.045
458.9832, 2867.577
459.4653, 2851.863
459.9474, 2838.770
460.4295, 2828.371
460.9117, 2819.735
461.3938, 2817.083
461.8759, 2809.937
462.3580, 2785.638
462.8401, 2747.526
463.3222, 2712.603
463.8044, 2690.247
464.2865, 2669.075
464.7686, 2635.947
465.2507, 2594.410
465.7328, 2560.365
466.2149, 2542.022
466.6971, 2530.123
467.1792, 2506.593
467.6613, 2462.097
468.1434, 2425.344
468.6255, 2401.754
469.1076, 2380.980
469.5898, 2354.866
470.0719, 2325.865
470.5540, 2302.846
471.0361, 2291.721
471.5182, 2289.095
472.0003, 2285.712
472.4825, 2282.931
472.9646, 2275.700
473.4467, 2258.972
473.9288, 2240.208
474.4109, 2223.174
474.8930, 2208.392
475.3752, 2196.111
475.8573, 2188.954
476.3394, 2183.425
476.8215, 2171.770
477.3036, 2153.778
477.7857, 2139.312
478.2679, 2134.237
478.7500, 2135.050
479.2321, 2133.598
479.7142, 2130.366
480.1963, 2124.346
480.6784, 2111.612
481.1606, 2098.509
481.6427, 2092.016
482.1248, 2091.577
482.6069, 2091.031
483.0890, 2085.729
483.5711, 2076.473
484.0533, 2067.100
484.5354, 2053.371
485.0175, 2046.933
485.4996, 2054.799
485.9817, 2065.854
486.4638, 2072.537
486.9460, 2073.498
487.4281, 2069.696
487.9102, 2058.869
488.3923, 2043.991
488.8744, 2034.158
489.3565, 2029.838
489.8387, 2028.528
490.3208, 2030.735
490.8029, 2034.353
491.2850, 2035.187
491.7671, 2032.953
492.2492, 2028.881
492.7314, 2020.536
493.2135, 2012.176
493.6956, 2010.100
494.1777, 2014.019
494.6598, 2016.988
495.1419, 2013.238
495.6241, 2004.329
496.1062, 2000.426
496.5883, 2007.074
497.0704, 2011.069
497.5525, 2009.818
498.0346, 2006.436
498.5168, 2003.717
498.9989, 2001.815
499.4810, 1998.603
499.9631, 1989.923
500.4452, 1978.609
500.9273, 1977.673
501.4095, 1990.490
501.8916, 1999.121
502.3737, 1991.894
502.8558, 1978.189
503.3379, 1973.849
503.8200, 1981.895
504.3022, 1987.684
504.7843, 1982.118
505.2664, 1973.495
505.7485, 1971.972
506.2306, 1977.713
506.7127, 1984.647
507.1949, 1988.837
507.6770, 1990.860
508.1591, 1993.131
508.6412, 1994.160
509.1233, 1997.811
509.6054, 2011.890
510.0876, 2022.735
510.5697, 2015.989
511.0518, 1994.644
511.5339, 1976.403
512.0161, 1976.032
512.4982, 1986.578
512.9803, 1987.552
513.4624, 1976.690
513.9445, 1970.326
514.4266, 1977.488
514.9088, 1989.043
515.3909, 1992.793
515.8730, 1988.216
516.3551, 1983.273
516.8372, 1979.432
517.3193, 1976.961
517.8015, 1977.169
518.2836, 1979.209
518.7657, 1979.946
519.2478, 1977.697
519.7299, 1973.220
520.2120, 1968.042
520.6942, 1959.985
521.1763, 1955.500
521.6584, 1954.506
522.1405, 1956.658
522.6226, 1964.112
523.1047, 1974.557
523.5869, 1982.943
524.0690, 1987.073
524.5511, 1986.946
525.0332, 1980.407
525.5153, 1967.520
525.9974, 1958.757
526.4796, 1957.485
526.9617, 1959.648
527.4438, 1963.110
527.9259, 1967.411
528.4080, 1966.409
528.8901, 1948.877
529.3723, 1936.055
529.8544, 1947.271
530.3365, 1970.985
530.8186, 1983.302
531.3007, 1976.311
531.7828, 1962.388
532.2650, 1959.829
532.7471, 1972.291
533.2292, 1972.970
533.7113, 1946.078
534.1934, 1925.430
534.6755, 1924.333
535.1577, 1934.267
535.6398, 1944.772
536.1219, 1953.354
536.6040, 1957.826
537.0861, 1953.903
537.5682, 1944.159
538.0504, 1935.007
538.5325, 1926.262
539.0146, 1926.527
539.4967, 1947.730
539.9788, 1982.679
540.4609, 1995.355
540.9431, 1966.174
541.4252, 1944.333
541.9073, 1945.433
542.3894, 1954.598
542.8715, 1959.270
543.3536, 1957.345
543.8358, 1950.871
544.3179, 1940.052
544.8000, 1927.393
545.2821, 1925.199
545.7642, 1938.264
546.2463, 1948.679
546.7285, 1951.690
547.2106, 1950.373
547.6927, 1944.918
548.1748, 1936.110
548.6569, 1930.414
549.1390, 1935.539
549.6211, 1941.777
550.1032, 1936.586
550.5853, 1922.391
551.0674, 1909.689
551.5496, 1902.107
552.0317, 1900.405
552.5138, 1906.450
552.9959, 1923.507
553.4780, 1937.414
553.9601, 1950.368
554.4423, 1958.414
554.9244, 1957.676
555.4065, 1951.699
555.8886, 1946.235
556.3707, 1943.424
556.8528, 1939.886
557.3350, 1927.238
557.8171, 1908.002
558.2992, 1905.710
558.7813, 1928.021
559.2634, 1949.843
559.7455, 1954.391
560.2277, 1945.550
560.7098, 1937.048
561.1919, 1925.459
561.6740, 1920.359
562.1561, 1929.734
562.6382, 1944.042
563.1204, 1955.871
563.6025, 1962.847
564.0846, 1960.825
564.5667, 1944.785
565.0488, 1920.915
565.5309, 1915.693
566.0131, 1940.408
566.4952, 1955.198
566.9773, 1941.945
567.4594, 1925.709
567.9415, 1924.287
568.4236, 1934.817
568.9058, 1940.770
569.3879, 1930.701
569.8700, 1917.067
570.3521, 1912.652
570.8342, 1915.335
571.3163, 1918.083
571.7985, 1918.754
572.2806, 1918.863
572.7627, 1920.078
573.2448, 1922.386
573.7269, 1926.037
574.2090, 1935.367
574.6912, 1940.851
575.1733, 1935.977
575.6554, 1928.186
576.1375, 1927.072
576.6196, 1934.180
577.1017, 1940.970
577.5839, 1938.459
578.0660, 1929.451
578.5481, 1923.311
579.0302, 1920.370
579.5123, 1918.467
579.9944, 1916.218
580.4766, 1914.816
580.9587, 1917.220
581.4408, 1924.453
581.9229, 1930.428
582.4050, 1935.929
582.8871, 1938.430
583.3693, 1930.869
583.8514, 1919.627
584.3335, 1920.427
584.8156, 1940.622
585.2977, 1966.088
585.7798, 1973.972
586.2620, 1962.891
586.7441, 1948.867
587.2262, 1927.117
587.7083, 1911.488
588.1904, 1914.676
588.6725, 1927.824
589.1547, 1936.658
589.6368, 1937.694
590.1189, 1938.683
590.6010, 1945.689
591.0831, 1953.494
591.5652, 1954.375
592.0474, 1948.643
592.5295, 1942.661
593.0116, 1940.714
593.4937, 1941.308
593.9758, 1939.668
594.4579, 1934.600
594.9401, 1930.159
595.4222, 1927.824
595.9043, 1925.153
596.3864, 1920.237
596.8685, 1914.034
597.3506, 1908.850
597.8328, 1904.958
598.3149, 1903.524
598.7970, 1908.438
599.2791, 1916.393
599.7612, 1916.840
600.2433, 1907.713
600.7255, 1900.752
601.2076, 1907.091
601.6897, 1924.393
602.1718, 1933.527
602.6539, 1928.806
603.1360, 1923.271
603.6182, 1913.578
604.1003, 1906.818
604.5824, 1912.794
605.0645, 1927.709
605.5466, 1934.972
606.0287, 1920.353
606.5109, 1899.395
606.9930, 1896.958
607.4751, 1910.859
607.9572, 1924.667
608.4393, 1935.322
608.9214, 1941.024
609.4036, 1938.586
609.8857, 1927.959
610.3678, 1921.520
610.8499, 1920.819
611.3320, 1921.912
611.8141, 1926.990
612.2963, 1931.492
612.7784, 1928.791
613.2605, 1919.731
613.7426, 1913.138
614.2247, 1917.022
614.7068, 1926.980
615.1890, 1933.996
615.6711, 1938.304
616.1532, 1931.776
616.6353, 1904.862
617.1174, 1879.439
617.5995, 1886.066
618.0817, 1925.557
618.5638, 1945.054
619.0459, 1924.610
619.5280, 1904.596
620.0101, 1902.177
620.4922, 1908.144
620.9744, 1911.070
621.4565, 1908.464
621.9386, 1903.701
622.4207, 1898.779
622.9028, 1894.563
623.3849, 1894.310
623.8671, 1897.965
624.3492, 1906.628
624.8313, 1924.604
625.3134, 1943.237
625.7955, 1952.127
626.2776, 1951.901
626.7598, 1947.404
627.2419, 1929.997
627.7240, 1918.497
628.2061, 1928.212
628.6882, 1947.574
629.1703, 1959.819
629.6525, 1961.038
630.1346, 1957.603
630.6167, 1954.885
631.0988, 1952.988
631.5809, 1951.675
632.0630, 1949.643
632.5452, 1953.908
633.0273, 1972.431
633.5094, 1992.565
633.9915, 1999.531
634.4736, 1994.027
634.9557, 1988.048
635.4379, 1981.076
635.9200, 1977.229
636.4021, 1980.712
636.8842, 1988.146
637.3663, 1995.760
637.8484, 2001.932
638.3306, 2003.644
638.8127, 1996.071
639.2948, 1981.724
639.7769, 1977.533
640.2590, 1987.204
640.7411, 1993.448
641.2233, 1986.799
641.7054, 1979.143
642.1875, 1986.067
642.6696, 2005.890
643.1517, 2016.863
643.6339, 2004.094
644.1160, 1992.504
644.5981, 1998.721
645.0802, 2013.800
645.5623, 2024.443
646.0444, 2027.590
646.5266, 2027.579
647.0087, 2028.716
647.4908, 2029.896
647.9729, 2024.411
648.4550, 2009.595
648.9371, 1998.988
649.4193, 1996.756
649.9014, 1999.215
650.3835, 2004.575
650.8656, 2012.135
651.3477, 2016.817
651.8298, 2013.462
652.3120, 2011.970
652.7941, 2020.954
653.2762, 2032.643
653.7583, 2035.686
654.2404, 2029.101
654.7225, 2020.461
655.2047, 2015.316
655.6868, 2013.546
656.1689, 2016.427
656.6510, 2025.586
657.1331, 2028.724
657.6152, 2019.802
658.0974, 2009.186
658.5795, 2007.641
659.0616, 2012.830
659.5437, 2014.320
660.0258, 2007.478
660.5079, 2001.408
660.9901, 2000.921
661.4722, 2001.632
661.9543, 1997.255
662.4364, 1988.846
662.9185, 1983.894
663.4006, 1988.079
663.8828, 1996.760
664.3649, 2000.636
664.8470, 1999.676
665.3291, 1994.101
665.8112, 1981.966
666.2933, 1969.765
666.7755, 1961.641
667.2576, 1957.506
667.7397, 1956.282
668.2218, 1960.504
668.7039, 1963.497
669.1860, 1963.940
669.6682, 1962.720
670.1503, 1959.294
670.6324, 1954.859
671.1145, 1951.980
671.5966, 1951.883
672.0787, 1954.089
672.5609, 1959.489
673.0430, 1967.222
673.5251, 1970.993
674.0072, 1970.037
674.4893, 1965.559
674.9714, 1955.953
675.4536, 1945.109
675.9357, 1944.028
676.4178, 1960.898
676.8999, 1969.524
677.3820, 1964.839
677.8641, 1956.254
678.3463, 1946.231
678.8284, 1936.534
679.3105, 1929.331
679.7926, 1925.322
680.2747, 1923.053
680.7568, 1919.249
681.2390, 1916.679
681.7211, 1925.230
682.2032, 1944.362
682.6853, 1957.659
683.1674, 1957.322
683.6495, 1950.200
684.1317, 1947.270
684.6138, 1950.412
685.0959, 1947.776
685.5780, 1930.118
686.0601, 1917.741
686.5422, 1920.013
687.0244, 1927.211
687.5065, 1928.673
687.9886, 1923.424
688.4707, 1918.820
688.9528, 1919.295
689.4349, 1922.336
689.9171, 1928.755
690.3992, 1935.339
690.8813, 1929.142
691.3634, 1907.121
691.8455, 1887.546
692.3276, 1890.105
692.8098, 1911.700
693.2919, 1924.768
693.7740, 1925.722
694.2561, 1926.099
694.7382, 1929.090
695.2203, 1931.107
695.7025, 1927.848
696.1846, 1921.251
696.6667, 1918.886
697.1488, 1926.810
697.6309, 1933.048
698.1130, 1924.959
698.5952, 1915.141
699.0773, 1923.888
699.5594, 1948.550
700.0415, 1967.526
700.5236, 1967.105
701.0057, 1955.756
701.4879, 1951.169
701.9700, 1953.810
702.4521, 1952.848
702.9342, 1946.074
703.4163, 1938.776
703.8984, 1932.865
704.3806, 1929.067
704.8627, 1930.288
705.3448, 1941.372
705.8269, 1943.347
706.3090, 1922.445
706.7911, 1902.901
707.2733, 1901.763
707.7554, 1911.158
708.2375, 1916.524
708.7196, 1913.523
709.2017, 1909.195
709.6838, 1909.692
710.1660, 1914.055
710.6481, 1921.857
711.1302, 1932.606
711.6123, 1937.708
712.0944, 1933.352
712.5765, 1925.183
713.0587, 1919.058
713.5408, 1914.688
714.0229, 1918.906
714.5050, 1945.036
714.9871, 1961.369
715.4692, 1953.970
715.9514, 1942.176
716.4335, 1942.158
716.9156, 1952.760
717.3977, 1962.574
717.8798, 1967.834
718.3619, 1969.599
718.8441, 1968.219
719.3262, 1964.123
719.8083, 1955.480
720.2904, 1943.702
720.7725, 1937.906
721.2546, 1945.067
721.7368, 1958.714
722.2189, 1961.695
722.7010, 1951.438
723.1831, 1949.706
723.6652, 1964.961
724.1473, 1975.146
724.6295, 1962.799
725.1116, 1939.025
725.5937, 1926.300
726.0758, 1926.394
726.5579, 1931.962
727.0400, 1953.156
727.5222, 1967.837
728.0043, 1956.261
728.4864, 1931.698
728.9685, 1915.283
729.4506, 1912.866
729.9327, 1917.127
730.4149, 1923.827
730.8970, 1931.586
731.3791, 1937.930
731.8612, 1942.699
732.3433, 1943.704
732.8254, 1939.854
733.3076, 1935.223
733.7897, 1934.475
734.2718, 1937.037
734.7539, 1935.172
735.2360, 1926.642
735.7181, 1917.324
736.2003, 1901.093
736.6824, 1890.492
737.1645, 1899.953
737.6466, 1921.041
738.1287, 1929.318
738.6108, 1911.919
739.0930, 1896.568
739.5751, 1902.958
740.0572, 1916.980
740.5393, 1921.572
741.0214, 1918.220
741.5035, 1917.705
741.9857, 1925.093
742.4678, 1935.034
742.9499, 1940.663
743.4320, 1942.034
743.9141, 1939.202
744.3962, 1931.100
744.8784, 1924.497
745.3605, 1921.713
745.8426, 1922.018
746.3247, 1924.514
746.8068, 1929.268
747.2889, 1936.041
747.7711, 1950.163
748.2532, 1959.381
748.7353, 1953.408
749.2174, 1946.881
749.6995, 1956.897
750.1816, 1979.847
750.6638, 1995.369
751.1459, 1990.751
751.6280, 1981.228
752.1101, 1980.406
752.5922, 1984.818
753.0743, 1988.394
753.5565, 1990.351
754.0386, 1992.145
754.5207, 1994.729
755.0028, 1996.860
755.4849, 1995.446
755.9670, 1989.861
756.4492, 1986.186
756.9313, 1983.336
757.4134, 1985.766
757.8955, 1999.167
758.3776, 2016.151
758.8597, 2025.623
759.3419, 2027.307
759.8240, 2026.386
760.3061, 2017.313
760.7882, 2012.820
761.2703, 2018.318
761.7524, 2030.360
762.2346, 2049.388
762.7167, 2072.155
763.1988, 2087.069
763.6809, 2084.410
764.1630, 2076.704
764.6451, 2078.621
765.1273, 2086.747
765.6094, 2090.825
766.0915, 2090.377
766.5736, 2095.650
767.0557, 2113.215
767.5378, 2139.214
768.0200, 2166.432
768.5021, 2195.602
768.9842, 2220.504
769.4663, 2238.619
769.9484, 2257.678
770.4305, 2285.042
770.9127, 2312.389
771.3948, 2323.490
771.8769, 2315.836
772.3590, 2324.564
772.8411, 2364.054
773.3232, 2408.075
773.8054, 2452.151
774.2875, 2491.971
774.7696, 2519.480
775.2517, 2537.628
775.7338, 2560.747
776.2159, 2596.452
776.6981, 2640.837
777.1802, 2693.070
777.6623, 2749.791
778.1444, 2802.393
778.6265, 2850.398
779.1086, 2900.712
779.5908, 2956.989
780.0729, 3016.978
780.5550, 3073.428
781.0371, 3123.742
781.5192, 3199.283
782.0013, 3312.852
782.4835, 3418.020
782.9656, 3493.592
783.4477, 3555.293
783.9298, 3618.818
784.4119, 3683.722
784.8940, 3763.542
785.3762, 3874.111
785.8583, 3979.606
786.3404, 4063.505
786.8225, 4143.680
787.3046, 4239.407
787.7867, 4346.790
788.2689, 4447.561
788.7510, 4533.457
789.2331, 4614.272
789.7152, 4699.454
790.1973, 4785.250
790.6794, 4869.994
791.1616, 4950.940
791.6437, 5018.185
792.1258, 5068.010
792.6079, 5110.251
793.0900, 5160.383
793.5721, 5216.260
794.0543, 5258.951
794.5364, 5290.493
795.0185, 5293.988
795.5006, 5256.208
795.9827, 5207.383
796.4648, 5182.644
796.9470, 5176.613
797.4291, 5132.542
797.9112, 5012.517
798.3933, 4908.708
798.8754, 4836.916
799.3575, 4770.601
799.8397, 4706.952
800.3218, 4634.318
800.8039, 4524.313
801.2860, 4363.119
801.7681, 4220.697
802.2502, 4148.499
802.7324, 4095.984
803.2145, 4024.003
803.6966, 3934.939
804.1787, 3833.971
804.6608, 3724.800
805.1429, 3617.165
805.6251, 3518.994
806.1072, 3428.142
806.5893, 3340.293
807.0714, 3255.328
807.5535, 3174.570
808.0356, 3098.016
808.5178, 3027.158
808.9999, 2963.024
809.4820, 2904.284
809.9641, 2848.557
810.4462, 2794.862
810.9283, 2747.158
811.4105, 2706.531
811.8926, 2669.873
812.3747, 2638.549
812.8568, 2609.091
813.3389, 2578.303
813.8210, 2546.181
814.3032, 2511.991
814.7853, 2472.309
815.2674, 2434.916
815.7495, 2399.423
816.2316, 2369.780
816.7137, 2356.111
817.1959, 2351.280
817.6780, 2331.961
818.1601, 2284.422
818.6422, 2239.342
819.1243, 2227.556
819.6064, 2231.884
820.0886, 2226.814
820.5707, 2213.030
821.0528, 2199.963
821.5349, 2190.889
822.0170, 2182.843
822.4991, 2172.195
822.9813, 2159.922
823.4634, 2151.335
823.9455, 2146.764
824.4276, 2136.466
824.9097, 2116.621
825.3918, 2097.481
825.8740, 2085.387
826.3561, 2080.957
826.8382, 2087.952
827.3203, 2119.546
827.8024, 2131.856
828.2845, 2105.701
828.7667, 2083.719
829.2488, 2084.424
829.7309, 2095.511
830.2130, 2103.677
830.6951, 2107.984
831.1772, 2109.811
831.6594, 2103.612
832.1415, 2102.183
832.6236, 2118.679
833.1057, 2137.059
833.5878, 2137.806
834.0699, 2125.044
834.5521, 2117.151
835.0342, 2122.304
835.5163, 2134.218
835.9984, 2151.345
836.4805, 2169.182
836.9626, 2177.641
837.4448, 2179.699
837.9269, 2188.496
838.4090, 2208.136
838.8911, 2229.501
839.3732, 2240.942
839.8553, 2248.051
840.3375, 2274.738
840.8196, 2321.486
841.3017, 2362.641
841.7838, 2393.408
842.2659, 2419.387
842.7480, 2443.246
843.2302, 2466.604
843.7123, 2493.342
844.1944, 2522.022
844.6765, 2559.552
845.1586, 2612.650
845.6407, 2664.488
846.1229, 2703.920
846.6050, 2743.615
847.0871, 2799.371
847.5692, 2869.559
848.0513, 2931.788
848.5334, 2976.543
849.0156, 3022.171
849.4977, 3075.004
849.9798, 3129.344
850.4619, 3178.993
850.9440, 3227.399
851.4261, 3283.740
851.9083, 3351.914
852.3904, 3415.238
852.8725, 3461.867
853.3546, 3499.651
853.8367, 3536.626
854.3188, 3571.754
854.8010, 3603.264
855.2831, 3630.289
855.7652, 3651.437
856.2473, 3666.620
856.7294, 3672.328
857.2115, 3660.991
857.6937, 3634.600
858.1758, 3600.418
858.6579, 3559.336
859.1400, 3514.493
859.6221, 3466.935
860.1042, 3418.248
860.5864, 3370.670
861.0685, 3324.281
861.5506, 3274.081
862.0327, 3219.231
862.5148, 3162.939
862.9969, 3102.536
863.4791, 3046.548
863.9612, 3004.081
864.4433, 2970.508
864.9254, 2929.845
865.4075, 2879.963
865.8896, 2827.041
866.3718, 2764.366
866.8539, 2706.410
867.3360, 2659.227
867.8181, 2618.640
868.3002, 2580.929
868.7823, 2545.653
869.2645, 2511.988
869.7466, 2483.143
870.2287, 2451.693
870.7108, 2413.928
871.1929, 2373.192
871.6750, 2329.183
872.1572, 2285.524
872.6393, 2248.746
873.1214, 2220.937
873.6035, 2201.132
874.0856, 2195.937
874.5677, 2192.171
875.0499, 2172.326
875.5320, 2143.034
876.0141, 2119.964
876.4962, 2104.889
876.9783, 2086.521
877.4604, 2056.136
877.9426, 2023.135
878.4247, 2003.692
878.9068, 1994.748
879.3889, 1984.335
879.8710, 1972.057
880.3531, 1965.549
880.8353, 1968.441
881.3174, 1969.829
881.7995, 1954.500
882.2816, 1927.027
882.7637, 1919.313
883.2458, 1935.128
883.7280, 1941.621
884.2101, 1930.646
884.6922, 1919.436
885.1743, 1920.318
885.6564, 1926.742
886.1385, 1923.363
886.6207, 1906.007
887.1028, 1898.150
887.5849, 1907.272
888.0670, 1913.810
888.5491, 1909.307
889.0313, 1903.182
889.5134, 1905.323
889.9955, 1913.230
890.4776, 1915.233
890.9597, 1905.988
891.4418, 1899.112
891.9240, 1900.620
892.4061, 1900.365
892.8882, 1889.734
893.3703, 1875.797
893.8524, 1869.961
894.3345, 1872.869
894.8167, 1871.983
895.2988, 1854.090
895.7809, 1841.170
896.2630, 1852.602
896.7451, 1869.017
897.2272, 1865.918
897.7094, 1850.511
898.1915, 1847.435
898.6736, 1865.574
899.1557, 1885.520
899.6378, 1893.974
900.1199, 1893.864
900.6021, 1885.188
901.0842, 1871.870
901.5663, 1859.942
902.0484, 1851.626
902.5305, 1851.406
903.0126, 1863.294
903.4948, 1876.992
903.9769, 1876.146
904.4590, 1864.959
904.9411, 1856.482
905.4232, 1850.812
905.9053, 1841.638
906.3875, 1827.026
906.8696, 1819.401
907.3517, 1833.599
907.8338, 1859.152
908.3159, 1857.024
908.7980, 1826.895
909.2802, 1818.619
909.7623, 1840.865
910.2444, 1857.483
910.7265, 1849.710
911.2086, 1831.577
911.6907, 1823.687
912.1729, 1825.823
912.6550, 1819.427
913.1371, 1799.413
913.6192, 1787.525
914.1013, 1791.061
914.5834, 1796.504
915.0656, 1794.078
915.5477, 1788.039
916.0298, 1789.215
916.5119, 1802.088
916.9940, 1805.229
917.4761, 1792.162
917.9583, 1778.526
918.4404, 1764.837
918.9225, 1754.518
919.4046, 1751.754
919.8867, 1754.737
920.3688, 1756.704
920.8510, 1756.131
921.3331, 1756.816
921.8152, 1766.078
922.2973, 1768.880
922.7794, 1749.969
923.2615, 1726.228
923.7437, 1720.193
924.2258, 1730.736
924.7079, 1735.192
925.1900, 1722.186
925.6721, 1709.597
926.1542, 1702.435
926.6364, 1700.677
927.1185, 1710.360
927.6006, 1723.021
928.0827, 1722.874
928.5648, 1707.551
929.0469, 1693.168
929.5291, 1688.957
930.0112, 1688.657
930.4933, 1690.047
930.9754, 1690.964
931.4575, 1688.236
931.9396, 1682.587
932.4218, 1677.492
932.9039, 1674.107
933.3860, 1668.087
933.8681, 1650.164
934.3502, 1631.982
934.8323, 1630.716
935.3145, 1640.080
935.7966, 1649.742
936.2787, 1656.595
936.7608, 1656.633
937.2429, 1647.386
937.7250, 1635.939
938.2072, 1631.017
938.6893, 1630.257
939.1714, 1629.079
939.6535, 1627.111
940.1356, 1622.211
940.6177, 1614.478
941.0999, 1609.554
941.5820, 1611.589
942.0641, 1617.731
942.5462, 1624.195
943.0283, 1630.364
943.5104, 1633.824
943.9926, 1634.237
944.4747, 1627.063
944.9568, 1610.687
945.4389, 1594.378
945.9210, 1586.096
946.4031, 1585.022
946.8853, 1591.572
947.3674, 1605.670
947.8495, 1609.257
948.3316, 1600.024
948.8137, 1595.071
949.2958, 1602.208
949.7780, 1609.594
950.2601, 1602.878
950.7422, 1585.711
951.2243, 1578.554
951.7064, 1583.492
952.1885, 1584.566
952.6707, 1579.222
953.1528, 1573.544
953.6349, 1569.043
954.1170, 1568.710
954.5991, 1578.508
955.0812, 1597.477
955.5634, 1604.913
956.0455, 1597.297
956.5276, 1588.786
957.0097, 1580.850
957.4918, 1572.301
957.9739, 1561.215
958.4561, 1550.467
958.9382, 1544.623
959.4203, 1543.771
959.9024, 1546.749
960.3845, 1557.139
960.8666, 1564.214
961.3488, 1566.248
961.8309, 1564.755
962.3130, 1558.393
962.7951, 1550.264
963.2772, 1547.168
963.7593, 1550.892
964.2415, 1550.052
964.7236, 1540.309
965.2057, 1532.310
965.6878, 1524.888
966.1699, 1522.591
966.6520, 1531.245
967.1342, 1546.508
967.6163, 1559.596
968.0984, 1571.982
968.5805, 1575.351
969.0626, 1559.738
969.5447, 1547.913
970.0269, 1553.491
970.5090, 1557.716
970.9911, 1538.960
971.4732, 1508.435
971.9553, 1498.563
972.4374, 1520.215
972.9196, 1534.081
973.4017, 1528.750
973.8838, 1522.609
974.3659, 1521.154
974.8480, 1522.403
975.3301, 1526.795
975.8123, 1532.133
976.2944, 1531.440
976.7765, 1520.485
977.2586, 1514.038
977.7407, 1522.601
978.2228, 1527.567
978.7050, 1513.134
979.1871, 1497.158
979.6692, 1501.246
980.1513, 1519.971
980.6334, 1529.418
981.1155, 1521.212
981.5977, 1513.800
982.0798, 1514.154
982.5619, 1514.867
983.0440, 1510.167
983.5261, 1505.250
984.0082, 1507.570
984.4904, 1515.287
984.9725, 1519.118
985.4546, 1515.017
985.9367, 1511.740
986.4188, 1514.679
986.9009, 1516.799
987.3831, 1511.111
987.8652, 1504.281
988.3473, 1508.115
988.8294, 1519.060
989.3115, 1517.403
989.7936, 1489.764
990.2758, 1471.303
990.7579, 1485.476
991.2400, 1503.638
991.7221, 1509.153
992.2042, 1506.821
992.6863, 1501.280
993.1685, 1494.712
993.6506, 1492.325
994.1327, 1499.098
994.6148, 1500.629
995.0969, 1481.113
995.5790, 1464.279
996.0612, 1472.266
996.5433, 1488.694
997.0254, 1491.178
997.5075, 1480.354
997.9896, 1472.401
998.4717, 1473.322
998.9539, 1476.216
999.4360, 1481.103
999.9181, 1483.432
1000.400, 1474.883
1000.882, 1465.187
1001.364, 1469.066
1001.847, 1484.485
1002.329, 1496.412
1002.811, 1500.345
1003.293, 1498.191
1003.775, 1486.187
1004.257, 1473.452
1004.739, 1464.216
1005.221, 1459.378
1005.703, 1462.377
1006.186, 1470.708
1006.668, 1474.481
1007.150, 1468.774
1007.632, 1463.715
1008.114, 1463.910
1008.596, 1466.277
1009.078, 1471.441
1009.560, 1475.846
1010.043, 1473.197
1010.525, 1465.730
1011.007, 1464.070
1011.489, 1473.950
1011.971, 1480.506
1012.453, 1473.796
1012.935, 1465.922
1013.417, 1464.200
1013.899, 1465.375
1014.382, 1468.357
1014.864, 1470.455
1015.346, 1463.361
1015.828, 1441.247
1016.310, 1425.530
1016.792, 1425.221
1017.274, 1432.531
1017.756, 1452.080
1018.239, 1470.140
1018.721, 1468.950
1019.203, 1454.413
1019.685, 1448.513
1020.167, 1459.238
1020.649, 1463.607
1021.131, 1443.939
1021.613, 1428.937
1022.095, 1439.964
1022.578, 1454.747
1023.060, 1450.092
1023.542, 1432.333
1024.024, 1421.525
1024.506, 1422.423
1024.988, 1423.148
1025.470, 1416.843
1025.952, 1414.832
1026.435, 1425.808
1026.917, 1438.618
1027.399, 1445.667
1027.881, 1447.160
1028.363, 1442.963
1028.845, 1431.591
1029.327, 1427.532
1029.809, 1440.665
1030.292, 1451.345
1030.774, 1456.921
1031.256, 1455.795
1031.738, 1439.175
1032.220, 1418.373
1032.702, 1414.899
1033.184, 1431.682
1033.666, 1445.227
1034.148, 1455.290
1034.630, 1458.829
1035.113, 1450.816
1035.595, 1441.073
1036.077, 1435.082
1036.559, 1430.660
1037.041, 1422.358
1037.523, 1409.722
1038.005, 1408.071
1038.487, 1426.422
1038.970, 1441.398
1039.452, 1456.512
1039.934, 1461.515
1040.416, 1443.192
1040.898, 1419.837
1041.380, 1414.912
1041.862, 1426.447
1042.344, 1432.462
1042.826, 1430.937
1043.309, 1427.882
1043.791, 1420.474
1044.273, 1417.633
1044.755, 1426.519
1045.237, 1435.602
1045.719, 1431.497
1046.201, 1418.028
1046.683, 1413.024
1047.166, 1418.399
1047.648, 1426.731
1048.130, 1441.375
1048.612, 1448.419
1049.094, 1442.144
1049.576, 1430.645
1050.058, 1419.535
1050.540, 1409.843
1051.022, 1404.079
1051.505, 1402.089
1051.987, 1407.187
1052.469, 1421.370
1052.951, 1429.451
1053.433, 1427.209
1053.915, 1421.647
1054.397, 1416.860
1054.879, 1413.522
1055.361, 1413.441
1055.844, 1416.160
1056.326, 1414.969
1056.808, 1409.899
1057.290, 1411.276
1057.772, 1420.926
1058.254, 1431.622
1058.736, 1439.873
1059.218, 1443.689
1059.701, 1438.622
1060.183, 1428.455
1060.665, 1427.303
1061.147, 1433.140
1061.629, 1435.200
1062.111, 1432.384
1062.593, 1426.088
1063.075, 1417.111
1063.557, 1410.746
1064.040, 1414.201
1064.522, 1419.234
1065.004, 1405.380
1065.486, 1383.163
1065.968, 1380.822
1066.450, 1394.731
1066.932, 1405.892
1067.414, 1408.974
1067.896, 1407.765
1068.379, 1403.673
1068.861, 1400.777
1069.343, 1405.943
1069.825, 1413.447
1070.307, 1415.869
1070.789, 1414.116
1071.271, 1409.056
1071.753, 1402.455
1072.236, 1399.828
1072.718, 1404.300
1073.200, 1408.323
1073.682, 1407.054
1074.164, 1402.374
1074.646, 1390.445
1075.128, 1379.967
1075.610, 1385.035
1076.093, 1400.196
1076.575, 1408.344
1077.057, 1404.803
1077.539, 1400.361
1078.021, 1398.865
1078.503, 1398.578
1078.985, 1398.965
1079.467, 1400.010
1079.949, 1401.173
1080.432, 1403.261
1080.914, 1410.588
1081.396, 1422.663
1081.878, 1423.172
1082.360, 1397.642
1082.842, 1378.078
1083.324, 1367.569
1083.806, 1366.080
1084.288, 1382.894
1084.771, 1401.843
1085.253, 1401.856
1085.735, 1387.968
1086.217, 1385.561
1086.699, 1400.745
1087.181, 1411.625
1087.663, 1421.066
1088.145, 1419.101
1088.628, 1395.755
1089.110, 1374.388
1089.592, 1373.901
1090.074, 1384.735
1090.556, 1385.519
1091.038, 1375.673
1091.520, 1372.707
1092.002, 1377.537
1092.484, 1384.225
1092.967, 1392.467
1093.449, 1398.419
1093.931, 1400.295
1094.413, 1397.840
1094.895, 1389.083
1095.377, 1377.725
1095.859, 1379.933
1096.341, 1393.372
1096.823, 1399.313
1097.306, 1396.930
1097.788, 1395.094
1098.270, 1396.510
1098.752, 1395.831
1099.234, 1388.112
1099.716, 1379.021
1100.198, 1376.776
1100.680, 1379.746
1101.163, 1385.725
1101.645, 1393.766
1102.127, 1404.489
1102.609, 1415.645
1103.091, 1417.365
1103.573, 1404.390
1104.055, 1392.526
1104.537, 1398.076
1105.020, 1407.196
1105.502, 1408.749
1105.984, 1405.244
1106.466, 1396.542
1106.948, 1386.699
1107.430, 1383.913
1107.912, 1389.594
1108.394, 1396.130
1108.876, 1407.027
1109.359, 1408.211
1109.841, 1382.461
1110.323, 1358.867
1110.805, 1356.460
1111.287, 1365.519
1111.769, 1378.673
1112.251, 1392.309
1112.733, 1391.986
1113.215, 1365.880
1113.698, 1352.146
1114.180, 1359.232
1114.662, 1367.098
1115.144, 1372.091
1115.626, 1375.585
1116.108, 1378.086
1116.590, 1380.180
1117.072, 1383.464
1117.555, 1387.961
1118.037, 1387.673
1118.519, 1381.779
1119.001, 1374.588
1119.483, 1365.460
1119.965, 1364.332
1120.447, 1376.927
1120.929, 1388.065
1121.411, 1381.074
1121.894, 1363.614
1122.376, 1354.035
1122.858, 1351.957
1123.340, 1356.484
1123.822, 1366.640
1124.304, 1380.896
1124.786, 1397.073
1125.268, 1403.417
1125.750, 1392.918
1126.233, 1376.079
1126.715, 1357.903
1127.197, 1346.359
1127.679, 1360.407
1128.161, 1383.871
1128.643, 1391.452
1129.125, 1384.817
1129.607, 1373.564
1130.090, 1361.599
1130.572, 1358.141
1131.054, 1376.180
1131.536, 1388.816
1132.018, 1375.777
1132.500, 1359.575
1132.982, 1355.177
1133.464, 1356.741
1133.947, 1357.483
1134.429, 1356.848
1134.911, 1355.638
1135.393, 1353.796
1135.875, 1351.919
1136.357, 1348.388
1136.839, 1347.478
1137.321, 1352.090
1137.803, 1356.328
1138.286, 1356.988
1138.768, 1355.099
1139.250, 1351.500
1139.732, 1346.702
1140.214, 1345.881
1140.696, 1349.679
1141.178, 1352.412
1141.660, 1353.602
1142.142, 1355.152
1142.625, 1357.700
1143.107, 1360.498
1143.589, 1363.373
1144.071, 1363.995
1144.553, 1355.651
1145.035, 1342.651
1145.517, 1338.203
1145.999, 1340.563
1146.482, 1346.714
1146.964, 1353.793
1147.446, 1352.004
1147.928, 1338.528
1148.410, 1328.137
1148.892, 1334.788
1149.374, 1343.720
1149.856, 1340.548
1150.339, 1334.519
1150.821, 1334.690
1151.303, 1338.375
1151.785, 1341.017
1152.267, 1342.231
1152.749, 1344.157
1153.231, 1348.548
1153.713, 1348.641
1154.195, 1334.844
1154.677, 1327.753
1155.160, 1345.115
1155.642, 1357.974
1156.124, 1341.762
1156.606, 1316.059
1157.088, 1309.448
1157.570, 1320.454
1158.052, 1332.899
1158.534, 1349.198
1159.017, 1354.979
1159.499, 1348.066
1159.981, 1338.282
1160.463, 1327.877
1160.945, 1321.109
1161.427, 1321.527
1161.909, 1324.591
1162.391, 1321.632
1162.874, 1315.385
1163.356, 1315.330
1163.838, 1319.905
1164.320, 1325.536
1164.802, 1330.753
1165.284, 1330.974
1165.766, 1325.737
1166.248, 1324.886
1166.730, 1338.084
1167.213, 1349.740
1167.695, 1343.694
1168.177, 1333.823
1168.659, 1331.092
1169.141, 1333.019
1169.623, 1338.705
1170.105, 1344.955
1170.587, 1343.015
1171.069, 1329.707
1171.552, 1322.264
1172.034, 1330.478
1172.516, 1333.996
1172.998, 1325.257
1173.480, 1317.793
1173.962, 1317.904
1174.444, 1321.006
1174.926, 1322.535
1175.409, 1323.022
1175.891, 1324.176
1176.373, 1325.978
1176.855, 1329.854
1177.337, 1335.982
1177.819, 1334.744
1178.301, 1324.637
1178.783, 1319.511
1179.266, 1326.142
1179.748, 1331.628
1180.230, 1318.659
1180.712, 1303.295
1181.194, 1320.094
1181.676, 1347.144
1182.158, 1341.672
1182.640, 1317.924
1183.122, 1312.085
1183.604, 1324.992
1184.087, 1331.549
1184.569, 1321.935
1185.051, 1310.882
1185.533, 1301.624
1186.015, 1297.125
1186.497, 1300.470
1186.979, 1307.025
1187.461, 1317.295
1187.944, 1326.376
1188.426, 1326.199
1188.908, 1318.620
1189.390, 1315.339
1189.872, 1318.668
1190.354, 1317.425
1190.836, 1309.840
1191.318, 1305.576
1191.801, 1306.904
1192.283, 1311.379
1192.765, 1318.133
1193.247, 1323.125
1193.729, 1320.404
1194.211, 1313.590
1194.693, 1311.611
1195.175, 1312.690
1195.657, 1312.449
1196.140, 1310.857
1196.622, 1308.741
1197.104, 1306.376
1197.586, 1303.832
1198.068, 1301.065
1198.550, 1298.890
1199.032, 1298.398
1199.514, 1297.890
1199.996, 1294.335
1200.479, 1292.498
1200.961, 1298.609
1201.443, 1307.331
1201.925, 1310.252
1202.407, 1307.820
1202.889, 1307.435
1203.371, 1311.189
1203.853, 1309.299
1204.336, 1297.426
1204.818, 1295.816
1205.300, 1311.908
1205.782, 1322.799
1206.264, 1315.922
1206.746, 1299.682
1207.228, 1281.274
1207.710, 1266.281
1208.193, 1274.697
1208.675, 1295.956
1209.157, 1297.133
1209.639, 1284.047
1210.121, 1276.047
1210.603, 1277.167
1211.085, 1287.875
1211.567, 1308.704
1212.049, 1322.161
1212.531, 1313.923
1213.014, 1300.371
1213.496, 1281.116
1213.978, 1269.591
1214.460, 1284.090
1214.942, 1305.186
1215.424, 1307.115
1215.906, 1294.603
1216.388, 1288.870
1216.871, 1292.097
1217.353, 1286.792
1217.835, 1267.514
1218.317, 1265.267
1218.799, 1287.414
1219.281, 1305.378
1219.763, 1307.468
1220.245, 1299.271
1220.728, 1283.833
1221.210, 1269.614
1221.692, 1276.356
1222.174, 1292.273
1222.656, 1291.316
1223.138, 1281.165
1223.620, 1279.329
1224.102, 1284.287
1224.584, 1282.695
1225.067, 1272.282
1225.549, 1270.092
1226.031, 1290.330
1226.513, 1306.114
1226.995, 1303.544
1227.477, 1301.034
1227.959, 1309.402
1228.441, 1318.054
1228.923, 1319.620
1229.406, 1315.816
1229.888, 1309.007
1230.370, 1299.511
1230.852, 1290.739
1231.334, 1282.541
1231.816, 1279.956
1232.298, 1282.963
1232.780, 1283.905
1233.263, 1281.044
1233.745, 1278.456
1234.227, 1278.444
1234.709, 1279.565
1235.191, 1279.348
1235.673, 1280.616
1236.155, 1288.217
##END=



