##NAMES=Eskolaite
##RRUFFID=R060892
##IDEAL CHEMISTRY=Cr^3+^_2_O_3_
##LOCALITY=Outokumpu, Finland
##OWNER=RRUFF
##SOURCE=Michael Scott
##DESCRIPTION=Black submetallic hexagonal prisms
##STATUS=The identification of this mineral has been confirmed by single-crystal X-ray diffraction.
##URL=rruff.info/R060892
150.4500, 638.1357
150.9321, 643.3005
151.4142, 649.3796
151.8964, 659.6519
152.3785, 672.1559
152.8606, 677.0405
153.3427, 663.5448
153.8248, 648.9175
154.3069, 642.9431
154.7890, 658.4647
155.2712, 670.3464
155.7533, 672.3447
156.2354, 664.8082
156.7175, 659.0627
157.1996, 658.2867
157.6817, 659.6983
158.1639, 660.8847
158.6460, 661.6176
159.1281, 661.6914
159.6102, 660.2172
160.0923, 656.8453
160.5744, 655.3004
161.0566, 658.7444
161.5387, 664.1997
162.0208, 667.9631
162.5029, 665.1344
162.9850, 662.8783
163.4671, 666.9808
163.9493, 680.7084
164.4314, 689.4266
164.9135, 679.4098
165.3956, 659.7603
165.8777, 647.1403
166.3598, 655.6531
166.8420, 670.3361
167.3241, 680.1579
167.8062, 682.7206
168.2883, 681.7198
168.7704, 677.5380
169.2525, 671.3629
169.7346, 666.5817
170.2168, 666.2579
170.6989, 667.9327
171.1810, 669.1781
171.6631, 669.9400
172.1452, 669.4039
172.6273, 665.0173
173.1095, 657.7990
173.5916, 652.8929
174.0737, 655.8820
174.5558, 663.1058
175.0379, 668.6695
175.5201, 669.5347
176.0022, 669.1194
176.4843, 672.3068
176.9664, 678.8204
177.4485, 684.6355
177.9306, 686.3566
178.4128, 684.8542
178.8949, 682.1019
179.3770, 677.2295
179.8591, 672.1398
180.3412, 670.6756
180.8233, 673.0205
181.3055, 675.8666
181.7876, 674.8430
182.2697, 671.1960
182.7518, 669.4551
183.2339, 673.6911
183.7160, 681.1870
184.1981, 684.1923
184.6803, 681.8661
185.1624, 678.7557
185.6445, 681.4783
186.1266, 689.1401
186.6087, 695.6261
187.0908, 697.4882
187.5730, 695.5615
188.0551, 692.5111
188.5372, 687.7678
189.0193, 683.6492
189.5014, 685.0226
189.9835, 691.7271
190.4657, 697.2487
190.9478, 696.0811
191.4299, 689.4222
191.9120, 687.7703
192.3941, 693.9153
192.8762, 702.3435
193.3584, 699.7219
193.8405, 685.2230
194.3226, 672.7015
194.8047, 673.1590
195.2868, 686.1572
195.7689, 697.1204
196.2511, 704.8487
196.7332, 709.2626
197.2153, 709.7058
197.6974, 705.8781
198.1795, 700.0158
198.6616, 692.0339
199.1437, 681.4461
199.6259, 676.3741
200.1080, 679.8132
200.5901, 689.1849
201.0722, 694.0654
201.5543, 693.7911
202.0364, 691.4515
202.5186, 688.6818
203.0007, 685.0463
203.4828, 684.0403
203.9649, 686.4429
204.4470, 692.0612
204.9291, 701.1063
205.4113, 716.2308
205.8934, 728.4607
206.3755, 726.4224
206.8576, 705.7497
207.3397, 690.9213
207.8218, 688.8915
208.3040, 698.8458
208.7861, 706.3978
209.2682, 711.8885
209.7503, 714.3260
210.2324, 711.2020
210.7145, 700.0984
211.1967, 692.0071
211.6788, 690.7458
212.1609, 696.6450
212.6430, 699.2593
213.1251, 696.9597
213.6072, 693.5184
214.0894, 694.2894
214.5715, 701.7671
215.0536, 706.7899
215.5357, 705.5552
216.0178, 696.9153
216.4999, 692.4361
216.9820, 693.4529
217.4642, 697.2963
217.9463, 700.7239
218.4284, 704.4924
218.9105, 705.9156
219.3926, 703.2427
219.8747, 695.1962
220.3569, 690.4764
220.8390, 691.2029
221.3211, 693.7016
221.8032, 691.1579
222.2853, 679.8414
222.7674, 670.8428
223.2496, 668.4525
223.7317, 674.3885
224.2138, 681.0403
224.6959, 690.7786
225.1780, 699.9070
225.6601, 700.7509
226.1423, 687.6775
226.6244, 676.1226
227.1065, 672.4321
227.5886, 679.7164
228.0707, 685.7531
228.5528, 690.6214
229.0350, 694.2318
229.5171, 696.0903
229.9992, 694.6384
230.4813, 693.9487
230.9634, 696.2783
231.4455, 704.7521
231.9276, 708.0087
232.4098, 702.7029
232.8919, 693.1450
233.3740, 691.2626
233.8561, 703.8482
234.3382, 713.7722
234.8203, 712.3859
235.3025, 690.3777
235.7846, 678.1149
236.2667, 679.5734
236.7488, 689.9643
237.2309, 695.8863
237.7130, 695.0191
238.1952, 692.9807
238.6773, 692.1928
239.1594, 693.1548
239.6415, 694.2830
240.1236, 695.4514
240.6057, 696.8060
241.0879, 699.0557
241.5700, 703.6520
242.0521, 707.0682
242.5342, 707.3347
243.0163, 702.4574
243.4984, 698.7585
243.9806, 697.0624
244.4627, 696.5510
244.9448, 694.1788
245.4269, 687.4577
245.9090, 682.2676
246.3911, 681.4728
246.8732, 686.1078
247.3554, 693.2741
247.8375, 705.6656
248.3196, 720.2780
248.8017, 726.4774
249.2838, 720.1482
249.7659, 711.2878
250.2481, 704.8554
250.7302, 701.9871
251.2123, 698.8520
251.6944, 694.3627
252.1765, 689.6602
252.6586, 688.5226
253.1408, 691.8258
253.6229, 697.4362
254.1050, 705.9097
254.5871, 722.6161
255.0692, 727.7659
255.5513, 715.0686
256.0334, 691.0724
256.5156, 677.7275
256.9977, 679.0959
257.4798, 684.5313
257.9619, 688.5611
258.4440, 690.5341
258.9261, 692.8802
259.4083, 695.6041
259.8904, 698.7963
260.3725, 703.0863
260.8546, 709.7678
261.3367, 715.2133
261.8188, 717.4857
262.3010, 716.1306
262.7831, 712.4008
263.2652, 703.9420
263.7473, 693.9448
264.2294, 693.2205
264.7115, 706.2072
265.1937, 719.1552
265.6758, 724.2719
266.1579, 719.6138
266.6400, 714.0959
267.1221, 706.5660
267.6042, 699.2706
268.0864, 699.6889
268.5685, 710.6666
269.0506, 722.2895
269.5327, 730.0883
270.0148, 734.2815
270.4969, 732.8580
270.9791, 723.4174
271.4612, 710.0824
271.9433, 704.2147
272.4254, 708.1663
272.9075, 711.9196
273.3896, 709.0417
273.8718, 698.1289
274.3539, 691.1750
274.8360, 688.5306
275.3181, 690.1601
275.8002, 697.8843
276.2823, 713.6523
276.7645, 726.7914
277.2466, 730.2847
277.7287, 723.0074
278.2108, 720.4382
278.6929, 725.0488
279.1750, 731.7711
279.6572, 728.4058
280.1393, 712.9689
280.6214, 701.6539
281.1035, 705.5089
281.5856, 724.3762
282.0677, 736.9489
282.5499, 742.1272
283.0320, 741.8363
283.5141, 737.0028
283.9962, 727.1843
284.4783, 720.4789
284.9604, 722.3968
285.4425, 732.1324
285.9247, 739.8097
286.4068, 745.2603
286.8889, 748.6096
287.3710, 749.5084
287.8531, 748.0159
288.3352, 745.7988
288.8174, 741.6989
289.2995, 736.8788
289.7816, 738.8340
290.2637, 748.7594
290.7458, 760.4880
291.2279, 765.2673
291.7101, 763.9961
292.1922, 763.8104
292.6743, 768.9379
293.1564, 777.5073
293.6385, 784.8182
294.1206, 791.1761
294.6028, 793.8300
295.0849, 785.0128
295.5670, 768.2913
296.0491, 758.6030
296.5312, 768.2363
297.0133, 787.3011
297.4955, 794.0922
297.9776, 787.9978
298.4597, 779.5320
298.9418, 779.6691
299.4239, 785.5173
299.9060, 789.4783
300.3882, 787.9977
300.8703, 783.3964
301.3524, 777.9901
301.8345, 771.8289
302.3166, 767.3746
302.7987, 766.9996
303.2809, 769.6556
303.7630, 773.6430
304.2451, 780.7817
304.7272, 786.9091
305.2093, 785.1315
305.6914, 776.3724
306.1736, 769.5577
306.6557, 774.6585
307.1378, 784.3557
307.6199, 788.4769
308.1020, 781.8373
308.5841, 771.6401
309.0663, 761.9631
309.5484, 753.1239
310.0305, 747.2618
310.5126, 749.5018
310.9947, 753.5137
311.4768, 752.3095
311.9590, 740.1176
312.4411, 728.9803
312.9232, 727.3130
313.4053, 733.0067
313.8874, 739.3108
314.3695, 746.2900
314.8516, 750.8487
315.3337, 749.9031
315.8159, 739.7370
316.2980, 730.6935
316.7801, 727.3771
317.2622, 728.4014
317.7443, 730.5709
318.2264, 737.3579
318.7086, 741.5473
319.1907, 737.4749
319.6728, 719.7930
320.1549, 707.2410
320.6370, 708.1272
321.1191, 717.0072
321.6013, 725.1494
322.0834, 729.3315
322.5655, 733.2852
323.0476, 739.3130
323.5297, 749.2596
324.0118, 754.5978
324.4940, 751.8856
324.9761, 744.5896
325.4582, 736.8815
325.9403, 722.1066
326.4224, 713.9575
326.9045, 718.7936
327.3867, 739.8447
327.8688, 753.3993
328.3509, 754.5127
328.8330, 750.2058
329.3151, 746.5323
329.7972, 742.4066
330.2794, 740.2966
330.7615, 740.6360
331.2436, 743.4443
331.7257, 748.1471
332.2078, 758.0702
332.6899, 766.7713
333.1721, 768.9141
333.6542, 759.7508
334.1363, 753.3394
334.6184, 751.6381
335.1005, 753.9937
335.5826, 757.2068
336.0648, 762.6654
336.5469, 766.6339
337.0290, 765.9910
337.5111, 758.5603
337.9932, 754.3732
338.4753, 754.8647
338.9575, 758.5168
339.4396, 761.4413
339.9217, 763.4568
340.4038, 765.3420
340.8859, 767.3438
341.3680, 769.3972
341.8502, 772.9617
342.3323, 779.1880
342.8144, 784.8901
343.2965, 782.9865
343.7786, 773.0332
344.2607, 764.1625
344.7429, 760.8982
345.2250, 762.5955
345.7071, 764.5774
346.1892, 767.0530
346.6713, 769.0823
347.1534, 769.9016
347.6355, 769.4367
348.1176, 767.1843
348.5998, 761.0726
349.0819, 753.5523
349.5640, 751.1800
350.0461, 754.0598
350.5282, 757.3442
351.0103, 755.3369
351.4925, 750.3336
351.9746, 747.8317
352.4567, 750.3294
352.9388, 755.3486
353.4209, 761.7159
353.9030, 768.8085
354.3852, 772.4490
354.8673, 765.0711
355.3494, 754.1136
355.8315, 749.5158
356.3136, 755.3140
356.7957, 764.7556
357.2779, 775.8223
357.7600, 786.9055
358.2421, 793.0432
358.7242, 788.7677
359.2063, 780.4805
359.6884, 772.4958
360.1706, 764.9336
360.6527, 759.4605
361.1348, 756.9244
361.6169, 756.9739
362.0990, 759.0383
362.5811, 766.3278
363.0633, 772.6942
363.5454, 774.1989
364.0275, 769.4576
364.5096, 767.4658
364.9917, 774.8167
365.4738, 784.2298
365.9560, 788.2676
366.4381, 780.0164
366.9202, 772.0781
367.4023, 766.4918
367.8844, 763.3277
368.3665, 762.7764
368.8487, 767.8060
369.3308, 773.5669
369.8129, 777.0126
370.2950, 777.5718
370.7771, 776.5629
371.2592, 772.6541
371.7414, 767.0296
372.2235, 764.6649
372.7056, 766.7469
373.1877, 770.4368
373.6698, 774.7421
374.1519, 780.5778
374.6341, 783.8809
375.1162, 783.2296
375.5983, 781.0662
376.0804, 783.4050
376.5625, 792.4886
377.0446, 797.9281
377.5267, 793.1429
378.0089, 777.9257
378.4910, 771.5615
378.9731, 775.8729
379.4552, 783.9510
379.9373, 787.7520
380.4194, 787.3527
380.9016, 785.0911
381.3837, 780.6577
381.8658, 775.2255
382.3479, 772.3751
382.8300, 772.1552
383.3121, 773.3983
383.7943, 777.5079
384.2764, 782.5587
384.7585, 781.3308
385.2406, 768.3997
385.7227, 754.5506
386.2048, 757.0314
386.6870, 773.0820
387.1691, 790.5251
387.6512, 806.8804
388.1333, 817.9095
388.6154, 815.1057
389.0975, 793.2559
389.5797, 772.8036
390.0618, 772.5418
390.5439, 785.0663
391.0260, 796.8175
391.5081, 801.6621
391.9902, 803.8102
392.4724, 806.3362
392.9545, 809.5724
393.4366, 810.3294
393.9187, 804.4607
394.4008, 796.6750
394.8829, 791.4401
395.3651, 790.7786
395.8472, 792.0625
396.3293, 796.0393
396.8114, 802.0880
397.2935, 805.8466
397.7756, 808.5848
398.2578, 807.3693
398.7399, 800.2795
399.2220, 771.9197
399.7041, 758.8882
400.1862, 773.8529
400.6683, 802.9232
401.1505, 813.3973
401.6326, 791.0519
402.1147, 769.2264
402.5968, 759.2946
403.0789, 763.7698
403.5610, 767.7411
404.0432, 771.5191
404.5253, 774.4562
405.0074, 775.4172
405.4895, 773.7848
405.9716, 772.5140
406.4537, 772.3461
406.9359, 773.1365
407.4180, 773.7869
407.9001, 774.0421
408.3822, 775.3640
408.8643, 780.6622
409.3464, 789.2980
409.8285, 793.3911
410.3106, 790.9730
410.7928, 784.6755
411.2749, 777.7303
411.7570, 770.3517
412.2391, 764.6328
412.7212, 762.3008
413.2033, 762.3146
413.6855, 762.5051
414.1676, 762.6004
414.6497, 763.7014
415.1318, 767.0049
415.6139, 772.0611
416.0960, 777.9191
416.5782, 788.4769
417.0603, 796.6765
417.5424, 795.2452
418.0245, 784.8659
418.5066, 773.4307
418.9887, 762.3835
419.4709, 753.5080
419.9530, 748.2856
420.4351, 748.2451
420.9172, 750.3631
421.3993, 754.8794
421.8814, 760.9203
422.3636, 766.2042
422.8457, 767.3040
423.3278, 770.0354
423.8099, 779.0568
424.2920, 801.6422
424.7741, 810.3486
425.2563, 790.4107
425.7384, 762.2229
426.2205, 750.1093
426.7026, 766.6741
427.1847, 779.5683
427.6668, 781.9497
428.1490, 774.3961
428.6311, 767.3221
429.1132, 759.6407
429.5953, 754.1440
430.0774, 753.8570
430.5595, 759.9312
431.0417, 763.5923
431.5238, 762.8914
432.0059, 760.5286
432.4880, 764.6756
432.9701, 776.0168
433.4522, 782.3006
433.9344, 770.8442
434.4165, 747.5554
434.8986, 743.0581
435.3807, 760.0259
435.8628, 779.8658
436.3449, 780.1328
436.8271, 766.8095
437.3092, 757.4910
437.7913, 761.1555
438.2734, 768.9441
438.7555, 769.7585
439.2376, 764.7172
439.7197, 760.3468
440.2018, 760.5352
440.6840, 763.5925
441.1661, 768.7562
441.6482, 777.7983
442.1303, 783.6435
442.6124, 780.7614
443.0945, 772.3614
443.5767, 764.2194
444.0588, 750.8477
444.5409, 744.6345
445.0230, 756.1534
445.5051, 788.8267
445.9872, 807.9406
446.4694, 795.8916
446.9515, 775.3615
447.4336, 763.8827
447.9157, 771.4777
448.3978, 774.7382
448.8799, 768.6533
449.3621, 756.8175
449.8442, 753.2501
450.3263, 761.7437
450.8084, 771.6919
451.2905, 779.0405
451.7726, 783.9384
452.2548, 783.7112
452.7369, 775.7438
453.2190, 767.3376
453.7011, 770.9776
454.1832, 787.3792
454.6653, 797.9212
455.1475, 795.1577
455.6296, 783.6705
456.1117, 776.8660
456.5938, 774.7825
457.0759, 772.7442
457.5580, 765.5632
458.0402, 755.8849
458.5223, 749.1433
459.0044, 745.6316
459.4865, 746.8278
459.9686, 758.4042
460.4507, 775.9900
460.9329, 789.6743
461.4150, 791.8876
461.8971, 790.0385
462.3792, 789.9722
462.8613, 791.9905
463.3434, 790.9199
463.8256, 780.3221
464.3077, 767.6746
464.7898, 759.2363
465.2719, 757.2778
465.7540, 758.9064
466.2361, 766.9233
466.7183, 778.6252
467.2004, 785.2437
467.6825, 782.6773
468.1646, 778.2866
468.6467, 773.2476
469.1288, 765.8052
469.6109, 765.5109
470.0930, 776.6069
470.5752, 790.2883
471.0573, 796.2828
471.5394, 792.2729
472.0215, 788.7421
472.5036, 788.0057
472.9857, 789.1255
473.4679, 788.0295
473.9500, 784.3788
474.4321, 781.6837
474.9142, 784.1212
475.3963, 789.9909
475.8784, 790.3876
476.3606, 783.7445
476.8427, 775.8103
477.3248, 772.7416
477.8069, 773.8439
478.2890, 777.3477
478.7711, 784.3100
479.2533, 792.1265
479.7354, 799.4947
480.2175, 806.0096
480.6996, 808.7897
481.1817, 800.2235
481.6638, 790.4652
482.1460, 789.3789
482.6281, 804.8652
483.1102, 815.8439
483.5923, 809.7150
484.0744, 795.4426
484.5565, 787.7921
485.0387, 795.3501
485.5208, 804.1761
486.0029, 811.0550
486.4850, 815.9315
486.9671, 819.6976
487.4492, 821.4441
487.9314, 823.0049
488.4135, 826.3231
488.8956, 833.7963
489.3777, 835.6237
489.8598, 829.6270
490.3419, 819.3102
490.8241, 810.9255
491.3062, 804.3499
491.7883, 800.7361
492.2704, 801.4984
492.7525, 805.7003
493.2346, 809.0151
493.7168, 811.3330
494.1989, 813.5457
494.6810, 819.0032
495.1631, 824.8655
495.6452, 822.8962
496.1273, 807.0261
496.6095, 791.1915
497.0916, 792.8717
497.5737, 806.3445
498.0558, 817.6675
498.5379, 817.4534
499.0201, 814.5195
499.5022, 814.3719
499.9843, 817.4983
500.4664, 821.8783
500.9485, 828.3419
501.4306, 834.8807
501.9127, 839.8022
502.3948, 845.2067
502.8770, 846.1112
503.3591, 837.4814
503.8412, 824.1639
504.3233, 818.6128
504.8054, 826.3370
505.2875, 833.6240
505.7697, 835.2187
506.2518, 830.4753
506.7339, 828.8489
507.2160, 830.5659
507.6981, 834.8629
508.1802, 841.8691
508.6624, 851.5839
509.1445, 860.9032
509.6266, 870.4801
510.1087, 877.4890
510.5908, 875.0226
511.0729, 864.2601
511.5551, 852.8821
512.0372, 840.6554
512.5193, 832.2255
513.0014, 837.5864
513.4835, 857.1616
513.9656, 876.3408
514.4478, 885.3189
514.9299, 888.0482
515.4120, 888.6129
515.8941, 885.4772
516.3762, 884.1121
516.8583, 888.1707
517.3405, 895.5985
517.8226, 901.6060
518.3047, 901.0508
518.7868, 902.7370
519.2689, 911.4915
519.7510, 929.0483
520.2332, 940.6237
520.7153, 943.0854
521.1974, 942.6193
521.6795, 944.0298
522.1616, 948.2354
522.6437, 950.6908
523.1259, 949.2433
523.6080, 947.5836
524.0901, 955.9795
524.5722, 975.3626
525.0543, 991.4523
525.5364, 996.3118
526.0186, 993.4785
526.5007, 995.5894
526.9828, 1002.674
527.4649, 1006.262
527.9470, 991.6632
528.4291, 970.6982
528.9113, 963.2580
529.3934, 977.0485
529.8755, 996.6646
530.3576, 1014.497
530.8397, 1029.870
531.3218, 1041.938
531.8040, 1044.993
532.2861, 1049.480
532.7682, 1060.803
533.2503, 1079.139
533.7324, 1096.234
534.2145, 1102.823
534.6967, 1114.257
535.1788, 1139.843
535.6609, 1190.527
536.1430, 1233.065
536.6251, 1262.348
537.1072, 1287.066
537.5894, 1319.009
538.0715, 1357.750
538.5536, 1405.914
539.0357, 1467.924
539.5178, 1538.240
539.9999, 1596.173
540.4821, 1640.668
540.9642, 1684.295
541.4463, 1735.416
541.9284, 1792.473
542.4105, 1851.389
542.8926, 1910.886
543.3748, 1976.533
543.8569, 2062.296
544.3390, 2154.684
544.8211, 2233.602
545.3032, 2268.968
545.7853, 2312.620
546.2675, 2398.134
546.7495, 2515.084
547.2316, 2625.948
547.7137, 2726.624
548.1959, 2813.207
548.6780, 2884.043
549.1601, 2935.672
549.6422, 2984.547
550.1243, 3042.582
550.6064, 3086.975
551.0886, 3100.216
551.5707, 3085.644
552.0528, 3026.029
552.5349, 2912.216
553.0170, 2760.391
553.4991, 2600.977
553.9813, 2433.610
554.4634, 2272.883
554.9455, 2126.034
555.4276, 1990.257
555.9097, 1858.063
556.3918, 1730.210
556.8740, 1614.991
557.3561, 1519.452
557.8382, 1440.705
558.3203, 1376.965
558.8024, 1331.783
559.2845, 1290.100
559.7667, 1237.702
560.2488, 1184.115
560.7309, 1143.114
561.2130, 1128.167
561.6951, 1116.559
562.1772, 1101.612
562.6594, 1083.668
563.1415, 1068.830
563.6236, 1058.213
564.1057, 1049.631
564.5878, 1042.674
565.0699, 1038.336
565.5521, 1030.787
566.0342, 1019.148
566.5163, 1005.953
566.9984, 992.8814
567.4805, 980.0876
567.9626, 971.0010
568.4448, 967.0168
568.9269, 965.9084
569.4090, 964.1382
569.8911, 961.9188
570.3732, 960.1100
570.8553, 959.6437
571.3375, 959.5748
571.8196, 959.0558
572.3017, 958.0436
572.7838, 956.5452
573.2659, 952.7921
573.7480, 949.6064
574.2302, 949.5415
574.7123, 956.2518
575.1944, 960.3271
575.6765, 959.7374
576.1586, 955.8134
576.6407, 950.1382
577.1229, 939.6259
577.6050, 932.8541
578.0871, 932.8854
578.5692, 938.0636
579.0513, 938.6899
579.5334, 933.3864
580.0156, 929.9125
580.4977, 934.2550
580.9798, 944.8871
581.4619, 954.0869
581.9440, 961.9600
582.4261, 965.2560
582.9083, 955.7981
583.3904, 940.1201
583.8725, 930.9044
584.3546, 933.5574
584.8367, 939.3239
585.3188, 942.6081
585.8010, 944.3701
586.2831, 946.6136
586.7652, 952.2211
587.2473, 956.3481
587.7294, 956.8125
588.2115, 953.5974
588.6937, 949.8995
589.1758, 945.6744
589.6579, 941.2601
590.1400, 936.5482
590.6221, 930.9210
591.1042, 927.4432
591.5864, 926.4891
592.0685, 927.0497
592.5506, 928.0695
593.0327, 929.5545
593.5148, 931.8044
593.9969, 935.6406
594.4791, 939.0651
594.9612, 939.2323
595.4433, 936.2617
595.9254, 930.5283
596.4075, 916.0162
596.8896, 902.9751
597.3718, 903.3986
597.8539, 916.6077
598.3360, 929.0211
598.8181, 935.6395
599.3002, 938.3889
599.7823, 938.4897
600.2645, 935.7704
600.7466, 930.8989
601.2287, 917.7149
601.7108, 906.0657
602.1929, 908.9717
602.6750, 935.0164
603.1572, 953.6749
603.6393, 958.9240
604.1214, 954.6929
604.6035, 949.6136
605.0856, 943.3592
605.5677, 942.6140
606.0499, 954.7723
606.5320, 974.2335
607.0141, 986.8091
607.4962, 992.6573
607.9783, 995.4047
608.4604, 994.5425
608.9425, 993.4951
609.4246, 996.6762
609.9067, 1006.076
610.3889, 1015.330
610.8710, 1022.053
611.3531, 1026.841
611.8352, 1030.387
612.3173, 1031.986
612.7994, 1033.510
613.2816, 1037.795
613.7637, 1041.987
614.2458, 1036.343
614.7279, 1015.691
615.2100, 998.2804
615.6921, 991.8013
616.1743, 994.7330
616.6564, 995.9224
617.1385, 995.3574
617.6206, 993.2990
618.1027, 988.5723
618.5848, 982.6525
619.0670, 978.6865
619.5491, 976.9774
620.0312, 977.5167
620.5133, 982.6046
620.9954, 989.1887
621.4775, 993.0095
621.9597, 987.7124
622.4418, 985.7191
622.9239, 993.5964
623.4060, 1007.691
623.8881, 1019.434
624.3702, 1029.527
624.8524, 1034.873
625.3345, 1031.771
625.8166, 1021.489
626.2987, 1021.607
626.7808, 1034.492
627.2629, 1050.425
627.7451, 1065.539
628.2272, 1079.333
628.7093, 1085.189
629.1914, 1082.021
629.6735, 1077.839
630.1556, 1081.396
630.6378, 1089.748
631.1199, 1097.473
631.6020, 1103.026
632.0841, 1108.188
632.5662, 1113.167
633.0483, 1118.774
633.5305, 1126.456
634.0126, 1139.174
634.4947, 1151.179
634.9768, 1160.239
635.4589, 1166.921
635.9410, 1175.053
636.4232, 1187.920
636.9053, 1196.912
637.3874, 1196.901
637.8695, 1187.759
638.3516, 1183.773
638.8337, 1185.363
639.3159, 1189.779
639.7980, 1195.015
640.2801, 1201.183
640.7622, 1209.253
641.2443, 1220.030
641.7264, 1229.659
642.2086, 1234.334
642.6907, 1235.514
643.1728, 1235.192
643.6549, 1230.054
644.1370, 1228.431
644.6191, 1236.993
645.1013, 1251.645
645.5834, 1261.993
646.0655, 1262.595
646.5476, 1263.138
647.0297, 1265.980
647.5118, 1270.825
647.9940, 1274.018
648.4761, 1275.324
648.9582, 1275.562
649.4403, 1274.430
649.9224, 1272.241
650.4045, 1272.346
650.8867, 1274.964
651.3688, 1277.876
651.8509, 1277.790
652.3330, 1276.841
652.8151, 1279.955
653.2972, 1290.838
653.7794, 1298.054
654.2615, 1291.443
654.7436, 1277.542
655.2257, 1265.544
655.7078, 1257.695
656.1899, 1251.951
656.6721, 1247.419
657.1542, 1244.676
657.6363, 1246.987
658.1184, 1259.790
658.6005, 1264.875
659.0826, 1252.993
659.5648, 1227.575
660.0469, 1210.169
660.5290, 1200.880
661.0111, 1197.647
661.4932, 1203.548
661.9753, 1213.408
662.4575, 1215.877
662.9396, 1209.895
663.4217, 1203.233
663.9038, 1199.332
664.3859, 1198.772
664.8680, 1202.444
665.3502, 1212.276
665.8323, 1222.936
666.3144, 1235.661
666.7965, 1247.504
667.2786, 1253.993
667.7607, 1248.784
668.2429, 1250.795
668.7250, 1266.102
669.2071, 1288.141
669.6892, 1298.381
670.1713, 1296.207
670.6534, 1294.681
671.1355, 1299.230
671.6176, 1308.115
672.0997, 1317.084
672.5818, 1326.484
673.0640, 1338.947
673.5461, 1360.652
674.0282, 1383.155
674.5103, 1398.282
674.9924, 1404.852
675.4745, 1413.295
675.9567, 1429.645
676.4388, 1447.354
676.9209, 1461.541
677.4030, 1469.990
677.8851, 1479.734
678.3672, 1490.094
678.8494, 1502.459
679.3315, 1520.161
679.8136, 1543.470
680.2957, 1562.465
680.7778, 1574.571
681.2599, 1582.305
681.7421, 1587.953
682.2242, 1592.027
682.7063, 1596.010
683.1884, 1599.061
683.6705, 1603.585
684.1526, 1613.156
684.6348, 1626.026
685.1169, 1636.494
685.5990, 1639.840
686.0811, 1643.017
686.5632, 1650.217
687.0453, 1661.379
687.5275, 1667.131
688.0096, 1665.797
688.4917, 1662.092
688.9738, 1658.078
689.4559, 1653.778
689.9380, 1650.464
690.4202, 1648.184
690.9023, 1646.557
691.3844, 1646.787
691.8665, 1647.099
692.3486, 1644.091
692.8307, 1637.135
693.3129, 1626.643
693.7950, 1608.550
694.2771, 1588.679
694.7592, 1574.208
695.2413, 1574.084
695.7234, 1570.643
696.2056, 1559.397
696.6877, 1543.602
697.1698, 1528.849
697.6519, 1515.650
698.1340, 1502.120
698.6161, 1487.443
699.0983, 1472.436
699.5804, 1459.002
700.0625, 1447.319
700.5446, 1438.162
701.0267, 1435.510
701.5089, 1433.821
701.9910, 1424.355
702.4731, 1407.919
702.9552, 1390.866
703.4373, 1376.408
703.9194, 1362.660
704.4016, 1347.725
704.8837, 1330.744
705.3658, 1316.758
705.8479, 1307.142
706.3300, 1299.474
706.8121, 1292.386
707.2943, 1286.047
707.7764, 1279.524
708.2585, 1272.971
708.7406, 1265.614
709.2227, 1256.566
709.7048, 1246.013
710.1870, 1234.476
710.6691, 1221.550
711.1512, 1209.087
711.6333, 1197.180
712.1154, 1186.955
712.5975, 1180.362
713.0797, 1183.236
713.5618, 1183.943
714.0439, 1177.482
714.5260, 1166.314
715.0081, 1156.974
715.4902, 1150.443
715.9724, 1144.244
716.4545, 1137.539
716.9366, 1130.794
717.4187, 1127.194
717.9008, 1126.872
718.3829, 1124.558
718.8651, 1118.158
719.3472, 1107.613
719.8293, 1088.470
720.3114, 1062.631
720.7935, 1043.343
721.2756, 1044.658
721.7578, 1051.290
722.2399, 1053.336
722.7220, 1049.663
723.2041, 1042.311
723.6862, 1024.885
724.1683, 1009.989
724.6505, 1006.869
725.1326, 1020.696
725.6147, 1022.667
726.0968, 1009.370
726.5789, 993.7166
727.0610, 991.5513
727.5432, 999.2989
728.0253, 1002.320
728.5074, 997.8986
728.9895, 989.9394
729.4716, 978.9100
729.9537, 967.7114
730.4359, 960.8151
730.9180, 964.6749
731.4000, 965.9544
731.8821, 958.9279
732.3643, 947.5026
732.8464, 938.8560
733.3285, 933.7046
733.8106, 929.8781
734.2927, 927.0911
734.7748, 925.2908
735.2570, 925.0016
735.7391, 926.1029
736.2212, 925.6763
736.7033, 921.4848
737.1854, 915.8714
737.6675, 911.4165
738.1497, 908.3762
738.6318, 907.5535
739.1139, 911.9019
739.5960, 916.3461
740.0781, 919.2225
740.5602, 920.3388
741.0424, 916.6174
741.5245, 902.6471
742.0066, 890.9905
742.4887, 887.2437
742.9708, 876.4507
743.4529, 895.4788
743.9351, 906.2441
744.4172, 909.1905
744.8993, 880.8995
745.3814, 892.9451
745.8635, 888.8256
746.3456, 884.0432
746.8278, 901.7661
747.3099, 878.0184
747.7920, 895.3843
748.2741, 896.3384
748.7562, 904.8038
749.2383, 897.0043
749.7205, 894.2285
750.2026, 907.7228
750.6847, 912.2082
751.1668, 902.5363
751.6489, 911.4792
752.1310, 887.1633
752.6132, 892.0325
753.0953, 909.4937
753.5774, 900.6395
754.0595, 909.8798
754.5416, 912.2287
755.0237, 883.2595
755.5059, 908.7557
755.9880, 910.6973
756.4701, 888.4537
756.9522, 912.0836
757.4343, 893.1742
757.9164, 900.6941
758.3986, 899.7013
758.8807, 900.4267
759.3628, 904.4606
759.8449, 904.8552
760.3270, 899.0348
760.8091, 889.5480
761.2913, 880.4743
761.7734, 872.4965
762.2555, 868.9673
762.7376, 873.6772
763.2197, 881.9192
763.7018, 891.8738
764.1840, 901.9849
764.6661, 907.0034
765.1482, 897.6299
765.6303, 890.0043
766.1124, 892.9684
766.5945, 904.4750
767.0767, 907.0644
767.5588, 897.0668
768.0409, 887.5206
768.5230, 885.0658
769.0051, 888.1535
769.4872, 890.4736
769.9694, 891.9047
770.4515, 890.0500
770.9336, 878.1539
771.4157, 865.1671
771.8978, 861.9852
772.3799, 869.2285
772.8621, 876.5384
773.3442, 882.0564
773.8263, 884.8515
774.3084, 883.1054
774.7905, 875.3192
775.2726, 874.3464
775.7548, 883.5525
776.2369, 891.9856
776.7190, 888.2266
777.2011, 874.9857
777.6832, 872.1583
778.1653, 881.2891
778.6475, 891.0436
779.1296, 892.5848
779.6117, 888.5441
780.0938, 880.4304
780.5759, 866.5582
781.0580, 857.4019
781.5402, 861.3652
782.0223, 868.1905
782.5044, 868.5339
782.9865, 856.6929
783.4686, 854.3033
783.9507, 865.4080
784.4329, 878.2464
784.9150, 877.9110
785.3971, 866.9185
785.8792, 857.9869
786.3613, 852.2879
786.8434, 852.7892
787.3256, 870.0121
787.8077, 892.3212
788.2898, 904.2560
788.7719, 896.5870
789.2540, 886.5880
789.7361, 874.0635
790.2183, 863.4076
790.7004, 860.6239
791.1825, 868.3295
791.6646, 876.1239
792.1467, 883.9042
792.6288, 889.0220
793.1110, 883.5217
793.5930, 870.8915
794.0751, 865.7859
794.5573, 874.6309
795.0394, 887.9730
795.5215, 903.1019
796.0036, 915.5871
796.4857, 918.2679
796.9678, 897.0127
797.4500, 880.6010
797.9321, 875.9772
798.4142, 877.9932
798.8963, 877.0867
799.3784, 872.4735
799.8605, 868.6816
800.3427, 866.7366
800.8248, 866.1212
801.3069, 864.9521
801.7890, 864.1522
802.2711, 867.0439
802.7532, 881.4384
803.2354, 892.6127
803.7175, 887.5057
804.1996, 872.3684
804.6817, 861.7909
805.1638, 863.1049
805.6459, 863.7651
806.1281, 860.3350
806.6102, 855.5242
807.0923, 858.3857
807.5744, 869.5720
808.0565, 877.7394
808.5386, 877.3878
809.0208, 873.5730
809.5029, 875.5397
809.9850, 881.3878
810.4671, 885.2208
810.9492, 882.6067
811.4313, 878.9974
811.9135, 877.1040
812.3956, 876.3591
812.8777, 874.3143
813.3598, 869.7639
813.8419, 865.6804
814.3240, 861.6246
814.8062, 859.1815
815.2883, 867.3986
815.7704, 885.1414
816.2525, 894.9778
816.7346, 880.9341
817.2167, 861.0945
817.6989, 859.1516
818.1810, 870.2238
818.6631, 878.2076
819.1452, 875.6415
819.6273, 870.1718
820.1094, 861.8337
820.5916, 852.5368
821.0737, 850.7104
821.5558, 859.2716
822.0379, 865.8278
822.5200, 864.8436
823.0021, 859.4358
823.4843, 857.9238
823.9664, 859.7518
824.4485, 861.8732
824.9306, 861.5655
825.4127, 861.8068
825.8948, 865.4825
826.3770, 871.7995
826.8591, 877.5123
827.3412, 884.7664
827.8233, 887.5842
828.3054, 883.1417
828.7875, 873.0991
829.2697, 864.0979
829.7518, 855.7300
830.2339, 852.6544
830.7160, 859.3138
831.1981, 870.5178
831.6802, 878.8919
832.1624, 884.3996
832.6445, 886.5875
833.1266, 881.0186
833.6087, 876.3072
834.0908, 879.6595
834.5729, 888.3422
835.0551, 887.0797
835.5372, 869.8459
836.0193, 855.6459
836.5014, 850.5326
836.9835, 852.4144
837.4656, 855.5266
837.9478, 859.7668
838.4299, 864.5528
838.9120, 870.2817
839.3941, 875.9199
839.8762, 882.9805
840.3583, 889.4714
840.8405, 889.1545
841.3226, 869.2865
841.8047, 855.1588
842.2868, 854.4625
842.7689, 863.6407
843.2510, 871.4927
843.7332, 878.4058
844.2153, 880.3746
844.6974, 873.3248
845.1795, 863.3561
845.6616, 861.7007
846.1437, 866.6252
846.6259, 873.0060
847.1080, 881.1041
847.5901, 887.3314
848.0722, 890.1848
848.5543, 889.7186
849.0364, 886.3138
849.5186, 877.7891
850.0007, 871.2787
850.4828, 868.5582
850.9649, 868.5674
851.4470, 870.6114
851.9291, 873.8574
852.4113, 872.4621
852.8934, 860.1028
853.3755, 847.9880
853.8576, 847.8115
854.3397, 855.1241
854.8218, 861.0139
855.3039, 860.1090
855.7860, 861.4634
856.2681, 868.3046
856.7502, 877.1012
857.2324, 880.0358
857.7145, 876.4012
858.1966, 876.7759
858.6787, 885.8913
859.1608, 895.3378
859.6429, 891.5200
860.1251, 879.2321
860.6072, 867.9684
861.0893, 858.9633
861.5714, 854.4288
862.0535, 857.3257
862.5356, 864.4676
863.0178, 870.9691
863.4999, 877.1542
863.9820, 881.4974
864.4641, 883.4160
864.9462, 884.1518
865.4283, 885.4364
865.9105, 887.0339
866.3926, 887.9975
866.8747, 887.7458
867.3568, 887.9873
867.8389, 893.5927
868.3210, 898.7114
868.8032, 896.6409
869.2853, 876.0833
869.7674, 864.6155
870.2495, 866.1578
870.7316, 871.7971
871.2137, 870.8188
871.6959, 863.9310
872.1780, 863.4610
872.6601, 871.4822
873.1422, 879.9634
873.6243, 878.3656
874.1064, 874.2584
874.5886, 878.2050
875.0707, 895.3478
875.5528, 908.1759
876.0349, 914.6731
876.5170, 913.5466
876.9991, 900.4957
877.4813, 871.6708
877.9634, 857.8932
878.4455, 860.5125
878.9276, 869.5865
879.4097, 878.7450
879.8918, 887.5707
880.3740, 896.1196
880.8561, 904.3712
881.3382, 909.0373
881.8203, 907.8965
882.3024, 903.1968
882.7845, 894.7459
883.2667, 882.3986
883.7488, 874.6688
884.2309, 872.1888
884.7130, 872.1311
885.1951, 872.6471
885.6772, 874.2985
886.1594, 881.5091
886.6415, 892.8150
887.1236, 898.5788
887.6057, 886.4922
888.0878, 872.9976
888.5699, 866.7960
889.0521, 868.3783
889.5342, 877.2172
890.0163, 901.1534
890.4984, 915.4363
890.9805, 908.5352
891.4626, 888.7686
891.9448, 883.6060
892.4269, 890.7035
892.9090, 895.5012
893.3911, 886.3031
893.8732, 876.2739
894.3553, 876.7395
894.8375, 884.1418
895.3196, 889.8824
895.8017, 892.2251
896.2838, 892.7514
896.7659, 891.1707
897.2480, 888.3314
897.7302, 884.3984
898.2123, 879.8814
898.6944, 881.4800
899.1765, 893.6805
899.6586, 905.7886
900.1407, 906.2657
900.6229, 899.4067
901.1050, 891.2144
901.5871, 877.5342
902.0692, 872.0082
902.5513, 881.0829
903.0334, 893.6063
903.5156, 896.5297
903.9977, 889.2094
904.4798, 888.1154
904.9619, 895.9526
905.4440, 902.4484
905.9261, 893.0676
906.4083, 877.7968
906.8904, 870.5145
907.3725, 875.1205
907.8546, 878.9124
908.3367, 878.0341
908.8188, 874.9866
909.3010, 869.7495
909.7831, 861.4598
910.2652, 863.4615
910.7473, 876.9726
911.2294, 890.3857
911.7115, 894.2847
912.1937, 893.0295
912.6758, 892.9238
913.1579, 894.2040
913.6400, 896.0442
914.1221, 898.8534
914.6042, 901.3670
915.0864, 903.3168
915.5685, 904.5934
916.0506, 904.0257
916.5327, 901.2559
917.0148, 898.9535
917.4969, 898.3781
917.9790, 898.7806
918.4611, 898.4620
918.9432, 897.9902
919.4254, 898.9624
919.9075, 907.3276
920.3896, 911.4187
920.8717, 900.8154
921.3538, 884.8521
921.8359, 882.4014
922.3181, 898.0024
922.8002, 905.4414
923.2823, 897.5482
923.7644, 886.1663
924.2465, 890.9467
924.7286, 905.1350
925.2108, 914.5126
925.6929, 913.6481
926.1750, 912.3212
926.6571, 918.3563
927.1392, 923.5865
927.6213, 919.5536
928.1035, 901.9713
928.5856, 889.1921
929.0677, 880.6060
929.5498, 879.3560
930.0319, 896.8529
930.5140, 921.2776
930.9962, 924.5502
931.4783, 904.6246
931.9604, 888.0225
932.4425, 891.2278
932.9246, 899.2124
933.4067, 905.1758
933.8889, 908.8049
934.3710, 903.0239
934.8531, 884.4180
935.3352, 871.8228
935.8173, 879.2357
936.2994, 896.0897
936.7816, 899.0457
937.2637, 891.7656
937.7458, 887.0605
938.2279, 895.9996
938.7100, 903.3466
939.1921, 900.5717
939.6743, 892.1245
940.1564, 887.7996
940.6385, 888.6013
941.1206, 889.1000
941.6027, 887.6829
942.0848, 886.8837
942.5670, 894.0432
943.0491, 903.9844
943.5312, 905.3906
944.0133, 891.3384
944.4954, 878.2871
944.9775, 871.7010
945.4597, 870.1494
945.9418, 871.9219
946.4239, 876.7497
946.9060, 887.5449
947.3881, 905.6831
947.8702, 922.9436
948.3524, 934.1391
948.8345, 938.7089
949.3166, 932.3417
949.7987, 915.4438
950.2808, 902.6657
950.7629, 904.1731
951.2451, 908.0704
951.7272, 909.0621
952.2093, 907.4556
952.6914, 906.6448
953.1735, 906.9740
953.6556, 904.6201
954.1378, 895.8995
954.6199, 885.6245
955.1020, 879.6072
955.5841, 877.7305
956.0662, 879.7059
956.5483, 889.7175
957.0305, 898.3053
957.5126, 903.7845
957.9947, 906.4213
958.4768, 906.0267
958.9589, 902.4638
959.4410, 898.8165
959.9232, 895.5512
960.4053, 892.1815
960.8874, 887.9236
961.3695, 883.2794
961.8516, 877.6654
962.3337, 868.9216
962.8159, 868.5519
963.2980, 885.7482
963.7801, 903.9399
964.2622, 914.3494
964.7443, 917.1191
965.2264, 916.2646
965.7086, 911.8420
966.1907, 907.3991
966.6728, 905.1526
967.1549, 904.0747
967.6370, 903.4974
968.1191, 903.3152
968.6013, 903.1805
969.0834, 902.8565
969.5655, 902.9110
970.0476, 903.7591
970.5297, 904.7754
971.0118, 904.2704
971.4940, 902.5197
971.9761, 901.3795
972.4582, 901.9746
972.9403, 901.9120
973.4224, 895.8240
973.9045, 889.6425
974.3867, 891.3084
974.8688, 909.0536
975.3509, 918.6404
975.8330, 918.1873
976.3151, 913.7549
976.7972, 909.1114
977.2794, 905.0853
977.7615, 904.9678
978.2435, 908.7567
978.7256, 912.5601
979.2078, 915.4440
979.6899, 916.2798
980.1720, 913.5182
980.6541, 907.6470
981.1362, 902.1226
981.6183, 896.4270
982.1005, 893.6125
982.5826, 896.2543
983.0647, 900.4689
983.5468, 897.8131
984.0289, 891.0125
984.5110, 886.7084
984.9932, 886.2447
985.4753, 890.1080
985.9574, 906.1308
986.4395, 921.7591
986.9216, 920.9728
987.4037, 900.7010
987.8859, 892.3654
988.3680, 899.5469
988.8501, 909.1274
989.3322, 906.1936
989.8143, 899.6940
990.2964, 903.2027
990.7786, 918.6568
991.2607, 925.8359
991.7428, 910.4656
992.2249, 898.3427
992.7070, 900.3771
993.1891, 913.3277
993.6713, 922.3807
994.1534, 927.5935
994.6355, 928.7164
995.1176, 920.5734
995.5997, 914.1727
996.0818, 921.8073
996.5640, 936.5451
997.0461, 945.1096
997.5282, 943.9959
998.0103, 940.2496
998.4924, 933.1106
998.9745, 925.9379
999.4567, 923.2331
999.9388, 923.7750
1000.421, 923.9275
1000.903, 923.1596
1001.385, 923.4724
1001.867, 929.7697
1002.349, 934.3175
1002.831, 930.8041
1003.314, 919.7350
1003.796, 909.9131
1004.278, 900.9169
1004.760, 895.4119
1005.242, 894.5666
1005.724, 897.9598
1006.206, 908.9261
1006.688, 923.3755
1007.171, 931.6407
1007.653, 923.3758
1008.135, 917.9355
1008.617, 919.5273
1009.099, 924.3895
1009.581, 928.4590
1010.063, 931.7120
1010.545, 931.2588
1011.027, 926.3097
1011.510, 923.2847
1011.992, 930.5208
1012.474, 940.4410
1012.956, 947.6873
1013.438, 951.8843
1013.920, 946.0212
1014.402, 923.7394
1014.884, 906.4194
1015.367, 904.9987
1015.849, 913.6313
1016.331, 915.1273
1016.813, 912.1882
1017.295, 914.3111
1017.777, 934.1545
1018.259, 949.7838
1018.741, 946.6160
1019.223, 937.0390
1019.706, 938.1000
1020.188, 952.2857
1020.670, 965.2395
1021.152, 976.9607
1021.634, 980.7914
1022.116, 962.5995
1022.598, 936.6025
1023.080, 920.2770
1023.563, 915.4584
1024.045, 916.8185
1024.527, 928.4961
1025.009, 938.8036
1025.491, 942.9973
1025.973, 943.1631
1026.455, 947.7360
1026.937, 955.6281
1027.419, 960.1112
1027.901, 957.5726
1028.384, 952.1516
1028.866, 941.5497
1029.348, 932.0597
1029.830, 933.8603
1030.312, 954.4084
1030.794, 964.7021
1031.276, 962.6113
1031.758, 955.8127
1032.241, 948.1608
1032.723, 942.3107
1033.205, 945.5092
1033.687, 957.0845
1034.169, 964.8010
1034.651, 958.5417
1035.133, 953.5788
1035.615, 956.8760
1036.098, 964.3915
1036.580, 961.4159
1037.062, 949.0098
1037.544, 942.5910
1038.026, 949.0997
1038.508, 957.0155
1038.990, 953.7449
1039.472, 947.0861
1039.954, 946.8541
1040.437, 957.0971
1040.919, 966.8362
1041.401, 977.9238
1041.883, 983.6216
1042.365, 975.1128
1042.847, 958.7119
1043.329, 948.9459
1043.811, 945.5905
1044.293, 945.7548
1044.776, 949.9528
1045.258, 955.5739
1045.740, 964.8363
1046.222, 973.2539
1046.704, 968.0901
1047.186, 949.2550
1047.668, 943.8628
1048.150, 959.6564
1048.633, 975.7273
1049.115, 967.3489
1049.597, 951.4525
1050.079, 945.5337
1050.561, 954.1122
1051.043, 963.5585
1051.525, 975.4801
1052.007, 983.1141
1052.490, 980.5393
1052.972, 972.5872
1053.454, 973.6554
1053.936, 980.1113
1054.418, 980.3524
1054.900, 957.0106
1055.382, 942.0277
1055.864, 954.9690
1056.346, 973.7322
1056.828, 967.8688
1057.311, 936.5648
1057.793, 929.9294
1058.275, 953.8993
1058.757, 978.9155
1059.239, 979.8013
1059.721, 970.9671
1060.203, 962.1473
1060.685, 954.6913
1061.168, 954.9557
1061.650, 966.6204
1062.132, 976.2684
1062.614, 980.0655
1063.096, 979.0433
1063.578, 971.7728
1064.060, 961.6093
1064.542, 956.4347
1065.025, 961.9354
1065.507, 964.4051
1065.989, 957.0472
1066.471, 947.5809
1066.953, 939.5560
1067.435, 933.0446
1067.917, 936.2720
1068.399, 948.7026
1068.881, 958.7397
1069.364, 958.9303
1069.846, 954.0745
1070.328, 942.3857
1070.810, 928.7538
1071.292, 928.1605
1071.774, 947.0020
1072.256, 957.8601
1072.738, 955.8410
1073.220, 947.5557
1073.703, 938.1908
1074.185, 929.4251
1074.667, 923.8532
1075.149, 921.7470
1075.631, 923.5408
1076.113, 933.6194
1076.595, 941.8821
1077.077, 943.3684
1077.559, 940.6609
1078.042, 944.2353
1078.524, 952.4781
1079.006, 957.7158
1079.488, 955.7629
1079.970, 952.0181
1080.452, 949.5489
1080.934, 946.7322
1081.416, 940.3690
1081.899, 927.6876
1082.381, 928.0879
1082.863, 942.9479
1083.345, 958.6309
1083.827, 964.8926
1084.309, 966.1666
1084.791, 967.6219
1085.273, 968.5432
1085.755, 964.3079
1086.238, 947.1036
1086.720, 939.9261
1087.202, 949.2236
1087.684, 964.5192
1088.166, 970.5590
1088.648, 970.2351
1089.130, 971.2720
1089.612, 975.4739
1090.094, 976.2088
1090.577, 965.2781
1091.059, 955.9623
1091.541, 955.9338
1092.023, 962.8686
1092.505, 962.9844
1092.987, 957.0665
1093.469, 952.6010
1093.951, 953.1552
1094.434, 955.3086
1094.916, 956.7935
1095.398, 958.3430
1095.880, 961.1524
1096.362, 966.3736
1096.844, 968.2878
1097.326, 966.3266
1097.808, 964.7442
1098.291, 968.9837
1098.773, 974.1581
1099.255, 972.2321
1099.737, 965.1342
1100.219, 961.0948
1100.701, 963.4030
1101.183, 967.2200
1101.665, 973.7394
1102.147, 978.2628
1102.630, 969.4790
1103.112, 953.7850
1103.594, 947.3658
1104.076, 952.8185
1104.558, 964.0987
1105.040, 990.7103
1105.522, 1008.579
1106.004, 1003.788
1106.486, 982.5163
1106.969, 971.6094
1107.451, 970.0589
1107.933, 968.4559
1108.415, 962.4208
1108.897, 957.9145
1109.379, 962.6978
1109.861, 969.3261
1110.343, 969.7819
1110.826, 963.4746
1111.308, 951.8807
1111.790, 933.6393
1112.272, 922.2850
1112.754, 931.7898
1113.236, 949.1261
1113.718, 962.4532
1114.200, 970.9462
1114.682, 972.1653
1115.165, 958.8795
1115.647, 952.3184
1116.129, 955.8199
1116.611, 962.5684
1117.093, 965.4040
1117.575, 965.6019
1118.057, 965.6550
1118.539, 965.7584
1119.021, 965.3557
1119.504, 964.0714
1119.986, 962.5399
1120.468, 961.4793
1120.950, 959.8661
1121.432, 952.4296
1121.914, 941.7054
1122.396, 939.9585
1122.878, 952.1188
1123.361, 964.6651
1123.843, 972.0418
1124.325, 974.5311
1124.807, 970.3030
1125.289, 960.3480
1125.771, 963.5544
1126.253, 979.5260
1126.735, 990.0060
1127.218, 984.8635
1127.700, 972.9962
1128.182, 952.0022
1128.664, 933.2368
1129.146, 935.9092
1129.628, 971.2701
1130.110, 991.1851
1130.592, 993.8628
1131.074, 990.1927
1131.557, 985.8797
1132.039, 982.0624
1132.521, 982.6513
1133.003, 985.4205
1133.485, 981.7354
1133.967, 964.1117
1134.449, 951.1160
1134.931, 944.5433
1135.413, 944.0519
1135.896, 953.2223
1136.378, 966.7962
1136.860, 974.7244
1137.342, 975.8881
1137.824, 973.8615
1138.306, 966.8928
1138.788, 960.4213
1139.270, 955.8880
1139.752, 952.8027
1140.235, 950.0241
1140.717, 947.6292
1141.199, 945.5773
1141.681, 943.3302
1142.163, 943.6478
1142.645, 947.7949
1143.127, 955.4943
1143.609, 968.0540
1144.092, 984.2763
1144.574, 994.2330
1145.056, 997.7211
1145.538, 990.8085
1146.020, 962.6497
1146.502, 937.7133
1146.984, 935.9401
1147.466, 944.7377
1147.948, 948.9696
1148.431, 947.6824
1148.913, 944.5683
1149.395, 939.2029
1149.877, 940.4233
1150.359, 964.8444
1150.841, 989.1292
1151.323, 992.2377
1151.805, 979.2393
1152.287, 963.8862
1152.770, 942.3280
1153.252, 936.5811
1153.734, 951.0424
1154.216, 969.9152
1154.698, 979.2493
1155.180, 982.1186
1155.662, 980.6982
1156.144, 975.6436
1156.627, 970.8824
1157.109, 965.9033
1157.591, 963.9816
1158.073, 967.0817
1158.555, 970.6546
1159.037, 965.6783
1159.519, 957.4247
1160.001, 956.3725
1160.484, 965.4380
1160.966, 968.3889
1161.448, 955.3745
1161.930, 948.3152
1162.412, 958.3997
1162.894, 976.4225
1163.376, 979.9580
1163.858, 973.4697
1164.340, 968.8249
1164.823, 971.1598
1165.305, 970.6151
1165.787, 961.9254
1166.269, 953.0097
1166.751, 948.4635
1167.233, 947.5690
1167.715, 946.2330
1168.197, 945.3245
1168.679, 948.6802
1169.162, 962.7657
1169.644, 975.1238
1170.126, 981.3594
1170.608, 983.8834
1171.090, 984.2595
1171.572, 982.4743
1172.054, 976.1908
1172.536, 966.2277
1173.019, 962.5337
1173.501, 979.5396
1173.983, 995.0222
1174.465, 996.6104
1174.947, 990.1599
1175.429, 983.5179
1175.911, 976.7432
1176.393, 967.8219
1176.875, 956.5677
1177.358, 949.1347
1177.840, 951.0679
1178.322, 957.7922
1178.804, 971.7455
1179.286, 987.4587
1179.768, 985.1865
1180.250, 963.7851
1180.732, 951.2680
1181.214, 953.6509
1181.697, 962.8290
1182.179, 975.6946
1182.661, 988.9709
1183.143, 1001.701
1183.625, 1012.973
1184.107, 1013.297
1184.589, 1001.641
1185.071, 988.5634
1185.554, 976.0018
1186.036, 966.9731
1186.518, 967.7726
1187.000, 972.2628
1187.482, 972.8793
1187.964, 968.3357
1188.446, 967.7386
1188.928, 971.8195
1189.411, 974.9427
1189.893, 972.9410
1190.375, 971.0088
1190.857, 979.9442
1191.339, 991.3077
1191.821, 990.8167
1192.303, 969.6304
1192.785, 961.0713
1193.267, 967.6832
1193.750, 974.3732
1194.232, 967.0238
1194.714, 957.3748
1195.196, 963.4550
1195.678, 978.5716
1196.160, 988.1649
1196.642, 988.8137
1197.124, 985.1409
1197.606, 975.8577
1198.089, 967.8486
1198.571, 967.1208
1199.053, 971.2559
1199.535, 980.1610
1200.017, 991.3128
1200.499, 995.8588
1200.981, 987.9285
1201.463, 983.5950
1201.945, 985.1705
1202.428, 988.3134
1202.910, 987.5496
1203.392, 985.9082
1203.874, 988.7371
1204.356, 995.5735
1204.838, 999.9413
1205.320, 999.2774
1205.802, 1000.337
1206.285, 1005.520
1206.767, 1009.308
1207.249, 1000.680
1207.731, 987.6500
1208.213, 983.9199
1208.695, 990.9367
1209.177, 993.4332
1209.659, 987.2068
1210.141, 981.5059
1210.624, 978.2625
1211.106, 977.8199
1211.588, 984.2731
1212.070, 992.3682
1212.552, 992.1213
1213.034, 980.4403
1213.516, 973.5273
1213.998, 972.1443
1214.480, 977.9554
1214.963, 994.5889
1215.445, 1013.858
1215.927, 1024.238
1216.409, 1025.922
1216.891, 1017.303
1217.373, 993.7017
1217.855, 977.7574
1218.337, 972.4651
1218.820, 971.0549
1219.302, 971.4052
1219.784, 972.2867
1220.266, 969.9341
1220.748, 966.7267
1221.230, 967.4117
1221.712, 975.1934
1222.194, 982.8051
1222.677, 991.4623
1223.159, 995.4517
1223.641, 987.2988
1224.123, 975.4484
1224.605, 977.0917
1225.087, 986.8418
1225.569, 993.1438
1226.051, 985.8966
1226.533, 987.7777
1227.016, 1001.399
1227.498, 1017.508
1227.980, 1036.302
1228.462, 1048.822
1228.944, 1029.514
1229.426, 992.0668
1229.908, 973.0754
1230.390, 997.6089
1230.872, 1009.654
1231.355, 1004.393
1231.837, 995.9406
1232.319, 997.3107
1232.801, 1002.808
1233.283, 1004.583
1233.765, 1003.266
1234.247, 1001.828
1234.729, 1000.826
1235.212, 998.7519
1235.694, 994.2334
1236.176, 993.5843
1236.658, 1009.125
1237.140, 1028.004
1237.622, 1031.877
1238.104, 1023.267
1238.586, 1019.055
1239.068, 1022.502
1239.551, 1024.471
1240.033, 1023.638
1240.515, 1022.044
1240.997, 1023.161
1241.479, 1023.744
1241.961, 1016.425
1242.443, 1003.992
1242.925, 1006.765
1243.407, 1032.171
1243.890, 1041.212
1244.372, 1025.042
1244.854, 1001.789
1245.336, 982.4829
1245.818, 972.2190
1246.300, 982.8877
1246.782, 1011.224
1247.264, 1021.436
1247.747, 1010.396
1248.229, 1003.502
1248.711, 1006.911
1249.193, 1012.411
1249.675, 1009.388
1250.157, 1007.001
1250.639, 1018.724
1251.121, 1040.567
1251.604, 1041.608
1252.086, 1020.414
1252.568, 1008.521
1253.050, 1015.501
1253.532, 1026.161
1254.014, 1028.911
1254.496, 1028.615
1254.978, 1029.712
1255.460, 1031.542
1255.943, 1029.048
1256.425, 1022.279
1256.907, 1011.950
1257.389, 995.2209
1257.871, 986.1777
1258.353, 1007.113
1258.835, 1027.705
1259.317, 1023.250
1259.799, 1000.077
1260.281, 993.6826
1260.764, 1002.150
1261.246, 1014.842
1261.728, 1031.587
1262.210, 1041.784
1262.692, 1035.322
1263.174, 1024.911
1263.656, 1017.504
1264.138, 1012.623
1264.621, 1007.555
1265.103, 1003.135
1265.585, 1003.581
1266.067, 1014.056
1266.549, 1018.709
1267.031, 1002.845
1267.513, 991.2266
1267.995, 999.3248
1268.478, 1019.568
1268.960, 1028.771
1269.442, 1029.980
1269.924, 1031.866
1270.406, 1038.779
1270.888, 1041.782
1271.370, 1037.910
1271.852, 1033.658
1272.334, 1033.000
1272.817, 1034.238
1273.299, 1033.057
1273.781, 1030.881
1274.263, 1030.831
1274.745, 1034.928
1275.227, 1039.336
1275.709, 1045.358
1276.191, 1047.012
1276.673, 1035.299
1277.156, 1022.732
1277.638, 1035.357
1278.120, 1058.931
1278.602, 1066.716
1279.084, 1046.811
1279.566, 1034.069
1280.048, 1028.524
1280.530, 1029.433
1281.013, 1039.494
1281.495, 1052.341
1281.977, 1064.042
1282.459, 1072.958
1282.941, 1076.483
1283.423, 1074.757
1283.905, 1064.985
1284.387, 1046.823
1284.870, 1035.876
1285.352, 1049.448
1285.834, 1064.212
1286.316, 1062.920
1286.798, 1055.039
1287.280, 1053.717
1287.762, 1059.484
1288.244, 1049.915
1288.726, 1027.808
1289.208, 1016.931
1289.691, 1046.961
1290.173, 1070.600
1290.655, 1058.384
1291.137, 1039.912
1291.619, 1043.073
##END=



