##NAMES=Eskolaite
##RRUFFID=R060892
##IDEAL CHEMISTRY=Cr^3+^_2_O_3_
##LOCALITY=Outokumpu, Finland
##OWNER=RRUFF
##SOURCE=Michael Scott
##DESCRIPTION=Black submetallic hexagonal prisms
##STATUS=The identification of this mineral has been confirmed by single-crystal X-ray diffraction.
##URL=rruff.info/R060892
206.3800, 2042.370
206.8621, 2025.608
207.3442, 2006.895
207.8263, 2001.002
208.3084, 2009.251
208.7905, 2018.326
209.2727, 2025.698
209.7548, 2030.086
210.2369, 2029.448
210.7190, 2022.514
211.2011, 2013.341
211.6832, 2006.472
212.1654, 2002.169
212.6475, 1995.918
213.1296, 1980.966
213.6117, 1966.934
214.0938, 1964.773
214.5760, 1977.994
215.0581, 1993.713
215.5402, 1999.429
216.0223, 1995.198
216.5044, 1992.389
216.9865, 1995.348
217.4687, 2000.390
217.9508, 2004.565
218.4329, 2007.901
218.9150, 2008.720
219.3971, 2002.578
219.8792, 1990.489
220.3614, 1985.334
220.8435, 1993.264
221.3256, 2007.068
221.8077, 2021.263
222.2898, 2036.245
222.7719, 2045.161
223.2541, 2039.464
223.7362, 2022.053
224.2183, 2008.319
224.7004, 2000.409
225.1825, 1999.050
225.6646, 2007.294
226.1468, 2024.980
226.6289, 2038.097
227.1110, 2033.740
227.5931, 2017.971
228.0752, 2011.924
228.5573, 2023.450
229.0395, 2037.928
229.5216, 2040.575
230.0037, 2032.774
230.4858, 2024.175
230.9679, 2017.570
231.4500, 2013.255
231.9322, 2011.674
232.4143, 2012.623
232.8964, 2017.068
233.3785, 2029.181
233.8606, 2046.885
234.3427, 2060.458
234.8249, 2066.792
235.3070, 2067.224
235.7891, 2062.219
236.2712, 2050.727
236.7533, 2039.112
237.2354, 2032.307
237.7176, 2029.695
238.1997, 2029.945
238.6818, 2036.149
239.1639, 2043.277
239.6460, 2045.347
240.1281, 2041.947
240.6103, 2037.119
241.0924, 2033.045
241.5745, 2029.836
242.0566, 2027.708
242.5387, 2027.913
243.0208, 2028.321
243.5030, 2027.046
243.9851, 2024.246
244.4672, 2021.673
244.9493, 2020.965
245.4314, 2021.154
245.9135, 2018.591
246.3957, 2008.206
246.8778, 2000.090
247.3599, 2002.431
247.8420, 2012.470
248.3241, 2019.925
248.8062, 2019.220
249.2884, 2012.993
249.7705, 2009.513
250.2526, 2007.256
250.7347, 2009.145
251.2168, 2020.853
251.6989, 2037.144
252.1811, 2046.862
252.6632, 2044.890
253.1453, 2035.783
253.6274, 2029.201
254.1095, 2024.046
254.5916, 2022.871
255.0738, 2028.520
255.5559, 2037.652
256.0380, 2046.432
256.5201, 2053.746
257.0022, 2059.506
257.4843, 2063.530
257.9665, 2065.255
258.4486, 2066.172
258.9307, 2062.054
259.4128, 2059.638
259.8949, 2067.107
260.3770, 2085.171
260.8592, 2105.195
261.3413, 2117.231
261.8234, 2118.869
262.3055, 2120.357
262.7876, 2122.970
263.2697, 2124.481
263.7519, 2120.459
264.2340, 2112.827
264.7161, 2109.866
265.1982, 2119.914
265.6803, 2144.592
266.1624, 2163.292
266.6446, 2177.869
267.1267, 2185.704
267.6088, 2177.346
268.0909, 2161.181
268.5730, 2155.782
269.0551, 2175.184
269.5373, 2215.761
270.0194, 2245.442
270.5015, 2254.923
270.9836, 2262.437
271.4657, 2268.251
271.9478, 2274.374
272.4300, 2283.887
272.9121, 2298.620
273.3942, 2315.696
273.8763, 2326.544
274.3584, 2323.442
274.8405, 2326.729
275.3227, 2345.008
275.8048, 2366.712
276.2869, 2379.390
276.7690, 2379.238
277.2511, 2376.992
277.7332, 2391.883
278.2154, 2432.029
278.6975, 2463.823
279.1796, 2472.466
279.6617, 2480.027
280.1438, 2502.336
280.6259, 2540.168
281.1081, 2579.033
281.5902, 2602.976
282.0723, 2611.052
282.5544, 2622.948
283.0365, 2639.050
283.5186, 2660.590
284.0008, 2691.924
284.4829, 2730.069
284.9650, 2764.889
285.4471, 2789.812
285.9292, 2805.869
286.4113, 2815.965
286.8935, 2814.539
287.3756, 2818.141
287.8577, 2836.508
288.3398, 2865.956
288.8219, 2901.154
289.3040, 2947.100
289.7862, 2992.673
290.2683, 3017.968
290.7504, 3019.471
291.2325, 3023.207
291.7146, 3049.756
292.1967, 3083.993
292.6789, 3101.536
293.1610, 3093.874
293.6431, 3077.675
294.1252, 3067.184
294.6073, 3060.538
295.0894, 3044.627
295.5716, 3010.221
296.0537, 2968.499
296.5358, 2941.867
297.0179, 2936.655
297.5000, 2923.183
297.9821, 2886.400
298.4643, 2834.091
298.9464, 2778.850
299.4285, 2723.464
299.9106, 2668.400
300.3927, 2612.854
300.8748, 2556.070
301.3570, 2504.357
301.8391, 2458.418
302.3212, 2417.876
302.8033, 2386.146
303.2854, 2361.978
303.7675, 2333.717
304.2497, 2288.554
304.7318, 2224.684
305.2139, 2178.988
305.6960, 2162.198
306.1781, 2149.941
306.6602, 2132.737
307.1424, 2111.333
307.6245, 2089.144
308.1066, 2068.126
308.5887, 2048.229
309.0708, 2029.163
309.5529, 2014.462
310.0351, 1996.450
310.5172, 1969.075
310.9993, 1940.128
311.4814, 1918.427
311.9635, 1907.326
312.4456, 1903.560
312.9278, 1902.786
313.4099, 1912.316
313.8920, 1908.560
314.3741, 1878.980
314.8562, 1846.555
315.3383, 1823.609
315.8205, 1812.665
316.3026, 1811.793
316.7847, 1824.208
317.2668, 1852.286
317.7489, 1864.233
318.2310, 1844.509
318.7132, 1824.699
319.1953, 1820.968
319.6774, 1827.776
320.1595, 1830.384
320.6416, 1817.595
321.1237, 1795.558
321.6059, 1781.246
322.0880, 1775.079
322.5701, 1775.380
323.0522, 1785.022
323.5343, 1799.389
324.0164, 1813.423
324.4986, 1826.019
324.9807, 1837.696
325.4628, 1849.049
325.9449, 1860.025
326.4270, 1870.369
326.9091, 1882.087
327.3913, 1890.692
327.8734, 1887.848
328.3555, 1870.458
328.8376, 1859.535
329.3197, 1869.536
329.8018, 1891.154
330.2840, 1907.773
330.7661, 1915.926
331.2482, 1920.119
331.7303, 1924.448
332.2124, 1928.921
332.6945, 1934.056
333.1767, 1936.162
333.6588, 1941.824
334.1409, 1958.703
334.6230, 1984.985
335.1051, 2010.449
335.5872, 2027.978
336.0694, 2038.683
336.5515, 2053.876
337.0336, 2074.152
337.5157, 2097.459
337.9979, 2125.188
338.4800, 2155.328
338.9621, 2184.120
339.4442, 2210.054
339.9263, 2237.010
340.4084, 2272.215
340.8906, 2315.532
341.3727, 2369.144
341.8548, 2448.224
342.3369, 2524.929
342.8190, 2574.970
343.3011, 2599.436
343.7833, 2622.204
344.2654, 2671.422
344.7475, 2749.631
345.2296, 2806.550
345.7117, 2831.085
346.1938, 2845.227
346.6760, 2858.305
347.1581, 2867.440
347.6402, 2866.261
348.1223, 2850.600
348.6044, 2823.734
349.0865, 2794.160
349.5687, 2764.371
350.0508, 2721.115
350.5329, 2643.815
351.0150, 2557.669
351.4971, 2491.006
351.9792, 2451.896
352.4614, 2416.220
352.9435, 2361.201
353.4256, 2293.430
353.9077, 2239.601
354.3898, 2208.572
354.8719, 2188.588
355.3541, 2167.689
355.8362, 2146.076
356.3183, 2124.520
356.8004, 2100.363
357.2825, 2078.226
357.7646, 2064.619
358.2468, 2059.212
358.7289, 2054.633
359.2110, 2045.640
359.6931, 2032.628
360.1752, 2019.946
360.6573, 2007.138
361.1395, 1995.197
361.6216, 1984.061
362.1037, 1974.046
362.5858, 1965.552
363.0679, 1958.745
363.5500, 1953.566
364.0322, 1949.655
364.5143, 1944.543
364.9964, 1945.541
365.4785, 1958.935
365.9606, 1972.748
366.4427, 1980.313
366.9249, 1980.563
367.4070, 1974.788
367.8891, 1962.549
368.3712, 1944.028
368.8533, 1929.958
369.3354, 1920.918
369.8176, 1915.984
370.2997, 1915.464
370.7818, 1918.214
371.2639, 1922.974
371.7460, 1929.913
372.2281, 1937.062
372.7103, 1942.334
373.1924, 1945.897
373.6745, 1944.806
374.1566, 1933.214
374.6387, 1920.574
375.1208, 1919.370
375.6030, 1931.592
376.0851, 1939.453
376.5672, 1929.172
377.0493, 1909.403
377.5314, 1897.050
378.0135, 1895.067
378.4957, 1896.404
378.9778, 1895.334
379.4599, 1891.822
379.9420, 1888.832
380.4241, 1886.057
380.9063, 1884.129
381.3884, 1884.713
381.8705, 1886.499
382.3526, 1885.494
382.8347, 1879.284
383.3168, 1870.865
383.7990, 1868.509
384.2811, 1885.229
384.7632, 1890.379
385.2453, 1872.392
385.7274, 1850.429
386.2095, 1839.667
386.6917, 1842.356
387.1738, 1851.980
387.6559, 1863.553
388.1380, 1877.713
388.6201, 1883.976
389.1022, 1877.624
389.5844, 1868.140
390.0665, 1855.517
390.5486, 1842.595
391.0307, 1833.772
391.5128, 1830.922
391.9949, 1833.139
392.4771, 1840.860
392.9592, 1855.043
393.4413, 1866.128
393.9234, 1873.171
394.4055, 1873.720
394.8876, 1863.681
395.3698, 1842.127
395.8519, 1822.270
396.3340, 1808.048
396.8161, 1800.712
397.2982, 1806.416
397.7803, 1826.927
398.2625, 1844.907
398.7446, 1843.936
399.2267, 1825.177
399.7088, 1817.329
400.1909, 1831.359
400.6730, 1844.330
401.1552, 1847.982
401.6373, 1843.085
402.1194, 1829.131
402.6015, 1805.545
403.0836, 1780.034
403.5657, 1769.087
404.0479, 1786.628
404.5300, 1792.978
405.0121, 1779.751
405.4942, 1763.778
405.9763, 1754.663
406.4584, 1752.806
406.9406, 1754.327
407.4227, 1756.436
407.9048, 1759.197
408.3869, 1763.052
408.8690, 1768.531
409.3511, 1774.195
409.8333, 1784.087
410.3154, 1791.989
410.7975, 1788.473
411.2796, 1768.919
411.7617, 1748.285
412.2438, 1741.064
412.7260, 1745.640
413.2081, 1753.418
413.6902, 1765.078
414.1723, 1774.529
414.6544, 1771.531
415.1365, 1757.784
415.6187, 1749.856
416.1008, 1754.340
416.5829, 1763.161
417.0650, 1772.428
417.5471, 1780.745
418.0292, 1783.816
418.5114, 1778.865
418.9935, 1767.618
419.4756, 1755.858
419.9577, 1737.311
420.4398, 1726.519
420.9219, 1730.152
421.4041, 1738.097
421.8862, 1741.716
422.3683, 1739.690
422.8504, 1735.812
423.3325, 1733.671
423.8146, 1733.289
424.2968, 1734.298
424.7789, 1739.092
425.2610, 1742.090
425.7431, 1739.511
426.2252, 1734.675
426.7073, 1733.774
427.1895, 1740.906
427.6716, 1746.448
428.1537, 1732.180
428.6358, 1699.529
429.1179, 1684.914
429.6000, 1706.476
430.0822, 1735.621
430.5643, 1736.997
431.0464, 1712.553
431.5285, 1695.664
432.0106, 1700.663
432.4927, 1713.495
432.9749, 1723.018
433.4570, 1728.191
433.9391, 1727.817
434.4212, 1719.747
434.9033, 1707.328
435.3854, 1703.455
435.8676, 1718.940
436.3497, 1728.955
436.8318, 1729.097
437.3139, 1724.702
437.7960, 1719.204
438.2781, 1713.931
438.7603, 1710.036
439.2424, 1708.181
439.7245, 1708.346
440.2066, 1714.401
440.6887, 1732.343
441.1708, 1747.976
441.6530, 1758.343
442.1351, 1763.098
442.6172, 1759.957
443.0993, 1746.011
443.5814, 1731.966
444.0635, 1731.596
444.5457, 1743.019
445.0278, 1750.879
445.5099, 1750.874
445.9920, 1748.143
446.4741, 1748.172
446.9562, 1750.674
447.4384, 1752.645
447.9205, 1757.148
448.4026, 1758.023
448.8847, 1746.761
449.3668, 1727.190
449.8489, 1712.176
450.3311, 1708.402
450.8132, 1712.428
451.2953, 1715.510
451.7774, 1717.016
452.2595, 1718.555
452.7416, 1721.580
453.2238, 1723.554
453.7059, 1723.715
454.1880, 1721.378
454.6701, 1714.647
455.1522, 1699.772
455.6343, 1679.861
456.1165, 1670.723
456.5986, 1676.533
457.0807, 1683.114
457.5628, 1684.601
458.0449, 1684.474
458.5270, 1686.477
459.0092, 1691.565
459.4913, 1695.929
459.9734, 1698.815
460.4555, 1698.882
460.9376, 1690.538
461.4197, 1672.130
461.9019, 1656.479
462.3840, 1656.636
462.8661, 1671.286
463.3482, 1675.305
463.8303, 1656.092
464.3124, 1641.494
464.7946, 1644.397
465.2767, 1656.539
465.7588, 1666.889
466.2409, 1671.781
466.7230, 1672.848
467.2051, 1672.016
467.6873, 1668.927
468.1694, 1665.609
468.6515, 1655.434
469.1336, 1652.280
469.6157, 1669.013
470.0978, 1694.981
470.5800, 1709.674
471.0621, 1701.605
471.5442, 1685.499
472.0263, 1681.169
472.5084, 1687.973
472.9905, 1693.675
473.4727, 1694.796
473.9548, 1694.304
474.4369, 1696.722
474.9190, 1701.929
475.4011, 1703.110
475.8832, 1691.227
476.3654, 1681.391
476.8475, 1690.050
477.3296, 1711.305
477.8117, 1724.634
478.2938, 1719.038
478.7759, 1702.666
479.2581, 1695.193
479.7402, 1702.889
480.2223, 1708.575
480.7044, 1711.858
481.1865, 1713.540
481.6686, 1712.593
482.1508, 1710.256
482.6329, 1710.162
483.1150, 1715.858
483.5971, 1724.411
484.0792, 1726.785
484.5613, 1720.936
485.0435, 1720.712
485.5256, 1735.772
486.0077, 1755.122
486.4898, 1764.688
486.9719, 1763.560
487.4540, 1760.361
487.9362, 1756.929
488.4183, 1753.888
488.9004, 1751.691
489.3825, 1750.473
489.8646, 1750.769
490.3467, 1753.021
490.8289, 1756.922
491.3110, 1761.223
491.7931, 1765.417
492.2752, 1770.747
492.7573, 1777.022
493.2394, 1784.647
493.7216, 1797.232
494.2037, 1812.809
494.6858, 1821.801
495.1679, 1813.075
495.6500, 1791.933
496.1321, 1782.875
496.6143, 1789.326
497.0964, 1797.477
497.5785, 1803.391
498.0606, 1807.237
498.5427, 1808.743
499.0248, 1807.453
499.5070, 1806.264
499.9891, 1807.168
500.4712, 1808.703
500.9533, 1809.978
501.4355, 1810.512
501.9176, 1806.460
502.3997, 1793.765
502.8818, 1774.902
503.3639, 1764.226
503.8460, 1768.891
504.3282, 1772.994
504.8103, 1773.833
505.2924, 1774.559
505.7745, 1779.303
506.2566, 1787.679
506.7387, 1794.142
507.2209, 1791.832
507.7030, 1783.444
508.1851, 1784.094
508.6672, 1797.273
509.1493, 1809.281
509.6314, 1815.581
510.1136, 1816.752
510.5957, 1812.021
511.0778, 1799.424
511.5599, 1789.768
512.0420, 1789.463
512.5241, 1794.211
513.0062, 1798.977
513.4883, 1803.068
513.9705, 1806.516
514.4526, 1808.840
514.9347, 1810.867
515.4168, 1817.099
515.8989, 1832.868
516.3810, 1845.704
516.8632, 1851.572
517.3453, 1856.456
517.8274, 1866.370
518.3095, 1880.883
518.7916, 1894.101
519.2737, 1900.137
519.7559, 1901.390
520.2380, 1905.207
520.7201, 1911.113
521.2022, 1922.435
521.6843, 1946.086
522.1664, 1971.967
522.6486, 1983.444
523.1307, 1977.104
523.6128, 1974.264
524.0949, 1986.081
524.5770, 2001.747
525.0591, 2010.429
525.5413, 2012.215
526.0234, 2011.960
526.5055, 2012.200
526.9876, 2013.868
527.4697, 2021.151
527.9518, 2044.391
528.4340, 2053.599
528.9161, 2032.515
529.3982, 2010.659
529.8803, 2006.656
530.3624, 2019.294
530.8445, 2037.795
531.3267, 2061.974
531.8088, 2083.138
532.2909, 2077.926
532.7730, 2046.981
533.2551, 2035.355
533.7372, 2064.594
534.2194, 2109.775
534.7015, 2131.375
535.1836, 2123.731
535.6657, 2136.709
536.1478, 2184.901
536.6299, 2246.290
537.1121, 2312.011
537.5942, 2379.507
538.0763, 2443.983
538.5584, 2503.299
539.0405, 2563.763
539.5226, 2634.879
540.0048, 2714.745
540.4869, 2813.823
540.9690, 2929.962
541.4511, 3070.755
541.9332, 3250.252
542.4153, 3455.234
542.8975, 3654.490
543.3796, 3830.534
543.8617, 4010.577
544.3438, 4220.643
544.8259, 4454.485
545.3080, 4697.019
545.7902, 4944.826
546.2723, 5200.575
546.7544, 5468.895
547.2365, 5752.431
547.7186, 6022.700
548.2007, 6285.950
548.6829, 6531.367
549.1650, 6784.639
549.6471, 7004.252
550.1292, 7154.589
550.6113, 7223.522
551.0934, 7200.995
551.5756, 7068.194
552.0577, 6833.171
552.5398, 6527.352
553.0219, 6138.483
553.5040, 5726.791
553.9861, 5304.069
554.4683, 4884.391
554.9504, 4485.049
555.4325, 4100.072
555.9146, 3756.943
556.3967, 3465.094
556.8788, 3218.762
557.3610, 3019.801
557.8431, 2862.319
558.3252, 2725.803
558.8073, 2597.259
559.2894, 2480.037
559.7715, 2385.306
560.2537, 2318.081
560.7358, 2261.139
561.2179, 2223.301
561.7000, 2186.288
562.1821, 2133.238
562.6642, 2070.788
563.1464, 2024.274
563.6285, 2014.986
564.1106, 2016.093
564.5927, 1997.190
565.0748, 1963.263
565.5569, 1934.040
566.0391, 1915.302
566.5212, 1902.390
567.0033, 1890.238
567.4854, 1878.959
567.9675, 1867.247
568.4496, 1852.719
568.9318, 1840.574
569.4139, 1833.831
569.8960, 1829.699
570.3781, 1822.929
570.8602, 1812.680
571.3423, 1806.836
571.8245, 1817.980
572.3066, 1841.510
572.7887, 1854.380
573.2708, 1854.531
573.7529, 1849.993
574.2350, 1845.077
574.7172, 1837.998
575.1993, 1822.973
575.6814, 1792.190
576.1635, 1774.052
576.6456, 1782.387
577.1277, 1800.089
577.6099, 1817.803
578.0920, 1832.052
578.5741, 1836.859
579.0562, 1827.586
579.5383, 1812.054
580.0204, 1810.508
580.5026, 1827.618
580.9847, 1837.661
581.4668, 1831.719
581.9489, 1824.310
582.4310, 1825.995
582.9132, 1834.169
583.3953, 1840.661
583.8774, 1841.232
584.3596, 1842.139
584.8417, 1850.309
585.3238, 1861.182
585.8059, 1864.403
586.2880, 1858.047
586.7701, 1851.565
587.2523, 1855.409
587.7344, 1868.746
588.2165, 1871.945
588.6986, 1857.674
589.1807, 1843.827
589.6628, 1828.545
590.1450, 1818.568
590.6271, 1823.672
591.1092, 1842.973
591.5913, 1859.109
592.0734, 1858.030
592.5555, 1849.288
593.0377, 1848.747
593.5198, 1855.024
594.0019, 1853.644
594.4840, 1836.318
594.9661, 1817.639
595.4482, 1821.811
595.9304, 1857.124
596.4125, 1885.882
596.8946, 1911.625
597.3767, 1927.947
597.8588, 1924.754
598.3409, 1913.450
598.8231, 1909.342
599.3052, 1917.383
599.7873, 1933.421
600.2694, 1955.441
600.7515, 1982.157
601.2336, 2008.476
601.7158, 2033.618
602.1979, 2061.257
602.6800, 2092.784
603.1621, 2128.615
603.6442, 2171.668
604.1263, 2227.673
604.6085, 2278.240
605.0906, 2310.677
605.5727, 2346.189
606.0548, 2400.785
606.5369, 2470.880
607.0190, 2545.372
607.5012, 2618.326
607.9833, 2691.680
608.4654, 2770.983
608.9475, 2855.802
609.4296, 2932.929
609.9117, 3001.882
610.3939, 3058.969
610.8760, 3097.874
611.3581, 3121.916
611.8402, 3147.869
612.3223, 3197.427
612.8044, 3218.718
613.2866, 3188.285
613.7687, 3128.088
614.2508, 3055.466
614.7329, 2975.158
615.2150, 2888.747
615.6971, 2796.149
616.1793, 2700.771
616.6614, 2612.201
617.1435, 2531.587
617.6256, 2452.560
618.1077, 2371.511
618.5898, 2295.346
619.0720, 2228.466
619.5541, 2171.146
620.0362, 2128.856
620.5183, 2112.498
621.0004, 2100.102
621.4825, 2080.508
621.9647, 2058.831
622.4468, 2043.540
622.9289, 2035.453
623.4110, 2026.856
623.8931, 2008.741
624.3752, 1985.185
624.8574, 1981.153
625.3395, 2005.211
625.8216, 2021.770
626.3037, 2015.432
626.7858, 2003.665
627.2679, 2003.880
627.7501, 2014.885
628.2322, 2022.437
628.7143, 2018.244
629.1964, 2014.105
629.6785, 2019.324
630.1606, 2029.678
630.6428, 2036.802
631.1249, 2038.736
631.6070, 2040.136
632.0891, 2045.895
632.5712, 2055.760
633.0533, 2067.255
633.5355, 2083.172
634.0176, 2094.060
634.4997, 2089.289
634.9818, 2083.735
635.4639, 2092.123
635.9460, 2114.618
636.4282, 2139.499
636.9103, 2170.603
637.3924, 2195.721
637.8745, 2200.238
638.3566, 2192.541
638.8387, 2191.375
639.3209, 2202.329
639.8030, 2215.712
640.2851, 2219.192
640.7672, 2213.128
641.2493, 2212.939
641.7314, 2220.405
642.2136, 2230.018
642.6957, 2241.356
643.1778, 2253.095
643.6599, 2265.420
644.1420, 2278.435
644.6241, 2285.683
645.1063, 2278.623
645.5884, 2270.812
646.0705, 2274.104
646.5526, 2284.773
647.0347, 2295.155
647.5168, 2302.379
647.9990, 2305.006
648.4811, 2299.021
648.9632, 2284.714
649.4453, 2283.067
649.9274, 2302.272
650.4095, 2315.245
650.8917, 2305.629
651.3738, 2289.347
651.8559, 2285.390
652.3380, 2295.042
652.8201, 2301.136
653.3022, 2295.572
653.7844, 2287.536
654.2665, 2282.949
654.7486, 2281.060
655.2307, 2281.033
655.7128, 2282.194
656.1949, 2281.031
656.6771, 2273.871
657.1592, 2260.680
657.6413, 2238.932
658.1234, 2202.782
658.6055, 2175.366
659.0876, 2168.486
659.5698, 2171.627
660.0519, 2173.009
660.5340, 2172.877
661.0161, 2167.069
661.4982, 2151.285
661.9803, 2133.078
662.4625, 2111.948
662.9446, 2093.247
663.4267, 2088.602
663.9088, 2099.606
664.3909, 2111.146
664.8730, 2104.021
665.3552, 2083.425
665.8373, 2081.253
666.3194, 2101.583
666.8015, 2118.012
667.2836, 2118.667
667.7657, 2114.867
668.2479, 2122.240
668.7300, 2141.248
669.2121, 2156.936
669.6942, 2160.336
670.1763, 2168.919
670.6584, 2195.045
671.1406, 2228.234
671.6227, 2256.387
672.1048, 2276.441
672.5869, 2289.967
673.0690, 2293.989
673.5511, 2294.799
674.0333, 2310.796
674.5154, 2342.168
674.9975, 2377.277
675.4796, 2415.819
675.9617, 2448.698
676.4438, 2463.332
676.9260, 2458.457
677.4081, 2462.058
677.8902, 2478.453
678.3723, 2497.040
678.8544, 2515.842
679.3365, 2535.466
679.8187, 2557.225
680.3008, 2580.671
680.7829, 2603.431
681.2650, 2624.797
681.7471, 2643.568
682.2292, 2656.385
682.7114, 2664.411
683.1935, 2672.261
683.6756, 2680.555
684.1577, 2694.508
684.6398, 2721.459
685.1219, 2758.810
685.6041, 2779.827
686.0862, 2774.315
686.5683, 2768.021
687.0504, 2758.151
687.5325, 2752.915
688.0146, 2760.867
688.4968, 2778.524
688.9789, 2794.781
689.4610, 2809.001
689.9431, 2814.165
690.4252, 2796.342
690.9073, 2768.009
691.3895, 2755.434
691.8716, 2760.313
692.3537, 2762.651
692.8358, 2747.601
693.3179, 2722.274
693.8000, 2710.150
694.2822, 2719.464
694.7643, 2711.929
695.2464, 2669.040
695.7285, 2628.164
696.2106, 2616.405
696.6927, 2620.958
697.1749, 2616.587
697.6570, 2598.088
698.1391, 2575.162
698.6212, 2548.124
699.1033, 2520.951
699.5854, 2496.667
700.0676, 2475.805
700.5497, 2459.174
701.0318, 2447.241
701.5139, 2437.278
701.9960, 2426.068
702.4781, 2413.559
702.9603, 2398.296
703.4424, 2380.925
703.9245, 2356.711
704.4066, 2317.674
704.8887, 2275.140
705.3708, 2251.049
705.8530, 2251.101
706.3351, 2249.005
706.8172, 2249.042
707.2993, 2241.005
707.7814, 2213.083
708.2635, 2177.609
708.7457, 2151.146
709.2278, 2137.331
709.7099, 2128.372
710.1920, 2118.660
710.6741, 2109.366
711.1563, 2103.584
711.6384, 2100.599
712.1205, 2097.208
712.6026, 2092.903
713.0847, 2082.223
713.5668, 2055.981
714.0490, 2014.682
714.5311, 1993.756
715.0132, 2010.723
715.4953, 2019.420
715.9774, 2007.628
716.4595, 1987.822
716.9417, 1967.100
717.4238, 1946.226
717.9059, 1925.891
718.3880, 1903.086
718.8701, 1885.005
719.3522, 1881.615
719.8344, 1883.145
720.3165, 1874.896
720.7986, 1855.992
721.2807, 1834.800
721.7628, 1816.828
722.2449, 1800.686
722.7271, 1781.582
723.2092, 1758.861
723.6913, 1747.203
724.1734, 1752.878
724.6555, 1757.560
725.1376, 1750.006
725.6198, 1732.718
726.1019, 1711.742
726.5840, 1681.676
727.0661, 1660.466
727.5482, 1657.335
728.0303, 1656.069
728.5125, 1647.491
728.9946, 1634.400
729.4767, 1622.304
729.9588, 1612.993
730.4409, 1604.402
730.9230, 1593.264
731.4052, 1582.346
731.8873, 1578.889
732.3694, 1581.363
732.8515, 1579.383
733.3336, 1568.896
733.8157, 1554.291
734.2979, 1540.113
734.7800, 1526.328
735.2621, 1520.082
735.7442, 1526.671
736.2263, 1530.527
736.7084, 1525.522
737.1906, 1517.930
737.6727, 1512.239
738.1548, 1508.533
738.6369, 1506.279
739.1190, 1504.750
739.6011, 1505.403
740.0833, 1511.107
740.5654, 1518.017
741.0475, 1522.061
741.5296, 1522.816
742.0117, 1521.717
742.4938, 1519.826
742.9760, 1515.871
743.4581, 1506.648
743.9402, 1493.013
744.4223, 1479.671
744.9044, 1466.743
745.3865, 1458.801
745.8687, 1459.626
746.3508, 1465.911
746.8329, 1470.325
747.3150, 1475.131
747.7971, 1472.062
748.2792, 1444.281
748.7614, 1427.907
749.2435, 1450.747
749.7256, 1484.371
750.2077, 1486.625
750.6898, 1450.308
751.1719, 1424.540
751.6541, 1444.169
752.1362, 1473.123
752.6183, 1479.749
753.1004, 1471.649
753.5825, 1465.575
754.0646, 1465.714
754.5468, 1466.621
755.0289, 1463.915
755.5110, 1457.605
755.9931, 1444.891
756.4752, 1424.967
756.9573, 1415.580
757.4395, 1422.469
757.9216, 1434.803
758.4037, 1446.007
758.8858, 1455.170
759.3679, 1457.352
759.8500, 1445.110
760.3322, 1436.573
760.8143, 1435.537
761.2964, 1434.723
761.7785, 1431.295
762.2606, 1424.833
762.7427, 1413.022
763.2249, 1393.691
763.7070, 1380.846
764.1891, 1387.258
764.6712, 1401.933
765.1533, 1415.023
765.6354, 1424.812
766.1176, 1428.719
766.5997, 1425.970
767.0818, 1419.198
767.5639, 1410.445
768.0460, 1400.408
768.5281, 1392.240
769.0103, 1385.460
769.4924, 1385.210
769.9745, 1395.553
770.4566, 1407.110
770.9387, 1410.724
771.4208, 1407.026
771.9030, 1403.489
772.3851, 1397.787
772.8672, 1395.603
773.3493, 1400.200
773.8314, 1405.870
774.3135, 1409.199
774.7957, 1410.662
775.2778, 1413.333
775.7599, 1420.115
776.2420, 1419.643
776.7241, 1393.459
777.2062, 1363.408
777.6884, 1357.646
778.1705, 1372.104
778.6526, 1390.804
779.1347, 1407.241
779.6168, 1419.410
780.0989, 1424.512
780.5811, 1423.132
781.0632, 1417.471
781.5453, 1406.905
782.0274, 1397.456
782.5095, 1389.450
782.9916, 1387.208
783.4738, 1397.682
783.9559, 1419.533
784.4380, 1430.845
784.9201, 1422.555
785.4022, 1416.746
785.8843, 1417.908
786.3665, 1419.183
786.8486, 1414.805
787.3307, 1407.461
787.8128, 1404.218
788.2949, 1408.200
788.7770, 1411.499
789.2592, 1410.730
789.7413, 1406.742
790.2234, 1397.283
790.7055, 1385.839
791.1876, 1381.030
791.6697, 1385.424
792.1519, 1391.199
792.6340, 1389.546
793.1161, 1382.947
793.5982, 1379.809
794.0803, 1379.832
794.5624, 1375.813
795.0446, 1364.728
795.5267, 1357.022
796.0088, 1364.546
796.4909, 1383.385
796.9730, 1387.106
797.4551, 1366.425
797.9373, 1351.352
798.4194, 1349.189
798.9015, 1348.003
799.3836, 1338.457
799.8657, 1325.992
800.3478, 1321.901
800.8300, 1329.855
801.3121, 1336.948
801.7942, 1338.887
802.2763, 1339.706
802.7584, 1340.899
803.2405, 1343.137
803.7227, 1348.130
804.2048, 1355.721
804.6869, 1361.833
805.1690, 1362.637
805.6511, 1360.954
806.1332, 1361.888
806.6154, 1363.675
807.0975, 1358.621
807.5796, 1346.190
808.0617, 1338.728
808.5438, 1346.230
809.0259, 1361.734
809.5081, 1366.028
809.9902, 1357.370
810.4723, 1354.763
810.9544, 1362.567
811.4365, 1366.736
811.9186, 1355.845
812.4008, 1341.171
812.8829, 1344.741
813.3650, 1373.919
813.8471, 1388.303
814.3292, 1378.633
814.8113, 1366.423
815.2935, 1352.576
815.7756, 1342.290
816.2577, 1341.897
816.7398, 1350.070
817.2219, 1358.021
817.7040, 1363.209
818.1862, 1366.403
818.6683, 1368.514
819.1504, 1368.565
819.6325, 1364.861
820.1146, 1358.026
820.5967, 1348.519
821.0789, 1336.426
821.5610, 1328.500
822.0431, 1336.152
822.5252, 1353.911
823.0073, 1365.109
823.4894, 1369.983
823.9716, 1378.000
824.4537, 1393.303
824.9358, 1400.203
825.4179, 1378.402
825.9000, 1333.465
826.3821, 1312.584
826.8643, 1324.086
827.3464, 1330.664
827.8285, 1321.192
828.3106, 1314.757
828.7927, 1328.957
829.2748, 1355.314
829.7570, 1368.613
830.2391, 1363.703
830.7212, 1359.110
831.2033, 1357.991
831.6854, 1355.319
832.1675, 1347.391
832.6497, 1337.463
833.1318, 1328.853
833.6139, 1322.296
834.0960, 1318.793
834.5781, 1318.319
835.0602, 1321.568
835.5424, 1335.392
836.0245, 1349.855
836.5066, 1347.121
836.9887, 1329.785
837.4708, 1317.554
837.9529, 1321.878
838.4351, 1330.840
838.9172, 1324.108
839.3993, 1309.145
839.8814, 1316.602
840.3635, 1344.776
840.8456, 1353.857
841.3278, 1326.431
841.8099, 1292.358
842.2920, 1289.652
842.7741, 1314.477
843.2562, 1325.991
843.7383, 1320.220
844.2205, 1317.078
844.7026, 1322.311
845.1847, 1327.252
845.6668, 1324.465
846.1489, 1316.417
846.6310, 1311.753
847.1132, 1309.844
847.5953, 1312.699
848.0774, 1328.971
848.5595, 1340.036
849.0416, 1335.316
849.5237, 1322.939
850.0059, 1311.824
850.4880, 1303.208
850.9701, 1297.637
851.4522, 1294.105
851.9343, 1295.079
852.4164, 1306.630
852.8986, 1320.200
853.3807, 1324.815
853.8628, 1322.020
854.3449, 1321.480
854.8270, 1328.267
855.3091, 1334.570
855.7913, 1328.610
856.2734, 1318.742
856.7555, 1324.641
857.2376, 1341.100
857.7197, 1341.917
858.2018, 1319.346
858.6840, 1296.510
859.1661, 1299.017
859.6482, 1317.852
860.1303, 1321.221
860.6124, 1309.178
861.0945, 1300.003
861.5767, 1296.905
862.0588, 1295.300
862.5409, 1291.281
863.0230, 1288.447
863.5051, 1297.024
863.9872, 1322.719
864.4694, 1333.787
864.9515, 1324.008
865.4336, 1310.984
865.9157, 1297.231
866.3978, 1285.717
866.8799, 1280.116
867.3621, 1280.044
867.8442, 1281.805
868.3263, 1286.937
868.8084, 1291.541
869.2905, 1296.758
869.7726, 1299.595
870.2548, 1295.562
870.7369, 1288.500
871.2190, 1286.715
871.7011, 1292.818
872.1832, 1295.535
872.6653, 1285.569
873.1475, 1274.700
873.6296, 1272.268
874.1117, 1274.060
874.5938, 1272.748
875.0759, 1268.366
875.5580, 1267.661
876.0402, 1275.543
876.5223, 1285.806
877.0044, 1291.728
877.4865, 1295.045
877.9686, 1301.961
878.4507, 1310.193
878.9329, 1305.548
879.4150, 1282.942
879.8971, 1261.408
880.3792, 1266.597
880.8613, 1289.110
881.3434, 1292.260
881.8256, 1277.371
882.3077, 1268.841
882.7898, 1272.155
883.2719, 1276.294
883.7540, 1273.115
884.2361, 1266.304
884.7183, 1265.768
885.2004, 1273.506
885.6825, 1276.097
886.1646, 1271.016
886.6467, 1267.731
887.1288, 1270.704
887.6110, 1275.540
888.0931, 1277.946
888.5752, 1277.859
889.0573, 1273.774
889.5394, 1258.180
890.0215, 1250.288
890.5037, 1252.971
890.9858, 1261.739
891.4679, 1278.987
891.9500, 1298.998
892.4321, 1313.485
892.9142, 1322.554
893.3964, 1320.080
893.8785, 1288.898
894.3606, 1265.253
894.8427, 1270.304
895.3248, 1286.255
895.8069, 1298.663
896.2891, 1304.622
896.7712, 1302.220
897.2533, 1287.462
897.7354, 1273.867
898.2175, 1271.661
898.6996, 1272.850
899.1818, 1268.787
899.6639, 1262.236
900.1460, 1260.132
900.6281, 1263.812
901.1102, 1268.219
901.5923, 1268.764
902.0745, 1269.226
902.5566, 1276.062
903.0387, 1286.010
903.5208, 1293.375
904.0029, 1296.884
904.4850, 1293.381
904.9672, 1281.161
905.4493, 1270.888
905.9314, 1280.181
906.4135, 1302.773
906.8956, 1317.822
907.3777, 1324.953
907.8599, 1317.170
908.3420, 1292.632
908.8241, 1272.426
909.3062, 1274.061
909.7883, 1288.344
910.2704, 1290.621
910.7526, 1279.959
911.2347, 1274.603
911.7168, 1275.671
912.1990, 1280.573
912.6811, 1289.622
913.1632, 1298.853
913.6453, 1304.146
914.1274, 1305.465
914.6096, 1301.918
915.0917, 1290.283
915.5738, 1282.487
916.0559, 1280.162
916.5380, 1281.480
917.0201, 1289.859
917.5023, 1298.356
917.9844, 1291.869
918.4665, 1265.093
918.9486, 1251.724
919.4307, 1261.649
919.9128, 1271.375
920.3950, 1281.795
920.8771, 1286.030
921.3592, 1272.409
921.8413, 1249.081
922.3234, 1240.088
922.8055, 1254.334
923.2877, 1264.778
923.7698, 1265.515
924.2519, 1262.121
924.7340, 1252.841
925.2161, 1243.785
925.6982, 1243.326
926.1804, 1250.360
926.6625, 1254.515
927.1446, 1251.796
927.6267, 1246.527
928.1088, 1237.332
928.5909, 1229.426
929.0731, 1229.232
929.5552, 1232.818
930.0373, 1231.966
930.5194, 1225.296
931.0015, 1220.342
931.4836, 1221.904
931.9658, 1226.696
932.4479, 1232.840
932.9300, 1239.971
933.4121, 1250.561
933.8942, 1261.572
934.3763, 1262.932
934.8585, 1250.740
935.3406, 1237.592
935.8227, 1236.943
936.3048, 1241.040
936.7869, 1238.348
937.2690, 1231.415
937.7512, 1226.743
938.2333, 1224.938
938.7154, 1222.142
939.1975, 1216.069
939.6796, 1208.094
940.1617, 1200.081
940.6439, 1191.634
941.1260, 1177.758
941.6081, 1161.596
942.0902, 1161.851
942.5723, 1182.589
943.0544, 1204.464
943.5366, 1211.982
944.0187, 1209.945
944.5008, 1206.468
944.9829, 1202.370
945.4650, 1206.598
945.9471, 1219.228
946.4293, 1222.258
946.9114, 1208.307
947.3935, 1189.761
947.8756, 1178.888
948.3577, 1176.152
948.8398, 1187.511
949.3220, 1213.829
949.8041, 1227.174
950.2862, 1222.875
950.7683, 1216.546
951.2504, 1216.161
951.7325, 1216.299
952.2147, 1207.745
952.6968, 1191.403
953.1789, 1186.930
953.6610, 1197.619
954.1431, 1203.803
954.6252, 1201.429
955.1074, 1196.297
955.5895, 1190.816
956.0716, 1186.604
956.5537, 1187.404
957.0358, 1194.183
957.5179, 1197.395
958.0001, 1194.717
958.4822, 1194.646
958.9643, 1200.032
959.4464, 1207.253
959.9285, 1216.615
960.4106, 1224.191
960.8928, 1217.414
961.3749, 1189.203
961.8570, 1170.554
962.3391, 1164.320
962.8212, 1162.984
963.3033, 1164.869
963.7855, 1170.568
964.2676, 1183.621
964.7497, 1201.266
965.2318, 1211.009
965.7139, 1210.809
966.1960, 1206.689
966.6782, 1190.899
967.1603, 1180.818
967.6424, 1190.098
968.1245, 1201.757
968.6066, 1195.820
969.0887, 1175.181
969.5709, 1163.242
970.0530, 1160.830
970.5351, 1167.651
971.0172, 1195.256
971.4993, 1218.721
971.9814, 1228.509
972.4636, 1227.113
972.9457, 1213.484
973.4278, 1189.194
973.9099, 1173.152
974.3920, 1169.432
974.8741, 1171.954
975.3563, 1190.718
975.8384, 1203.561
976.3205, 1188.553
976.8026, 1164.665
977.2847, 1162.930
977.7668, 1185.758
978.2490, 1199.241
978.7311, 1187.089
979.2132, 1177.642
979.6953, 1180.012
980.1774, 1186.491
980.6595, 1193.360
981.1417, 1199.919
981.6238, 1206.402
982.1059, 1212.889
982.5880, 1215.365
983.0701, 1211.611
983.5522, 1205.118
984.0344, 1194.057
984.5165, 1183.635
984.9986, 1176.720
985.4807, 1174.019
985.9628, 1179.137
986.4449, 1193.629
986.9271, 1198.742
987.4092, 1175.504
987.8913, 1157.322
988.3734, 1167.074
988.8555, 1182.019
989.3376, 1179.428
989.8198, 1165.782
990.3019, 1161.297
990.7840, 1171.947
991.2661, 1176.416
991.7482, 1157.935
992.2303, 1141.259
992.7125, 1144.156
993.1946, 1151.098
993.6767, 1142.356
994.1588, 1125.017
994.6409, 1121.367
995.1230, 1138.424
995.6052, 1157.975
996.0873, 1178.034
996.5694, 1191.242
997.0515, 1189.038
997.5336, 1181.254
998.0157, 1176.929
998.4979, 1176.465
998.9800, 1177.173
999.4621, 1178.115
999.9442, 1181.324
1000.426, 1190.357
1000.908, 1198.863
1001.391, 1202.798
1001.873, 1204.325
1002.355, 1204.250
1002.837, 1204.196
1003.319, 1208.788
1003.801, 1220.805
1004.283, 1228.919
1004.765, 1226.954
1005.247, 1220.758
1005.730, 1213.390
1006.212, 1204.190
1006.694, 1188.129
1007.176, 1169.605
1007.658, 1162.527
1008.140, 1173.100
1008.622, 1184.407
1009.104, 1187.506
1009.587, 1190.666
1010.069, 1203.598
1010.551, 1215.776
1011.033, 1212.883
1011.515, 1198.566
1011.997, 1187.200
1012.479, 1182.742
1012.961, 1182.590
1013.443, 1192.827
1013.926, 1198.710
1014.408, 1184.000
1014.890, 1166.374
1015.372, 1167.229
1015.854, 1182.375
1016.336, 1193.270
1016.818, 1194.633
1017.300, 1193.724
1017.783, 1190.931
1018.265, 1189.411
1018.747, 1194.432
1019.229, 1198.722
1019.711, 1195.126
1020.193, 1184.260
1020.675, 1166.972
1021.157, 1138.795
1021.639, 1127.607
1022.122, 1165.674
1022.604, 1194.396
1023.086, 1174.920
1023.568, 1143.110
1024.050, 1131.970
1024.532, 1138.222
1025.014, 1145.403
1025.496, 1151.234
1025.979, 1153.836
1026.461, 1149.114
1026.943, 1145.628
1027.425, 1145.641
1027.907, 1149.266
1028.389, 1158.256
1028.871, 1170.534
1029.353, 1181.279
1029.835, 1189.689
1030.318, 1197.271
1030.800, 1207.928
1031.282, 1212.960
1031.764, 1208.313
1032.246, 1198.343
1032.728, 1178.845
1033.210, 1158.511
1033.692, 1158.307
1034.174, 1184.272
1034.657, 1204.690
1035.139, 1216.966
1035.621, 1222.688
1036.103, 1218.211
1036.585, 1211.166
1037.067, 1201.614
1037.549, 1194.667
1038.031, 1204.529
1038.514, 1237.524
1038.996, 1247.155
1039.478, 1209.359
1039.960, 1185.092
1040.442, 1190.791
1040.924, 1200.999
1041.406, 1200.887
1041.888, 1197.180
1042.370, 1201.469
1042.853, 1214.392
1043.335, 1224.224
1043.817, 1232.488
1044.299, 1234.078
1044.781, 1225.509
1045.263, 1214.904
1045.745, 1203.677
1046.227, 1195.776
1046.709, 1197.796
1047.192, 1209.154
1047.674, 1217.901
1048.156, 1225.519
1048.638, 1224.665
1049.120, 1210.770
1049.602, 1199.647
1050.084, 1199.494
1050.566, 1201.928
1051.049, 1195.494
1051.531, 1183.391
1052.013, 1187.855
1052.495, 1214.065
1052.977, 1220.228
1053.459, 1199.562
1053.941, 1183.165
1054.423, 1183.426
1054.906, 1187.510
1055.388, 1182.364
1055.870, 1171.723
1056.352, 1167.132
1056.834, 1168.566
1057.316, 1174.943
1057.798, 1186.424
1058.280, 1188.788
1058.762, 1177.390
1059.245, 1166.322
1059.727, 1167.053
1060.209, 1174.303
1060.691, 1178.830
1061.173, 1180.339
1061.655, 1174.204
1062.137, 1162.352
1062.619, 1161.207
1063.101, 1173.338
1063.584, 1181.796
1064.066, 1175.475
1064.548, 1165.261
1065.030, 1166.586
1065.512, 1175.677
1065.994, 1187.089
1066.476, 1197.722
1066.958, 1197.028
1067.441, 1185.361
1067.923, 1171.394
1068.405, 1159.063
1068.887, 1154.046
1069.369, 1170.038
1069.851, 1189.892
1070.333, 1186.270
1070.815, 1171.918
1071.297, 1169.256
1071.780, 1176.826
1072.262, 1182.207
1072.744, 1181.263
1073.226, 1177.158
1073.708, 1171.157
1074.190, 1164.040
1074.672, 1154.806
1075.154, 1146.139
1075.636, 1137.669
1076.119, 1133.268
1076.601, 1144.374
1077.083, 1169.904
1077.565, 1183.545
1078.047, 1166.599
1078.529, 1149.837
1079.011, 1149.288
1079.494, 1151.677
1079.976, 1145.770
1080.458, 1138.792
1080.940, 1142.160
1081.422, 1154.570
1081.904, 1164.576
1082.386, 1173.592
1082.868, 1170.966
1083.350, 1139.556
1083.833, 1115.469
1084.315, 1116.747
1084.797, 1127.180
1085.279, 1136.891
1085.761, 1143.573
1086.243, 1138.759
1086.725, 1113.895
1087.207, 1112.745
1087.689, 1157.125
1088.172, 1184.693
1088.654, 1176.963
1089.136, 1161.654
1089.618, 1154.316
1090.100, 1151.045
1090.582, 1145.111
1091.064, 1136.566
1091.546, 1130.296
1092.029, 1126.476
1092.511, 1122.882
1092.993, 1117.565
1093.475, 1123.348
1093.957, 1149.069
1094.439, 1173.339
1094.921, 1170.218
1095.403, 1148.254
1095.885, 1137.552
1096.368, 1137.201
1096.850, 1135.759
1097.332, 1132.693
1097.814, 1131.985
1098.296, 1134.711
1098.778, 1137.171
1099.260, 1136.504
1099.742, 1134.314
1100.224, 1133.331
1100.707, 1132.751
1101.189, 1130.203
1101.671, 1126.451
1102.153, 1122.599
1102.635, 1119.839
1103.117, 1122.966
1103.599, 1134.484
1104.081, 1145.085
1104.564, 1145.002
1105.046, 1141.094
1105.528, 1138.225
1106.010, 1137.696
1106.492, 1143.179
1106.974, 1151.882
1107.456, 1157.876
1107.938, 1159.502
1108.421, 1156.682
1108.903, 1144.439
1109.385, 1134.866
1109.867, 1133.673
1110.349, 1136.914
1110.831, 1148.302
1111.313, 1158.267
1111.795, 1151.490
1112.277, 1130.119
1112.760, 1114.583
1113.242, 1108.910
1113.724, 1106.259
1114.206, 1103.872
1114.688, 1107.599
1115.170, 1128.911
1115.652, 1145.496
1116.134, 1135.701
1116.616, 1112.019
1117.099, 1104.128
1117.581, 1114.008
1118.063, 1119.621
1118.545, 1120.920
1119.027, 1116.312
1119.509, 1101.956
1119.991, 1098.370
1120.473, 1119.043
1120.956, 1141.935
1121.438, 1137.210
1121.920, 1114.090
1122.402, 1109.307
1122.884, 1120.910
1123.366, 1132.901
1123.848, 1142.955
1124.330, 1138.825
1124.813, 1118.257
1125.295, 1102.656
1125.777, 1108.646
1126.259, 1122.214
1126.741, 1124.677
1127.223, 1120.567
1127.705, 1115.557
1128.187, 1111.354
1128.669, 1113.003
1129.151, 1118.525
1129.634, 1118.348
1130.116, 1108.756
1130.598, 1099.674
1131.080, 1096.931
1131.562, 1097.938
1132.044, 1102.185
1132.526, 1108.231
1133.008, 1117.418
1133.491, 1126.131
1133.973, 1127.805
1134.455, 1122.427
1134.937, 1118.328
1135.419, 1119.729
1135.901, 1117.966
1136.383, 1107.497
1136.865, 1099.016
1137.348, 1097.556
1137.830, 1098.772
1138.312, 1100.147
1138.794, 1101.152
1139.276, 1100.196
1139.758, 1096.857
1140.240, 1095.113
1140.722, 1095.599
1141.204, 1094.869
1141.687, 1092.070
1142.169, 1089.474
1142.651, 1088.188
1143.133, 1087.737
1143.615, 1087.728
1144.097, 1087.812
1144.579, 1085.027
1145.061, 1081.132
1145.543, 1087.847
1146.026, 1103.299
1146.508, 1114.232
1146.990, 1117.073
1147.472, 1113.125
1147.954, 1102.236
1148.436, 1092.285
1148.918, 1094.509
1149.400, 1099.936
1149.883, 1093.418
1150.365, 1085.560
1150.847, 1097.101
1151.329, 1120.516
1151.811, 1132.358
1152.293, 1126.960
1152.775, 1116.368
1153.257, 1098.679
1153.740, 1086.921
1154.222, 1088.545
1154.704, 1093.969
1155.186, 1096.029
1155.668, 1100.054
1156.150, 1118.426
1156.632, 1145.132
1157.114, 1151.229
1157.596, 1128.712
1158.078, 1113.928
1158.561, 1107.964
1159.043, 1107.685
1159.525, 1114.873
1160.007, 1120.379
1160.489, 1119.005
1160.971, 1113.020
1161.453, 1104.504
1161.935, 1095.127
1162.418, 1092.860
1162.900, 1096.611
1163.382, 1098.443
1163.864, 1097.537
1164.346, 1090.549
1164.828, 1078.032
1165.310, 1074.413
1165.792, 1090.648
1166.275, 1108.386
1166.757, 1102.837
1167.239, 1091.348
1167.721, 1095.277
1168.203, 1107.665
1168.685, 1123.162
1169.167, 1135.974
1169.649, 1133.099
1170.131, 1112.373
1170.614, 1096.012
1171.096, 1095.046
1171.578, 1095.727
1172.060, 1094.782
1172.542, 1093.722
1173.024, 1092.304
1173.506, 1092.027
1173.988, 1094.521
1174.470, 1099.287
1174.953, 1105.611
1175.435, 1114.751
1175.917, 1116.372
1176.399, 1108.427
1176.881, 1100.884
1177.363, 1094.453
1177.845, 1094.999
1178.327, 1106.378
1178.810, 1117.341
1179.292, 1114.509
1179.774, 1104.098
1180.256, 1100.043
1180.738, 1101.014
1181.220, 1104.948
1181.702, 1109.807
1182.184, 1107.708
1182.667, 1099.745
1183.149, 1098.563
1183.631, 1110.308
1184.113, 1123.018
1184.595, 1130.726
1185.077, 1132.792
1185.559, 1126.873
1186.041, 1116.876
1186.523, 1096.180
1187.005, 1079.580
1187.488, 1097.934
1187.970, 1147.015
1188.452, 1171.682
1188.934, 1153.298
1189.416, 1137.266
1189.898, 1122.488
1190.380, 1113.684
1190.862, 1111.849
1191.345, 1117.658
1191.827, 1135.267
1192.309, 1151.902
1192.791, 1146.153
1193.273, 1123.652
1193.755, 1111.370
1194.237, 1109.058
1194.719, 1119.786
1195.202, 1139.995
1195.684, 1144.015
1196.166, 1127.146
1196.648, 1108.592
1197.130, 1099.238
1197.612, 1098.922
1198.094, 1118.079
1198.576, 1135.091
1199.058, 1119.305
1199.541, 1095.296
1200.023, 1093.861
1200.505, 1107.404
1200.987, 1118.102
1201.469, 1122.620
1201.951, 1120.667
1202.433, 1103.780
1202.915, 1096.979
1203.397, 1118.149
1203.880, 1127.498
1204.362, 1106.572
1204.844, 1085.448
1205.326, 1086.783
1205.808, 1096.133
1206.290, 1087.824
1206.772, 1065.467
1207.254, 1054.347
1207.737, 1054.174
1208.219, 1061.407
1208.701, 1074.975
1209.183, 1090.776
1209.665, 1106.646
1210.147, 1113.887
1210.629, 1106.240
1211.111, 1096.619
1211.594, 1096.856
1212.076, 1103.769
1212.558, 1123.822
1213.040, 1140.482
1213.522, 1126.349
1214.004, 1096.933
1214.486, 1084.589
1214.968, 1092.250
1215.450, 1097.432
1215.932, 1090.393
1216.415, 1092.055
1216.897, 1111.315
1217.379, 1128.738
1217.861, 1144.934
1218.343, 1147.653
1218.825, 1123.711
1219.307, 1094.255
1219.789, 1090.679
1220.272, 1107.548
1220.754, 1124.187
1221.236, 1138.893
1221.718, 1134.635
1222.200, 1114.742
1222.682, 1104.456
1223.164, 1107.271
1223.646, 1102.288
1224.129, 1078.016
1224.611, 1062.415
1225.093, 1092.179
1225.575, 1124.420
1226.057, 1122.418
1226.539, 1109.359
1227.021, 1103.492
1227.503, 1103.193
1227.985, 1104.509
1228.468, 1106.807
1228.950, 1109.228
1229.432, 1111.051
1229.914, 1115.648
1230.396, 1125.363
1230.878, 1131.850
1231.360, 1134.033
1231.842, 1131.805
1232.324, 1124.770
1232.807, 1114.740
1233.289, 1102.601
1233.771, 1091.714
1234.253, 1093.211
1234.735, 1100.498
1235.217, 1090.864
1235.699, 1073.090
1236.181, 1075.946
1236.664, 1094.448
1237.146, 1095.608
1237.628, 1070.461
1238.110, 1051.384
1238.592, 1058.844
1239.074, 1068.298
1239.556, 1073.242
1240.038, 1073.434
1240.521, 1057.779
1241.003, 1048.376
1241.485, 1071.277
1241.967, 1107.739
1242.449, 1119.206
1242.931, 1107.345
1243.413, 1110.702
1243.895, 1130.592
1244.377, 1141.894
1244.859, 1142.886
1245.342, 1141.260
1245.824, 1139.123
1246.306, 1132.714
1246.788, 1119.302
1247.270, 1107.748
1247.752, 1110.556
1248.234, 1116.988
1248.716, 1117.577
1249.199, 1113.447
1249.681, 1101.196
1250.163, 1087.896
1250.645, 1085.512
1251.127, 1093.149
1251.609, 1099.117
1252.091, 1101.523
1252.573, 1103.336
1253.056, 1103.943
1253.538, 1105.949
1254.020, 1110.911
1254.502, 1112.472
1254.984, 1106.693
1255.466, 1103.339
1255.948, 1112.917
1256.430, 1126.847
1256.912, 1124.978
1257.395, 1116.197
1257.877, 1126.729
1258.359, 1146.642
1258.841, 1152.398
1259.323, 1146.268
1259.805, 1142.665
1260.287, 1145.048
1260.769, 1148.460
1261.251, 1150.814
1261.734, 1154.383
1262.216, 1165.282
1262.698, 1169.766
##END=



