##NAMES=Esperite
##RRUFFID=R070512
##IDEAL CHEMISTRY=Pb^2+^Ca_2_(Zn^2+^SiO_4_)_3_
##LOCALITY=Parker Shaft, Franklin, Sussex County, New Jersey, USA
##OWNER=RRUFF
##SOURCE=Canadian Museum of Nature
##DESCRIPTION=Greasy white massive, co-type specimen. Structure reported in Tait et al (2010) is from this sample.
##STATUS=The identification of this mineral is confirmed by single-crystal X-ray diffraction and chemical analysis.
##URL=rruff.info/R070512
##MEASURED CHEMISTRY=(Ca_1.86_Fe_0.07_Mn_0.04_Cr^3+^_0.02_[box]_0.01_)_Σ=2_Pb_1.00_Zn_3.00_((Si_1.00_O_4_)_3_ ; = pin #1  : (Ca_1.79_Fe_0.12_Cr^3+^_0.04_Mn_0.03_[box]_0.02_)_Σ=2_Pb_1.00_Zn_3.00_((Si_1.00_O_4_)_3_ ; = pin #2
120.4358, 997.8623
120.9179, 1032.876
121.4000, 1099.478
121.8821, 1183.153
122.3642, 1259.512
122.8464, 1318.807
123.3285, 1398.939
123.8106, 1522.509
124.2927, 1667.196
124.7748, 1803.438
125.2569, 1923.660
125.7391, 2024.482
126.2212, 2095.820
126.7033, 2138.529
127.1854, 2164.313
127.6675, 2159.926
128.1496, 2140.125
128.6317, 2144.983
129.1139, 2194.500
129.5960, 2270.424
130.0781, 2341.767
130.5602, 2414.344
131.0423, 2469.900
131.5244, 2488.054
132.0066, 2474.782
132.4887, 2468.662
132.9708, 2488.585
133.4529, 2521.022
133.9350, 2545.125
134.4171, 2559.908
134.8993, 2567.208
135.3814, 2562.360
135.8635, 2545.079
136.3456, 2539.026
136.8277, 2561.376
137.3098, 2597.127
137.7920, 2630.891
138.2741, 2662.249
138.7562, 2686.952
139.2383, 2703.305
139.7204, 2713.175
140.2025, 2703.951
140.6847, 2652.879
141.1668, 2586.192
141.6489, 2524.372
142.1310, 2471.317
142.6131, 2430.147
143.0952, 2405.264
143.5774, 2396.850
144.0595, 2405.713
144.5416, 2434.374
145.0237, 2477.882
145.5058, 2532.694
145.9879, 2597.156
146.4701, 2672.413
146.9522, 2765.136
147.4343, 2893.270
147.9164, 3002.425
148.3985, 3076.712
148.8806, 3126.305
149.3628, 3160.218
149.8449, 3180.042
150.3270, 3191.098
150.8091, 3213.313
151.2912, 3269.047
151.7733, 3300.178
152.2555, 3278.483
152.7376, 3229.332
153.2197, 3186.563
153.7018, 3170.248
154.1839, 3174.264
154.6660, 3168.482
155.1481, 3145.475
155.6303, 3121.070
156.1124, 3088.228
156.5945, 3058.158
157.0766, 3048.038
157.5587, 3070.737
158.0408, 3121.797
158.5230, 3166.939
159.0051, 3207.588
159.4872, 3239.777
159.9693, 3272.337
160.4514, 3281.200
160.9335, 3248.220
161.4157, 3164.198
161.8978, 3034.930
162.3799, 2927.835
162.8620, 2838.954
163.3441, 2777.623
163.8262, 2752.066
164.3084, 2754.568
164.7905, 2771.972
165.2726, 2794.791
165.7547, 2823.347
166.2368, 2871.609
166.7189, 2965.718
167.2011, 3051.460
167.6832, 3106.367
168.1653, 3142.664
168.6474, 3184.502
169.1295, 3248.685
169.6116, 3334.616
170.0938, 3432.939
170.5759, 3547.214
171.0580, 3668.615
171.5401, 3798.555
172.0222, 3933.676
172.5043, 4068.028
172.9865, 4196.995
173.4686, 4320.546
173.9507, 4455.315
174.4328, 4602.527
174.9149, 4757.930
175.3970, 4924.588
175.8792, 5099.050
176.3613, 5275.019
176.8434, 5451.713
177.3255, 5628.976
177.8076, 5769.125
178.2897, 5853.913
178.7719, 5929.576
179.2540, 6023.871
179.7361, 6125.526
180.2182, 6209.913
180.7003, 6268.381
181.1824, 6301.621
181.6646, 6192.400
182.1467, 5905.126
182.6288, 5550.929
183.1109, 5138.107
183.5930, 4690.536
184.0751, 4248.873
184.5573, 3839.194
185.0394, 3463.517
185.5215, 3147.312
186.0036, 2876.542
186.4857, 2659.854
186.9678, 2515.482
187.4500, 2429.029
187.9321, 2366.419
188.4142, 2306.656
188.8963, 2249.522
189.3784, 2189.977
189.8605, 2120.622
190.3427, 2056.976
190.8248, 2006.418
191.3069, 1966.697
191.7890, 1929.899
192.2711, 1890.374
192.7532, 1849.350
193.2354, 1820.534
193.7175, 1798.996
194.1996, 1791.313
194.6817, 1803.655
195.1638, 1832.293
195.6459, 1868.467
196.1281, 1907.215
196.6102, 1948.570
197.0923, 1993.434
197.5744, 2062.882
198.0565, 2113.265
198.5386, 2126.095
199.0208, 2108.310
199.5029, 2077.089
199.9850, 2041.871
200.4671, 2001.045
200.9492, 1941.288
201.4313, 1851.918
201.9135, 1760.938
202.3956, 1664.836
202.8777, 1573.413
203.3598, 1508.211
203.8419, 1483.726
204.3240, 1490.000
204.8061, 1485.341
205.2883, 1460.290
205.7704, 1437.476
206.2525, 1417.449
206.7346, 1404.040
207.2167, 1405.471
207.6988, 1426.480
208.1810, 1462.455
208.6631, 1498.673
209.1452, 1528.547
209.6273, 1566.600
210.1094, 1620.424
210.5915, 1683.447
211.0737, 1746.975
211.5558, 1807.744
212.0379, 1864.126
212.5200, 1911.641
213.0021, 1960.397
213.4842, 1986.310
213.9664, 1975.164
214.4485, 1942.031
214.9306, 1904.530
215.4127, 1868.634
215.8948, 1835.883
216.3769, 1809.464
216.8591, 1790.899
217.3412, 1776.103
217.8233, 1762.051
218.3054, 1752.718
218.7875, 1752.965
219.2696, 1764.268
219.7518, 1784.192
220.2339, 1809.373
220.7160, 1842.628
221.1981, 1875.662
221.6802, 1916.305
222.1623, 1952.695
222.6445, 1974.419
223.1266, 1979.038
223.6087, 1968.299
224.0908, 1944.192
224.5729, 1903.865
225.0550, 1853.164
225.5372, 1777.499
226.0193, 1701.287
226.5014, 1643.178
226.9835, 1606.101
227.4656, 1579.870
227.9477, 1553.132
228.4298, 1523.799
228.9120, 1503.744
229.3941, 1497.859
229.8762, 1496.274
230.3583, 1493.030
230.8404, 1487.736
231.3225, 1482.568
231.8047, 1478.570
232.2868, 1474.503
232.7689, 1483.045
233.2510, 1511.642
233.7331, 1543.472
234.2152, 1571.155
234.6974, 1594.976
235.1795, 1618.700
235.6616, 1646.235
236.1437, 1677.824
236.6258, 1698.599
237.1079, 1700.649
237.5901, 1701.941
238.0722, 1705.510
238.5543, 1712.931
239.0364, 1726.427
239.5185, 1747.824
240.0006, 1776.266
240.4828, 1805.652
240.9649, 1836.320
241.4470, 1867.527
241.9291, 1895.626
242.4112, 1924.985
242.8933, 1961.438
243.3755, 2008.346
243.8576, 2064.295
244.3397, 2125.546
244.8218, 2202.145
245.3039, 2271.469
245.7860, 2325.548
246.2682, 2374.447
246.7503, 2431.709
247.2324, 2502.568
247.7145, 2576.825
248.1966, 2633.066
248.6787, 2674.935
249.1609, 2689.618
249.6430, 2675.785
250.1251, 2639.175
250.6072, 2580.578
251.0893, 2501.619
251.5714, 2409.851
252.0535, 2315.365
252.5357, 2214.225
253.0178, 2119.336
253.4999, 2033.618
253.9820, 1951.089
254.4641, 1866.802
254.9462, 1781.405
255.4284, 1701.110
255.9105, 1633.456
256.3926, 1580.436
256.8747, 1529.175
257.3568, 1478.968
257.8390, 1431.450
258.3211, 1384.563
258.8032, 1340.339
259.2853, 1304.369
259.7674, 1283.898
260.2495, 1277.907
260.7317, 1264.111
261.2138, 1232.625
261.6959, 1205.051
262.1780, 1190.922
262.6601, 1185.741
263.1422, 1181.071
263.6244, 1171.708
264.1065, 1159.582
264.5886, 1151.784
265.0707, 1151.584
265.5528, 1149.540
266.0349, 1136.797
266.5170, 1122.442
266.9991, 1118.833
267.4813, 1133.240
267.9634, 1154.515
268.4455, 1161.581
268.9276, 1149.089
269.4097, 1144.141
269.8918, 1162.165
270.3740, 1189.108
270.8561, 1214.318
271.3382, 1235.323
271.8203, 1256.456
272.3024, 1283.549
272.7845, 1316.549
273.2667, 1346.433
273.7488, 1368.866
274.2309, 1388.981
274.7130, 1411.624
275.1951, 1437.048
275.6772, 1462.589
276.1594, 1488.043
276.6415, 1512.456
277.1236, 1533.104
277.6057, 1551.356
278.0878, 1562.218
278.5699, 1560.008
279.0521, 1546.353
279.5342, 1527.261
280.0163, 1501.807
280.4984, 1473.307
280.9805, 1446.659
281.4626, 1422.354
281.9448, 1399.308
282.4269, 1375.932
282.9090, 1353.085
283.3911, 1334.039
283.8732, 1326.924
284.3553, 1318.162
284.8375, 1292.880
285.3196, 1253.005
285.8017, 1215.565
286.2838, 1190.536
286.7659, 1176.050
287.2480, 1161.985
287.7302, 1146.643
288.2123, 1133.609
288.6944, 1123.937
289.1765, 1117.584
289.6586, 1114.225
290.1407, 1113.505
290.6229, 1116.322
291.1050, 1125.178
291.5871, 1141.241
292.0692, 1160.692
292.5513, 1185.392
293.0334, 1212.176
293.5156, 1238.625
293.9977, 1263.884
294.4798, 1286.810
294.9619, 1305.744
295.4440, 1320.895
295.9261, 1330.254
296.4083, 1335.800
296.8904, 1334.583
297.3725, 1323.612
297.8546, 1303.583
298.3367, 1277.468
298.8188, 1247.393
299.3010, 1212.775
299.7831, 1180.692
300.2652, 1146.934
300.7473, 1119.947
301.2294, 1106.256
301.7115, 1100.706
302.1937, 1094.534
302.6758, 1082.576
303.1579, 1066.291
303.6400, 1051.002
304.1221, 1034.902
304.6042, 1023.156
305.0864, 1016.496
305.5685, 1014.094
306.0506, 1016.245
306.5327, 1022.968
307.0148, 1031.194
307.4969, 1035.686
307.9791, 1034.757
308.4612, 1036.353
308.9433, 1043.757
309.4254, 1052.422
309.9075, 1061.349
310.3896, 1069.801
310.8718, 1075.196
311.3539, 1073.062
311.8360, 1064.399
312.3181, 1061.086
312.8002, 1069.814
313.2823, 1074.927
313.7644, 1064.116
314.2466, 1042.580
314.7287, 1023.709
315.2108, 1011.453
315.6929, 1006.324
316.1750, 1011.912
316.6571, 1030.477
317.1393, 1047.247
317.6214, 1052.146
318.1035, 1050.529
318.5856, 1051.376
319.0677, 1054.146
319.5498, 1062.077
320.0320, 1079.659
320.5141, 1105.203
320.9962, 1130.686
321.4783, 1152.577
321.9604, 1173.903
322.4425, 1200.353
322.9247, 1231.693
323.4068, 1266.409
323.8889, 1308.256
324.3710, 1351.666
324.8531, 1387.052
325.3352, 1412.448
325.8174, 1437.770
326.2995, 1473.598
326.7816, 1521.675
327.2637, 1574.147
327.7458, 1634.673
328.2279, 1696.097
328.7101, 1750.449
329.1922, 1800.984
329.6743, 1861.411
330.1564, 1942.667
330.6385, 2041.336
331.1206, 2127.072
331.6028, 2192.632
332.0849, 2254.811
332.5670, 2318.970
333.0491, 2380.469
333.5312, 2434.924
334.0133, 2480.258
334.4955, 2515.940
334.9776, 2541.350
335.4597, 2559.003
335.9418, 2559.276
336.4239, 2535.907
336.9060, 2501.955
337.3882, 2465.593
337.8703, 2427.184
338.3524, 2381.537
338.8345, 2321.123
339.3166, 2245.650
339.7987, 2175.304
340.2809, 2112.970
340.7630, 2051.876
341.2451, 1987.795
341.7272, 1922.574
342.2093, 1860.742
342.6914, 1803.885
343.1736, 1751.448
343.6557, 1702.819
344.1378, 1657.849
344.6199, 1616.846
345.1020, 1579.616
345.5841, 1547.014
346.0663, 1520.473
346.5484, 1500.993
347.0305, 1484.059
347.5126, 1465.267
347.9947, 1446.516
348.4768, 1434.425
348.9590, 1431.528
349.4411, 1432.951
349.9232, 1431.833
350.4053, 1427.868
350.8874, 1430.701
351.3695, 1448.969
351.8517, 1470.179
352.3338, 1479.474
352.8159, 1477.917
353.2980, 1482.275
353.7801, 1505.468
354.2622, 1545.739
354.7444, 1582.957
355.2265, 1618.519
355.7086, 1650.225
356.1907, 1671.219
356.6728, 1689.524
357.1549, 1718.367
357.6371, 1763.040
358.1192, 1815.358
358.6013, 1858.854
359.0834, 1886.561
359.5655, 1917.887
360.0476, 1955.868
360.5298, 1994.429
361.0119, 2026.147
361.4940, 2053.044
361.9761, 2085.958
362.4582, 2137.138
362.9403, 2205.518
363.4224, 2264.318
363.9045, 2303.738
364.3867, 2346.344
364.8688, 2405.522
365.3509, 2470.736
365.8330, 2526.732
366.3151, 2565.999
366.7972, 2595.203
367.2794, 2627.013
367.7615, 2663.421
368.2436, 2682.703
368.7257, 2672.272
369.2078, 2645.878
369.6899, 2621.323
370.1721, 2600.289
370.6542, 2565.032
371.1363, 2503.884
371.6184, 2422.375
372.1005, 2329.339
372.5826, 2224.516
373.0648, 2117.916
373.5469, 2017.880
374.0290, 1923.997
374.5111, 1827.467
374.9932, 1713.228
375.4753, 1610.026
375.9575, 1538.274
376.4396, 1491.045
376.9217, 1447.883
377.4038, 1399.154
377.8859, 1348.406
378.3680, 1305.053
378.8502, 1271.254
379.3323, 1242.651
379.8144, 1227.202
380.2965, 1211.917
380.7786, 1180.692
381.2607, 1134.434
381.7429, 1082.092
382.2250, 1094.891
382.7071, 1102.188
383.1892, 1104.278
383.6713, 1085.567
384.1534, 1093.716
384.6356, 1091.101
385.1177, 1088.045
385.5998, 1099.974
386.0819, 1084.289
386.5640, 1095.981
387.0461, 1096.744
387.5283, 1102.510
388.0104, 1097.444
388.4925, 1095.723
388.9746, 1104.837
389.4567, 1097.687
389.9388, 1089.850
390.4210, 1085.837
390.9031, 1096.516
391.3852, 1116.477
391.8673, 1133.871
392.3494, 1147.226
392.8315, 1159.784
393.3137, 1174.759
393.7958, 1191.166
394.2779, 1203.706
394.7600, 1205.447
395.2421, 1210.028
395.7242, 1225.605
396.2064, 1249.664
396.6885, 1277.514
397.1706, 1307.722
397.6527, 1337.660
398.1348, 1361.953
398.6169, 1377.546
399.0991, 1392.823
399.5812, 1410.111
400.0633, 1425.376
400.5454, 1433.105
401.0275, 1435.206
401.5096, 1439.867
401.9918, 1454.153
402.4739, 1476.996
402.9560, 1499.214
403.4381, 1524.107
403.9202, 1542.829
404.4023, 1547.383
404.8845, 1548.078
405.3666, 1557.185
405.8487, 1578.813
406.3308, 1604.231
406.8129, 1623.009
407.2950, 1635.262
407.7772, 1649.246
408.2593, 1670.307
408.7414, 1687.443
409.2235, 1690.624
409.7056, 1682.126
410.1877, 1671.558
410.6699, 1660.530
411.1520, 1650.128
411.6341, 1642.973
412.1162, 1638.526
412.5983, 1631.727
413.0804, 1621.061
413.5625, 1605.303
414.0446, 1579.605
414.5268, 1538.099
415.0089, 1499.023
415.4910, 1463.859
415.9731, 1433.447
416.4552, 1409.921
416.9373, 1392.881
417.4195, 1378.255
417.9016, 1361.945
418.3837, 1343.709
418.8658, 1326.246
419.3479, 1307.671
419.8300, 1291.995
420.3122, 1282.259
420.7943, 1275.449
421.2764, 1266.710
421.7585, 1253.762
422.2406, 1240.779
422.7227, 1234.817
423.2049, 1236.664
423.6870, 1240.245
424.1691, 1245.209
424.6512, 1251.185
425.1333, 1256.605
425.6154, 1262.163
426.0976, 1271.809
426.5797, 1288.948
427.0618, 1310.626
427.5439, 1333.887
428.0260, 1358.715
428.5081, 1379.651
428.9903, 1389.958
429.4724, 1396.796
429.9545, 1421.413
430.4366, 1472.894
430.9187, 1522.786
431.4008, 1559.191
431.8830, 1592.223
432.3651, 1635.275
432.8472, 1690.317
433.3293, 1747.687
433.8114, 1796.816
434.2935, 1836.528
434.7757, 1887.913
435.2578, 1953.307
435.7399, 2027.609
436.2220, 2114.139
436.7041, 2207.435
437.1862, 2300.593
437.6684, 2390.449
438.1505, 2480.012
438.6326, 2572.687
439.1147, 2668.071
439.5968, 2766.562
440.0789, 2859.229
440.5611, 2965.239
441.0432, 3105.632
441.5253, 3271.431
442.0074, 3426.554
442.4895, 3547.135
442.9716, 3653.455
443.4538, 3773.393
443.9359, 3905.126
444.4180, 4029.734
444.9001, 4140.776
445.3822, 4236.212
445.8643, 4313.256
446.3465, 4382.756
446.8286, 4413.188
447.3107, 4393.783
447.7928, 4335.989
448.2749, 4245.761
448.7570, 4126.097
449.2392, 3984.133
449.7213, 3822.821
450.2034, 3643.864
450.6855, 3454.534
451.1676, 3243.996
451.6497, 3038.770
452.1319, 2837.340
452.6140, 2645.190
453.0961, 2468.897
453.5782, 2309.742
454.0603, 2162.785
454.5424, 2023.582
455.0246, 1891.771
455.5067, 1769.055
455.9888, 1654.378
456.4709, 1550.979
456.9530, 1459.619
457.4352, 1380.394
457.9173, 1318.161
458.3994, 1286.458
458.8815, 1255.939
459.3636, 1200.874
459.8457, 1131.589
460.3279, 1073.484
460.8100, 1035.111
461.2921, 1007.439
461.7742, 979.1102
462.2563, 949.0739
462.7384, 923.8608
463.2205, 906.0509
463.7026, 890.3517
464.1848, 873.1962
464.6669, 856.4207
465.1490, 844.6632
465.6311, 840.7524
466.1132, 840.0197
466.5953, 830.9805
467.0775, 809.2375
467.5596, 794.4565
468.0417, 792.1584
468.5238, 795.3361
469.0059, 803.5315
469.4880, 814.6559
469.9702, 821.6042
470.4523, 816.0800
470.9344, 806.6238
471.4165, 807.0870
471.8986, 817.2872
472.3807, 829.8575
472.8629, 842.6912
473.3450, 854.9047
473.8271, 862.7708
474.3092, 862.1289
474.7913, 870.6711
475.2734, 897.4069
475.7556, 930.5797
476.2377, 961.3866
476.7198, 988.6330
477.2019, 1013.134
477.6840, 1035.023
478.1661, 1055.206
478.6483, 1078.937
479.1304, 1110.855
479.6125, 1138.571
480.0946, 1160.777
480.5767, 1178.367
481.0588, 1190.185
481.5410, 1196.932
482.0231, 1203.547
482.5052, 1214.200
482.9873, 1227.799
483.4694, 1241.406
483.9515, 1255.278
484.4337, 1267.390
484.9158, 1275.606
485.3979, 1281.796
485.8800, 1289.795
486.3621, 1299.112
486.8442, 1311.525
487.3264, 1330.146
487.8085, 1351.050
488.2906, 1369.777
488.7727, 1385.521
489.2548, 1399.092
489.7369, 1410.932
490.2191, 1421.182
490.7012, 1431.962
491.1833, 1448.406
491.6654, 1458.926
492.1475, 1455.148
492.6296, 1448.689
493.1118, 1451.982
493.5939, 1467.065
494.0760, 1484.987
494.5581, 1494.127
495.0402, 1497.056
495.5223, 1512.015
496.0045, 1541.687
496.4866, 1576.832
496.9687, 1612.922
497.4508, 1650.807
497.9329, 1691.295
498.4150, 1732.357
498.8972, 1780.854
499.3793, 1849.005
499.8614, 1923.309
500.3435, 1984.278
500.8256, 2028.238
501.3077, 2058.794
501.7899, 2077.719
502.2720, 2085.281
502.7541, 2095.694
503.2362, 2121.185
503.7183, 2134.576
504.2004, 2128.453
504.6826, 2109.785
505.1647, 2083.837
505.6468, 2052.527
506.1289, 2019.333
506.6110, 1985.439
507.0931, 1951.708
507.5753, 1926.624
508.0574, 1914.944
508.5395, 1899.391
509.0216, 1865.972
509.5037, 1823.792
509.9858, 1790.732
510.4680, 1773.485
510.9501, 1753.024
511.4322, 1719.026
511.9143, 1677.170
512.3964, 1632.916
512.8785, 1588.118
513.3607, 1549.434
513.8428, 1524.462
514.3249, 1511.265
514.8070, 1486.171
515.2891, 1443.768
515.7712, 1395.342
516.2534, 1337.375
516.7355, 1276.973
517.2176, 1220.727
517.6997, 1169.714
518.1818, 1119.431
518.6639, 1066.335
519.1461, 1011.154
519.6282, 953.2318
520.1103, 890.0312
520.5924, 836.7344
521.0745, 803.5836
521.5566, 784.2087
522.0388, 764.5678
522.5209, 744.6678
523.0030, 724.7806
523.4851, 702.6345
523.9672, 682.0444
524.4493, 667.2585
524.9315, 658.2121
525.4136, 651.6216
525.8957, 645.0942
526.3778, 639.3556
526.8599, 638.1065
527.3420, 648.0324
527.8242, 650.4344
528.3063, 633.5732
528.7884, 617.1176
529.2705, 617.9576
529.7526, 633.9498
530.2347, 647.1677
530.7169, 643.1851
531.1990, 631.0367
531.6811, 627.4292
532.1632, 632.3005
532.6453, 639.9592
533.1274, 649.1160
533.6096, 658.7267
534.0917, 667.2503
534.5738, 674.9860
535.0559, 680.5410
535.5380, 683.9517
536.0201, 684.9692
536.5022, 681.7303
536.9843, 676.0426
537.4664, 672.2499
537.9485, 672.5475
538.4307, 674.5842
538.9128, 674.0012
539.3949, 670.7985
539.8770, 664.7827
540.3591, 652.0798
540.8412, 640.7668
541.3234, 636.2077
541.8055, 636.2499
542.2876, 635.4247
542.7697, 631.6210
543.2518, 626.8913
543.7339, 623.8299
544.2161, 621.3152
544.6982, 616.0134
545.1803, 607.0573
545.6624, 595.7209
546.1445, 582.4678
546.6266, 566.8200
547.1088, 557.3937
547.5909, 561.2950
548.0730, 562.2239
548.5551, 553.3511
549.0372, 540.7971
549.5193, 531.0784
550.0015, 525.9035
550.4836, 523.8766
550.9657, 524.5178
551.4478, 527.3399
551.9299, 529.7800
552.4120, 532.3839
552.8942, 532.2726
553.3763, 525.4635
553.8584, 516.2177
554.3405, 513.5432
554.8226, 520.7213
555.3047, 524.2780
555.7869, 515.9081
556.2690, 504.8094
556.7511, 499.1129
557.2332, 499.3682
557.7153, 503.8760
558.1974, 512.0167
558.6796, 522.1866
559.1617, 529.8289
559.6438, 534.9281
560.1259, 537.4846
560.6080, 535.8098
561.0901, 532.9943
561.5723, 528.1011
562.0544, 523.1593
562.5365, 524.3191
563.0186, 538.3405
563.5007, 554.5157
563.9828, 559.9985
564.4650, 557.4034
564.9471, 556.4944
565.4292, 559.9215
565.9113, 565.7771
566.3934, 571.9158
566.8755, 578.1968
567.3577, 586.3904
567.8398, 599.7798
568.3219, 610.9326
568.8040, 613.8990
569.2861, 615.4233
569.7682, 624.1453
570.2504, 641.6506
570.7325, 661.7174
571.2146, 678.5934
571.6967, 692.7371
572.1788, 706.2532
572.6609, 718.6848
573.1431, 732.5230
573.6252, 747.4657
574.1073, 765.7725
574.5894, 792.0980
575.0715, 828.2833
575.5536, 865.0975
576.0358, 900.0524
576.5179, 935.4119
577.0000, 972.7554
577.4821, 1012.029
577.9642, 1051.982
578.4464, 1091.696
578.9285, 1133.590
579.4106, 1183.032
579.8927, 1241.685
580.3748, 1300.344
580.8569, 1358.143
581.3391, 1415.675
581.8212, 1472.873
582.3033, 1529.935
582.7854, 1586.759
583.2675, 1642.913
583.7496, 1699.997
584.2318, 1760.054
584.7139, 1821.107
585.1960, 1879.998
585.6781, 1935.721
586.1602, 1987.359
586.6423, 2034.335
587.1245, 2075.798
587.6066, 2104.738
588.0887, 2114.892
588.5708, 2121.958
589.0529, 2132.704
589.5350, 2137.636
590.0172, 2131.069
590.4993, 2112.156
590.9814, 2080.934
591.4635, 2035.553
591.9456, 1979.480
592.4277, 1918.266
592.9099, 1851.050
593.3920, 1770.028
593.8741, 1670.504
594.3562, 1564.847
594.8383, 1467.251
595.3204, 1376.991
595.8026, 1299.216
596.2847, 1241.016
596.7668, 1184.555
597.2489, 1121.676
597.7310, 1058.502
598.2131, 1003.023
598.6953, 956.6310
599.1774, 914.4133
599.6595, 869.9047
600.1416, 825.5599
600.6237, 792.1968
601.1058, 771.3971
601.5880, 748.2889
602.0701, 713.7776
602.5522, 676.0322
603.0343, 651.0746
603.5164, 642.7610
603.9985, 629.1379
604.4807, 599.1967
604.9628, 571.9192
605.4449, 561.3054
605.9270, 561.3282
606.4091, 559.7844
606.8912, 551.7216
607.3734, 539.8372
607.8555, 527.0139
608.3376, 513.3344
608.8197, 500.8886
609.3018, 489.3345
609.7839, 480.1700
610.2661, 475.9120
610.7482, 474.0340
611.2303, 468.9183
611.7124, 458.5941
612.1945, 450.1087
612.6766, 448.7935
613.1588, 447.7919
613.6409, 438.8620
614.1230, 424.3575
614.6051, 413.4389
615.0872, 411.2541
615.5693, 414.1807
616.0515, 415.3301
616.5336, 414.5321
617.0157, 412.9245
617.4978, 409.5711
617.9799, 406.9181
618.4620, 407.3923
618.9442, 409.4675
619.4263, 410.2705
619.9084, 409.7680
620.3905, 407.1291
620.8726, 399.6461
621.3547, 391.1183
621.8369, 386.0281
622.3190, 384.7314
622.8011, 385.9703
623.2832, 389.2680
623.7653, 393.3013
624.2474, 393.8462
624.7296, 389.3158
625.2117, 386.8026
625.6938, 388.3213
626.1759, 390.7063
626.6580, 392.7313
627.1401, 394.0699
627.6223, 393.7962
628.1044, 390.9145
628.5865, 387.7241
629.0686, 385.5026
629.5507, 383.8539
630.0328, 382.4320
630.5150, 366.8492
630.9971, 384.0748
631.4792, 393.5753
631.9613, 395.7659
632.4434, 368.7523
632.9255, 379.4498
633.4077, 375.0343
633.8898, 369.9992
634.3719, 386.0044
634.8539, 363.2386
635.3361, 378.9100
635.8182, 379.2380
636.3003, 386.5883
636.7824, 378.7324
637.2645, 375.5732
637.7466, 387.6252
638.2288, 391.2545
638.7109, 381.6482
639.1930, 389.4449
639.6751, 366.1478
640.1572, 370.1360
640.6393, 385.8965
641.1215, 377.0546
641.6036, 385.1294
642.0857, 386.7614
642.5678, 359.1137
643.0499, 382.3863
643.5320, 383.6376
644.0142, 362.2776
644.4963, 383.8055
644.9784, 365.5628
645.4605, 361.5158
645.9426, 368.1519
646.4247, 363.6513
646.9069, 376.7089
647.3890, 372.8514
647.8711, 367.4825
648.3532, 368.7091
648.8353, 351.2463
649.3174, 368.4561
649.7996, 361.9814
650.2817, 367.2798
650.7638, 375.2467
651.2459, 362.7810
651.7280, 371.9468
652.2101, 347.5673
652.6923, 351.2563
653.1744, 351.9230
653.6565, 370.5305
654.1386, 346.3144
654.6207, 358.0515
655.1028, 354.0187
655.5850, 350.2739
656.0671, 348.0230
656.5492, 347.4588
657.0313, 349.7567
657.5134, 356.2088
657.9955, 361.1597
658.4777, 364.0479
658.9598, 364.9408
659.4419, 362.8172
659.9240, 358.8447
660.4061, 356.6350
660.8882, 359.5177
661.3704, 359.9914
661.8525, 350.4026
662.3346, 338.6393
662.8167, 335.4242
663.2988, 340.6413
663.7809, 347.1251
664.2631, 350.3575
664.7452, 350.8573
665.2273, 349.1875
665.7094, 344.7470
666.1915, 342.3207
666.6736, 343.3808
667.1558, 345.0735
667.6379, 345.6361
668.1200, 345.3218
668.6021, 344.6260
669.0842, 342.9969
669.5663, 342.1130
670.0485, 341.9551
670.5306, 343.1980
671.0127, 333.4631
671.4948, 351.4229
671.9769, 361.6575
672.4590, 364.5821
672.9412, 338.3027
673.4233, 349.7342
673.9054, 346.0529
674.3875, 341.7519
674.8696, 358.4912
675.3517, 336.4594
675.8339, 352.8651
676.3160, 353.9271
676.7981, 362.0116
677.2802, 354.8898
677.7623, 352.4647
678.2444, 365.2507
678.7266, 369.6143
679.2087, 360.7420
679.6908, 369.2728
680.1729, 346.7098
680.6550, 351.4321
681.1371, 367.9267
681.6193, 359.8190
682.1014, 368.6278
682.5835, 370.9939
683.0656, 344.0804
683.5477, 368.0871
684.0298, 370.0724
684.5120, 349.4467
684.9941, 371.7086
685.4762, 354.2000
685.9583, 350.8871
686.4404, 358.2573
686.9225, 354.4907
687.4047, 368.2827
687.8868, 365.1591
688.3689, 360.5244
688.8510, 362.4851
689.3331, 351.4377
689.8152, 352.3279
690.2974, 356.7260
690.7795, 354.8314
691.2616, 348.3852
691.7437, 347.5952
692.2258, 356.3540
692.7079, 367.5170
693.1901, 372.6889
693.6722, 371.7933
694.1543, 367.8881
694.6364, 357.2797
695.1185, 349.6684
695.6006, 347.4980
696.0828, 348.8210
696.5649, 355.1998
697.0470, 365.0103
697.5291, 368.0976
698.0112, 355.4046
698.4933, 340.1036
698.9755, 329.0510
699.4576, 322.6107
699.9397, 323.0212
700.4218, 329.7501
700.9039, 337.3702
701.3860, 341.5367
701.8682, 343.2373
702.3503, 346.4400
702.8324, 352.1248
703.3145, 339.5180
703.7966, 356.3097
704.2787, 365.3762
704.7609, 367.1325
705.2430, 339.6850
705.7251, 349.9485
706.2072, 345.0991
706.6893, 339.6300
707.1714, 355.2012
707.6536, 332.0010
708.1357, 347.2386
708.6178, 347.1326
709.0999, 354.0490
709.5820, 345.7592
710.0641, 342.1660
710.5463, 353.7837
711.0284, 356.9792
711.5105, 346.9388
711.9926, 354.3015
712.4747, 330.5705
712.9568, 334.1246
713.4390, 349.4509
713.9211, 340.1752
714.4032, 347.8159
714.8853, 349.0139
715.3674, 342.8287
715.8495, 348.7214
716.3317, 340.9662
716.8138, 328.7807
717.2959, 324.0860
717.7780, 328.6168
718.2601, 332.6092
718.7422, 329.3979
719.2244, 323.8248
719.7065, 320.0328
720.1886, 318.2663
720.6707, 319.4523
721.1528, 323.6570
721.6349, 328.0535
722.1171, 329.4727
722.5992, 328.6516
723.0813, 330.9590
723.5634, 337.6904
724.0455, 343.0323
724.5276, 346.0696
725.0098, 347.0030
725.4919, 344.6048
725.9740, 339.9583
726.4561, 337.5481
726.9382, 339.2897
727.4203, 341.2608
727.9025, 341.1627
728.3846, 341.7307
728.8667, 347.1954
729.3488, 355.5929
729.8309, 346.3206
730.3130, 364.0044
730.7952, 373.9631
731.2773, 376.6118
731.7594, 350.0563
732.2415, 361.2119
732.7236, 357.2546
733.2057, 352.6777
733.6878, 369.1410
734.1699, 346.8332
734.6520, 362.9628
735.1342, 363.7490
735.6163, 371.5574
736.0984, 364.1597
736.5805, 361.4586
737.0626, 373.9687
737.5447, 378.0562
738.0269, 368.9080
738.5090, 377.1628
738.9911, 354.3238
739.4732, 358.7701
739.9553, 374.9888
740.4374, 366.6051
740.9196, 375.1380
741.4017, 377.2281
741.8838, 350.0385
742.3659, 373.7692
742.8480, 375.4786
743.3301, 354.5768
743.8123, 376.5628
744.2944, 358.7783
744.7765, 355.1894
745.2586, 362.2836
745.7407, 354.6638
746.2228, 352.4726
746.7050, 354.3834
747.1871, 356.0974
747.6692, 356.5992
748.1513, 358.5729
748.6334, 363.6219
749.1155, 368.6213
749.5977, 373.3498
750.0798, 376.3529
750.5619, 374.3547
751.0440, 366.0947
751.5261, 358.8603
752.0082, 358.5715
752.4904, 361.7137
752.9725, 364.0892
753.4546, 365.6591
753.9367, 367.4477
754.4188, 369.7507
754.9009, 371.0437
755.3831, 368.9078
755.8652, 364.0888
756.3473, 363.5517
756.8294, 368.3662
757.3115, 373.2415
757.7936, 378.0611
758.2758, 380.7225
758.7579, 378.0575
759.2400, 370.8174
759.7221, 366.0334
760.2042, 365.2115
760.6863, 364.8524
761.1685, 363.3107
761.6506, 362.9254
762.1327, 366.7158
762.6148, 372.9562
763.0969, 377.2184
763.5790, 377.5624
764.0612, 377.2109
764.5433, 379.9378
765.0254, 383.4789
765.5075, 383.5703
765.9896, 380.4599
766.4717, 376.0277
766.9539, 370.9159
767.4360, 367.8587
767.9181, 371.5827
768.4002, 381.8607
768.8823, 386.5257
769.3644, 383.5381
769.8466, 381.3029
770.3287, 382.5805
770.8108, 385.0899
771.2929, 387.6260
771.7750, 389.8633
772.2571, 388.0531
772.7393, 375.6659
773.2214, 367.7888
773.7035, 370.0038
774.1856, 376.1708
774.6677, 383.5554
775.1498, 390.3910
775.6320, 393.5333
776.1141, 391.0396
776.5962, 387.9765
777.0783, 389.9330
777.5604, 393.9104
778.0425, 393.5265
778.5247, 389.7168
779.0068, 389.9359
779.4889, 397.4784
779.9710, 405.2751
780.4531, 402.9438
780.9352, 391.0831
781.4174, 382.3497
781.8995, 376.7658
782.3816, 374.1774
782.8637, 374.8162
783.3458, 378.1794
783.8279, 385.5512
784.3101, 396.3491
784.7922, 401.1879
785.2743, 393.4408
785.7564, 389.1420
786.2385, 393.9441
786.7206, 400.0147
787.2028, 402.0119
787.6849, 400.7426
788.1670, 399.1947
788.6491, 398.4332
789.1312, 397.1570
789.6133, 392.8663
790.0955, 388.5772
790.5776, 388.7680
791.0597, 392.4993
791.5418, 396.5711
792.0239, 399.7767
792.5060, 401.9942
792.9882, 403.2986
793.4703, 403.4387
793.9524, 399.7133
794.4345, 391.4344
794.9166, 388.5910
795.3987, 394.5816
795.8809, 403.9115
796.3630, 413.1526
796.8451, 421.5481
797.3272, 424.5624
797.8093, 416.8431
798.2914, 412.5594
798.7736, 414.1329
799.2557, 416.8550
799.7378, 419.1932
800.2199, 420.8478
800.7020, 420.9112
801.1841, 418.7772
801.6663, 418.7049
802.1484, 424.8127
802.6305, 431.4503
803.1126, 433.1466
803.5947, 432.6636
804.0768, 435.0393
804.5590, 441.1816
805.0411, 448.4625
805.5232, 455.5421
806.0053, 461.4641
806.4874, 463.7578
806.9695, 463.1641
807.4517, 463.0206
807.9338, 463.8792
808.4159, 466.4849
808.8980, 471.3571
809.3801, 478.2224
809.8622, 487.4398
810.3444, 501.1432
810.8265, 507.0791
811.3086, 499.5230
811.7907, 495.2248
812.2728, 502.9122
812.7549, 516.0009
813.2371, 526.4425
813.7192, 534.2647
814.2013, 540.2143
814.6834, 542.1888
815.1655, 545.0809
815.6476, 550.9232
816.1298, 557.8787
816.6119, 562.9187
817.0940, 567.4449
817.5761, 576.8107
818.0582, 594.6343
818.5403, 613.1741
819.0225, 627.4009
819.5046, 637.8503
819.9867, 640.7615
820.4688, 640.3999
820.9509, 651.9136
821.4330, 680.6677
821.9152, 711.8256
822.3973, 726.2072
822.8794, 728.8209
823.3615, 740.1386
823.8436, 760.1993
824.3257, 782.5906
824.8079, 805.9714
825.2900, 830.6733
825.7721, 857.2021
826.2542, 885.2228
826.7363, 912.1339
827.2184, 934.3265
827.7006, 964.0026
828.1827, 1001.459
828.6648, 1047.120
829.1469, 1107.372
829.6290, 1173.344
830.1111, 1229.900
830.5933, 1273.699
831.0754, 1328.496
831.5575, 1401.616
832.0396, 1482.879
832.5217, 1566.515
833.0038, 1656.549
833.4859, 1754.986
833.9680, 1863.012
834.4501, 1984.296
834.9323, 2121.793
835.4144, 2268.981
835.8965, 2419.516
836.3786, 2575.430
836.8607, 2738.235
837.3428, 2909.341
837.8250, 3093.662
838.3071, 3293.983
838.7892, 3501.412
839.2713, 3702.363
839.7534, 3901.160
840.2355, 4121.233
840.7177, 4363.710
841.1998, 4617.480
841.6819, 4883.301
842.1640, 5143.448
842.6461, 5381.936
843.1282, 5600.183
843.6104, 5804.514
844.0925, 6001.463
844.5746, 6163.674
845.0567, 6290.773
845.5388, 6382.063
846.0209, 6446.429
846.5031, 6468.481
846.9852, 6423.203
847.4673, 6306.287
847.9494, 6153.578
848.4315, 5961.952
848.9136, 5743.341
849.3958, 5495.271
849.8779, 5226.990
850.3600, 4942.731
850.8421, 4645.890
851.3242, 4340.429
851.8063, 4018.722
852.2885, 3715.525
852.7706, 3461.019
853.2527, 3230.327
853.7348, 2993.512
854.2169, 2758.689
854.6990, 2550.640
855.1812, 2376.646
855.6633, 2219.845
856.1454, 2062.110
856.6275, 1911.661
857.1096, 1787.390
857.5917, 1686.948
858.0739, 1602.953
858.5560, 1533.390
859.0381, 1465.593
859.5202, 1390.493
860.0023, 1313.774
860.4844, 1247.550
860.9666, 1192.039
861.4487, 1146.399
861.9308, 1113.283
862.4129, 1077.680
862.8950, 1031.860
863.3771, 983.6861
863.8593, 941.3102
864.3414, 904.9183
864.8235, 880.1240
865.3056, 879.8295
865.7877, 869.8010
866.2698, 836.3663
866.7520, 801.4918
867.2341, 776.0278
867.7162, 758.4340
868.1983, 744.7267
868.6804, 734.0228
869.1625, 729.1754
869.6447, 733.4572
870.1268, 740.7261
870.6089, 753.0557
871.0910, 763.4951
871.5731, 759.5053
872.0552, 743.7346
872.5374, 737.2928
873.0195, 756.0462
873.5016, 776.2493
873.9837, 776.4950
874.4658, 770.4670
874.9479, 775.8000
875.4301, 790.6427
875.9122, 805.6672
876.3943, 817.0834
876.8764, 825.1483
877.3585, 826.5057
877.8406, 826.3841
878.3228, 839.2453
878.8049, 860.7996
879.2870, 873.1174
879.7691, 872.8818
880.2512, 868.7360
880.7333, 866.2292
881.2155, 866.3811
881.6976, 872.5871
882.1797, 884.8228
882.6618, 893.7052
883.1439, 898.2053
883.6260, 904.4055
884.1082, 914.7914
884.5903, 927.3962
885.0724, 939.5905
885.5545, 951.6467
886.0366, 968.0256
886.5187, 990.0524
887.0009, 1012.884
887.4830, 1032.381
887.9651, 1057.744
888.4472, 1098.052
888.9293, 1146.490
889.4114, 1187.903
889.8936, 1218.548
890.3757, 1257.462
890.8578, 1309.393
891.3399, 1364.390
891.8220, 1421.593
892.3041, 1479.668
892.7863, 1537.028
893.2684, 1594.144
893.7505, 1652.505
894.2326, 1711.860
894.7147, 1774.069
895.1968, 1842.441
895.6790, 1911.712
896.1611, 1979.951
896.6432, 2046.016
897.1253, 2111.086
897.6074, 2173.957
898.0895, 2224.365
898.5717, 2254.858
899.0538, 2272.408
899.5359, 2280.474
900.0180, 2281.277
900.5001, 2277.694
900.9822, 2270.051
901.4644, 2257.604
901.9465, 2240.073
902.4286, 2218.898
902.9107, 2196.149
903.3928, 2170.712
903.8749, 2141.703
904.3571, 2107.788
904.8392, 2060.432
905.3213, 1999.168
905.8034, 1939.726
906.2855, 1894.108
906.7676, 1851.276
907.2498, 1785.246
907.7319, 1698.974
908.2140, 1619.492
908.6961, 1548.027
909.1782, 1483.002
909.6603, 1423.565
910.1425, 1371.691
910.6246, 1330.276
911.1067, 1298.195
911.5888, 1271.126
912.0709, 1250.522
912.5530, 1226.559
913.0352, 1195.048
913.5173, 1169.683
913.9994, 1161.012
914.4815, 1159.141
914.9636, 1147.944
915.4457, 1126.937
915.9279, 1100.677
916.4100, 1064.942
916.8921, 1031.753
917.3742, 1004.782
917.8563, 979.5821
918.3384, 953.1263
918.8206, 925.9439
919.3027, 899.3140
919.7848, 873.1785
920.2669, 847.8695
920.7490, 817.7164
921.2311, 795.2913
921.7133, 789.1725
922.1954, 789.6049
922.6775, 785.2144
923.1596, 777.9139
923.6417, 780.8849
924.1238, 804.8047
924.6060, 824.0551
925.0881, 825.5229
925.5702, 824.9268
926.0523, 832.9128
926.5344, 845.5333
927.0165, 855.5883
927.4987, 862.2795
927.9808, 871.2268
928.4629, 890.1839
928.9450, 905.4594
929.4271, 904.7934
929.9092, 898.8993
930.3914, 900.0729
930.8734, 905.8354
931.3555, 909.0757
931.8376, 907.2531
932.3198, 897.3178
932.8019, 871.3904
933.2840, 841.1816
933.7661, 821.4974
934.2482, 805.9790
934.7303, 782.2234
935.2125, 750.7091
935.6946, 720.3009
936.1767, 695.1237
936.6588, 674.4449
937.1409, 660.4229
937.6230, 648.5743
938.1052, 628.3687
938.5873, 602.8442
939.0694, 582.2435
939.5515, 568.6207
940.0336, 558.2067
940.5157, 548.7392
940.9979, 539.6741
941.4800, 531.0604
941.9621, 522.0430
942.4442, 507.4463
942.9263, 488.1509
943.4084, 473.5507
943.8906, 466.6636
944.3727, 463.1746
944.8548, 459.4435
945.3369, 455.5141
945.8190, 450.4190
946.3011, 444.4745
946.7833, 444.1530
947.2654, 450.1219
947.7475, 458.4158
948.2296, 468.0332
948.7117, 474.9121
949.1938, 473.4564
949.6760, 465.4011
950.1581, 460.2667
950.6402, 457.7095
951.1223, 462.4338
951.6044, 476.7386
952.0865, 489.8578
952.5687, 495.3489
953.0508, 498.6177
953.5329, 508.9135
954.0150, 526.1553
954.4971, 534.8231
954.9792, 531.6255
955.4614, 531.8392
955.9435, 540.1481
956.4256, 547.1182
956.9077, 546.0992
957.3898, 540.8155
957.8719, 539.5454
958.3541, 543.8264
958.8362, 540.8655
959.3183, 525.5234
959.8004, 514.1540
960.2825, 513.3829
960.7646, 512.8837
961.2468, 503.7764
961.7289, 489.7367
962.2110, 481.3678
962.6931, 481.6260
963.1752, 477.9193
963.6573, 467.2565
964.1395, 456.9895
964.6216, 446.9644
965.1037, 439.9438
965.5858, 440.1006
966.0679, 445.3680
966.5500, 447.7323
967.0322, 446.9927
967.5143, 443.7510
967.9964, 434.2186
968.4785, 426.9639
968.9606, 425.9525
969.4427, 427.4985
969.9249, 429.0168
970.4070, 430.1187
970.8891, 429.3892
971.3712, 425.2356
971.8533, 422.0761
972.3354, 423.5878
972.8176, 422.4205
973.2997, 409.7774
973.7818, 396.6768
974.2639, 397.2884
974.7460, 410.2456
975.2281, 420.1639
975.7103, 425.7063
976.1924, 426.0486
976.6745, 414.9825
977.1566, 405.3401
977.6387, 405.8529
978.1208, 410.7443
978.6030, 412.2853
979.0851, 410.0976
979.5672, 408.8809
980.0493, 409.2642
980.5314, 411.5063
981.0135, 422.6616
981.4957, 428.4125
981.9778, 412.9031
982.4599, 389.6729
982.9420, 379.5486
983.4241, 384.2906
983.9063, 388.1752
984.3884, 385.1184
984.8705, 382.0645
985.3526, 380.5250
985.8347, 380.6847
986.3168, 384.9579
986.7990, 389.9704
987.2811, 389.9405
987.7632, 384.2108
988.2453, 378.3687
988.7274, 373.7167
989.2095, 370.2672
989.6917, 368.6538
990.1738, 367.6482
990.6559, 367.4243
991.1380, 366.6328
991.6201, 361.8109
992.1022, 352.6870
992.5844, 347.2008
993.0665, 350.1828
993.5486, 355.4217
994.0307, 362.8027
994.5128, 368.6581
994.9949, 367.9138
995.4771, 363.9370
995.9592, 364.0902
996.4413, 369.7049
996.9234, 373.0907
997.4055, 368.8769
997.8876, 364.2277
998.3698, 362.2781
998.8519, 361.9248
999.3340, 363.5197
999.8161, 365.4394
1000.298, 363.7597
1000.780, 357.8232
1001.262, 355.1589
1001.745, 364.1325
1002.227, 370.8355
1002.709, 366.5396
1003.191, 358.0266
1003.673, 348.5821
1004.155, 340.8307
1004.637, 339.7173
1005.119, 346.1272
1005.602, 351.6266
1006.084, 349.7497
1006.566, 349.5671
1007.048, 359.5446
1007.530, 369.8874
1008.012, 370.7625
1008.494, 365.4915
1008.976, 362.0205
1009.458, 362.0271
1009.941, 360.3987
1010.423, 351.2346
1010.905, 344.7329
1011.387, 348.3638
1011.869, 354.4542
1012.351, 356.8242
1012.833, 356.3583
1013.315, 355.6823
1013.797, 355.3334
1014.280, 354.7332
1014.762, 352.3635
1015.244, 351.3907
1015.726, 355.2575
1016.208, 359.1477
1016.690, 358.1092
1017.172, 354.6245
1017.654, 353.6759
1018.137, 356.0481
1018.619, 358.1842
1019.101, 359.2892
1019.583, 359.3573
1020.065, 357.4966
1020.547, 355.4818
1021.029, 354.3413
1021.511, 354.0871
1021.993, 355.0422
1022.476, 357.1064
1022.958, 357.9501
1023.440, 354.7657
1023.922, 353.2952
1024.404, 358.6696
1024.886, 362.7907
1025.368, 356.6869
1025.850, 347.8878
1026.333, 350.0678
1026.815, 363.4865
1027.297, 369.7322
1027.779, 357.5037
1028.261, 348.5479
1028.743, 348.4546
1029.225, 352.0361
1029.707, 359.7219
1030.189, 367.3404
1030.672, 368.6763
1031.154, 364.0324
1031.636, 361.3759
1032.118, 363.1108
1032.600, 364.8958
1033.082, 366.3691
1033.564, 367.5332
1034.046, 368.8214
1034.528, 369.4979
1035.011, 367.4817
1035.493, 363.5107
1035.975, 363.7036
1036.457, 373.1046
1036.939, 378.4531
1037.421, 376.1851
1037.903, 373.6665
1038.385, 374.0454
1038.868, 374.8875
1039.350, 372.6795
1039.832, 368.7032
1040.314, 369.8000
1040.796, 380.7726
1041.278, 385.5127
1041.760, 378.4602
1042.242, 374.4016
1042.724, 379.9074
1043.207, 387.1214
1043.689, 389.6799
1044.171, 388.6245
1044.653, 387.2632
1045.135, 385.6223
1045.617, 383.6095
1046.099, 381.4815
1046.581, 377.8476
1047.063, 369.8495
1047.546, 365.6989
1048.028, 373.7071
1048.510, 387.2386
1048.992, 389.7365
1049.474, 379.1525
1049.956, 380.4052
1050.438, 397.8975
1050.920, 408.2706
1051.403, 405.7261
1051.885, 399.6678
1052.367, 395.1769
1052.849, 392.5638
1053.331, 392.9153
1053.813, 395.8820
1054.295, 394.7144
1054.777, 388.7814
1055.260, 388.2425
1055.742, 395.2475
1056.224, 400.5947
1056.706, 399.5089
1057.188, 395.6204
1057.670, 393.2228
1058.152, 392.4203
1058.634, 394.3015
1059.116, 398.5369
1059.599, 401.5667
1060.081, 403.0238
1060.563, 403.4542
1061.045, 403.0746
1061.527, 401.7675
1062.009, 398.4220
1062.491, 396.2325
1062.973, 404.1524
1063.455, 418.9872
1063.938, 431.5150
1064.420, 440.1620
1064.902, 439.9610
1065.384, 430.6429
1065.866, 422.7118
1066.348, 424.1863
1066.830, 429.5674
1067.312, 432.6571
1067.795, 433.5796
1068.277, 429.3470
1068.759, 423.9214
1069.241, 429.9912
1069.723, 446.4759
1070.205, 456.1349
1070.687, 449.0903
1071.169, 439.1461
1071.651, 437.2914
1072.134, 440.3446
1072.616, 446.7706
1073.098, 454.6420
1073.580, 461.8766
1074.062, 467.9354
1074.544, 472.4362
1075.026, 475.2854
1075.508, 476.7382
1075.990, 477.2435
1076.473, 476.0613
1076.955, 469.3995
1077.437, 463.7355
1077.919, 466.5618
1078.401, 474.8472
1078.883, 482.1556
1079.365, 487.2777
1079.847, 491.6929
1080.329, 497.6839
1080.812, 500.3950
1081.294, 495.6475
1081.776, 490.2389
1082.258, 486.6850
1082.740, 485.8257
1083.222, 489.5355
1083.704, 497.2657
1084.186, 503.6073
1084.669, 508.4052
1085.151, 511.2951
1085.633, 511.3481
1086.115, 510.6703
1086.597, 507.8457
1087.079, 506.8462
1087.561, 512.6135
1088.043, 522.4279
1088.526, 527.5867
1089.008, 526.9500
1089.490, 526.4047
1089.972, 523.8945
1090.454, 529.1423
1090.936, 548.4741
1091.418, 562.8324
1091.900, 558.3928
1092.382, 545.2311
1092.865, 539.8770
1093.347, 541.9715
1093.829, 548.4770
1094.311, 559.6314
1094.793, 568.3419
1095.275, 573.6713
1095.757, 578.0485
1096.239, 582.5774
1096.721, 585.7346
1097.204, 585.8239
1097.686, 583.5522
1098.168, 579.3094
1098.650, 574.3064
1099.132, 573.0123
1099.614, 575.5245
1100.096, 581.2657
1100.578, 589.7112
1101.061, 599.2320
1101.543, 609.3877
1102.025, 616.6826
1102.507, 615.2059
1102.989, 609.6410
1103.471, 603.4910
1103.953, 600.0118
1104.435, 607.5162
1104.917, 623.1176
1105.400, 633.7191
1105.882, 634.2094
1106.364, 633.9624
1106.846, 639.8977
1107.328, 645.9644
1107.810, 646.5813
1108.292, 646.8777
1108.774, 654.4184
1109.256, 664.3494
1109.739, 665.1218
1110.221, 655.9009
1110.703, 653.0898
1111.185, 667.3441
1111.667, 678.7897
1112.149, 679.9357
1112.631, 681.3418
1113.113, 690.5377
1113.596, 700.5511
1114.078, 702.2515
1114.560, 698.1595
1115.042, 698.6504
1115.524, 704.8934
1116.006, 712.4914
1116.488, 724.8295
1116.970, 729.7570
1117.453, 720.9358
1117.935, 712.7037
1118.417, 714.4550
1118.899, 721.9220
1119.381, 727.7697
1119.863, 732.4175
1120.345, 742.0065
1120.827, 756.8252
1121.309, 763.1997
1121.792, 759.5414
1122.274, 758.2424
1122.756, 764.1701
1123.238, 777.3375
1123.720, 800.5331
1124.202, 822.9230
1124.684, 817.0673
1125.166, 795.4412
1125.648, 793.5862
1126.131, 806.4094
1126.613, 812.0318
1127.095, 807.5410
1127.577, 804.5013
1128.059, 808.8687
1128.541, 814.7971
1129.023, 815.3530
1129.505, 816.9410
1129.988, 829.1776
1130.470, 843.3950
1130.952, 846.4153
1131.434, 843.3016
1131.916, 849.7059
1132.398, 867.9497
1132.880, 878.5434
1133.362, 866.9776
1133.844, 858.4098
1134.327, 860.0992
1134.809, 867.0612
1135.291, 882.0472
1135.773, 896.7322
1136.255, 898.6554
1136.737, 892.0436
1137.219, 897.8273
1137.701, 922.8638
1138.183, 935.3113
1138.666, 930.4489
1139.148, 923.7970
1139.630, 917.6710
1140.112, 911.6432
1140.594, 904.0587
1141.076, 900.1454
1141.558, 909.3596
1142.040, 928.2073
1142.523, 935.7124
1143.005, 932.4016
1143.487, 928.6602
1143.969, 925.6840
1144.451, 929.5102
1144.933, 941.3885
1145.415, 949.5999
1145.897, 944.7690
1146.380, 934.3729
1146.862, 925.7434
1147.344, 921.0186
1147.826, 928.2341
1148.308, 940.4879
1148.790, 942.5020
1149.272, 935.7479
1149.754, 932.2599
1150.236, 936.0490
1150.719, 940.8817
1151.201, 941.8107
1151.683, 944.3643
1152.165, 956.1554
1152.647, 966.0171
1153.129, 961.0541
1153.611, 951.6198
1154.093, 953.1228
1154.575, 964.6960
1155.058, 974.3647
1155.540, 982.3423
1156.022, 983.9634
1156.504, 966.4788
1156.986, 965.7924
1157.468, 1005.047
1157.950, 1034.494
1158.432, 1017.056
1158.915, 981.7607
1159.397, 975.2881
1159.879, 994.1384
1160.361, 1010.179
1160.843, 1023.433
1161.325, 1032.901
1161.807, 1038.473
1162.289, 1037.273
1162.771, 1028.642
1163.254, 1021.650
1163.736, 1023.229
1164.218, 1028.599
1164.700, 1030.605
1165.182, 1031.674
1165.664, 1038.203
1166.146, 1046.320
1166.628, 1045.151
1167.110, 1038.358
1167.593, 1041.882
1168.075, 1059.625
1168.557, 1074.181
1169.039, 1075.927
1169.521, 1072.553
1170.003, 1063.907
1170.485, 1055.943
1170.967, 1052.274
1171.450, 1051.813
1171.932, 1052.874
1172.414, 1055.798
1172.896, 1063.382
1173.378, 1078.520
1173.860, 1085.524
1174.342, 1077.456
1174.824, 1078.020
1175.307, 1094.963
1175.789, 1109.512
1176.271, 1111.690
1176.753, 1110.021
1177.235, 1114.400
1177.717, 1122.827
1178.199, 1128.186
1178.681, 1131.271
1179.163, 1138.843
1179.646, 1150.231
1180.128, 1161.332
1180.610, 1170.375
1181.092, 1171.242
1181.574, 1160.632
1182.056, 1151.953
1182.538, 1158.297
1183.020, 1172.631
1183.502, 1193.746
1183.984, 1213.417
1184.467, 1219.395
1184.949, 1218.091
1185.431, 1221.421
1185.913, 1230.538
1186.395, 1240.197
1186.877, 1250.465
1187.359, 1257.424
1187.841, 1254.539
1188.324, 1256.463
1188.806, 1273.523
1189.288, 1288.298
1189.770, 1287.829
1190.252, 1282.277
1190.734, 1287.084
1191.216, 1300.642
1191.698, 1310.297
1192.181, 1315.782
1192.663, 1320.451
1193.145, 1324.486
1193.627, 1336.551
1194.109, 1358.403
1194.591, 1376.073
1195.073, 1380.710
1195.555, 1379.647
1196.037, 1378.749
1196.520, 1380.599
1197.002, 1394.210
1197.484, 1409.894
1197.966, 1406.826
1198.448, 1395.240
1198.930, 1402.718
1199.412, 1430.783
1199.894, 1452.993
1200.376, 1459.325
1200.859, 1461.624
1201.341, 1452.506
1201.823, 1455.244
1202.305, 1493.383
1202.787, 1530.738
1203.269, 1538.351
1203.751, 1533.548
1204.233, 1544.167
1204.716, 1567.300
1205.198, 1572.360
1205.680, 1554.703
1206.162, 1559.499
1206.644, 1590.366
1207.126, 1606.659
1207.608, 1598.072
1208.090, 1596.463
1208.573, 1621.994
1209.055, 1652.594
1209.537, 1661.117
1210.019, 1657.021
1210.501, 1651.383
1210.983, 1646.427
1211.465, 1645.026
1211.947, 1647.460
1212.429, 1654.330
1212.911, 1664.988
1213.394, 1677.307
1213.876, 1692.446
1214.358, 1701.703
1214.840, 1696.242
1215.322, 1692.942
1215.804, 1702.726
1216.286, 1709.843
1216.768, 1703.490
1217.251, 1691.802
1217.733, 1684.968
1218.215, 1681.853
1218.697, 1677.299
1219.179, 1671.318
1219.661, 1661.995
1220.143, 1649.456
1220.625, 1647.211
1221.108, 1656.611
1221.590, 1657.343
1222.072, 1639.645
1222.554, 1620.714
1223.036, 1618.758
1223.518, 1620.538
1224.000, 1606.869
1224.482, 1590.334
1224.964, 1590.919
1225.447, 1596.048
1225.929, 1581.401
1226.411, 1552.182
1226.893, 1533.766
1227.375, 1531.766
1227.857, 1536.190
1228.339, 1554.401
1228.821, 1564.222
1229.303, 1561.143
1229.786, 1553.372
1230.268, 1543.352
1230.750, 1530.341
1231.232, 1511.677
1231.714, 1494.201
1232.196, 1495.773
1232.678, 1512.338
1233.160, 1518.067
1233.643, 1514.754
1234.125, 1508.193
1234.607, 1500.925
1235.089, 1500.970
1235.571, 1509.239
1236.053, 1512.669
1236.535, 1500.813
1237.017, 1493.621
1237.500, 1514.422
1237.982, 1533.602
1238.464, 1532.507
1238.946, 1519.858
1239.428, 1494.144
1239.910, 1467.640
1240.392, 1464.922
1240.874, 1482.796
1241.356, 1489.490
1241.839, 1480.210
1242.321, 1477.445
##END=



