##NAMES=Esperite
##RRUFFID=R070512
##IDEAL CHEMISTRY=Pb^2+^Ca_2_(Zn^2+^SiO_4_)_3_
##LOCALITY=Parker Shaft, Franklin, Sussex County, New Jersey, USA
##OWNER=RRUFF
##SOURCE=Canadian Museum of Nature
##DESCRIPTION=Greasy white massive, co-type specimen. Structure reported in Tait et al (2010) is from this sample.
##STATUS=The identification of this mineral is confirmed by single-crystal X-ray diffraction and chemical analysis.
##URL=rruff.info/R070512
##MEASURED CHEMISTRY=(Ca_1.86_Fe_0.07_Mn_0.04_Cr^3+^_0.02_[box]_0.01_)_Σ=2_Pb_1.00_Zn_3.00_((Si_1.00_O_4_)_3_ ; = pin #1  : (Ca_1.79_Fe_0.12_Cr^3+^_0.04_Mn_0.03_[box]_0.02_)_Σ=2_Pb_1.00_Zn_3.00_((Si_1.00_O_4_)_3_ ; = pin #2
162.0714, 44816.06
162.5536, 44828.81
163.0357, 44851.72
163.5178, 44898.37
163.9999, 44935.45
164.4820, 44946.36
164.9641, 44933.77
165.4463, 44911.44
165.9284, 44865.15
166.4105, 44819.16
166.8926, 44799.47
167.3747, 44822.82
167.8568, 44868.80
168.3390, 44928.45
168.8211, 45000.49
169.3032, 45074.49
169.7853, 45156.38
170.2674, 45233.94
170.7495, 45286.28
171.2317, 45256.74
171.7138, 45219.57
172.1959, 45262.09
172.6780, 45413.61
173.1601, 45576.27
173.6422, 45664.17
174.1244, 45693.68
174.6065, 45714.83
175.0886, 45748.88
175.5707, 45796.05
176.0528, 45856.87
176.5349, 45931.91
177.0171, 46018.57
177.4992, 46122.54
177.9813, 46239.90
178.4634, 46349.74
178.9455, 46441.40
179.4276, 46511.61
179.9098, 46554.68
180.3919, 46549.78
180.8740, 46524.28
181.3561, 46522.95
181.8382, 46545.65
182.3203, 46584.40
182.8025, 46662.44
183.2846, 46761.15
183.7667, 46806.52
184.2488, 46739.39
184.7309, 46595.56
185.2130, 46474.57
185.6951, 46378.55
186.1773, 46304.29
186.6594, 46244.22
187.1415, 46200.06
187.6236, 46179.03
188.1057, 46183.71
188.5878, 46214.04
189.0700, 46278.44
189.5521, 46388.67
190.0342, 46509.91
190.5163, 46574.09
190.9984, 46577.88
191.4805, 46565.37
191.9627, 46556.79
192.4448, 46552.24
192.9269, 46570.70
193.4090, 46623.58
193.8911, 46695.18
194.3732, 46740.38
194.8554, 46758.13
195.3375, 46760.23
195.8196, 46753.23
196.3017, 46737.87
196.7838, 46729.21
197.2659, 46733.30
197.7481, 46749.91
198.2302, 46775.75
198.7123, 46817.75
199.1944, 46854.52
199.6765, 46849.59
200.1586, 46795.75
200.6408, 46760.76
201.1229, 46771.85
201.6050, 46829.32
202.0871, 46893.95
202.5692, 46972.84
203.0513, 47046.14
203.5335, 47069.16
204.0156, 47025.50
204.4977, 46995.00
204.9798, 47016.16
205.4619, 47094.01
205.9440, 47183.53
206.4262, 47296.80
206.9083, 47409.15
207.3904, 47446.65
207.8725, 47381.82
208.3546, 47314.40
208.8367, 47310.02
209.3189, 47388.56
209.8010, 47444.93
210.2831, 47467.59
210.7652, 47462.46
211.2473, 47453.85
211.7294, 47441.62
212.2116, 47428.95
212.6937, 47415.22
213.1758, 47394.82
213.6579, 47399.65
214.1400, 47448.28
214.6221, 47537.01
215.1043, 47587.79
215.5864, 47592.90
216.0685, 47575.87
216.5506, 47551.95
217.0327, 47504.11
217.5148, 47495.41
217.9970, 47552.29
218.4791, 47679.25
218.9612, 47770.12
219.4433, 47797.54
219.9254, 47812.54
220.4075, 47890.53
220.8897, 48069.80
221.3718, 48227.07
221.8539, 48320.14
222.3360, 48339.27
222.8181, 48335.69
223.3002, 48286.01
223.7824, 48227.27
224.2645, 48236.71
224.7466, 48365.15
225.2287, 48475.25
225.7108, 48507.30
226.1929, 48421.78
226.6750, 48370.91
227.1572, 48361.49
227.6393, 48386.27
228.1214, 48430.50
228.6035, 48511.35
229.0856, 48586.28
229.5677, 48632.73
230.0499, 48637.54
230.5320, 48639.66
231.0141, 48625.34
231.4962, 48607.75
231.9783, 48651.57
232.4604, 48806.25
232.9426, 48956.80
233.4247, 49030.39
233.9068, 48979.67
234.3889, 48946.76
234.8710, 48947.84
235.3531, 48979.95
235.8353, 49016.75
236.3174, 49072.86
236.7995, 49118.70
237.2816, 49127.86
237.7637, 49072.27
238.2458, 49035.79
238.7280, 49033.90
239.2101, 49066.23
239.6922, 49101.59
240.1743, 49149.26
240.6564, 49190.45
241.1385, 49203.50
241.6207, 49161.26
242.1028, 49138.33
242.5849, 49150.80
243.0670, 49200.82
243.5491, 49255.80
244.0313, 49316.93
244.5134, 49381.98
244.9955, 49450.79
245.4776, 49535.70
245.9597, 49603.45
246.4418, 49644.29
246.9240, 49654.38
247.4061, 49658.27
247.8882, 49637.87
248.3703, 49624.83
248.8524, 49672.64
249.3345, 49827.68
249.8167, 49963.74
250.2988, 50040.23
250.7809, 50041.27
251.2630, 50042.21
251.7451, 50035.78
252.2272, 50032.43
252.7094, 50055.05
253.1915, 50122.64
253.6736, 50182.25
254.1557, 50210.21
254.6378, 50189.70
255.1199, 50192.06
255.6021, 50228.42
256.0842, 50282.30
256.5663, 50317.12
257.0484, 50326.21
257.5305, 50328.58
258.0126, 50328.76
258.4948, 50317.19
258.9769, 50336.57
259.4590, 50407.16
259.9411, 50503.23
260.4232, 50550.22
260.9053, 50524.23
261.3875, 50494.63
261.8696, 50497.73
262.3517, 50542.96
262.8338, 50590.88
263.3159, 50635.38
263.7980, 50681.90
264.2802, 50751.13
264.7623, 50854.48
265.2444, 50956.99
265.7265, 51044.16
266.2086, 51119.70
266.6907, 51149.95
267.1729, 51105.46
267.6550, 51016.33
268.1371, 51008.50
268.6192, 51108.18
269.1013, 51228.19
269.5834, 51312.38
270.0656, 51356.53
270.5477, 51375.89
271.0298, 51359.89
271.5119, 51322.20
271.9940, 51326.55
272.4761, 51386.71
272.9583, 51456.02
273.4404, 51504.98
273.9225, 51534.75
274.4046, 51537.34
274.8867, 51498.00
275.3688, 51433.38
275.8510, 51424.77
276.3331, 51486.88
276.8152, 51562.51
277.2973, 51603.00
277.7794, 51604.91
278.2615, 51605.80
278.7437, 51614.97
279.2258, 51628.42
279.7079, 51621.90
280.1900, 51589.08
280.6721, 51561.77
281.1542, 51581.45
281.6364, 51651.65
282.1185, 51690.73
282.6006, 51667.36
283.0827, 51602.94
283.5648, 51592.22
284.0469, 51645.21
284.5291, 51701.90
285.0112, 51690.59
285.4933, 51613.98
285.9754, 51566.00
286.4575, 51575.32
286.9396, 51628.26
287.4217, 51681.26
287.9038, 51732.80
288.3860, 51787.23
288.8681, 51847.26
289.3502, 51911.74
289.8323, 51986.68
290.3144, 52094.43
290.7965, 52205.01
291.2787, 52211.55
291.7608, 52105.02
292.2429, 51992.42
292.7250, 51990.75
293.2071, 52079.68
293.6892, 52156.39
294.1714, 52183.67
294.6535, 52181.07
295.1356, 52194.64
295.6177, 52226.81
296.0998, 52251.19
296.5819, 52230.57
297.0641, 52180.06
297.5462, 52148.31
298.0283, 52156.84
298.5104, 52191.72
298.9925, 52233.68
299.4746, 52282.83
299.9568, 52332.63
300.4389, 52376.15
300.9210, 52414.99
301.4031, 52454.95
301.8852, 52497.79
302.3673, 52540.32
302.8495, 52577.78
303.3316, 52609.02
303.8137, 52639.36
304.2958, 52657.82
304.7779, 52678.60
305.2600, 52728.02
305.7422, 52873.89
306.2243, 53015.13
306.7064, 53027.98
307.1885, 52918.84
307.6706, 52810.97
308.1527, 52798.17
308.6349, 52839.98
309.1170, 52880.44
309.5991, 52899.35
310.0812, 52911.20
310.5633, 52930.27
311.0454, 52956.32
311.5276, 52973.48
312.0097, 52955.53
312.4918, 52929.80
312.9739, 52926.67
313.4560, 52986.65
313.9381, 53048.17
314.4203, 53068.09
314.9024, 53050.45
315.3845, 53044.87
315.8666, 53091.70
316.3487, 53153.91
316.8308, 53196.43
317.3130, 53201.87
317.7951, 53191.16
318.2772, 53158.59
318.7593, 53107.62
319.2414, 53078.88
319.7235, 53100.99
320.2057, 53143.14
320.6878, 53181.04
321.1699, 53188.26
321.6520, 53213.07
322.1341, 53290.86
322.6162, 53413.48
323.0984, 53490.70
323.5805, 53457.31
324.0626, 53402.46
324.5447, 53386.38
325.0268, 53420.52
325.5089, 53490.48
325.9911, 53629.32
326.4732, 53823.86
326.9553, 53951.20
327.4374, 53928.50
327.9195, 53884.78
328.4016, 53894.34
328.8838, 54016.84
329.3659, 54114.19
329.8480, 54160.49
330.3301, 54166.04
330.8122, 54201.56
331.2943, 54278.66
331.7765, 54372.94
332.2586, 54475.38
332.7407, 54615.82
333.2228, 54709.98
333.7049, 54740.20
334.1870, 54721.49
334.6692, 54716.63
335.1513, 54741.39
335.6334, 54757.46
336.1155, 54737.22
336.5976, 54660.14
337.0797, 54616.17
337.5619, 54623.65
338.0440, 54661.37
338.5261, 54659.86
339.0082, 54599.75
339.4903, 54555.75
339.9724, 54585.92
340.4546, 54704.38
340.9367, 54768.89
341.4188, 54765.17
341.9009, 54713.22
342.3830, 54644.77
342.8651, 54557.84
343.3473, 54483.98
343.8294, 54451.51
344.3115, 54457.20
344.7936, 54443.62
345.2757, 54402.77
345.7578, 54358.96
346.2400, 54352.95
346.7221, 54383.46
347.2042, 54418.82
347.6863, 54440.41
348.1684, 54453.26
348.6505, 54470.63
349.1327, 54489.26
349.6148, 54522.64
350.0969, 54606.29
350.5790, 54723.13
351.0611, 54811.75
351.5432, 54780.54
352.0254, 54720.15
352.5075, 54819.04
352.9896, 55101.42
353.4717, 55347.61
353.9538, 55291.82
354.4359, 55055.61
354.9181, 54878.65
355.4002, 54922.48
355.8823, 55037.74
356.3644, 55091.07
356.8465, 55080.48
357.3286, 55053.08
357.8108, 55029.31
358.2929, 55011.30
358.7750, 55000.71
359.2571, 54993.58
359.7392, 54998.79
360.2213, 55032.13
360.7035, 55090.61
361.1856, 55133.00
361.6677, 55118.41
362.1498, 55089.41
362.6319, 55082.65
363.1140, 55157.50
363.5962, 55203.86
364.0783, 55148.00
364.5604, 55012.14
365.0425, 54955.11
365.5246, 55088.08
366.0067, 55263.95
366.4889, 55391.93
366.9710, 55424.67
367.4531, 55453.92
367.9352, 55486.38
368.4173, 55521.70
368.8994, 55557.47
369.3815, 55609.33
369.8636, 55648.56
370.3458, 55661.26
370.8279, 55627.14
371.3100, 55600.59
371.7921, 55575.89
372.2742, 55559.40
372.7563, 55569.40
373.2385, 55618.68
373.7206, 55672.24
374.2027, 55721.74
374.6848, 55775.68
375.1669, 55782.07
375.6490, 55717.38
376.1312, 55629.24
376.6133, 55606.50
377.0954, 55670.20
377.5775, 55714.05
378.0596, 55680.45
378.5417, 55574.16
379.0239, 55535.47
379.5060, 55577.64
379.9881, 55650.09
380.4702, 55686.07
380.9523, 55687.63
381.4344, 55703.79
381.9166, 55765.42
382.3987, 55850.20
382.8808, 55884.56
383.3629, 55864.53
383.8450, 55840.48
384.3271, 55877.61
384.8093, 55951.60
385.2914, 55984.80
385.7735, 55929.53
386.2556, 55844.57
386.7377, 55824.07
387.2198, 55858.75
387.7020, 55877.18
388.1841, 55795.36
388.6662, 55677.97
389.1483, 55613.23
389.6304, 55641.71
390.1125, 55701.39
390.5947, 55764.23
391.0768, 55825.89
391.5589, 55868.07
392.0410, 55854.35
392.5231, 55836.44
393.0052, 55864.13
393.4874, 55983.01
393.9695, 56054.38
394.4516, 55956.88
394.9337, 55781.13
395.4158, 55693.43
395.8979, 55830.59
396.3801, 55984.84
396.8622, 56071.06
397.3443, 56065.00
397.8264, 56047.62
398.3085, 55995.76
398.7906, 55947.94
399.2728, 55952.59
399.7549, 56093.82
400.2370, 56194.18
400.7191, 56205.36
401.2012, 56119.70
401.6833, 56070.28
402.1655, 56069.85
402.6476, 56095.83
403.1297, 56131.25
403.6118, 56180.24
404.0939, 56234.39
404.5760, 56305.45
405.0582, 56382.14
405.5403, 56382.91
406.0224, 56276.67
406.5045, 56183.89
406.9866, 56211.32
407.4688, 56368.38
407.9509, 56465.06
408.4330, 56471.34
408.9151, 56421.16
409.3972, 56376.30
409.8793, 56336.67
410.3615, 56307.90
410.8436, 56290.30
411.3257, 56285.71
411.8078, 56305.93
412.2899, 56356.52
412.7720, 56412.17
413.2542, 56440.92
413.7363, 56449.84
414.2184, 56459.22
414.7005, 56474.69
415.1826, 56497.75
415.6647, 56531.50
416.1469, 56575.53
416.6290, 56623.61
417.1111, 56682.91
417.5932, 56738.89
418.0753, 56771.05
418.5574, 56739.59
419.0396, 56710.92
419.5217, 56730.40
420.0038, 56788.84
420.4859, 56828.34
420.9680, 56824.12
421.4501, 56794.72
421.9323, 56753.81
422.4144, 56712.76
422.8965, 56651.11
423.3786, 56530.66
423.8607, 56385.86
424.3428, 56311.04
424.8250, 56374.46
425.3071, 56459.14
425.7892, 56530.35
426.2713, 56599.24
426.7534, 56625.87
427.2355, 56567.82
427.7177, 56492.84
428.1998, 56510.58
428.6819, 56670.95
429.1640, 56804.51
429.6461, 56848.17
430.1282, 56802.57
430.6104, 56820.11
431.0925, 56914.14
431.5746, 57029.73
432.0567, 57111.53
432.5388, 57157.77
433.0209, 57201.04
433.5031, 57250.75
433.9852, 57299.83
434.4673, 57338.20
434.9494, 57366.43
435.4315, 57370.02
435.9136, 57317.37
436.3958, 57234.11
436.8779, 57182.97
437.3600, 57175.54
437.8421, 57200.84
438.3242, 57272.91
438.8063, 57372.72
439.2885, 57445.57
439.7706, 57436.04
440.2527, 57402.57
440.7348, 57392.30
441.2169, 57408.04
441.6990, 57450.46
442.1812, 57544.89
442.6633, 57656.29
443.1454, 57744.39
443.6275, 57776.08
444.1096, 57799.98
444.5917, 57827.72
445.0739, 57859.80
445.5560, 57900.89
446.0381, 57992.39
446.5202, 58065.65
447.0023, 58079.95
447.4844, 57950.71
447.9666, 57869.17
448.4487, 57853.96
448.9308, 57886.89
449.4129, 57924.33
449.8950, 57992.70
450.3771, 58022.89
450.8593, 57976.46
451.3413, 57836.23
451.8235, 57724.91
452.3056, 57645.60
452.7877, 57590.78
453.2698, 57559.94
453.7519, 57557.19
454.2340, 57529.11
454.7162, 57442.10
455.1983, 57321.25
455.6804, 57262.98
456.1625, 57270.01
456.6446, 57283.79
457.1267, 57237.05
457.6089, 57156.80
458.0910, 57121.49
458.5731, 57164.86
459.0552, 57227.77
459.5373, 57241.89
460.0194, 57216.86
460.5016, 57184.11
460.9837, 57156.71
461.4658, 57132.90
461.9479, 57110.08
462.4300, 57087.20
462.9121, 57071.26
463.3943, 57066.35
463.8764, 57070.78
464.3585, 57082.40
464.8406, 57105.58
465.3227, 57131.07
465.8048, 57162.13
466.2870, 57198.36
466.7691, 57214.77
467.2512, 57190.10
467.7333, 57156.92
468.2154, 57133.67
468.6975, 57109.30
469.1797, 57113.28
469.6618, 57159.93
470.1439, 57231.51
470.6260, 57284.21
471.1081, 57319.82
471.5902, 57329.85
472.0724, 57296.67
472.5545, 57214.47
473.0366, 57184.05
473.5187, 57217.68
474.0008, 57269.15
474.4829, 57283.37
474.9651, 57262.91
475.4472, 57234.04
475.9293, 57199.06
476.4114, 57166.20
476.8935, 57149.04
477.3756, 57148.84
477.8578, 57168.61
478.3399, 57229.81
478.8220, 57308.18
479.3041, 57361.78
479.7862, 57369.00
480.2683, 57386.44
480.7505, 57488.30
481.2326, 57631.01
481.7147, 57723.31
482.1968, 57683.50
482.6789, 57618.57
483.1610, 57577.46
483.6432, 57563.68
484.1253, 57565.41
484.6074, 57586.86
485.0895, 57616.38
485.5716, 57643.90
486.0537, 57668.91
486.5359, 57688.95
487.0180, 57704.77
487.5001, 57715.30
487.9822, 57716.05
488.4643, 57704.59
488.9464, 57688.47
489.4286, 57670.89
489.9107, 57652.35
490.3928, 57638.31
490.8749, 57634.48
491.3570, 57628.49
491.8391, 57599.35
492.3213, 57548.40
492.8034, 57494.29
493.2855, 57439.50
493.7676, 57390.20
494.2497, 57352.95
494.7318, 57329.16
495.2140, 57338.86
495.6961, 57443.97
496.1782, 57585.17
496.6603, 57644.79
497.1424, 57562.88
497.6245, 57474.48
498.1067, 57495.55
498.5888, 57590.07
499.0709, 57674.97
499.5530, 57691.51
500.0351, 57703.73
500.5172, 57756.90
500.9994, 57861.80
501.4815, 57929.94
501.9636, 57914.79
502.4457, 57865.68
502.9278, 57827.58
503.4099, 57831.48
503.8921, 57810.51
504.3742, 57742.74
504.8563, 57646.11
505.3384, 57595.16
505.8205, 57612.22
506.3026, 57639.39
506.7848, 57652.72
507.2669, 57653.59
507.7490, 57650.21
508.2311, 57647.79
508.7132, 57633.57
509.1953, 57574.77
509.6775, 57477.02
510.1596, 57403.13
510.6417, 57370.72
511.1238, 57374.84
511.6059, 57419.92
512.0880, 57500.98
512.5701, 57576.51
513.0522, 57617.33
513.5344, 57633.52
514.0165, 57637.11
514.4986, 57627.99
514.9807, 57610.20
515.4628, 57571.34
515.9449, 57528.24
516.4271, 57509.91
516.9092, 57572.89
517.3913, 57620.55
517.8734, 57612.16
518.3555, 57545.48
518.8376, 57477.98
519.3198, 57406.59
519.8019, 57345.52
520.2840, 57303.36
520.7661, 57286.90
521.2482, 57279.79
521.7303, 57291.95
522.2125, 57306.43
522.6946, 57275.95
523.1767, 57184.74
523.6588, 57112.02
524.1409, 57097.01
524.6230, 57131.18
525.1052, 57147.47
525.5873, 57143.23
526.0694, 57142.57
526.5515, 57181.22
527.0336, 57243.69
527.5157, 57281.79
527.9979, 57273.45
528.4800, 57254.83
528.9621, 57268.11
529.4442, 57303.35
529.9263, 57331.34
530.4084, 57316.16
530.8906, 57302.34
531.3727, 57326.45
531.8548, 57396.36
532.3369, 57457.51
532.8190, 57497.32
533.3011, 57515.89
533.7833, 57512.75
534.2654, 57463.36
534.7475, 57419.61
535.2296, 57380.34
535.7117, 57349.18
536.1938, 57342.71
536.6760, 57378.23
537.1581, 57405.85
537.6402, 57399.94
538.1223, 57357.05
538.6044, 57334.73
539.0865, 57338.81
539.5687, 57348.45
540.0508, 57329.98
540.5329, 57290.39
541.0150, 57284.44
541.4971, 57347.75
541.9792, 57424.97
542.4614, 57416.52
542.9435, 57338.26
543.4256, 57263.00
543.9077, 57233.96
544.3898, 57229.09
544.8719, 57231.52
545.3541, 57241.04
545.8362, 57243.82
546.3183, 57227.89
546.8004, 57203.23
547.2825, 57180.54
547.7646, 57159.19
548.2468, 57142.72
548.7289, 57131.27
549.2110, 57124.56
549.6931, 57124.99
550.1752, 57152.89
550.6573, 57159.14
551.1395, 57104.15
551.6216, 56960.92
552.1037, 56938.91
552.5858, 57077.49
553.0679, 57251.99
553.5500, 57317.83
554.0322, 57278.38
554.5143, 57211.60
554.9964, 57117.49
555.4785, 57029.66
555.9606, 57022.43
556.4427, 57084.08
556.9249, 57150.58
557.4070, 57185.52
557.8891, 57202.88
558.3712, 57208.91
558.8533, 57200.23
559.3354, 57215.20
559.8176, 57323.49
560.2997, 57443.70
560.7818, 57492.44
561.2639, 57343.12
561.7460, 57236.04
562.2281, 57250.19
562.7103, 57349.67
563.1924, 57397.21
563.6745, 57354.18
564.1566, 57308.68
564.6387, 57294.58
565.1208, 57316.92
565.6030, 57324.86
566.0851, 57315.23
566.5672, 57301.86
567.0493, 57307.88
567.5314, 57331.97
568.0135, 57322.30
568.4957, 57259.47
568.9778, 57178.07
569.4599, 57132.84
569.9420, 57118.91
570.4241, 57116.63
570.9063, 57132.93
571.3884, 57144.62
571.8705, 57111.06
572.3526, 57031.41
572.8347, 56985.23
573.3168, 57068.58
573.7990, 57173.82
574.2811, 57204.82
574.7632, 57034.55
575.2453, 56942.47
575.7274, 57034.35
576.2095, 57221.86
576.6917, 57326.00
577.1738, 57287.54
577.6559, 57263.45
578.1380, 57306.17
578.6201, 57409.04
579.1022, 57458.74
579.5844, 57440.86
580.0665, 57421.64
580.5486, 57475.81
581.0307, 57585.84
581.5128, 57612.59
581.9949, 57524.15
582.4771, 57408.33
582.9592, 57376.23
583.4413, 57402.18
583.9234, 57422.57
584.4055, 57402.35
584.8876, 57373.54
585.3698, 57344.23
585.8519, 57321.60
586.3340, 57342.08
586.8161, 57478.60
587.2982, 57619.90
587.7803, 57704.59
588.2625, 57716.36
588.7446, 57695.08
589.2267, 57605.22
589.7088, 57509.01
590.1909, 57479.75
590.6730, 57549.96
591.1552, 57596.84
591.6373, 57593.13
592.1194, 57556.86
592.6015, 57538.16
593.0836, 57536.77
593.5657, 57549.71
594.0479, 57594.46
594.5300, 57649.81
595.0121, 57649.05
595.4942, 57588.71
595.9763, 57523.61
596.4584, 57513.87
596.9406, 57521.34
597.4227, 57493.50
597.9048, 57397.03
598.3869, 57297.25
598.8690, 57198.15
599.3511, 57119.35
599.8333, 57096.87
600.3154, 57255.44
600.7975, 57349.02
601.2796, 57280.40
601.7617, 57056.03
602.2438, 56923.04
602.7260, 56923.68
603.2081, 56946.47
603.6902, 56925.64
604.1723, 56860.16
604.6544, 56771.73
605.1365, 56653.84
605.6187, 56540.70
606.1008, 56481.42
606.5829, 56468.60
607.0650, 56470.20
607.5471, 56472.34
608.0292, 56487.13
608.5114, 56552.83
608.9935, 56648.41
609.4756, 56701.79
609.9577, 56611.47
610.4398, 56513.71
610.9219, 56504.73
611.4041, 56607.41
611.8862, 56682.75
612.3683, 56672.91
612.8504, 56644.53
613.3325, 56648.50
613.8146, 56700.30
614.2968, 56756.58
614.7789, 56827.59
615.2610, 56891.43
615.7431, 56898.19
616.2252, 56843.20
616.7073, 56777.63
617.1895, 56711.33
617.6716, 56651.27
618.1537, 56614.11
618.6358, 56599.77
619.1179, 56613.71
619.6000, 56709.81
620.0822, 56814.01
620.5643, 56816.94
621.0464, 56686.08
621.5285, 56570.73
622.0106, 56563.38
622.4927, 56610.58
622.9749, 56655.44
623.4570, 56698.20
623.9391, 56723.69
624.4212, 56738.59
624.9033, 56734.57
625.3854, 56678.05
625.8676, 56527.54
626.3497, 56417.72
626.8318, 56408.54
627.3139, 56487.24
627.7960, 56533.20
628.2781, 56543.74
628.7603, 56539.95
629.2424, 56533.08
629.7245, 56525.34
630.2066, 56529.18
630.6887, 56552.58
631.1708, 56557.25
631.6530, 56481.49
632.1351, 56371.54
632.6172, 56297.08
633.0993, 56303.80
633.5814, 56330.75
634.0635, 56374.18
634.5457, 56424.99
635.0278, 56447.17
635.5099, 56415.55
635.9920, 56379.60
636.4741, 56350.24
636.9562, 56326.68
637.4384, 56325.14
637.9205, 56350.13
638.4026, 56383.30
638.8847, 56412.89
639.3668, 56438.11
639.8489, 56457.52
640.3311, 56475.27
640.8132, 56467.76
641.2953, 56373.63
641.7774, 56234.18
642.2595, 56138.49
642.7416, 56143.69
643.2238, 56180.71
643.7059, 56220.12
644.1880, 56258.23
644.6701, 56283.73
645.1522, 56266.83
645.6343, 56260.77
646.1165, 56305.75
646.5986, 56414.82
647.0807, 56443.71
647.5628, 56353.32
648.0449, 56241.37
648.5270, 56179.75
649.0092, 56172.33
649.4913, 56171.01
649.9734, 56171.73
650.4555, 56181.40
650.9376, 56220.18
651.4197, 56278.06
651.9019, 56318.61
652.3840, 56329.00
652.8661, 56316.38
653.3482, 56269.90
653.8303, 56202.32
654.3124, 56154.08
654.7946, 56139.36
655.2767, 56148.03
655.7588, 56181.95
656.2409, 56243.23
656.7230, 56292.16
657.2051, 56323.96
657.6872, 56345.44
658.1693, 56364.84
658.6514, 56390.16
659.1335, 56377.86
659.6157, 56320.90
660.0978, 56244.37
660.5799, 56179.31
661.0620, 56125.28
661.5441, 56073.35
662.0262, 56015.65
662.5084, 55970.95
662.9905, 55955.82
663.4726, 55971.43
663.9547, 56020.53
664.4368, 56174.43
664.9189, 56298.03
665.4011, 56290.98
665.8832, 56155.11
666.3653, 56058.88
666.8474, 56040.25
667.3295, 56054.44
667.8116, 56092.85
668.2938, 56172.33
668.7759, 56187.31
669.2580, 56117.30
669.7401, 56028.74
670.2222, 55998.83
670.7043, 56022.25
671.1865, 56039.36
671.6686, 56045.77
672.1507, 56031.73
672.6328, 55969.36
673.1149, 55877.85
673.5970, 55801.71
674.0792, 55761.77
674.5613, 55742.32
675.0434, 55746.13
675.5255, 55767.09
676.0076, 55773.79
676.4897, 55718.84
676.9719, 55685.54
677.4540, 55707.66
677.9361, 55790.55
678.4182, 55867.29
678.9003, 55945.60
679.3824, 55996.90
679.8646, 55980.78
680.3467, 55904.13
680.8288, 55858.32
681.3109, 55853.64
681.7930, 55871.03
682.2751, 55911.45
682.7573, 55955.65
683.2394, 55963.93
683.7215, 55904.78
684.2036, 55833.30
684.6857, 55774.00
685.1678, 55727.25
685.6500, 55691.10
686.1321, 55665.63
686.6142, 55654.11
687.0963, 55675.73
687.5784, 55721.79
688.0605, 55690.41
688.5427, 55542.15
689.0248, 55418.44
689.5069, 55426.91
689.9890, 55549.32
690.4711, 55567.88
690.9532, 55472.04
691.4354, 55363.54
691.9175, 55343.17
692.3996, 55370.06
692.8817, 55377.37
693.3638, 55345.11
693.8459, 55312.57
694.3281, 55304.10
694.8102, 55308.51
695.2923, 55311.07
695.7744, 55283.88
696.2565, 55289.31
696.7386, 55362.78
697.2208, 55467.93
697.7029, 55502.93
698.1850, 55448.79
698.6671, 55392.52
699.1492, 55370.56
699.6313, 55368.09
700.1135, 55321.95
700.5956, 55235.05
701.0777, 55164.87
701.5598, 55147.29
702.0419, 55169.09
702.5240, 55230.61
703.0062, 55333.11
703.4883, 55408.08
703.9704, 55381.32
704.4525, 55338.65
704.9346, 55351.08
705.4167, 55506.23
705.8989, 55576.00
706.3810, 55516.89
706.8631, 55410.20
707.3452, 55359.21
707.8273, 55375.71
708.3094, 55368.13
708.7916, 55312.22
709.2737, 55239.27
709.7558, 55202.16
710.2379, 55197.71
710.7200, 55209.25
711.2021, 55234.02
711.6843, 55267.73
712.1664, 55308.23
712.6485, 55354.04
713.1306, 55400.19
713.6127, 55489.66
714.0948, 55536.39
714.5770, 55464.00
715.0591, 55259.12
715.5412, 55171.35
716.0233, 55255.08
716.5054, 55359.41
716.9875, 55387.02
717.4697, 55338.15
717.9518, 55255.37
718.4339, 55132.72
718.9160, 55032.98
719.3981, 55068.88
719.8802, 55170.31
720.3624, 55189.26
720.8445, 55051.55
721.3266, 54925.65
721.8087, 54949.26
722.2908, 55041.83
722.7729, 55086.30
723.2551, 55005.82
723.7372, 54938.38
724.2193, 54909.46
724.7014, 54903.84
725.1835, 54874.81
725.6656, 54808.51
726.1478, 54772.92
726.6299, 54812.93
727.1120, 54890.08
727.5941, 54874.82
728.0762, 54775.85
728.5583, 54685.16
729.0405, 54666.02
729.5226, 54682.77
730.0047, 54721.59
730.4868, 54781.69
730.9689, 54788.20
731.4510, 54676.08
731.9332, 54530.87
732.4153, 54403.96
732.8974, 54290.52
733.3795, 54218.21
733.8616, 54198.45
734.3438, 54205.82
734.8259, 54220.54
735.3080, 54242.59
735.7901, 54260.41
736.2722, 54271.67
736.7543, 54279.21
737.2365, 54282.29
737.7186, 54283.63
738.2007, 54290.25
738.6828, 54313.97
739.1649, 54328.91
739.6470, 54313.24
740.1292, 54278.43
740.6113, 54251.34
741.0934, 54227.46
741.5755, 54225.09
742.0576, 54262.12
742.5397, 54323.49
743.0219, 54338.56
743.5040, 54302.31
743.9861, 54251.16
744.4682, 54188.17
744.9503, 54126.89
745.4324, 54109.29
745.9146, 54132.18
746.3967, 54165.45
746.8788, 54203.65
747.3609, 54232.62
747.8430, 54236.45
748.3251, 54210.12
748.8073, 54184.51
749.2894, 54156.53
749.7715, 54139.47
750.2536, 54145.95
750.7357, 54193.29
751.2178, 54208.77
751.7000, 54186.50
752.1821, 54147.69
752.6642, 54108.68
753.1463, 54072.66
753.6284, 54062.45
754.1105, 54093.50
754.5927, 54113.57
755.0748, 54057.80
755.5569, 53959.59
756.0390, 53870.36
756.5211, 53785.29
757.0032, 53739.62
757.4854, 53779.40
757.9675, 53862.39
758.4496, 53889.68
758.9317, 53834.72
759.4138, 53784.43
759.8959, 53760.75
760.3781, 53755.81
760.8602, 53746.11
761.3423, 53732.27
761.8244, 53716.02
762.3065, 53686.38
762.7886, 53662.06
763.2708, 53676.94
763.7529, 53723.79
764.2350, 53756.84
764.7171, 53739.32
765.1992, 53713.88
765.6813, 53695.29
766.1635, 53681.66
766.6456, 53706.04
767.1277, 53797.48
767.6098, 53877.54
768.0919, 53893.17
768.5740, 53845.00
769.0562, 53779.93
769.5383, 53694.75
770.0204, 53629.17
770.5025, 53632.07
770.9846, 53675.62
771.4667, 53717.87
771.9489, 53754.09
772.4310, 53781.85
772.9131, 53813.43
773.3952, 53829.36
773.8773, 53808.96
774.3594, 53728.57
774.8416, 53644.08
775.3237, 53544.21
775.8058, 53454.43
776.2879, 53416.86
776.7700, 53432.47
777.2521, 53433.59
777.7343, 53402.63
778.2164, 53361.79
778.6985, 53333.45
779.1806, 53320.08
779.6627, 53325.74
780.1448, 53382.57
780.6270, 53427.59
781.1091, 53428.44
781.5912, 53394.91
782.0733, 53354.80
782.5554, 53293.82
783.0375, 53250.36
783.5197, 53239.33
784.0018, 53248.76
784.4839, 53224.88
784.9660, 53165.02
785.4481, 53135.97
785.9302, 53203.20
786.4124, 53306.50
786.8945, 53349.80
787.3766, 53339.31
787.8587, 53300.78
788.3408, 53219.31
788.8229, 53140.20
789.3051, 53095.70
789.7872, 53091.32
790.2693, 53073.27
790.7514, 53041.58
791.2335, 52997.53
791.7156, 52920.05
792.1978, 52811.23
792.6799, 52840.65
793.1620, 53018.95
793.6441, 53174.45
794.1262, 53108.59
794.6083, 52947.75
795.0905, 52884.79
795.5726, 52948.18
796.0547, 53023.55
796.5368, 53076.48
797.0189, 53102.76
797.5010, 53092.92
797.9832, 53024.46
798.4653, 52975.22
798.9474, 52946.70
799.4295, 52933.92
799.9116, 52946.50
800.3937, 52980.21
800.8759, 52962.74
801.3580, 52876.54
801.8401, 52783.54
802.3222, 52749.64
802.8043, 52753.38
803.2864, 52764.05
803.7686, 52783.30
804.2507, 52792.43
804.7328, 52787.54
805.2149, 52768.07
805.6970, 52731.13
806.1791, 52661.03
806.6613, 52612.51
807.1434, 52594.26
807.6255, 52594.51
808.1076, 52599.28
808.5897, 52605.61
809.0718, 52598.60
809.5540, 52564.02
810.0361, 52527.81
810.5182, 52523.51
811.0003, 52534.55
811.4824, 52529.20
811.9645, 52477.39
812.4467, 52432.33
812.9288, 52424.52
813.4109, 52430.80
813.8930, 52381.23
814.3751, 52252.69
814.8572, 52172.32
815.3394, 52201.87
815.8215, 52279.92
816.3036, 52252.18
816.7857, 52141.54
817.2678, 52054.36
817.7499, 52071.25
818.2321, 52105.32
818.7142, 52090.74
819.1963, 52038.78
819.6784, 52006.09
820.1605, 52020.07
820.6426, 52033.67
821.1248, 52033.63
821.6068, 52021.80
822.0889, 52009.02
822.5710, 51993.73
823.0532, 51988.42
823.5353, 52006.17
824.0174, 52034.71
824.4995, 52056.19
824.9816, 52069.35
825.4637, 52070.68
825.9459, 52040.00
826.4280, 52013.45
826.9101, 52021.79
827.3922, 52068.18
827.8743, 52076.61
828.3564, 52026.03
828.8386, 51976.71
829.3207, 51959.61
829.8028, 51969.69
830.2849, 51962.49
830.7670, 51938.43
831.2491, 51922.67
831.7313, 51946.97
832.2134, 51981.56
832.6955, 51991.18
833.1776, 51973.77
833.6597, 51957.14
834.1418, 51930.62
834.6240, 51926.85
835.1061, 51976.36
835.5882, 52092.47
836.0703, 52118.50
836.5524, 52030.12
837.0345, 51946.59
837.5167, 51964.27
837.9988, 52055.46
838.4809, 52149.59
838.9630, 52242.65
839.4451, 52308.45
839.9272, 52293.18
840.4094, 52267.40
840.8915, 52287.66
841.3736, 52368.26
841.8557, 52460.45
842.3378, 52573.41
842.8199, 52677.76
843.3021, 52749.69
843.7842, 52787.25
844.2663, 52840.00
844.7484, 52911.23
845.2305, 52960.35
845.7126, 52935.23
846.1948, 52872.93
846.6769, 52825.17
847.1590, 52800.56
847.6411, 52774.32
848.1232, 52760.58
848.6053, 52723.63
849.0875, 52631.84
849.5696, 52462.21
850.0517, 52342.57
850.5338, 52291.09
851.0159, 52243.18
851.4980, 52128.18
851.9802, 51970.00
852.4623, 51845.29
852.9444, 51762.29
853.4265, 51696.91
853.9086, 51646.79
854.3907, 51595.93
854.8729, 51523.20
855.3550, 51404.21
855.8371, 51330.48
856.3192, 51323.29
856.8013, 51337.54
857.2834, 51349.07
857.7656, 51358.31
858.2477, 51315.24
858.7298, 51211.55
859.2119, 51107.51
859.6940, 51064.48
860.1761, 51054.91
860.6583, 51047.42
861.1404, 51041.26
861.6225, 51017.56
862.1046, 50965.87
862.5867, 50896.06
863.0688, 50810.98
863.5510, 50691.28
864.0331, 50630.11
864.5152, 50636.97
864.9973, 50666.70
865.4794, 50694.67
865.9615, 50710.07
866.4437, 50674.50
866.9258, 50579.76
867.4079, 50486.89
867.8900, 50423.72
868.3721, 50387.32
868.8542, 50381.00
869.3364, 50425.39
869.8185, 50445.67
870.3006, 50453.14
870.7827, 50421.00
871.2648, 50293.90
871.7469, 50089.18
872.2291, 50001.51
872.7112, 50047.53
873.1933, 50112.35
873.6754, 50087.13
874.1575, 50033.37
874.6396, 50021.13
875.1218, 50070.12
875.6039, 50101.22
876.0860, 50074.68
876.5681, 50041.80
877.0502, 50027.60
877.5323, 50031.52
878.0145, 50053.66
878.4966, 50094.91
878.9787, 50142.74
879.4608, 50205.09
879.9429, 50259.41
880.4250, 50258.15
880.9072, 50195.88
881.3893, 50137.13
881.8714, 50114.43
882.3535, 50105.42
882.8356, 50096.73
883.3177, 50087.25
883.7999, 50087.80
884.2820, 50105.46
884.7641, 50111.63
885.2462, 50076.68
885.7283, 50015.59
886.2104, 49968.25
886.6926, 49936.16
887.1747, 49923.75
887.6568, 49963.59
888.1389, 50000.80
888.6210, 49988.18
889.1031, 49916.93
889.5853, 49882.14
890.0674, 49917.15
890.5495, 49931.89
891.0316, 49860.64
891.5137, 49727.44
891.9958, 49694.94
892.4780, 49758.03
892.9601, 49832.45
893.4422, 49877.32
893.9243, 49897.26
894.4064, 49881.99
894.8885, 49836.19
895.3707, 49810.13
895.8528, 49808.72
896.3349, 49836.30
896.8170, 49914.46
897.2991, 50022.65
897.7813, 50031.19
898.2634, 49939.27
898.7455, 49857.45
899.2276, 49871.19
899.7097, 49912.52
900.1918, 49889.45
900.6740, 49820.10
901.1561, 49771.01
901.6382, 49832.25
902.1203, 49841.42
902.6024, 49717.13
903.0845, 49511.20
903.5667, 49421.34
904.0488, 49460.30
904.5309, 49504.95
905.0130, 49507.15
905.4951, 49495.46
905.9772, 49533.57
906.4594, 49594.45
906.9415, 49608.70
907.4236, 49498.74
907.9057, 49389.39
908.3878, 49324.37
908.8699, 49287.51
909.3521, 49245.98
909.8342, 49192.90
910.3163, 49166.23
910.7984, 49185.05
911.2805, 49213.41
911.7626, 49178.72
912.2448, 49107.61
912.7269, 49065.65
913.2090, 49103.43
913.6911, 49129.26
914.1732, 49083.91
914.6553, 49007.61
915.1375, 48955.79
915.6196, 48932.99
916.1017, 48928.95
916.5838, 48949.79
917.0659, 48970.51
917.5480, 48946.63
918.0302, 48894.79
918.5123, 48871.38
918.9944, 48896.46
919.4765, 48909.94
919.9586, 48842.22
920.4407, 48762.29
920.9229, 48744.40
921.4050, 48839.92
921.8871, 48871.71
922.3692, 48821.68
922.8513, 48748.09
923.3334, 48710.11
923.8156, 48695.22
924.2977, 48645.30
924.7798, 48555.04
925.2619, 48478.71
925.7440, 48464.32
926.2261, 48473.99
926.7083, 48481.40
927.1904, 48484.00
927.6725, 48486.66
928.1546, 48499.95
928.6367, 48493.32
929.1188, 48434.67
929.6010, 48339.81
930.0831, 48298.64
930.5652, 48307.14
931.0473, 48310.86
931.5294, 48256.31
932.0115, 48200.11
932.4937, 48191.12
932.9758, 48225.11
933.4579, 48237.96
933.9400, 48202.37
934.4221, 48190.89
934.9042, 48248.86
935.3864, 48331.46
935.8685, 48267.22
936.3506, 48083.68
936.8327, 47947.67
937.3148, 47963.83
937.7969, 48034.12
938.2791, 48122.52
938.7612, 48209.16
939.2433, 48245.35
939.7254, 48194.35
940.2075, 48148.79
940.6896, 48123.32
941.1718, 48107.83
941.6539, 48082.55
942.1360, 48050.25
942.6181, 48023.70
943.1002, 48008.84
943.5823, 47994.75
944.0645, 47975.01
944.5466, 47949.50
945.0287, 47916.77
945.5108, 47851.23
945.9929, 47824.91
946.4750, 47854.15
946.9572, 47893.55
947.4393, 47896.61
947.9214, 47867.69
948.4035, 47823.05
948.8856, 47761.78
949.3677, 47718.47
949.8499, 47735.76
950.3320, 47770.63
950.8141, 47790.32
951.2962, 47790.92
951.7783, 47772.48
952.2604, 47731.45
952.7426, 47679.61
953.2247, 47616.34
953.7068, 47547.73
954.1889, 47506.37
954.6710, 47489.81
955.1531, 47477.38
955.6353, 47449.77
956.1174, 47427.14
956.5995, 47428.82
957.0816, 47450.61
957.5637, 47461.18
958.0458, 47461.03
958.5280, 47446.05
959.0101, 47410.75
959.4922, 47364.95
959.9743, 47330.96
960.4564, 47307.73
960.9385, 47290.84
961.4207, 47296.83
961.9028, 47285.25
962.3849, 47213.83
962.8670, 47116.30
963.3491, 47048.50
963.8312, 47000.04
964.3134, 47024.57
964.7955, 47156.55
965.2776, 47288.82
965.7597, 47240.87
966.2418, 47083.55
966.7239, 47006.83
967.2061, 47062.62
967.6882, 47109.42
968.1703, 47036.30
968.6524, 46946.31
969.1345, 46930.79
969.6166, 47012.65
970.0988, 47042.87
970.5809, 47012.91
971.0630, 46967.55
971.5451, 46934.34
972.0272, 46911.81
972.5093, 46905.64
972.9915, 46912.16
973.4736, 46896.59
973.9557, 46808.22
974.4378, 46730.64
974.9199, 46709.81
975.4020, 46732.73
975.8842, 46739.79
976.3663, 46731.59
976.8484, 46709.49
977.3305, 46670.61
977.8126, 46623.97
978.2947, 46579.47
978.7769, 46537.23
979.2590, 46498.99
979.7411, 46455.63
980.2232, 46427.75
980.7053, 46416.54
981.1874, 46422.00
981.6696, 46453.05
982.1517, 46510.05
982.6338, 46537.90
983.1159, 46523.88
983.5980, 46502.58
984.0801, 46514.46
984.5623, 46534.69
985.0444, 46532.91
985.5265, 46496.71
986.0085, 46466.67
986.4907, 46456.91
986.9728, 46442.17
987.4549, 46404.31
987.9370, 46346.59
988.4191, 46296.36
988.9012, 46254.63
989.3834, 46223.45
989.8655, 46227.56
990.3476, 46223.76
990.8297, 46164.23
991.3118, 46061.54
991.7939, 45999.92
992.2761, 46001.65
992.7582, 46006.32
993.2403, 46001.47
993.7224, 45987.12
994.2045, 45956.08
994.6866, 45914.96
995.1688, 45885.82
995.6509, 45880.32
996.1330, 45881.54
996.6151, 45879.69
997.0972, 45880.28
997.5793, 45890.49
998.0615, 45913.54
998.5436, 45933.80
999.0257, 45951.09
999.5078, 45959.60
999.9899, 45941.25
1000.472, 45913.32
1000.954, 45907.29
1001.436, 45926.20
1001.918, 45951.57
1002.401, 46005.16
1002.883, 46030.69
1003.365, 45994.64
1003.847, 45904.79
1004.329, 45834.85
1004.811, 45784.98
1005.293, 45751.59
1005.775, 45745.52
1006.257, 45744.63
1006.740, 45710.90
1007.222, 45665.31
1007.704, 45656.53
1008.186, 45761.27
1008.668, 45818.06
1009.150, 45804.04
1009.632, 45742.36
1010.114, 45652.41
1010.596, 45540.96
1011.079, 45450.87
1011.561, 45389.98
1012.043, 45344.96
1012.525, 45302.77
1013.007, 45273.64
1013.489, 45269.52
1013.971, 45293.75
1014.453, 45330.27
1014.936, 45391.54
1015.418, 45424.44
1015.900, 45368.33
1016.382, 45267.08
1016.864, 45237.49
1017.346, 45263.26
1017.828, 45255.18
1018.310, 45106.70
1018.792, 44990.11
1019.275, 44999.05
1019.757, 45075.82
1020.239, 45071.00
1020.721, 44979.40
1021.203, 44924.13
1021.685, 44944.34
1022.167, 44983.54
1022.649, 44987.83
1023.132, 44966.40
1023.614, 44930.11
1024.096, 44870.58
1024.578, 44819.81
1025.060, 44770.21
1025.542, 44744.91
1026.024, 44773.68
1026.506, 44846.36
1026.989, 44902.32
1027.471, 44939.30
1027.953, 44952.53
1028.435, 44935.68
1028.917, 44895.77
1029.399, 44815.40
1029.881, 44709.54
1030.363, 44662.34
1030.845, 44688.83
1031.328, 44716.53
1031.810, 44727.47
1032.292, 44725.04
1032.774, 44713.18
1033.256, 44692.57
1033.738, 44662.79
1034.220, 44610.54
1034.702, 44576.16
1035.184, 44591.73
1035.667, 44607.84
1036.149, 44572.80
1036.631, 44486.31
1037.113, 44457.33
1037.595, 44490.32
1038.077, 44526.13
1038.559, 44511.35
1039.041, 44485.04
1039.524, 44492.43
1040.006, 44528.87
1040.488, 44508.50
1040.970, 44399.53
1041.452, 44301.63
1041.934, 44242.99
1042.416, 44215.99
1042.898, 44220.29
1043.380, 44241.94
1043.863, 44243.17
1044.345, 44206.68
1044.827, 44156.69
1045.309, 44078.04
1045.791, 44008.16
1046.273, 43991.45
1046.755, 44037.20
1047.237, 44033.83
1047.719, 43974.39
1048.202, 43914.13
1048.684, 43910.87
1049.166, 43921.62
1049.648, 43901.21
1050.130, 43849.27
1050.612, 43796.07
1051.094, 43727.13
1051.576, 43697.51
1052.059, 43745.21
1052.541, 43817.04
1053.023, 43764.28
1053.505, 43627.95
1053.987, 43540.88
1054.469, 43570.09
1054.951, 43608.73
1055.433, 43605.98
1055.916, 43589.41
1056.398, 43586.94
1056.880, 43601.79
1057.362, 43608.28
1057.844, 43605.01
1058.326, 43601.64
1058.808, 43607.19
1059.290, 43615.48
1059.772, 43621.35
1060.255, 43623.91
1060.737, 43619.25
1061.219, 43597.35
1061.701, 43587.34
1062.183, 43606.33
1062.665, 43628.31
1063.147, 43586.02
1063.629, 43498.61
1064.111, 43428.64
1064.594, 43394.58
1065.076, 43377.02
1065.558, 43386.30
1066.040, 43393.89
1066.522, 43375.98
1067.004, 43330.36
1067.486, 43267.65
1067.968, 43184.81
1068.450, 43125.66
1068.933, 43162.24
1069.415, 43209.07
1069.897, 43150.21
1070.379, 43014.55
1070.861, 42946.25
1071.343, 43013.04
1071.825, 43062.50
1072.307, 43066.51
1072.790, 43042.61
1073.272, 43006.86
1073.754, 42967.70
1074.236, 42951.47
1074.718, 42967.41
1075.200, 42987.68
1075.682, 42984.85
1076.164, 42994.77
1076.646, 43056.29
1077.129, 43168.54
1077.611, 43163.89
1078.093, 43041.52
1078.575, 42939.75
1079.057, 42990.92
1079.539, 43058.11
1080.021, 42997.13
1080.503, 42860.13
1080.985, 42792.39
1081.468, 42846.57
1081.950, 42876.01
1082.432, 42866.86
1082.914, 42825.36
1083.396, 42726.69
1083.878, 42611.68
1084.360, 42572.50
1084.842, 42627.61
1085.325, 42669.43
1085.807, 42652.41
1086.289, 42616.88
1086.771, 42578.67
1087.253, 42535.98
1087.735, 42470.33
1088.217, 42387.01
1088.699, 42333.04
1089.182, 42348.83
1089.664, 42371.18
1090.146, 42356.86
1090.628, 42322.80
1091.110, 42295.00
1091.592, 42280.82
1092.074, 42243.00
1092.556, 42173.52
1093.038, 42119.16
1093.521, 42154.04
1094.003, 42211.02
1094.485, 42183.38
1094.967, 42077.69
1095.449, 42023.31
1095.931, 42078.02
1096.413, 42142.86
1096.895, 42207.41
1097.377, 42252.88
1097.860, 42218.69
1098.342, 42129.78
1098.824, 42065.07
1099.306, 42044.52
1099.788, 42050.70
1100.270, 42109.14
1100.752, 42162.20
1101.234, 42164.49
1101.717, 42114.60
1102.199, 42074.11
1102.681, 42042.83
1103.163, 42016.93
1103.645, 42008.11
1104.127, 41991.61
1104.609, 41932.28
1105.091, 41851.89
1105.573, 41809.61
1106.056, 41825.26
1106.538, 41826.49
1107.020, 41800.89
1107.502, 41774.66
1107.984, 41778.39
1108.466, 41802.44
1108.948, 41837.62
1109.430, 41883.61
1109.912, 41913.40
1110.395, 41931.68
1110.877, 41912.07
1111.359, 41827.73
1111.841, 41708.43
1112.323, 41647.29
1112.805, 41634.07
1113.287, 41638.60
1113.769, 41675.32
1114.252, 41679.87
1114.734, 41576.62
1115.216, 41463.21
1115.698, 41435.21
1116.180, 41500.93
1116.662, 41554.70
1117.144, 41596.27
1117.626, 41614.89
1118.109, 41597.34
1118.591, 41560.02
1119.073, 41508.13
1119.555, 41447.56
1120.037, 41397.81
1120.519, 41366.55
1121.001, 41315.30
1121.483, 41230.23
1121.965, 41148.28
1122.448, 41109.55
1122.930, 41107.58
1123.412, 41148.88
1123.894, 41245.24
1124.376, 41282.16
1124.858, 41214.43
1125.340, 41148.14
1125.822, 41128.28
1126.304, 41141.48
1126.787, 41166.80
1127.269, 41194.25
1127.751, 41192.66
1128.233, 41127.96
1128.715, 41067.39
1129.197, 41020.12
1129.679, 40995.11
1130.161, 41015.20
1130.644, 41075.81
1131.126, 41087.17
1131.608, 41048.55
1132.090, 41002.20
1132.572, 40960.18
1133.054, 40933.84
1133.536, 40949.97
1134.018, 40983.36
1134.500, 40962.48
1134.983, 40878.63
1135.465, 40818.13
1135.947, 40800.04
1136.429, 40787.43
1136.911, 40729.45
1137.393, 40665.59
1137.875, 40651.68
1138.357, 40705.54
1138.839, 40683.85
1139.322, 40563.96
1139.804, 40448.98
1140.286, 40383.43
1140.768, 40347.90
1141.250, 40307.60
1141.732, 40272.54
1142.214, 40262.24
1142.696, 40306.56
1143.179, 40333.16
1143.661, 40330.69
1144.143, 40320.86
1144.625, 40329.95
1145.107, 40344.03
1145.589, 40306.13
1146.071, 40225.00
1146.553, 40159.88
1147.036, 40145.66
1147.518, 40141.10
1148.000, 40135.65
1148.482, 40128.75
1148.964, 40118.00
1149.446, 40104.50
1149.928, 40101.54
1150.410, 40112.59
1150.892, 40112.46
1151.375, 40075.55
1151.857, 40031.14
1152.339, 39996.21
1152.821, 39971.21
1153.303, 39956.71
1153.785, 39952.99
1154.267, 39945.97
1154.749, 39933.80
1155.231, 39910.71
1155.714, 39856.04
1156.196, 39796.19
1156.678, 39759.42
1157.160, 39743.41
1157.642, 39774.72
1158.124, 39863.43
1158.606, 39919.15
1159.088, 39854.27
1159.571, 39748.30
1160.053, 39693.67
1160.535, 39669.77
1161.017, 39622.82
1161.499, 39515.96
1161.981, 39458.96
1162.463, 39472.03
1162.945, 39497.08
1163.427, 39468.36
1163.910, 39414.31
1164.392, 39379.91
1164.874, 39366.41
1165.356, 39345.92
1165.838, 39288.32
1166.320, 39267.95
1166.802, 39320.25
1167.284, 39385.57
1167.766, 39339.16
1168.249, 39228.75
1168.731, 39169.48
1169.213, 39194.50
1169.695, 39202.16
1170.177, 39126.54
1170.659, 39066.54
1171.141, 39077.98
1171.623, 39131.67
1172.106, 39106.10
1172.588, 39027.22
1173.070, 38998.62
1173.552, 39112.09
1174.034, 39192.43
1174.516, 39139.09
1174.998, 39049.46
1175.480, 38992.61
1175.963, 38967.44
1176.445, 38942.92
1176.927, 38918.31
1177.409, 38885.52
1177.891, 38817.94
1178.373, 38765.54
1178.855, 38764.25
1179.337, 38789.27
1179.819, 38804.09
1180.302, 38808.66
1180.784, 38838.24
1181.266, 38900.92
1181.748, 38917.48
1182.230, 38767.61
1182.712, 38602.62
1183.194, 38539.13
1183.676, 38558.24
1184.158, 38576.08
1184.641, 38592.74
1185.123, 38608.38
1185.605, 38625.52
1186.087, 38628.23
1186.569, 38575.85
1187.051, 38516.79
1187.533, 38501.46
1188.015, 38533.77
1188.498, 38582.21
1188.980, 38651.49
1189.462, 38690.95
1189.944, 38669.95
1190.426, 38623.79
1190.908, 38593.56
1191.390, 38565.90
1191.872, 38517.65
1192.354, 38430.04
1192.837, 38377.72
1193.319, 38367.73
1193.801, 38361.61
1194.283, 38330.27
1194.765, 38290.50
1195.247, 38269.49
1195.729, 38258.44
1196.211, 38234.32
1196.693, 38201.22
1197.176, 38131.52
1197.658, 38010.14
1198.140, 37896.70
1198.622, 37846.46
1199.104, 37844.02
1199.586, 37881.48
1200.068, 37950.28
1200.550, 38002.41
1201.033, 38044.50
1201.515, 38032.71
1201.997, 37942.67
1202.479, 37835.17
1202.961, 37798.27
1203.443, 37803.93
1203.925, 37815.69
1204.407, 37830.47
1204.890, 37805.40
1205.372, 37694.10
1205.854, 37627.40
1206.336, 37663.38
1206.818, 37745.50
1207.300, 37769.71
1207.782, 37751.21
1208.264, 37715.75
1208.746, 37661.58
1209.229, 37616.15
1209.711, 37586.63
1210.193, 37557.66
1210.675, 37518.61
1211.157, 37475.95
1211.639, 37443.05
1212.121, 37418.97
1212.603, 37400.63
1213.085, 37388.08
1213.568, 37380.67
1214.050, 37377.71
1214.532, 37381.26
1215.014, 37415.42
1215.496, 37452.74
1215.978, 37379.56
1216.460, 37226.70
1216.942, 37120.73
1217.425, 37157.95
1217.907, 37186.47
1218.389, 37178.54
1218.871, 37156.26
1219.353, 37139.52
1219.835, 37129.77
1220.317, 37144.13
1220.799, 37177.91
1221.281, 37178.91
1221.764, 37076.55
1222.246, 37008.70
1222.728, 37023.47
1223.210, 37063.29
1223.692, 37028.49
1224.174, 36943.63
1224.656, 36864.44
1225.138, 36798.33
1225.620, 36770.12
1226.103, 36845.84
1226.585, 36886.32
1227.067, 36834.95
1227.549, 36740.51
1228.031, 36715.55
1228.513, 36736.78
1228.995, 36741.91
1229.477, 36714.12
1229.960, 36685.05
1230.442, 36675.28
1230.924, 36650.15
1231.406, 36583.68
1231.888, 36500.34
1232.370, 36485.79
1232.852, 36512.07
1233.334, 36492.15
1233.816, 36343.27
1234.299, 36283.89
1234.781, 36412.57
1235.263, 36546.66
1235.745, 36554.92
1236.227, 36481.07
1236.709, 36452.80
1237.191, 36463.06
1237.673, 36490.47
1238.156, 36573.95
1238.638, 36597.27
1239.120, 36525.43
1239.602, 36432.92
1240.084, 36397.08
1240.566, 36390.72
1241.048, 36327.16
1241.530, 36221.91
1242.012, 36147.41
1242.495, 36145.94
1242.977, 36165.14
1243.459, 36208.62
1243.941, 36247.66
1244.423, 36244.49
1244.905, 36213.91
1245.387, 36181.88
1245.869, 36152.30
1246.351, 36136.64
1246.834, 36157.81
1247.316, 36166.01
1247.798, 36155.52
1248.280, 36124.21
1248.762, 36040.03
1249.244, 35943.95
1249.726, 35925.08
1250.208, 35990.39
1250.691, 36029.84
1251.173, 36019.64
1251.655, 35985.31
1252.137, 35920.84
1252.619, 35859.48
1253.101, 35880.04
1253.583, 35927.09
1254.065, 35892.07
1254.547, 35744.92
1255.030, 35693.52
1255.512, 35793.23
1255.994, 35872.85
1256.476, 35867.80
1256.958, 35821.72
1257.440, 35796.30
1257.922, 35776.73
1258.404, 35737.19
1258.886, 35664.59
1259.369, 35607.04
1259.851, 35558.20
1260.333, 35556.32
1260.815, 35655.26
1261.297, 35754.74
1261.779, 35708.88
1262.261, 35581.61
1262.743, 35462.53
1263.226, 35356.79
1263.708, 35298.09
1264.190, 35294.40
1264.672, 35286.25
1265.154, 35223.19
1265.636, 35158.30
1266.118, 35154.64
1266.600, 35183.93
1267.083, 35198.21
1267.565, 35186.86
1268.047, 35201.55
1268.529, 35245.62
1269.011, 35265.20
1269.493, 35195.43
1269.975, 35114.83
1270.457, 35077.60
1270.939, 35075.80
1271.422, 35095.10
1271.904, 35141.63
1272.386, 35146.98
1272.868, 35108.68
1273.350, 35059.46
1273.832, 34993.03
1274.314, 34953.94
1274.796, 34999.02
1275.278, 35076.23
1275.761, 35110.23
1276.243, 35101.26
1276.725, 35037.26
1277.207, 34919.43
1277.689, 34830.85
1278.171, 34872.56
1278.653, 34898.39
1279.135, 34820.20
1279.618, 34703.85
1280.100, 34660.50
1280.582, 34676.90
1281.064, 34689.25
1281.546, 34690.48
1282.028, 34679.25
1282.510, 34629.95
1282.992, 34603.00
1283.474, 34630.18
1283.957, 34671.69
1284.439, 34644.23
1284.921, 34574.10
1285.403, 34536.71
1285.885, 34543.32
1286.367, 34549.62
1286.849, 34544.16
1287.331, 34530.60
1287.813, 34506.68
1288.296, 34480.23
1288.778, 34467.88
1289.260, 34461.83
1289.742, 34445.84
1290.224, 34416.05
1290.706, 34394.32
1291.188, 34375.46
1291.670, 34388.01
1292.153, 34460.16
1292.635, 34525.70
1293.117, 34449.62
1293.599, 34325.36
##END=



