##NAMES=Esperite
##RRUFFID=R060295
##IDEAL CHEMISTRY=Pb^2+^Ca_2_(Zn^2+^SiO_4_)_3_
##LOCALITY=Parker Shaft, Franklin, Sussex County, New Jersey, USA
##OWNER=RRUFF
##SOURCE=Michael Scott
##DESCRIPTION=Tan colored massive associated with black franklinite
##STATUS=The identification of this mineral is confirmed by single-crystal X-ray diffraction and chemical analysis.
##URL=rruff.info/R060295
##MEASURED CHEMISTRY=(Ca_1.98_Pb_0.02_)_Î£=2_Pb_1.00_Zn_3.00_(Si_1.00_O_4_)_3_
93.30109, 0.0000000E+00
93.78320, 1149.577
94.26532, 1128.295
94.74744, 1131.637
95.22955, 1156.974
95.71167, 1195.897
96.19379, 1230.524
96.67590, 1265.600
97.15802, 1291.182
97.64014, 1302.197
98.12225, 1303.788
98.60437, 1303.595
99.08649, 1301.892
99.56860, 1304.189
100.0507, 1318.614
100.5328, 1345.116
101.0150, 1372.312
101.4971, 1395.914
101.9792, 1416.942
102.4613, 1425.577
102.9434, 1408.885
103.4255, 1382.024
103.9077, 1355.784
104.3898, 1334.312
104.8719, 1311.830
105.3540, 1275.486
105.8361, 1215.983
106.3182, 1157.244
106.8004, 1097.896
107.2825, 1043.568
107.7646, 1001.276
108.2467, 975.9119
108.7288, 966.1867
109.2109, 956.1640
109.6931, 947.3301
110.1752, 936.6113
110.6573, 920.5370
111.1394, 901.2607
111.6215, 883.9299
112.1036, 872.8600
112.5858, 868.7179
113.0679, 870.2257
113.5500, 878.4612
114.0321, 890.8267
114.5142, 907.6349
114.9964, 928.8934
115.4785, 949.3708
115.9606, 964.1190
116.4427, 973.5963
116.9248, 974.0261
117.4069, 959.9473
117.8891, 936.4391
118.3712, 913.7462
118.8533, 894.3301
119.3354, 875.3799
119.8175, 853.4381
120.2996, 828.7637
120.7818, 805.2684
121.2639, 785.3128
121.7460, 768.9019
122.2281, 755.7928
122.7102, 747.1560
123.1923, 741.3984
123.6745, 738.4051
124.1566, 738.0364
124.6387, 739.5283
125.1208, 742.3126
125.6029, 748.3054
126.0850, 751.2795
126.5672, 752.0924
127.0493, 749.7418
127.5314, 743.4072
128.0135, 732.7410
128.4956, 718.1310
128.9777, 700.2410
129.4599, 673.6301
129.9420, 649.8298
130.4241, 628.6029
130.9062, 610.8007
131.3883, 598.0078
131.8704, 591.4429
132.3526, 590.1088
132.8347, 588.1235
133.3168, 585.7644
133.7989, 582.6871
134.2810, 578.0330
134.7632, 572.1777
135.2453, 567.0358
135.7274, 563.8789
136.2095, 562.5178
136.6916, 561.5965
137.1737, 561.1359
137.6559, 561.0355
138.1380, 561.3458
138.6201, 562.1876
139.1022, 562.8600
139.5843, 562.9025
140.0664, 562.4894
140.5486, 561.8504
141.0307, 561.7762
141.5128, 561.4523
141.9949, 558.3090
142.4770, 551.0333
142.9591, 542.5684
143.4413, 533.4643
143.9234, 524.3101
144.4055, 516.0102
144.8876, 509.1507
145.3697, 503.7378
145.8518, 499.8653
146.3340, 498.0441
146.8161, 497.4904
147.2982, 498.6571
147.7803, 501.0862
148.2624, 503.7221
148.7445, 505.5081
149.2267, 506.1446
149.7088, 507.0984
150.1909, 508.5770
150.6730, 510.1281
151.1551, 511.1872
151.6372, 511.8262
152.1194, 512.8712
152.6015, 515.3968
153.0836, 520.0365
153.5657, 524.7432
154.0478, 529.8531
154.5299, 534.8784
155.0121, 539.5276
155.4942, 543.7694
155.9763, 547.1661
156.4584, 548.9095
156.9405, 549.1744
157.4226, 548.0551
157.9048, 544.3118
158.3869, 539.2394
158.8690, 535.7565
159.3511, 535.1291
159.8332, 535.5433
160.3153, 534.5997
160.7975, 532.2607
161.2796, 530.0731
161.7617, 529.4963
162.2438, 530.3346
162.7259, 530.0173
163.2081, 526.9351
163.6902, 523.2477
164.1723, 520.4008
164.6544, 518.5233
165.1365, 517.4293
165.6186, 516.9295
166.1008, 517.0338
166.5829, 517.7404
167.0650, 519.2475
167.5471, 521.2135
168.0292, 523.5905
168.5113, 526.3337
168.9935, 529.1962
169.4756, 531.7509
169.9577, 533.8251
170.4398, 535.9216
170.9219, 537.4501
171.4040, 539.3239
171.8862, 542.5243
172.3683, 547.3707
172.8504, 553.1293
173.3325, 558.1146
173.8146, 561.8717
174.2967, 565.2021
174.7789, 568.2869
175.2610, 570.9169
175.7431, 572.5258
176.2252, 572.8060
176.7073, 572.4505
177.1894, 573.8187
177.6716, 578.8098
178.1537, 583.0030
178.6358, 585.6815
179.1179, 587.0026
179.6000, 587.1210
180.0821, 585.8661
180.5643, 583.7464
181.0464, 582.4332
181.5285, 582.7617
182.0106, 582.5494
182.4927, 581.1280
182.9748, 578.4305
183.4570, 574.0125
183.9391, 567.1038
184.4212, 558.5204
184.9033, 550.3718
185.3854, 542.7313
185.8675, 535.4504
186.3497, 528.2529
186.8318, 521.1194
187.3139, 514.7208
187.7960, 509.1460
188.2781, 504.6642
188.7602, 501.8986
189.2424, 501.4001
189.7245, 501.6588
190.2066, 500.7143
190.6887, 498.2914
191.1708, 495.6237
191.6530, 492.5598
192.1351, 489.7183
192.6172, 487.7707
193.0993, 487.0360
193.5814, 487.0060
194.0635, 486.5900
194.5457, 485.2377
195.0278, 484.6562
195.5099, 485.7054
195.9920, 487.3348
196.4741, 488.4716
196.9562, 488.6176
197.4384, 488.1735
197.9205, 488.3967
198.4026, 490.7889
198.8847, 491.6899
199.3668, 489.8219
199.8489, 486.6123
200.3311, 483.7812
200.8132, 482.2221
201.2953, 481.3819
201.7774, 479.0901
202.2595, 473.2002
202.7416, 468.1602
203.2238, 464.5179
203.7059, 461.9490
204.1880, 459.9511
204.6701, 458.2823
205.1522, 456.9490
205.6343, 456.0260
206.1165, 455.9054
206.5986, 455.6848
207.0807, 454.6359
207.5628, 453.3813
208.0449, 453.2393
208.5270, 455.0685
209.0092, 458.2694
209.4913, 460.3308
209.9734, 460.6599
210.4555, 460.8435
210.9376, 461.2732
211.4197, 461.9634
211.9019, 463.0143
212.3840, 464.5711
212.8661, 466.4358
213.3482, 468.1098
213.8303, 469.9419
214.3124, 471.0916
214.7946, 470.4885
215.2767, 468.5031
215.7588, 467.2260
216.2409, 467.9190
216.7230, 469.6629
217.2052, 470.6843
217.6873, 470.8267
218.1694, 470.5220
218.6515, 469.8924
219.1336, 468.9564
219.6157, 468.2544
220.0979, 467.9661
220.5800, 468.0671
221.0621, 468.5790
221.5442, 469.5839
222.0263, 470.6836
222.5084, 471.5180
222.9906, 472.0793
223.4727, 472.4960
223.9548, 472.8592
224.4369, 473.0374
224.9190, 472.8683
225.4011, 472.3085
225.8833, 471.5934
226.3654, 470.9865
226.8475, 470.5120
227.3296, 470.0355
227.8117, 469.6074
228.2938, 469.1153
228.7760, 468.3885
229.2581, 467.4110
229.7402, 466.4887
230.2223, 466.0609
230.7044, 466.2719
231.1865, 466.5269
231.6687, 466.9254
232.1508, 467.2376
232.6329, 467.1601
233.1150, 466.7036
233.5971, 466.3085
234.0792, 466.6750
234.5614, 468.2589
235.0435, 469.4883
235.5256, 470.3195
236.0077, 470.8605
236.4898, 471.0291
236.9719, 470.8813
237.4541, 470.6995
237.9362, 470.8946
238.4183, 471.6992
238.9004, 472.3172
239.3825, 472.8587
239.8646, 473.1710
240.3468, 473.1079
240.8289, 472.6733
241.3110, 471.9951
241.7931, 471.1476
242.2752, 469.8009
242.7573, 469.3743
243.2395, 469.9188
243.7216, 471.1763
244.2037, 473.4755
244.6858, 476.6054
245.1679, 479.4760
245.6501, 480.7700
246.1322, 479.8869
246.6143, 479.7994
247.0964, 481.5918
247.5785, 483.2838
248.0606, 483.1718
248.5428, 481.3169
249.0249, 479.4537
249.5070, 479.3856
249.9891, 481.5062
250.4712, 482.6148
250.9533, 482.4243
251.4355, 481.5325
251.9176, 480.1152
252.3997, 478.2703
252.8818, 476.3678
253.3639, 474.7007
253.8460, 473.2877
254.3282, 471.9887
254.8103, 471.1649
255.2924, 470.1722
255.7745, 468.4192
256.2566, 465.9640
256.7387, 463.5114
257.2209, 461.5658
257.7030, 460.0805
258.1851, 458.4952
258.6672, 456.2448
259.1493, 454.3527
259.6314, 453.8837
260.1136, 454.6732
260.5957, 455.1779
261.0778, 454.3382
261.5599, 452.5564
262.0420, 451.2508
262.5241, 450.5618
263.0063, 450.1930
263.4884, 450.0277
263.9705, 450.0454
264.4526, 450.0988
264.9347, 450.2461
265.4168, 450.2855
265.8990, 449.8555
266.3811, 448.7274
266.8632, 447.6135
267.3453, 447.1307
267.8274, 447.1925
268.3095, 446.9868
268.7917, 445.6195
269.2738, 444.4644
269.7559, 445.4455
270.2380, 448.9686
270.7201, 452.5765
271.2022, 454.6703
271.6844, 455.3812
272.1665, 455.5336
272.6486, 454.9865
273.1307, 454.2984
273.6128, 453.9134
274.0949, 453.8335
274.5771, 454.1604
275.0592, 455.0172
275.5413, 456.3637
276.0234, 458.0193
276.5055, 460.2880
276.9876, 462.4165
277.4698, 464.0389
277.9519, 465.1268
278.4340, 465.5670
278.9161, 465.0033
279.3982, 463.6574
279.8803, 462.5607
280.3625, 462.0256
280.8446, 461.3300
281.3267, 459.9976
281.8088, 458.2015
282.2909, 456.3150
282.7730, 454.3780
283.2552, 452.5151
283.7373, 451.2466
284.2194, 450.9789
284.7015, 450.5372
285.1836, 449.0733
285.6658, 447.1513
286.1479, 445.6148
286.6300, 444.9081
287.1121, 444.7643
287.5942, 444.5936
288.0764, 444.3350
288.5585, 444.2015
289.0406, 444.4124
289.5227, 444.7222
290.0048, 444.7944
290.4869, 444.4383
290.9691, 444.0657
291.4512, 444.5265
291.9333, 446.2015
292.4154, 447.4986
292.8975, 447.8847
293.3796, 447.8168
293.8618, 447.4092
294.3439, 446.6963
294.8260, 446.1754
295.3081, 446.8074
295.7902, 449.0482
296.2723, 450.2650
296.7545, 449.5313
297.2366, 447.9542
297.7187, 445.7603
298.2008, 443.1181
298.6829, 440.5776
299.1650, 438.9433
299.6472, 438.3737
300.1293, 437.1345
300.6114, 434.4797
301.0935, 431.6807
301.5756, 429.1638
302.0577, 426.9788
302.5399, 425.0587
303.0220, 423.3872
303.5041, 421.9630
303.9862, 420.6751
304.4683, 419.4303
304.9504, 418.4724
305.4326, 418.0485
305.9147, 417.9474
306.3968, 417.7218
306.8789, 416.9570
307.3610, 415.9473
307.8431, 416.0878
308.3253, 418.3935
308.8074, 420.2748
309.2895, 421.0014
309.7716, 420.9770
310.2537, 420.4919
310.7358, 419.5807
311.2180, 418.7163
311.7001, 419.0840
312.1822, 421.3864
312.6643, 423.3831
313.1464, 424.8714
313.6285, 425.7974
314.1107, 425.7241
314.5928, 424.5999
315.0749, 423.5447
315.5570, 424.3888
316.0391, 427.7897
316.5212, 430.6834
317.0034, 432.1893
317.4855, 433.5609
317.9676, 435.4847
318.4497, 437.9989
318.9318, 440.6920
319.4139, 443.0258
319.8961, 444.8924
320.3782, 447.4493
320.8603, 451.6418
321.3424, 455.6567
321.8245, 458.7748
322.3066, 461.1478
322.7888, 463.2782
323.2709, 465.4450
323.7530, 467.6619
324.2351, 469.9265
324.7172, 472.0085
325.1993, 474.5127
325.6815, 477.6971
326.1636, 481.3524
326.6457, 485.2308
327.1278, 489.2035
327.6099, 493.2963
328.0920, 497.8446
328.5742, 503.7615
329.0563, 508.0648
329.5384, 508.4780
330.0205, 508.0564
330.5026, 509.6791
330.9847, 514.1693
331.4669, 519.5861
331.9490, 523.1773
332.4311, 524.5220
332.9132, 525.8925
333.3953, 528.2770
333.8774, 530.2734
334.3596, 530.8685
334.8417, 530.1227
335.3238, 529.0214
335.8059, 528.7438
336.2880, 529.3204
336.7701, 528.6342
337.2523, 525.8767
337.7344, 522.6063
338.2165, 519.6888
338.6986, 516.8593
339.1807, 513.4022
339.6628, 508.7642
340.1450, 503.1916
340.6271, 497.4315
341.1092, 490.9992
341.5913, 485.3868
342.0735, 481.1842
342.5556, 477.9903
343.0377, 475.5417
343.5198, 473.9463
344.0019, 472.4286
344.4840, 469.3430
344.9662, 464.0194
345.4483, 459.9845
345.9304, 459.5376
346.4125, 460.1049
346.8946, 459.8403
347.3767, 458.4516
347.8589, 457.2108
348.3410, 457.4543
348.8231, 459.1469
349.3052, 460.8235
349.7873, 462.0338
350.2694, 463.5128
350.7516, 465.8106
351.2337, 468.8055
351.7158, 471.9165
352.1979, 475.0332
352.6800, 478.0289
353.1621, 480.2917
353.6443, 481.3661
354.1264, 482.7350
354.6085, 485.5774
355.0906, 489.2209
355.5727, 492.6134
356.0548, 495.2760
356.5370, 497.7090
357.0191, 500.7051
357.5012, 504.3254
357.9833, 507.6855
358.4654, 510.5575
358.9475, 512.8432
359.4297, 514.1619
359.9118, 514.2022
360.3939, 514.6223
360.8760, 516.7301
361.3581, 520.3051
361.8402, 524.4706
362.3224, 529.5452
362.8045, 534.2839
363.2866, 537.3821
363.7687, 538.9730
364.2508, 539.9327
364.7329, 540.1035
365.2151, 540.0154
365.6972, 540.7961
366.1793, 542.7286
366.6614, 544.3821
367.1435, 544.5056
367.6256, 543.4661
368.1078, 542.4172
368.5899, 541.7681
369.0720, 540.9338
369.5541, 539.7391
370.0362, 538.0872
370.5183, 535.2772
371.0005, 530.8593
371.4826, 525.1323
371.9647, 518.8968
372.4468, 512.3018
372.9289, 505.0139
373.4110, 496.3831
373.8932, 487.0620
374.3753, 478.3588
374.8574, 470.6185
375.3395, 463.5143
375.8216, 456.6749
376.3037, 450.0581
376.7859, 444.2118
377.2680, 439.3502
377.7501, 435.1678
378.2322, 431.4478
378.7143, 428.1591
379.1964, 425.3089
379.6786, 422.9276
380.1607, 421.0052
380.6428, 419.2363
381.1249, 417.4813
381.6070, 416.0166
382.0891, 415.1291
382.5713, 414.5755
383.0534, 413.8525
383.5355, 412.7207
384.0176, 411.4547
384.4997, 410.6442
384.9818, 410.6454
385.4640, 410.5526
385.9461, 410.4464
386.4282, 410.1802
386.9103, 409.2018
387.3924, 407.6579
387.8745, 406.7780
388.3567, 408.0923
388.8388, 412.1092
389.3209, 414.6038
389.8030, 414.6155
390.2851, 414.3690
390.7672, 414.5299
391.2494, 415.0942
391.7315, 415.9276
392.2136, 416.9689
392.6957, 418.1413
393.1778, 419.1087
393.6599, 419.3820
394.1421, 420.1711
394.6242, 421.8637
395.1063, 423.9230
395.5884, 425.9941
396.0706, 427.9389
396.5527, 429.5833
397.0348, 430.6224
397.5169, 430.8488
397.9990, 431.2687
398.4811, 431.6752
398.9633, 432.4731
399.4454, 434.0306
399.9275, 436.1400
400.4096, 438.3522
400.8917, 440.4820
401.3738, 442.4030
401.8560, 443.4116
402.3381, 442.7191
402.8202, 442.6338
403.3023, 444.3969
403.7844, 446.7890
404.2665, 448.5448
404.7487, 449.2731
405.2308, 449.5965
405.7129, 450.1434
406.1950, 450.9102
406.6771, 452.0853
407.1592, 454.1174
407.6414, 456.1392
408.1235, 457.5701
408.6056, 458.4420
409.0877, 459.0211
409.5698, 459.6019
410.0519, 459.9725
410.5341, 459.4803
411.0162, 457.8995
411.4983, 456.2728
411.9804, 455.4073
412.4625, 454.8689
412.9446, 453.9357
413.4268, 452.3838
413.9089, 450.5996
414.3910, 448.7404
414.8731, 446.8675
415.3552, 445.2715
415.8373, 444.0340
416.3195, 443.1368
416.8016, 442.8021
417.2837, 443.1149
417.7658, 442.8102
418.2479, 441.1498
418.7300, 438.9132
419.2122, 436.6136
419.6943, 434.3792
420.1764, 433.1254
420.6585, 433.7724
421.1406, 436.1754
421.6227, 438.1925
422.1049, 439.4329
422.5870, 440.7740
423.0691, 442.4860
423.5512, 444.5456
424.0333, 446.9791
424.5154, 449.7982
424.9976, 452.8092
425.4797, 455.6100
425.9618, 457.9076
426.4439, 460.6068
426.9260, 463.2184
427.4081, 466.5976
427.8903, 471.6933
428.3724, 478.2934
428.8545, 485.1576
429.3366, 491.2083
429.8187, 496.5666
430.3008, 503.0130
430.7830, 511.9074
431.2651, 520.5032
431.7472, 528.0293
432.2293, 535.1565
432.7114, 542.7214
433.1935, 551.0126
433.6757, 559.4523
434.1578, 566.9128
434.6399, 572.9767
435.1220, 579.4489
435.6041, 586.5385
436.0862, 593.9514
436.5684, 601.8005
437.0505, 609.8854
437.5326, 617.7062
438.0147, 624.6360
438.4968, 631.0777
438.9789, 638.6274
439.4611, 647.8148
439.9432, 656.7502
440.4253, 664.6153
440.9074, 671.9036
441.3895, 679.0305
441.8716, 686.0994
442.3538, 693.0774
442.8359, 699.9471
443.3180, 706.7332
443.8001, 713.3743
444.2822, 720.2987
444.7643, 726.3242
445.2465, 730.6962
445.7286, 733.4725
446.2107, 733.7377
446.6928, 730.1833
447.1749, 724.7289
447.6570, 719.9517
448.1392, 715.5727
448.6213, 708.4770
449.1034, 696.8514
449.5855, 681.5732
450.0677, 664.8216
450.5498, 645.9889
451.0319, 627.3242
451.5140, 609.8301
451.9961, 592.6398
452.4782, 574.3485
452.9604, 554.7877
453.4425, 535.7609
453.9246, 519.0973
454.4067, 504.9411
454.8888, 491.9095
455.3709, 480.1767
455.8531, 469.2261
456.3352, 458.8415
456.8173, 449.1432
457.2994, 440.2483
457.7815, 432.2476
458.2636, 425.1045
458.7458, 418.7310
459.2279, 413.2721
459.7100, 408.3236
460.1921, 404.0428
460.6742, 400.0443
461.1563, 395.8641
461.6385, 391.6875
462.1206, 388.2772
462.6027, 386.3409
463.0848, 385.6241
463.5669, 384.8087
464.0490, 383.7787
464.5312, 382.8924
465.0133, 382.1761
465.4954, 381.6973
465.9775, 381.6953
466.4596, 382.2719
466.9417, 382.6734
467.4239, 381.9307
467.9060, 380.2596
468.3881, 379.1055
468.8702, 378.6996
469.3523, 378.7979
469.8344, 379.5994
470.3166, 380.8000
470.7987, 381.4411
471.2808, 380.3165
471.7629, 379.2960
472.2450, 380.4977
472.7271, 383.4802
473.2093, 385.8142
473.6914, 386.2172
474.1735, 385.9383
474.6556, 387.6337
475.1377, 391.9765
475.6198, 395.6674
476.1020, 397.8142
476.5841, 399.3887
477.0662, 401.2998
477.5483, 403.5516
478.0304, 405.5252
478.5125, 406.6358
478.9947, 407.0680
479.4768, 408.4226
479.9589, 412.4462
480.4410, 415.2640
480.9231, 415.6337
481.4052, 414.9453
481.8874, 414.5764
482.3695, 414.8799
482.8516, 415.3785
483.3337, 415.5015
483.8158, 415.2103
484.2979, 414.8565
484.7801, 414.0153
485.2622, 413.6241
485.7443, 414.1842
486.2264, 415.3507
486.7085, 416.6297
487.1906, 417.8739
487.6728, 418.9420
488.1549, 419.5702
488.6370, 419.7295
489.1191, 419.9074
489.6012, 420.1577
490.0833, 420.5294
490.5655, 421.3294
491.0476, 422.4209
491.5297, 422.8306
492.0118, 421.3452
492.4939, 419.4315
492.9760, 418.8905
493.4582, 419.7406
493.9403, 421.5335
494.4224, 424.4132
494.9045, 427.7617
495.3866, 429.8328
495.8687, 430.0010
496.3509, 430.7123
496.8330, 432.9209
497.3151, 435.7279
497.7972, 438.1433
498.2793, 440.0766
498.7614, 442.0457
499.2436, 444.4826
499.7257, 447.3573
500.2078, 450.3330
500.6899, 454.0799
501.1720, 457.1081
501.6541, 458.9336
502.1363, 460.0370
502.6184, 461.1843
503.1005, 462.4786
503.5826, 463.0331
504.0647, 461.4509
504.5468, 457.4590
505.0290, 454.1318
505.5111, 452.1470
505.9932, 449.9813
506.4753, 446.7849
506.9575, 443.1070
507.4396, 439.8131
507.9217, 437.2309
508.4038, 435.1001
508.8859, 433.3617
509.3680, 431.9637
509.8502, 429.9753
510.3323, 426.8744
510.8144, 423.6268
511.2965, 421.2555
511.7786, 419.6154
512.2607, 417.8954
512.7429, 415.9522
513.2250, 413.8095
513.7071, 411.4614
514.1892, 408.9154
514.6713, 406.1254
515.1534, 403.0123
515.6356, 399.7889
516.1177, 396.9766
516.5998, 395.3549
517.0819, 392.2261
517.5640, 386.4047
518.0461, 379.9734
518.5283, 374.2217
519.0104, 369.1479
519.4925, 364.2239
519.9746, 359.0590
520.4567, 353.8751
520.9388, 349.4286
521.4210, 345.3460
521.9031, 342.8051
522.3852, 343.1987
522.8673, 344.0060
523.3494, 343.5952
523.8315, 341.8227
524.3137, 339.2606
524.7958, 335.7564
525.2779, 331.8889
525.7600, 330.0325
526.2421, 330.7451
526.7242, 331.3616
527.2064, 330.3241
527.6885, 328.7715
528.1706, 328.1762
528.6527, 328.7702
529.1348, 329.6067
529.6169, 330.8822
530.0991, 331.8546
530.5812, 330.8035
531.0633, 327.5663
531.5454, 324.5681
532.0275, 323.6608
532.5096, 324.5310
532.9918, 325.0228
533.4739, 324.7295
533.9560, 324.6390
534.4381, 325.2142
534.9202, 325.9530
535.4023, 326.3576
535.8845, 326.3127
536.3666, 325.8958
536.8487, 325.0861
537.3308, 323.8838
537.8129, 323.3218
538.2950, 324.1044
538.7772, 324.6138
539.2593, 324.2706
539.7414, 323.5926
540.2235, 323.1623
540.7056, 323.1248
541.1877, 323.1247
541.6699, 322.8145
542.1520, 322.2238
542.6341, 321.4455
543.1162, 320.2501
543.5983, 319.4554
544.0804, 320.1238
544.5626, 321.4600
545.0447, 321.9748
545.5268, 321.3225
546.0089, 320.1125
546.4910, 318.1923
546.9731, 316.0669
547.4553, 314.8875
547.9374, 314.8973
548.4195, 315.1095
548.9016, 314.5238
549.3837, 313.1114
549.8658, 312.2159
550.3480, 312.1911
550.8301, 312.1597
551.3122, 311.7918
551.7943, 311.3258
552.2764, 311.0446
552.7585, 311.0306
553.2407, 311.2249
553.7228, 311.6902
554.2049, 312.4783
554.6870, 312.5328
555.1691, 311.2864
555.6512, 310.0931
556.1334, 309.5282
556.6155, 309.2610
557.0976, 308.7073
557.5797, 307.6197
558.0618, 306.9642
558.5439, 308.0097
559.0261, 310.2625
559.5082, 311.9904
559.9903, 313.0015
560.4724, 313.2288
560.9545, 312.1093
561.4366, 310.0871
561.9188, 309.3637
562.4009, 311.2672
562.8830, 312.8301
563.3651, 312.5817
563.8472, 311.4904
564.3293, 310.7813
564.8115, 310.7520
565.2936, 311.2364
565.7757, 312.1425
566.2578, 313.4767
566.7399, 314.4731
567.2220, 314.4909
567.7042, 314.9541
568.1863, 316.5608
568.6684, 318.4647
569.1505, 319.6974
569.6326, 320.0948
570.1147, 320.4087
570.5969, 321.1934
571.0790, 322.4750
571.5611, 324.6269
572.0432, 328.0787
572.5253, 331.1527
573.0074, 332.3396
573.4896, 332.9096
573.9717, 334.9275
574.4538, 338.9713
574.9359, 342.8995
575.4180, 345.5233
575.9001, 347.5124
576.3823, 349.6378
576.8644, 352.0438
577.3465, 354.9710
577.8286, 358.7593
578.3107, 363.0863
578.7928, 366.3520
579.2750, 367.4539
579.7571, 368.9206
580.2392, 371.0019
580.7213, 373.3843
581.2034, 375.7829
581.6855, 378.2144
582.1677, 381.0369
582.6498, 384.6852
583.1319, 388.7310
583.6140, 391.4446
584.0961, 392.3216
584.5782, 393.6299
585.0604, 396.2904
585.5425, 399.4175
586.0246, 402.6347
586.5067, 405.8330
586.9889, 408.0105
587.4710, 408.3748
587.9531, 407.7368
588.4352, 406.9518
588.9174, 406.0206
589.3995, 404.8243
589.8816, 403.3727
590.3637, 401.4543
590.8458, 398.6623
591.3279, 394.7509
591.8101, 390.5415
592.2922, 385.6927
592.7743, 380.8773
593.2564, 376.8092
593.7385, 372.9916
594.2206, 368.2982
594.7028, 362.2263
595.1849, 355.7135
595.6670, 350.5166
596.1491, 346.8742
596.6312, 342.7246
597.1133, 337.2213
597.5955, 332.0924
598.0776, 328.2329
598.5597, 325.3500
599.0418, 323.0315
599.5239, 321.5332
600.0060, 319.7108
600.4882, 315.9554
600.9703, 311.2563
601.4524, 308.1179
601.9345, 307.0553
602.4166, 306.8756
602.8987, 306.7737
603.3809, 306.6919
603.8630, 305.7695
604.3451, 303.6813
604.8272, 301.2874
605.3093, 297.9532
605.7914, 294.8733
606.2736, 293.3819
606.7557, 293.5017
607.2378, 294.1292
607.7199, 294.4712
608.2020, 294.4753
608.6841, 293.7437
609.1663, 291.8994
609.6484, 290.4200
610.1305, 290.1364
610.6126, 290.1214
611.0947, 289.4199
611.5768, 288.0529
612.0590, 287.1257
612.5411, 287.6232
613.0232, 288.4416
613.5053, 288.2635
613.9874, 287.2375
614.4695, 286.1468
614.9517, 285.2570
615.4338, 284.6930
615.9159, 284.7499
616.3980, 285.8459
616.8801, 286.0882
617.3622, 284.5418
617.8444, 283.2323
618.3265, 283.4416
618.8086, 284.3205
619.2907, 284.3794
619.7728, 283.0873
620.2549, 281.4360
620.7371, 280.6838
621.2192, 280.7991
621.7013, 281.0450
622.1834, 281.4897
622.6655, 281.8312
623.1476, 282.0486
623.6298, 281.9883
624.1119, 281.2704
624.5940, 279.5799
625.0761, 278.1037
625.5582, 277.6439
626.0403, 277.5626
626.5225, 276.8726
627.0046, 275.6321
627.4867, 274.8773
627.9688, 275.3344
628.4509, 276.6061
628.9330, 277.4064
629.4152, 277.5802
629.8973, 277.5392
630.3794, 276.7553
630.8615, 276.2883
631.3436, 277.2681
631.8257, 279.0390
632.3079, 279.8673
632.7900, 278.7140
633.2721, 276.8274
633.7542, 275.8605
634.2363, 275.7501
634.7184, 276.0430
635.2006, 276.8036
635.6827, 277.5122
636.1648, 277.7369
636.6469, 277.4855
637.1290, 277.0327
637.6111, 275.9703
638.0933, 275.2049
638.5754, 275.1935
639.0575, 275.5457
639.5396, 276.0148
640.0217, 276.4372
640.5038, 276.3574
640.9860, 275.2439
641.4681, 273.4677
641.9502, 273.0030
642.4323, 274.6062
642.9144, 275.6160
643.3965, 274.7534
643.8787, 273.6752
644.3608, 273.7603
644.8429, 274.7446
645.3250, 275.0754
645.8071, 273.2779
646.2892, 271.2988
646.7714, 271.5713
647.2535, 273.3608
647.7356, 274.1773
648.2177, 273.2580
648.6998, 271.7495
649.1819, 270.8621
649.6641, 270.6060
650.1462, 270.7564
650.6283, 272.0052
651.1104, 272.7829
651.5925, 272.4906
652.0746, 271.7506
652.5568, 271.0857
653.0389, 270.6242
653.5210, 270.3615
654.0031, 270.3804
654.4852, 270.5529
654.9673, 270.4500
655.4495, 270.0280
655.9316, 269.8501
656.4137, 270.2803
656.8958, 270.8171
657.3779, 270.8204
657.8600, 270.3211
658.3422, 269.5369
658.8243, 268.1813
659.3064, 266.8734
659.7885, 265.5865
660.2706, 264.6931
660.7527, 265.1290
661.2349, 267.0089
661.7170, 268.8297
662.1991, 268.6838
662.6812, 266.6944
663.1633, 265.9672
663.6454, 267.4905
664.1276, 268.3110
664.6097, 266.1451
665.0918, 263.7275
665.5739, 263.9400
666.0560, 266.8321
666.5381, 269.0586
667.0203, 268.3935
667.5024, 266.8611
667.9845, 266.7947
668.4666, 267.7736
668.9487, 268.0541
669.4308, 266.9660
669.9130, 265.4078
670.3951, 264.5211
670.8772, 264.3322
671.3593, 264.6100
671.8414, 266.1982
672.3235, 267.2619
672.8057, 266.9066
673.2878, 266.1340
673.7699, 266.0747
674.2520, 266.8666
674.7341, 267.6673
675.2162, 267.9879
675.6984, 267.8292
676.1805, 266.9776
676.6626, 265.4651
677.1447, 264.2111
677.6268, 263.5343
678.1089, 263.3199
678.5911, 263.5160
679.0732, 264.2642
679.5553, 264.5716
680.0374, 263.9526
680.5195, 263.4623
681.0016, 263.7527
681.4838, 264.2738
681.9659, 264.1705
682.4480, 263.3375
682.9301, 262.6118
683.4122, 262.9354
683.8943, 263.9769
684.3765, 264.3365
684.8586, 263.8865
685.3407, 263.5169
685.8228, 263.6587
686.3049, 263.8667
686.7870, 263.5021
687.2692, 262.5894
687.7513, 261.7860
688.2334, 261.0359
688.7155, 260.5810
689.1976, 260.6231
689.6797, 261.0227
690.1619, 261.6742
690.6440, 262.4958
691.1261, 263.2118
691.6082, 263.5113
692.0903, 263.4646
692.5724, 263.6349
693.0546, 264.2404
693.5367, 264.4170
694.0188, 263.6341
694.5009, 262.5717
694.9830, 261.8229
695.4651, 261.3670
695.9473, 260.9453
696.4294, 260.6596
696.9116, 260.2093
697.3937, 259.0989
697.8758, 257.7580
698.3579, 256.9881
698.8400, 256.9611
699.3221, 257.3055
699.8043, 257.6734
700.2864, 258.0950
700.7685, 258.9204
701.2506, 260.7689
701.7327, 261.6945
702.2148, 260.4075
702.6970, 258.8114
703.1791, 258.2007
703.6612, 258.3781
704.1433, 258.2990
704.6254, 257.3205
705.1075, 256.3103
705.5897, 256.1342
706.0718, 256.4160
706.5539, 256.2962
707.0360, 255.6411
707.5181, 255.0511
708.0002, 255.0242
708.4824, 255.4603
708.9645, 255.8892
709.4466, 256.6120
709.9287, 256.7458
710.4108, 255.6412
710.8929, 254.4914
711.3751, 253.8890
711.8572, 253.7824
712.3393, 254.0212
712.8214, 254.7563
713.3035, 255.2780
713.7856, 254.5897
714.2678, 253.3306
714.7499, 253.0644
715.2320, 253.9307
715.7141, 254.5704
716.1962, 254.0294
716.6783, 252.7347
717.1605, 251.9456
717.6426, 251.7792
718.1247, 251.9125
718.6068, 252.6510
719.0889, 253.3515
719.5710, 253.8201
720.0532, 254.0257
720.5353, 253.8002
721.0174, 253.0097
721.4995, 252.5324
721.9816, 253.6562
722.4637, 255.3916
722.9459, 255.6051
723.4280, 254.2651
723.9101, 252.8357
724.3922, 252.0103
724.8743, 251.5533
725.3564, 250.9864
725.8386, 250.1060
726.3207, 249.8489
726.8028, 251.0168
727.2849, 251.8585
727.7670, 251.5832
728.2491, 250.8224
728.7313, 250.3635
729.2134, 250.3457
729.6955, 250.3397
730.1776, 249.7673
730.6597, 249.1701
731.1418, 249.5938
731.6240, 250.8641
732.1061, 251.9772
732.5882, 252.6048
733.0703, 252.8128
733.5524, 252.6938
734.0345, 252.2564
734.5167, 251.2893
734.9988, 248.5315
735.4809, 246.9192
735.9630, 247.7911
736.4451, 249.2955
736.9272, 250.0101
737.4094, 249.8665
737.8915, 249.4573
738.3736, 248.9077
738.8557, 248.4707
739.3378, 248.4897
739.8199, 248.8522
740.3021, 249.2778
740.7842, 249.7069
741.2663, 249.9453
741.7484, 249.7827
742.2305, 249.3465
742.7126, 249.2910
743.1948, 250.0549
743.6769, 250.3924
744.1590, 249.9067
744.6411, 249.3284
745.1232, 248.9646
745.6053, 248.8063
746.0875, 248.8318
746.5696, 249.0993
747.0517, 249.2644
747.5338, 249.0404
748.0159, 248.5480
748.4980, 247.7399
748.9802, 246.7549
749.4623, 246.4945
749.9444, 247.4846
750.4265, 249.0612
750.9086, 249.9937
751.3907, 250.1360
751.8729, 250.3524
752.3550, 251.2328
752.8371, 251.3784
753.3192, 249.5057
753.8013, 247.2156
754.2834, 246.4968
754.7656, 247.5286
755.2477, 248.2991
755.7298, 247.3626
756.2119, 246.1642
756.6940, 246.3821
757.1761, 247.4011
757.6583, 247.4277
758.1404, 246.0525
758.6225, 244.8872
759.1046, 245.7164
759.5867, 248.0862
760.0688, 248.7468
760.5510, 246.9010
761.0331, 245.4559
761.5152, 245.0617
761.9973, 245.1253
762.4794, 245.2795
762.9615, 245.5276
763.4437, 245.8923
763.9258, 246.3849
764.4079, 246.9824
764.8900, 248.0613
765.3721, 248.9883
765.8542, 248.7528
766.3364, 247.5993
766.8185, 246.7138
767.3006, 246.7479
767.7827, 247.2653
768.2648, 247.3447
768.7469, 246.9338
769.2291, 247.7441
769.7112, 250.6733
770.1933, 252.5835
770.6754, 251.3467
771.1575, 248.5957
771.6396, 247.1003
772.1218, 246.9951
772.6039, 246.9437
773.0860, 246.8059
773.5681, 246.5951
774.0502, 246.2981
774.5323, 245.9448
775.0145, 245.4198
775.4966, 244.7985
775.9787, 244.6323
776.4608, 245.6659
776.9429, 247.2041
777.4250, 247.3501
777.9072, 246.1489
778.3893, 245.4778
778.8714, 245.8547
779.3535, 246.5375
779.8356, 246.9951
780.3177, 247.2043
780.7999, 247.0026
781.2820, 245.3815
781.7641, 244.8148
782.2462, 246.5376
782.7283, 248.2972
783.2104, 248.7754
783.6926, 248.1705
784.1747, 246.9298
784.6568, 245.0950
785.1389, 243.6254
785.6210, 243.4568
786.1031, 244.2110
786.5853, 245.5517
787.0674, 247.2655
787.5495, 248.0684
788.0316, 247.3387
788.5137, 245.9435
788.9958, 245.0966
789.4780, 244.8358
789.9601, 244.5641
790.4422, 243.8746
790.9243, 243.8470
791.4064, 245.4077
791.8885, 247.1806
792.3707, 248.0108
792.8528, 247.9992
793.3349, 248.0860
793.8170, 248.7820
794.2991, 249.3818
794.7813, 249.4555
795.2634, 249.1657
795.7455, 248.7089
796.2276, 248.1203
796.7097, 247.3085
797.1918, 246.1764
797.6740, 245.0589
798.1561, 244.6876
798.6382, 245.0935
799.1203, 245.2679
799.6024, 244.8678
800.0845, 245.1371
800.5667, 247.2901
801.0488, 250.0620
801.5309, 250.9001
802.0130, 249.4494
802.4951, 248.7211
802.9772, 249.7136
803.4594, 250.6305
803.9415, 250.4057
804.4236, 249.8498
804.9057, 250.0831
805.3878, 251.1513
805.8699, 252.1288
806.3521, 252.3990
806.8342, 252.2399
807.3163, 251.9241
807.7985, 251.5280
808.2806, 251.3593
808.7627, 251.4755
809.2448, 251.8468
809.7269, 252.5105
810.2090, 253.3282
810.6912, 253.8145
811.1733, 253.5609
811.6554, 253.9599
812.1375, 255.6742
812.6196, 257.2895
813.1017, 258.3650
813.5839, 258.9858
814.0660, 258.9892
814.5481, 258.3163
815.0302, 258.4044
815.5123, 260.6905
815.9944, 263.1831
816.4766, 264.1568
816.9587, 264.2283
817.4408, 264.4229
817.9229, 265.0463
818.4050, 266.1640
818.8871, 267.9292
819.3693, 270.0456
819.8514, 271.6796
820.3335, 272.7984
820.8156, 274.0821
821.2977, 275.5269
821.7798, 277.5269
822.2620, 280.6593
822.7441, 284.4243
823.2262, 287.2951
823.7083, 288.7067
824.1904, 290.5681
824.6725, 292.9245
825.1547, 295.7554
825.6368, 299.0097
826.1189, 302.7390
826.6010, 307.1405
827.0831, 312.2075
827.5652, 317.4393
828.0474, 321.8211
828.5295, 326.7431
829.0116, 334.3463
829.4937, 343.7690
829.9758, 352.7877
830.4579, 360.9643
830.9401, 369.2592
831.4222, 378.3925
831.9043, 388.3663
832.3864, 399.2609
832.8685, 410.9611
833.3506, 424.0429
833.8328, 439.4007
834.3149, 454.4273
834.7970, 467.0415
835.2791, 478.6323
835.7612, 491.6347
836.2433, 506.2645
836.7255, 520.8690
837.2076, 534.8651
837.6897, 549.0186
838.1718, 563.6524
838.6539, 578.6525
839.1360, 594.1034
839.6182, 609.8641
840.1003, 625.4899
840.5824, 640.6953
841.0645, 655.6297
841.5466, 670.4426
842.0287, 685.2094
842.5109, 700.3434
842.9930, 715.8104
843.4751, 729.6092
843.9572, 740.5239
844.4393, 748.7281
844.9214, 754.3493
845.4036, 757.3452
845.8857, 758.2308
846.3678, 758.2773
846.8499, 753.9421
847.3320, 742.7488
847.8141, 727.2997
848.2963, 710.1828
848.7784, 691.4581
849.2605, 670.2205
849.7426, 644.8280
850.2247, 618.8096
850.7068, 592.6707
851.1890, 567.2137
851.6711, 543.0086
852.1532, 520.2254
852.6353, 499.1605
853.1174, 480.0380
853.5995, 461.8683
854.0817, 442.9818
854.5638, 424.1031
855.0459, 407.4672
855.5280, 393.0878
856.0101, 380.3210
856.4922, 368.8574
856.9744, 358.9559
857.4565, 351.1914
857.9386, 345.4568
858.4207, 339.5002
858.9028, 333.0763
859.3849, 327.0224
859.8671, 321.4200
860.3492, 316.3555
860.8313, 312.0874
861.3134, 308.3840
861.7955, 304.5152
862.2776, 300.0175
862.7598, 296.3105
863.2419, 294.5040
863.7240, 292.9022
864.2061, 290.1089
864.6882, 286.8022
865.1703, 284.2165
865.6525, 282.6445
866.1346, 281.4305
866.6167, 280.1051
867.0988, 278.7792
867.5809, 277.4726
868.0630, 276.3126
868.5452, 276.0433
869.0273, 276.7338
869.5094, 276.8365
869.9915, 275.0363
870.4736, 272.4683
870.9557, 272.4156
871.4379, 275.5747
871.9200, 277.1787
872.4021, 276.4340
872.8842, 275.5180
873.3663, 275.1721
873.8484, 275.3223
874.3306, 275.9872
874.8127, 277.1808
875.2948, 278.2932
875.7769, 279.5182
876.2590, 280.3510
876.7411, 280.3156
877.2233, 280.0840
877.7054, 280.2391
878.1875, 280.7204
878.6696, 281.2012
879.1517, 281.5761
879.6339, 281.8111
880.1160, 281.7804
880.5981, 281.6554
881.0802, 281.5353
881.5623, 281.5385
882.0444, 282.0856
882.5266, 283.2820
883.0087, 284.5389
883.4908, 285.1643
883.9729, 285.4077
884.4550, 286.2181
884.9371, 287.5985
885.4193, 289.4229
885.9014, 291.6526
886.3835, 294.4348
886.8656, 298.1065
887.3477, 302.2170
887.8298, 305.5255
888.3120, 307.5439
888.7941, 310.0291
889.2762, 313.3723
889.7583, 316.7125
890.2404, 319.6090
890.7225, 322.5043
891.2047, 325.6659
891.6868, 329.2053
892.1689, 333.6579
892.6510, 339.8623
893.1331, 346.1240
893.6152, 351.9080
894.0974, 357.1158
894.5795, 361.4265
895.0616, 365.0990
895.5437, 368.7265
896.0258, 372.5830
896.5079, 376.6227
896.9901, 381.2378
897.4722, 385.8360
897.9543, 389.1811
898.4364, 391.2129
898.9185, 391.4945
899.4006, 389.8835
899.8828, 387.8446
900.3649, 386.7474
900.8470, 386.0757
901.3291, 383.9030
901.8112, 380.0456
902.2933, 375.4692
902.7755, 369.7468
903.2576, 364.4599
903.7397, 360.8507
904.2218, 357.8163
904.7039, 353.3715
905.1860, 347.2298
905.6682, 342.0498
906.1503, 338.3860
906.6324, 335.0311
907.1145, 332.3871
907.5966, 329.3422
908.0787, 324.3629
908.5609, 318.2497
909.0430, 313.4681
909.5251, 311.0662
910.0072, 308.9084
910.4893, 305.6138
910.9714, 302.0895
911.4536, 299.1977
911.9357, 296.8026
912.4178, 294.5491
912.8999, 292.3179
913.3820, 290.1751
913.8641, 288.2867
914.3463, 286.3239
914.8284, 283.6335
915.3105, 280.3202
915.7926, 276.6120
916.2748, 272.5935
916.7569, 269.1086
917.2390, 266.6545
917.7211, 264.8119
918.2032, 262.8725
918.6854, 260.8428
919.1675, 258.8265
919.6496, 256.7482
920.1317, 254.9804
920.6138, 253.8585
921.0959, 252.6749
921.5781, 250.4999
922.0602, 247.7044
922.5423, 246.1690
923.0244, 246.8719
923.5065, 246.9386
923.9886, 245.7159
924.4708, 244.4505
924.9529, 243.3219
925.4350, 242.6745
925.9171, 243.1447
926.3992, 244.6807
926.8813, 246.0288
927.3635, 246.5724
927.8456, 246.9494
928.3277, 247.5185
928.8098, 248.1179
929.2919, 248.6036
929.7740, 248.9516
930.2562, 249.2099
930.7383, 249.3945
931.2204, 249.3296
931.7025, 248.7939
932.1846, 247.9159
932.6667, 246.8630
933.1489, 245.6784
933.6310, 244.5268
934.1131, 243.4419
934.5952, 242.3775
935.0773, 241.3318
935.5594, 240.1576
936.0416, 238.3607
936.5237, 235.9269
937.0058, 234.2534
937.4879, 233.5484
937.9700, 232.7199
938.4521, 231.2557
938.9343, 229.6795
939.4164, 228.6041
939.8985, 228.0051
940.3806, 227.4418
940.8627, 226.9101
941.3448, 226.4340
941.8270, 226.1798
942.3091, 225.7916
942.7912, 225.1292
943.2733, 224.2045
943.7554, 222.9781
944.2375, 221.4099
944.7197, 219.8972
945.2018, 218.2760
945.6839, 217.0126
946.1660, 216.4014
946.6481, 216.1340
947.1302, 216.1173
947.6124, 216.1749
948.0945, 215.8538
948.5766, 214.8785
949.0587, 214.1328
949.5408, 214.3424
950.0229, 214.8833
950.5051, 215.1347
950.9872, 215.2440
951.4693, 215.6092
951.9514, 216.2627
952.4335, 216.8250
952.9156, 216.9953
953.3978, 217.0681
953.8799, 217.6400
954.3620, 217.5557
954.8441, 218.4450
955.3262, 217.7884
955.8083, 217.4491
956.2905, 217.8252
956.7726, 218.3826
957.2547, 218.5602
957.7368, 218.3748
958.2189, 217.7607
958.7010, 216.6743
959.1832, 216.1381
959.6653, 216.4221
960.1474, 216.6008
960.6295, 216.0436
961.1116, 215.2527
961.5938, 215.2673
962.0759, 216.2752
962.5580, 216.2011
963.0401, 214.4880
963.5222, 212.8619
964.0043, 211.7984
964.4865, 210.7912
964.9686, 209.2551
965.4507, 207.4963
965.9328, 206.4439
966.4149, 206.1523
966.8970, 206.4193
967.3792, 207.9402
967.8613, 209.1566
968.3434, 209.3268
968.8255, 209.0562
969.3076, 208.8541
969.7897, 208.7846
970.2719, 208.8641
970.7540, 209.2255
971.2361, 209.4551
971.7182, 209.2755
972.2003, 209.0020
972.6824, 208.8900
973.1646, 208.8540
973.6467, 208.8439
974.1288, 208.7791
974.6109, 208.2727
975.0930, 206.7778
975.5751, 205.2914
976.0573, 204.7687
976.5394, 204.8249
977.0215, 205.1170
977.5036, 205.4343
977.9857, 205.2956
978.4678, 204.5552
978.9500, 203.7043
979.4321, 203.1130
979.9142, 202.8401
980.3963, 202.9430
980.8784, 203.4693
981.3605, 205.0375
981.8427, 207.5249
982.3248, 208.9136
982.8069, 208.0878
983.2890, 206.2279
983.7711, 205.0420
984.2532, 204.3878
984.7354, 202.9530
985.2175, 200.6908
985.6996, 199.5149
986.1817, 199.9978
986.6638, 200.4932
987.1459, 199.8072
987.6281, 198.4432
988.1102, 197.4868
988.5923, 196.9270
989.0744, 196.8832
989.5565, 197.5141
990.0386, 198.2314
990.5208, 199.0575
991.0029, 199.5876
991.4850, 199.3865
991.9671, 198.6157
992.4492, 197.8764
992.9313, 197.0749
993.4135, 196.5388
993.8956, 196.4466
994.3777, 196.3833
994.8598, 196.2744
995.3419, 196.0947
995.8240, 195.7425
996.3062, 195.2735
996.7883, 195.0141
997.2704, 195.3758
997.7525, 195.2567
998.2346, 193.7881
998.7167, 192.6164
999.1989, 192.7235
999.6810, 193.4838
1000.163, 194.3479
1000.645, 195.1472
1001.127, 195.2809
1001.609, 193.9892
1002.092, 192.9472
1002.574, 193.1975
1003.056, 193.5965
1003.538, 193.1588
1004.020, 192.2717
1004.502, 191.6631
1004.984, 191.4692
1005.466, 191.3740
1005.948, 191.3446
1006.431, 191.1696
1006.913, 190.1429
1007.395, 189.2895
1007.877, 190.5118
1008.359, 192.8255
1008.841, 193.3998
1009.323, 191.5387
1009.805, 189.7111
1010.288, 189.9840
1010.770, 191.0993
1011.252, 191.8189
1011.734, 192.1547
1012.216, 192.0896
1012.698, 191.6553
1013.180, 190.8002
1013.662, 189.5405
1014.144, 188.5198
1014.627, 188.5654
1015.109, 189.1479
1015.591, 189.2434
1016.073, 188.9627
1016.555, 188.4866
1017.037, 187.9441
1017.519, 188.0497
1018.001, 189.1772
1018.484, 190.3604
1018.966, 190.1714
1019.448, 189.0751
1019.930, 188.9095
1020.412, 189.5291
1020.894, 189.5376
1021.376, 188.7009
1021.858, 187.6035
1022.340, 186.5300
1022.823, 185.7254
1023.305, 185.6996
1023.787, 186.3350
1024.269, 186.2853
1024.751, 185.4793
1025.233, 185.6171
1025.715, 187.2206
1026.197, 188.3970
1026.680, 187.8557
1027.162, 186.4348
1027.644, 185.7052
1028.126, 185.6843
1028.608, 185.5396
1029.090, 185.1678
1029.572, 185.2350
1030.054, 186.0576
1030.536, 186.8146
1031.019, 186.8992
1031.501, 186.6198
1031.983, 186.7176
1032.465, 187.3427
1032.947, 187.0699
1033.429, 185.4688
1033.911, 184.0362
1034.393, 182.8291
1034.875, 182.3612
1035.358, 183.3222
1035.840, 185.0616
1036.322, 186.0259
1036.804, 186.0768
1037.286, 186.0178
1037.768, 185.7815
1038.250, 185.5631
1038.732, 185.5299
1039.215, 185.3683
1039.697, 184.6799
1040.179, 183.7471
1040.661, 183.3457
1041.143, 183.7156
1041.625, 183.7235
1042.107, 182.8771
1042.589, 182.3487
1043.072, 182.3225
1043.554, 182.7259
1044.036, 183.8371
1044.518, 185.2792
1045.000, 186.1138
1045.482, 186.1438
1045.964, 186.2423
1046.446, 187.1169
1046.928, 187.1875
1047.411, 184.7776
1047.893, 182.6167
1048.375, 183.4580
1048.857, 185.9374
1049.339, 186.5661
1049.821, 184.5902
1050.303, 182.9949
1050.785, 182.2312
1051.267, 181.9114
1051.750, 182.3354
1052.232, 182.7744
1052.714, 182.4031
1053.196, 181.6671
1053.678, 181.6775
1054.160, 182.7087
1054.642, 183.6795
1055.124, 184.3461
1055.607, 184.9002
1056.089, 185.4415
1056.571, 185.8676
1057.053, 186.2862
1057.535, 186.4693
1058.017, 185.8244
1058.499, 184.1558
1058.981, 182.7210
1059.464, 181.5112
1059.946, 181.1216
1060.428, 182.5730
1060.910, 184.2454
1061.392, 184.7270
1061.874, 184.3870
1062.356, 184.2936
1062.838, 184.6811
1063.320, 184.5096
1063.802, 182.5911
1064.285, 181.0945
1064.767, 181.6387
1065.249, 182.4207
1065.731, 181.6780
1066.213, 180.0611
1066.695, 178.9868
1067.177, 178.7401
1067.659, 178.8757
1068.142, 179.1901
1068.624, 179.8907
1069.106, 181.6092
1069.588, 183.2534
1070.070, 183.9478
1070.552, 183.8730
1071.034, 183.2763
1071.516, 182.2827
1071.999, 181.7390
1072.481, 182.2972
1072.963, 182.9837
1073.445, 183.5996
1073.927, 183.9210
1074.409, 183.4994
1074.891, 182.7780
1075.373, 182.5185
1075.855, 182.8034
1076.338, 183.0512
1076.820, 183.1245
1077.302, 182.9558
1077.784, 182.0906
1078.266, 181.3920
1078.748, 181.9273
1079.230, 182.8764
1079.712, 182.8713
1080.194, 181.8599
1080.677, 180.8852
1081.159, 180.1009
1081.641, 179.9370
1082.123, 181.4070
1082.605, 182.7332
1083.087, 182.3827
1083.569, 181.2270
1084.052, 180.4267
1084.534, 180.0878
1085.016, 179.7451
1085.498, 179.0884
1085.980, 178.8647
1086.462, 179.9605
1086.944, 180.9767
1087.426, 180.8461
1087.908, 180.2291
1088.391, 179.7185
1088.873, 179.5136
1089.355, 180.0583
1089.837, 181.8086
1090.319, 182.8533
1090.801, 181.5999
1091.283, 180.4227
1091.765, 181.0136
1092.247, 182.0485
1092.730, 181.9916
1093.212, 181.1876
1093.694, 180.9297
1094.176, 181.5759
1094.658, 182.2572
1095.140, 182.6928
1095.622, 183.0604
1096.104, 183.5446
1096.587, 183.9008
1097.069, 184.1093
1097.551, 183.9594
1098.033, 182.9675
1098.515, 181.0235
1098.997, 179.0551
1099.479, 176.6212
1099.961, 175.1776
1100.443, 175.8935
1100.926, 177.0746
1101.408, 177.3769
1101.890, 178.5484
1102.372, 178.4462
1102.854, 180.5413
1103.336, 182.0633
1103.818, 183.0872
1104.300, 182.8503
1104.782, 179.6540
1105.265, 176.8856
1105.747, 176.9700
1106.229, 178.1306
1106.711, 178.0420
1107.193, 176.7588
1107.675, 175.8404
1108.157, 175.4345
1108.639, 175.4839
1109.122, 176.1714
1109.604, 177.0757
1110.086, 178.3990
1110.568, 179.5685
1111.050, 179.9880
1111.532, 179.7847
1112.014, 179.5172
1112.496, 179.3074
1112.979, 178.7670
1113.461, 177.8271
1113.943, 176.6277
1114.425, 174.4270
1114.907, 172.7601
1115.389, 173.0287
1115.871, 174.5147
1116.353, 175.6882
1116.835, 176.5725
1117.318, 176.9933
1117.800, 176.6627
1118.282, 176.3860
1118.764, 176.1290
1119.246, 176.2068
1119.728, 177.0951
1120.210, 178.1310
1120.692, 178.2558
1121.174, 177.4890
1121.657, 176.8163
1122.139, 176.3227
1122.621, 175.5793
1123.103, 174.1093
1123.585, 173.5514
1124.067, 174.9761
1124.549, 176.8838
1125.031, 177.6422
1125.514, 177.4363
1125.996, 177.0166
1126.478, 176.1957
1126.960, 176.2538
1127.442, 177.4132
1127.924, 178.6696
1128.406, 179.8548
1128.888, 180.4913
1129.370, 180.1335
1129.853, 179.1186
1130.335, 178.1290
1130.817, 177.1631
1131.299, 176.8094
1131.781, 177.1012
1132.263, 177.2026
1132.745, 176.9273
1133.227, 176.8788
1133.709, 177.4557
1134.192, 178.0437
1134.674, 177.6248
1135.156, 176.5499
1135.638, 176.2049
1136.120, 176.5596
1136.602, 177.7731
1137.084, 179.6739
1137.566, 180.1374
1138.049, 178.3657
1138.531, 176.4213
1139.013, 176.3132
1139.495, 177.1766
1139.977, 177.3171
1140.459, 177.0505
1140.941, 177.4792
1141.423, 178.3705
1141.906, 178.4221
1142.388, 177.4712
1142.870, 176.8785
1143.352, 177.5675
1143.834, 178.4300
1144.316, 177.7726
1144.798, 176.7395
1145.280, 177.5647
1145.762, 176.7766
1146.245, 178.8487
1146.727, 176.9847
1147.209, 176.2106
1147.691, 177.5444
1148.173, 179.0793
1148.655, 179.5137
1149.137, 179.3795
1149.619, 178.7532
1150.101, 178.1282
1150.584, 178.2247
1151.066, 178.7290
1151.548, 178.8960
1152.030, 178.6161
1152.512, 178.3839
1152.994, 178.3751
1153.476, 178.5360
1153.958, 178.9876
1154.441, 179.4356
1154.923, 179.8202
1155.405, 179.9885
1155.887, 179.6031
1156.369, 178.8469
1156.851, 178.3416
1157.333, 178.0840
1157.815, 178.5550
1158.297, 180.7461
1158.780, 182.4721
1159.262, 182.9374
1159.744, 182.8047
1160.226, 182.2387
1160.708, 181.5417
1161.190, 181.3055
1161.672, 181.5820
1162.154, 181.5927
1162.636, 181.0877
1163.119, 180.7870
1163.601, 180.7914
1164.083, 180.9181
1164.565, 181.1107
1165.047, 181.3857
1165.529, 181.8581
1166.011, 182.3799
1166.493, 182.2561
1166.976, 181.2372
1167.458, 180.8963
1167.940, 181.3978
1168.422, 181.7328
1168.904, 181.6153
1169.386, 181.5165
1169.868, 181.7334
1170.350, 182.2127
1170.833, 182.9294
1171.315, 183.8100
1171.797, 184.4670
1172.279, 184.8863
1172.761, 184.8082
1173.243, 184.2529
1173.725, 183.8313
1174.207, 183.7792
1174.689, 183.9124
1175.172, 184.0611
1175.654, 184.3016
1176.136, 184.9982
1176.618, 185.7811
1177.100, 185.5177
1177.582, 184.6409
1178.064, 184.6508
1178.546, 185.5920
1179.028, 186.0195
1179.511, 185.1866
1179.993, 184.3858
1180.475, 184.6348
1180.957, 185.5398
1181.439, 187.5789
1181.921, 189.3874
1182.403, 188.7675
1182.885, 186.6719
1183.368, 185.3995
1183.850, 185.4115
1184.332, 185.5639
1184.814, 185.3277
1185.296, 185.2566
1185.778, 185.9064
1186.260, 186.4072
1186.742, 185.7657
1187.224, 185.0630
1187.707, 185.6763
1188.189, 187.2760
1188.671, 188.5663
1189.153, 189.6204
1189.635, 189.6145
1190.117, 186.9297
1190.599, 185.5905
1191.081, 187.1385
1191.564, 188.8161
1192.046, 189.0743
1192.528, 188.7453
1193.010, 188.9440
1193.492, 189.6077
1193.974, 190.3093
1194.456, 191.2377
1194.938, 191.0334
1195.421, 189.3635
1195.903, 188.0398
1196.385, 187.5338
1196.867, 188.1351
1197.349, 190.2490
1197.831, 192.7907
1198.313, 193.6222
1198.795, 193.1648
1199.277, 193.4605
1199.760, 194.3579
1200.242, 195.1690
1200.724, 195.7570
1201.206, 195.9327
1201.688, 195.6472
1202.170, 195.1576
1202.652, 194.5291
1203.134, 194.1845
1203.616, 195.0506
1204.099, 196.2320
1204.581, 195.9649
1205.063, 195.2567
1205.545, 196.6121
1206.027, 199.5699
1206.509, 201.1743
1206.991, 200.2987
1207.473, 198.8416
1207.956, 197.1525
1208.438, 196.0037
1208.920, 196.3035
1209.402, 196.7922
1209.884, 196.2048
1210.366, 195.2925
1210.848, 195.3414
1211.330, 196.3520
1211.813, 197.3002
1212.295, 198.2507
1212.777, 198.7845
1213.259, 198.7476
1213.741, 198.5286
1214.223, 198.0513
1214.705, 197.7039
1215.187, 197.8239
1215.669, 198.1469
1216.151, 198.1393
1216.634, 197.8453
1217.116, 198.1710
1217.598, 197.9714
1218.080, 199.2959
1218.562, 198.1333
1219.044, 197.5402
1219.526, 198.1522
1220.008, 199.2848
1220.491, 200.4888
1220.973, 201.3440
1221.455, 200.9482
1221.937, 199.7132
1222.419, 198.2486
1222.901, 196.9687
1223.383, 197.2969
1223.865, 198.9051
1224.348, 199.9434
1224.830, 199.8070
1225.312, 199.5019
1225.794, 199.4858
1226.276, 199.9574
1226.758, 201.7717
1227.240, 203.4220
1227.722, 203.2201
1228.204, 202.2540
1228.687, 202.1433
1229.169, 202.6643
1229.651, 202.4212
1230.133, 200.9604
1230.615, 199.9168
1231.097, 199.8033
1231.579, 199.8033
1232.061, 200.0709
1232.543, 199.9979
1233.026, 198.9115
1233.508, 197.8277
1233.990, 198.0014
1234.472, 199.0892
1234.954, 199.6971
1235.436, 199.8228
1235.918, 199.3052
1236.400, 198.0201
1236.883, 197.5257
1237.365, 198.1747
1237.847, 198.8858
1238.329, 199.0911
1238.811, 199.0455
1239.293, 198.9790
1239.775, 198.9740
1240.257, 199.4199
1240.740, 199.9634
1241.222, 199.4872
1241.704, 198.4473
1242.186, 198.2699
1242.668, 199.0518
1243.150, 199.8781
1243.632, 200.3761
1244.114, 200.5632
1244.596, 200.0545
1245.078, 199.7421
1245.561, 200.4986
1246.043, 201.3865
1246.525, 201.5958
1247.007, 201.4070
1247.489, 201.2609
1247.971, 201.1986
1248.453, 201.1724
1248.935, 201.1667
1249.418, 201.2271
1249.900, 201.3992
1250.382, 201.5559
1250.864, 201.7213
1251.346, 201.7464
1251.828, 201.5028
1252.310, 201.1713
1252.792, 200.9546
1253.275, 200.8946
1253.757, 201.3436
1254.239, 201.0688
1254.721, 202.1002
1255.203, 201.1205
1255.685, 200.6816
1256.167, 201.0486
1256.649, 201.5588
1257.131, 201.8695
1257.614, 202.0964
1258.096, 202.3089
1258.578, 202.5584
1259.060, 202.9569
1259.542, 203.3839
1260.024, 203.5295
1260.506, 203.6726
1260.988, 204.5691
1261.470, 205.9859
1261.953, 206.5334
1262.435, 205.5836
1262.917, 205.0066
1263.399, 205.3183
1263.881, 205.9919
1264.363, 207.2396
1264.845, 208.3887
1265.327, 209.0130
1265.810, 209.4977
1266.292, 210.4114
1266.774, 211.4918
1267.256, 211.5918
1267.738, 210.5926
1268.220, 209.7923
1268.702, 209.1879
1269.184, 208.9592
1269.667, 209.1380
1270.149, 209.7759
1270.631, 210.8890
1271.113, 211.6763
1271.595, 211.2990
1272.077, 210.3722
1272.559, 209.2508
1273.041, 208.6129
1273.523, 209.9115
1274.005, 212.2236
1274.488, 214.1881
1274.970, 215.4921
1275.452, 215.8782
1275.934, 215.2790
1276.416, 215.0638
1276.898, 216.2320
1277.380, 217.1106
1277.862, 216.9110
1278.345, 216.7447
1278.827, 217.1220
1279.309, 217.7876
1279.791, 218.7599
1280.273, 219.6910
1280.755, 219.6469
1281.237, 220.4357
1281.719, 220.6671
1282.202, 220.6309
1282.684, 221.0156
1283.166, 219.8330
1283.648, 219.5634
1284.130, 220.9557
1284.612, 222.5796
1285.094, 223.5178
1285.576, 223.6667
1286.058, 222.1044
1286.541, 220.3818
1287.023, 220.3049
##END=



