##NAMES=Esseneite
##RRUFFID=R061123
##IDEAL CHEMISTRY=CaFe^3+^AlSiO_6_
##LOCALITY=Durham Ranch, South of Gillette, Sublette County, Wyoming, USA
##OWNER=RRUFF
##SOURCE=Michael Scott
##DESCRIPTION=Reddish-brown prismatic crystals associated with gehlenite, R070478
##STATUS=The identification of this mineral has been confirmed only by single crystal X-ray diffraction.
##URL=rruff.info/R061123
148.7093, 1516.015
149.1914, 1519.312
149.6735, 1525.903
150.1557, 1538.223
150.6378, 1565.243
151.1199, 1587.178
151.6020, 1600.100
152.0841, 1605.937
152.5662, 1616.507
153.0484, 1631.344
153.5305, 1651.455
154.0126, 1677.456
154.4947, 1722.072
154.9768, 1759.587
155.4589, 1780.788
155.9411, 1785.453
156.4232, 1797.079
156.9053, 1819.993
157.3874, 1843.636
157.8695, 1863.992
158.3516, 1903.872
158.8338, 1934.204
159.3159, 1941.826
159.7980, 1921.280
160.2801, 1905.960
160.7622, 1907.321
161.2443, 1918.810
161.7265, 1931.307
162.2086, 1946.764
162.6907, 1959.103
163.1728, 1963.933
163.6549, 1957.161
164.1370, 1952.195
164.6192, 1956.615
165.1013, 1967.021
165.5834, 1975.493
166.0655, 1976.069
166.5476, 1974.517
167.0297, 1974.850
167.5119, 1975.819
167.9940, 1981.719
168.4761, 1998.965
168.9582, 2024.795
169.4403, 2047.512
169.9224, 2058.342
170.4046, 2063.120
170.8867, 2068.381
171.3688, 2076.216
171.8509, 2085.199
172.3330, 2093.667
172.8151, 2101.772
173.2973, 2111.485
173.7794, 2124.815
174.2615, 2140.710
174.7436, 2157.173
175.2257, 2178.999
175.7078, 2198.519
176.1900, 2204.248
176.6721, 2195.099
177.1542, 2185.510
177.6363, 2191.855
178.1184, 2208.478
178.6005, 2220.850
179.0827, 2213.370
179.5648, 2199.385
180.0469, 2203.268
180.5290, 2229.271
181.0111, 2261.325
181.4932, 2284.486
181.9754, 2299.151
182.4575, 2306.565
182.9396, 2297.177
183.4217, 2281.093
183.9038, 2285.814
184.3859, 2319.157
184.8681, 2364.577
185.3502, 2398.613
185.8323, 2421.965
186.3144, 2439.407
186.7965, 2454.399
187.2786, 2466.359
187.7608, 2471.777
188.2429, 2465.221
188.7250, 2456.624
189.2071, 2470.290
189.6892, 2506.587
190.1713, 2546.678
190.6535, 2573.899
191.1356, 2589.855
191.6177, 2606.894
192.0998, 2630.823
192.5819, 2656.962
193.0640, 2667.312
193.5462, 2659.887
194.0283, 2649.537
194.5104, 2651.355
194.9925, 2665.242
195.4746, 2681.086
195.9567, 2697.763
196.4389, 2714.422
196.9210, 2725.942
197.4031, 2732.468
197.8852, 2733.776
198.3673, 2725.588
198.8494, 2706.535
199.3316, 2695.089
199.8137, 2700.808
200.2958, 2723.210
200.7779, 2740.677
201.2600, 2753.334
201.7421, 2761.093
202.2243, 2761.953
202.7064, 2754.275
203.1885, 2748.146
203.6706, 2750.054
204.1527, 2761.581
204.6348, 2763.766
205.1170, 2753.672
205.5991, 2737.524
206.0812, 2727.376
206.5633, 2723.994
207.0454, 2723.715
207.5275, 2726.594
208.0097, 2734.359
208.4918, 2735.167
208.9739, 2727.038
209.4560, 2712.882
209.9381, 2699.893
210.4202, 2688.192
210.9024, 2677.451
211.3845, 2667.993
211.8666, 2660.617
212.3487, 2650.296
212.8308, 2632.822
213.3129, 2613.083
213.7951, 2613.424
214.2772, 2643.494
214.7593, 2674.535
215.2414, 2686.155
215.7235, 2672.908
216.2056, 2657.656
216.6878, 2641.543
217.1699, 2625.299
217.6520, 2615.323
218.1341, 2614.771
218.6162, 2615.378
219.0983, 2609.337
219.5805, 2591.105
220.0626, 2581.031
220.5447, 2586.298
221.0268, 2604.898
221.5089, 2610.475
221.9910, 2600.113
222.4732, 2580.511
222.9553, 2555.261
223.4374, 2518.962
223.9195, 2490.020
224.4016, 2472.674
224.8837, 2466.972
225.3659, 2465.982
225.8480, 2474.325
226.3301, 2482.343
226.8122, 2479.779
227.2943, 2462.938
227.7764, 2442.865
228.2586, 2420.908
228.7407, 2396.689
229.2228, 2374.739
229.7049, 2354.987
230.1870, 2337.400
230.6691, 2322.243
231.1513, 2309.647
231.6334, 2299.180
232.1155, 2291.218
232.5976, 2286.140
233.0797, 2281.057
233.5618, 2276.943
234.0440, 2272.214
234.5261, 2263.860
235.0082, 2247.511
235.4903, 2235.698
235.9724, 2234.271
236.4545, 2247.931
236.9367, 2249.768
237.4188, 2233.063
237.9009, 2209.320
238.3830, 2196.380
238.8651, 2199.860
239.3472, 2204.511
239.8294, 2204.858
240.3115, 2198.225
240.7936, 2198.011
241.2757, 2209.426
241.7578, 2224.161
242.2399, 2226.370
242.7221, 2205.844
243.2042, 2189.355
243.6863, 2187.961
244.1684, 2209.236
244.6505, 2220.384
245.1326, 2215.986
245.6148, 2204.158
246.0969, 2201.574
246.5790, 2216.730
247.0611, 2227.260
247.5432, 2222.479
248.0253, 2192.431
248.5075, 2176.193
248.9896, 2177.098
249.4717, 2190.348
249.9538, 2207.858
250.4359, 2236.830
250.9180, 2258.242
251.4002, 2262.675
251.8823, 2242.152
252.3644, 2226.690
252.8465, 2214.829
253.3286, 2208.674
253.8107, 2214.252
254.2929, 2238.080
254.7750, 2262.296
255.2571, 2280.734
255.7392, 2295.498
256.2213, 2296.654
256.7035, 2275.144
257.1856, 2243.805
257.6677, 2235.441
258.1498, 2261.491
258.6319, 2289.135
259.1140, 2302.198
259.5962, 2293.723
260.0783, 2291.826
260.5604, 2299.664
261.0425, 2312.937
261.5246, 2319.517
262.0067, 2315.790
262.4889, 2312.999
262.9710, 2318.356
263.4531, 2337.213
263.9352, 2344.290
264.4173, 2332.492
264.8994, 2311.918
265.3816, 2308.389
265.8637, 2325.757
266.3458, 2350.917
266.8279, 2382.193
267.3100, 2425.426
267.7921, 2447.593
268.2743, 2440.263
268.7564, 2415.865
269.2385, 2407.137
269.7206, 2419.234
270.2027, 2431.802
270.6848, 2431.483
271.1670, 2413.613
271.6491, 2409.739
272.1312, 2424.725
272.6133, 2451.155
273.0954, 2474.354
273.5775, 2494.972
274.0597, 2508.868
274.5418, 2510.255
275.0239, 2496.431
275.5060, 2493.871
275.9881, 2507.490
276.4702, 2528.639
276.9524, 2536.617
277.4345, 2527.730
277.9166, 2522.786
278.3987, 2535.536
278.8808, 2567.179
279.3629, 2593.096
279.8451, 2612.449
280.3272, 2625.356
280.8093, 2628.760
281.2914, 2621.014
281.7735, 2615.616
282.2556, 2621.712
282.7378, 2638.913
283.2199, 2649.778
283.7020, 2651.375
284.1841, 2650.240
284.6662, 2660.822
285.1483, 2684.015
285.6305, 2702.695
286.1126, 2703.293
286.5947, 2688.652
287.0768, 2686.734
287.5589, 2700.983
288.0410, 2722.717
288.5232, 2738.957
289.0053, 2749.776
289.4874, 2759.338
289.9695, 2767.475
290.4516, 2775.535
290.9337, 2791.130
291.4159, 2816.123
291.8980, 2843.706
292.3801, 2862.681
292.8622, 2874.447
293.3443, 2890.708
293.8264, 2926.165
294.3086, 2970.565
294.7907, 2991.248
295.2728, 2984.081
295.7549, 2968.268
296.2370, 2964.288
296.7191, 2971.088
297.2013, 2984.534
297.6834, 3005.437
298.1655, 3030.964
298.6476, 3055.045
299.1297, 3077.070
299.6118, 3099.741
300.0940, 3128.397
300.5761, 3160.267
301.0582, 3187.227
301.5403, 3200.623
302.0224, 3208.401
302.5045, 3221.493
302.9867, 3240.374
303.4688, 3261.799
303.9509, 3285.730
304.4330, 3310.154
304.9151, 3331.616
305.3972, 3346.610
305.8794, 3358.663
306.3615, 3369.879
306.8436, 3380.434
307.3257, 3393.322
307.8078, 3412.733
308.2899, 3435.651
308.7721, 3457.230
309.2542, 3474.473
309.7363, 3490.453
310.2184, 3509.213
310.7005, 3530.384
311.1826, 3546.955
311.6648, 3543.672
312.1469, 3537.145
312.6290, 3546.161
313.1111, 3597.532
313.5932, 3647.676
314.0753, 3671.862
314.5575, 3672.332
315.0396, 3666.887
315.5217, 3651.813
316.0038, 3640.798
316.4859, 3645.640
316.9680, 3678.506
317.4502, 3718.256
317.9323, 3765.152
318.4144, 3815.118
318.8965, 3850.119
319.3786, 3844.990
319.8607, 3834.286
320.3429, 3841.261
320.8250, 3883.993
321.3071, 3926.766
321.7892, 3964.498
322.2713, 3995.734
322.7534, 4015.423
323.2356, 4004.660
323.7177, 3994.897
324.1998, 4002.333
324.6819, 4039.899
325.1640, 4076.591
325.6461, 4107.288
326.1283, 4134.250
326.6104, 4162.379
327.0925, 4203.516
327.5746, 4236.162
328.0567, 4250.679
328.5388, 4231.055
329.0210, 4226.230
329.5031, 4245.480
329.9852, 4277.462
330.4673, 4303.679
330.9494, 4325.505
331.4315, 4339.818
331.9137, 4342.092
332.3958, 4324.931
332.8779, 4326.061
333.3600, 4356.953
333.8421, 4398.337
334.3242, 4426.241
334.8064, 4438.419
335.2885, 4440.121
335.7706, 4427.680
336.2527, 4399.347
336.7348, 4388.850
337.2169, 4405.350
337.6991, 4427.272
338.1812, 4430.623
338.6633, 4409.348
339.1454, 4390.479
339.6275, 4381.148
340.1096, 4379.733
340.5918, 4372.455
341.0739, 4358.524
341.5560, 4340.833
342.0381, 4320.536
342.5202, 4297.444
343.0023, 4277.511
343.4845, 4263.813
343.9666, 4253.099
344.4487, 4236.705
344.9308, 4214.636
345.4129, 4185.947
345.8951, 4144.542
346.3772, 4092.999
346.8593, 4054.452
347.3414, 4034.396
347.8235, 4024.399
348.3056, 4012.871
348.7878, 3999.279
349.2699, 3978.128
349.7520, 3941.053
350.2341, 3893.859
350.7162, 3851.698
351.1983, 3815.985
351.6805, 3785.831
352.1626, 3765.877
352.6447, 3752.319
353.1268, 3732.440
353.6089, 3692.064
354.0910, 3644.379
354.5732, 3606.157
355.0553, 3578.584
355.5374, 3558.641
356.0195, 3549.326
356.5016, 3545.327
356.9837, 3536.991
357.4659, 3519.907
357.9480, 3497.443
358.4301, 3470.808
358.9122, 3440.239
359.3943, 3409.743
359.8764, 3377.801
360.3586, 3348.578
360.8407, 3326.948
361.3228, 3322.525
361.8049, 3318.585
362.2870, 3307.053
362.7691, 3288.988
363.2513, 3271.463
363.7334, 3260.538
364.2155, 3248.671
364.6976, 3230.440
365.1797, 3194.149
365.6618, 3164.931
366.1440, 3151.935
366.6261, 3150.227
367.1082, 3144.434
367.5903, 3126.541
368.0724, 3108.917
368.5545, 3096.714
369.0367, 3092.172
369.5188, 3090.063
370.0009, 3098.197
370.4830, 3107.030
370.9651, 3098.572
371.4472, 3053.367
371.9294, 3016.245
372.4115, 3001.743
372.8936, 3014.974
373.3757, 3024.696
373.8578, 3029.997
374.3399, 3032.543
374.8221, 3034.581
375.3042, 3037.376
375.7863, 3035.702
376.2684, 3027.336
376.7505, 3012.780
377.2326, 2997.773
377.7148, 2981.246
378.1969, 2967.683
378.6790, 2962.642
379.1611, 2966.714
379.6432, 2970.446
380.1253, 2973.555
380.6075, 2974.388
381.0896, 2967.458
381.5717, 2952.434
382.0538, 2934.994
382.5359, 2916.060
383.0180, 2897.104
383.5002, 2884.611
383.9823, 2880.482
384.4644, 2880.115
384.9465, 2880.701
385.4286, 2880.731
385.9107, 2873.074
386.3929, 2842.575
386.8750, 2805.602
387.3571, 2790.250
387.8392, 2799.532
388.3213, 2815.100
388.8034, 2826.366
389.2856, 2832.083
389.7677, 2830.463
390.2498, 2819.733
390.7319, 2802.094
391.2140, 2773.066
391.6961, 2734.574
392.1783, 2706.133
392.6604, 2709.498
393.1425, 2723.521
393.6246, 2727.848
394.1067, 2705.526
394.5888, 2687.647
395.0710, 2693.931
395.5531, 2715.880
396.0352, 2725.080
396.5173, 2701.067
396.9994, 2671.297
397.4815, 2650.149
397.9637, 2643.261
398.4458, 2635.969
398.9279, 2625.241
399.4100, 2613.328
399.8921, 2604.185
400.3742, 2601.604
400.8564, 2597.831
401.3385, 2590.963
401.8206, 2580.792
402.3027, 2569.211
402.7848, 2554.359
403.2669, 2539.810
403.7491, 2529.708
404.2312, 2526.313
404.7133, 2521.707
405.1954, 2514.458
405.6775, 2504.951
406.1596, 2494.307
406.6418, 2481.723
407.1239, 2470.308
407.6060, 2464.985
408.0881, 2466.301
408.5702, 2457.086
409.0523, 2431.884
409.5345, 2401.024
410.0166, 2386.533
410.4987, 2387.738
410.9808, 2387.473
411.4629, 2372.686
411.9450, 2349.204
412.4272, 2336.852
412.9093, 2337.683
413.3914, 2339.411
413.8735, 2325.351
414.3556, 2301.615
414.8377, 2284.582
415.3199, 2287.598
415.8020, 2295.574
416.2841, 2289.355
416.7662, 2270.433
417.2483, 2253.179
417.7304, 2250.492
418.2126, 2252.367
418.6947, 2247.491
419.1768, 2227.824
419.6589, 2209.846
420.1410, 2202.656
420.6231, 2203.629
421.1053, 2205.955
421.5874, 2211.892
422.0695, 2214.874
422.5516, 2210.508
423.0337, 2195.835
423.5158, 2182.618
423.9980, 2170.912
424.4801, 2162.444
424.9622, 2159.464
425.4443, 2169.242
425.9264, 2176.785
426.4085, 2178.680
426.8907, 2174.942
427.3728, 2173.259
427.8549, 2177.217
428.3370, 2179.224
428.8191, 2172.000
429.3012, 2148.254
429.7834, 2137.078
430.2655, 2145.324
430.7476, 2165.022
431.2297, 2174.518
431.7118, 2172.287
432.1939, 2166.785
432.6761, 2160.334
433.1582, 2153.058
433.6403, 2152.306
434.1224, 2159.494
434.6045, 2168.093
435.0866, 2170.770
435.5688, 2167.779
436.0509, 2160.316
436.5330, 2143.383
437.0151, 2125.389
437.4972, 2125.097
437.9793, 2141.097
438.4615, 2157.949
438.9436, 2164.861
439.4257, 2164.927
439.9078, 2162.201
440.3899, 2156.397
440.8720, 2150.583
441.3542, 2148.120
441.8363, 2147.525
442.3184, 2145.479
442.8005, 2133.520
443.2826, 2125.139
443.7647, 2132.694
444.2469, 2160.482
444.7290, 2178.774
445.2111, 2167.580
445.6932, 2146.816
446.1753, 2135.801
446.6574, 2147.400
447.1396, 2158.273
447.6217, 2164.893
448.1038, 2167.318
448.5859, 2167.301
449.0680, 2162.017
449.5501, 2157.150
450.0323, 2156.650
450.5144, 2166.939
450.9965, 2164.874
451.4786, 2142.832
451.9607, 2114.709
452.4428, 2104.591
452.9250, 2115.219
453.4071, 2133.938
453.8892, 2161.092
454.3713, 2194.199
454.8534, 2213.563
455.3355, 2218.016
455.8177, 2214.857
456.2998, 2208.333
456.7819, 2199.241
457.2640, 2191.779
457.7462, 2186.234
458.2283, 2183.511
458.7104, 2186.890
459.1925, 2195.123
459.6746, 2202.428
460.1567, 2202.875
460.6389, 2201.765
461.1210, 2207.281
461.6031, 2221.217
462.0852, 2232.669
462.5673, 2231.323
463.0494, 2224.280
463.5316, 2220.803
464.0137, 2232.241
464.4958, 2240.389
464.9779, 2231.652
465.4600, 2209.796
465.9421, 2200.147
466.4243, 2221.775
466.9064, 2247.699
467.3885, 2262.661
467.8706, 2253.452
468.3527, 2254.062
468.8348, 2274.125
469.3170, 2300.717
469.7991, 2312.293
470.2812, 2299.123
470.7633, 2288.045
471.2454, 2286.133
471.7275, 2293.186
472.2097, 2302.116
472.6918, 2313.775
473.1739, 2325.414
473.6560, 2333.421
474.1381, 2337.712
474.6202, 2348.464
475.1024, 2369.709
475.5845, 2393.880
476.0666, 2405.862
476.5487, 2406.677
477.0308, 2405.770
477.5129, 2406.664
477.9951, 2409.657
478.4772, 2416.519
478.9593, 2427.454
479.4414, 2437.507
479.9235, 2435.052
480.4056, 2430.775
480.8878, 2441.687
481.3699, 2488.586
481.8520, 2533.238
482.3341, 2547.128
482.8162, 2539.082
483.2983, 2537.706
483.7805, 2561.578
484.2626, 2589.005
484.7447, 2607.104
485.2268, 2609.927
485.7089, 2619.411
486.1910, 2643.958
486.6732, 2674.141
487.1553, 2700.026
487.6374, 2723.705
488.1195, 2739.746
488.6016, 2743.650
489.0837, 2738.201
489.5659, 2741.894
490.0480, 2758.651
490.5301, 2775.668
491.0122, 2781.857
491.4943, 2775.220
491.9764, 2786.330
492.4586, 2819.918
492.9407, 2863.018
493.4228, 2903.663
493.9049, 2940.607
494.3870, 2965.260
494.8691, 2968.099
495.3513, 2960.354
495.8334, 2961.687
496.3155, 2971.574
496.7976, 2985.310
497.2797, 3000.541
497.7618, 3017.295
498.2440, 3036.376
498.7261, 3058.526
499.2082, 3080.349
499.6903, 3100.803
500.1724, 3119.266
500.6545, 3134.118
501.1367, 3140.395
501.6188, 3147.511
502.1009, 3159.254
502.5830, 3175.689
503.0651, 3192.773
503.5472, 3209.532
504.0294, 3227.207
504.5115, 3247.031
504.9936, 3275.320
505.4757, 3293.347
505.9578, 3293.533
506.4399, 3288.395
506.9221, 3302.840
507.4042, 3342.923
507.8863, 3381.424
508.3684, 3410.340
508.8505, 3430.271
509.3326, 3446.783
509.8148, 3459.397
510.2969, 3471.808
510.7790, 3484.311
511.2611, 3498.632
511.7432, 3523.646
512.2253, 3564.184
512.7075, 3604.982
513.1896, 3622.793
513.6717, 3626.211
514.1538, 3636.924
514.6359, 3670.005
515.1180, 3710.909
515.6002, 3752.517
516.0823, 3793.553
516.5644, 3825.624
517.0465, 3833.659
517.5286, 3838.299
518.0107, 3855.757
518.4929, 3905.183
518.9750, 3940.644
519.4571, 3942.932
519.9392, 3929.581
520.4213, 3932.540
520.9034, 3960.256
521.3856, 3992.722
521.8677, 4031.212
522.3498, 4074.194
522.8319, 4089.297
523.3140, 4065.544
523.7961, 4039.878
524.2783, 4045.829
524.7604, 4083.734
525.2425, 4099.811
525.7246, 4085.543
526.2067, 4058.573
526.6888, 4044.661
527.1710, 4041.662
527.6531, 4039.303
528.1352, 4036.534
528.6173, 4030.067
529.0994, 4014.549
529.5815, 3990.613
530.0637, 3962.284
530.5458, 3930.748
531.0279, 3896.997
531.5100, 3859.975
531.9921, 3816.196
532.4742, 3780.322
532.9564, 3767.562
533.4385, 3763.563
533.9206, 3748.867
534.4027, 3708.539
534.8848, 3669.352
535.3669, 3638.292
535.8491, 3614.403
536.3312, 3584.474
536.8133, 3545.431
537.2954, 3505.434
537.7775, 3468.783
538.2596, 3435.910
538.7418, 3405.419
539.2239, 3377.762
539.7060, 3352.260
540.1881, 3327.237
540.6702, 3302.954
541.1523, 3283.651
541.6345, 3272.885
542.1166, 3264.893
542.5987, 3247.364
543.0808, 3221.652
543.5629, 3197.672
544.0450, 3185.999
544.5272, 3176.526
545.0093, 3153.982
545.4914, 3114.841
545.9735, 3084.858
546.4556, 3089.815
546.9377, 3106.341
547.4199, 3110.530
547.9020, 3087.528
548.3841, 3061.645
548.8662, 3034.733
549.3483, 3008.365
549.8304, 2987.593
550.3126, 2982.036
550.7947, 2969.828
551.2768, 2941.427
551.7589, 2895.881
552.2410, 2858.476
552.7231, 2828.960
553.2053, 2808.156
553.6874, 2802.358
554.1695, 2811.392
554.6516, 2805.746
555.1337, 2778.526
555.6158, 2742.595
556.0980, 2717.277
556.5801, 2700.219
557.0622, 2681.642
557.5443, 2660.990
558.0264, 2634.002
558.5085, 2589.941
558.9907, 2531.246
559.4728, 2480.241
559.9549, 2452.902
560.4370, 2435.609
560.9191, 2419.185
561.4012, 2403.757
561.8834, 2384.281
562.3655, 2352.846
562.8476, 2318.804
563.3297, 2295.719
563.8118, 2300.092
564.2939, 2291.361
564.7761, 2257.279
565.2582, 2205.649
565.7403, 2171.196
566.2224, 2158.097
566.7045, 2151.151
567.1866, 2144.846
567.6688, 2139.083
568.1509, 2129.550
568.6330, 2116.199
569.1151, 2099.774
569.5972, 2079.712
570.0793, 2057.184
570.5615, 2033.894
571.0436, 2008.460
571.5257, 1987.331
572.0078, 1979.906
572.4899, 1982.011
572.9720, 1984.396
573.4542, 1986.323
573.9363, 1984.410
574.4184, 1976.272
574.9005, 1961.997
575.3826, 1945.211
575.8647, 1922.450
576.3469, 1900.531
576.8290, 1883.390
577.3111, 1872.941
577.7932, 1862.519
578.2753, 1851.968
578.7574, 1841.590
579.2396, 1831.520
579.7217, 1821.225
580.2038, 1814.825
580.6859, 1815.278
581.1680, 1818.417
581.6501, 1812.721
582.1323, 1798.623
582.6144, 1783.670
583.0965, 1774.264
583.5786, 1766.261
584.0607, 1749.334
584.5428, 1723.092
585.0250, 1703.951
585.5071, 1712.469
585.9892, 1729.903
586.4713, 1736.004
586.9534, 1719.016
587.4355, 1703.604
587.9177, 1699.701
588.3998, 1701.889
588.8819, 1701.310
589.3640, 1697.479
589.8461, 1689.938
590.3282, 1675.697
590.8104, 1656.574
591.2925, 1646.308
591.7746, 1647.215
592.2567, 1650.658
592.7388, 1652.959
593.2209, 1654.063
593.7031, 1651.722
594.1852, 1645.427
594.6673, 1638.254
595.1494, 1632.456
595.6315, 1628.255
596.1136, 1626.870
596.5958, 1630.342
597.0779, 1633.084
597.5600, 1628.165
598.0421, 1618.682
598.5242, 1611.398
599.0063, 1609.891
599.4885, 1610.583
599.9706, 1611.248
600.4527, 1612.077
600.9348, 1616.752
601.4169, 1633.830
601.8990, 1647.873
602.3812, 1650.332
602.8633, 1635.773
603.3454, 1630.254
603.8275, 1637.883
604.3096, 1648.082
604.7917, 1647.714
605.2739, 1636.324
605.7560, 1627.344
606.2381, 1623.489
606.7202, 1622.932
607.2023, 1622.602
607.6844, 1622.823
608.1666, 1624.942
608.6487, 1630.986
609.1308, 1638.416
609.6129, 1645.287
610.0950, 1651.438
610.5771, 1655.785
611.0593, 1657.967
611.5414, 1658.117
612.0235, 1655.760
612.5056, 1649.398
612.9877, 1645.048
613.4698, 1645.823
613.9520, 1647.313
614.4341, 1644.413
614.9162, 1631.094
615.3983, 1629.228
615.8804, 1644.935
616.3625, 1669.780
616.8447, 1684.576
617.3268, 1689.056
617.8089, 1691.569
618.2910, 1693.721
618.7731, 1696.971
619.2552, 1708.482
619.7374, 1726.519
620.2195, 1737.487
620.7016, 1724.401
621.1837, 1703.631
621.6658, 1692.869
622.1479, 1695.259
622.6301, 1698.188
623.1122, 1691.195
623.5943, 1684.993
624.0764, 1689.296
624.5585, 1719.519
625.0406, 1742.362
625.5228, 1755.917
626.0049, 1761.685
626.4870, 1760.451
626.9691, 1747.927
627.4512, 1742.565
627.9333, 1751.791
628.4155, 1770.953
628.8976, 1783.284
629.3797, 1788.789
629.8618, 1792.096
630.3439, 1794.883
630.8260, 1797.823
631.3082, 1803.760
631.7903, 1812.832
632.2724, 1818.154
632.7545, 1808.461
633.2366, 1795.950
633.7188, 1793.055
634.2009, 1807.386
634.6830, 1820.743
635.1651, 1829.262
635.6472, 1833.829
636.1293, 1835.856
636.6115, 1834.917
637.0936, 1832.242
637.5757, 1827.119
638.0578, 1820.761
638.5399, 1816.692
639.0220, 1814.845
639.5042, 1816.004
639.9863, 1822.728
640.4684, 1832.574
640.9505, 1836.473
641.4326, 1834.535
641.9147, 1830.556
642.3969, 1824.949
642.8790, 1819.939
643.3611, 1818.597
643.8432, 1821.640
644.3253, 1826.239
644.8074, 1832.537
645.2896, 1838.897
645.7717, 1843.858
646.2538, 1845.845
646.7359, 1848.046
647.2180, 1851.476
647.7001, 1854.966
648.1823, 1855.945
648.6644, 1853.338
649.1465, 1851.894
649.6286, 1854.489
650.1107, 1858.435
650.5928, 1849.616
651.0750, 1828.416
651.5571, 1816.405
652.0392, 1837.614
652.5213, 1872.243
653.0034, 1885.486
653.4855, 1876.764
653.9677, 1865.979
654.4498, 1863.611
654.9319, 1866.496
655.4140, 1872.371
655.8961, 1881.986
656.3782, 1891.670
656.8604, 1907.734
657.3425, 1919.537
657.8246, 1914.004
658.3067, 1873.195
658.7888, 1854.197
659.2709, 1869.646
659.7531, 1903.803
660.2352, 1924.822
660.7173, 1932.342
661.1994, 1934.494
661.6815, 1933.809
662.1636, 1929.864
662.6458, 1918.454
663.1279, 1901.509
663.6100, 1889.605
664.0921, 1892.047
664.5742, 1900.325
665.0563, 1908.920
665.5385, 1917.448
666.0206, 1922.787
666.5027, 1920.199
666.9848, 1916.697
667.4669, 1918.423
667.9490, 1933.853
668.4312, 1932.488
668.9133, 1905.087
669.3954, 1872.421
669.8775, 1858.743
670.3596, 1865.454
670.8417, 1872.446
671.3239, 1876.214
671.8060, 1879.268
672.2881, 1888.123
672.7702, 1900.125
673.2523, 1906.159
673.7344, 1897.482
674.2166, 1885.647
674.6987, 1878.662
675.1808, 1876.331
675.6629, 1878.053
676.1450, 1892.667
676.6271, 1902.897
677.1093, 1897.715
677.5914, 1875.941
678.0735, 1863.776
678.5556, 1867.541
679.0377, 1871.706
679.5198, 1866.156
680.0020, 1849.736
680.4841, 1839.969
680.9662, 1838.306
681.4483, 1836.910
681.9304, 1825.188
682.4125, 1807.357
682.8947, 1795.747
683.3768, 1793.712
683.8589, 1793.994
684.3410, 1790.405
684.8231, 1785.287
685.3052, 1781.904
685.7874, 1784.819
686.2695, 1785.708
686.7516, 1780.304
687.2337, 1771.379
687.7158, 1766.852
688.1979, 1771.282
688.6801, 1771.395
689.1622, 1762.265
689.6443, 1746.261
690.1264, 1734.111
690.6085, 1725.806
691.0906, 1719.596
691.5728, 1715.685
692.0549, 1712.806
692.5370, 1707.965
693.0191, 1701.229
693.5012, 1694.859
693.9833, 1688.827
694.4655, 1684.843
694.9476, 1686.000
695.4297, 1695.395
695.9118, 1698.772
696.3939, 1687.597
696.8760, 1672.488
697.3582, 1661.744
697.8403, 1656.473
698.3224, 1653.193
698.8045, 1652.303
699.2866, 1652.668
699.7687, 1652.958
700.2509, 1653.131
700.7330, 1652.788
701.2151, 1652.070
701.6972, 1650.215
702.1793, 1646.143
702.6614, 1640.012
703.1436, 1632.417
703.6257, 1617.077
704.1078, 1606.341
704.5899, 1612.506
705.0720, 1630.639
705.5541, 1639.284
706.0363, 1622.094
706.5184, 1608.245
707.0005, 1608.013
707.4826, 1620.585
707.9647, 1626.875
708.4468, 1626.135
708.9290, 1622.452
709.4111, 1616.973
709.8932, 1610.531
710.3753, 1607.624
710.8574, 1608.468
711.3395, 1609.558
711.8217, 1606.869
712.3038, 1603.327
712.7859, 1602.145
713.2680, 1603.802
713.7501, 1608.089
714.2322, 1619.317
714.7144, 1630.872
715.1965, 1635.452
715.6786, 1624.059
716.1607, 1621.867
716.6428, 1633.790
717.1249, 1650.990
717.6071, 1658.909
718.0892, 1657.133
718.5713, 1656.393
719.0534, 1659.337
719.5355, 1664.279
720.0176, 1669.397
720.4998, 1674.416
720.9819, 1678.633
721.4640, 1680.427
721.9461, 1682.555
722.4282, 1686.616
722.9103, 1692.480
723.3925, 1699.605
723.8746, 1709.903
724.3567, 1719.374
724.8388, 1727.637
725.3209, 1734.436
725.8030, 1734.919
726.2852, 1726.180
726.7673, 1720.645
727.2494, 1726.943
727.7315, 1742.771
728.2136, 1755.914
728.6957, 1766.297
729.1779, 1778.964
729.6600, 1804.907
730.1421, 1831.184
730.6242, 1839.739
731.1063, 1825.401
731.5884, 1816.341
732.0706, 1827.374
732.5527, 1845.857
733.0348, 1861.764
733.5169, 1873.390
733.9990, 1885.523
734.4811, 1898.714
734.9633, 1911.925
735.4454, 1924.592
735.9275, 1936.712
736.4096, 1943.790
736.8917, 1943.453
737.3738, 1943.155
737.8560, 1955.426
738.3381, 1974.512
738.8202, 1987.947
739.3023, 1983.964
739.7844, 1983.193
740.2665, 2001.539
740.7487, 2030.125
741.2308, 2050.400
741.7129, 2051.922
742.1950, 2054.545
742.6771, 2061.033
743.1592, 2070.835
743.6414, 2082.504
744.1235, 2096.274
744.6056, 2110.803
745.0877, 2126.762
745.5698, 2142.464
746.0519, 2151.625
746.5341, 2156.198
747.0162, 2166.307
747.4983, 2198.510
747.9804, 2229.987
748.4625, 2239.382
748.9446, 2227.685
749.4268, 2223.420
749.9089, 2246.707
750.3910, 2265.448
750.8731, 2264.940
751.3552, 2243.595
751.8373, 2228.448
752.3195, 2219.173
752.8016, 2217.135
753.2837, 2226.029
753.7658, 2243.180
754.2479, 2259.099
754.7300, 2273.401
755.2122, 2286.786
755.6943, 2302.542
756.1764, 2316.383
756.6585, 2322.639
757.1406, 2318.005
757.6227, 2314.844
758.1049, 2317.774
758.5870, 2322.516
759.0691, 2325.374
759.5512, 2324.365
760.0333, 2326.934
760.5154, 2334.551
760.9976, 2343.124
761.4797, 2349.216
761.9618, 2352.469
762.4439, 2349.302
762.9260, 2336.928
763.4081, 2325.836
763.8903, 2331.494
764.3724, 2344.156
764.8545, 2348.927
765.3366, 2332.132
765.8187, 2318.965
766.3008, 2318.517
766.7830, 2325.219
767.2651, 2329.243
767.7472, 2329.117
768.2293, 2329.637
768.7114, 2331.641
769.1935, 2334.450
769.6757, 2336.686
770.1578, 2338.340
770.6399, 2339.653
771.1220, 2339.550
771.6041, 2340.564
772.0862, 2349.268
772.5684, 2361.464
773.0505, 2366.690
773.5326, 2355.509
774.0147, 2342.278
774.4968, 2328.922
774.9789, 2317.299
775.4611, 2315.752
775.9432, 2330.240
776.4253, 2340.529
776.9074, 2338.653
777.3895, 2328.094
777.8716, 2319.735
778.3538, 2313.844
778.8359, 2313.839
779.3180, 2329.670
779.8001, 2347.174
780.2822, 2345.969
780.7643, 2329.904
781.2465, 2322.695
781.7286, 2346.061
782.2107, 2369.486
782.6928, 2377.244
783.1749, 2369.808
783.6570, 2363.873
784.1392, 2359.788
784.6213, 2356.201
785.1034, 2351.480
785.5855, 2346.343
786.0676, 2346.508
786.5497, 2351.815
787.0319, 2356.063
787.5140, 2350.841
787.9961, 2344.632
788.4782, 2349.279
788.9603, 2365.922
789.4424, 2376.587
789.9246, 2368.931
790.4067, 2358.311
790.8888, 2353.856
791.3709, 2356.924
791.8530, 2357.576
792.3351, 2354.824
792.8173, 2352.621
793.2994, 2354.543
793.7815, 2359.761
794.2636, 2366.531
794.7457, 2374.949
795.2278, 2377.300
795.7100, 2358.658
796.1921, 2336.005
796.6742, 2328.367
797.1563, 2342.937
797.6384, 2352.564
798.1205, 2346.852
798.6027, 2337.085
799.0848, 2329.958
799.5669, 2324.827
800.0490, 2325.009
800.5311, 2331.432
801.0132, 2339.809
801.4954, 2346.361
801.9775, 2351.367
802.4596, 2355.649
802.9417, 2359.242
803.4238, 2362.415
803.9059, 2365.343
804.3881, 2367.886
804.8702, 2369.856
805.3523, 2370.849
805.8344, 2372.425
806.3165, 2378.342
806.7986, 2381.433
807.2808, 2371.264
807.7629, 2344.649
808.2450, 2337.306
808.7271, 2355.572
809.2092, 2377.901
809.6913, 2379.824
810.1735, 2367.370
810.6556, 2349.686
811.1377, 2324.488
811.6198, 2309.830
812.1019, 2329.664
812.5840, 2358.158
813.0662, 2368.054
813.5483, 2342.515
814.0304, 2319.575
814.5125, 2297.158
814.9946, 2279.654
815.4767, 2274.908
815.9589, 2282.123
816.4410, 2285.733
816.9231, 2283.578
817.4052, 2277.535
817.8873, 2265.907
818.3694, 2253.124
818.8516, 2246.528
819.3337, 2252.403
819.8158, 2254.935
820.2979, 2247.854
820.7800, 2235.307
821.2621, 2221.329
821.7443, 2203.011
822.2264, 2192.098
822.7085, 2190.816
823.1906, 2193.709
823.6727, 2195.980
824.1548, 2196.600
824.6370, 2190.915
825.1191, 2176.706
825.6012, 2161.082
826.0833, 2147.185
826.5654, 2136.447
827.0475, 2130.726
827.5297, 2136.927
828.0118, 2137.504
828.4940, 2127.792
828.9761, 2114.921
829.4582, 2107.489
829.9403, 2106.197
830.4224, 2103.010
830.9045, 2097.068
831.3867, 2089.348
831.8688, 2078.865
832.3509, 2067.934
832.8330, 2062.058
833.3151, 2064.240
833.7972, 2066.002
834.2794, 2061.955
834.7615, 2055.926
835.2436, 2052.292
835.7257, 2055.027
836.2078, 2051.816
836.6899, 2039.637
837.1721, 2026.098
837.6542, 2021.664
838.1363, 2024.487
838.6184, 2021.646
839.1005, 2010.171
839.5826, 1999.150
840.0648, 1998.462
840.5469, 2002.479
841.0290, 2004.436
841.5111, 2002.097
841.9932, 1999.546
842.4753, 1994.664
842.9575, 1992.115
843.4396, 1998.004
843.9217, 2015.561
844.4038, 2020.875
844.8859, 2011.045
845.3680, 1996.764
845.8502, 1988.748
846.3323, 1984.835
846.8144, 1980.851
847.2965, 1976.071
847.7786, 1971.438
848.2607, 1964.420
848.7429, 1959.771
849.2250, 1962.822
849.7071, 1978.937
850.1892, 1987.481
850.6713, 1985.897
851.1534, 1981.756
851.6356, 1981.800
852.1177, 1985.250
852.5998, 1986.565
853.0819, 1985.283
853.5640, 1984.708
854.0461, 1991.134
854.5283, 1997.479
855.0104, 1994.464
855.4925, 1978.006
855.9746, 1969.385
856.4567, 1979.541
856.9388, 1991.165
857.4210, 1993.587
857.9031, 1985.747
858.3852, 1987.262
858.8673, 1999.669
859.3494, 2007.947
859.8315, 1991.065
860.3137, 1966.014
860.7958, 1962.615
861.2779, 1981.773
861.7600, 1999.636
862.2421, 2007.330
862.7242, 2007.962
863.2064, 1999.028
863.6885, 1980.657
864.1706, 1974.950
864.6527, 1985.451
865.1348, 1997.967
865.6169, 2004.481
866.0991, 2006.600
866.5812, 2010.278
867.0633, 2015.109
867.5454, 2018.522
868.0275, 2017.752
868.5096, 2015.971
868.9918, 2016.390
869.4739, 2018.598
869.9560, 2016.330
870.4381, 2005.064
870.9202, 1996.346
871.4023, 1994.601
871.8845, 1998.037
872.3666, 1998.546
872.8487, 1996.471
873.3308, 1996.427
873.8129, 2002.969
874.2950, 2010.872
874.7772, 2015.350
875.2593, 2016.575
875.7414, 2015.012
876.2235, 2002.482
876.7056, 1997.583
877.1877, 2010.246
877.6699, 2030.887
878.1520, 2032.120
878.6341, 2011.730
879.1162, 1997.356
879.5983, 1997.442
880.0804, 2006.272
880.5626, 2021.601
881.0447, 2038.595
881.5268, 2046.830
882.0089, 2033.883
882.4910, 2022.549
882.9731, 2023.022
883.4553, 2028.447
883.9374, 2028.924
884.4195, 2023.435
884.9016, 2015.423
885.3837, 2003.324
885.8658, 1993.848
886.3480, 1999.782
886.8301, 2015.737
887.3122, 2027.522
887.7943, 2031.053
888.2764, 2033.071
888.7585, 2039.851
889.2407, 2045.903
889.7228, 2044.544
890.2049, 2029.153
890.6870, 2022.333
891.1691, 2026.727
891.6512, 2034.222
892.1334, 2036.579
892.6155, 2035.139
893.0976, 2036.465
893.5797, 2041.027
894.0618, 2046.923
894.5439, 2057.212
895.0261, 2065.022
895.5082, 2062.589
895.9903, 2046.966
896.4724, 2037.602
896.9545, 2036.411
897.4366, 2040.656
897.9188, 2051.173
898.4009, 2066.721
898.8830, 2077.426
899.3651, 2083.286
899.8472, 2084.416
900.3293, 2075.930
900.8115, 2066.369
901.2936, 2065.028
901.7757, 2070.757
902.2578, 2075.586
902.7399, 2076.190
903.2220, 2076.835
903.7042, 2076.947
904.1863, 2078.170
904.6684, 2087.316
905.1505, 2104.116
905.6326, 2124.917
906.1147, 2152.582
906.5969, 2177.260
907.0790, 2185.361
907.5611, 2181.894
908.0432, 2177.601
908.5253, 2175.473
909.0074, 2173.710
909.4896, 2171.051
909.9717, 2169.229
910.4538, 2170.947
910.9359, 2176.327
911.4180, 2184.325
911.9001, 2195.688
912.3823, 2206.281
912.8644, 2210.728
913.3465, 2211.409
913.8286, 2211.004
914.3107, 2207.696
914.7928, 2210.467
915.2750, 2229.771
915.7571, 2250.441
916.2392, 2260.688
916.7213, 2258.827
917.2034, 2255.247
917.6855, 2249.174
918.1677, 2246.569
918.6498, 2255.734
919.1319, 2270.365
919.6140, 2280.616
920.0961, 2285.808
920.5782, 2290.429
921.0604, 2295.050
921.5425, 2300.883
922.0246, 2308.963
922.5067, 2319.015
922.9888, 2328.394
923.4709, 2337.413
923.9531, 2343.228
924.4352, 2345.357
924.9173, 2342.781
925.3994, 2327.324
925.8815, 2304.964
926.3636, 2293.766
926.8458, 2307.854
927.3279, 2327.714
927.8100, 2352.263
928.2921, 2376.209
928.7742, 2387.789
929.2563, 2384.198
929.7385, 2382.528
930.2206, 2385.959
930.7027, 2393.051
931.1848, 2403.738
931.6669, 2416.072
932.1490, 2425.804
932.6312, 2429.438
933.1133, 2436.517
933.5954, 2458.250
934.0775, 2479.847
934.5596, 2486.911
935.0417, 2473.519
935.5239, 2471.080
936.0060, 2480.772
936.4881, 2496.859
936.9702, 2521.661
937.4523, 2546.278
937.9344, 2551.693
938.4166, 2537.368
938.8987, 2526.459
939.3808, 2530.286
939.8629, 2539.555
940.3450, 2551.599
940.8271, 2565.618
941.3093, 2573.656
941.7914, 2574.452
942.2735, 2578.647
942.7556, 2593.848
943.2377, 2612.468
943.7198, 2618.159
944.2020, 2616.552
944.6841, 2622.745
945.1662, 2660.133
945.6483, 2685.444
946.1304, 2675.759
946.6125, 2651.323
947.0947, 2640.934
947.5768, 2645.615
948.0589, 2657.888
948.5410, 2679.227
949.0231, 2698.351
949.5052, 2696.836
949.9874, 2686.076
950.4695, 2685.303
950.9516, 2702.756
951.4337, 2712.604
951.9158, 2695.381
952.3979, 2678.680
952.8801, 2680.727
953.3622, 2703.093
953.8443, 2718.674
954.3264, 2727.468
954.8085, 2730.887
955.2906, 2723.143
955.7728, 2714.873
956.2549, 2721.659
956.7370, 2741.147
957.2191, 2757.563
957.7012, 2773.043
958.1833, 2773.918
958.6655, 2746.542
959.1476, 2707.003
959.6297, 2709.989
960.1118, 2753.151
960.5939, 2784.025
961.0760, 2782.656
961.5582, 2769.210
962.0403, 2762.375
962.5224, 2757.893
963.0045, 2749.134
963.4866, 2717.589
963.9688, 2712.439
964.4509, 2751.145
964.9330, 2795.551
965.4151, 2808.141
965.8972, 2792.451
966.3793, 2778.934
966.8615, 2769.247
967.3436, 2766.241
967.8257, 2779.338
968.3078, 2794.414
968.7899, 2798.149
969.2720, 2789.493
969.7542, 2785.754
970.2363, 2789.644
970.7184, 2794.486
971.2005, 2798.250
971.6826, 2800.951
972.1647, 2805.699
972.6469, 2810.252
973.1290, 2804.821
973.6111, 2775.073
974.0932, 2746.563
974.5753, 2730.698
975.0574, 2726.412
975.5396, 2733.352
976.0217, 2758.600
976.5038, 2773.101
976.9859, 2772.747
977.4680, 2766.693
977.9501, 2765.597
978.4323, 2766.779
978.9144, 2764.823
979.3965, 2759.078
979.8786, 2749.156
980.3607, 2727.162
980.8428, 2708.253
981.3250, 2704.389
981.8071, 2714.680
982.2892, 2710.585
982.7713, 2690.667
983.2534, 2668.223
983.7355, 2647.032
984.2177, 2630.314
984.6998, 2629.701
985.1819, 2637.496
985.6640, 2633.735
986.1461, 2594.672
986.6282, 2565.124
987.1104, 2559.072
987.5925, 2561.053
988.0746, 2545.024
988.5567, 2511.753
989.0388, 2492.554
989.5209, 2493.431
990.0031, 2497.129
990.4852, 2485.038
990.9673, 2468.933
991.4494, 2463.960
991.9315, 2476.218
992.4136, 2471.106
992.8958, 2439.223
993.3779, 2404.468
993.8600, 2376.581
994.3421, 2355.836
994.8242, 2348.556
995.3063, 2351.502
995.7885, 2346.521
996.2706, 2313.764
996.7527, 2281.058
997.2348, 2268.408
997.7169, 2266.236
998.1990, 2250.358
998.6812, 2209.101
999.1633, 2195.352
999.6454, 2221.576
1000.128, 2258.711
1000.610, 2280.388
1001.092, 2284.278
1001.574, 2257.641
1002.056, 2193.776
1002.538, 2145.145
1003.020, 2146.513
1003.502, 2155.680
1003.984, 2149.097
1004.467, 2127.992
1004.949, 2115.181
1005.431, 2110.650
1005.913, 2111.854
1006.395, 2122.146
1006.877, 2133.051
1007.359, 2135.341
1007.841, 2131.128
1008.323, 2125.049
1008.806, 2116.907
1009.288, 2108.511
1009.770, 2099.648
1010.252, 2091.164
1010.734, 2085.351
1011.216, 2081.223
1011.698, 2073.144
1012.180, 2060.027
1012.663, 2048.795
1013.145, 2042.116
1013.627, 2040.722
1014.109, 2047.341
1014.591, 2061.784
1015.073, 2073.657
1015.555, 2085.650
1016.037, 2083.125
1016.519, 2051.253
1017.002, 2010.192
1017.484, 1996.435
1017.966, 2002.086
1018.448, 2008.405
1018.930, 2008.630
1019.412, 2008.319
1019.894, 2011.415
1020.376, 2012.275
1020.859, 2002.029
1021.341, 1980.720
1021.823, 1970.838
1022.305, 1974.671
1022.787, 1977.048
1023.269, 1957.158
1023.751, 1935.944
1024.233, 1935.246
1024.715, 1955.912
1025.198, 1970.801
1025.680, 1976.933
1026.162, 1980.478
1026.644, 1984.657
1027.126, 1985.773
1027.608, 1971.564
1028.090, 1947.157
1028.572, 1927.291
1029.054, 1916.730
1029.537, 1911.622
1030.019, 1912.422
1030.501, 1916.357
1030.983, 1921.147
1031.465, 1927.135
1031.947, 1932.659
1032.429, 1938.107
1032.911, 1938.685
1033.394, 1926.418
1033.876, 1910.494
1034.358, 1900.656
1034.840, 1896.820
1035.322, 1895.464
1035.804, 1899.971
1036.286, 1900.500
1036.768, 1894.334
1037.250, 1884.415
1037.733, 1874.256
1038.215, 1864.851
1038.697, 1860.117
1039.179, 1861.637
1039.661, 1864.788
1040.143, 1870.655
1040.625, 1873.855
1041.107, 1869.011
1041.589, 1855.411
1042.072, 1843.921
1042.554, 1834.216
1043.036, 1828.452
1043.518, 1829.968
1044.000, 1834.551
1044.482, 1838.483
1044.964, 1840.802
1045.446, 1839.096
1045.929, 1830.219
1046.411, 1819.931
1046.893, 1806.860
1047.375, 1795.482
1047.857, 1792.249
1048.339, 1795.842
1048.821, 1801.343
1049.303, 1808.296
1049.786, 1812.391
1050.268, 1807.629
1050.750, 1801.743
1051.232, 1800.788
1051.714, 1803.803
1052.196, 1803.536
1052.678, 1799.736
1053.160, 1794.427
1053.642, 1787.779
1054.125, 1781.044
1054.607, 1775.344
1055.089, 1770.738
1055.571, 1767.385
1056.053, 1766.444
1056.535, 1764.512
1057.017, 1761.272
1057.499, 1757.161
1057.981, 1750.977
1058.464, 1743.983
1058.946, 1744.393
1059.428, 1751.302
1059.910, 1757.012
1060.392, 1759.238
1060.874, 1756.984
1061.356, 1743.856
1061.838, 1727.504
1062.321, 1724.317
1062.803, 1736.092
1063.285, 1748.255
1063.767, 1759.306
1064.249, 1766.681
1064.731, 1767.684
1065.213, 1763.337
1065.695, 1751.901
1066.177, 1731.624
1066.660, 1723.797
1067.142, 1739.121
1067.624, 1747.727
1068.106, 1733.762
1068.588, 1708.073
1069.070, 1701.865
1069.552, 1709.319
1070.034, 1711.683
1070.516, 1696.216
1070.999, 1684.229
1071.481, 1691.390
1071.963, 1700.479
1072.445, 1694.122
1072.927, 1670.727
1073.409, 1657.046
1073.891, 1653.486
1074.373, 1653.040
1074.856, 1653.334
1075.338, 1652.183
1075.820, 1644.900
1076.302, 1634.244
1076.784, 1631.513
1077.266, 1641.178
1077.748, 1648.139
1078.230, 1650.537
1078.713, 1647.805
1079.195, 1636.753
1079.677, 1620.716
1080.159, 1603.591
1080.641, 1584.685
1081.123, 1576.700
1081.605, 1596.337
1082.087, 1613.760
1082.569, 1617.708
1083.052, 1610.895
1083.534, 1603.259
1084.016, 1595.031
1084.498, 1586.892
1084.980, 1578.337
1085.462, 1571.473
1085.944, 1569.599
1086.426, 1568.883
1086.909, 1564.144
1087.391, 1552.721
1087.873, 1551.253
1088.355, 1560.820
1088.837, 1569.296
1089.319, 1568.579
1089.801, 1561.594
1090.283, 1548.732
1090.766, 1532.130
1091.248, 1518.888
1091.730, 1507.296
1092.212, 1505.123
1092.694, 1515.803
1093.176, 1530.888
1093.658, 1543.342
1094.140, 1550.578
1094.622, 1542.421
1095.104, 1517.276
1095.587, 1498.673
1096.069, 1500.399
1096.551, 1506.603
1097.033, 1511.960
1097.515, 1516.457
1097.997, 1519.637
1098.479, 1521.696
1098.961, 1524.912
1099.444, 1531.337
1099.926, 1535.266
1100.408, 1530.733
1100.890, 1522.833
1101.372, 1515.256
1101.854, 1507.058
1102.336, 1510.231
1102.818, 1526.261
1103.301, 1538.036
1103.783, 1531.749
1104.265, 1518.577
1104.747, 1509.291
1105.229, 1503.598
1105.711, 1501.148
1106.193, 1504.754
1106.675, 1505.809
1107.157, 1502.139
1107.640, 1500.531
1108.122, 1513.686
1108.604, 1532.148
1109.086, 1532.180
1109.568, 1514.609
1110.050, 1499.865
1110.532, 1497.832
1111.014, 1497.637
1111.496, 1496.854
1111.979, 1495.290
1112.461, 1490.698
1112.943, 1484.404
1113.425, 1485.466
1113.907, 1496.528
1114.389, 1506.449
1114.871, 1506.123
1115.353, 1503.821
1115.836, 1506.656
1116.318, 1513.361
1116.800, 1509.274
1117.282, 1494.418
1117.764, 1485.097
1118.246, 1490.249
1118.728, 1498.188
1119.210, 1496.054
1119.693, 1490.994
1120.175, 1493.370
1120.657, 1508.537
1121.139, 1514.242
1121.621, 1509.199
1122.103, 1500.768
1122.585, 1490.995
1123.067, 1482.711
1123.549, 1481.320
1124.031, 1484.953
1124.514, 1488.599
1124.996, 1493.901
1125.478, 1493.478
1125.960, 1483.642
1126.442, 1474.556
1126.924, 1478.546
1127.406, 1491.425
1127.888, 1505.170
1128.371, 1518.350
1128.853, 1523.332
1129.335, 1505.157
1129.817, 1492.988
1130.299, 1499.177
1130.781, 1512.750
1131.263, 1509.568
1131.745, 1493.444
1132.228, 1485.714
1132.710, 1490.914
1133.192, 1496.337
1133.674, 1495.086
1134.156, 1489.992
1134.638, 1480.277
1135.120, 1468.011
1135.602, 1467.785
1136.084, 1479.195
1136.567, 1485.917
1137.049, 1480.329
1137.531, 1473.896
1138.013, 1478.174
1138.495, 1486.075
1138.977, 1489.786
1139.459, 1488.821
1139.941, 1484.121
1140.423, 1474.565
1140.906, 1469.198
1141.388, 1475.623
1141.870, 1485.989
1142.352, 1490.736
1142.834, 1492.436
1143.316, 1496.271
1143.798, 1506.713
1144.280, 1511.972
1144.763, 1511.189
1145.245, 1507.632
1145.727, 1501.141
1146.209, 1495.302
1146.691, 1498.302
1147.173, 1507.834
1147.655, 1514.220
1148.137, 1516.733
1148.620, 1510.804
1149.102, 1491.390
1149.584, 1471.666
1150.066, 1471.357
1150.548, 1483.546
1151.030, 1492.149
1151.512, 1495.657
1151.994, 1496.251
1152.476, 1491.011
1152.958, 1487.786
1153.441, 1489.203
1153.923, 1493.689
1154.405, 1499.779
1154.887, 1506.286
1155.369, 1508.401
1155.851, 1505.279
1156.333, 1497.468
1156.815, 1473.783
1157.298, 1457.869
1157.780, 1465.561
1158.262, 1490.115
1158.744, 1500.703
1159.226, 1498.634
1159.708, 1495.665
1160.190, 1495.693
1160.672, 1495.378
1161.155, 1491.161
1161.637, 1486.561
1162.119, 1484.519
1162.601, 1485.048
1163.083, 1487.974
1163.565, 1493.248
1164.047, 1495.345
1164.529, 1489.700
1165.011, 1482.521
1165.494, 1473.999
1165.976, 1469.621
1166.458, 1479.151
1166.940, 1510.066
1167.422, 1519.482
1167.904, 1505.636
1168.386, 1487.529
1168.868, 1471.761
1169.350, 1463.033
1169.833, 1474.030
1170.315, 1494.210
1170.797, 1497.804
1171.279, 1474.131
1171.761, 1463.861
1172.243, 1470.499
1172.725, 1484.373
1173.207, 1506.172
1173.690, 1524.034
1174.172, 1517.765
1174.654, 1492.932
1175.136, 1478.197
1175.618, 1479.939
1176.100, 1483.100
1176.582, 1486.371
1177.064, 1488.342
1177.547, 1486.300
1178.029, 1482.550
1178.511, 1478.920
1178.993, 1476.003
1179.475, 1479.745
1179.957, 1495.469
1180.439, 1507.779
1180.921, 1513.652
1181.403, 1513.803
1181.885, 1503.957
1182.368, 1491.228
1182.850, 1490.748
1183.332, 1505.853
1183.814, 1515.154
1184.296, 1512.444
1184.778, 1507.529
1185.260, 1502.967
1185.742, 1498.934
1186.225, 1494.804
1186.707, 1491.871
1187.189, 1493.876
1187.671, 1503.434
1188.153, 1509.677
1188.635, 1509.898
1189.117, 1506.866
1189.599, 1499.701
1190.082, 1491.812
1190.564, 1495.501
1191.046, 1505.969
1191.528, 1510.714
1192.010, 1504.440
1192.492, 1495.191
1192.974, 1479.379
1193.456, 1469.069
1193.938, 1474.996
1194.421, 1491.342
1194.903, 1496.043
1195.385, 1492.465
1195.867, 1492.124
1196.349, 1507.875
1196.831, 1513.747
1197.313, 1495.696
1197.795, 1476.912
1198.277, 1477.438
1198.760, 1492.879
1199.242, 1503.009
1199.724, 1508.273
1200.206, 1511.171
1200.688, 1513.896
1201.170, 1512.587
1201.652, 1504.233
1202.134, 1494.366
1202.617, 1488.805
1203.099, 1486.621
1203.581, 1482.871
1204.063, 1477.627
1204.545, 1472.996
1205.027, 1465.295
1205.509, 1465.095
1205.991, 1479.219
1206.474, 1497.194
1206.956, 1507.022
1207.438, 1509.062
1207.920, 1502.505
1208.402, 1488.359
1208.884, 1477.284
1209.366, 1473.505
1209.848, 1476.647
1210.330, 1490.773
1210.813, 1506.379
1211.295, 1505.402
1211.777, 1491.702
1212.259, 1482.510
1212.741, 1479.561
1213.223, 1480.591
1213.705, 1488.278
1214.187, 1495.151
1214.669, 1498.615
1215.152, 1499.608
1215.634, 1499.822
1216.116, 1499.154
1216.598, 1495.591
1217.080, 1488.519
1217.562, 1486.690
1218.044, 1500.485
1218.526, 1513.642
1219.009, 1521.235
1219.491, 1522.681
1219.973, 1512.101
1220.455, 1494.063
1220.937, 1486.947
1221.419, 1495.412
1221.901, 1504.451
1222.383, 1507.602
1222.865, 1509.322
1223.348, 1512.040
1223.830, 1514.104
1224.312, 1508.156
1224.794, 1497.738
1225.276, 1496.214
1225.758, 1509.498
1226.240, 1517.493
1226.722, 1502.305
1227.204, 1492.160
1227.687, 1501.629
1228.169, 1521.370
1228.651, 1523.326
1229.133, 1512.897
1229.615, 1505.996
1230.097, 1508.076
1230.579, 1509.713
1231.061, 1505.675
1231.544, 1504.570
1232.026, 1513.447
1232.508, 1525.733
1232.990, 1517.356
1233.472, 1497.146
1233.954, 1491.482
1234.436, 1516.571
1234.918, 1529.580
1235.401, 1514.490
1235.883, 1499.674
1236.365, 1501.755
1236.847, 1513.539
1237.329, 1516.173
1237.811, 1512.923
1238.293, 1511.795
1238.775, 1517.864
1239.257, 1519.089
1239.740, 1511.200
1240.222, 1505.121
1240.704, 1508.344
1241.186, 1517.194
1241.668, 1528.891
1242.150, 1538.430
1242.632, 1533.191
1243.114, 1492.779
1243.596, 1474.399
1244.079, 1487.052
1244.561, 1503.236
1245.043, 1502.732
1245.525, 1495.933
1246.007, 1503.887
1246.489, 1519.392
1246.971, 1527.164
1247.453, 1519.771
1247.936, 1509.999
1248.418, 1495.879
1248.900, 1486.749
1249.382, 1492.429
1249.864, 1504.284
1250.346, 1511.139
1250.828, 1514.731
1251.310, 1519.074
1251.792, 1529.841
1252.275, 1525.500
1252.757, 1502.995
1253.239, 1484.355
1253.721, 1488.993
1254.203, 1502.076
1254.685, 1508.742
1255.167, 1511.956
1255.649, 1518.589
1256.131, 1532.174
1256.614, 1534.285
1257.096, 1523.726
1257.578, 1513.913
1258.060, 1516.993
1258.542, 1522.126
1259.024, 1517.342
1259.506, 1510.049
1259.988, 1514.879
1260.471, 1534.765
1260.953, 1540.462
1261.435, 1531.251
1261.917, 1520.642
1262.399, 1515.170
1262.881, 1513.825
1263.363, 1520.354
1263.845, 1527.953
1264.328, 1526.752
1264.810, 1516.909
1265.292, 1509.032
1265.774, 1503.633
1266.256, 1502.225
1266.738, 1506.956
1267.220, 1514.482
1267.702, 1527.801
1268.184, 1539.115
1268.667, 1537.340
1269.149, 1525.089
1269.631, 1521.079
1270.113, 1524.491
1270.595, 1525.418
1271.077, 1512.042
1271.559, 1505.656
1272.041, 1513.167
1272.523, 1525.285
1273.006, 1533.621
1273.488, 1538.481
1273.970, 1538.492
1274.452, 1535.248
1274.934, 1535.552
1275.416, 1556.756
1275.898, 1555.809
1276.380, 1520.039
1276.863, 1481.573
1277.345, 1474.621
1277.827, 1486.286
1278.309, 1498.940
1278.791, 1509.911
1279.273, 1512.045
1279.755, 1495.164
1280.237, 1490.630
1280.719, 1502.855
1281.202, 1518.135
1281.684, 1528.320
1282.166, 1532.195
1282.648, 1522.048
1283.130, 1505.267
1283.612, 1503.812
1284.094, 1523.657
1284.576, 1535.154
1285.058, 1536.134
1285.541, 1534.807
1286.023, 1536.355
1286.505, 1539.321
1286.987, 1545.929
1287.469, 1551.515
1287.951, 1546.050
1288.433, 1528.801
1288.915, 1521.996
1289.398, 1526.357
1289.880, 1531.728
1290.362, 1533.340
1290.844, 1532.185
1291.326, 1524.929
1291.808, 1518.230
##END=



