##NAMES=Ettringite
##RRUFFID=R070208
##IDEAL CHEMISTRY=Ca_6_Al_2_(S^6+^O_4_)_3_(OH)_12_&#183;27H_2_O
##LOCALITY=Hatrurim Formation, Negev Desert, West of Dead Sea, southern Israel
##OWNER=RRUFF
##SOURCE=Michael Scott
##DESCRIPTION=Canary yellow to colorless prismatic and tabular hexagonal crystals associated with colorless afwillite, R070296.
##STATUS=The identification of this mineral has been confirmed only by single crystal X-ray diffraction.
##URL=rruff.info/R070208
191.4084, 2190.903
191.8905, 2193.375
192.3727, 2179.246
192.8548, 2171.447
193.3369, 2176.988
193.8190, 2188.071
194.3011, 2197.656
194.7832, 2202.970
195.2654, 2205.307
195.7475, 2206.658
196.2296, 2203.477
196.7117, 2206.520
197.1938, 2225.507
197.6759, 2245.778
198.1581, 2252.581
198.6402, 2241.284
199.1223, 2221.837
199.6044, 2212.852
200.0865, 2219.438
200.5686, 2226.981
201.0508, 2236.893
201.5329, 2245.446
202.0150, 2249.283
202.4971, 2247.635
202.9792, 2242.703
203.4613, 2237.542
203.9435, 2230.920
204.4256, 2227.063
204.9077, 2228.476
205.3898, 2230.648
205.8719, 2230.258
206.3540, 2226.781
206.8362, 2222.325
207.3183, 2219.489
207.8004, 2218.083
208.2825, 2219.085
208.7646, 2227.079
209.2467, 2233.705
209.7289, 2233.010
210.2110, 2224.958
210.6931, 2214.445
211.1752, 2206.375
211.6573, 2199.945
212.1395, 2199.435
212.6216, 2213.880
213.1037, 2226.176
213.5858, 2226.098
214.0679, 2214.877
214.5500, 2201.333
215.0322, 2194.240
215.5143, 2194.735
215.9964, 2194.330
216.4785, 2191.424
216.9606, 2189.107
217.4427, 2189.057
217.9249, 2190.730
218.4070, 2192.004
218.8891, 2190.234
219.3712, 2185.136
219.8533, 2187.398
220.3354, 2211.229
220.8176, 2228.769
221.2997, 2230.558
221.7818, 2220.121
222.2639, 2204.920
222.7460, 2189.418
223.2281, 2173.879
223.7103, 2162.445
224.1924, 2155.845
224.6745, 2153.178
225.1566, 2158.582
225.6387, 2166.932
226.1208, 2170.314
226.6030, 2163.620
227.0851, 2149.777
227.5672, 2141.300
228.0493, 2143.954
228.5314, 2144.359
229.0135, 2138.416
229.4957, 2129.838
229.9778, 2122.644
230.4599, 2118.615
230.9420, 2117.229
231.4241, 2117.606
231.9062, 2122.339
232.3884, 2124.203
232.8705, 2120.306
233.3526, 2114.683
233.8347, 2110.460
234.3168, 2108.738
234.7989, 2109.094
235.2811, 2111.700
235.7632, 2119.701
236.2453, 2122.212
236.7274, 2114.860
237.2095, 2104.894
237.6916, 2097.276
238.1738, 2092.849
238.6559, 2088.750
239.1380, 2079.337
239.6201, 2060.232
240.1022, 2052.362
240.5843, 2071.927
241.0665, 2090.210
241.5486, 2090.674
242.0307, 2074.664
242.5128, 2056.560
242.9949, 2051.845
243.4770, 2062.288
243.9592, 2053.597
244.4413, 2066.986
244.9234, 2074.424
245.4055, 2076.231
245.8876, 2055.541
246.3697, 2063.901
246.8519, 2060.619
247.3340, 2056.860
247.8161, 2069.309
248.2982, 2051.891
248.7803, 2064.083
249.2624, 2064.455
249.7446, 2070.236
250.2267, 2064.304
250.7088, 2061.990
251.1909, 2071.394
251.6730, 2074.309
252.1551, 2067.028
252.6373, 2073.154
253.1194, 2055.327
253.6015, 2058.519
254.0836, 2070.779
254.5657, 2064.087
255.0478, 2070.427
255.5300, 2071.803
256.0121, 2050.625
256.4942, 2068.672
256.9763, 2069.756
257.4584, 2053.421
257.9406, 2070.124
258.4227, 2056.191
258.9048, 2053.193
259.3869, 2058.424
259.8690, 2055.077
260.3511, 2065.255
260.8333, 2062.403
261.3154, 2058.386
261.7975, 2059.451
262.2796, 2046.118
262.7617, 2059.495
263.2438, 2054.627
263.7260, 2058.828
264.2081, 2065.084
264.6902, 2055.601
265.1723, 2062.781
265.6544, 2044.121
266.1365, 2047.082
266.6187, 2047.715
267.1008, 2062.168
267.5829, 2043.633
268.0650, 2045.994
268.5471, 2057.251
269.0292, 2056.060
269.5114, 2060.073
269.9935, 2048.678
270.4756, 2051.759
270.9577, 2050.849
271.4398, 2063.726
271.9219, 2065.719
272.4041, 2054.586
272.8862, 2043.508
273.3683, 2057.378
273.8504, 2047.602
274.3325, 2050.582
274.8146, 2040.388
275.2968, 2041.569
275.7789, 2042.570
276.2610, 2049.403
276.7431, 2038.552
277.2252, 2050.639
277.7073, 2049.469
278.1895, 2052.204
278.6716, 2054.505
279.1537, 2039.016
279.6358, 2038.110
280.1179, 2058.071
280.6000, 2046.209
281.0822, 2040.770
281.5643, 2039.897
282.0464, 2060.573
282.5285, 2061.219
283.0106, 2037.924
283.4927, 2057.650
283.9749, 2050.909
284.4570, 2051.449
284.9391, 2056.442
285.4212, 2060.689
285.9033, 2062.552
286.3854, 2061.956
286.8676, 2060.632
287.3497, 2054.985
287.8318, 2052.115
288.3139, 2058.332
288.7960, 2070.423
289.2781, 2080.124
289.7603, 2083.070
290.2424, 2079.854
290.7245, 2072.571
291.2066, 2053.533
291.6887, 2040.143
292.1708, 2038.695
292.6530, 2043.010
293.1351, 2044.811
293.6172, 2041.263
294.0993, 2036.542
294.5814, 2038.526
295.0635, 2054.791
295.5457, 2063.220
296.0278, 2059.226
296.5099, 2051.318
296.9920, 2042.722
297.4741, 2035.364
297.9562, 2033.292
298.4384, 2042.291
298.9205, 2065.414
299.4026, 2078.222
299.8847, 2071.446
300.3668, 2063.957
300.8489, 2060.973
301.3311, 2062.375
301.8131, 2067.056
302.2953, 2075.014
302.7774, 2084.881
303.2595, 2089.625
303.7416, 2087.594
304.2237, 2082.277
304.7058, 2069.471
305.1880, 2056.267
305.6701, 2051.729
306.1522, 2059.475
306.6343, 2071.582
307.1164, 2073.714
307.5985, 2061.909
308.0807, 2054.906
308.5628, 2059.611
309.0449, 2067.741
309.5270, 2075.861
310.0091, 2083.218
310.4912, 2088.702
310.9734, 2090.573
311.4555, 2089.195
311.9376, 2088.480
312.4197, 2088.527
312.9018, 2089.585
313.3839, 2093.684
313.8661, 2099.009
314.3482, 2100.540
314.8303, 2092.170
315.3124, 2080.311
315.7945, 2077.183
316.2766, 2084.119
316.7588, 2091.982
317.2409, 2095.833
317.7230, 2097.501
318.2051, 2100.181
318.6872, 2105.154
319.1693, 2109.541
319.6515, 2110.590
320.1336, 2108.992
320.6157, 2108.094
321.0978, 2109.538
321.5799, 2111.343
322.0620, 2109.036
322.5442, 2101.250
323.0263, 2097.904
323.5084, 2105.376
323.9905, 2117.326
324.4726, 2125.549
324.9547, 2128.703
325.4369, 2130.009
325.9190, 2132.369
326.4011, 2135.910
326.8832, 2139.302
327.3653, 2144.067
327.8474, 2147.333
328.3296, 2144.812
328.8117, 2139.045
329.2938, 2138.149
329.7759, 2147.614
330.2580, 2164.326
330.7401, 2173.852
331.2223, 2168.511
331.7044, 2165.508
332.1865, 2167.673
332.6686, 2172.546
333.1507, 2178.069
333.6328, 2183.418
334.1150, 2187.906
334.5971, 2190.271
335.0792, 2189.210
335.5613, 2189.542
336.0434, 2189.484
336.5255, 2192.158
337.0077, 2200.051
337.4898, 2212.327
337.9719, 2226.575
338.4540, 2241.968
338.9361, 2257.747
339.4182, 2265.881
339.9004, 2255.418
340.3825, 2253.863
340.8646, 2279.355
341.3467, 2313.706
341.8288, 2331.803
342.3109, 2322.279
342.7931, 2303.219
343.2752, 2302.388
343.7573, 2322.394
344.2394, 2342.247
344.7215, 2356.717
345.2036, 2369.574
345.6858, 2383.540
346.1679, 2398.815
346.6500, 2415.080
347.1321, 2435.824
347.6142, 2457.363
348.0963, 2466.124
348.5785, 2455.517
349.0606, 2448.645
349.5427, 2469.239
350.0248, 2508.934
350.5069, 2543.483
350.9890, 2570.042
351.4712, 2588.988
351.9533, 2598.071
352.4354, 2598.851
352.9175, 2598.850
353.3996, 2600.755
353.8817, 2605.030
354.3639, 2613.533
354.8460, 2627.409
355.3281, 2641.881
355.8102, 2657.273
356.2923, 2672.079
356.7744, 2685.314
357.2566, 2696.573
357.7387, 2703.399
358.2208, 2702.500
358.7029, 2692.180
359.1850, 2683.176
359.6671, 2674.100
360.1493, 2667.480
360.6314, 2666.313
361.1135, 2668.426
361.5956, 2669.719
362.0777, 2667.956
362.5598, 2662.942
363.0420, 2653.732
363.5241, 2637.677
364.0062, 2621.439
364.4883, 2604.661
364.9704, 2588.767
365.4525, 2574.873
365.9347, 2563.280
366.4168, 2553.482
366.8989, 2544.328
367.3810, 2535.513
367.8631, 2531.989
368.3452, 2540.346
368.8274, 2546.274
369.3095, 2541.039
369.7916, 2528.000
370.2737, 2515.400
370.7558, 2507.307
371.2379, 2501.664
371.7201, 2494.585
372.2022, 2485.711
372.6843, 2479.186
373.1664, 2478.851
373.6485, 2480.649
374.1306, 2477.723
374.6128, 2468.082
375.0949, 2460.178
375.5770, 2460.091
376.0591, 2464.592
376.5412, 2466.830
377.0233, 2465.125
377.5055, 2463.664
377.9876, 2468.688
378.4697, 2481.205
378.9518, 2482.660
379.4339, 2458.634
379.9160, 2436.250
380.3982, 2436.807
380.8803, 2453.020
381.3624, 2461.803
381.8445, 2449.715
382.3266, 2425.049
382.8087, 2412.925
383.2909, 2430.568
383.7730, 2438.576
384.2551, 2430.226
384.7372, 2415.903
385.2193, 2403.655
385.7014, 2394.925
386.1836, 2386.560
386.6657, 2375.089
387.1478, 2360.365
387.6299, 2346.177
388.1120, 2331.135
388.5941, 2318.332
389.0763, 2310.417
389.5584, 2304.934
390.0405, 2297.492
390.5226, 2285.211
391.0047, 2272.916
391.4868, 2270.229
391.9690, 2278.669
392.4511, 2282.203
392.9332, 2274.627
393.4153, 2262.043
393.8974, 2250.291
394.3795, 2239.428
394.8617, 2228.053
395.3438, 2213.100
395.8259, 2198.010
396.3080, 2189.282
396.7901, 2187.763
397.2722, 2187.968
397.7544, 2186.663
398.2365, 2183.897
398.7186, 2180.442
399.2007, 2176.249
399.6828, 2171.492
400.1649, 2163.894
400.6471, 2156.325
401.1292, 2155.541
401.6113, 2163.816
402.0934, 2172.959
402.5755, 2170.385
403.0576, 2150.948
403.5398, 2135.077
404.0219, 2119.785
404.5040, 2110.079
404.9861, 2112.969
405.4682, 2123.686
405.9503, 2130.235
406.4325, 2124.176
406.9146, 2110.290
407.3967, 2106.659
407.8788, 2120.738
408.3609, 2129.726
408.8430, 2125.091
409.3252, 2116.838
409.8073, 2112.364
410.2894, 2112.883
410.7715, 2115.530
411.2536, 2119.041
411.7357, 2122.927
412.2179, 2124.477
412.7000, 2123.198
413.1821, 2120.319
413.6642, 2114.322
414.1463, 2107.469
414.6284, 2104.956
415.1106, 2110.723
415.5927, 2117.416
416.0748, 2119.962
416.5569, 2119.086
417.0390, 2116.796
417.5211, 2113.619
418.0033, 2109.769
418.4854, 2104.998
418.9675, 2097.854
419.4496, 2095.343
419.9317, 2102.572
420.4138, 2110.547
420.8960, 2111.588
421.3781, 2107.634
421.8602, 2107.039
422.3423, 2115.937
422.8244, 2130.785
423.3065, 2135.569
423.7887, 2117.823
424.2708, 2109.645
424.7529, 2124.828
425.2350, 2142.983
425.7171, 2145.409
426.1992, 2130.685
426.6814, 2113.635
427.1635, 2108.926
427.6456, 2115.415
428.1277, 2119.896
428.6098, 2121.840
429.0919, 2122.742
429.5741, 2122.417
430.0562, 2121.833
430.5383, 2122.426
431.0204, 2124.463
431.5025, 2127.884
431.9846, 2134.263
432.4668, 2142.262
432.9489, 2147.128
433.4310, 2147.614
433.9131, 2144.525
434.3952, 2135.814
434.8773, 2120.046
435.3595, 2117.538
435.8416, 2142.163
436.3237, 2168.884
436.8058, 2181.598
437.2879, 2183.724
437.7701, 2186.495
438.2522, 2195.751
438.7343, 2208.453
439.2164, 2217.022
439.6985, 2221.307
440.1806, 2221.245
440.6628, 2209.649
441.1449, 2200.157
441.6270, 2203.314
442.1091, 2217.467
442.5912, 2233.233
443.0733, 2244.649
443.5555, 2251.712
444.0376, 2253.448
444.5197, 2247.640
445.0018, 2242.694
445.4839, 2240.989
445.9660, 2242.226
446.4482, 2247.964
446.9303, 2259.324
447.4124, 2267.583
447.8945, 2266.986
448.3766, 2259.566
448.8587, 2247.006
449.3409, 2228.803
449.8230, 2215.105
450.3051, 2215.452
450.7872, 2228.297
451.2693, 2235.928
451.7514, 2240.407
452.2336, 2237.812
452.7157, 2219.781
453.1978, 2196.419
453.6799, 2183.118
454.1620, 2183.853
454.6441, 2188.993
455.1263, 2185.469
455.6084, 2170.730
456.0905, 2161.824
456.5726, 2165.537
457.0547, 2168.412
457.5368, 2168.414
458.0190, 2164.396
458.5011, 2154.479
458.9832, 2137.346
459.4653, 2116.498
459.9474, 2093.365
460.4295, 2067.826
460.9117, 2055.225
461.3938, 2064.902
461.8759, 2079.797
462.3580, 2085.350
462.8401, 2082.873
463.3222, 2078.452
463.8044, 2074.320
464.2865, 2068.461
464.7686, 2057.931
465.2507, 2043.828
465.7328, 2029.516
466.2149, 2015.729
466.6971, 2005.153
467.1792, 2003.688
467.6613, 2017.991
468.1434, 2027.645
468.6255, 2034.481
469.1076, 2035.253
469.5898, 2025.204
470.0719, 2007.059
470.5540, 1986.377
471.0361, 1964.910
471.5182, 1947.750
472.0003, 1953.730
472.4825, 1996.283
472.9646, 2025.158
473.4467, 2018.653
473.9288, 2002.536
474.4109, 1991.495
474.8930, 1986.451
475.3752, 1982.434
475.8573, 1976.377
476.3394, 1969.638
476.8215, 1963.945
477.3036, 1959.351
477.7857, 1958.108
478.2679, 1963.862
478.7500, 1971.618
479.2321, 1967.363
479.7142, 1943.452
480.1963, 1928.413
480.6784, 1935.040
481.1606, 1947.896
481.6427, 1953.667
482.1248, 1951.348
482.6069, 1945.867
483.0890, 1940.508
483.5711, 1935.507
484.0533, 1932.065
484.5354, 1930.411
485.0175, 1930.077
485.4996, 1932.895
485.9817, 1935.505
486.4638, 1934.417
486.9460, 1929.716
487.4281, 1925.378
487.9102, 1925.970
488.3923, 1929.248
488.8744, 1926.965
489.3565, 1917.596
489.8387, 1911.372
490.3208, 1915.140
490.8029, 1924.576
491.2850, 1930.305
491.7671, 1931.265
492.2492, 1931.712
492.7314, 1930.953
493.2135, 1931.590
493.6956, 1939.533
494.1777, 1953.620
494.6598, 1963.375
495.1419, 1960.179
495.6241, 1946.202
496.1062, 1935.276
496.5883, 1926.953
497.0704, 1922.805
497.5525, 1928.531
498.0346, 1934.454
498.5168, 1931.022
498.9989, 1918.255
499.4810, 1905.079
499.9631, 1898.503
500.4452, 1897.401
500.9273, 1898.149
501.4095, 1901.235
501.8916, 1904.242
502.3737, 1907.312
502.8558, 1908.887
503.3379, 1906.146
503.8200, 1897.742
504.3022, 1890.565
504.7843, 1886.249
505.2664, 1885.070
505.7485, 1889.402
506.2306, 1898.280
506.7127, 1904.775
507.1949, 1903.436
507.6770, 1897.235
508.1591, 1899.532
508.6412, 1924.093
509.1233, 1936.749
509.6054, 1926.833
510.0876, 1911.823
510.5697, 1904.466
511.0518, 1904.897
511.5339, 1905.242
512.0161, 1897.688
512.4982, 1887.367
512.9803, 1890.819
513.4624, 1910.944
513.9445, 1927.365
514.4266, 1934.135
514.9088, 1932.458
515.3909, 1921.199
515.8730, 1898.892
516.3551, 1885.498
516.8372, 1893.150
517.3193, 1907.778
517.8015, 1919.388
518.2836, 1926.458
518.7657, 1925.936
519.2478, 1915.147
519.7299, 1900.520
520.2120, 1897.980
520.6942, 1916.727
521.1763, 1930.140
521.6584, 1940.932
522.1405, 1944.613
522.6226, 1931.843
523.1047, 1909.993
523.5869, 1897.366
524.0690, 1905.259
524.5511, 1923.172
525.0332, 1935.643
525.5153, 1942.678
525.9974, 1944.560
526.4796, 1938.602
526.9617, 1931.985
527.4438, 1934.104
527.9259, 1943.692
528.4080, 1949.521
528.8901, 1945.861
529.3723, 1942.157
529.8544, 1944.776
530.3365, 1951.241
530.8186, 1956.322
531.3007, 1958.281
531.7828, 1959.498
532.2650, 1963.813
532.7471, 1972.467
533.2292, 1976.502
533.7113, 1971.661
534.1934, 1966.931
534.6755, 1963.752
535.1577, 1962.790
535.6398, 1964.979
536.1219, 1970.716
536.6040, 1978.477
537.0861, 1988.482
537.5682, 1999.417
538.0504, 2004.957
538.5325, 2003.092
539.0146, 2006.137
539.4967, 2026.885
539.9788, 2059.453
540.4609, 2074.325
540.9431, 2059.883
541.4252, 2046.010
541.9073, 2035.361
542.3894, 2030.116
542.8715, 2035.129
543.3536, 2048.824
543.8358, 2062.844
544.3179, 2071.018
544.8000, 2073.699
545.2821, 2071.311
545.7642, 2060.785
546.2463, 2053.622
546.7285, 2054.907
547.2106, 2059.145
547.6927, 2063.901
548.1748, 2068.541
548.6569, 2069.120
549.1390, 2060.181
549.6211, 2048.930
550.1032, 2043.489
550.5853, 2042.928
551.0674, 2042.435
551.5496, 2039.930
552.0317, 2037.501
552.5138, 2039.190
552.9959, 2048.379
553.4780, 2049.999
553.9601, 2039.310
554.4423, 2027.279
554.9244, 2020.944
555.4065, 2015.358
555.8886, 1999.591
556.3707, 1969.146
556.8528, 1939.990
557.3350, 1935.096
557.8171, 1951.016
558.2992, 1957.832
558.7813, 1949.128
559.2634, 1943.455
559.7455, 1958.104
560.2277, 1984.471
560.7098, 1995.013
561.1919, 1983.558
561.6740, 1966.834
562.1561, 1943.038
562.6382, 1920.822
563.1204, 1910.846
563.6025, 1912.729
564.0846, 1917.813
564.5667, 1920.160
565.0488, 1920.140
565.5309, 1919.119
566.0131, 1916.695
566.4952, 1914.295
566.9773, 1912.588
567.4594, 1910.601
567.9415, 1907.303
568.4236, 1903.037
568.9058, 1899.467
569.3879, 1898.325
569.8700, 1897.235
570.3521, 1891.394
570.8342, 1883.259
571.3163, 1882.727
571.7985, 1893.446
572.2806, 1906.184
572.7627, 1909.372
573.2448, 1901.648
573.7269, 1897.335
574.2090, 1902.584
574.6912, 1903.672
575.1733, 1892.512
575.6554, 1877.859
576.1375, 1868.897
576.6196, 1867.819
577.1017, 1871.863
577.5839, 1882.015
578.0660, 1895.243
578.5481, 1900.554
579.0302, 1897.100
579.5123, 1891.293
579.9944, 1883.555
580.4766, 1877.338
580.9587, 1880.783
581.4408, 1896.184
581.9229, 1909.479
582.4050, 1920.314
582.8871, 1926.978
583.3693, 1924.096
583.8514, 1916.630
584.3335, 1917.211
584.8156, 1931.743
585.2977, 1947.810
585.7798, 1942.168
586.2620, 1912.015
586.7441, 1893.634
587.2262, 1892.534
587.7083, 1896.942
588.1904, 1903.430
588.6725, 1910.110
589.1547, 1912.837
589.6368, 1908.109
590.1189, 1907.333
590.6010, 1923.342
591.0831, 1942.425
591.5652, 1943.238
592.0474, 1927.204
592.5295, 1914.833
593.0116, 1920.412
593.4937, 1937.263
593.9758, 1944.726
594.4579, 1939.557
594.9401, 1932.630
595.4222, 1921.342
595.9043, 1911.680
596.3864, 1907.543
596.8685, 1907.466
597.3506, 1908.029
597.8328, 1909.776
598.3149, 1908.244
598.7970, 1893.667
599.2791, 1873.125
599.7612, 1866.552
600.2433, 1877.802
600.7255, 1894.061
601.2076, 1905.318
601.6897, 1911.850
602.1718, 1915.859
602.6539, 1914.161
603.1360, 1914.266
603.6182, 1923.134
604.1003, 1928.953
604.5824, 1919.328
605.0645, 1897.390
605.5466, 1878.396
606.0287, 1871.477
606.5109, 1871.587
606.9930, 1873.335
607.4751, 1876.073
607.9572, 1872.468
608.4393, 1858.116
608.9214, 1847.662
609.4036, 1859.367
609.8857, 1893.335
610.3678, 1909.039
610.8499, 1895.180
611.3320, 1879.242
611.8141, 1865.630
612.2963, 1854.133
612.7784, 1843.817
613.2605, 1834.972
613.7426, 1829.748
614.2247, 1830.838
614.7068, 1835.817
615.1890, 1838.904
615.6711, 1840.047
616.1532, 1841.045
616.6353, 1844.075
617.1174, 1844.006
617.5995, 1831.261
618.0817, 1805.500
618.5638, 1793.321
619.0459, 1808.981
619.5280, 1823.077
620.0101, 1821.062
620.4922, 1812.703
620.9744, 1812.840
621.4565, 1822.799
621.9386, 1829.084
622.4207, 1816.838
622.9028, 1792.370
623.3849, 1781.551
623.8671, 1786.520
624.3492, 1792.951
624.8313, 1797.770
625.3134, 1800.863
625.7955, 1802.932
626.2776, 1804.012
626.7598, 1799.599
627.2419, 1779.413
627.7240, 1764.036
628.2061, 1768.917
628.6882, 1783.221
629.1703, 1790.644
629.6525, 1787.682
630.1346, 1782.334
630.6167, 1783.042
631.0988, 1787.982
631.5809, 1786.176
632.0630, 1775.701
632.5452, 1765.680
633.0273, 1756.722
633.5094, 1751.482
633.9915, 1754.452
634.4736, 1765.112
634.9557, 1773.643
635.4379, 1775.201
635.9200, 1777.159
636.4021, 1788.364
636.8842, 1800.937
637.3663, 1798.615
637.8484, 1779.656
638.3306, 1762.827
638.8127, 1768.937
639.2948, 1793.099
639.7769, 1803.381
640.2590, 1794.251
640.7411, 1791.437
641.2233, 1807.815
641.7054, 1828.134
642.1875, 1835.731
642.6696, 1831.701
643.1517, 1829.175
643.6339, 1824.672
644.1160, 1828.934
644.5981, 1854.506
645.0802, 1890.042
645.5623, 1919.509
646.0444, 1938.957
646.5266, 1951.993
647.0087, 1961.439
647.4908, 1967.483
647.9729, 1969.989
648.4550, 1967.356
648.9371, 1967.818
649.4193, 1975.923
649.9014, 1985.175
650.3835, 1987.584
650.8656, 1984.588
651.3477, 1986.848
651.8298, 2004.414
652.3120, 2018.226
652.7941, 2017.327
653.2762, 2008.378
653.7583, 2000.844
654.2404, 1995.769
654.7225, 1987.208
655.2047, 1969.907
655.6868, 1946.092
656.1689, 1922.066
656.6510, 1896.906
657.1331, 1877.828
657.6152, 1869.709
658.0974, 1863.377
658.5795, 1850.918
659.0616, 1833.277
659.5437, 1814.414
660.0258, 1792.528
660.5079, 1772.077
660.9901, 1752.655
661.4722, 1736.649
661.9543, 1728.065
662.4364, 1725.819
662.9185, 1724.420
663.4006, 1720.557
663.8828, 1714.336
664.3649, 1704.793
664.8470, 1691.729
665.3291, 1682.068
665.8112, 1677.490
666.2933, 1674.906
666.7755, 1672.210
667.2576, 1669.667
667.7397, 1668.241
668.2218, 1667.787
668.7039, 1668.663
669.1860, 1676.848
669.6682, 1681.549
670.1503, 1669.857
670.6324, 1647.218
671.1145, 1629.262
671.5966, 1623.526
672.0787, 1626.490
672.5609, 1636.615
673.0430, 1652.282
673.5251, 1661.046
674.0072, 1660.901
674.4893, 1659.010
674.9714, 1659.947
675.4536, 1661.759
675.9357, 1659.085
676.4178, 1648.668
676.8999, 1640.858
677.3820, 1637.312
677.8641, 1634.995
678.3463, 1631.522
678.8284, 1628.476
679.3105, 1629.323
679.7926, 1635.153
680.2747, 1641.386
680.7568, 1645.329
681.2390, 1646.061
681.7211, 1638.852
682.2032, 1624.193
682.6853, 1613.497
683.1674, 1612.029
683.6495, 1615.847
684.1317, 1619.452
684.6138, 1623.548
685.0959, 1623.609
685.5780, 1616.942
686.0601, 1609.396
686.5422, 1599.699
687.0244, 1591.414
687.5065, 1589.925
687.9886, 1595.043
688.4707, 1598.064
688.9528, 1590.117
689.4349, 1580.568
689.9171, 1581.879
690.3992, 1590.488
690.8813, 1595.385
691.3634, 1593.627
691.8455, 1590.462
692.3276, 1591.336
692.8098, 1595.590
693.2919, 1597.367
693.7740, 1596.004
694.2561, 1593.529
694.7382, 1585.960
695.2203, 1581.406
695.7025, 1588.618
696.1846, 1604.028
696.6667, 1614.182
697.1488, 1615.937
697.6309, 1611.519
698.1130, 1595.991
698.5952, 1578.415
699.0773, 1570.640
699.5594, 1572.782
700.0415, 1578.664
700.5236, 1585.040
701.0057, 1589.935
701.4879, 1587.775
701.9700, 1578.021
702.4521, 1573.413
702.9342, 1577.830
703.4163, 1580.038
703.8984, 1570.014
704.3806, 1554.623
704.8627, 1551.316
705.3448, 1565.812
705.8269, 1575.067
706.3090, 1571.599
706.7911, 1566.419
707.2733, 1566.160
707.7554, 1568.748
708.2375, 1569.855
708.7196, 1568.215
709.2017, 1566.235
709.6838, 1566.194
710.1660, 1567.544
710.6481, 1569.988
711.1302, 1573.256
711.6123, 1571.553
712.0944, 1561.274
712.5765, 1552.193
713.0587, 1558.194
713.5408, 1580.498
714.0229, 1591.650
714.5050, 1580.812
714.9871, 1573.422
715.4692, 1577.939
715.9514, 1583.813
716.4335, 1580.917
716.9156, 1570.862
717.3977, 1564.082
717.8798, 1566.745
718.3619, 1571.234
718.8441, 1572.640
719.3262, 1571.305
719.8083, 1565.253
720.2904, 1555.876
720.7725, 1551.905
721.2546, 1559.699
721.7368, 1574.701
722.2189, 1588.478
722.7010, 1602.956
723.1831, 1600.224
723.6652, 1566.970
724.1473, 1540.263
724.6295, 1549.401
725.1116, 1575.764
725.5937, 1578.822
726.0758, 1548.711
726.5579, 1529.475
727.0400, 1537.665
727.5222, 1550.107
728.0043, 1556.235
728.4864, 1555.998
728.9685, 1547.448
729.4506, 1531.589
729.9327, 1520.986
730.4149, 1534.231
730.8970, 1557.918
731.3791, 1558.937
731.8612, 1539.648
732.3433, 1522.061
732.8254, 1512.339
733.3076, 1507.174
733.7897, 1503.468
734.2718, 1501.217
734.7539, 1500.223
735.2360, 1500.587
735.7181, 1502.078
736.2003, 1505.420
736.6824, 1509.140
737.1645, 1514.569
737.6466, 1519.556
738.1287, 1517.535
738.6108, 1502.329
739.0930, 1490.796
739.5751, 1498.477
740.0572, 1510.844
740.5393, 1508.810
741.0214, 1495.336
741.5035, 1484.943
741.9857, 1484.494
742.4678, 1489.956
742.9499, 1497.472
743.4320, 1506.602
743.9141, 1510.547
744.3962, 1508.135
744.8784, 1506.974
745.3605, 1511.509
745.8426, 1516.289
746.3247, 1512.292
746.8068, 1497.624
747.2889, 1492.428
747.7711, 1508.603
748.2532, 1518.253
748.7353, 1508.440
749.2174, 1494.132
749.6995, 1488.780
750.1816, 1492.107
750.6638, 1496.620
751.1459, 1500.453
751.6280, 1501.066
752.1101, 1493.370
752.5922, 1481.752
753.0743, 1473.425
753.5565, 1469.673
754.0386, 1471.942
754.5207, 1481.646
755.0028, 1493.759
755.4849, 1499.023
755.9670, 1497.267
756.4492, 1488.111
756.9313, 1465.875
757.4134, 1450.930
757.8955, 1456.486
758.3776, 1470.822
758.8597, 1474.713
759.3419, 1466.650
759.8240, 1465.370
760.3061, 1480.226
760.7882, 1492.702
761.2703, 1495.978
761.7524, 1493.308
762.2346, 1487.025
762.7167, 1478.347
763.1988, 1469.247
763.6809, 1459.524
764.1630, 1452.226
764.6451, 1453.797
765.1273, 1459.996
765.6094, 1458.512
766.0915, 1448.638
766.5736, 1441.526
767.0557, 1444.414
767.5378, 1452.613
768.0200, 1455.664
768.5021, 1452.412
768.9842, 1451.212
769.4663, 1453.846
769.9484, 1454.962
770.4305, 1451.887
770.9127, 1446.244
771.3948, 1438.985
771.8769, 1429.535
772.3590, 1425.806
772.8411, 1433.543
773.3232, 1441.402
773.8054, 1443.061
774.2875, 1443.937
774.7696, 1453.153
775.2517, 1468.427
775.7338, 1476.101
776.2159, 1466.792
776.6981, 1450.894
777.1802, 1437.373
777.6623, 1426.802
778.1444, 1421.676
778.6265, 1421.628
779.1086, 1422.034
779.5908, 1420.434
780.0729, 1416.974
780.5550, 1410.698
781.0371, 1400.716
781.5192, 1397.449
782.0013, 1402.623
782.4835, 1410.306
782.9656, 1421.568
783.4477, 1431.121
783.9298, 1430.377
784.4119, 1419.057
784.8940, 1411.595
785.3762, 1409.443
785.8583, 1410.138
786.3404, 1414.098
786.8225, 1419.781
787.3046, 1427.416
787.7867, 1435.653
788.2689, 1440.826
788.7510, 1440.740
789.2331, 1439.474
789.7152, 1440.538
790.1973, 1442.640
790.6794, 1444.668
791.1616, 1445.888
791.6437, 1444.300
792.1258, 1439.019
792.6079, 1430.639
793.0900, 1418.165
793.5721, 1402.700
794.0543, 1395.723
794.5364, 1398.017
795.0185, 1404.907
795.5006, 1418.331
795.9827, 1428.816
796.4648, 1425.377
796.9470, 1409.651
797.4291, 1399.399
797.9112, 1399.113
798.3933, 1398.004
798.8754, 1394.035
799.3575, 1390.694
799.8397, 1389.400
800.3218, 1390.348
800.8039, 1395.105
801.2860, 1405.239
801.7681, 1410.381
802.2502, 1400.835
802.7324, 1387.970
803.2145, 1379.243
803.6966, 1375.872
804.1787, 1382.286
804.6608, 1397.576
805.1429, 1408.430
805.6251, 1400.431
806.1072, 1384.966
806.5893, 1390.816
807.0714, 1414.105
807.5535, 1423.808
808.0356, 1414.037
808.5178, 1400.786
808.9999, 1394.215
809.4820, 1392.198
809.9641, 1389.141
810.4462, 1383.378
810.9283, 1382.928
811.4105, 1391.051
811.8926, 1399.217
812.3747, 1405.617
812.8568, 1409.404
813.3389, 1410.054
813.8210, 1407.544
814.3032, 1400.210
814.7853, 1377.533
815.2674, 1363.092
815.7495, 1371.090
816.2316, 1385.978
816.7137, 1394.289
817.1959, 1396.365
817.6780, 1399.028
818.1601, 1405.671
818.6422, 1410.926
819.1243, 1408.785
819.6064, 1403.179
820.0886, 1400.221
820.5707, 1399.497
821.0528, 1397.542
821.5349, 1393.213
822.0170, 1389.560
822.4991, 1389.942
822.9813, 1393.773
823.4634, 1399.673
823.9455, 1407.976
824.4276, 1411.416
824.9097, 1407.281
825.3918, 1402.935
825.8740, 1404.070
826.3561, 1409.126
826.8382, 1412.806
827.3203, 1414.017
827.8024, 1416.439
828.2845, 1423.797
828.7667, 1427.726
829.2488, 1420.976
829.7309, 1411.764
830.2130, 1410.513
830.6951, 1417.790
831.1772, 1424.629
831.6594, 1428.638
832.1415, 1432.114
832.6236, 1435.041
833.1057, 1438.678
833.5878, 1444.591
834.0699, 1452.417
834.5521, 1460.523
835.0342, 1468.145
835.5163, 1476.104
835.9984, 1485.922
836.4805, 1496.208
836.9626, 1505.568
837.4448, 1513.357
837.9269, 1516.674
838.4090, 1514.869
838.8911, 1513.114
839.3732, 1515.256
839.8553, 1523.163
840.3375, 1547.664
840.8196, 1589.237
841.3017, 1622.365
841.7838, 1642.182
842.2659, 1654.104
842.7480, 1658.926
843.2302, 1662.286
843.7123, 1679.670
844.1944, 1717.646
844.6765, 1747.653
845.1586, 1764.872
845.6407, 1781.248
846.1229, 1790.717
846.6050, 1808.368
847.0871, 1853.703
847.5692, 1924.565
848.0513, 1991.771
848.5334, 2049.001
849.0156, 2105.743
849.4977, 2162.487
849.9798, 2221.570
850.4619, 2281.286
850.9440, 2346.055
851.4261, 2425.514
851.9083, 2523.842
852.3904, 2623.288
852.8725, 2712.980
853.3546, 2798.435
853.8367, 2891.435
854.3188, 2983.759
854.8010, 3059.938
855.2831, 3116.685
855.7652, 3159.775
856.2473, 3196.546
856.7294, 3212.299
857.2115, 3171.894
857.6937, 3086.623
858.1758, 3007.225
858.6579, 2938.084
859.1400, 2858.875
859.6221, 2759.742
860.1042, 2646.617
860.5864, 2523.148
861.0685, 2391.116
861.5506, 2282.949
862.0327, 2202.677
862.5148, 2130.693
862.9969, 2063.496
863.4791, 2000.671
863.9612, 1940.832
864.4433, 1885.079
864.9254, 1838.279
865.4075, 1801.117
865.8896, 1771.332
866.3718, 1749.548
866.8539, 1733.861
867.3360, 1730.104
867.8181, 1727.959
868.3002, 1713.830
868.7823, 1688.019
869.2645, 1666.884
869.7466, 1656.848
870.2287, 1649.390
870.7108, 1639.448
871.1929, 1632.302
871.6750, 1635.582
872.1572, 1645.042
872.6393, 1650.605
873.1214, 1648.871
873.6035, 1644.472
874.0856, 1635.449
874.5677, 1629.890
875.0499, 1642.604
875.5320, 1664.154
876.0141, 1673.902
876.4962, 1669.107
876.9783, 1660.689
877.4604, 1654.926
877.9426, 1653.926
878.4247, 1664.656
878.9068, 1683.067
879.3889, 1694.092
879.8710, 1696.920
880.3531, 1693.876
880.8353, 1685.280
881.3174, 1680.804
881.7995, 1693.304
882.2816, 1719.637
882.7637, 1741.388
883.2458, 1759.189
883.7280, 1765.814
884.2101, 1757.292
884.6922, 1745.896
885.1743, 1737.116
885.6564, 1733.619
886.1385, 1743.711
886.6207, 1774.786
887.1028, 1784.910
887.5849, 1756.536
888.0670, 1735.512
888.5491, 1736.962
889.0313, 1747.729
889.5134, 1761.299
889.9955, 1775.218
890.4776, 1777.979
890.9597, 1760.536
891.4418, 1746.932
891.9240, 1742.467
892.4061, 1740.320
892.8882, 1737.135
893.3703, 1733.882
893.8524, 1731.596
894.3345, 1730.614
894.8167, 1732.554
895.2988, 1745.182
895.7809, 1752.231
896.2630, 1738.462
896.7451, 1719.775
897.2272, 1712.369
897.7094, 1714.835
898.1915, 1720.801
898.6736, 1728.075
899.1557, 1729.622
899.6378, 1716.034
900.1199, 1696.592
900.6021, 1680.653
901.0842, 1668.447
901.5663, 1661.367
902.0484, 1658.458
902.5305, 1654.429
903.0126, 1645.996
903.4948, 1634.981
903.9769, 1622.347
904.4590, 1609.577
904.9411, 1602.915
905.4232, 1601.635
905.9053, 1598.626
906.3875, 1591.586
906.8696, 1583.726
907.3517, 1578.343
907.8338, 1574.160
908.3159, 1568.074
908.7980, 1560.142
909.2802, 1543.650
909.7623, 1516.413
910.2444, 1491.899
910.7265, 1476.578
911.2086, 1467.824
911.6907, 1462.794
912.1729, 1461.395
912.6550, 1455.856
913.1371, 1444.025
913.6192, 1434.540
914.1013, 1427.577
914.5834, 1426.311
915.0656, 1438.222
915.5477, 1453.858
916.0298, 1450.130
916.5119, 1420.048
916.9940, 1396.715
917.4761, 1382.857
917.9583, 1371.945
918.4404, 1362.534
918.9225, 1355.352
919.4046, 1352.186
919.8867, 1351.818
920.3688, 1350.112
920.8510, 1348.483
921.3331, 1341.630
921.8152, 1322.082
922.2973, 1304.903
922.7794, 1295.210
923.2615, 1292.747
923.7437, 1302.692
924.2258, 1321.570
924.7079, 1326.883
925.1900, 1301.868
925.6721, 1278.846
926.1542, 1270.165
926.6364, 1269.411
927.1185, 1275.816
927.6006, 1284.739
928.0827, 1289.579
928.5648, 1288.938
929.0469, 1285.882
929.5291, 1281.319
930.0112, 1275.900
930.4933, 1270.344
930.9754, 1264.026
931.4575, 1254.708
931.9396, 1244.034
932.4218, 1236.169
932.9039, 1232.601
933.3860, 1232.990
933.8681, 1239.422
934.3502, 1247.729
934.8323, 1254.740
935.3145, 1258.708
935.7966, 1253.787
936.2787, 1241.380
936.7608, 1230.704
937.2429, 1226.666
937.7250, 1226.100
938.2072, 1226.351
938.6893, 1226.697
939.1714, 1224.803
939.6535, 1221.427
940.1356, 1219.765
940.6177, 1220.434
941.0999, 1222.422
941.5820, 1225.576
942.0641, 1226.656
942.5462, 1216.728
943.0283, 1199.041
943.5104, 1191.539
943.9926, 1194.273
944.4747, 1197.224
944.9568, 1197.271
945.4389, 1199.294
945.9210, 1208.827
946.4031, 1220.850
946.8853, 1219.003
947.3674, 1203.382
947.8495, 1196.096
948.3316, 1199.350
948.8137, 1200.969
949.2958, 1195.619
949.7780, 1190.295
950.2601, 1193.344
950.7422, 1202.842
951.2243, 1208.169
951.7064, 1208.431
952.1885, 1211.073
952.6707, 1218.435
953.1528, 1221.422
953.6349, 1214.335
954.1170, 1203.895
954.5991, 1199.283
955.0812, 1200.194
955.5634, 1199.015
956.0455, 1194.431
956.5276, 1191.724
957.0097, 1191.199
957.4918, 1193.805
957.9739, 1203.372
958.4561, 1212.538
958.9382, 1206.615
959.4203, 1183.354
959.9024, 1177.930
960.3845, 1203.207
960.8666, 1220.509
961.3488, 1221.615
961.8309, 1216.935
962.3130, 1209.400
962.7951, 1202.016
963.2772, 1201.283
963.7593, 1208.794
964.2415, 1214.406
964.7236, 1213.981
965.2057, 1217.685
965.6878, 1233.606
966.1699, 1247.974
966.6520, 1249.523
967.1342, 1243.653
967.6163, 1242.843
968.0984, 1248.813
968.5805, 1254.077
969.0626, 1256.824
969.5447, 1260.796
970.0269, 1266.163
970.5090, 1273.783
970.9911, 1284.264
971.4732, 1297.519
971.9553, 1313.006
972.4374, 1330.262
972.9196, 1351.297
973.4017, 1374.023
973.8838, 1403.840
974.3659, 1447.100
974.8480, 1494.451
975.3301, 1531.695
975.8123, 1566.253
976.2944, 1622.339
976.7765, 1710.292
977.2586, 1797.651
977.7407, 1869.877
978.2228, 1948.602
978.7050, 2040.722
979.1871, 2145.474
979.6692, 2258.984
980.1513, 2383.779
980.6334, 2530.021
981.1155, 2701.608
981.5977, 2888.172
982.0798, 3102.440
982.5619, 3312.188
983.0440, 3505.076
983.5261, 3684.217
984.0082, 3862.439
984.4904, 4031.433
984.9725, 4160.996
985.4546, 4248.417
985.9367, 4280.406
986.4188, 4237.999
986.9009, 4155.157
987.3831, 4047.670
987.8652, 3913.641
988.3473, 3742.580
988.8294, 3541.577
989.3115, 3338.176
989.7936, 3139.524
990.2758, 2943.118
990.7579, 2740.266
991.2400, 2548.850
991.7221, 2385.103
992.2042, 2236.701
992.6863, 2080.858
993.1685, 1922.389
993.6506, 1790.134
994.1327, 1698.815
994.6148, 1621.021
995.0969, 1543.485
995.5790, 1476.582
996.0612, 1430.158
996.5433, 1397.141
997.0254, 1371.613
997.5075, 1350.504
997.9896, 1326.909
998.4717, 1295.953
998.9539, 1269.944
999.4360, 1260.593
999.9181, 1251.542
1000.400, 1226.783
1000.882, 1198.639
1001.364, 1183.537
1001.847, 1181.308
1002.329, 1182.056
1002.811, 1183.346
1003.293, 1184.208
1003.775, 1184.671
1004.257, 1184.037
1004.739, 1183.244
1005.221, 1180.135
1005.703, 1168.671
1006.186, 1152.005
1006.668, 1143.855
1007.150, 1151.870
1007.632, 1158.491
1008.114, 1154.226
1008.596, 1147.588
1009.078, 1143.393
1009.560, 1140.482
1010.043, 1137.106
1010.525, 1133.289
1011.007, 1130.170
1011.489, 1128.448
1011.971, 1126.061
1012.453, 1117.730
1012.935, 1113.448
1013.417, 1126.110
1013.899, 1141.176
1014.382, 1139.649
1014.864, 1125.199
1015.346, 1115.833
1015.828, 1117.122
1016.310, 1120.897
1016.792, 1130.080
1017.274, 1133.784
1017.756, 1118.497
1018.239, 1100.743
1018.721, 1100.672
1019.203, 1113.015
1019.685, 1116.292
1020.167, 1102.463
1020.649, 1095.435
1021.131, 1111.260
1021.613, 1125.317
1022.095, 1124.287
1022.578, 1118.010
1023.060, 1115.274
1023.542, 1115.225
1024.024, 1113.478
1024.506, 1108.898
1024.988, 1104.914
1025.470, 1102.112
1025.952, 1100.470
1026.435, 1101.979
1026.917, 1102.838
1027.399, 1096.552
1027.881, 1088.305
1028.363, 1091.718
1028.845, 1110.999
1029.327, 1120.119
1029.809, 1104.302
1030.292, 1091.745
1030.774, 1091.302
1031.256, 1095.176
1031.738, 1101.112
1032.220, 1106.316
1032.702, 1105.642
1033.184, 1098.250
1033.666, 1091.970
1034.148, 1086.620
1034.630, 1083.874
1035.113, 1085.494
1035.595, 1088.168
1036.077, 1090.760
1036.559, 1092.926
1037.041, 1093.631
1037.523, 1092.776
1038.005, 1094.202
1038.487, 1102.921
1038.970, 1105.753
1039.452, 1095.659
1039.934, 1087.824
1040.416, 1091.677
1040.898, 1098.793
1041.380, 1098.502
1041.862, 1091.651
1042.344, 1087.589
1042.826, 1086.486
1043.309, 1088.298
1043.791, 1097.017
1044.273, 1100.664
1044.755, 1090.258
1045.237, 1079.617
1045.719, 1084.015
1046.201, 1099.823
1046.683, 1110.878
1047.166, 1118.580
1047.648, 1115.308
1048.130, 1095.013
1048.612, 1081.683
1049.094, 1083.280
1049.576, 1091.628
1050.058, 1099.029
1050.540, 1109.267
1051.022, 1136.117
1051.505, 1183.371
1051.987, 1206.790
1052.469, 1202.248
1052.951, 1197.075
1053.433, 1195.877
1053.915, 1206.118
1054.397, 1235.143
1054.879, 1271.338
1055.361, 1292.270
1055.844, 1299.776
1056.326, 1315.703
1056.808, 1340.154
1057.290, 1369.800
1057.772, 1404.088
1058.254, 1444.724
1058.736, 1493.181
1059.218, 1541.160
1059.701, 1578.048
1060.183, 1604.915
1060.665, 1627.144
1061.147, 1643.080
1061.629, 1642.336
1062.111, 1624.510
1062.593, 1595.039
1063.075, 1556.435
1063.557, 1514.238
1064.040, 1473.572
1064.522, 1433.981
1065.004, 1393.838
1065.486, 1354.788
1065.968, 1320.707
1066.450, 1291.746
1066.932, 1268.787
1067.414, 1250.813
1067.896, 1229.436
1068.379, 1196.713
1068.861, 1167.065
1069.343, 1161.201
1069.825, 1165.170
1070.307, 1158.088
1070.789, 1146.036
1071.271, 1144.208
1071.753, 1152.702
1072.236, 1161.062
1072.718, 1165.589
1073.200, 1162.014
1073.682, 1139.355
1074.164, 1115.793
1074.646, 1106.348
1075.128, 1104.935
1075.610, 1106.634
1076.093, 1108.614
1076.575, 1105.782
1077.057, 1096.582
1077.539, 1089.619
1078.021, 1089.841
1078.503, 1091.537
1078.985, 1094.911
1079.467, 1096.025
1079.949, 1088.399
1080.432, 1078.125
1080.914, 1075.851
1081.396, 1082.401
1081.878, 1088.556
1082.360, 1089.763
1082.842, 1094.977
1083.324, 1112.644
1083.806, 1126.057
1084.288, 1123.819
1084.771, 1116.428
1085.253, 1117.128
1085.735, 1123.086
1086.217, 1119.391
1086.699, 1099.686
1087.181, 1087.200
1087.663, 1082.647
1088.145, 1084.587
1088.628, 1096.327
1089.110, 1107.792
1089.592, 1112.014
1090.074, 1110.383
1090.556, 1104.677
1091.038, 1094.472
1091.520, 1093.566
1092.002, 1103.831
1092.484, 1111.473
1092.967, 1114.169
1093.449, 1114.755
1093.931, 1114.482
1094.413, 1113.793
1094.895, 1113.009
1095.377, 1112.556
1095.859, 1115.369
1096.341, 1120.481
1096.823, 1117.770
1097.306, 1107.962
1097.788, 1107.887
1098.270, 1122.067
1098.752, 1132.266
1099.234, 1122.777
1099.716, 1106.632
1100.198, 1103.853
1100.680, 1108.945
1101.163, 1112.738
1101.645, 1114.206
1102.127, 1109.725
1102.609, 1101.159
1103.091, 1099.093
1103.573, 1108.932
1104.055, 1118.061
1104.537, 1111.243
1105.020, 1104.134
1105.502, 1114.270
1105.984, 1130.125
1106.466, 1140.622
1106.948, 1143.842
1107.430, 1136.035
1107.912, 1117.640
1108.394, 1106.138
1108.876, 1113.170
1109.359, 1121.476
1109.841, 1124.724
1110.323, 1127.210
1110.805, 1130.817
1111.287, 1135.635
1111.769, 1144.662
1112.251, 1155.457
1112.733, 1155.048
1113.215, 1134.299
1113.698, 1122.305
1114.180, 1125.628
1114.662, 1128.654
1115.144, 1127.430
1115.626, 1125.704
1116.108, 1126.078
1116.590, 1127.459
1117.072, 1127.527
1117.555, 1126.268
1118.037, 1128.860
1118.519, 1137.357
1119.001, 1135.934
1119.483, 1120.198
1119.965, 1112.551
1120.447, 1123.539
1120.929, 1138.364
1121.411, 1141.877
1121.894, 1137.700
1122.376, 1135.073
1122.858, 1133.207
1123.340, 1125.011
1123.822, 1112.849
1124.304, 1114.356
1124.786, 1130.708
1125.268, 1138.063
1125.750, 1122.407
1126.233, 1100.946
1126.715, 1091.896
1127.197, 1089.643
1127.679, 1085.705
1128.161, 1083.583
1128.643, 1092.822
1129.125, 1108.242
1129.607, 1114.411
1130.090, 1108.100
1130.572, 1101.263
1131.054, 1099.216
1131.536, 1099.276
1132.018, 1102.051
1132.500, 1104.216
1132.982, 1104.282
1133.464, 1101.872
1133.947, 1093.787
1134.429, 1082.835
1134.911, 1080.969
1135.393, 1095.315
1135.875, 1099.123
1136.357, 1078.615
1136.839, 1064.904
1137.321, 1066.774
1137.803, 1071.382
1138.286, 1071.454
1138.768, 1070.340
1139.250, 1074.383
1139.732, 1082.045
1140.214, 1076.664
1140.696, 1055.258
1141.178, 1044.800
1141.660, 1048.013
1142.142, 1050.957
1142.625, 1049.225
1143.107, 1045.613
1143.589, 1042.158
1144.071, 1038.754
1144.553, 1033.145
1145.035, 1028.094
1145.517, 1036.473
1145.999, 1052.018
1146.482, 1053.272
1146.964, 1040.956
1147.446, 1030.996
1147.928, 1029.364
1148.410, 1030.415
1148.892, 1033.134
1149.374, 1031.436
1149.856, 1014.019
1150.339, 995.1622
1150.821, 989.1256
1151.303, 991.3718
1151.785, 995.5637
1152.267, 999.9166
1152.749, 1002.644
1153.231, 1003.333
1153.713, 1002.260
1154.195, 995.0321
1154.677, 992.2499
1155.160, 1001.790
1155.642, 1011.583
1156.124, 1015.089
1156.606, 1013.734
1157.088, 1008.950
1157.570, 1001.009
1158.052, 992.4485
1158.534, 981.7401
1159.017, 977.8680
1159.499, 982.0504
1159.981, 989.9190
1160.463, 1001.176
1160.945, 1007.166
1161.427, 1001.104
1161.909, 988.9019
1162.391, 978.9405
1162.874, 971.6051
1163.356, 967.4877
1163.838, 967.1400
1164.320, 974.8792
1164.802, 988.4574
1165.284, 997.7997
1165.766, 1000.086
1166.248, 1001.869
1166.730, 1008.686
1167.213, 1013.405
1167.695, 1009.232
1168.177, 1001.298
1168.659, 991.1003
1169.141, 982.1592
1169.623, 980.7244
1170.105, 983.6642
1170.587, 979.6244
1171.069, 964.8353
1171.552, 958.2856
1172.034, 971.6594
1172.516, 980.3485
1172.998, 978.9960
1173.480, 974.4328
1173.962, 966.3514
1174.444, 960.8556
1174.926, 965.4689
1175.409, 976.9075
1175.891, 984.1422
1176.373, 987.0953
1176.855, 985.5812
1177.337, 979.4017
1177.819, 978.2795
1178.301, 983.9015
1178.783, 990.4133
1179.266, 994.9922
1179.748, 995.1416
1180.230, 987.2188
1180.712, 975.1317
1181.194, 961.9018
1181.676, 951.1514
1182.158, 952.4219
1182.640, 960.0580
1183.122, 960.2228
1183.604, 953.4750
1184.087, 953.5123
1184.569, 966.8659
1185.051, 975.0643
1185.533, 962.4207
1186.015, 952.7468
1186.497, 959.3479
1186.979, 968.8843
1187.461, 973.7595
1187.944, 974.6790
1188.426, 971.7127
1188.908, 966.0303
1189.390, 964.5724
1189.872, 967.8118
1190.354, 974.7524
1190.836, 987.8662
1191.318, 992.7053
1191.801, 984.8825
1192.283, 977.5944
1192.765, 978.8041
1193.247, 979.8607
1193.729, 967.6733
1194.211, 950.8021
1194.693, 952.4933
1195.175, 965.5820
1195.657, 972.0912
1196.140, 972.3338
1196.622, 970.2866
1197.104, 967.6348
1197.586, 966.1995
1198.068, 966.5901
1198.550, 970.3341
1199.032, 984.7134
1199.514, 994.5021
1199.996, 989.5795
1200.479, 978.1893
1200.961, 958.8770
1201.443, 942.2043
1201.925, 948.3246
1202.407, 973.1786
1202.889, 979.8674
1203.371, 960.2248
1203.853, 948.4649
1204.336, 947.0912
1204.818, 945.1791
1205.300, 939.8575
1205.782, 937.0444
1206.264, 940.0082
1206.746, 946.4329
1207.228, 954.3967
1207.710, 962.2124
1208.193, 966.0063
1208.675, 966.0714
1209.157, 961.1929
1209.639, 953.7586
1210.121, 950.9913
1210.603, 952.9477
1211.085, 954.3702
1211.567, 953.2013
1212.049, 949.8417
1212.531, 939.2643
1213.014, 933.7268
1213.496, 947.2856
1213.978, 959.7610
1214.460, 953.8115
1214.942, 941.0864
1215.424, 936.4395
1215.906, 938.1954
1216.388, 937.4167
1216.871, 932.6743
1217.353, 935.9521
1217.835, 951.9646
1218.317, 953.8183
1218.799, 935.1257
1219.281, 921.3555
1219.763, 923.2296
1220.245, 930.7491
1220.728, 935.3005
1221.210, 937.9478
1221.692, 941.3637
1222.174, 943.7288
1222.656, 938.3283
1223.138, 930.3597
1223.620, 932.2114
1224.102, 941.3309
1224.584, 946.6627
1225.067, 945.3898
1225.549, 942.0156
1226.031, 936.5311
1226.513, 933.0313
1226.995, 931.8700
1227.477, 934.2899
1227.959, 947.0960
1228.441, 956.9636
1228.923, 952.1808
1229.406, 939.8306
1229.888, 930.7865
1230.370, 925.4786
1230.852, 932.3528
1231.334, 952.4577
##END=



