##NAMES=Ettringite
##RRUFFID=R070208
##IDEAL CHEMISTRY=Ca_6_Al_2_(S^6+^O_4_)_3_(OH)_12_&#183;27H_2_O
##LOCALITY=Hatrurim Formation, Negev Desert, West of Dead Sea, southern Israel
##OWNER=RRUFF
##SOURCE=Michael Scott
##DESCRIPTION=Canary yellow to colorless prismatic and tabular hexagonal crystals associated with colorless afwillite, R070296.
##STATUS=The identification of this mineral has been confirmed only by single crystal X-ray diffraction.
##URL=rruff.info/R070208
170.3929, 5439.115
170.8750, 5443.559
171.3571, 5462.613
171.8392, 5488.856
172.3213, 5515.786
172.8034, 5543.561
173.2856, 5567.909
173.7677, 5584.368
174.2498, 5593.884
174.7319, 5599.483
175.2140, 5600.504
175.6961, 5599.375
176.1783, 5597.888
176.6604, 5592.254
177.1425, 5593.777
177.6246, 5625.753
178.1067, 5683.022
178.5888, 5734.210
179.0710, 5747.697
179.5531, 5737.785
180.0352, 5736.439
180.5173, 5755.540
180.9994, 5782.366
181.4815, 5793.601
181.9637, 5789.830
182.4458, 5786.265
182.9279, 5795.418
183.4100, 5815.539
183.8921, 5840.554
184.3742, 5871.807
184.8564, 5905.546
185.3385, 5930.415
185.8206, 5945.952
186.3027, 5960.809
186.7848, 5985.902
187.2669, 6019.671
187.7491, 6051.075
188.2312, 6076.093
188.7133, 6095.660
189.1954, 6111.692
189.6775, 6122.848
190.1596, 6136.104
190.6418, 6166.636
191.1239, 6213.592
191.6060, 6248.700
192.0881, 6250.929
192.5702, 6225.739
193.0524, 6224.170
193.5345, 6251.062
194.0166, 6288.897
194.4987, 6307.807
194.9808, 6306.217
195.4629, 6309.545
195.9451, 6335.084
196.4272, 6382.481
196.9093, 6413.725
197.3914, 6423.912
197.8735, 6423.781
198.3556, 6435.576
198.8378, 6461.745
199.3199, 6484.050
199.8020, 6489.581
200.2841, 6476.783
200.7662, 6470.269
201.2483, 6473.001
201.7305, 6481.355
202.2126, 6486.100
202.6947, 6486.191
203.1768, 6486.570
203.6589, 6492.313
204.1410, 6505.263
204.6232, 6509.273
205.1053, 6499.914
205.5874, 6482.009
206.0695, 6474.441
206.5516, 6483.159
207.0337, 6486.591
207.5159, 6466.177
207.9980, 6415.922
208.4801, 6371.817
208.9622, 6337.250
209.4443, 6312.217
209.9264, 6299.717
210.4086, 6306.460
210.8907, 6312.231
211.3728, 6300.758
211.8549, 6267.952
212.3370, 6230.790
212.8191, 6188.187
213.3013, 6142.182
213.7834, 6108.440
214.2655, 6092.405
214.7476, 6079.799
215.2297, 6056.905
215.7118, 6017.163
216.1940, 5985.199
216.6761, 5968.384
217.1582, 5965.650
217.6403, 5954.621
218.1224, 5933.782
218.6045, 5906.884
219.0867, 5875.441
219.5688, 5834.319
220.0509, 5801.714
220.5330, 5784.590
221.0151, 5783.162
221.4972, 5776.057
221.9794, 5762.054
222.4615, 5743.690
222.9436, 5722.840
223.4257, 5697.474
223.9078, 5673.643
224.3899, 5653.991
224.8721, 5638.873
225.3542, 5618.918
225.8363, 5588.897
226.3184, 5558.821
226.8005, 5541.615
227.2827, 5546.056
227.7648, 5546.832
228.2469, 5537.099
228.7290, 5515.640
229.2111, 5493.322
229.6932, 5469.367
230.1754, 5445.450
230.6575, 5422.842
231.1396, 5399.250
231.6217, 5381.569
232.1038, 5374.001
232.5859, 5379.990
233.0681, 5377.089
233.5502, 5361.372
234.0323, 5339.651
234.5144, 5321.686
234.9965, 5310.228
235.4786, 5297.996
235.9608, 5281.489
236.4429, 5258.464
236.9250, 5243.631
237.4071, 5244.700
237.8892, 5249.257
238.3713, 5235.692
238.8535, 5190.384
239.3356, 5149.778
239.8177, 5126.610
240.2998, 5125.932
240.7819, 5123.341
241.2640, 5118.426
241.7462, 5111.797
242.2283, 5104.512
242.7104, 5096.937
243.1925, 5088.047
243.6746, 5076.603
244.1567, 5060.282
244.6389, 5049.616
245.1210, 5047.173
245.6031, 5048.850
246.0852, 5047.909
246.5673, 5045.183
247.0494, 5038.332
247.5316, 5025.001
248.0137, 5001.216
248.4958, 4984.958
248.9779, 4980.351
249.4600, 4981.042
249.9421, 4974.111
250.4243, 4952.401
250.9064, 4935.849
251.3885, 4933.628
251.8706, 4952.246
252.3527, 4963.503
252.8348, 4966.083
253.3170, 4962.164
253.7991, 4955.340
254.2812, 4944.748
254.7633, 4933.000
255.2454, 4919.737
255.7275, 4902.544
256.2097, 4893.669
256.6918, 4895.627
257.1739, 4904.267
257.6560, 4912.827
258.1381, 4922.955
258.6202, 4929.521
259.1024, 4928.234
259.5845, 4914.397
260.0666, 4913.625
260.5487, 4932.538
261.0308, 4959.493
261.5129, 4972.502
261.9951, 4965.592
262.4772, 4958.773
262.9593, 4961.444
263.4414, 4977.355
263.9235, 4983.986
264.4056, 4977.411
264.8878, 4965.276
265.3699, 4961.147
265.8520, 4967.034
266.3341, 4975.140
266.8162, 4983.495
267.2983, 4992.632
267.7805, 4996.615
268.2626, 4991.160
268.7447, 4985.316
269.2268, 4999.229
269.7089, 5040.966
270.1910, 5073.313
270.6732, 5076.758
271.1553, 5046.713
271.6374, 5033.958
272.1195, 5043.005
272.6016, 5062.731
273.0837, 5075.115
273.5659, 5079.009
274.0480, 5081.746
274.5301, 5085.276
275.0122, 5089.507
275.4943, 5098.390
275.9764, 5114.028
276.4586, 5130.360
276.9407, 5138.347
277.4228, 5137.445
277.9049, 5132.166
278.3870, 5119.270
278.8691, 5099.774
279.3513, 5100.684
279.8334, 5127.120
280.3155, 5160.792
280.7976, 5176.572
281.2798, 5173.692
281.7619, 5167.782
282.2440, 5162.506
282.7261, 5158.429
283.2082, 5161.621
283.6903, 5173.772
284.1725, 5186.961
284.6546, 5187.680
285.1367, 5176.663
285.6188, 5173.893
286.1009, 5192.822
286.5830, 5226.338
287.0652, 5241.286
287.5473, 5235.248
288.0294, 5224.303
288.5115, 5226.776
288.9936, 5241.179
289.4757, 5254.898
289.9579, 5262.668
290.4400, 5267.034
290.9221, 5275.332
291.4042, 5287.725
291.8863, 5302.048
292.3684, 5321.741
292.8506, 5343.311
293.3327, 5350.949
293.8148, 5329.274
294.2969, 5296.650
294.7790, 5292.042
295.2611, 5315.531
295.7433, 5343.683
296.2254, 5356.716
296.7075, 5358.493
297.1896, 5359.068
297.6717, 5358.979
298.1538, 5361.300
298.6360, 5374.265
299.1181, 5396.872
299.6002, 5415.868
300.0823, 5420.319
300.5644, 5414.198
301.0465, 5404.172
301.5287, 5387.992
302.0108, 5373.641
302.4929, 5369.147
302.9750, 5374.248
303.4571, 5387.677
303.9392, 5420.953
304.4214, 5458.380
304.9035, 5477.190
305.3856, 5461.865
305.8677, 5442.173
306.3498, 5446.403
306.8319, 5468.938
307.3141, 5490.126
307.7962, 5498.589
308.2783, 5499.764
308.7604, 5498.313
309.2425, 5493.707
309.7246, 5489.843
310.2068, 5488.983
310.6889, 5490.785
311.1710, 5494.312
311.6531, 5498.518
312.1352, 5504.640
312.6173, 5515.542
313.0995, 5535.452
313.5816, 5548.681
314.0637, 5535.653
314.5458, 5511.581
315.0279, 5504.944
315.5100, 5546.706
315.9922, 5593.665
316.4743, 5620.468
316.9564, 5618.492
317.4385, 5620.036
317.9206, 5645.621
318.4027, 5678.862
318.8849, 5696.860
319.3670, 5670.981
319.8491, 5648.595
320.3312, 5650.636
320.8133, 5683.441
321.2954, 5711.349
321.7776, 5726.118
322.2597, 5733.318
322.7418, 5738.885
323.2239, 5736.463
323.7060, 5739.676
324.1881, 5754.017
324.6703, 5780.713
325.1524, 5804.594
325.6345, 5825.646
326.1166, 5842.684
326.5987, 5854.759
327.0808, 5846.607
327.5630, 5851.606
328.0451, 5880.585
328.5272, 5931.935
329.0093, 5970.640
329.4914, 5990.022
329.9735, 6002.018
330.4557, 6013.331
330.9378, 6019.629
331.4199, 6032.788
331.9020, 6053.613
332.3841, 6082.019
332.8662, 6119.929
333.3484, 6177.004
333.8305, 6228.368
334.3126, 6257.716
334.7947, 6253.930
335.2768, 6261.028
335.7589, 6280.466
336.2411, 6312.355
336.7232, 6362.104
337.2053, 6437.231
337.6874, 6507.197
338.1695, 6552.487
338.6516, 6567.670
339.1338, 6605.263
339.6159, 6672.671
340.0980, 6751.809
340.5801, 6808.044
341.0622, 6839.294
341.5443, 6873.020
342.0265, 6919.785
342.5086, 6978.847
342.9907, 7050.127
343.4728, 7135.110
343.9549, 7224.147
344.4370, 7305.305
344.9192, 7378.624
345.4013, 7448.125
345.8834, 7511.693
346.3655, 7572.467
346.8476, 7633.301
347.3297, 7693.593
347.8119, 7762.759
348.2940, 7859.077
348.7761, 7972.464
349.2582, 8069.166
349.7403, 8132.561
350.2225, 8184.722
350.7046, 8263.861
351.1867, 8366.337
351.6688, 8458.502
352.1509, 8505.342
352.6331, 8529.395
353.1152, 8566.118
353.5973, 8630.166
354.0794, 8695.917
354.5615, 8735.403
355.0436, 8756.680
355.5258, 8784.267
356.0079, 8847.638
356.4900, 8914.343
356.9721, 8955.103
357.4542, 8961.526
357.9363, 8955.244
358.4185, 8943.926
358.9006, 8928.571
359.3827, 8910.915
359.8648, 8891.459
360.3469, 8870.010
360.8290, 8847.143
361.3112, 8823.212
361.7933, 8794.766
362.2754, 8759.992
362.7575, 8720.222
363.2396, 8676.714
363.7217, 8634.337
364.2039, 8584.244
364.6860, 8515.610
365.1681, 8427.921
365.6502, 8361.352
366.1323, 8338.331
366.6144, 8326.437
367.0966, 8303.260
367.5787, 8257.069
368.0608, 8213.381
368.5429, 8175.173
369.0250, 8140.996
369.5071, 8104.591
369.9893, 8066.952
370.4714, 8026.151
370.9535, 7978.646
371.4356, 7912.352
371.9177, 7869.710
372.3998, 7862.174
372.8820, 7872.964
373.3641, 7864.379
373.8462, 7830.909
374.3283, 7792.314
374.8104, 7752.819
375.2925, 7710.559
375.7747, 7688.507
376.2568, 7692.070
376.7389, 7704.738
377.2210, 7706.404
377.7031, 7696.959
378.1852, 7677.769
378.6674, 7645.948
379.1495, 7604.900
379.6316, 7566.245
380.1137, 7529.997
380.5958, 7498.953
381.0779, 7480.196
381.5601, 7470.574
382.0422, 7456.173
382.5243, 7433.640
383.0064, 7404.653
383.4885, 7372.002
383.9706, 7335.276
384.4528, 7293.779
384.9349, 7236.511
385.4170, 7176.487
385.8991, 7136.646
386.3812, 7124.552
386.8633, 7118.055
387.3455, 7097.636
387.8276, 7067.074
388.3097, 7034.565
388.7918, 7005.422
389.2739, 6975.538
389.7560, 6938.130
390.2382, 6891.359
390.7203, 6853.188
391.2024, 6846.753
391.6845, 6849.793
392.1666, 6836.500
392.6487, 6777.275
393.1309, 6719.869
393.6130, 6683.979
394.0951, 6668.386
394.5772, 6657.214
395.0593, 6653.797
395.5414, 6648.840
396.0236, 6636.524
396.5057, 6604.523
396.9878, 6578.738
397.4699, 6559.730
397.9520, 6548.544
398.4341, 6549.171
398.9163, 6586.006
399.3984, 6609.158
399.8805, 6595.093
400.3626, 6521.074
400.8447, 6478.605
401.3268, 6480.729
401.8090, 6504.844
402.2911, 6520.532
402.7732, 6526.990
403.2553, 6526.212
403.7374, 6515.132
404.2195, 6494.888
404.7017, 6488.524
405.1838, 6500.356
405.6659, 6514.418
406.1480, 6512.775
406.6301, 6495.044
407.1122, 6487.774
407.5944, 6498.806
408.0765, 6519.882
408.5586, 6530.879
409.0407, 6532.023
409.5228, 6531.908
410.0049, 6538.672
410.4871, 6548.606
410.9692, 6549.351
411.4513, 6537.566
411.9334, 6525.048
412.4155, 6530.716
412.8976, 6547.441
413.3798, 6554.613
413.8619, 6524.305
414.3440, 6490.556
414.8261, 6496.195
415.3082, 6541.888
415.7903, 6583.730
416.2725, 6585.204
416.7546, 6570.101
417.2367, 6565.339
417.7188, 6584.523
418.2009, 6610.137
418.6830, 6640.136
419.1652, 6671.679
419.6473, 6693.155
420.1294, 6691.466
420.6115, 6685.738
421.0937, 6686.638
421.5758, 6699.049
422.0579, 6710.543
422.5400, 6720.020
423.0221, 6727.548
423.5042, 6733.129
423.9864, 6720.296
424.4685, 6724.332
424.9506, 6764.235
425.4327, 6845.051
425.9148, 6887.218
426.3969, 6870.388
426.8791, 6838.133
427.3612, 6828.839
427.8433, 6850.440
428.3254, 6869.278
428.8075, 6877.384
429.2896, 6880.913
429.7718, 6902.551
430.2539, 6945.059
430.7360, 6990.860
431.2181, 7032.604
431.7002, 7069.838
432.1823, 7093.018
432.6645, 7098.600
433.1466, 7100.418
433.6287, 7119.999
434.1108, 7153.696
434.5929, 7183.485
435.0750, 7198.629
435.5572, 7206.396
436.0393, 7217.493
436.5214, 7232.026
437.0035, 7252.267
437.4856, 7278.315
437.9677, 7311.454
438.4499, 7356.086
438.9320, 7425.041
439.4141, 7485.756
439.8962, 7507.122
440.3783, 7501.254
440.8604, 7500.015
441.3426, 7512.947
441.8247, 7537.867
442.3068, 7578.123
442.7889, 7639.094
443.2710, 7690.912
443.7531, 7722.824
444.2353, 7742.500
444.7174, 7758.961
445.1995, 7771.313
445.6816, 7782.574
446.1637, 7795.028
446.6458, 7807.923
447.1280, 7813.323
447.6101, 7804.967
448.0922, 7796.005
448.5743, 7795.964
449.0564, 7815.138
449.5385, 7813.408
450.0207, 7780.471
450.5028, 7734.736
450.9849, 7713.904
451.4670, 7723.537
451.9491, 7730.943
452.4312, 7724.521
452.9134, 7705.143
453.3955, 7678.608
453.8776, 7644.588
454.3597, 7606.600
454.8418, 7565.163
455.3239, 7521.950
455.8061, 7486.028
456.2882, 7460.461
456.7703, 7440.748
457.2524, 7421.432
457.7345, 7402.617
458.2166, 7384.261
458.6988, 7368.113
459.1809, 7351.693
459.6630, 7334.680
460.1451, 7317.976
460.6272, 7292.193
461.1093, 7240.067
461.5915, 7178.997
462.0736, 7131.683
462.5557, 7121.045
463.0378, 7110.229
463.5199, 7080.165
464.0020, 7034.727
464.4842, 7003.059
464.9663, 6998.535
465.4484, 7004.283
465.9305, 7012.976
466.4126, 7038.353
466.8947, 7041.268
467.3769, 7007.439
467.8590, 6957.498
468.3411, 6924.683
468.8232, 6914.829
469.3053, 6911.375
469.7874, 6912.066
470.2696, 6916.432
470.7517, 6915.859
471.2338, 6910.163
471.7159, 6900.177
472.1980, 6881.849
472.6801, 6855.640
473.1623, 6845.029
473.6444, 6856.675
474.1265, 6878.463
474.6086, 6895.841
475.0907, 6907.407
475.5728, 6904.116
476.0550, 6860.306
476.5371, 6805.746
477.0192, 6798.328
477.5013, 6840.517
477.9834, 6879.853
478.4655, 6867.431
478.9477, 6830.423
479.4298, 6804.652
479.9119, 6806.129
480.3940, 6814.122
480.8761, 6820.949
481.3582, 6826.221
481.8404, 6828.701
482.3225, 6825.374
482.8046, 6821.308
483.2867, 6817.301
483.7688, 6810.864
484.2509, 6813.443
484.7331, 6839.619
485.2152, 6868.161
485.6973, 6879.150
486.1794, 6862.578
486.6615, 6844.853
487.1436, 6826.043
487.6258, 6808.627
488.1079, 6807.077
488.5900, 6827.459
489.0721, 6846.973
489.5542, 6851.518
490.0363, 6840.988
490.5185, 6832.884
491.0006, 6827.355
491.4827, 6825.466
491.9648, 6830.671
492.4470, 6841.666
492.9291, 6850.981
493.4112, 6853.401
493.8933, 6854.896
494.3754, 6867.646
494.8575, 6889.660
495.3397, 6907.651
495.8218, 6907.600
496.3039, 6901.729
496.7860, 6904.442
497.2681, 6920.323
497.7502, 6935.205
498.2324, 6941.973
498.7145, 6943.168
499.1966, 6942.365
499.6787, 6940.595
500.1608, 6936.948
500.6429, 6926.836
501.1251, 6911.406
501.6072, 6908.211
502.0893, 6924.415
502.5714, 6947.772
503.0535, 6975.144
503.5356, 7017.417
504.0178, 7036.009
504.4999, 7021.370
504.9820, 6991.502
505.4641, 6972.229
505.9462, 6964.330
506.4283, 6963.094
506.9105, 6967.312
507.3926, 6977.212
507.8747, 6997.959
508.3568, 7030.506
508.8389, 7057.295
509.3210, 7057.229
509.8032, 7041.684
510.2853, 7045.961
510.7674, 7078.979
511.2495, 7112.464
511.7316, 7112.893
512.2137, 7092.574
512.6959, 7076.612
513.1780, 7076.705
513.6601, 7083.520
514.1422, 7091.760
514.6243, 7101.525
515.1064, 7114.064
515.5886, 7130.035
516.0707, 7148.886
516.5528, 7171.720
517.0349, 7207.214
517.5170, 7229.221
517.9991, 7226.383
518.4813, 7212.023
518.9634, 7202.460
519.4455, 7199.967
519.9276, 7198.143
520.4097, 7194.074
520.8918, 7189.243
521.3740, 7194.468
521.8561, 7212.238
522.3382, 7231.817
522.8203, 7242.760
523.3024, 7246.208
523.7845, 7267.507
524.2667, 7312.399
524.7488, 7359.069
525.2309, 7380.174
525.7130, 7381.124
526.1951, 7380.375
526.6772, 7384.956
527.1594, 7390.461
527.6415, 7389.077
528.1236, 7383.052
528.6057, 7382.303
529.0878, 7393.643
529.5699, 7411.713
530.0521, 7433.905
530.5342, 7461.648
531.0163, 7486.212
531.4984, 7500.503
531.9805, 7512.281
532.4626, 7529.857
532.9448, 7553.398
533.4269, 7584.497
533.9090, 7631.961
534.3911, 7688.057
534.8732, 7718.217
535.3553, 7707.323
535.8375, 7699.455
536.3196, 7715.973
536.8017, 7758.563
537.2838, 7794.424
537.7659, 7823.822
538.2480, 7846.681
538.7302, 7860.565
539.2123, 7866.864
539.6944, 7874.417
540.1765, 7885.562
540.6586, 7898.022
541.1407, 7907.020
541.6229, 7914.333
542.1050, 7926.415
542.5871, 7949.663
543.0692, 7977.327
543.5513, 8006.074
544.0334, 8035.346
544.5156, 8057.007
544.9977, 8059.416
545.4798, 8057.132
545.9619, 8061.866
546.4440, 8083.124
546.9261, 8100.594
547.4083, 8111.152
547.8904, 8116.251
548.3725, 8118.689
548.8546, 8120.577
549.3367, 8115.941
549.8188, 8099.913
550.3010, 8074.265
550.7831, 8062.906
551.2652, 8071.168
551.7473, 8075.892
552.2294, 8055.465
552.7115, 8013.131
553.1937, 7984.637
553.6758, 7975.558
554.1579, 7968.904
554.6400, 7936.405
555.1221, 7888.373
555.6042, 7855.538
556.0864, 7859.671
556.5685, 7872.245
557.0506, 7865.316
557.5327, 7843.301
558.0148, 7822.629
558.4969, 7808.760
558.9791, 7800.595
559.4612, 7798.741
559.9433, 7804.467
560.4254, 7810.003
560.9075, 7824.349
561.3896, 7831.769
561.8718, 7817.396
562.3539, 7755.180
562.8360, 7715.970
563.3181, 7710.789
563.8002, 7729.232
564.2823, 7749.011
564.7645, 7771.387
565.2466, 7788.474
565.7287, 7794.780
566.2108, 7792.971
566.6929, 7800.326
567.1750, 7817.622
567.6572, 7825.097
568.1393, 7793.029
568.6214, 7741.298
569.1035, 7711.544
569.5856, 7712.460
570.0677, 7725.557
570.5499, 7744.982
571.0320, 7764.494
571.5141, 7774.400
571.9962, 7762.195
572.4783, 7748.637
572.9604, 7740.453
573.4426, 7737.588
573.9247, 7738.889
574.4068, 7748.292
574.8889, 7758.101
575.3710, 7764.178
575.8531, 7764.250
576.3353, 7772.865
576.8174, 7793.906
577.2995, 7817.606
577.7816, 7834.599
578.2637, 7844.162
578.7458, 7853.726
579.2280, 7864.271
579.7101, 7875.438
580.1922, 7886.948
580.6743, 7898.651
581.1564, 7909.707
581.6385, 7920.678
582.1207, 7930.295
582.6028, 7938.962
583.0849, 7945.796
583.5670, 7944.548
584.0491, 7913.674
584.5313, 7884.635
585.0134, 7886.442
585.4955, 7935.780
585.9776, 7975.222
586.4597, 7981.813
586.9418, 7974.388
587.4240, 7974.209
587.9061, 7987.713
588.3882, 7999.410
588.8703, 8005.819
589.3524, 8009.861
589.8345, 8022.111
590.3167, 8046.037
590.7988, 8064.463
591.2809, 8063.766
591.7630, 8050.384
592.2451, 8064.148
592.7272, 8106.344
593.2094, 8144.277
593.6915, 8143.290
594.1736, 8120.200
594.6557, 8106.228
595.1378, 8106.886
595.6199, 8115.918
596.1021, 8134.024
596.5842, 8156.216
597.0663, 8175.456
597.5485, 8187.319
598.0306, 8197.776
598.5127, 8209.660
598.9948, 8221.925
599.4769, 8230.387
599.9590, 8241.649
600.4412, 8240.928
600.9233, 8218.262
601.4054, 8170.994
601.8875, 8143.070
602.3696, 8138.332
602.8517, 8144.093
603.3339, 8150.918
603.8160, 8158.938
604.2981, 8171.142
604.7802, 8189.549
605.2623, 8205.825
605.7444, 8204.418
606.2266, 8191.750
606.7087, 8185.435
607.1908, 8200.055
607.6729, 8214.976
608.1550, 8210.483
608.6371, 8192.142
609.1193, 8177.877
609.6014, 8176.640
610.0835, 8179.750
610.5656, 8182.060
611.0477, 8182.093
611.5298, 8191.735
612.0120, 8228.351
612.4941, 8257.628
612.9762, 8250.489
613.4583, 8188.213
613.9404, 8161.480
614.4225, 8185.435
614.9047, 8225.597
615.3868, 8227.508
615.8689, 8194.677
616.3510, 8174.598
616.8331, 8187.463
617.3152, 8211.849
617.7974, 8214.397
618.2795, 8199.426
618.7616, 8183.982
619.2437, 8171.979
619.7258, 8167.170
620.2079, 8178.700
620.6901, 8206.511
621.1722, 8221.894
621.6543, 8196.858
622.1364, 8168.761
622.6185, 8164.526
623.1006, 8205.964
623.5828, 8224.594
624.0649, 8208.064
624.5470, 8180.055
625.0291, 8169.227
625.5112, 8178.536
625.9933, 8189.771
626.4755, 8200.688
626.9576, 8210.248
627.4397, 8218.769
627.9218, 8225.261
628.4039, 8222.212
628.8860, 8188.819
629.3682, 8152.677
629.8503, 8157.955
630.3324, 8199.750
630.8145, 8240.718
631.2966, 8264.286
631.7787, 8275.209
632.2609, 8272.764
632.7430, 8250.848
633.2251, 8239.701
633.7072, 8258.594
634.1893, 8282.440
634.6714, 8288.357
635.1536, 8257.887
635.6357, 8250.976
636.1178, 8276.032
636.5999, 8322.188
637.0820, 8378.831
637.5641, 8447.022
638.0463, 8488.813
638.5284, 8477.438
639.0105, 8445.149
639.4926, 8457.235
639.9747, 8508.796
640.4568, 8570.365
640.9390, 8637.341
641.4211, 8698.124
641.9032, 8739.920
642.3853, 8761.732
642.8674, 8779.615
643.3495, 8790.199
643.8317, 8805.553
644.3138, 8834.542
644.7959, 8883.225
645.2780, 8937.554
645.7601, 9008.426
646.2422, 9075.231
646.7244, 9105.789
647.2065, 9087.019
647.6886, 9103.650
648.1707, 9184.335
648.6528, 9287.729
649.1349, 9326.154
649.6171, 9307.296
650.0992, 9287.272
650.5813, 9300.052
651.0634, 9321.106
651.5455, 9320.420
652.0276, 9300.546
652.5098, 9275.164
652.9919, 9254.198
653.4740, 9227.964
653.9561, 9189.580
654.4382, 9136.985
654.9203, 9080.789
655.4025, 9025.631
655.8846, 8964.488
656.3667, 8889.703
656.8488, 8788.741
657.3309, 8713.764
657.8130, 8672.764
658.2952, 8645.818
658.7773, 8603.900
659.2594, 8548.337
659.7415, 8500.270
660.2236, 8468.465
660.7057, 8440.993
661.1879, 8394.517
661.6700, 8337.881
662.1521, 8296.414
662.6342, 8300.496
663.1163, 8308.019
663.5984, 8288.561
664.0806, 8245.555
664.5627, 8211.924
665.0448, 8209.871
665.5269, 8206.235
666.0090, 8184.172
666.4911, 8139.628
666.9733, 8107.253
667.4554, 8085.928
667.9375, 8079.000
668.4196, 8098.222
668.9017, 8142.173
669.3839, 8161.652
669.8660, 8149.118
670.3481, 8126.757
670.8302, 8122.443
671.3123, 8127.569
671.7944, 8121.833
672.2766, 8088.187
672.7587, 8059.767
673.2408, 8064.332
673.7229, 8088.849
674.2050, 8107.827
674.6871, 8114.882
675.1693, 8114.728
675.6514, 8103.357
676.1335, 8084.386
676.6156, 8078.496
677.0977, 8093.639
677.5798, 8103.482
678.0620, 8091.651
678.5441, 8061.793
679.0262, 8052.091
679.5083, 8063.312
679.9904, 8080.903
680.4725, 8101.311
680.9547, 8117.747
681.4368, 8113.711
681.9189, 8084.914
682.4010, 8059.000
682.8831, 8055.841
683.3652, 8064.540
683.8474, 8074.799
684.3295, 8089.615
684.8116, 8097.488
685.2937, 8090.729
685.7758, 8078.841
686.2579, 8074.455
686.7401, 8080.623
687.2222, 8084.843
687.7043, 8081.281
688.1864, 8077.917
688.6685, 8102.198
689.1506, 8151.659
689.6328, 8186.371
690.1149, 8179.913
690.5970, 8154.132
691.0791, 8138.509
691.5612, 8132.186
692.0433, 8131.051
692.5255, 8135.477
693.0076, 8142.167
693.4897, 8149.943
693.9718, 8158.938
694.4539, 8165.714
694.9360, 8172.920
695.4182, 8174.875
695.9003, 8166.082
696.3824, 8141.347
696.8645, 8130.735
697.3466, 8138.892
697.8287, 8148.980
698.3109, 8139.726
698.7930, 8115.244
699.2751, 8095.448
699.7572, 8082.015
700.2393, 8081.095
700.7214, 8108.572
701.2036, 8151.110
701.6857, 8186.427
702.1678, 8201.410
702.6499, 8213.882
703.1320, 8234.221
703.6141, 8256.814
704.0963, 8266.846
704.5784, 8250.846
705.0605, 8242.541
705.5426, 8252.006
706.0247, 8274.477
706.5068, 8291.845
706.9890, 8305.511
707.4711, 8303.147
707.9532, 8258.154
708.4353, 8196.865
708.9174, 8198.399
709.3995, 8256.991
709.8817, 8316.969
710.3638, 8343.072
710.8459, 8351.279
711.3280, 8353.402
711.8101, 8350.481
712.2922, 8344.733
712.7744, 8318.702
713.2565, 8303.816
713.7386, 8323.986
714.2207, 8404.951
714.7028, 8452.953
715.1849, 8460.450
715.6671, 8448.819
716.1492, 8435.454
716.6313, 8421.716
717.1134, 8426.215
717.5955, 8456.913
718.0776, 8491.068
718.5598, 8502.329
719.0419, 8496.297
719.5240, 8483.402
720.0061, 8457.373
720.4882, 8437.422
720.9703, 8435.511
721.4525, 8445.782
721.9346, 8454.882
722.4167, 8460.397
722.8988, 8465.748
723.3809, 8473.049
723.8630, 8480.515
724.3452, 8480.818
724.8273, 8473.602
725.3094, 8461.645
725.7915, 8440.882
726.2736, 8418.287
726.7557, 8418.590
727.2379, 8438.188
727.7200, 8448.748
728.2021, 8419.681
728.6842, 8382.544
729.1663, 8367.099
729.6484, 8376.703
730.1306, 8375.607
730.6127, 8334.921
731.0948, 8296.459
731.5769, 8284.162
732.0590, 8305.251
732.5411, 8322.150
733.0233, 8333.984
733.5054, 8343.592
733.9875, 8358.008
734.4696, 8374.626
734.9517, 8370.667
735.4338, 8341.068
735.9160, 8306.389
736.3981, 8277.950
736.8802, 8260.930
737.3623, 8266.795
737.8444, 8319.571
738.3266, 8354.676
738.8087, 8330.064
739.2908, 8279.089
739.7729, 8251.699
740.2551, 8270.500
740.7372, 8273.338
741.2193, 8243.504
741.7014, 8202.068
742.1835, 8198.957
742.6656, 8234.685
743.1478, 8263.632
743.6299, 8269.750
744.1120, 8263.192
744.5941, 8257.813
745.0762, 8252.988
745.5583, 8246.604
746.0405, 8227.865
746.5226, 8216.454
747.0047, 8230.555
747.4868, 8264.654
747.9689, 8285.703
748.4510, 8276.511
748.9332, 8270.914
749.4153, 8281.624
749.8974, 8306.644
750.3795, 8322.278
750.8616, 8327.629
751.3438, 8330.277
751.8259, 8337.030
752.3080, 8344.130
752.7901, 8339.982
753.2722, 8325.039
753.7543, 8312.473
754.2365, 8310.869
754.7186, 8315.387
755.2007, 8326.606
755.6828, 8348.576
756.1649, 8352.499
756.6470, 8313.637
757.1292, 8273.007
757.6113, 8254.598
758.0934, 8261.640
758.5755, 8278.783
759.0576, 8308.959
759.5397, 8339.948
760.0219, 8361.438
760.5040, 8373.553
760.9861, 8375.723
761.4682, 8367.585
761.9503, 8351.097
762.4324, 8316.183
762.9146, 8278.628
763.3967, 8257.245
763.8788, 8264.919
764.3609, 8275.457
764.8430, 8287.351
765.3251, 8298.475
765.8073, 8306.378
766.2894, 8310.474
766.7715, 8315.010
767.2536, 8323.537
767.7357, 8327.027
768.2178, 8301.051
768.7000, 8254.309
769.1821, 8224.106
769.6642, 8226.678
770.1463, 8242.757
770.6284, 8262.455
771.1105, 8282.822
771.5927, 8298.157
772.0748, 8302.093
772.5569, 8306.077
773.0390, 8311.387
773.5211, 8318.813
774.0032, 8334.520
774.4854, 8366.089
774.9675, 8374.486
775.4496, 8335.526
775.9317, 8276.885
776.4138, 8277.423
776.8959, 8326.435
777.3781, 8365.785
777.8602, 8351.573
778.3423, 8325.586
778.8244, 8325.541
779.3065, 8345.191
779.7886, 8356.348
780.2708, 8344.942
780.7529, 8328.962
781.2350, 8310.442
781.7171, 8290.993
782.1992, 8287.211
782.6813, 8301.838
783.1635, 8321.555
783.6456, 8345.561
784.1277, 8368.498
784.6098, 8368.100
785.0919, 8346.751
785.5740, 8328.221
786.0562, 8328.518
786.5383, 8337.564
787.0204, 8349.843
787.5025, 8364.839
787.9846, 8374.424
788.4667, 8377.619
788.9489, 8373.552
789.4310, 8358.128
789.9131, 8330.083
790.3952, 8316.681
790.8773, 8318.656
791.3594, 8332.344
791.8416, 8365.382
792.3237, 8406.700
792.8058, 8421.490
793.2879, 8408.683
793.7700, 8399.028
794.2521, 8426.089
794.7343, 8457.164
795.2164, 8461.392
795.6985, 8426.630
796.1806, 8404.810
796.6627, 8406.813
797.1448, 8416.673
797.6270, 8423.864
798.1091, 8427.080
798.5912, 8441.577
799.0733, 8470.502
799.5554, 8494.868
800.0375, 8486.967
800.5197, 8463.724
801.0018, 8462.631
801.4839, 8492.344
801.9660, 8512.987
802.4481, 8480.614
802.9302, 8440.830
803.4124, 8434.819
803.8945, 8493.833
804.3766, 8498.294
804.8587, 8551.079
805.3408, 8585.000
805.8229, 8601.069
806.3051, 8545.828
806.7872, 8582.671
807.2693, 8582.610
807.7514, 8581.036
808.2335, 8630.842
808.7156, 8585.969
809.1978, 8634.962
809.6799, 8646.483
810.1620, 8675.153
810.6441, 8666.691
811.1262, 8669.698
811.6083, 8709.849
812.0905, 8729.436
812.5726, 8716.698
813.0547, 8746.459
813.5368, 8700.290
814.0189, 8720.751
814.5010, 8769.957
814.9832, 8759.091
815.4653, 8789.529
815.9474, 8804.235
816.4295, 8747.443
816.9116, 8814.995
817.3937, 8781.131
817.8759, 8752.184
818.3580, 8742.042
818.8401, 8780.372
819.3222, 8829.593
819.8043, 8851.979
820.2864, 8838.283
820.7686, 8841.685
821.2507, 8869.358
821.7328, 8907.250
822.2149, 8943.070
822.6970, 8973.975
823.1791, 8990.699
823.6613, 8986.265
824.1434, 8983.270
824.6255, 8998.665
825.1076, 9022.761
825.5897, 9044.510
826.0718, 9047.797
826.5540, 9070.912
827.0361, 9121.841
827.5182, 9183.808
828.0003, 9238.560
828.4824, 9285.738
828.9645, 9331.329
829.4467, 9375.107
829.9288, 9420.839
830.4109, 9483.924
830.8930, 9548.096
831.3751, 9582.717
831.8572, 9552.683
832.3394, 9554.542
832.8215, 9644.321
833.3036, 9771.876
833.7857, 9882.042
834.2678, 9970.642
834.7499, 10045.20
835.2321, 10095.90
835.7142, 10155.27
836.1963, 10278.76
836.6784, 10447.91
837.1605, 10583.36
837.6426, 10658.29
838.1248, 10746.72
838.6069, 10914.78
839.0890, 11123.60
839.5711, 11326.01
840.0532, 11479.22
840.5353, 11690.73
841.0175, 11987.65
841.4996, 12321.66
841.9817, 12630.21
842.4638, 12910.99
842.9459, 13252.09
843.4280, 13660.79
843.9102, 14135.68
844.3923, 14676.25
844.8744, 15284.14
845.3565, 15957.10
845.8386, 16704.53
846.3207, 17494.21
846.8029, 18311.81
847.2850, 19168.16
847.7671, 20074.57
848.2492, 21046.58
848.7313, 22026.99
849.2134, 23010.31
849.6956, 23998.37
850.1777, 24991.11
850.6598, 25996.66
851.1419, 27057.13
851.6240, 28188.09
852.1061, 29303.27
852.5883, 30396.19
853.0704, 31419.15
853.5525, 32362.14
854.0346, 33256.70
854.5167, 33919.93
854.9988, 34369.11
855.4810, 34566.67
855.9631, 34496.81
856.4452, 34157.75
856.9273, 33508.30
857.4094, 32546.31
857.8915, 31342.78
858.3737, 29865.16
858.8558, 28247.33
859.3379, 26630.14
859.8200, 25038.83
860.3021, 23523.35
860.7842, 22091.19
861.2664, 20793.72
861.7485, 19681.60
862.2306, 18758.29
862.7127, 17887.53
863.1948, 17047.98
863.6769, 16324.47
864.1591, 15800.12
864.6412, 15425.31
865.1233, 15066.40
865.6054, 14718.68
866.0875, 14423.69
866.5696, 14224.55
867.0518, 14065.88
867.5339, 13909.78
868.0160, 13752.12
868.4981, 13641.36
868.9802, 13591.83
869.4623, 13557.21
869.9445, 13509.02
870.4266, 13458.86
870.9087, 13473.12
871.3908, 13546.15
871.8729, 13615.43
872.3550, 13629.92
872.8372, 13635.72
873.3193, 13670.89
873.8014, 13732.86
874.2835, 13799.21
874.7656, 13857.79
875.2477, 13930.44
875.7299, 14031.07
876.2120, 14147.96
876.6941, 14238.74
877.1762, 14303.17
877.6583, 14355.04
878.1404, 14393.82
878.6226, 14429.12
879.1047, 14467.92
879.5869, 14513.34
880.0690, 14574.24
880.5511, 14669.85
881.0332, 14763.35
881.5153, 14854.71
881.9974, 14933.62
882.4796, 14971.36
882.9617, 14956.89
883.4438, 14969.14
883.9259, 15039.63
884.4080, 15118.27
884.8901, 15113.96
885.3723, 15056.04
885.8544, 15012.76
886.3365, 15011.69
886.8186, 15023.61
887.3007, 15049.30
887.7828, 15074.86
888.2650, 15082.39
888.7471, 15073.73
889.2292, 15037.49
889.7113, 14962.63
890.1934, 14882.61
890.6755, 14847.64
891.1577, 14843.07
891.6398, 14822.03
892.1219, 14775.25
892.6040, 14715.44
893.0861, 14642.03
893.5682, 14565.96
894.0504, 14500.86
894.5325, 14466.86
895.0146, 14391.43
895.4967, 14253.34
895.9788, 14113.35
896.4609, 14032.20
896.9431, 13998.52
897.4252, 13944.38
897.9073, 13866.12
898.3894, 13778.99
898.8715, 13694.70
899.3536, 13604.80
899.8358, 13493.61
900.3179, 13357.60
900.8000, 13246.60
901.2821, 13186.61
901.7642, 13121.41
902.2463, 13019.30
902.7285, 12888.60
903.2106, 12785.31
903.6927, 12708.41
904.1748, 12621.32
904.6569, 12492.42
905.1390, 12348.04
905.6212, 12202.33
906.1033, 12062.55
906.5854, 11947.96
907.0675, 11896.95
907.5496, 11834.11
908.0317, 11739.08
908.5139, 11621.61
908.9960, 11504.60
909.4781, 11388.51
909.9602, 11286.54
910.4423, 11210.06
910.9244, 11140.90
911.4066, 11055.70
911.8887, 10962.82
912.3708, 10876.38
912.8529, 10815.36
913.3350, 10743.44
913.8171, 10650.18
914.2993, 10546.91
914.7814, 10444.92
915.2635, 10342.98
915.7456, 10261.56
916.2277, 10206.72
916.7098, 10158.87
917.1920, 10093.30
917.6741, 10021.49
918.1562, 9961.761
918.6383, 9922.074
919.1204, 9881.175
919.6025, 9832.819
920.0847, 9780.938
920.5668, 9725.592
921.0489, 9663.937
921.5310, 9620.786
922.0131, 9598.142
922.4952, 9578.425
922.9774, 9553.372
923.4595, 9519.418
923.9416, 9461.895
924.4237, 9383.130
924.9058, 9322.605
925.3879, 9310.137
925.8701, 9304.788
926.3522, 9288.664
926.8343, 9263.464
927.3164, 9246.359
927.7985, 9239.095
928.2806, 9222.471
928.7628, 9179.527
929.2449, 9130.175
929.7270, 9109.928
930.2091, 9109.066
930.6912, 9100.657
931.1733, 9055.746
931.6555, 9023.145
932.1376, 9032.894
932.6197, 9057.453
933.1018, 9044.738
933.5839, 8986.420
934.0660, 8956.299
934.5482, 8973.761
935.0303, 9003.674
935.5124, 9003.290
935.9945, 8982.633
936.4766, 8957.563
936.9587, 8926.710
937.4409, 8905.121
937.9230, 8904.179
938.4051, 8909.384
938.8872, 8909.622
939.3693, 8903.626
939.8514, 8900.577
940.3336, 8900.953
940.8157, 8901.091
941.2978, 8899.459
941.7799, 8894.890
942.2620, 8883.688
942.7441, 8866.281
943.2263, 8851.638
943.7084, 8840.965
944.1905, 8837.207
944.6726, 8845.440
945.1547, 8862.018
945.6368, 8859.794
946.1190, 8837.149
946.6011, 8824.574
947.0832, 8851.203
947.5653, 8878.144
948.0474, 8830.307
948.5295, 8743.299
949.0117, 8699.951
949.4938, 8785.596
949.9759, 8844.727
950.4580, 8835.529
950.9401, 8795.228
951.4222, 8779.056
951.9044, 8787.302
952.3865, 8796.462
952.8686, 8803.223
953.3507, 8808.164
953.8328, 8811.188
954.3149, 8813.107
954.7971, 8815.760
955.2792, 8821.141
955.7613, 8820.356
956.2434, 8808.487
956.7255, 8794.461
957.2076, 8776.622
957.6898, 8756.111
958.1719, 8784.370
958.6540, 8860.751
959.1361, 8926.222
959.6182, 8931.163
960.1003, 8914.336
960.5825, 8905.669
961.0646, 8906.384
961.5467, 8915.309
962.0288, 8934.298
962.5109, 8958.287
962.9930, 8986.054
963.4752, 9017.599
963.9573, 9060.045
964.4394, 9108.715
964.9215, 9134.126
965.4036, 9114.461
965.8857, 9093.041
966.3679, 9098.250
966.8500, 9125.272
967.3321, 9169.435
967.8142, 9246.982
968.2963, 9307.033
968.7784, 9339.502
969.2606, 9373.466
969.7427, 9440.586
970.2248, 9533.442
970.7069, 9619.392
971.1890, 9695.941
971.6711, 9797.253
972.1533, 9934.962
972.6354, 10112.94
973.1175, 10324.82
973.5996, 10572.59
974.0817, 10904.06
974.5638, 11325.70
975.0460, 11807.00
975.5281, 12344.08
976.0102, 12931.50
976.4923, 13555.25
976.9744, 14222.42
977.4565, 14953.80
977.9387, 15795.28
978.4208, 16659.44
978.9029, 17501.43
979.3850, 18353.59
979.8671, 19274.30
980.3492, 20269.13
980.8314, 21276.69
981.3135, 22294.13
981.7956, 23320.56
982.2777, 24423.35
982.7598, 25519.08
983.2419, 26521.71
983.7241, 27435.43
984.2062, 28105.52
984.6883, 28493.84
985.1704, 28599.25
985.6525, 28405.53
986.1346, 27919.50
986.6168, 27182.62
987.0989, 26198.52
987.5810, 25082.36
988.0631, 23849.50
988.5452, 22552.37
989.0273, 21215.81
989.5095, 19864.04
989.9916, 18571.76
990.4737, 17318.58
990.9558, 16175.90
991.4379, 15164.86
991.9200, 14267.58
992.4022, 13464.40
992.8843, 12760.74
993.3664, 12152.17
993.8485, 11647.55
994.3306, 11215.70
994.8127, 10850.58
995.2949, 10538.90
995.7770, 10275.31
996.2591, 10057.66
996.7412, 9892.563
997.2233, 9793.443
997.7054, 9703.063
998.1876, 9578.258
998.6697, 9441.919
999.1518, 9339.120
999.6339, 9267.740
1000.116, 9217.305
1000.598, 9199.790
1001.080, 9182.542
1001.562, 9149.709
1002.044, 9111.892
1002.527, 9090.898
1003.009, 9088.822
1003.491, 9073.586
1003.973, 9037.063
1004.455, 8997.409
1004.937, 8976.466
1005.419, 8963.973
1005.901, 8945.976
1006.384, 8916.479
1006.866, 8897.734
1007.348, 8897.907
1007.830, 8900.151
1008.312, 8894.238
1008.794, 8882.140
1009.276, 8877.535
1009.758, 8879.113
1010.240, 8875.896
1010.723, 8853.128
1011.205, 8831.774
1011.687, 8825.555
1012.169, 8831.124
1012.651, 8838.986
1013.133, 8852.002
1013.615, 8856.841
1014.097, 8849.123
1014.580, 8839.034
1015.062, 8846.950
1015.544, 8861.070
1016.026, 8853.219
1016.508, 8812.000
1016.990, 8786.647
1017.472, 8819.632
1017.954, 8852.683
1018.436, 8846.213
1018.919, 8803.414
1019.401, 8803.119
1019.883, 8845.474
1020.365, 8875.174
1020.847, 8843.129
1021.329, 8797.523
1021.811, 8786.296
1022.293, 8799.300
1022.776, 8811.096
1023.258, 8810.880
1023.740, 8821.643
1024.222, 8854.214
1024.704, 8884.053
1025.186, 8871.894
1025.668, 8828.301
1026.150, 8785.317
1026.632, 8746.121
1027.115, 8723.297
1027.597, 8734.794
1028.079, 8756.762
1028.561, 8773.486
1029.043, 8784.899
1029.525, 8801.692
1030.007, 8824.979
1030.489, 8842.243
1030.972, 8846.648
1031.454, 8842.945
1031.936, 8832.802
1032.418, 8820.360
1032.900, 8814.609
1033.382, 8825.080
1033.864, 8833.189
1034.346, 8837.656
1034.828, 8838.376
1035.311, 8832.300
1035.793, 8821.307
1036.275, 8815.569
1036.757, 8815.829
1037.239, 8830.533
1037.721, 8887.897
1038.203, 8942.744
1038.685, 8955.482
1039.167, 8930.555
1039.650, 8926.158
1040.132, 8948.461
1040.614, 8963.231
1041.096, 8953.874
1041.578, 8939.417
1042.060, 8955.310
1042.542, 8987.216
1043.024, 9007.505
1043.507, 8997.202
1043.989, 8996.098
1044.471, 9011.337
1044.953, 9037.688
1045.435, 9076.353
1045.917, 9125.438
1046.399, 9154.300
1046.881, 9164.009
1047.364, 9189.677
1047.846, 9254.340
1048.328, 9343.735
1048.810, 9451.069
1049.292, 9576.256
1049.774, 9712.703
1050.256, 9853.229
1050.738, 10028.92
1051.220, 10244.51
1051.703, 10500.94
1052.185, 10792.42
1052.667, 11121.23
1053.149, 11497.61
1053.631, 11935.08
1054.113, 12364.44
1054.595, 12758.98
1055.077, 13151.04
1055.559, 13554.54
1056.042, 13967.61
1056.524, 14406.26
1057.006, 14867.73
1057.488, 15329.50
1057.970, 15789.67
1058.452, 16235.61
1058.934, 16701.00
1059.416, 17137.63
1059.899, 17470.37
1060.381, 17731.38
1060.863, 17783.23
1061.345, 17606.89
1061.827, 17250.73
1062.309, 16703.35
1062.791, 16033.94
1063.273, 15331.56
1063.755, 14601.10
1064.238, 13898.18
1064.720, 13190.39
1065.202, 12565.93
1065.684, 12063.67
1066.166, 11660.69
1066.648, 11301.40
1067.130, 10993.02
1067.612, 10742.93
1068.094, 10562.88
1068.577, 10420.45
1069.059, 10311.07
1069.541, 10218.78
1070.023, 10125.18
1070.505, 10026.75
1070.987, 9941.499
1071.469, 9868.385
1071.951, 9807.968
1072.434, 9773.269
1072.916, 9741.398
1073.398, 9677.792
1073.880, 9592.080
1074.362, 9519.825
1074.844, 9469.888
1075.326, 9429.740
1075.808, 9398.172
1076.291, 9374.689
1076.773, 9358.119
1077.255, 9348.844
1077.737, 9351.080
1078.219, 9366.040
1078.701, 9378.741
1079.183, 9380.038
1079.665, 9378.262
1080.147, 9376.311
1080.630, 9375.028
1081.112, 9382.302
1081.594, 9397.620
1082.076, 9404.190
1082.558, 9389.898
1083.040, 9375.627
1083.522, 9380.849
1084.004, 9397.087
1084.486, 9413.061
1084.969, 9425.920
1085.451, 9446.001
1085.933, 9477.500
1086.415, 9499.823
1086.897, 9491.726
1087.379, 9466.598
1087.861, 9443.909
1088.343, 9424.749
1088.826, 9411.108
1089.308, 9395.229
1089.790, 9399.955
1090.272, 9441.499
1090.754, 9489.764
1091.236, 9489.584
1091.718, 9452.909
1092.200, 9434.797
1092.682, 9444.088
1093.165, 9463.073
1093.647, 9497.681
1094.129, 9522.502
1094.611, 9515.676
1095.093, 9483.408
1095.575, 9465.504
1096.057, 9461.838
1096.539, 9478.459
1097.022, 9527.172
1097.504, 9577.203
1097.986, 9595.862
1098.468, 9596.280
1098.950, 9596.167
1099.432, 9600.669
1099.914, 9596.213
1100.396, 9578.900
1100.879, 9565.534
1101.361, 9569.917
1101.843, 9585.898
1102.325, 9603.996
1102.807, 9623.483
1103.289, 9641.778
1103.771, 9653.981
1104.253, 9672.094
1104.735, 9706.639
1105.218, 9737.479
1105.700, 9727.722
1106.182, 9687.671
1106.664, 9669.152
1107.146, 9677.956
1107.628, 9688.095
1108.110, 9678.682
1108.592, 9671.067
1109.074, 9678.058
1109.557, 9696.647
1110.039, 9716.474
1110.521, 9737.745
1111.003, 9756.225
1111.485, 9770.976
1111.967, 9781.120
1112.449, 9788.584
1112.931, 9789.068
1113.414, 9773.282
1113.896, 9733.377
1114.378, 9717.830
1114.860, 9729.853
1115.342, 9752.868
1115.824, 9788.442
1116.306, 9820.134
1116.788, 9811.390
1117.271, 9779.451
1117.753, 9762.679
1118.235, 9796.063
1118.717, 9810.306
1119.199, 9797.491
1119.681, 9772.049
1120.163, 9740.784
1120.645, 9709.472
1121.127, 9698.451
1121.609, 9706.544
1122.092, 9715.255
1122.574, 9717.853
1123.056, 9716.051
1123.538, 9707.716
1124.020, 9697.872
1124.502, 9696.305
1124.984, 9702.550
1125.466, 9717.126
1125.949, 9742.460
1126.431, 9753.705
1126.913, 9717.899
1127.395, 9674.688
1127.877, 9657.063
1128.359, 9660.665
1128.841, 9641.896
1129.323, 9598.821
1129.806, 9567.437
1130.288, 9563.326
1130.770, 9570.684
1131.252, 9582.910
1131.734, 9592.530
1132.216, 9588.524
1132.698, 9566.271
1133.180, 9542.902
1133.662, 9517.910
1134.145, 9494.499
1134.627, 9470.304
1135.109, 9451.598
1135.591, 9452.692
1136.073, 9467.263
1136.555, 9479.262
1137.037, 9484.545
1137.519, 9486.433
1138.001, 9485.818
1138.484, 9480.445
1138.966, 9461.356
1139.448, 9437.425
1139.930, 9427.523
1140.412, 9433.361
1140.894, 9458.590
1141.376, 9566.070
1141.858, 9609.181
1142.341, 9527.243
1142.823, 9388.842
1143.305, 9310.679
1143.787, 9285.899
1144.269, 9288.598
1144.751, 9317.274
1145.233, 9340.888
1145.715, 9339.689
1146.198, 9330.264
1146.680, 9322.256
1147.162, 9314.381
1147.644, 9298.077
1148.126, 9274.275
1148.608, 9257.191
1149.090, 9253.660
1149.572, 9250.966
1150.054, 9240.049
1150.536, 9224.921
1151.019, 9206.792
1151.501, 9184.543
1151.983, 9181.915
1152.465, 9199.940
1152.947, 9211.469
1153.429, 9195.239
1153.911, 9173.424
1154.393, 9166.774
1154.876, 9169.414
1155.358, 9171.305
1155.840, 9170.519
1156.322, 9173.605
1156.804, 9182.436
1157.286, 9185.525
1157.768, 9159.509
1158.250, 9132.317
1158.733, 9153.539
1159.215, 9206.442
1159.697, 9222.205
1160.179, 9160.108
1160.661, 9130.469
1161.143, 9151.769
1161.625, 9191.747
1162.107, 9225.108
1162.589, 9246.356
1163.072, 9240.530
1163.554, 9208.531
1164.036, 9179.577
1164.518, 9159.622
1165.000, 9145.412
1165.482, 9135.612
1165.964, 9132.334
1166.446, 9146.221
1166.928, 9168.090
1167.411, 9175.179
1167.893, 9160.684
1168.375, 9150.972
1168.857, 9161.422
1169.339, 9169.619
1169.821, 9166.633
1170.303, 9155.771
1170.785, 9143.789
1171.268, 9132.079
1171.750, 9124.313
1172.232, 9120.059
1172.714, 9124.317
1173.196, 9155.910
1173.678, 9179.634
1174.160, 9167.356
1174.642, 9127.341
1175.125, 9117.505
1175.607, 9133.063
1176.089, 9148.066
1176.571, 9144.293
1177.053, 9145.300
1177.535, 9167.389
1178.017, 9194.728
1178.499, 9216.597
1178.981, 9232.962
1179.464, 9220.028
1179.946, 9180.004
1180.428, 9150.265
1180.910, 9167.971
1181.392, 9187.309
1181.874, 9181.057
1182.356, 9162.183
1182.838, 9149.358
1183.320, 9142.503
1183.803, 9142.567
1184.285, 9149.780
1184.767, 9158.610
1185.249, 9165.605
1185.731, 9172.174
1186.213, 9179.531
1186.695, 9187.111
1187.177, 9194.025
1187.660, 9200.551
1188.142, 9200.720
1188.624, 9192.643
1189.106, 9185.658
1189.588, 9187.813
1190.070, 9194.637
1190.552, 9201.982
1191.034, 9210.448
1191.516, 9231.400
1191.999, 9269.069
1192.481, 9272.981
1192.963, 9221.518
1193.445, 9167.057
1193.927, 9165.475
1194.409, 9184.944
1194.891, 9192.189
1195.373, 9184.415
1195.855, 9192.933
1196.338, 9219.914
1196.820, 9245.282
1197.302, 9262.908
1197.784, 9271.777
1198.266, 9264.577
1198.748, 9251.087
1199.230, 9244.043
1199.712, 9246.085
1200.195, 9246.663
1200.677, 9246.083
1201.159, 9241.203
1201.641, 9222.927
1202.123, 9208.829
1202.605, 9228.798
1203.087, 9263.365
1203.569, 9280.008
1204.052, 9269.321
1204.534, 9257.904
1205.016, 9244.210
1205.498, 9238.544
1205.980, 9263.266
1206.462, 9287.425
1206.944, 9254.533
1207.426, 9196.728
1207.908, 9195.832
1208.391, 9294.980
1208.873, 9339.493
1209.355, 9316.634
1209.837, 9275.174
1210.319, 9240.669
1210.801, 9222.581
1211.283, 9248.375
1211.765, 9301.533
1212.247, 9320.229
1212.730, 9284.512
1213.212, 9266.209
1213.694, 9274.061
1214.176, 9293.676
1214.658, 9323.711
1215.140, 9348.955
1215.622, 9348.121
1216.104, 9324.555
1216.587, 9303.494
1217.069, 9284.802
1217.551, 9276.488
1218.033, 9281.845
1218.515, 9289.209
1218.997, 9279.529
1219.479, 9268.803
1219.961, 9277.532
1220.443, 9305.998
1220.926, 9331.636
1221.408, 9354.144
1221.890, 9371.108
1222.372, 9383.169
1222.854, 9385.182
1223.336, 9362.943
1223.818, 9332.316
1224.300, 9308.653
1224.782, 9294.544
1225.265, 9295.783
1225.747, 9314.377
1226.229, 9340.813
1226.711, 9378.065
1227.193, 9405.729
1227.675, 9387.147
1228.157, 9351.827
1228.639, 9334.302
1229.122, 9339.674
1229.604, 9352.690
1230.086, 9375.155
1230.568, 9393.795
1231.050, 9403.712
1231.532, 9407.173
1232.014, 9407.062
1232.496, 9401.827
1232.979, 9387.438
1233.461, 9362.341
1233.943, 9341.416
1234.425, 9324.111
1234.907, 9318.683
1235.389, 9333.663
1235.871, 9354.792
1236.353, 9374.337
1236.835, 9388.342
1237.318, 9390.464
1237.800, 9380.223
1238.282, 9362.042
1238.764, 9335.091
1239.246, 9320.036
1239.728, 9329.718
1240.210, 9354.578
1240.692, 9403.950
1241.175, 9454.126
1241.657, 9470.365
1242.139, 9445.746
1242.621, 9432.534
1243.103, 9430.677
1243.585, 9431.648
1244.067, 9429.869
1244.549, 9429.323
1245.031, 9438.404
1245.514, 9446.890
1245.996, 9436.053
1246.478, 9401.634
1246.960, 9406.884
1247.442, 9450.818
1247.924, 9493.186
1248.406, 9513.271
1248.888, 9518.241
1249.370, 9504.099
1249.853, 9481.564
1250.335, 9461.000
1250.817, 9442.974
1251.299, 9445.862
1251.781, 9468.567
1252.263, 9483.390
1252.745, 9467.742
1253.227, 9446.586
1253.710, 9424.442
1254.192, 9408.136
1254.674, 9409.942
1255.156, 9426.921
1255.638, 9438.553
1256.120, 9443.766
1256.602, 9446.014
1257.084, 9448.031
1257.567, 9445.198
1258.049, 9429.545
1258.531, 9416.636
1259.013, 9437.347
1259.495, 9479.082
1259.977, 9491.253
1260.459, 9472.938
1260.941, 9459.510
1261.423, 9473.375
1261.906, 9486.407
1262.388, 9495.466
1262.870, 9495.808
1263.352, 9470.374
1263.834, 9434.035
1264.316, 9423.799
1264.798, 9441.224
1265.280, 9460.068
1265.762, 9473.553
1266.245, 9485.938
1266.727, 9497.388
1267.209, 9509.567
1267.691, 9533.100
1268.173, 9554.844
1268.655, 9547.659
1269.137, 9511.410
1269.619, 9485.318
1270.102, 9474.149
1270.584, 9472.454
1271.066, 9481.419
1271.548, 9491.848
1272.030, 9495.347
1272.512, 9491.480
1272.994, 9472.993
1273.476, 9442.400
1273.958, 9435.586
1274.441, 9459.868
1274.923, 9473.514
1275.405, 9464.297
1275.887, 9456.197
1276.369, 9478.107
1276.851, 9510.141
1277.333, 9534.440
1277.815, 9550.927
1278.297, 9569.573
1278.780, 9591.075
1279.262, 9592.819
1279.744, 9565.586
1280.226, 9542.694
1280.708, 9560.804
1281.190, 9584.352
1281.672, 9585.042
1282.154, 9570.299
1282.637, 9566.656
1283.119, 9573.429
1283.601, 9586.078
1284.083, 9605.322
1284.565, 9618.436
1285.047, 9625.610
1285.529, 9612.128
1286.011, 9555.356
1286.494, 9486.862
1286.976, 9519.059
1287.458, 9617.234
1287.940, 9657.824
1288.422, 9608.142
1288.904, 9564.302
1289.386, 9568.863
1289.868, 9576.902
1290.350, 9576.801
1290.833, 9568.279
1291.315, 9542.630
1291.797, 9510.683
1292.279, 9492.195
1292.761, 9490.363
1293.243, 9510.548
1293.725, 9568.846
1294.207, 9600.433
1294.689, 9573.669
##END=



