##NAMES=Euchlorine
##RRUFFID=R070460
##IDEAL CHEMISTRY=KNaCu^2+^_3_O(S^6+^O_4_)_3_
##LOCALITY=Northern Breakthrough (North Breach), Great Fissure (Main Fracture) eruption, Tolbachik volcano, Kamchatka Oblast', Far-Eastern Region, Russia
##OWNER=RRUFF
##SOURCE=Michael Scott
##DESCRIPTION=Bright green massive crystalline coating
##STATUS=The identification of this mineral is confirmed by single-crystal X-ray diffraction and chemical analysis.
##URL=rruff.info/R070460
##MEASURED CHEMISTRY=K_1.00_(Na_0.80_K_0.20_)_Î£=1_Cu_3.00_O(S_1.00_O_4_)_3_
104.3543, 177.5764
104.8364, 174.4410
105.3185, 173.6880
105.8006, 175.3156
106.2827, 179.8255
106.7648, 190.6448
107.2470, 202.6483
107.7291, 207.4359
108.2112, 199.2472
108.6933, 190.0904
109.1754, 183.4911
109.6575, 178.2954
110.1397, 177.4381
110.6218, 182.7521
111.1039, 192.7772
111.5860, 202.6109
112.0681, 217.8345
112.5502, 229.1376
113.0324, 231.7668
113.5145, 212.4832
113.9966, 197.5473
114.4787, 192.1636
114.9608, 196.1426
115.4429, 203.3363
115.9251, 213.7369
116.4072, 226.0752
116.8893, 239.0586
117.3714, 254.0593
117.8535, 268.4739
118.3356, 279.7075
118.8178, 286.4339
119.2999, 296.3366
119.7820, 316.8901
120.2641, 343.1162
120.7462, 365.5082
121.2283, 371.1926
121.7105, 375.4195
122.1926, 392.8246
122.6747, 432.1555
123.1568, 473.2909
123.6389, 498.2958
124.1210, 510.5255
124.6032, 524.1671
125.0853, 545.3284
125.5674, 574.5332
126.0495, 612.4357
126.5316, 662.4106
127.0137, 719.1828
127.4959, 777.5579
127.9780, 837.5482
128.4601, 896.5229
128.9422, 946.9238
129.4243, 992.7576
129.9064, 1048.017
130.3886, 1125.922
130.8707, 1217.162
131.3528, 1298.148
131.8349, 1365.870
132.3170, 1433.027
132.7991, 1520.257
133.2813, 1627.425
133.7634, 1734.420
134.2455, 1830.397
134.7276, 1915.677
135.2097, 2002.236
135.6918, 2089.821
136.1740, 2180.540
136.6561, 2285.856
137.1382, 2409.897
137.6203, 2531.037
138.1024, 2634.788
138.5845, 2720.586
139.0667, 2796.556
139.5488, 2861.931
140.0309, 2918.823
140.5130, 2984.466
140.9951, 3065.784
141.4772, 3144.950
141.9594, 3199.790
142.4415, 3220.372
142.9236, 3243.709
143.4057, 3279.007
143.8878, 3326.866
144.3699, 3380.933
144.8521, 3447.474
145.3342, 3515.877
145.8163, 3566.173
146.2984, 3583.760
146.7805, 3604.399
147.2626, 3642.554
147.7448, 3714.488
148.2269, 3768.831
148.7090, 3796.598
149.1911, 3806.141
149.6732, 3821.839
150.1554, 3843.190
150.6375, 3871.251
151.1196, 3905.813
151.6017, 3949.030
152.0838, 3997.088
152.5659, 4047.209
153.0481, 4100.779
153.5302, 4166.166
154.0123, 4261.163
154.4944, 4358.377
154.9765, 4439.641
155.4586, 4502.291
155.9408, 4549.645
156.4229, 4578.694
156.9050, 4570.178
157.3871, 4537.484
157.8692, 4508.979
158.3513, 4476.870
158.8335, 4430.973
159.3156, 4352.036
159.7977, 4274.742
160.2798, 4212.368
160.7619, 4168.366
161.2440, 4127.684
161.7262, 4087.942
162.2083, 4048.246
162.6904, 4006.958
163.1725, 3947.049
163.6546, 3851.854
164.1367, 3861.788
164.6189, 3847.104
165.1010, 3809.140
165.5831, 3678.137
166.0652, 3667.274
166.5473, 3608.265
167.0294, 3547.281
167.5116, 3553.319
167.9937, 3435.849
168.4758, 3440.833
168.9579, 3396.935
169.4400, 3375.409
169.9221, 3305.439
170.4043, 3250.423
170.8864, 3243.875
171.3685, 3210.495
171.8506, 3134.949
172.3327, 3114.845
172.8148, 2995.682
173.2970, 2963.436
173.7791, 2968.704
174.2612, 2895.593
174.7433, 2873.604
175.2254, 2862.943
175.7076, 2847.379
176.1897, 2816.331
176.6718, 2785.307
177.1539, 2779.119
177.6360, 2800.907
178.1181, 2820.877
178.6003, 2807.583
179.0824, 2768.864
179.5645, 2729.116
180.0466, 2695.572
180.5287, 2668.987
181.0108, 2657.185
181.4930, 2665.896
181.9751, 2668.996
182.4572, 2624.360
182.9393, 2539.825
183.4214, 2459.481
183.9035, 2415.354
184.3857, 2395.365
184.8678, 2365.990
185.3499, 2320.388
185.8320, 2269.651
186.3141, 2233.466
186.7962, 2210.821
187.2784, 2190.521
187.7605, 2162.092
188.2426, 2128.459
188.7247, 2102.070
189.2068, 2086.097
189.6889, 2077.980
190.1711, 2072.737
190.6532, 2070.426
191.1353, 2070.421
191.6174, 2073.554
192.0995, 2079.343
192.5816, 2083.118
193.0638, 2081.693
193.5459, 2077.977
194.0280, 2082.460
194.5101, 2095.865
194.9922, 2113.801
195.4743, 2133.558
195.9565, 2154.896
196.4386, 2173.641
196.9207, 2185.729
197.4028, 2193.198
197.8849, 2210.299
198.3671, 2238.227
198.8492, 2272.894
199.3313, 2311.654
199.8134, 2355.499
200.2955, 2395.111
200.7776, 2421.626
201.2598, 2435.517
201.7419, 2473.179
202.2240, 2540.624
202.7061, 2621.783
203.1882, 2691.390
203.6703, 2747.193
204.1525, 2803.170
204.6346, 2864.669
205.1167, 2931.626
205.5988, 3004.701
206.0809, 3085.355
206.5630, 3170.383
207.0452, 3253.025
207.5273, 3332.385
208.0094, 3413.075
208.4915, 3497.621
208.9736, 3584.823
209.4557, 3678.459
209.9379, 3779.382
210.4200, 3886.391
210.9021, 3996.757
211.3842, 4111.128
211.8663, 4227.925
212.3484, 4344.353
212.8306, 4457.916
213.3127, 4579.594
213.7948, 4711.015
214.2769, 4851.010
214.7590, 4995.592
215.2411, 5143.314
215.7233, 5296.136
216.2054, 5456.869
216.6875, 5631.337
217.1696, 5792.165
217.6517, 5932.264
218.1338, 6055.736
218.6160, 6184.281
219.0981, 6318.801
219.5802, 6458.714
220.0623, 6605.199
220.5444, 6765.630
221.0265, 6912.421
221.5087, 7041.809
221.9908, 7154.852
222.4729, 7259.101
222.9550, 7357.403
223.4371, 7444.701
223.9192, 7516.824
224.4014, 7567.011
224.8835, 7615.780
225.3656, 7671.352
225.8477, 7734.071
226.3298, 7769.890
226.8119, 7781.428
227.2941, 7763.623
227.7762, 7708.268
228.2583, 7605.291
228.7404, 7487.675
229.2225, 7365.720
229.7046, 7241.593
230.1868, 7083.918
230.6689, 6882.295
231.1510, 6658.794
231.6331, 6436.662
232.1152, 6226.658
232.5974, 6000.517
233.0795, 5740.350
233.5616, 5440.026
234.0437, 5168.495
234.5258, 4927.320
235.0079, 4711.083
235.4901, 4513.864
235.9722, 4346.713
236.4543, 4178.907
236.9364, 3998.033
237.4185, 3797.105
237.9006, 3622.316
238.3828, 3479.506
238.8649, 3358.855
239.3470, 3245.443
239.8291, 3141.801
240.3112, 3041.632
240.7933, 2942.739
241.2755, 2842.041
241.7576, 2753.129
242.2397, 2677.517
242.7218, 2612.592
243.2039, 2554.575
243.6860, 2504.559
244.1682, 2459.421
244.6503, 2419.090
245.1324, 2384.247
245.6145, 2350.417
246.0966, 2315.120
246.5787, 2282.297
247.0609, 2260.797
247.5430, 2260.799
248.0251, 2255.194
248.5072, 2232.691
248.9893, 2186.769
249.4714, 2145.791
249.9536, 2108.215
250.4357, 2076.310
250.9178, 2056.280
251.3999, 2056.703
251.8820, 2054.573
252.3641, 2039.688
252.8463, 2006.075
253.3284, 1979.790
253.8105, 1965.765
254.2926, 1956.738
254.7747, 1936.801
255.2568, 1899.379
255.7390, 1862.646
256.2211, 1833.805
256.7032, 1815.742
257.1853, 1797.088
257.6674, 1776.563
258.1495, 1756.287
258.6317, 1741.550
259.1138, 1734.823
259.5959, 1729.044
260.0780, 1721.685
260.5601, 1712.828
261.0422, 1701.949
261.5244, 1689.599
262.0065, 1674.874
262.4886, 1654.311
262.9707, 1622.407
263.4528, 1596.142
263.9349, 1585.026
264.4171, 1595.641
264.8992, 1598.082
265.3813, 1589.622
265.8634, 1574.730
266.3455, 1563.024
266.8276, 1554.978
267.3098, 1548.667
267.7919, 1544.135
268.2740, 1542.817
268.7561, 1536.545
269.2382, 1523.359
269.7203, 1506.852
270.2025, 1494.669
270.6846, 1487.910
271.1667, 1482.404
271.6488, 1477.266
272.1309, 1473.411
272.6130, 1462.809
273.0952, 1440.757
273.5773, 1416.631
274.0594, 1412.938
274.5415, 1435.046
275.0236, 1455.692
275.5057, 1460.665
275.9879, 1448.397
276.4700, 1435.313
276.9521, 1419.791
277.4342, 1406.245
277.9163, 1405.679
278.3984, 1420.583
278.8806, 1434.297
279.3627, 1436.480
279.8448, 1426.663
280.3269, 1424.877
280.8090, 1434.674
281.2911, 1447.765
281.7733, 1447.777
282.2554, 1433.258
282.7375, 1420.226
283.2196, 1416.077
283.7017, 1420.568
284.1838, 1429.678
284.6660, 1444.448
285.1481, 1461.254
285.6302, 1474.943
286.1123, 1485.493
286.5944, 1494.522
287.0765, 1502.903
287.5587, 1510.530
288.0408, 1515.964
288.5229, 1518.630
289.0050, 1520.857
289.4871, 1524.716
289.9692, 1530.399
290.4514, 1540.423
290.9335, 1558.875
291.4156, 1583.366
291.8977, 1603.518
292.3798, 1619.071
292.8619, 1631.179
293.3441, 1639.880
293.8262, 1645.721
294.3083, 1651.663
294.7904, 1657.711
295.2726, 1664.917
295.7547, 1676.637
296.2368, 1693.124
296.7189, 1712.028
297.2010, 1736.885
297.6831, 1763.462
298.1653, 1776.991
298.6474, 1756.350
299.1295, 1722.186
299.6116, 1715.482
300.0937, 1738.057
300.5758, 1766.943
301.0580, 1779.449
301.5401, 1780.774
302.0222, 1783.754
302.5043, 1798.621
302.9864, 1815.964
303.4685, 1821.555
303.9507, 1815.324
304.4328, 1806.868
304.9149, 1803.184
305.3970, 1802.965
305.8791, 1803.928
306.3612, 1806.236
306.8434, 1808.695
307.3255, 1807.989
307.8076, 1804.573
308.2897, 1805.801
308.7718, 1823.356
309.2539, 1847.048
309.7361, 1863.243
310.2182, 1864.669
310.7003, 1859.213
311.1824, 1848.937
311.6645, 1834.854
312.1466, 1824.776
312.6288, 1825.653
313.1109, 1831.680
313.5930, 1836.956
314.0751, 1839.953
314.5572, 1841.728
315.0393, 1839.300
315.5215, 1828.810
316.0036, 1828.771
316.4857, 1825.584
316.9678, 1819.418
317.4499, 1801.353
317.9320, 1798.653
318.4142, 1789.794
318.8963, 1780.685
319.3784, 1780.148
319.8605, 1763.813
320.3426, 1763.141
320.8247, 1756.217
321.3069, 1752.153
321.7890, 1741.893
322.2711, 1733.548
322.7532, 1731.401
323.2353, 1720.807
323.7174, 1713.978
324.1996, 1697.871
324.6817, 1685.645
325.1638, 1685.811
325.6459, 1714.797
326.1280, 1724.305
326.6101, 1694.020
327.0923, 1643.090
327.5744, 1608.059
328.0565, 1604.690
328.5386, 1604.306
329.0207, 1598.889
329.5028, 1586.900
329.9850, 1574.741
330.4671, 1563.139
330.9492, 1551.196
331.4313, 1537.216
331.9134, 1517.847
332.3955, 1500.957
332.8777, 1488.463
333.3598, 1480.872
333.8419, 1475.885
334.3240, 1476.330
334.8061, 1476.820
335.2882, 1470.821
335.7704, 1455.069
336.2525, 1439.646
336.7346, 1426.310
337.2167, 1415.086
337.6988, 1404.957
338.1809, 1395.119
338.6631, 1387.548
339.1452, 1386.724
339.6273, 1396.095
340.1094, 1395.105
340.5915, 1375.216
341.0736, 1342.100
341.5558, 1327.890
342.0379, 1336.051
342.5200, 1348.498
343.0021, 1350.148
343.4842, 1340.832
343.9663, 1335.161
344.4485, 1336.141
344.9306, 1341.249
345.4127, 1344.857
345.8948, 1347.012
346.3769, 1347.616
346.8590, 1345.711
347.3412, 1341.891
347.8233, 1338.532
348.3054, 1335.079
348.7875, 1334.171
349.2696, 1342.581
349.7517, 1358.668
350.2339, 1372.850
350.7160, 1378.153
351.1981, 1377.765
351.6802, 1377.575
352.1623, 1377.721
352.6444, 1379.468
353.1266, 1384.688
353.6087, 1392.592
354.0908, 1401.073
354.5729, 1408.612
355.0550, 1416.446
355.5371, 1427.109
356.0193, 1440.958
356.5014, 1452.947
356.9835, 1461.071
357.4656, 1464.549
357.9477, 1462.150
358.4298, 1441.760
358.9120, 1424.606
359.3941, 1428.176
359.8762, 1450.666
360.3583, 1472.315
360.8404, 1482.088
361.3225, 1486.600
361.8047, 1491.922
362.2868, 1500.025
362.7689, 1508.794
363.2510, 1519.156
363.7331, 1530.063
364.2152, 1537.244
364.6974, 1529.818
365.1795, 1524.827
365.6616, 1532.949
366.1437, 1569.719
366.6258, 1596.737
367.1079, 1602.358
367.5901, 1594.385
368.0722, 1590.807
368.5543, 1594.107
369.0364, 1601.469
369.5185, 1612.896
370.0006, 1631.449
370.4828, 1646.082
370.9649, 1657.239
371.4470, 1664.333
371.9291, 1665.586
372.4112, 1651.667
372.8933, 1646.545
373.3755, 1660.718
373.8576, 1696.650
374.3397, 1713.577
374.8218, 1703.147
375.3039, 1684.348
375.7861, 1675.115
376.2682, 1676.965
376.7503, 1683.466
377.2324, 1694.997
377.7145, 1710.081
378.1967, 1722.429
378.6788, 1732.325
379.1609, 1738.053
379.6430, 1734.921
380.1251, 1723.013
380.6072, 1721.101
381.0894, 1736.211
381.5715, 1756.218
382.0536, 1751.869
382.5357, 1723.844
383.0178, 1699.365
383.4999, 1699.642
383.9821, 1716.648
384.4642, 1722.265
384.9463, 1712.489
385.4284, 1699.919
385.9105, 1700.533
386.3926, 1710.899
386.8748, 1719.675
387.3569, 1720.927
387.8390, 1717.855
388.3211, 1713.008
388.8032, 1706.300
389.2853, 1702.705
389.7675, 1712.216
390.2496, 1725.662
390.7317, 1729.881
391.2138, 1712.940
391.6959, 1692.311
392.1780, 1676.130
392.6602, 1664.876
393.1423, 1660.886
393.6244, 1673.344
394.1065, 1688.620
394.5886, 1696.002
395.0707, 1685.971
395.5529, 1679.344
396.0350, 1688.823
396.5171, 1706.508
396.9992, 1713.906
397.4813, 1688.685
397.9634, 1667.726
398.4456, 1667.607
398.9277, 1700.139
399.4098, 1724.599
399.8919, 1725.176
400.3740, 1721.105
400.8561, 1736.927
401.3383, 1793.261
401.8204, 1841.653
402.3025, 1868.350
402.7846, 1872.436
403.2667, 1889.783
403.7488, 1928.684
404.2310, 1969.989
404.7131, 1995.812
405.1952, 1999.173
405.6773, 2009.528
406.1594, 2028.328
406.6415, 2057.658
407.1237, 2110.310
407.6058, 2191.175
408.0879, 2270.505
408.5700, 2326.549
409.0521, 2360.509
409.5342, 2403.404
410.0164, 2459.486
410.4985, 2518.239
410.9806, 2558.993
411.4627, 2584.419
411.9448, 2617.290
412.4269, 2665.050
412.9091, 2728.955
413.3912, 2812.025
413.8733, 2915.100
414.3554, 3028.906
414.8375, 3170.791
415.3196, 3314.036
415.8018, 3409.177
416.2839, 3455.682
416.7660, 3430.121
417.2481, 3282.013
417.7302, 3031.205
418.2123, 2768.563
418.6945, 2513.546
419.1766, 2288.716
419.6587, 2119.683
420.1408, 2021.162
420.6229, 1951.654
421.1050, 1900.035
421.5872, 1864.632
422.0693, 1841.805
422.5514, 1840.197
423.0335, 1842.823
423.5156, 1840.644
423.9977, 1829.572
424.4799, 1832.726
424.9620, 1866.197
425.4441, 1908.298
425.9262, 1939.026
426.4083, 1946.515
426.8904, 1958.034
427.3726, 1977.372
427.8547, 2003.792
428.3368, 2032.454
428.8189, 2065.619
429.3010, 2098.188
429.7831, 2123.107
430.2653, 2132.110
430.7474, 2170.995
431.2295, 2251.579
431.7116, 2351.827
432.1937, 2428.108
432.6758, 2477.833
433.1580, 2526.776
433.6401, 2587.085
434.1222, 2656.520
434.6043, 2720.626
435.0864, 2778.697
435.5685, 2836.109
436.0507, 2898.764
436.5328, 2965.704
437.0149, 3032.797
437.4970, 3102.193
437.9791, 3168.015
438.4612, 3221.576
438.9434, 3263.278
439.4255, 3295.587
439.9076, 3327.421
440.3897, 3347.723
440.8718, 3341.778
441.3539, 3304.475
441.8361, 3252.473
442.3182, 3180.817
442.8003, 3103.730
443.2824, 3044.740
443.7645, 3033.077
444.2466, 3023.555
444.7288, 2995.241
445.2109, 2946.192
445.6930, 2894.879
446.1751, 2843.193
446.6572, 2791.667
447.1393, 2740.686
447.6215, 2680.904
448.1036, 2632.967
448.5857, 2601.829
449.0678, 2583.741
449.5499, 2564.898
450.0320, 2546.219
450.5142, 2525.820
450.9963, 2502.339
451.4784, 2474.351
451.9605, 2449.332
452.4426, 2427.830
452.9247, 2408.244
453.4069, 2386.814
453.8890, 2362.696
454.3711, 2342.942
454.8532, 2330.011
455.3353, 2322.587
455.8174, 2314.960
456.2996, 2306.745
456.7817, 2302.717
457.2638, 2308.177
457.7459, 2320.847
458.2281, 2334.875
458.7102, 2349.936
459.1923, 2363.877
459.6744, 2373.283
460.1565, 2379.291
460.6386, 2384.781
461.1208, 2388.849
461.6029, 2394.862
462.0850, 2408.133
462.5671, 2429.281
463.0492, 2447.330
463.5313, 2460.148
464.0135, 2465.545
464.4956, 2461.345
464.9777, 2437.487
465.4598, 2414.272
465.9419, 2398.639
466.4240, 2388.327
466.9062, 2375.628
467.3883, 2357.917
467.8704, 2338.647
468.3525, 2318.273
468.8346, 2295.465
469.3167, 2275.956
469.7989, 2260.980
470.2810, 2248.304
470.7631, 2234.767
471.2452, 2219.244
471.7273, 2205.897
472.2094, 2196.094
472.6916, 2189.396
473.1737, 2180.411
473.6558, 2167.136
474.1379, 2160.868
474.6200, 2173.650
475.1021, 2203.598
475.5843, 2229.687
476.0664, 2250.341
476.5485, 2265.623
477.0306, 2269.303
477.5127, 2265.489
477.9948, 2271.183
478.4770, 2299.195
478.9591, 2338.874
479.4412, 2376.486
479.9233, 2412.136
480.4054, 2449.006
480.8875, 2486.032
481.3697, 2526.757
481.8518, 2575.253
482.3339, 2635.631
482.8160, 2698.679
483.2981, 2759.576
483.7802, 2820.554
484.2624, 2884.607
484.7445, 2952.213
485.2266, 3024.498
485.7087, 3102.161
486.1908, 3185.960
486.6729, 3272.585
487.1551, 3354.601
487.6372, 3444.904
488.1193, 3555.791
488.6014, 3691.727
489.0835, 3834.814
489.5656, 3987.292
490.0478, 4143.973
490.5299, 4290.962
491.0120, 4425.549
491.4941, 4562.336
491.9762, 4709.043
492.4583, 4865.177
492.9405, 5032.288
493.4226, 5213.517
493.9047, 5397.932
494.3868, 5582.625
494.8689, 5762.890
495.3510, 5926.894
495.8332, 6065.800
496.3153, 6190.297
496.7974, 6331.765
497.2795, 6478.610
497.7616, 6573.976
498.2437, 6594.592
498.7259, 6543.300
499.2080, 6415.037
499.6901, 6202.129
500.1722, 5950.003
500.6543, 5662.357
501.1364, 5355.199
501.6186, 5043.271
502.1007, 4700.412
502.5828, 4389.834
503.0649, 4127.372
503.5470, 3911.202
504.0291, 3716.200
504.5113, 3539.494
504.9934, 3381.434
505.4755, 3241.299
505.9576, 3117.927
506.4397, 3018.945
506.9218, 2952.484
507.4040, 2901.492
507.8861, 2840.874
508.3682, 2767.868
508.8503, 2706.427
509.3324, 2668.016
509.8145, 2643.012
510.2967, 2596.722
510.7788, 2529.225
511.2609, 2467.374
511.7430, 2433.398
512.2252, 2418.445
512.7073, 2403.723
513.1894, 2387.038
513.6715, 2370.950
514.1536, 2356.120
514.6357, 2343.770
515.1179, 2336.009
515.6000, 2332.543
516.0821, 2334.979
516.5642, 2344.322
517.0463, 2360.414
517.5284, 2382.232
518.0106, 2410.771
518.4927, 2444.092
518.9748, 2481.477
519.4569, 2526.076
519.9390, 2568.181
520.4211, 2607.328
520.9033, 2644.167
521.3854, 2678.760
521.8675, 2707.649
522.3496, 2741.891
522.8317, 2785.871
523.3138, 2837.363
523.7960, 2884.615
524.2781, 2929.021
524.7602, 2964.943
525.2423, 2988.019
525.7244, 2999.219
526.2065, 3011.358
526.6887, 3029.070
527.1708, 3027.886
527.6529, 2971.179
528.1350, 2872.072
528.6171, 2764.000
529.0992, 2652.851
529.5814, 2543.645
530.0635, 2442.369
530.5456, 2347.402
531.0277, 2248.127
531.5098, 2126.142
531.9919, 2008.439
532.4741, 1914.401
532.9562, 1852.773
533.4383, 1791.510
533.9204, 1716.930
534.4025, 1641.595
534.8846, 1579.755
535.3668, 1539.604
535.8489, 1502.902
536.3310, 1467.441
536.8131, 1434.007
537.2952, 1404.003
537.7773, 1377.381
538.2595, 1355.019
538.7416, 1338.463
539.2237, 1327.896
539.7058, 1313.096
540.1879, 1292.007
540.6700, 1274.646
541.1522, 1277.108
541.6343, 1294.251
542.1164, 1300.693
542.5985, 1286.113
543.0806, 1266.661
543.5627, 1265.834
544.0449, 1278.111
544.5270, 1286.446
545.0091, 1273.082
545.4912, 1258.493
545.9733, 1262.195
546.4554, 1285.436
546.9376, 1304.203
547.4197, 1307.625
547.9018, 1303.113
548.3839, 1295.642
548.8660, 1275.146
549.3481, 1267.185
549.8303, 1282.910
550.3124, 1309.676
550.7945, 1325.185
551.2766, 1324.576
551.7587, 1321.941
552.2408, 1320.974
552.7230, 1321.352
553.2051, 1318.265
553.6872, 1310.151
554.1693, 1305.320
554.6514, 1313.938
555.1335, 1333.077
555.6157, 1342.202
556.0978, 1338.003
556.5799, 1330.038
557.0620, 1328.111
557.5441, 1331.229
558.0262, 1337.289
558.5084, 1351.996
558.9905, 1363.078
559.4726, 1356.630
559.9547, 1336.959
560.4368, 1321.180
560.9189, 1318.881
561.4011, 1321.195
561.8832, 1323.831
562.3653, 1326.593
562.8474, 1328.744
563.3295, 1334.210
563.8116, 1336.599
564.2938, 1328.671
564.7759, 1298.486
565.2580, 1283.466
565.7401, 1292.701
566.2222, 1316.384
566.7043, 1329.346
567.1865, 1330.069
567.6686, 1328.927
568.1507, 1331.644
568.6328, 1336.104
569.1149, 1331.398
569.5970, 1317.216
570.0792, 1304.105
570.5613, 1303.477
571.0434, 1309.259
571.5255, 1311.659
572.0076, 1309.203
572.4897, 1301.889
572.9719, 1285.864
573.4540, 1265.737
573.9361, 1248.968
574.4182, 1233.951
574.9003, 1226.929
575.3824, 1235.098
575.8646, 1255.888
576.3467, 1269.475
576.8288, 1272.085
577.3109, 1269.449
577.7930, 1262.482
578.2751, 1249.421
578.7573, 1240.637
579.2394, 1236.254
579.7215, 1235.930
580.2036, 1238.837
580.6857, 1244.920
581.1678, 1258.557
581.6500, 1284.042
582.1321, 1311.131
582.6142, 1318.175
583.0963, 1308.990
583.5784, 1301.563
584.0605, 1306.644
584.5427, 1317.134
585.0248, 1326.903
585.5069, 1335.552
585.9890, 1340.636
586.4711, 1335.930
586.9532, 1330.246
587.4354, 1329.812
587.9175, 1335.892
588.3996, 1346.499
588.8817, 1361.567
589.3638, 1380.882
589.8459, 1404.764
590.3281, 1436.464
590.8102, 1465.657
591.2923, 1486.839
591.7744, 1505.380
592.2565, 1539.970
592.7386, 1592.390
593.2208, 1650.932
593.7029, 1709.016
594.1850, 1768.476
594.6671, 1837.243
595.1492, 1915.692
595.6313, 1998.979
596.1135, 2085.158
596.5956, 2172.545
597.0777, 2258.275
597.5598, 2339.013
598.0419, 2427.202
598.5240, 2541.551
599.0062, 2666.686
599.4883, 2781.458
599.9704, 2865.012
600.4525, 2952.905
600.9346, 3053.263
601.4167, 3166.198
601.8989, 3289.264
602.3810, 3426.528
602.8631, 3564.212
603.3452, 3698.490
603.8273, 3828.606
604.3094, 3949.098
604.7916, 4059.307
605.2737, 4162.254
605.7558, 4259.080
606.2379, 4349.900
606.7200, 4454.429
607.2021, 4585.327
607.6843, 4701.517
608.1664, 4768.875
608.6485, 4783.050
609.1306, 4734.713
609.6127, 4594.177
610.0948, 4412.556
610.5770, 4200.218
611.0591, 3968.367
611.5412, 3772.856
612.0233, 3626.819
612.5054, 3525.741
612.9875, 3474.407
613.4697, 3480.379
613.9518, 3501.831
614.4339, 3536.662
614.9160, 3589.186
615.3981, 3667.367
615.8802, 3777.842
616.3624, 3878.872
616.8445, 3967.064
617.3266, 4043.188
617.8087, 4106.474
618.2908, 4157.785
618.7729, 4203.096
619.2551, 4242.006
619.7372, 4278.418
620.2193, 4321.955
620.7014, 4369.289
621.1835, 4407.513
621.6656, 4413.256
622.1478, 4419.092
622.6299, 4444.722
623.1120, 4492.085
623.5941, 4559.093
624.0762, 4639.563
624.5583, 4743.778
625.0405, 4882.107
625.5226, 5083.281
626.0047, 5267.446
626.4868, 5468.027
626.9689, 5617.840
627.4510, 5610.442
627.9332, 5434.136
628.4153, 5196.305
628.8974, 4903.470
629.3795, 4585.918
629.8616, 4287.993
630.3438, 4012.638
630.8259, 3778.012
631.3080, 3601.767
631.7901, 3467.159
632.2722, 3368.553
632.7543, 3303.371
633.2365, 3230.312
633.7186, 3116.573
634.2007, 2994.734
634.6828, 2889.469
635.1649, 2814.896
635.6470, 2729.187
636.1292, 2616.705
636.6113, 2497.686
637.0934, 2392.732
637.5755, 2305.396
638.0576, 2222.923
638.5397, 2143.352
639.0219, 2068.239
639.5040, 1997.265
639.9861, 1930.526
640.4682, 1875.773
640.9503, 1843.548
641.4324, 1821.136
641.9146, 1782.339
642.3967, 1730.257
642.8788, 1683.986
643.3609, 1665.516
643.8430, 1651.761
644.3251, 1621.441
644.8073, 1570.168
645.2894, 1523.250
645.7715, 1490.835
646.2536, 1464.019
646.7357, 1435.075
647.2178, 1394.944
647.7000, 1368.633
648.1821, 1359.226
648.6642, 1361.225
649.1463, 1368.833
649.6284, 1383.225
650.1105, 1394.138
650.5927, 1399.112
651.0748, 1399.338
651.5569, 1393.122
652.0390, 1382.553
652.5211, 1379.099
653.0032, 1394.278
653.4854, 1415.996
653.9675, 1432.855
654.4496, 1444.842
654.9317, 1455.751
655.4138, 1472.002
655.8959, 1484.324
656.3781, 1484.008
656.8602, 1462.902
657.3423, 1454.075
657.8244, 1459.034
658.3065, 1476.022
658.7886, 1505.832
659.2708, 1552.618
659.7529, 1593.692
660.2350, 1624.158
660.7171, 1653.775
661.1992, 1700.387
661.6813, 1762.096
662.1635, 1822.961
662.6456, 1873.958
663.1277, 1926.197
663.6099, 1999.910
664.0920, 2087.422
664.5741, 2166.964
665.0562, 2216.051
665.5383, 2264.340
666.0204, 2330.157
666.5026, 2413.935
666.9847, 2495.099
667.4668, 2569.677
667.9489, 2641.585
668.4310, 2716.608
668.9131, 2800.092
669.3953, 2859.259
669.8774, 2892.391
670.3595, 2905.197
670.8416, 2902.744
671.3237, 2884.878
671.8058, 2848.206
672.2880, 2790.493
672.7701, 2721.530
673.2522, 2654.188
673.7343, 2584.250
674.2164, 2502.076
674.6985, 2402.137
675.1807, 2290.619
675.6628, 2172.665
676.1449, 2046.944
676.6270, 1911.678
677.1091, 1747.157
677.5912, 1595.996
678.0734, 1467.373
678.5555, 1361.681
679.0376, 1273.079
679.5197, 1203.579
680.0018, 1147.369
680.4839, 1104.789
680.9661, 1074.339
681.4482, 1038.818
681.9303, 998.0960
682.4124, 960.1469
682.8945, 931.8224
683.3766, 911.3269
683.8588, 896.5927
684.3409, 887.6940
684.8230, 881.8763
685.3051, 879.8582
685.7872, 878.9952
686.2693, 876.4440
686.7515, 871.9595
687.2336, 865.1649
687.7157, 854.1452
688.1978, 841.7098
688.6799, 832.7960
689.1620, 827.9810
689.6442, 824.4313
690.1263, 821.8512
690.6084, 819.7116
691.0905, 816.1253
691.5726, 811.3661
692.0547, 807.8063
692.5369, 810.4896
693.0190, 812.8294
693.5011, 803.9469
693.9832, 785.4670
694.4653, 770.4224
694.9474, 768.4565
695.4296, 769.5122
695.9117, 766.7313
696.3938, 757.6714
696.8759, 754.9346
697.3580, 764.2258
697.8401, 774.1782
698.3223, 777.2592
698.8044, 772.6229
699.2865, 763.7542
699.7686, 748.7790
700.2507, 735.6361
700.7328, 735.8204
701.2150, 746.3203
701.6971, 757.0616
702.1792, 767.4752
702.6613, 772.9661
703.1434, 763.5081
703.6255, 747.2478
704.1077, 738.1389
704.5898, 748.5903
705.0719, 758.9458
705.5540, 764.8737
706.0361, 765.9921
706.5182, 761.3240
707.0004, 745.3096
707.4825, 734.0112
707.9646, 734.2646
708.4467, 742.9850
708.9288, 742.1396
709.4109, 731.0985
709.8931, 721.6004
710.3752, 721.5915
710.8573, 727.8873
711.3394, 735.3709
711.8215, 743.8340
712.3036, 751.5054
712.7858, 759.2307
713.2679, 764.4697
713.7500, 765.2184
714.2321, 761.1823
714.7142, 752.7407
715.1964, 727.9998
715.6785, 707.6083
716.1606, 709.2249
716.6427, 745.2042
717.1248, 762.1689
717.6069, 753.5474
718.0891, 734.5912
718.5712, 724.7372
719.0533, 722.6741
719.5354, 722.1657
720.0175, 722.8741
720.4996, 722.0072
720.9818, 711.7601
721.4639, 698.3233
721.9460, 693.4710
722.4281, 715.1377
722.9102, 731.7879
723.3923, 726.1982
723.8745, 706.4662
724.3566, 698.1664
724.8387, 708.2754
725.3208, 720.4373
725.8029, 732.9888
726.2850, 744.1607
726.7672, 743.7522
727.2493, 730.8012
727.7314, 718.8402
728.2135, 718.4995
728.6956, 723.3613
729.1777, 718.1437
729.6599, 703.9561
730.1420, 692.4575
730.6241, 689.7517
731.1062, 693.4293
731.5883, 704.7973
732.0704, 725.8931
732.5526, 738.7811
733.0347, 736.9941
733.5168, 728.7638
733.9989, 717.0641
734.4810, 699.6100
734.9631, 689.0539
735.4453, 686.9324
735.9274, 687.7269
736.4095, 684.1360
736.8916, 678.0408
737.3737, 678.5140
737.8558, 688.1400
738.3380, 699.1554
738.8201, 706.1084
739.3022, 709.2970
739.7843, 709.0522
740.2664, 704.0690
740.7485, 697.5782
741.2307, 685.6033
741.7128, 674.3278
742.1949, 674.8403
742.6770, 695.5364
743.1591, 708.7958
743.6412, 708.4789
744.1234, 699.4595
744.6055, 691.1034
745.0876, 683.6285
745.5697, 681.6344
746.0518, 691.1351
746.5339, 702.7204
747.0161, 701.7787
747.4982, 691.9457
747.9803, 684.4852
748.4624, 684.9443
748.9445, 688.7453
749.4266, 696.4404
749.9088, 707.0831
750.3909, 710.6182
750.8730, 702.4364
751.3551, 694.2887
751.8372, 691.1242
752.3193, 692.4321
752.8015, 692.0867
753.2836, 689.9899
753.7657, 688.1616
754.2478, 687.8129
754.7299, 688.7459
755.2120, 690.8465
755.6942, 694.0864
756.1763, 697.5143
756.6584, 701.2173
757.1405, 704.3611
757.6226, 707.0048
758.1047, 710.2949
758.5869, 707.7996
759.0690, 694.0840
759.5511, 680.3466
760.0332, 675.6360
760.5153, 681.3699
760.9974, 683.9931
761.4796, 682.5430
761.9617, 680.0770
762.4438, 679.1205
762.9259, 679.8157
763.4080, 682.9891
763.8901, 689.5413
764.3723, 695.8047
764.8544, 700.8000
765.3365, 703.4969
765.8186, 702.7202
766.3007, 694.2590
766.7828, 687.5500
767.2650, 683.3334
767.7471, 680.8903
768.2292, 679.2068
768.7113, 678.1557
769.1934, 678.7249
769.6755, 681.5717
770.1577, 685.0918
770.6398, 687.2833
771.1219, 688.0274
771.6040, 686.8227
772.0861, 681.7977
772.5682, 677.0101
773.0504, 674.3011
773.5325, 673.9152
774.0146, 676.3472
774.4967, 688.8148
774.9788, 695.1292
775.4609, 688.7144
775.9431, 675.2866
776.4252, 672.2295
776.9073, 681.1950
777.3894, 690.1964
777.8715, 696.4844
778.3536, 698.8235
778.8358, 689.5206
779.3179, 672.2461
779.8000, 662.8083
780.2821, 681.1809
780.7642, 700.0355
781.2463, 695.7561
781.7285, 672.8981
782.2106, 661.4691
782.6927, 679.9491
783.1748, 697.1536
783.6569, 703.7446
784.1390, 700.8910
784.6212, 699.4125
785.1033, 699.6210
785.5854, 698.9373
786.0675, 692.9864
786.5496, 685.7142
787.0317, 689.3253
787.5139, 702.2744
787.9960, 712.5320
788.4781, 710.8773
788.9602, 705.1609
789.4423, 699.9158
789.9244, 695.5560
790.4066, 692.4388
790.8887, 691.4596
791.3708, 690.6724
791.8529, 688.6819
792.3350, 685.3997
792.8171, 686.0300
793.2993, 691.0801
793.7814, 696.0643
794.2635, 698.3879
794.7456, 697.9832
795.2277, 693.9520
795.7098, 686.2481
796.1920, 678.6486
796.6741, 670.9728
797.1562, 665.8768
797.6383, 665.7736
798.1204, 672.3676
798.6025, 678.8195
799.0847, 685.2940
799.5668, 691.1800
800.0489, 695.4460
800.5310, 698.0489
801.0131, 703.8538
801.4952, 713.7427
801.9774, 720.5624
802.4595, 714.1528
802.9416, 701.6485
803.4237, 692.5566
803.9058, 688.1083
804.3879, 689.0476
804.8701, 701.4946
805.3522, 715.7836
805.8343, 723.7283
806.3164, 723.3633
806.7985, 721.1690
807.2806, 715.3793
807.7628, 711.0435
808.2449, 715.4384
808.7270, 726.9530
809.2091, 731.2436
809.6912, 726.0945
810.1733, 719.6305
810.6555, 719.7279
811.1376, 722.8169
811.6197, 723.9230
812.1018, 720.1792
812.5839, 719.8869
813.0660, 730.2859
813.5482, 741.9955
814.0303, 745.9938
814.5124, 738.9130
814.9945, 736.5742
815.4766, 740.7169
815.9587, 746.4647
816.4409, 748.3660
816.9230, 747.2009
817.4051, 745.2185
817.8872, 742.5162
818.3693, 740.5922
818.8514, 738.9952
819.3336, 739.6218
819.8157, 745.2244
820.2978, 764.0514
820.7799, 772.9238
821.2620, 763.5115
821.7441, 750.2911
822.2263, 749.4050
822.7084, 762.4614
823.1905, 767.1985
823.6726, 759.7205
824.1547, 750.5657
824.6368, 755.8726
825.1190, 767.3720
825.6011, 768.5319
826.0832, 751.9029
826.5653, 736.5883
827.0474, 733.1343
827.5295, 735.1525
828.0117, 735.7419
828.4938, 732.1900
828.9760, 732.2733
829.4581, 738.0395
829.9402, 744.2195
830.4223, 742.9052
830.9044, 735.5691
831.3865, 732.9896
831.8687, 737.3913
832.3508, 743.4803
832.8329, 748.0365
833.3150, 750.2804
833.7971, 748.5499
834.2792, 739.0593
834.7614, 733.2211
835.2435, 735.9044
835.7256, 741.6500
836.2077, 747.0610
836.6898, 753.3597
837.1719, 751.5138
837.6541, 738.6027
838.1362, 726.1689
838.6183, 728.7861
839.1004, 741.7951
839.5825, 755.4686
840.0646, 769.2112
840.5468, 777.7590
841.0289, 776.0682
841.5110, 768.8140
841.9931, 759.8930
842.4752, 746.1653
842.9573, 738.7944
843.4395, 740.2739
843.9216, 744.3762
844.4037, 744.6036
844.8858, 741.4412
845.3679, 740.5119
845.8500, 742.3485
846.3322, 746.0667
846.8143, 757.6318
847.2964, 767.3005
847.7785, 759.4464
848.2606, 723.7472
848.7427, 700.7802
849.2249, 710.6265
849.7070, 730.2092
850.1891, 745.4797
850.6712, 756.9636
851.1533, 760.0002
851.6354, 753.2299
852.1176, 743.9562
852.5997, 734.8440
853.0818, 729.0160
853.5639, 737.4003
854.0460, 761.8223
854.5281, 780.4680
855.0103, 773.5585
855.4924, 760.4706
855.9745, 756.4121
856.4566, 765.5416
856.9387, 770.5314
857.4208, 769.4856
857.9030, 767.8038
858.3851, 768.8536
858.8672, 772.4621
859.3493, 779.2142
859.8314, 789.0589
860.3135, 794.8851
860.7957, 789.4498
861.2778, 778.7102
861.7599, 764.9622
862.2420, 748.3033
862.7241, 741.7621
863.2062, 761.5693
863.6884, 778.5770
864.1705, 779.1355
864.6526, 763.9164
865.1347, 758.5733
865.6168, 764.1710
866.0989, 767.6563
866.5811, 755.3565
867.0632, 738.2603
867.5453, 733.8796
868.0274, 741.1738
868.5095, 750.0237
868.9916, 761.0593
869.4738, 767.6375
869.9559, 762.4562
870.4380, 748.2176
870.9201, 744.7484
871.4022, 755.0401
871.8843, 765.1307
872.3665, 768.7784
872.8486, 768.4332
873.3307, 770.6387
873.8128, 774.6717
874.2949, 777.1096
874.7770, 772.6047
875.2592, 769.3770
875.7413, 776.9232
876.2234, 790.4484
876.7055, 791.0123
877.1876, 767.2379
877.6697, 749.9451
878.1519, 747.4131
878.6340, 754.0777
879.1161, 756.6371
879.5982, 755.6552
880.0803, 755.4590
880.5624, 758.5116
881.0446, 761.6315
881.5267, 759.9055
882.0088, 756.5279
882.4909, 757.2532
882.9730, 771.0427
883.4551, 778.7986
883.9373, 774.6026
884.4194, 766.5222
884.9015, 768.3513
885.3836, 780.4394
885.8657, 789.2656
886.3478, 791.4647
886.8300, 792.4433
887.3121, 801.9127
887.7942, 813.3417
888.2763, 815.2416
888.7584, 797.1304
889.2405, 786.1396
889.7227, 800.5148
890.2048, 818.5214
890.6869, 819.9672
891.1690, 799.9951
891.6511, 786.8741
892.1332, 782.2481
892.6154, 782.6421
893.0975, 786.2683
893.5796, 791.8781
894.0617, 797.1669
894.5438, 801.7651
895.0259, 807.1075
895.5081, 815.1614
895.9902, 823.3674
896.4723, 830.2689
896.9544, 836.2191
897.4365, 838.0916
897.9186, 834.1087
898.4008, 832.3126
898.8829, 841.9078
899.3650, 857.3697
899.8471, 861.4926
900.3292, 855.0537
900.8113, 848.5215
901.2935, 845.9751
901.7756, 847.2011
902.2577, 852.1379
902.7398, 860.9810
903.2219, 874.6874
903.7040, 898.6926
904.1862, 914.2572
904.6683, 911.5334
905.1504, 897.3651
905.6325, 888.3209
906.1146, 884.7522
906.5967, 888.0443
907.0789, 908.7359
907.5610, 927.0827
908.0431, 926.0490
908.5252, 913.0601
909.0073, 906.2979
909.4894, 911.9455
909.9716, 916.2015
910.4537, 915.7663
910.9358, 914.8658
911.4179, 924.8479
911.9000, 942.9159
912.3821, 949.7681
912.8643, 937.7379
913.3464, 922.5920
913.8285, 918.6148
914.3106, 919.0333
914.7927, 915.3144
915.2748, 899.5173
915.7570, 891.4030
916.2391, 895.5951
916.7212, 902.1437
917.2033, 899.6074
917.6854, 889.2761
918.1675, 888.0359
918.6497, 897.5482
919.1318, 908.0591
919.6139, 913.1451
920.0960, 914.0535
920.5781, 910.3630
921.0602, 901.2812
921.5424, 896.2076
922.0245, 898.6946
922.5066, 901.9965
922.9887, 902.5508
923.4708, 900.9713
923.9529, 904.1586
924.4351, 911.7572
924.9172, 916.3109
925.3993, 909.9652
925.8814, 901.0031
926.3635, 897.2079
926.8456, 897.6737
927.3278, 898.3904
927.8099, 897.8371
928.2920, 898.0189
928.7741, 898.7999
929.2562, 900.8816
929.7383, 907.6627
930.2205, 918.7446
930.7026, 925.9026
931.1847, 926.1640
931.6668, 922.7139
932.1489, 914.8188
932.6310, 906.6071
933.1132, 904.4848
933.5953, 917.5065
934.0774, 925.5016
934.5595, 925.5294
935.0416, 921.9265
935.5237, 918.6872
936.0059, 915.8401
936.4880, 911.9333
936.9701, 906.3740
937.4522, 905.2836
937.9343, 919.8260
938.4164, 938.1622
938.8986, 948.4180
939.3807, 948.4220
939.8628, 944.9708
940.3449, 931.9928
940.8270, 925.6052
941.3091, 936.8685
941.7913, 962.6819
942.2734, 972.5719
942.7555, 967.4405
943.2376, 964.5812
943.7197, 983.4120
944.2018, 1001.835
944.6840, 994.0587
945.1661, 968.1572
945.6482, 952.3419
946.1303, 959.6388
946.6124, 968.7925
947.0945, 978.0762
947.5767, 985.6713
948.0588, 986.4191
948.5409, 981.2592
949.0230, 977.1714
949.5051, 975.6216
949.9872, 976.9561
950.4694, 984.7998
950.9515, 994.2570
951.4336, 999.1993
951.9157, 995.1412
952.3978, 992.1704
952.8799, 988.6604
953.3621, 989.1470
953.8442, 1000.565
954.3263, 1020.425
954.8084, 1032.324
955.2905, 1035.558
955.7726, 1039.585
956.2548, 1057.420
956.7369, 1073.872
957.2190, 1072.578
957.7011, 1053.248
958.1832, 1050.086
958.6653, 1071.483
959.1475, 1092.656
959.6296, 1103.874
960.1117, 1108.614
960.5938, 1114.699
961.0759, 1122.524
961.5580, 1134.139
962.0402, 1158.131
962.5223, 1177.036
963.0044, 1175.594
963.4865, 1164.194
963.9686, 1162.035
964.4507, 1173.425
964.9329, 1184.116
965.4150, 1192.224
965.8971, 1201.303
966.3792, 1216.297
966.8613, 1235.658
967.3434, 1255.077
967.8256, 1273.933
968.3077, 1294.455
968.7898, 1319.243
969.2719, 1345.520
969.7540, 1372.388
970.2361, 1400.403
970.7183, 1418.776
971.2004, 1424.729
971.6825, 1436.895
972.1646, 1471.660
972.6467, 1517.040
973.1288, 1550.759
973.6110, 1576.188
974.0931, 1604.171
974.5752, 1644.075
975.0573, 1681.414
975.5394, 1706.930
976.0215, 1729.006
976.5037, 1765.514
976.9858, 1817.135
977.4679, 1868.955
977.9500, 1917.417
978.4321, 1969.331
978.9142, 2032.787
979.3964, 2104.727
979.8785, 2180.838
980.3606, 2259.356
980.8427, 2344.924
981.3248, 2432.667
981.8069, 2533.693
982.2891, 2658.313
982.7712, 2805.456
983.2533, 2957.784
983.7354, 3114.447
984.2175, 3282.941
984.6996, 3466.429
985.1818, 3665.035
985.6639, 3880.362
986.1460, 4111.309
986.6281, 4353.017
987.1102, 4603.174
987.5923, 4866.305
988.0745, 5144.173
988.5566, 5437.108
989.0387, 5746.316
989.5208, 6071.113
990.0029, 6414.994
990.4850, 6793.023
990.9672, 7150.261
991.4493, 7451.071
991.9314, 7720.384
992.4135, 7983.144
992.8957, 8238.282
993.3778, 8490.179
993.8599, 8740.534
994.3420, 8982.508
994.8242, 9207.992
995.3063, 9419.721
995.7884, 9617.748
996.2705, 9805.974
996.7526, 10007.87
997.2347, 10254.63
997.7169, 10490.33
998.1990, 10695.77
998.6811, 10875.03
999.1632, 11041.38
999.6453, 11194.44
1000.127, 11373.65
1000.610, 11600.98
1001.092, 11831.07
1001.574, 12017.32
1002.056, 12169.37
1002.538, 12301.32
1003.020, 12426.43
1003.502, 12502.45
1003.984, 12500.34
1004.466, 12492.04
1004.949, 12520.58
1005.431, 12588.18
1005.913, 12696.87
1006.395, 12849.93
1006.877, 13086.52
1007.359, 13467.72
1007.841, 13907.93
1008.323, 14366.18
1008.806, 14837.91
1009.288, 15300.13
1009.770, 15753.95
1010.252, 16172.83
1010.734, 16541.83
1011.216, 16880.29
1011.698, 17196.55
1012.180, 17513.36
1012.662, 17884.05
1013.145, 18331.84
1013.627, 18804.37
1014.109, 19304.94
1014.591, 19806.64
1015.073, 20346.55
1015.555, 20952.15
1016.037, 21220.55
1016.519, 21154.87
1017.002, 20648.77
1017.484, 19493.78
1017.966, 17978.22
1018.448, 16233.10
1018.930, 14343.58
1019.412, 12582.76
1019.894, 10970.56
1020.376, 9529.094
1020.858, 8276.160
1021.341, 7198.554
1021.823, 6294.583
1022.305, 5555.823
1022.787, 4962.522
1023.269, 4520.830
1023.751, 4169.646
1024.233, 3898.937
1024.715, 3684.468
1025.198, 3504.991
1025.680, 3357.978
1026.162, 3245.784
1026.644, 3170.655
1027.126, 3121.607
1027.608, 3103.490
1028.090, 3100.212
1028.572, 3087.063
1029.054, 3067.597
1029.536, 3052.679
1030.019, 3043.984
1030.501, 3043.068
1030.983, 3051.362
1031.465, 3065.603
1031.947, 3078.122
1032.429, 3090.973
1032.911, 3124.357
1033.393, 3182.542
1033.876, 3238.780
1034.358, 3259.616
1034.840, 3279.878
1035.322, 3329.841
1035.804, 3411.867
1036.286, 3498.492
1036.768, 3591.198
1037.250, 3684.348
1037.733, 3775.159
1038.215, 3866.734
1038.697, 3965.973
1039.179, 4071.324
1039.661, 4183.913
1040.143, 4297.665
1040.625, 4426.509
1041.107, 4581.518
1041.589, 4743.833
1042.072, 4895.112
1042.554, 5036.529
1043.036, 5165.206
1043.518, 5279.434
1044.000, 5398.157
1044.482, 5545.016
1044.964, 5692.178
1045.446, 5822.628
1045.928, 5933.729
1046.411, 6024.469
1046.893, 6085.496
1047.375, 6157.235
1047.857, 6258.711
1048.339, 6358.837
1048.821, 6403.993
1049.303, 6405.578
1049.785, 6385.529
1050.268, 6345.199
1050.750, 6297.063
1051.232, 6243.424
1051.714, 6184.996
1052.196, 6123.765
1052.678, 6059.522
1053.160, 5981.877
1053.642, 5890.601
1054.125, 5787.461
1054.607, 5664.600
1055.089, 5536.100
1055.571, 5411.586
1056.053, 5289.933
1056.535, 5166.393
1057.017, 5035.359
1057.499, 4918.501
1057.981, 4824.063
1058.464, 4730.767
1058.946, 4603.198
1059.428, 4460.993
1059.910, 4344.396
1060.392, 4258.319
1060.874, 4178.883
1061.356, 4106.413
1061.838, 4028.671
1062.320, 3941.606
1062.803, 3844.430
1063.285, 3730.989
1063.767, 3603.438
1064.249, 3484.842
1064.731, 3390.321
1065.213, 3294.712
1065.695, 3170.470
1066.177, 3038.391
1066.660, 2923.607
1067.142, 2822.685
1067.624, 2754.023
1068.106, 2721.922
1068.588, 2700.127
1069.070, 2667.305
1069.552, 2632.368
1070.034, 2613.767
1070.516, 2607.519
1070.999, 2594.524
1071.481, 2556.508
1071.963, 2527.316
1072.445, 2514.223
1072.927, 2511.875
1073.409, 2518.463
1073.891, 2529.173
1074.373, 2517.095
1074.855, 2474.813
1075.338, 2436.066
1075.820, 2432.633
1076.302, 2431.379
1076.784, 2403.544
1077.266, 2352.583
1077.748, 2328.664
1078.230, 2335.396
1078.713, 2326.030
1079.195, 2274.434
1079.677, 2207.169
1080.159, 2157.489
1080.641, 2113.924
1081.123, 2059.286
1081.605, 1974.326
1082.087, 1905.570
1082.569, 1856.101
1083.052, 1814.702
1083.534, 1774.797
1084.016, 1735.097
1084.498, 1688.680
1084.980, 1636.865
1085.462, 1587.668
1085.944, 1538.728
1086.426, 1501.263
1086.908, 1483.148
1087.391, 1474.563
1087.873, 1457.841
1088.355, 1433.621
1088.837, 1411.750
1089.319, 1394.201
1089.801, 1375.997
1090.283, 1349.752
1090.765, 1323.643
1091.248, 1306.061
1091.730, 1296.922
1092.212, 1284.953
1092.694, 1269.567
1093.176, 1254.495
1093.658, 1241.405
1094.140, 1228.911
1094.622, 1214.554
1095.104, 1199.599
1095.587, 1186.459
1096.069, 1175.873
1096.551, 1166.864
1097.033, 1159.752
1097.515, 1153.301
1097.997, 1145.868
1098.479, 1138.370
1098.961, 1133.049
1099.443, 1130.373
1099.926, 1132.797
1100.408, 1142.410
1100.890, 1156.423
1101.372, 1176.385
1101.854, 1198.553
1102.336, 1215.895
1102.818, 1228.904
1103.300, 1248.168
1103.783, 1274.924
1104.265, 1303.762
1104.747, 1331.451
1105.229, 1358.340
1105.711, 1383.283
1106.193, 1406.951
1106.675, 1435.041
1107.157, 1468.283
1107.640, 1501.025
1108.122, 1530.943
1108.604, 1560.795
1109.086, 1595.349
1109.568, 1631.156
1110.050, 1664.020
1110.532, 1694.621
1111.014, 1715.301
1111.496, 1720.651
1111.979, 1727.900
1112.461, 1750.488
1112.943, 1779.558
1113.425, 1785.840
1113.907, 1777.066
1114.389, 1775.622
1114.871, 1795.804
1115.353, 1817.626
1115.835, 1832.761
1116.318, 1852.006
1116.800, 1890.442
1117.282, 1944.631
1117.764, 1979.972
1118.246, 1997.319
1118.728, 2030.892
1119.210, 2115.294
1119.692, 2209.010
1120.175, 2290.317
1120.657, 2362.309
1121.139, 2431.292
1121.621, 2495.990
1122.103, 2577.553
1122.585, 2681.962
1123.067, 2785.624
1123.549, 2863.934
1124.031, 2932.221
1124.514, 3000.760
1124.996, 3071.906
1125.478, 3157.184
1125.960, 3263.620
1126.442, 3355.655
1126.924, 3422.498
1127.406, 3467.825
1127.888, 3508.344
1128.370, 3526.548
1128.853, 3493.800
1129.335, 3399.426
1129.817, 3260.081
1130.299, 3068.859
1130.781, 2855.703
1131.263, 2627.238
1131.745, 2397.364
1132.227, 2198.938
1132.710, 2029.868
1133.192, 1882.993
1133.674, 1764.509
1134.156, 1658.838
1134.638, 1561.410
1135.120, 1475.436
1135.602, 1407.757
1136.084, 1356.390
1136.567, 1311.000
1137.049, 1271.677
1137.531, 1239.380
1138.013, 1215.712
1138.495, 1198.192
1138.977, 1187.859
1139.459, 1181.892
1139.941, 1174.988
1140.423, 1166.878
1140.906, 1171.700
1141.388, 1193.054
1141.870, 1206.400
1142.352, 1176.328
1142.834, 1142.275
1143.316, 1138.769
1143.798, 1162.743
1144.280, 1174.658
1144.762, 1169.908
1145.245, 1184.922
1145.727, 1234.203
1146.209, 1291.510
1146.691, 1329.213
1147.173, 1357.509
1147.655, 1387.977
1148.137, 1422.753
1148.619, 1456.726
1149.102, 1483.488
1149.584, 1531.379
1150.066, 1619.740
1150.548, 1725.823
1151.030, 1808.092
1151.512, 1881.892
1151.994, 1977.646
1152.476, 2116.388
1152.958, 2249.416
1153.441, 2374.110
1153.923, 2494.278
1154.405, 2611.581
1154.887, 2728.416
1155.369, 2853.943
1155.851, 2985.067
1156.333, 3110.963
1156.815, 3226.146
1157.297, 3340.474
1157.780, 3464.910
1158.262, 3578.378
1158.744, 3672.892
1159.226, 3738.368
1159.708, 3726.126
1160.190, 3637.188
1160.672, 3503.204
1161.154, 3323.328
1161.637, 3122.500
1162.119, 2898.344
1162.601, 2669.440
1163.083, 2458.748
1163.565, 2266.617
1164.047, 2098.229
1164.529, 1956.083
1165.011, 1823.075
1165.494, 1682.994
1165.976, 1554.733
1166.458, 1447.375
1166.940, 1358.747
1167.422, 1286.158
1167.904, 1228.876
1168.386, 1178.473
1168.868, 1132.222
1169.350, 1092.243
1169.833, 1065.047
1170.315, 1041.621
1170.797, 1013.878
1171.279, 982.4656
1171.761, 953.5804
1172.243, 927.1316
1172.725, 910.6597
1173.207, 910.3768
1173.689, 912.7958
1174.172, 904.0992
1174.654, 891.4615
1175.136, 884.1988
1175.618, 883.8810
1176.100, 878.2402
1176.582, 866.4925
1177.064, 856.2711
1177.546, 852.2523
1178.029, 850.8779
1178.511, 848.1550
1178.993, 845.3028
1179.475, 844.5773
1179.957, 846.7074
1180.439, 849.0024
1180.921, 851.2454
1181.403, 854.8312
1181.885, 864.4219
1182.368, 873.2625
1182.850, 867.7264
1183.332, 854.6541
1183.814, 852.8262
1184.296, 874.1398
1184.778, 884.0834
1185.260, 878.0234
1185.742, 870.1037
1186.224, 873.0918
1186.707, 883.3391
1187.189, 899.5793
1187.671, 919.2310
1188.153, 931.0071
1188.635, 928.3073
1189.117, 927.3981
1189.599, 930.9865
1190.081, 935.5566
1190.564, 931.8340
1191.046, 928.6263
1191.528, 942.3370
1192.010, 973.1565
1192.492, 1003.898
1192.974, 1035.340
1193.456, 1057.216
1193.938, 1063.620
1194.421, 1067.004
1194.903, 1085.924
1195.385, 1115.448
1195.867, 1148.066
1196.349, 1182.891
1196.831, 1216.232
1197.313, 1247.438
1197.795, 1276.401
1198.277, 1300.678
1198.760, 1326.921
1199.242, 1367.298
1199.724, 1419.896
1200.206, 1482.219
1200.688, 1555.953
1201.170, 1630.030
1201.652, 1704.707
1202.134, 1776.672
1202.616, 1843.274
1203.099, 1907.548
1203.581, 1977.273
1204.063, 2052.274
1204.545, 2128.974
1205.027, 2204.646
1205.509, 2292.180
1205.991, 2401.003
1206.473, 2506.677
1206.956, 2592.154
1207.438, 2666.720
1207.920, 2765.518
1208.402, 2876.188
1208.884, 2970.033
1209.366, 3026.471
1209.848, 3085.191
1210.330, 3159.922
1210.813, 3224.536
1211.295, 3257.932
1211.777, 3267.086
1212.259, 3270.611
1212.741, 3268.461
1213.223, 3260.267
1213.705, 3267.786
1214.187, 3232.625
1214.669, 3137.535
1215.151, 3022.557
1215.634, 2919.622
1216.116, 2826.345
1216.598, 2735.087
1217.080, 2643.774
1217.562, 2543.731
1218.044, 2416.964
1218.526, 2302.271
1219.008, 2206.104
1219.491, 2122.228
1219.973, 2045.271
1220.455, 1973.890
1220.937, 1905.434
1221.419, 1840.603
1221.901, 1783.662
1222.383, 1748.696
1222.865, 1704.448
1223.348, 1646.377
1223.830, 1576.316
1224.312, 1485.182
1224.794, 1387.158
1225.276, 1318.195
1225.758, 1277.328
1226.240, 1238.378
1226.722, 1191.340
1227.204, 1147.433
1227.687, 1107.810
1228.169, 1073.203
1228.651, 1047.476
1229.133, 1026.434
1229.615, 1000.271
1230.097, 968.8205
1230.579, 941.4525
1231.061, 917.1565
1231.543, 903.6596
1232.026, 905.2372
1232.508, 912.4689
1232.990, 914.6830
1233.472, 911.3968
1233.954, 898.5527
1234.436, 876.1074
1234.918, 862.1655
1235.400, 861.9487
1235.883, 865.1713
1236.365, 869.0471
1236.847, 876.0651
1237.329, 895.4888
1237.811, 917.8141
1238.293, 925.9929
1238.775, 916.9599
1239.257, 915.1282
1239.740, 920.7677
1240.222, 939.0284
1240.704, 974.0447
1241.186, 1016.370
1241.668, 1053.768
1242.150, 1089.146
1242.632, 1123.083
1243.114, 1155.152
1243.596, 1203.484
1244.079, 1270.939
1244.561, 1346.764
1245.043, 1427.367
1245.525, 1514.829
1246.007, 1615.461
1246.489, 1723.851
1246.971, 1834.509
1247.453, 1948.313
1247.936, 2057.366
1248.418, 2160.472
1248.900, 2266.252
1249.382, 2379.824
1249.864, 2491.936
1250.346, 2597.067
1250.828, 2689.667
1251.310, 2762.337
1251.792, 2815.807
1252.275, 2854.608
1252.757, 2880.733
1253.239, 2866.980
1253.721, 2797.399
1254.203, 2695.684
1254.685, 2577.182
1255.167, 2442.150
1255.649, 2285.337
1256.131, 2107.977
1256.614, 1961.118
1257.096, 1844.876
1257.578, 1723.484
1258.060, 1573.517
1258.542, 1432.419
1259.024, 1331.679
1259.506, 1250.762
1259.988, 1166.106
1260.471, 1078.867
1260.953, 1014.514
1261.435, 971.3255
1261.917, 933.8858
1262.399, 894.9573
1262.881, 861.6945
1263.363, 840.0401
1263.845, 823.6949
1264.328, 808.8853
1264.810, 795.3248
1265.292, 778.9247
1265.774, 760.6506
1266.256, 745.8307
1266.738, 739.5339
1267.220, 730.7224
1267.702, 712.3779
1268.184, 694.4130
1268.667, 684.2067
1269.149, 679.1563
1269.631, 667.5341
1270.113, 652.1002
1270.595, 641.3656
1271.077, 643.1657
1271.559, 640.3888
1272.041, 627.4620
1272.523, 616.0727
1273.006, 616.7249
1273.488, 622.6007
1273.970, 613.6754
1274.452, 596.7829
1274.934, 587.9767
1275.416, 596.9156
1275.898, 604.9208
1276.380, 612.2806
1276.863, 615.7952
1277.345, 610.4688
1277.827, 602.4960
1278.309, 603.1307
1278.791, 607.8481
1279.273, 607.4772
1279.755, 596.0557
1280.237, 594.0776
1280.719, 603.0818
1281.202, 611.9172
1281.684, 614.0959
1282.166, 612.7640
1282.648, 612.0867
1283.130, 609.4792
1283.612, 599.0980
1284.094, 577.4564
1284.576, 571.9355
1285.058, 582.5593
1285.541, 594.4890
1286.023, 600.2028
1286.505, 603.1796
1286.987, 604.8023
1287.469, 605.3418
1287.951, 604.7156
1288.433, 602.9557
1288.915, 603.6904
1289.398, 606.6921
1289.880, 610.2366
1290.362, 614.0774
1290.844, 617.3682
1291.326, 616.7507
1291.808, 618.6622
1292.290, 629.2260
1292.772, 646.4502
1293.255, 663.3528
##END=



