##NAMES=Euchlorine
##RRUFFID=R070460
##IDEAL CHEMISTRY=KNaCu^2+^_3_O(S^6+^O_4_)_3_
##LOCALITY=Northern Breakthrough (North Breach), Great Fissure (Main Fracture) eruption, Tolbachik volcano, Kamchatka Oblast', Far-Eastern Region, Russia
##OWNER=RRUFF
##SOURCE=Michael Scott
##DESCRIPTION=Bright green massive crystalline coating
##STATUS=The identification of this mineral is confirmed by single-crystal X-ray diffraction and chemical analysis.
##URL=rruff.info/R070460
##MEASURED CHEMISTRY=K_1.00_(Na_0.80_K_0.20_)_Î£=1_Cu_3.00_O(S_1.00_O_4_)_3_
102.5971, 1637.384
103.0792, 1606.834
103.5613, 1585.701
104.0434, 1578.796
104.5256, 1577.842
105.0077, 1576.729
105.4898, 1577.053
105.9719, 1563.212
106.4540, 1512.264
106.9361, 1436.261
107.4183, 1386.466
107.9004, 1388.288
108.3825, 1409.170
108.8646, 1412.817
109.3467, 1397.442
109.8288, 1378.204
110.3110, 1368.415
110.7931, 1368.324
111.2752, 1363.199
111.7573, 1343.745
112.2394, 1321.133
112.7215, 1303.712
113.2037, 1293.056
113.6858, 1284.584
114.1679, 1269.323
114.6500, 1241.868
115.1321, 1229.500
115.6143, 1255.387
116.0964, 1288.920
116.5785, 1309.143
117.0606, 1309.286
117.5427, 1295.001
118.0248, 1273.948
118.5070, 1237.967
118.9891, 1212.388
119.4712, 1204.276
119.9533, 1205.021
120.4354, 1207.056
120.9175, 1207.105
121.3997, 1206.600
121.8818, 1209.798
122.3639, 1220.435
122.8460, 1230.044
123.3281, 1232.518
123.8102, 1234.866
124.2923, 1247.101
124.7745, 1275.303
125.2566, 1314.476
125.7387, 1341.114
126.2208, 1339.545
126.7029, 1341.230
127.1850, 1352.924
127.6672, 1370.419
128.1493, 1387.100
128.6314, 1399.256
129.1135, 1406.908
129.5956, 1410.136
130.0777, 1385.829
130.5599, 1381.473
131.0420, 1427.915
131.5241, 1506.324
132.0062, 1573.934
132.4883, 1601.086
132.9704, 1589.626
133.4526, 1583.729
133.9347, 1586.485
134.4168, 1590.570
134.8989, 1594.195
135.3810, 1596.766
135.8631, 1596.050
136.3453, 1588.277
136.8274, 1574.780
137.3095, 1574.951
137.7916, 1600.939
138.2737, 1629.413
138.7558, 1644.795
139.2380, 1647.612
139.7201, 1648.579
140.2022, 1654.686
140.6843, 1666.457
141.1664, 1681.721
141.6485, 1706.412
142.1307, 1730.730
142.6128, 1741.492
143.0949, 1737.908
143.5770, 1740.942
144.0591, 1770.471
144.5412, 1821.886
145.0234, 1873.589
145.5055, 1927.531
145.9876, 1977.942
146.4697, 2015.987
146.9518, 2039.618
147.4339, 2061.244
147.9161, 2087.829
148.3982, 2119.528
148.8803, 2158.560
149.3624, 2221.304
149.8445, 2286.725
150.3266, 2317.289
150.8088, 2302.851
151.2909, 2281.570
151.7730, 2282.133
152.2551, 2296.029
152.7372, 2307.204
153.2193, 2308.759
153.7015, 2303.483
154.1836, 2296.267
154.6657, 2285.090
155.1478, 2276.731
155.6299, 2276.720
156.1120, 2282.250
156.5942, 2288.031
157.0763, 2292.146
157.5584, 2294.624
158.0405, 2295.793
158.5226, 2296.396
159.0047, 2294.078
159.4869, 2287.190
159.9690, 2276.967
160.4511, 2256.998
160.9332, 2263.017
161.4153, 2264.152
161.8974, 2260.646
162.3795, 2239.645
162.8617, 2240.433
163.3438, 2232.000
163.8259, 2222.853
164.3080, 2225.710
164.7901, 2205.455
165.2722, 2207.417
165.7544, 2200.019
166.2365, 2196.397
166.7186, 2183.497
167.2007, 2173.006
167.6828, 2171.095
168.1649, 2163.890
168.6471, 2148.562
169.1292, 2143.105
169.6113, 2119.043
170.0934, 2110.651
170.5755, 2108.820
171.0576, 2092.196
171.5398, 2085.152
172.0219, 2073.979
172.5040, 2052.592
172.9861, 2044.687
173.4682, 2031.246
173.9503, 2003.699
174.4325, 1979.924
174.9146, 1971.711
175.3967, 1969.946
175.8788, 1956.040
176.3609, 1913.126
176.8430, 1837.126
177.3252, 1839.568
177.8073, 1837.476
178.2894, 1831.092
178.7715, 1807.562
179.2536, 1806.173
179.7357, 1795.911
180.2179, 1785.284
180.7000, 1787.010
181.1821, 1765.975
181.6642, 1767.505
182.1463, 1760.028
182.6284, 1756.674
183.1106, 1744.390
183.5927, 1734.866
184.0748, 1734.271
184.5569, 1728.732
185.0390, 1715.423
185.5211, 1712.330
186.0033, 1690.981
186.4854, 1685.653
186.9675, 1687.236
187.4496, 1669.957
187.9317, 1661.172
188.4138, 1653.249
188.8960, 1647.443
189.3781, 1640.074
189.8602, 1639.133
190.3423, 1649.092
190.8244, 1665.667
191.3065, 1683.460
191.7887, 1699.748
192.2708, 1713.886
192.7529, 1722.538
193.2350, 1716.855
193.7171, 1715.408
194.1992, 1720.187
194.6814, 1730.665
195.1635, 1747.576
195.6456, 1771.740
196.1277, 1799.851
196.6098, 1819.169
197.0919, 1818.484
197.5741, 1821.355
198.0562, 1829.748
198.5383, 1842.846
199.0204, 1861.081
199.5025, 1884.743
199.9846, 1910.654
200.4668, 1929.079
200.9489, 1926.148
201.4310, 1931.977
201.9131, 1949.983
202.3952, 1976.682
202.8773, 2009.276
203.3595, 2046.677
203.8416, 2087.106
204.3237, 2126.146
204.8058, 2163.654
205.2879, 2199.614
205.7701, 2236.898
206.2522, 2271.529
206.7343, 2298.200
207.2164, 2315.345
207.6985, 2327.132
208.1806, 2341.350
208.6628, 2357.709
209.1449, 2377.423
209.6270, 2404.521
210.1091, 2432.560
210.5912, 2454.116
211.0733, 2467.822
211.5554, 2479.949
212.0376, 2501.285
212.5197, 2544.043
213.0018, 2570.826
213.4839, 2572.916
213.9660, 2566.181
214.4481, 2560.224
214.9303, 2557.763
215.4124, 2559.072
215.8945, 2565.470
216.3766, 2581.985
216.8587, 2588.238
217.3408, 2580.483
217.8230, 2566.999
218.3051, 2552.393
218.7872, 2537.491
219.2693, 2521.279
219.7514, 2502.724
220.2335, 2481.507
220.7157, 2458.599
221.1978, 2435.483
221.6799, 2409.801
222.1620, 2378.416
222.6441, 2342.836
223.1262, 2307.848
223.6084, 2278.315
224.0905, 2255.242
224.5726, 2227.626
225.0547, 2193.338
225.5368, 2157.586
226.0189, 2122.071
226.5011, 2086.901
226.9832, 2052.239
227.4653, 2018.312
227.9474, 1985.168
228.4295, 1950.186
228.9116, 1902.511
229.3938, 1864.831
229.8759, 1852.535
230.3580, 1853.886
230.8401, 1846.781
231.3222, 1817.080
231.8043, 1769.841
232.2865, 1734.107
232.7686, 1717.325
233.2507, 1704.269
233.7328, 1699.354
234.2149, 1695.237
234.6970, 1679.938
235.1792, 1647.426
235.6613, 1606.122
236.1434, 1581.080
236.6255, 1591.311
237.1076, 1594.192
237.5897, 1581.286
238.0719, 1562.885
238.5540, 1551.678
239.0361, 1551.606
239.5182, 1553.571
240.0003, 1538.173
240.4824, 1482.023
240.9646, 1449.345
241.4467, 1454.871
241.9288, 1471.984
242.4109, 1485.616
242.8930, 1490.429
243.3751, 1483.732
243.8573, 1457.783
244.3394, 1394.764
244.8215, 1361.220
245.3036, 1374.467
245.7857, 1397.804
246.2678, 1415.060
246.7500, 1423.177
247.2321, 1424.556
247.7142, 1420.089
248.1963, 1408.050
248.6784, 1402.355
249.1605, 1414.968
249.6427, 1422.671
250.1248, 1412.023
250.6069, 1388.709
251.0890, 1368.301
251.5711, 1364.234
252.0532, 1375.071
252.5354, 1376.337
253.0175, 1351.468
253.4996, 1335.348
253.9817, 1343.297
254.4638, 1364.453
254.9459, 1381.481
255.4281, 1383.979
255.9102, 1376.019
256.3923, 1373.002
256.8744, 1381.579
257.3565, 1383.939
257.8386, 1373.099
258.3207, 1356.344
258.8029, 1340.478
259.2850, 1328.049
259.7671, 1319.280
260.2492, 1314.065
260.7313, 1310.958
261.2134, 1315.757
261.6956, 1345.719
262.1777, 1373.380
262.6598, 1374.260
263.1419, 1343.762
263.6240, 1305.714
264.1061, 1288.565
264.5883, 1295.200
265.0704, 1301.074
265.5525, 1302.949
266.0346, 1303.247
266.5167, 1303.501
266.9988, 1303.633
267.4810, 1302.371
267.9631, 1298.734
268.4452, 1292.806
268.9273, 1284.144
269.4094, 1266.251
269.8915, 1254.996
270.3737, 1265.867
270.8558, 1290.585
271.3379, 1306.782
271.8200, 1295.551
272.3021, 1267.990
272.7842, 1254.220
273.2664, 1258.721
273.7485, 1265.040
274.2306, 1261.177
274.7127, 1253.549
275.1948, 1252.268
275.6769, 1262.963
276.1591, 1278.271
276.6412, 1291.701
277.1233, 1303.780
277.6054, 1306.221
278.0875, 1285.184
278.5696, 1257.585
279.0518, 1248.918
279.5339, 1266.742
280.0160, 1289.271
280.4981, 1303.384
280.9802, 1309.442
281.4623, 1307.540
281.9445, 1293.921
282.4266, 1277.315
282.9087, 1271.417
283.3908, 1277.516
283.8729, 1281.005
284.3550, 1272.954
284.8372, 1259.191
285.3193, 1249.620
285.8014, 1245.897
286.2835, 1247.445
286.7656, 1256.410
287.2477, 1272.745
287.7299, 1283.501
288.2120, 1284.038
288.6941, 1280.156
289.1762, 1275.082
289.6583, 1269.596
290.1404, 1267.879
290.6226, 1275.114
291.1047, 1289.917
291.5868, 1294.822
292.0689, 1285.094
292.5510, 1271.165
293.0331, 1252.879
293.5153, 1233.943
293.9974, 1224.405
294.4795, 1230.789
294.9616, 1247.190
295.4437, 1254.255
295.9258, 1244.675
296.4080, 1235.650
296.8901, 1230.438
297.3722, 1226.371
297.8543, 1219.178
298.3364, 1207.690
298.8185, 1196.328
299.3007, 1193.034
299.7828, 1207.700
300.2649, 1207.481
300.7470, 1170.431
301.2291, 1136.877
301.7112, 1142.089
302.1934, 1181.970
302.6755, 1220.490
303.1576, 1220.941
303.6397, 1178.608
304.1218, 1154.159
304.6039, 1158.716
305.0861, 1169.602
305.5682, 1188.940
306.0503, 1209.103
306.5324, 1216.574
307.0145, 1202.039
307.4966, 1171.808
307.9788, 1150.501
308.4609, 1143.548
308.9430, 1136.864
309.4251, 1122.882
309.9072, 1110.187
310.3893, 1109.904
310.8715, 1125.530
311.3536, 1144.461
311.8357, 1147.674
312.3178, 1131.703
312.7999, 1117.087
313.2820, 1104.154
313.7642, 1095.804
314.2463, 1095.946
314.7284, 1103.716
315.2105, 1111.979
315.6926, 1116.739
316.1747, 1117.791
316.6569, 1112.723
317.1390, 1097.121
317.6211, 1083.045
318.1032, 1075.195
318.5853, 1074.167
319.0674, 1083.095
319.5496, 1116.580
320.0317, 1151.589
320.5138, 1149.571
320.9959, 1107.633
321.4780, 1069.716
321.9601, 1057.491
322.4423, 1063.790
322.9244, 1073.893
323.4065, 1089.679
323.8886, 1104.103
324.3707, 1114.053
324.8528, 1119.420
325.3350, 1117.683
325.8171, 1105.239
326.2992, 1092.719
326.7813, 1100.236
327.2634, 1132.160
327.7455, 1152.592
328.2277, 1145.900
328.7098, 1129.898
329.1919, 1122.629
329.6740, 1126.017
330.1561, 1132.438
330.6382, 1135.449
331.1204, 1134.891
331.6025, 1135.133
332.0846, 1137.962
332.5667, 1139.691
333.0488, 1135.835
333.5309, 1129.873
334.0131, 1130.090
334.4951, 1141.327
334.9773, 1158.976
335.4594, 1168.492
335.9415, 1160.493
336.4236, 1156.376
336.9057, 1162.443
337.3878, 1169.444
337.8700, 1167.037
338.3521, 1153.937
338.8342, 1139.597
339.3163, 1137.108
339.7984, 1150.333
340.2805, 1158.277
340.7627, 1151.522
341.2448, 1148.118
341.7269, 1159.686
342.2090, 1180.765
342.6911, 1196.500
343.1732, 1194.328
343.6554, 1180.812
344.1375, 1182.915
344.6196, 1209.514
345.1017, 1233.090
345.5838, 1240.829
346.0659, 1242.142
346.5481, 1247.469
347.0302, 1260.643
347.5123, 1273.370
347.9944, 1275.804
348.4765, 1268.384
348.9586, 1259.517
349.4408, 1246.189
349.9229, 1238.429
350.4050, 1249.150
350.8871, 1277.125
351.3692, 1301.063
351.8513, 1311.108
352.3335, 1311.664
352.8156, 1306.930
353.2977, 1296.676
353.7798, 1289.511
354.2619, 1292.778
354.7440, 1305.302
355.2262, 1315.676
355.7083, 1324.743
356.1904, 1330.790
356.6725, 1330.139
357.1546, 1325.763
357.6367, 1325.374
358.1189, 1332.632
358.6010, 1344.042
359.0831, 1352.305
359.5652, 1356.149
360.0473, 1358.941
360.5294, 1357.312
361.0116, 1356.935
361.4937, 1366.357
361.9758, 1384.207
362.4579, 1397.740
362.9400, 1392.662
363.4221, 1367.010
363.9043, 1352.962
364.3864, 1358.917
364.8685, 1367.675
365.3506, 1378.466
365.8327, 1388.274
366.3148, 1391.789
366.7970, 1385.851
367.2791, 1376.380
367.7612, 1377.414
368.2433, 1393.517
368.7254, 1407.235
369.2076, 1415.991
369.6897, 1420.865
370.1718, 1420.893
370.6539, 1416.505
371.1360, 1411.645
371.6181, 1410.228
372.1003, 1411.300
372.5824, 1409.638
373.0645, 1404.149
373.5466, 1397.608
374.0287, 1390.021
374.5108, 1382.825
374.9930, 1379.568
375.4751, 1385.226
375.9572, 1391.203
376.4393, 1386.376
376.9214, 1372.979
377.4035, 1366.757
377.8857, 1376.500
378.3678, 1393.594
378.8499, 1400.397
379.3320, 1395.662
379.8141, 1388.464
380.2962, 1378.190
380.7784, 1367.808
381.2605, 1361.091
381.7426, 1358.313
382.2247, 1356.653
382.7068, 1353.937
383.1889, 1350.283
383.6711, 1342.796
384.1532, 1324.053
384.6353, 1310.208
385.1174, 1308.738
385.5995, 1315.003
386.0816, 1322.448
386.5638, 1328.153
387.0459, 1331.488
387.5280, 1330.407
388.0101, 1321.458
388.4922, 1316.318
388.9743, 1321.450
389.4565, 1325.848
389.9386, 1323.391
390.4207, 1313.850
390.9028, 1299.873
391.3849, 1280.457
391.8670, 1257.866
392.3492, 1244.398
392.8313, 1241.840
393.3134, 1244.406
393.7955, 1254.743
394.2776, 1266.684
394.7597, 1271.469
395.2419, 1265.149
395.7240, 1256.072
396.2061, 1252.815
396.6882, 1253.386
397.1703, 1246.911
397.6524, 1227.124
398.1346, 1206.999
398.6167, 1206.439
399.0988, 1226.119
399.5809, 1239.663
400.0630, 1236.775
400.5451, 1230.797
401.0273, 1236.611
401.5094, 1251.326
401.9915, 1257.377
402.4736, 1241.783
402.9557, 1210.321
403.4378, 1191.388
403.9200, 1196.808
404.4021, 1199.885
404.8842, 1199.604
405.3663, 1195.071
405.8484, 1182.639
406.3305, 1162.873
406.8127, 1144.011
407.2948, 1135.994
407.7769, 1139.886
408.2590, 1145.547
408.7411, 1156.549
409.2232, 1165.282
409.7054, 1166.553
410.1875, 1164.197
410.6696, 1165.329
411.1517, 1174.076
411.6338, 1185.449
412.1159, 1193.644
412.5981, 1199.046
413.0802, 1194.871
413.5623, 1171.374
414.0444, 1145.130
414.5265, 1133.618
415.0086, 1137.080
415.4908, 1143.929
415.9729, 1150.210
416.4550, 1156.729
416.9371, 1167.179
417.4192, 1181.480
417.9013, 1188.685
418.3835, 1178.269
418.8656, 1154.887
419.3477, 1146.069
419.8298, 1157.504
420.3119, 1173.862
420.7940, 1198.512
421.2762, 1223.013
421.7583, 1235.411
422.2404, 1233.118
422.7225, 1224.440
423.2046, 1219.249
423.6867, 1217.409
424.1689, 1219.996
424.6510, 1227.687
425.1331, 1239.110
425.6152, 1257.051
426.0973, 1277.888
426.5794, 1294.770
427.0616, 1303.273
427.5437, 1309.898
428.0258, 1329.159
428.5079, 1364.322
428.9900, 1392.888
429.4721, 1404.689
429.9543, 1412.472
430.4364, 1426.562
430.9185, 1446.841
431.4006, 1468.049
431.8827, 1480.200
432.3648, 1494.850
432.8469, 1538.437
433.3290, 1612.036
433.8112, 1672.245
434.2933, 1687.644
434.7754, 1673.404
435.2575, 1683.570
435.7396, 1731.232
436.2217, 1778.954
436.7039, 1816.153
437.1860, 1848.793
437.6681, 1884.119
438.1502, 1923.333
438.6323, 1961.978
439.1144, 1995.258
439.5966, 2023.110
440.0787, 2048.496
440.5608, 2079.388
441.0429, 2098.687
441.5250, 2097.178
442.0071, 2083.282
442.4893, 2068.119
442.9714, 2055.909
443.4535, 2043.492
443.9356, 2024.780
444.4177, 1999.004
444.8998, 1978.887
445.3820, 1974.949
445.8641, 1965.669
446.3462, 1928.862
446.8283, 1873.201
447.3104, 1830.104
447.7925, 1822.160
448.2747, 1824.035
448.7568, 1806.274
449.2389, 1772.045
449.7210, 1741.569
450.2031, 1723.143
450.6852, 1713.305
451.1674, 1706.780
451.6495, 1706.150
452.1316, 1701.387
452.6137, 1694.118
453.0958, 1680.451
453.5779, 1652.261
454.0601, 1613.440
454.5422, 1577.912
455.0243, 1555.244
455.5064, 1544.171
455.9885, 1539.390
456.4706, 1548.169
456.9528, 1551.110
457.4349, 1543.994
457.9170, 1531.797
458.3991, 1516.124
458.8812, 1498.267
459.3633, 1474.518
459.8455, 1477.719
460.3276, 1476.386
460.8097, 1470.762
461.2918, 1447.991
461.7739, 1447.361
462.2560, 1437.858
462.7382, 1427.990
463.2203, 1430.476
463.7024, 1410.199
464.1845, 1412.489
464.6666, 1405.771
465.1487, 1403.176
465.6309, 1391.651
466.1130, 1382.886
466.5951, 1383.051
467.0772, 1378.271
467.5593, 1365.720
468.0414, 1363.387
468.5236, 1342.797
469.0057, 1338.228
469.4878, 1340.570
469.9699, 1328.468
470.4520, 1326.298
470.9341, 1320.345
471.4163, 1297.202
471.8984, 1303.954
472.3805, 1297.778
472.8626, 1278.327
473.3447, 1289.680
473.8268, 1292.724
474.3090, 1277.489
474.7911, 1251.195
475.2732, 1227.755
475.7553, 1210.328
476.2374, 1199.799
476.7195, 1201.506
477.2017, 1212.086
477.6838, 1215.535
478.1659, 1205.693
478.6480, 1192.956
479.1301, 1190.695
479.6122, 1201.192
480.0944, 1206.174
480.5765, 1203.711
481.0586, 1197.150
481.5407, 1185.680
482.0228, 1171.835
482.5049, 1160.948
482.9871, 1155.489
483.4692, 1151.557
483.9513, 1139.433
484.4334, 1111.186
484.9155, 1098.486
485.3976, 1120.139
485.8798, 1141.866
486.3619, 1147.538
486.8440, 1141.287
487.3261, 1136.104
487.8082, 1140.726
488.2903, 1145.939
488.7725, 1133.347
489.2546, 1104.237
489.7367, 1088.380
490.2188, 1099.648
490.7009, 1119.656
491.1830, 1122.432
491.6652, 1107.718
492.1473, 1099.079
492.6294, 1104.469
493.1115, 1113.181
493.5936, 1117.904
494.0757, 1119.589
494.5579, 1122.626
495.0400, 1129.282
495.5221, 1136.825
496.0042, 1139.358
496.4863, 1136.346
496.9684, 1129.286
497.4506, 1113.982
497.9327, 1098.835
498.4148, 1085.554
498.8969, 1075.887
499.3790, 1073.833
499.8611, 1084.524
500.3433, 1099.032
500.8254, 1101.664
501.3075, 1092.205
501.7896, 1081.864
502.2717, 1073.380
502.7538, 1065.717
503.2360, 1056.902
503.7181, 1046.947
504.2002, 1039.925
504.6823, 1035.758
505.1644, 1035.483
505.6465, 1044.448
506.1287, 1058.033
506.6108, 1063.682
507.0929, 1055.438
507.5750, 1039.158
508.0571, 1025.991
508.5392, 1016.775
509.0214, 1008.608
509.5035, 1002.831
509.9856, 996.7016
510.4677, 985.6317
510.9498, 973.5399
511.4319, 969.4388
511.9141, 979.2953
512.3962, 994.7418
512.8783, 1005.745
513.3604, 1012.188
513.8425, 1009.014
514.3246, 991.4680
514.8068, 970.2901
515.2889, 954.5743
515.7710, 944.2250
516.2531, 941.6127
516.7352, 951.8215
517.2173, 965.3275
517.6995, 982.6664
518.1816, 998.1489
518.6637, 997.9614
519.1458, 977.3919
519.6279, 949.9084
520.1100, 935.3738
520.5922, 935.7441
521.0743, 940.0169
521.5564, 956.2110
522.0385, 967.9113
522.5206, 967.0549
523.0027, 959.1508
523.4849, 952.8362
523.9670, 951.3820
524.4491, 950.9907
524.9312, 947.7261
525.4133, 942.0064
525.8954, 936.0020
526.3776, 930.1592
526.8597, 923.5104
527.3418, 914.5129
527.8239, 903.7504
528.3060, 895.5051
528.7881, 889.5145
529.2703, 886.3140
529.7524, 889.1696
530.2345, 893.5110
530.7166, 893.7910
531.1987, 888.8475
531.6808, 880.5098
532.1630, 869.6479
532.6451, 856.5907
533.1272, 849.3702
533.6093, 851.0370
534.0914, 853.4911
534.5735, 853.8456
535.0557, 854.0565
535.5378, 858.6581
536.0199, 868.4113
536.5020, 870.9356
536.9841, 851.5626
537.4662, 821.8838
537.9484, 800.2136
538.4305, 787.9645
538.9126, 788.8474
539.3947, 809.0531
539.8768, 839.6046
540.3589, 854.2688
540.8411, 842.6557
541.3232, 832.6403
541.8053, 826.1689
542.2874, 821.0984
542.7695, 817.3817
543.2516, 813.7765
543.7338, 807.1958
544.2159, 795.1927
544.6980, 780.4439
545.1801, 768.5151
545.6622, 758.9940
546.1443, 755.2508
546.6265, 761.5966
547.1086, 769.9626
547.5907, 773.8323
548.0728, 773.6450
548.5549, 771.6379
549.0370, 765.1151
549.5192, 759.9996
550.0013, 761.9320
550.4834, 768.5901
550.9655, 775.8435
551.4476, 782.3050
551.9297, 784.3657
552.4119, 775.3733
552.8940, 751.8539
553.3761, 741.7698
553.8582, 756.8662
554.3403, 773.0436
554.8224, 788.5300
555.3046, 800.1515
555.7867, 802.8964
556.2688, 795.3953
556.7509, 786.1868
557.2330, 784.7963
557.7151, 787.8649
558.1973, 782.7820
558.6794, 767.3746
559.1615, 754.7390
559.6436, 752.8652
560.1257, 759.4363
560.6078, 767.5280
561.0900, 778.3173
561.5721, 788.1514
562.0542, 797.5126
562.5363, 804.9115
563.0184, 807.3895
563.5005, 806.4090
563.9827, 807.4836
564.4648, 814.7579
564.9469, 824.3973
565.4290, 826.0380
565.9111, 818.3726
566.3932, 808.4501
566.8754, 793.4312
567.3575, 781.0761
567.8396, 779.9367
568.3217, 787.0253
568.8038, 789.6805
569.2859, 781.0948
569.7681, 769.9949
570.2502, 758.5218
570.7323, 749.8300
571.2144, 754.8013
571.6965, 775.8317
572.1786, 795.0718
572.6608, 790.1874
573.1429, 759.5701
573.6250, 747.1654
574.1071, 771.3829
574.5892, 790.3151
575.0714, 794.8726
575.5535, 790.7475
576.0356, 778.5825
576.5177, 760.1820
576.9998, 752.4290
577.4819, 780.3366
577.9641, 823.0548
578.4462, 834.6708
578.9283, 814.7637
579.4104, 794.9634
579.8925, 788.3751
580.3746, 792.5291
580.8567, 804.1640
581.3388, 830.5120
581.8209, 845.8276
582.3030, 842.4061
582.7852, 835.5090
583.2673, 830.6681
583.7494, 828.9357
584.2315, 831.3916
584.7136, 838.5944
585.1957, 847.5098
585.6779, 854.9281
586.1600, 860.7647
586.6421, 862.1387
587.1242, 856.2780
587.6063, 852.8155
588.0884, 860.4064
588.5706, 874.6235
589.0527, 882.0901
589.5348, 874.3357
590.0169, 875.5278
590.4990, 900.2689
590.9811, 932.7963
591.4633, 957.4844
591.9454, 973.7607
592.4275, 989.4706
592.9096, 1009.965
593.3917, 1032.752
593.8738, 1049.703
594.3560, 1058.915
594.8381, 1069.400
595.3202, 1078.928
595.8023, 1094.154
596.2844, 1122.047
596.7665, 1159.069
597.2487, 1193.847
597.7308, 1219.493
598.2129, 1246.633
598.6950, 1286.318
599.1771, 1331.243
599.6592, 1364.612
600.1414, 1384.108
600.6235, 1409.126
601.1056, 1460.516
601.5877, 1533.845
602.0698, 1582.827
602.5519, 1592.881
603.0341, 1602.824
603.5162, 1623.017
603.9983, 1642.528
604.4804, 1659.045
604.9625, 1669.060
605.4446, 1658.479
605.9268, 1606.985
606.4089, 1541.317
606.8910, 1492.760
607.3731, 1457.492
607.8552, 1421.715
608.3373, 1381.090
608.8195, 1338.363
609.3016, 1295.111
609.7837, 1250.060
610.2658, 1221.276
610.7479, 1223.665
611.2300, 1224.267
611.7122, 1215.183
612.1943, 1202.152
612.6764, 1190.415
613.1585, 1181.082
613.6406, 1174.123
614.1227, 1166.132
614.6049, 1161.802
615.0870, 1173.060
615.5691, 1198.822
616.0512, 1223.802
616.5333, 1241.469
617.0154, 1257.480
617.4976, 1281.139
617.9797, 1315.970
618.4618, 1340.631
618.9439, 1348.063
619.4260, 1354.254
619.9081, 1362.591
620.3903, 1373.971
620.8724, 1389.552
621.3545, 1409.408
621.8366, 1431.348
622.3187, 1453.153
622.8008, 1475.472
623.2830, 1501.786
623.7651, 1532.677
624.2472, 1559.115
624.7293, 1575.692
625.2114, 1588.049
625.6935, 1604.561
626.1757, 1624.518
626.6578, 1652.776
627.1399, 1699.592
627.6220, 1744.007
628.1041, 1778.769
628.5862, 1804.002
629.0684, 1818.732
629.5505, 1823.192
630.0326, 1825.431
630.5147, 1836.297
630.9968, 1852.580
631.4789, 1860.765
631.9611, 1860.783
632.4432, 1850.513
632.9253, 1827.533
633.4074, 1795.254
633.8895, 1759.334
634.3716, 1720.419
634.8538, 1675.922
635.3359, 1617.713
635.8180, 1561.994
636.3001, 1518.197
636.7822, 1482.184
637.2643, 1446.293
637.7465, 1408.037
638.2286, 1369.667
638.7107, 1336.845
639.1928, 1307.062
639.6749, 1263.780
640.1570, 1203.180
640.6392, 1150.321
641.1213, 1118.721
641.6034, 1099.181
642.0855, 1074.245
642.5676, 1041.626
643.0497, 1012.996
643.5319, 986.3697
644.0140, 966.8013
644.4961, 965.1697
644.9782, 969.9231
645.4603, 960.0958
645.9424, 929.3209
646.4246, 894.6828
646.9067, 876.1136
647.3888, 870.5570
647.8709, 860.5462
648.3530, 844.2966
648.8351, 834.8570
649.3173, 842.7162
649.7994, 855.4840
650.2815, 849.6709
650.7636, 819.1946
651.2457, 796.9046
651.7278, 787.0925
652.2100, 783.2973
652.6921, 787.5270
653.1742, 793.7989
653.6563, 792.0621
654.1384, 780.0071
654.6205, 768.1964
655.1027, 771.7804
655.5848, 784.4798
656.0669, 779.9240
656.5490, 756.2382
657.0311, 737.2960
657.5132, 733.7528
657.9954, 738.0264
658.4775, 738.5608
658.9596, 733.5063
659.4417, 733.1645
659.9238, 742.2933
660.4059, 750.6931
660.8881, 751.4996
661.3702, 750.7763
661.8523, 758.7192
662.3344, 776.3417
662.8165, 790.9916
663.2986, 787.8212
663.7808, 775.2106
664.2629, 775.2401
664.7450, 787.2049
665.2271, 791.4097
665.7092, 778.1826
666.1913, 763.9877
666.6735, 772.1945
667.1556, 807.0878
667.6377, 825.5001
668.1198, 815.0469
668.6019, 804.9381
669.0840, 803.4932
669.5662, 804.4770
670.0483, 802.5978
670.5304, 796.6450
671.0125, 786.0488
671.4946, 764.2010
671.9767, 742.4767
672.4589, 741.1083
672.9410, 755.8234
673.4231, 768.4173
673.9052, 774.3920
674.3873, 771.4798
674.8694, 755.1221
675.3516, 726.4471
675.8337, 708.4885
676.3158, 708.8062
676.7979, 708.6205
677.2800, 702.1360
677.7621, 697.0552
678.2443, 702.6631
678.7264, 715.6095
679.2085, 721.4486
679.6906, 710.3317
680.1727, 695.2667
680.6548, 687.7305
681.1370, 684.7939
681.6191, 679.8501
682.1012, 671.9985
682.5833, 665.1818
683.0654, 662.3947
683.5475, 663.0998
684.0297, 665.5980
684.5118, 671.0201
684.9939, 675.2586
685.4760, 680.4919
685.9581, 681.4021
686.4402, 671.3246
686.9224, 655.2126
687.4045, 644.5872
687.8866, 642.0938
688.3687, 644.4384
688.8508, 655.3005
689.3329, 666.7585
689.8151, 668.5385
690.2972, 661.9630
690.7793, 655.5541
691.2614, 653.9984
691.7435, 653.8599
692.2256, 647.9995
692.7078, 635.9973
693.1899, 627.7796
693.6720, 623.5607
694.1541, 624.1786
694.6362, 633.6518
695.1183, 646.5380
695.6005, 651.5011
696.0826, 646.4605
696.5647, 642.0875
697.0468, 639.8892
697.5289, 639.0577
698.0110, 641.5422
698.4932, 644.2241
698.9753, 639.9713
699.4574, 627.3888
699.9395, 617.2969
700.4216, 624.5502
700.9037, 642.4333
701.3859, 647.9958
701.8680, 641.1361
702.3501, 638.5344
702.8322, 647.9107
703.3143, 658.5518
703.7964, 654.9075
704.2786, 634.3327
704.7607, 628.7544
705.2428, 653.7968
705.7249, 673.3882
706.2070, 683.0920
706.6891, 682.8593
707.1713, 665.6793
707.6534, 636.3071
708.1355, 617.4651
708.6176, 626.8013
709.0997, 643.9411
709.5818, 648.5466
710.0640, 644.6965
710.5461, 641.6823
711.0282, 641.3704
711.5103, 642.7407
711.9924, 645.8332
712.4745, 648.5152
712.9567, 640.1621
713.4388, 612.1010
713.9209, 601.8823
714.4030, 627.9321
714.8851, 654.6357
715.3672, 659.2103
715.8494, 649.4894
716.3315, 640.7128
716.8136, 632.4178
717.2957, 631.2996
717.7778, 647.1916
718.2599, 665.1787
718.7421, 671.9020
719.2242, 669.5228
719.7063, 667.1388
720.1884, 668.4911
720.6705, 667.1512
721.1526, 650.0003
721.6348, 621.3964
722.1169, 609.2148
722.5990, 615.1957
723.0811, 628.5985
723.5632, 648.4756
724.0453, 667.3768
724.5275, 673.7831
725.0096, 665.7584
725.4917, 657.0740
725.9738, 642.4553
726.4559, 633.8658
726.9380, 640.7059
727.4202, 650.8047
727.9023, 650.4243
728.3844, 640.1398
728.8665, 633.0922
729.3486, 639.2249
729.8307, 648.4576
730.3129, 650.1719
730.7950, 646.9191
731.2771, 644.7681
731.7592, 644.6714
732.2413, 642.9133
732.7234, 635.8579
733.2056, 626.9837
733.6877, 628.7634
734.1698, 644.8515
734.6519, 656.5353
735.1340, 664.3530
735.6161, 663.8452
736.0983, 641.5447
736.5804, 611.6060
737.0625, 606.1554
737.5446, 639.3843
738.0267, 659.6454
738.5089, 641.2499
738.9910, 618.9055
739.4731, 616.6537
739.9552, 627.7546
740.4373, 638.1841
740.9194, 643.2859
741.4016, 645.3165
741.8837, 645.9611
742.3658, 645.2593
742.8479, 642.5664
743.3300, 638.1661
743.8121, 634.7753
744.2943, 633.0253
744.7764, 634.1954
745.2585, 640.4699
745.7406, 651.5049
746.2227, 658.5899
746.7048, 661.0231
747.1870, 660.6702
747.6691, 655.4282
748.1512, 649.6408
748.6333, 649.0834
749.1154, 650.5024
749.5975, 642.1150
750.0797, 611.1299
750.5618, 589.0033
751.0439, 600.4597
751.5260, 622.5316
752.0081, 629.2558
752.4902, 622.9972
752.9724, 620.7200
753.4545, 630.6644
753.9366, 642.9619
754.4187, 640.5356
754.9008, 627.0073
755.3829, 628.2482
755.8651, 646.7833
756.3472, 661.8190
756.8293, 664.8544
757.3114, 660.1297
757.7935, 652.7480
758.2756, 641.9475
758.7578, 634.7261
759.2399, 630.8486
759.7220, 630.9887
760.2041, 637.8232
760.6862, 646.7641
761.1683, 656.3627
761.6505, 664.9940
762.1326, 667.1696
762.6147, 657.0032
763.0968, 645.5510
763.5789, 637.1771
764.0610, 633.7213
764.5432, 643.0276
765.0253, 661.1097
765.5074, 669.4271
765.9895, 656.9197
766.4716, 635.2574
766.9537, 622.2429
767.4359, 617.7833
767.9180, 622.5110
768.4001, 638.8468
768.8822, 648.9386
769.3643, 641.5519
769.8464, 628.2622
770.3286, 628.8642
770.8107, 647.9005
771.2928, 655.9326
771.7749, 639.8227
772.2570, 629.7087
772.7391, 639.4454
773.2213, 652.9907
773.7034, 654.2953
774.1855, 644.2189
774.6676, 636.3549
775.1497, 636.7444
775.6318, 640.1626
776.1140, 645.2799
776.5961, 650.0255
777.0782, 652.2591
777.5603, 651.2665
778.0424, 644.6511
778.5245, 630.4605
779.0066, 615.9835
779.4887, 615.4252
779.9708, 627.0131
780.4529, 632.3353
780.9351, 629.4854
781.4172, 629.2818
781.8993, 637.8745
782.3814, 648.9500
782.8635, 652.6195
783.3456, 647.8513
783.8278, 643.5208
784.3099, 637.7073
784.7920, 635.0069
785.2741, 640.8391
785.7562, 646.4919
786.2383, 642.7164
786.7205, 631.4401
787.2026, 624.2159
787.6847, 627.6987
788.1668, 631.1200
788.6489, 626.8427
789.1310, 620.7380
789.6132, 618.2769
790.0953, 620.2584
790.5774, 627.9341
791.0595, 642.3027
791.5416, 655.5555
792.0237, 656.5717
792.5059, 648.2208
792.9880, 639.1616
793.4701, 629.9572
793.9522, 626.8348
794.4343, 633.0253
794.9164, 641.9258
795.3986, 645.4594
795.8807, 643.7136
796.3628, 640.9627
796.8449, 634.5434
797.3270, 632.8306
797.8091, 643.7604
798.2913, 653.4539
798.7734, 649.2437
799.2555, 635.6171
799.7376, 626.8598
800.2197, 624.6864
800.7018, 627.3928
801.1840, 639.0894
801.6661, 651.2785
802.1482, 659.4050
802.6303, 662.7658
803.1124, 659.0874
803.5945, 648.0244
804.0767, 639.1215
804.5588, 645.5078
805.0409, 655.6558
805.5230, 647.8342
806.0051, 628.0096
806.4872, 618.3933
806.9694, 624.2260
807.4515, 632.6652
807.9336, 631.9725
808.4157, 625.9666
808.8978, 629.5919
809.3799, 644.7319
809.8621, 653.4291
810.3442, 652.1309
810.8263, 647.6717
811.3084, 642.6840
811.7905, 638.3569
812.2726, 637.5673
812.7548, 641.2535
813.2369, 645.8885
813.7190, 660.0509
814.2011, 664.7737
814.6832, 643.6780
815.1653, 616.6697
815.6475, 605.0060
816.1296, 609.7603
816.6117, 617.4526
817.0938, 624.8544
817.5759, 631.2059
818.0580, 636.0485
818.5402, 639.6012
819.0223, 642.9708
819.5044, 645.4059
819.9865, 642.7601
820.4686, 632.2394
820.9507, 623.1389
821.4329, 631.0618
821.9150, 649.6431
822.3971, 658.9871
822.8792, 658.7143
823.3613, 655.0577
823.8434, 650.0864
824.3256, 645.5756
824.8077, 644.1469
825.2898, 645.2366
825.7719, 641.2681
826.2540, 629.1077
826.7361, 622.2922
827.2183, 624.5052
827.7004, 630.8455
828.1825, 640.8592
828.6646, 651.9335
829.1467, 655.0035
829.6288, 647.1041
830.1110, 637.9476
830.5931, 622.3480
831.0752, 612.0677
831.5573, 615.9921
832.0394, 626.8274
832.5215, 635.9508
833.0037, 641.7292
833.4858, 644.5419
833.9679, 642.8365
834.4500, 640.0677
834.9321, 640.3234
835.4142, 640.3300
835.8964, 632.6527
836.3785, 619.1986
836.8606, 610.8258
837.3427, 613.8231
837.8248, 622.9634
838.3069, 632.7574
838.7891, 642.5942
839.2712, 652.4568
839.7533, 661.5430
840.2354, 659.4879
840.7175, 641.0443
841.1996, 621.9491
841.6818, 622.8337
842.1639, 641.1074
842.6460, 647.9712
843.1281, 640.0710
843.6102, 633.9662
844.0923, 632.9843
844.5745, 633.9463
845.0566, 633.9523
845.5387, 634.2229
846.0208, 639.2016
846.5029, 653.7916
846.9850, 662.9257
847.4672, 665.1049
847.9493, 663.6085
848.4314, 658.8378
848.9135, 651.5944
849.3956, 639.8303
849.8777, 624.3979
850.3599, 617.6074
850.8420, 631.4916
851.3241, 645.7779
851.8062, 647.4838
852.2883, 645.6196
852.7704, 652.8475
853.2526, 665.8160
853.7347, 670.5444
854.2168, 660.5157
854.6989, 645.4612
855.1810, 631.0122
855.6631, 620.1288
856.1453, 621.8350
856.6274, 632.1811
857.1095, 634.5000
857.5916, 624.3877
858.0737, 614.7245
858.5558, 618.1199
859.0380, 630.4467
859.5201, 639.9996
860.0022, 646.8293
860.4843, 649.6300
860.9664, 647.4774
861.4485, 646.7209
861.9307, 652.0979
862.4128, 658.9076
862.8949, 656.9078
863.3770, 643.5527
863.8591, 637.7019
864.3412, 644.0517
864.8234, 648.9547
865.3055, 650.1566
865.7876, 646.9598
866.2697, 634.1466
866.7518, 614.8625
867.2339, 607.0123
867.7161, 621.8209
868.1982, 632.2072
868.6803, 629.6713
869.1624, 627.2001
869.6445, 635.4570
870.1266, 647.3710
870.6088, 649.8140
871.0909, 640.3760
871.5730, 633.9213
872.0551, 641.8510
872.5372, 649.8076
873.0193, 644.3104
873.5015, 635.2479
873.9836, 638.7924
874.4657, 652.4478
874.9478, 657.9694
875.4299, 644.4947
875.9120, 629.4581
876.3942, 633.6114
876.8763, 647.9449
877.3584, 658.4175
877.8405, 663.5811
878.3226, 660.2596
878.8047, 648.1201
879.2869, 636.0734
879.7690, 632.6671
880.2511, 636.0974
880.7332, 643.4037
881.2153, 653.9498
881.6974, 657.6413
882.1796, 652.5143
882.6617, 647.0636
883.1438, 645.9120
883.6259, 647.9352
884.1080, 651.2250
884.5901, 655.7777
885.0723, 662.4944
885.5544, 674.6535
886.0365, 678.7675
886.5186, 667.2758
887.0007, 652.5757
887.4828, 644.3983
887.9650, 642.4328
888.4471, 645.1801
888.9292, 657.6297
889.4113, 666.3818
889.8934, 673.2198
890.3755, 674.4293
890.8577, 661.4782
891.3398, 646.0972
891.8219, 643.7024
892.3040, 655.2283
892.7861, 667.9449
893.2682, 687.6542
893.7504, 697.1157
894.2325, 679.4044
894.7146, 658.4468
895.1967, 654.2794
895.6788, 663.6719
896.1609, 675.5703
896.6431, 687.1384
897.1252, 696.9921
897.6073, 706.4497
898.0894, 711.8218
898.5715, 705.1201
899.0536, 694.2729
899.5358, 695.1141
900.0179, 706.9669
900.5000, 711.7787
900.9821, 696.2056
901.4642, 678.3230
901.9464, 685.1172
902.4285, 702.3832
902.9106, 698.3434
903.3927, 677.6886
903.8748, 666.9034
904.3569, 675.2531
904.8391, 693.2330
905.3212, 715.0151
905.8033, 734.9214
906.2854, 734.5231
906.7675, 716.7767
907.2496, 703.5903
907.7318, 698.2268
908.2139, 700.8361
908.6960, 712.6791
909.1781, 726.6318
909.6602, 730.9572
910.1423, 725.7432
910.6245, 714.3354
911.1066, 695.0289
911.5887, 679.6841
912.0708, 671.1125
912.5529, 667.6418
913.0350, 668.1555
913.5172, 672.5297
913.9993, 681.1829
914.4814, 698.3192
914.9635, 707.0327
915.4456, 703.8357
915.9277, 698.6016
916.4099, 693.9019
916.8920, 689.7312
917.3741, 684.5677
917.8562, 678.7830
918.3383, 681.1186
918.8204, 701.3570
919.3026, 714.8890
919.7847, 720.2211
920.2668, 718.6733
920.7489, 705.4297
921.2310, 688.2324
921.7131, 677.8546
922.1953, 675.2758
922.6774, 678.6666
923.1595, 693.4282
923.6416, 706.6357
924.1237, 715.4376
924.6058, 719.4872
925.0880, 713.8145
925.5701, 704.0554
926.0522, 705.1224
926.5343, 723.4186
927.0164, 735.9017
927.4985, 720.7693
927.9807, 708.3459
928.4628, 727.8502
928.9449, 757.7411
929.4270, 768.1134
929.9091, 758.9666
930.3912, 750.5637
930.8734, 753.7983
931.3555, 754.6700
931.8376, 737.0133
932.3197, 715.1898
932.8018, 703.8928
933.2839, 702.4935
933.7661, 709.9248
934.2482, 724.0446
934.7303, 736.0142
935.2124, 739.1768
935.6945, 737.7425
936.1766, 736.9382
936.6588, 735.4403
937.1409, 726.5188
937.6230, 713.8755
938.1051, 715.7688
938.5872, 738.0121
939.0693, 759.4383
939.5515, 756.9456
940.0336, 740.7653
940.5157, 731.0143
940.9978, 727.1919
941.4799, 729.1328
941.9620, 735.9429
942.4442, 740.6409
942.9263, 739.4789
943.4084, 736.2039
943.8905, 736.6982
944.3726, 739.7390
944.8547, 737.5681
945.3369, 730.7432
945.8190, 731.5421
946.3011, 742.9323
946.7832, 748.2140
947.2653, 734.3457
947.7474, 713.4703
948.2296, 712.6887
948.7117, 732.2579
949.1938, 744.4946
949.6759, 748.5367
950.1580, 753.1821
950.6401, 761.7748
951.1223, 766.8179
951.6044, 759.9897
952.0865, 747.1608
952.5686, 749.1172
953.0507, 769.3180
953.5328, 784.5713
954.0150, 794.1221
954.4971, 798.7662
954.9792, 796.4470
955.4613, 794.4919
955.9434, 801.5898
956.4255, 815.9019
956.9077, 825.4396
957.3898, 830.6163
957.8719, 829.5114
958.3540, 819.7480
958.8361, 807.5892
959.3182, 790.5405
959.8004, 778.6246
960.2825, 787.4399
960.7646, 816.3010
961.2467, 837.4295
961.7288, 850.2764
962.2109, 856.0664
962.6931, 850.3854
963.1752, 843.6605
963.6573, 839.4788
964.1394, 838.3709
964.6215, 841.7148
965.1036, 849.9657
965.5858, 858.0934
966.0679, 871.2353
966.5500, 876.9160
967.0321, 862.2280
967.5142, 851.5342
967.9963, 861.0992
968.4785, 883.3862
968.9606, 906.3749
969.4427, 931.1896
969.9248, 946.7898
970.4069, 938.3729
970.8890, 939.8967
971.3712, 968.8255
971.8533, 1001.006
972.3354, 1019.681
972.8175, 1028.410
973.2996, 1035.620
973.7817, 1040.737
974.2639, 1051.233
974.7460, 1072.582
975.2281, 1093.886
975.7102, 1106.813
976.1923, 1122.242
976.6744, 1152.121
977.1565, 1191.906
977.6386, 1227.240
978.1207, 1254.482
978.6028, 1283.637
979.0850, 1310.056
979.5671, 1347.549
980.0492, 1408.214
980.5313, 1478.050
981.0134, 1544.134
981.4955, 1606.697
981.9777, 1670.351
982.4598, 1734.956
982.9419, 1805.684
983.4240, 1879.838
983.9061, 1966.060
984.3882, 2074.977
984.8704, 2193.879
985.3525, 2304.357
985.8346, 2410.114
986.3167, 2530.861
986.7988, 2676.094
987.2809, 2826.359
987.7631, 2975.802
988.2452, 3125.562
988.7273, 3276.326
989.2094, 3428.300
989.6915, 3582.843
990.1736, 3739.658
990.6558, 3897.099
991.1379, 4050.020
991.6200, 4214.883
992.1021, 4418.679
992.5842, 4616.599
993.0663, 4771.142
993.5485, 4907.178
994.0306, 5062.058
994.5127, 5235.132
994.9948, 5393.216
995.4769, 5527.331
995.9590, 5637.037
996.4412, 5709.411
996.9233, 5769.522
997.4054, 5842.098
997.8875, 5910.027
998.3696, 5948.598
998.8517, 5956.137
999.3339, 5948.028
999.8160, 5937.368
1000.298, 5895.809
1000.780, 5803.445
1001.262, 5681.868
1001.744, 5551.697
1002.227, 5399.695
1002.709, 5199.019
1003.191, 4951.635
1003.673, 4694.340
1004.155, 4436.575
1004.637, 4175.543
1005.119, 3896.377
1005.601, 3625.318
1006.083, 3377.853
1006.566, 3152.176
1007.048, 2944.650
1007.530, 2754.488
1008.012, 2578.844
1008.494, 2414.063
1008.976, 2269.431
1009.458, 2163.128
1009.940, 2066.406
1010.423, 1955.766
1010.905, 1842.417
1011.387, 1741.436
1011.869, 1655.785
1012.351, 1581.780
1012.833, 1517.768
1013.315, 1466.082
1013.797, 1435.930
1014.279, 1409.894
1014.762, 1375.838
1015.244, 1338.178
1015.726, 1302.116
1016.208, 1269.072
1016.690, 1241.990
1017.172, 1225.453
1017.654, 1207.252
1018.136, 1176.361
1018.619, 1149.089
1019.101, 1137.780
1019.583, 1135.179
1020.065, 1130.635
1020.547, 1124.152
1021.029, 1123.940
1021.511, 1134.386
1021.993, 1146.905
1022.475, 1162.092
1022.958, 1174.897
1023.440, 1182.485
1023.922, 1185.940
1024.404, 1182.027
1024.886, 1174.306
1025.368, 1180.210
1025.850, 1209.878
1026.332, 1239.669
1026.815, 1266.262
1027.297, 1288.462
1027.779, 1303.925
1028.261, 1316.214
1028.743, 1327.373
1029.225, 1338.740
1029.707, 1354.026
1030.189, 1369.910
1030.672, 1399.033
1031.154, 1464.585
1031.636, 1517.656
1032.118, 1527.637
1032.600, 1524.889
1033.082, 1534.157
1033.564, 1556.402
1034.046, 1590.380
1034.528, 1641.556
1035.010, 1689.875
1035.493, 1732.169
1035.975, 1773.004
1036.457, 1820.425
1036.939, 1860.818
1037.421, 1875.879
1037.903, 1874.914
1038.385, 1889.691
1038.867, 1923.702
1039.350, 1963.554
1039.832, 2019.052
1040.314, 2065.809
1040.796, 2093.844
1041.278, 2116.833
1041.760, 2147.629
1042.242, 2179.451
1042.724, 2193.084
1043.207, 2182.175
1043.689, 2185.203
1044.171, 2210.755
1044.653, 2232.737
1045.135, 2248.462
1045.617, 2254.952
1046.099, 2246.936
1046.581, 2231.855
1047.063, 2225.030
1047.546, 2227.602
1048.028, 2221.037
1048.510, 2200.695
1048.992, 2188.218
1049.474, 2192.103
1049.956, 2189.462
1050.438, 2166.369
1050.920, 2131.716
1051.402, 2099.076
1051.885, 2068.010
1052.367, 2033.829
1052.849, 1997.299
1053.331, 1952.495
1053.813, 1898.140
1054.295, 1837.418
1054.777, 1769.959
1055.259, 1705.377
1055.742, 1656.691
1056.224, 1619.410
1056.706, 1569.926
1057.188, 1508.767
1057.670, 1470.898
1058.152, 1459.396
1058.634, 1433.961
1059.116, 1378.657
1059.599, 1316.932
1060.081, 1271.658
1060.563, 1236.547
1061.045, 1193.686
1061.527, 1146.879
1062.009, 1115.578
1062.491, 1099.330
1062.973, 1087.653
1063.455, 1077.123
1063.938, 1068.083
1064.420, 1061.344
1064.902, 1053.958
1065.384, 1039.326
1065.866, 1021.531
1066.348, 1012.103
1066.830, 1007.606
1067.312, 994.6793
1067.794, 972.4790
1068.277, 953.3619
1068.759, 944.3620
1069.241, 940.1121
1069.723, 939.0700
1070.205, 936.1402
1070.687, 918.1880
1071.169, 896.5613
1071.651, 894.7776
1072.134, 909.6641
1072.616, 919.6262
1073.098, 916.1454
1073.580, 909.3232
1074.062, 905.6341
1074.544, 901.9855
1075.026, 893.9429
1075.508, 886.1474
1075.990, 884.8962
1076.473, 887.9566
1076.955, 890.0016
1077.437, 889.7161
1077.919, 886.5026
1078.401, 876.8182
1078.883, 868.6519
1079.365, 864.2765
1079.847, 863.7035
1080.329, 869.1921
1080.812, 877.2802
1081.294, 885.6313
1081.776, 892.8825
1082.258, 889.5320
1082.740, 862.6403
1083.222, 843.3130
1083.704, 837.1820
1084.186, 837.6373
1084.668, 848.0887
1085.151, 858.9910
1085.633, 859.1529
1086.115, 851.2271
1086.597, 847.1279
1087.079, 848.7207
1087.561, 848.7231
1088.043, 844.0642
1088.525, 844.7116
1089.008, 857.5261
1089.490, 868.1474
1089.972, 865.2659
1090.454, 853.6480
1090.936, 843.0145
1091.418, 833.1713
1091.900, 826.8504
1092.382, 823.3693
1092.865, 830.6691
1093.347, 852.9891
1093.829, 864.1544
1094.311, 847.6794
1094.793, 826.3514
1095.275, 834.6437
1095.757, 860.6193
1096.239, 848.2056
1096.721, 804.2994
1097.203, 789.6203
1097.686, 806.9086
1098.168, 821.8250
1098.650, 822.1243
1099.132, 817.2156
1099.614, 813.9154
1100.096, 814.1310
1100.578, 824.7308
1101.060, 839.3574
1101.543, 844.9786
1102.025, 842.5546
1102.507, 833.7813
1102.989, 821.5449
1103.471, 816.6476
1103.953, 825.9420
1104.435, 836.2483
1104.917, 834.7589
1105.400, 830.2300
1105.882, 830.0441
1106.364, 832.9821
1106.846, 839.1346
1107.328, 846.1445
1107.810, 846.5086
1108.292, 837.7315
1108.774, 838.3558
1109.256, 872.0504
1109.739, 895.4645
1110.221, 878.8723
1110.703, 857.2427
1111.185, 856.9116
1111.667, 867.7064
1112.149, 874.3295
1112.631, 875.3099
1113.113, 868.9695
1113.595, 841.3840
1114.078, 829.2036
1114.560, 844.3849
1115.042, 859.1556
1115.524, 864.3220
1116.006, 865.9319
1116.488, 869.6107
1116.970, 873.7369
1117.452, 872.3073
1117.935, 862.9913
1118.417, 865.4456
1118.899, 883.8096
1119.381, 891.7479
1119.863, 881.8950
1120.345, 873.4665
1120.827, 878.4335
1121.309, 886.6460
1121.792, 881.3925
1122.274, 868.1703
1122.756, 872.8463
1123.238, 891.6575
1123.720, 900.8803
1124.202, 899.4355
1124.684, 898.4889
1125.166, 901.8719
1125.648, 905.8928
1126.130, 907.5398
1126.613, 908.5862
1127.095, 914.0847
1127.577, 918.6751
1128.059, 909.4883
1128.541, 894.6083
1129.023, 893.9767
1129.505, 905.9494
1129.987, 908.8651
1130.470, 892.5367
1130.952, 879.5576
1131.434, 883.8384
1131.916, 895.1818
1132.398, 916.1794
1132.880, 933.2081
1133.362, 928.6703
1133.844, 913.1606
1134.327, 909.6326
1134.809, 920.9345
1135.291, 926.0220
1135.773, 915.3620
1136.255, 908.2513
1136.737, 910.3289
1137.219, 911.6900
1137.701, 907.4446
1138.183, 902.4113
1138.666, 899.5923
1139.148, 900.5704
1139.630, 912.3281
1140.112, 938.0031
1140.594, 954.4017
1141.076, 961.6302
1141.558, 955.4285
1142.040, 932.3746
1142.522, 918.3074
1143.005, 929.2098
1143.487, 947.0029
1143.969, 946.1201
1144.451, 933.5909
1144.933, 930.1421
1145.415, 934.2482
1145.897, 941.9536
1146.379, 951.7352
1146.862, 959.9214
1147.344, 965.4259
1147.826, 968.7590
1148.308, 969.5643
1148.790, 971.0422
1149.272, 977.0153
1149.754, 984.6522
1150.236, 994.3110
1150.719, 1001.433
1151.201, 996.0098
1151.683, 982.9581
1152.165, 977.8412
1152.647, 984.9768
1153.129, 995.9487
1153.611, 1014.362
1154.093, 1026.998
1154.575, 1024.642
1155.057, 1021.264
1155.540, 1026.355
1156.022, 1034.493
1156.504, 1038.335
1156.986, 1038.634
1157.468, 1040.135
1157.950, 1042.607
1158.432, 1047.671
1158.914, 1057.257
1159.397, 1061.633
1159.879, 1057.014
1160.361, 1052.390
1160.843, 1053.518
1161.325, 1058.719
1161.807, 1064.429
1162.289, 1072.431
1162.771, 1097.360
1163.254, 1131.843
1163.736, 1136.795
1164.218, 1114.997
1164.700, 1102.754
1165.182, 1110.469
1165.664, 1116.710
1166.146, 1103.438
1166.628, 1092.959
1167.110, 1114.585
1167.593, 1143.886
1168.075, 1156.030
1168.557, 1158.421
1169.039, 1160.649
1169.521, 1164.788
1170.003, 1171.365
1170.485, 1180.488
1170.967, 1192.710
1171.449, 1213.529
1171.932, 1229.640
1172.414, 1235.956
1172.896, 1238.973
1173.378, 1241.576
1173.860, 1242.777
1174.342, 1239.038
1174.824, 1233.488
1175.306, 1240.702
1175.789, 1263.598
1176.271, 1284.297
1176.753, 1303.323
1177.235, 1314.739
1177.717, 1316.641
1178.199, 1320.835
1178.681, 1334.047
1179.163, 1351.582
1179.646, 1368.337
1180.128, 1384.405
1180.610, 1401.570
1181.092, 1417.560
1181.574, 1423.499
1182.056, 1424.006
1182.538, 1435.300
1183.020, 1457.880
1183.502, 1472.099
1183.984, 1465.141
1184.467, 1466.385
1184.949, 1504.935
1185.431, 1544.275
1185.913, 1555.781
1186.395, 1563.458
1186.877, 1592.075
1187.359, 1632.124
1187.841, 1663.025
1188.324, 1683.324
1188.806, 1704.542
1189.288, 1728.210
1189.770, 1750.006
1190.252, 1768.473
1190.734, 1788.373
1191.216, 1810.489
1191.698, 1837.043
1192.181, 1870.241
1192.663, 1906.845
1193.145, 1941.361
1193.627, 1973.575
1194.109, 2000.645
1194.591, 2024.657
1195.073, 2055.345
1195.555, 2093.294
1196.037, 2137.587
1196.520, 2186.735
1197.002, 2233.566
1197.484, 2273.561
1197.966, 2309.036
1198.448, 2332.255
1198.930, 2361.775
1199.412, 2424.131
1199.894, 2493.594
1200.376, 2534.732
1200.859, 2559.978
1201.341, 2606.345
1201.823, 2680.118
1202.305, 2753.811
1202.787, 2827.043
1203.269, 2895.854
1203.751, 2961.996
1204.233, 3019.286
1204.716, 3059.912
1205.198, 3104.173
1205.680, 3169.656
1206.162, 3248.571
1206.644, 3328.427
1207.126, 3407.158
1207.608, 3466.188
1208.090, 3509.045
1208.573, 3561.069
1209.055, 3623.086
1209.537, 3679.539
1210.019, 3726.075
1210.501, 3771.506
1210.983, 3824.379
1211.465, 3870.148
1211.947, 3892.931
1212.429, 3905.480
1212.911, 3916.630
1213.394, 3926.296
1213.876, 3935.431
1214.358, 3941.850
1214.840, 3942.918
1215.322, 3938.729
1215.804, 3916.993
1216.286, 3859.824
1216.768, 3817.052
1217.251, 3799.726
1217.733, 3777.161
1218.215, 3736.951
1218.697, 3694.974
1219.179, 3661.268
1219.661, 3639.135
1220.143, 3638.323
1220.625, 3652.751
1221.108, 3654.070
1221.590, 3644.879
1222.072, 3631.533
1222.554, 3618.162
1223.036, 3620.106
1223.518, 3638.331
1224.000, 3648.360
1224.482, 3633.912
1224.964, 3617.849
1225.447, 3615.862
1225.929, 3618.450
1226.411, 3623.122
1226.893, 3625.672
1227.375, 3622.979
1227.857, 3615.262
1228.339, 3599.188
1228.821, 3575.999
1229.303, 3571.564
1229.786, 3603.750
1230.268, 3597.479
1230.750, 3539.283
1231.232, 3493.142
1231.714, 3475.629
1232.196, 3466.315
1232.678, 3453.307
1233.160, 3438.835
1233.643, 3425.013
1234.125, 3412.801
1234.607, 3408.632
1235.089, 3405.015
1235.571, 3384.326
1236.053, 3352.304
1236.535, 3322.774
1237.017, 3297.883
1237.500, 3273.309
1237.982, 3246.666
1238.464, 3226.082
1238.946, 3225.117
1239.428, 3215.421
1239.910, 3178.869
1240.392, 3142.301
1240.874, 3123.023
1241.356, 3106.117
1241.839, 3074.635
1242.321, 3034.666
1242.803, 3005.398
1243.285, 2986.909
1243.767, 2963.377
1244.249, 2935.854
1244.731, 2928.451
1245.213, 2941.329
1245.695, 2950.096
1246.178, 2945.099
1246.660, 2925.794
1247.142, 2888.048
1247.624, 2848.208
1248.106, 2815.069
1248.588, 2793.718
1249.070, 2805.156
1249.552, 2817.088
1250.035, 2787.856
1250.517, 2733.546
1250.999, 2690.450
1251.481, 2662.492
1251.963, 2647.740
1252.445, 2653.760
1252.927, 2653.138
1253.409, 2645.684
1253.891, 2630.043
1254.374, 2605.791
1254.856, 2572.592
1255.338, 2529.179
1255.820, 2486.415
1256.302, 2456.316
1256.784, 2438.603
1257.266, 2441.821
1257.748, 2450.808
1258.230, 2437.438
1258.713, 2407.621
1259.195, 2371.053
1259.677, 2334.265
1260.159, 2309.730
1260.641, 2301.949
1261.123, 2297.210
1261.605, 2302.369
1262.087, 2293.031
1262.570, 2251.299
1263.052, 2214.068
1263.534, 2193.631
1264.016, 2184.485
1264.498, 2185.311
1264.980, 2187.058
1265.462, 2167.819
1265.944, 2134.584
1266.427, 2126.847
1266.909, 2137.019
1267.391, 2134.497
1267.873, 2119.516
1268.355, 2105.755
1268.837, 2095.365
1269.319, 2078.639
1269.801, 2049.448
1270.283, 2025.104
1270.766, 2012.597
##END=



