##NAMES=Euclase
##RRUFFID=R100157
##IDEAL CHEMISTRY=BeAlSiO_4_(OH)
##LOCALITY=Unknown
##OWNER=RRUFF
##SOURCE=William W. Pinch
##DESCRIPTION=Blue cut gemstone
##STATUS=The identification of this mineral has been confirmed by single-crystal X-ray diffraction.
##URL=rruff.info/R100157
116.1576, 57.79051
116.6397, 57.84023
117.1219, 57.92973
117.6040, 58.08924
118.0861, 58.19178
118.5682, 58.37352
119.0503, 58.41823
119.5324, 58.05119
120.0146, 57.27493
120.4967, 56.44341
120.9788, 56.16291
121.4609, 57.06490
121.9430, 57.60721
122.4251, 57.59633
122.9073, 57.29020
123.3894, 56.96157
123.8715, 56.70738
124.3536, 56.51387
124.8357, 56.35626
125.3178, 56.23304
125.8000, 56.13165
126.2821, 56.04614
126.7642, 55.97858
127.2463, 55.94691
127.7284, 55.99855
128.2105, 56.06139
128.6927, 56.02133
129.1748, 55.86144
129.6569, 55.61967
130.1390, 55.26233
130.6211, 54.74356
131.1032, 54.38849
131.5854, 54.63140
132.0675, 55.00869
132.5496, 55.03776
133.0317, 54.44563
133.5138, 53.53517
133.9959, 53.04898
134.4781, 53.27813
134.9602, 53.48950
135.4423, 53.42220
135.9244, 53.22379
136.4065, 53.07707
136.8886, 53.08324
137.3708, 53.24376
137.8529, 53.57514
138.3350, 54.04190
138.8171, 54.73021
139.2992, 55.66879
139.7813, 56.85252
140.2635, 58.25139
140.7456, 59.81358
141.2277, 61.52333
141.7098, 63.75712
142.1919, 66.85706
142.6740, 70.07236
143.1561, 73.51515
143.6383, 76.97712
144.1204, 79.46358
144.6025, 79.89576
145.0846, 77.91891
145.5667, 75.06852
146.0488, 70.53603
146.5310, 65.54210
147.0131, 61.37237
147.4952, 58.28095
147.9773, 55.82716
148.4594, 53.50731
148.9415, 51.31662
149.4237, 49.59345
149.9058, 48.67108
150.3879, 48.32899
150.8700, 47.97218
151.3521, 47.47023
151.8342, 46.98370
152.3164, 46.60878
152.7985, 46.34601
153.2806, 46.19062
153.7627, 46.20626
154.2448, 46.39855
154.7269, 46.47443
155.2091, 46.32909
155.6912, 46.09491
156.1733, 45.76179
156.6554, 45.35712
157.1375, 45.02090
157.6196, 44.97353
158.1018, 45.38067
158.5839, 45.58777
159.0660, 45.45151
159.5481, 45.20737
160.0302, 44.95274
160.5123, 44.72889
160.9945, 44.56853
161.4766, 44.54092
161.9587, 44.81410
162.4408, 44.96971
162.9229, 44.92226
163.4050, 44.80532
163.8871, 44.77672
164.3693, 44.89274
164.8514, 45.03681
165.3335, 44.90988
165.8156, 44.10530
166.2977, 43.59998
166.7798, 43.65061
167.2620, 44.03441
167.7441, 44.42125
168.2262, 44.66703
168.7083, 44.83503
169.1904, 45.09282
169.6725, 45.40649
170.1547, 45.83049
170.6368, 46.48082
171.1189, 47.28379
171.6010, 47.93718
172.0831, 48.13450
172.5652, 48.25655
173.0474, 49.01650
173.5295, 50.57678
174.0116, 52.45016
174.4937, 54.27395
174.9758, 56.05188
175.4579, 57.97942
175.9401, 60.31151
176.4222, 62.76325
176.9043, 65.10853
177.3864, 67.43563
177.8685, 69.36203
178.3506, 70.62875
178.8328, 71.46969
179.3149, 70.70843
179.7970, 66.82000
180.2791, 61.74316
180.7612, 56.91959
181.2433, 52.76981
181.7255, 49.39332
182.2076, 47.05680
182.6897, 46.17527
183.1718, 45.68046
183.6539, 45.34055
184.1360, 45.18362
184.6181, 45.29354
185.1003, 45.72488
185.5824, 46.36311
186.0645, 46.78701
186.5466, 46.62389
187.0287, 46.70720
187.5108, 47.20201
187.9930, 47.98020
188.4751, 48.86549
188.9572, 49.75082
189.4393, 50.67762
189.9214, 51.88461
190.4035, 53.39483
190.8857, 55.15351
191.3678, 56.90295
191.8499, 58.90807
192.3320, 61.61245
192.8141, 65.28960
193.2962, 69.89330
193.7784, 75.23263
194.2605, 80.95637
194.7426, 87.54070
195.2247, 96.28439
195.7068, 106.2484
196.1889, 115.2501
196.6711, 122.6001
197.1532, 127.3838
197.6353, 126.8323
198.1174, 118.9011
198.5995, 108.1832
199.0816, 95.49126
199.5638, 81.31206
200.0459, 68.99831
200.5280, 60.69613
201.0101, 55.85119
201.4922, 51.90499
201.9743, 48.95836
202.4565, 46.68268
202.9386, 44.85710
203.4207, 43.47853
203.9028, 42.48961
204.3849, 42.06345
204.8670, 41.96850
205.3492, 41.89659
205.8313, 41.82192
206.3134, 41.71471
206.7955, 41.51838
207.2776, 41.20967
207.7597, 40.92043
208.2419, 40.74664
208.7240, 40.60934
209.2061, 40.41618
209.6882, 40.10691
210.1703, 39.79185
210.6524, 39.69746
211.1346, 39.93995
211.6167, 40.10299
212.0988, 39.84364
212.5809, 39.53667
213.0630, 39.62821
213.5451, 40.34977
214.0273, 41.33516
214.5094, 41.70374
214.9915, 41.00721
215.4736, 40.48609
215.9557, 40.50346
216.4378, 40.73454
216.9200, 40.84122
217.4021, 40.66918
217.8842, 40.34582
218.3663, 40.22646
218.8484, 40.40100
219.3305, 40.67981
219.8127, 41.23953
220.2948, 41.80464
220.7769, 42.03992
221.2590, 41.79236
221.7411, 41.24765
222.2232, 40.95420
222.7054, 41.12714
223.1875, 41.32331
223.6696, 41.48043
224.1517, 41.65928
224.6338, 41.92142
225.1159, 42.29456
225.5980, 42.77871
226.0802, 43.37957
226.5623, 44.16276
227.0444, 44.98887
227.5265, 45.76006
228.0086, 46.59451
228.4907, 47.54929
228.9729, 48.62785
229.4550, 49.99667
229.9371, 52.10485
230.4192, 54.75381
230.9013, 58.35588
231.3834, 63.10207
231.8656, 68.81325
232.3477, 75.55837
232.8298, 83.54527
233.3119, 91.85036
233.7940, 98.75608
234.2761, 105.4738
234.7583, 108.6206
235.2404, 106.1290
235.7225, 99.68380
236.2046, 91.61424
236.6867, 82.06588
237.1688, 72.61337
237.6510, 66.07085
238.1331, 62.43988
238.6152, 59.96326
239.0973, 58.49699
239.5794, 57.75138
240.0615, 57.10359
240.5437, 56.34338
241.0258, 55.73463
241.5079, 55.67881
241.9900, 56.15070
242.4721, 56.72395
242.9542, 57.16212
243.4364, 57.56641
243.9185, 58.17852
244.4006, 59.01448
244.8827, 60.14436
245.3648, 61.62399
245.8469, 63.42189
246.3290, 65.44605
246.8112, 67.60233
247.2933, 69.93568
247.7754, 72.56540
248.2575, 75.28386
248.7396, 78.74342
249.2217, 82.94290
249.7039, 88.02553
250.1860, 94.69691
250.6681, 103.0659
251.1502, 113.2574
251.6323, 125.6581
252.1144, 139.3200
252.5966, 157.1307
253.0787, 179.6969
253.5608, 206.8362
254.0429, 238.8489
254.5250, 278.0522
255.0071, 322.2121
255.4893, 364.5629
255.9714, 411.0127
256.4535, 444.3904
256.9356, 462.8774
257.4177, 465.2247
257.8998, 447.9221
258.3820, 404.6599
258.8641, 342.3694
259.3462, 284.3174
259.8283, 227.7801
260.3104, 181.2640
260.7925, 147.0303
261.2747, 122.1825
261.7568, 103.5111
262.2389, 89.79954
262.7210, 80.28031
263.2031, 72.68587
263.6852, 67.46835
264.1674, 63.65111
264.6495, 61.41616
265.1316, 60.02715
265.6137, 58.74737
266.0958, 57.25895
266.5779, 55.73135
267.0601, 54.57647
267.5422, 53.91926
268.0243, 53.46084
268.5064, 53.32086
268.9885, 53.23586
269.4706, 52.85097
269.9528, 52.06094
270.4349, 51.26094
270.9170, 51.26626
271.3991, 52.59574
271.8812, 53.73822
272.3633, 54.56249
272.8455, 55.20841
273.3276, 55.73375
273.8097, 56.17253
274.2918, 56.58336
274.7739, 57.02918
275.2560, 57.40248
275.7382, 58.06931
276.2202, 58.90517
276.7024, 60.05310
277.1845, 61.46637
277.6666, 63.21977
278.1487, 65.56652
278.6308, 68.77131
279.1129, 72.73545
279.5951, 78.00870
280.0772, 83.86644
280.5593, 91.35236
281.0414, 100.8739
281.5235, 112.5309
282.0056, 126.3981
282.4878, 142.6565
282.9699, 161.6741
283.4520, 181.2724
283.9341, 205.3726
284.4162, 226.3706
284.8983, 243.6052
285.3805, 255.3888
285.8626, 258.3975
286.3447, 249.5842
286.8268, 229.1458
287.3089, 205.7633
287.7910, 174.7003
288.2732, 146.0493
288.7553, 122.3634
289.2374, 103.3469
289.7195, 88.43053
290.2016, 77.37585
290.6837, 69.85641
291.1659, 64.00451
291.6480, 60.91996
292.1301, 58.24038
292.6122, 55.61492
293.0943, 53.16599
293.5764, 51.08696
294.0586, 49.45592
294.5407, 48.25488
295.0228, 47.43258
295.5049, 47.27687
295.9870, 47.17485
296.4691, 47.06268
296.9513, 47.01310
297.4334, 47.09870
297.9155, 47.34322
298.3976, 47.72766
298.8797, 48.20203
299.3618, 48.57446
299.8440, 49.48906
300.3261, 51.16375
300.8082, 53.22029
301.2903, 55.25697
301.7724, 57.23861
302.2545, 59.60962
302.7367, 62.95387
303.2188, 67.54900
303.7009, 72.14856
304.1830, 77.30386
304.6651, 82.04773
305.1472, 86.28629
305.6294, 89.72507
306.1115, 91.48264
306.5936, 90.75137
307.0757, 87.41090
307.5578, 82.81555
308.0399, 75.95430
308.5221, 69.07666
309.0042, 62.86915
309.4863, 57.42014
309.9684, 52.82331
310.4505, 49.15093
310.9326, 46.38264
311.4148, 44.57980
311.8969, 44.29293
312.3790, 44.15765
312.8611, 43.89606
313.3432, 43.56964
313.8253, 43.32484
314.3075, 43.23918
314.7896, 43.20736
315.2717, 42.95341
315.7538, 42.39293
316.2359, 41.72643
316.7180, 40.66667
317.2001, 39.63997
317.6823, 39.21947
318.1644, 39.55270
318.6465, 40.16463
319.1286, 40.31643
319.6107, 39.61357
320.0928, 39.42115
320.5750, 40.09798
321.0571, 41.01947
321.5392, 41.70311
322.0213, 42.10028
322.5034, 42.44788
322.9855, 42.91705
323.4677, 43.46178
323.9498, 44.70105
324.4319, 46.99165
324.9140, 49.52882
325.3961, 51.75926
325.8782, 53.85476
326.3604, 56.44511
326.8425, 60.00018
327.3246, 64.44691
327.8067, 69.06373
328.2888, 74.26768
328.7709, 79.15405
329.2531, 84.10330
329.7352, 88.45979
330.2173, 91.35681
330.6994, 92.41447
331.1815, 91.54034
331.6636, 88.41557
332.1458, 80.36101
332.6279, 73.27618
333.1100, 67.32719
333.5921, 62.46120
334.0742, 58.69500
334.5563, 56.03893
335.0385, 54.29916
335.5206, 53.30692
336.0027, 53.57227
336.4848, 53.26297
336.9669, 52.22154
337.4490, 50.79854
337.9312, 49.10078
338.4133, 47.20213
338.8954, 45.25564
339.3775, 43.38899
339.8596, 41.59218
340.3417, 39.95831
340.8239, 38.31005
341.3060, 36.97886
341.7881, 36.26126
342.2702, 35.94416
342.7523, 35.59106
343.2344, 34.92082
343.7166, 34.03685
344.1987, 33.45078
344.6808, 33.41816
345.1629, 33.41938
345.6450, 33.45657
346.1271, 33.48725
346.6093, 33.43709
347.0914, 33.28580
347.5735, 33.12838
348.0556, 33.16719
348.5377, 33.63033
349.0198, 33.87201
349.5020, 33.72075
349.9841, 33.50789
350.4662, 33.51182
350.9483, 33.72734
351.4304, 33.90364
351.9125, 33.74508
352.3947, 33.18403
352.8768, 32.74234
353.3589, 32.47703
353.8410, 32.27333
354.3231, 32.08492
354.8052, 31.92824
355.2874, 31.84776
355.7695, 31.87962
356.2516, 32.00748
356.7337, 32.14745
357.2158, 32.39455
357.6979, 32.51335
358.1800, 32.36998
358.6621, 32.12539
359.1443, 31.95732
359.6264, 31.93314
360.1085, 31.98650
360.5906, 31.98401
361.0727, 31.86276
361.5548, 31.85496
362.0370, 32.07858
362.5191, 32.34278
363.0012, 32.54024
363.4833, 32.65863
363.9654, 32.73753
364.4475, 32.81639
364.9297, 32.89669
365.4118, 32.94970
365.8939, 32.94088
366.3760, 32.94182
366.8581, 33.03270
367.3402, 33.15229
367.8224, 33.14330
368.3045, 32.81458
368.7866, 32.37476
369.2687, 32.50937
369.7508, 33.49938
370.2329, 34.45042
370.7151, 34.96237
371.1972, 35.33717
371.6793, 35.90613
372.1614, 36.77882
372.6435, 37.70817
373.1256, 38.30926
373.6078, 38.54140
374.0899, 39.01276
374.5720, 39.89574
375.0541, 41.04576
375.5362, 42.41853
376.0183, 43.98837
376.5005, 45.55259
376.9826, 47.07561
377.4647, 48.50433
377.9468, 49.60674
378.4289, 50.24198
378.9110, 50.82855
379.3932, 51.76479
379.8753, 52.84829
380.3574, 53.67379
380.8395, 54.03793
381.3216, 54.16072
381.8037, 54.22904
382.2859, 54.23869
382.7680, 54.36348
383.2501, 54.49498
383.7322, 54.95150
384.2143, 56.15871
384.6964, 58.22655
385.1786, 60.66407
385.6607, 63.06012
386.1428, 65.59120
386.6249, 68.69739
387.1070, 72.41261
387.5891, 76.87357
388.0713, 82.01162
388.5534, 87.78289
389.0355, 95.63480
389.5176, 105.8061
389.9997, 118.2319
390.4818, 133.2305
390.9640, 150.7654
391.4461, 169.8558
391.9282, 191.0134
392.4103, 212.9917
392.8924, 229.8770
393.3745, 244.8523
393.8567, 251.8781
394.3388, 247.2340
394.8209, 233.0789
395.3030, 212.1041
395.7851, 184.4507
396.2672, 154.4055
396.7494, 129.0645
397.2315, 109.3669
397.7136, 92.94085
398.1957, 80.13299
398.6778, 70.12595
399.1599, 62.72297
399.6420, 57.61459
400.1241, 53.81993
400.6063, 50.54266
401.0884, 47.77324
401.5705, 45.49966
402.0526, 43.84610
402.5347, 42.46693
403.0168, 41.30334
403.4990, 40.33466
403.9811, 39.60105
404.4632, 39.12873
404.9453, 38.78696
405.4274, 38.24568
405.9095, 37.28252
406.3917, 36.50392
406.8738, 36.02750
407.3559, 35.65145
407.8380, 35.17420
408.3201, 34.60939
408.8022, 34.18032
409.2844, 34.17204
409.7665, 34.62853
410.2486, 34.78764
410.7307, 34.26725
411.2128, 33.85493
411.6949, 33.87453
412.1771, 34.13567
412.6592, 34.29154
413.1413, 34.14368
413.6234, 33.89256
414.1055, 34.02749
414.5876, 34.73265
415.0698, 35.26348
415.5519, 35.05494
416.0340, 34.87240
416.5161, 35.30916
416.9982, 36.41529
417.4803, 37.69031
417.9625, 38.72137
418.4446, 39.54747
418.9267, 40.48462
419.4088, 41.61934
419.8909, 42.73820
420.3730, 43.84817
420.8552, 44.83626
421.3373, 45.42934
421.8194, 45.53652
422.3015, 45.21274
422.7836, 44.37446
423.2657, 43.03013
423.7479, 41.75102
424.2300, 40.82104
424.7121, 40.02616
425.1942, 38.95731
425.6763, 37.52209
426.1584, 36.29974
426.6406, 35.66853
427.1227, 35.37300
427.6048, 34.95625
428.0869, 34.32590
428.5690, 33.75642
429.0511, 33.50707
429.5333, 33.59330
430.0154, 33.71189
430.4975, 33.84779
430.9796, 34.02948
431.4617, 34.36936
431.9438, 34.77168
432.4260, 34.94499
432.9081, 34.71645
433.3902, 34.31564
433.8723, 34.28568
434.3544, 34.75925
434.8365, 35.41620
435.3187, 36.35652
435.8008, 37.40375
436.2829, 38.33392
436.7650, 39.17045
437.2471, 40.18553
437.7292, 41.64739
438.2114, 43.57235
438.6935, 45.52163
439.1756, 47.65222
439.6577, 49.63648
440.1398, 51.68576
440.6219, 53.44736
441.1040, 54.44232
441.5862, 54.46802
442.0683, 53.71883
442.5504, 52.42381
443.0325, 50.31544
443.5146, 48.47272
443.9967, 46.54631
444.4789, 45.28777
444.9610, 45.28498
445.4431, 46.38617
445.9252, 47.97132
446.4073, 49.75682
446.8894, 51.64763
447.3716, 53.28050
447.8537, 54.63356
448.3358, 55.77555
448.8179, 56.99380
449.3000, 57.91149
449.7821, 58.05498
450.2643, 57.28529
450.7464, 55.93436
451.2285, 54.04571
451.7106, 51.74058
452.1927, 49.64161
452.6748, 47.81135
453.1570, 46.35789
453.6391, 45.49264
454.1212, 45.12360
454.6033, 44.99201
455.0854, 45.25874
455.5675, 45.57759
456.0497, 45.60622
456.5318, 45.38033
457.0139, 45.19685
457.4960, 45.27089
457.9781, 45.40460
458.4602, 45.03443
458.9424, 44.10176
459.4245, 42.90796
459.9066, 41.28126
460.3887, 39.54539
460.8708, 38.03939
461.3529, 36.80625
461.8351, 35.66589
462.3172, 34.42407
462.7993, 33.07718
463.2814, 31.97867
463.7635, 30.87066
464.2456, 30.28267
464.7278, 30.89755
465.2099, 31.92836
465.6920, 32.20452
466.1741, 31.29210
466.6562, 29.89443
467.1383, 29.21502
467.6205, 29.49786
468.1026, 29.72779
468.5847, 30.05324
469.0668, 30.15313
469.5489, 29.70369
470.0310, 28.88489
470.5132, 28.17973
470.9953, 27.89998
471.4774, 27.91543
471.9595, 27.86769
472.4416, 27.69106
472.9237, 27.69981
473.4059, 28.25151
473.8880, 28.89201
474.3701, 29.22023
474.8522, 29.18773
475.3343, 28.96649
475.8164, 28.45319
476.2986, 27.85259
476.7807, 27.75402
477.2628, 28.30570
477.7449, 28.91465
478.2270, 29.16016
478.7091, 29.08725
479.1913, 28.94127
479.6734, 28.62690
480.1555, 28.36089
480.6376, 28.27318
481.1197, 28.31307
481.6018, 28.41336
482.0839, 28.56201
482.5660, 28.64166
483.0482, 28.45441
483.5303, 27.86060
484.0124, 27.52562
484.4945, 27.62445
484.9766, 27.80076
485.4587, 27.86730
485.9409, 27.85448
486.4230, 27.86497
486.9051, 27.95351
487.3872, 28.12225
487.8693, 28.40129
488.3514, 28.99047
488.8336, 29.30613
489.3157, 29.10233
489.7978, 28.81731
490.2799, 28.74367
490.7620, 28.88350
491.2441, 29.06525
491.7263, 29.15812
492.2084, 29.17873
492.6905, 29.22673
493.1726, 29.36400
493.6547, 29.37917
494.1368, 28.96947
494.6190, 28.49886
495.1011, 28.38104
495.5832, 28.72169
496.0653, 29.14029
496.5474, 29.34508
497.0295, 29.39864
497.5117, 29.48815
497.9938, 29.64494
498.4759, 29.82100
498.9580, 29.98303
499.4401, 30.13286
499.9222, 30.28161
500.4044, 30.41840
500.8865, 30.56617
501.3686, 30.72593
501.8507, 30.90726
502.3328, 31.12339
502.8149, 31.37704
503.2971, 31.69199
503.7792, 32.10358
504.2613, 32.63643
504.7434, 33.20296
505.2255, 33.76983
505.7076, 34.39845
506.1898, 35.28365
506.6719, 36.23641
507.1540, 36.85076
507.6361, 36.90343
508.1182, 36.62322
508.6003, 36.57267
509.0825, 36.94280
509.5646, 37.02798
510.0467, 36.60508
510.5288, 36.01350
511.0109, 35.39647
511.4930, 34.76582
511.9752, 34.07534
512.4573, 33.16462
512.9394, 32.25777
513.4215, 32.00908
513.9036, 32.55986
514.3857, 32.85109
514.8679, 32.27043
515.3500, 31.37343
515.8321, 30.90999
516.3142, 30.94209
516.7963, 30.96856
517.2784, 30.68611
517.7606, 30.31172
518.2427, 30.18808
518.7248, 30.33256
519.2069, 30.48073
519.6890, 30.47760
520.1711, 30.32824
520.6533, 30.04890
521.1354, 29.32074
521.6175, 28.90126
522.0996, 29.21502
522.5817, 29.72369
523.0638, 29.84457
523.5460, 29.51471
524.0281, 29.10118
524.5102, 28.96356
524.9923, 29.09208
525.4744, 29.11926
525.9565, 28.81919
526.4387, 28.72238
526.9208, 29.04533
527.4029, 29.55527
527.8850, 30.02921
528.3671, 30.40639
528.8492, 30.72412
529.3314, 31.03188
529.8135, 31.32202
530.2956, 31.48424
530.7777, 31.39434
531.2598, 31.42176
531.7419, 31.90432
532.2241, 32.63264
532.7062, 33.26602
533.1883, 33.63199
533.6704, 34.11949
534.1525, 35.05196
534.6346, 36.29941
535.1168, 37.50357
535.5989, 38.55970
536.0810, 39.82369
536.5631, 41.64723
537.0452, 44.06821
537.5273, 46.72685
538.0095, 49.85347
538.4916, 52.94630
538.9737, 56.00050
539.4558, 58.85747
539.9379, 61.42317
540.4200, 63.63198
540.9022, 65.24681
541.3843, 65.97511
541.8664, 65.86502
542.3485, 64.58250
542.8306, 61.28450
543.3127, 57.66869
543.7948, 53.96821
544.2769, 50.38383
544.7590, 47.18225
545.2411, 44.45839
545.7233, 42.09109
546.2054, 39.91895
546.6875, 37.95245
547.1696, 36.51900
547.6517, 35.81598
548.1339, 35.37391
548.6160, 34.85874
549.0981, 34.29774
549.5802, 33.75869
550.0623, 33.21683
550.5444, 32.74300
551.0266, 32.39738
551.5087, 32.15168
551.9908, 31.91856
552.4729, 31.66804
552.9550, 31.50030
553.4371, 31.54879
553.9193, 31.84803
554.4014, 32.17081
554.8835, 32.62377
555.3656, 32.98021
555.8477, 33.15572
556.3298, 33.18556
556.8120, 33.02048
557.2941, 32.66377
557.7762, 32.43642
558.2583, 32.95019
558.7404, 34.35236
559.2225, 35.21105
559.7047, 35.07106
560.1868, 34.91321
560.6689, 35.17883
561.1510, 35.73934
561.6331, 36.38577
562.1152, 37.06262
562.5974, 37.78652
563.0795, 38.54044
563.5616, 39.34944
564.0437, 40.29737
564.5258, 41.40129
565.0079, 42.65066
565.4901, 43.93963
565.9722, 45.32916
566.4543, 47.37490
566.9364, 50.44747
567.4185, 53.74157
567.9006, 56.93470
568.3828, 60.16636
568.8649, 63.75927
569.3470, 67.73737
569.8291, 71.83098
570.3112, 75.85049
570.7933, 79.89915
571.2755, 82.25294
571.7576, 82.20485
572.2397, 81.22813
572.7218, 79.48594
573.2039, 77.13956
573.6860, 74.21056
574.1682, 70.71284
574.6503, 67.13010
575.1324, 63.78833
575.6145, 60.72065
576.0966, 58.04217
576.5787, 55.72538
577.0609, 53.95900
577.5430, 53.09739
578.0251, 52.83578
578.5072, 52.35809
578.9893, 51.40357
579.4714, 50.78626
579.9536, 51.17605
580.4357, 51.88592
580.9178, 52.14331
581.3999, 51.83314
581.8820, 51.10702
582.3641, 50.05127
582.8463, 48.69913
583.3284, 47.23943
583.8105, 45.74231
584.2926, 44.00898
584.7747, 41.67070
585.2568, 39.36366
585.7390, 37.56310
586.2211, 36.27943
586.7032, 35.24788
587.1853, 34.29993
587.6674, 33.45372
588.1495, 32.80231
588.6317, 32.37642
589.1138, 31.92850
589.5959, 31.21411
590.0780, 30.60792
590.5601, 30.65979
591.0422, 31.35575
591.5244, 31.82693
592.0065, 31.56931
592.4886, 31.16163
592.9707, 31.11374
593.4528, 31.37427
593.9349, 31.69667
594.4171, 31.97312
594.8992, 32.25000
595.3813, 32.60465
595.8634, 33.02528
596.3455, 33.57016
596.8276, 34.25281
597.3098, 35.02500
597.7919, 35.88423
598.2740, 36.81721
598.7561, 37.88046
599.2382, 39.11242
599.7203, 40.22002
600.2025, 40.78082
600.6846, 40.80818
601.1667, 40.76263
601.6488, 40.83182
602.1309, 40.54493
602.6130, 39.24596
603.0952, 37.39910
603.5773, 35.97939
604.0594, 35.30328
604.5415, 34.68991
605.0236, 33.70903
605.5057, 32.59579
605.9879, 31.74052
606.4700, 31.19365
606.9521, 30.71376
607.4342, 30.09247
607.9163, 29.36949
608.3984, 28.84382
608.8806, 28.76103
609.3627, 28.54197
609.8448, 27.95657
610.3269, 27.35683
610.8090, 27.05192
611.2911, 27.02096
611.7733, 27.00233
612.2554, 26.78105
612.7375, 26.48045
613.2196, 26.43989
613.7017, 26.69538
614.1838, 26.82068
614.6660, 26.65095
615.1481, 26.34353
615.6302, 26.05003
616.1123, 25.77026
616.5944, 25.54587
617.0765, 25.40189
617.5587, 25.30029
618.0408, 25.21639
618.5229, 25.15544
619.0050, 25.12907
619.4871, 25.14145
619.9692, 25.19237
620.4514, 25.28074
620.9335, 25.40601
621.4156, 25.57827
621.8977, 25.95020
622.3798, 26.18269
622.8619, 26.03030
623.3441, 25.77290
623.8262, 25.74354
624.3083, 26.01824
624.7904, 26.39189
625.2725, 26.84845
625.7546, 27.25415
626.2367, 27.09463
626.7188, 26.28143
627.2009, 25.66574
627.6830, 25.77946
628.1652, 26.29577
628.6473, 26.43917
629.1294, 26.07013
629.6115, 25.84982
630.0936, 25.99773
630.5757, 26.22013
631.0579, 26.23091
631.5400, 26.13447
632.0221, 26.27615
632.5042, 26.83727
632.9863, 27.57268
633.4684, 27.98545
633.9506, 27.97660
634.4327, 28.14814
634.9148, 28.61760
635.3969, 29.16402
635.8790, 29.73691
636.3611, 30.28952
636.8433, 30.71030
637.3254, 30.90545
637.8075, 31.17447
638.2896, 31.82950
638.7717, 32.67934
639.2538, 33.32988
639.7360, 33.73113
640.2181, 34.16205
640.7002, 34.84105
641.1823, 35.68424
641.6644, 36.35695
642.1465, 36.87510
642.6287, 37.17629
643.1108, 37.10156
643.5929, 36.94699
644.0750, 36.94860
644.5571, 37.04650
645.0392, 37.05087
645.5214, 36.88437
646.0035, 36.48100
646.4856, 35.59122
646.9677, 34.21802
647.4498, 33.13265
647.9319, 32.54029
648.4141, 32.11983
648.8962, 31.63252
649.3783, 31.10406
649.8604, 30.64488
650.3425, 30.17061
650.8246, 29.89279
651.3068, 30.10615
651.7889, 30.45257
652.2710, 30.48223
652.7531, 30.15001
653.2352, 29.66550
653.7173, 29.16397
654.1995, 28.68871
654.6816, 28.42894
655.1637, 28.45117
655.6458, 28.53214
656.1279, 28.62995
656.6100, 28.78793
657.0922, 29.03901
657.5743, 29.37549
658.0564, 29.77434
658.5385, 30.30081
659.0206, 30.78448
659.5027, 30.96206
659.9849, 30.96671
660.4670, 31.21283
660.9491, 31.80022
661.4312, 32.47952
661.9133, 33.05693
662.3954, 33.52717
662.8776, 33.80365
663.3597, 33.91481
663.8418, 33.78510
664.3239, 33.34737
664.8060, 32.70961
665.2881, 31.84708
665.7703, 30.84792
666.2524, 29.97125
666.7345, 29.40319
667.2166, 29.00945
667.6987, 28.54029
668.1808, 27.99821
668.6630, 27.45758
669.1451, 26.90050
669.6272, 26.44079
670.1093, 26.23703
670.5914, 26.26757
671.0735, 26.22241
671.5557, 26.08595
672.0378, 25.88638
672.5199, 25.56640
673.0020, 25.22775
673.4841, 24.97509
673.9662, 24.82331
674.4484, 24.74490
674.9305, 24.74072
675.4126, 24.75784
675.8947, 24.61028
676.3768, 24.27006
676.8589, 23.87239
677.3411, 23.27402
677.8232, 22.82106
678.3053, 22.89035
678.7874, 23.34044
679.2695, 23.65786
679.7516, 23.71678
680.2338, 23.62703
680.7159, 23.32024
681.1980, 22.95737
681.6801, 22.81578
682.1622, 22.92732
682.6443, 23.09825
683.1265, 23.16728
683.6086, 23.16866
684.0907, 23.29961
684.5728, 23.74116
685.0549, 23.91430
685.5370, 23.44345
686.0192, 22.94576
686.5013, 22.80156
686.9834, 22.92558
687.4655, 23.01251
687.9476, 22.90326
688.4297, 22.80545
688.9119, 22.99001
689.3940, 23.31204
689.8761, 23.40792
690.3582, 23.21792
690.8403, 22.96112
691.3224, 22.79101
691.8046, 22.70575
692.2867, 22.69874
692.7688, 22.87229
693.2509, 22.95910
693.7330, 22.93197
694.2151, 22.83720
694.6973, 22.65207
695.1794, 22.42573
695.6615, 22.24704
696.1436, 22.13563
696.6257, 22.14807
697.1078, 22.47641
697.5900, 22.98831
698.0721, 23.16507
698.5542, 22.91109
699.0363, 22.65564
699.5184, 22.69414
700.0005, 22.94684
700.4827, 23.13596
700.9648, 23.23059
701.4469, 23.30765
701.9290, 23.42417
702.4111, 23.47048
702.8932, 23.26419
703.3754, 22.95905
703.8575, 22.90285
704.3396, 23.25494
704.8217, 23.67187
705.3038, 23.72364
705.7859, 23.47488
706.2681, 23.18564
706.7502, 22.84840
707.2323, 22.69695
707.7144, 22.94675
708.1965, 23.39390
708.6786, 23.54610
709.1607, 23.26261
709.6428, 23.11426
710.1249, 23.27090
710.6071, 23.43951
711.0892, 23.46795
711.5713, 23.38838
712.0534, 23.25367
712.5355, 23.08616
713.0176, 22.93842
713.4998, 22.86923
713.9819, 22.87089
714.4640, 22.85102
714.9461, 22.76541
715.4282, 22.97989
715.9103, 23.85158
716.3925, 24.87720
716.8746, 25.23923
717.3567, 24.87699
717.8388, 24.50180
718.3209, 24.05389
718.8030, 23.73413
719.2852, 23.70997
719.7673, 23.83859
720.2494, 23.92414
720.7315, 23.92345
721.2136, 23.92502
721.6957, 24.01061
722.1779, 24.16245
722.6600, 24.35123
723.1421, 24.59900
723.6242, 24.68521
724.1063, 24.48423
724.5884, 24.19605
725.0706, 23.97843
725.5527, 23.84006
726.0348, 23.91381
726.5169, 24.45139
726.9990, 24.90132
727.4811, 25.02917
727.9633, 25.00921
728.4454, 24.99109
728.9275, 25.01258
729.4096, 25.07314
729.8917, 25.16578
730.3738, 25.39029
730.8560, 25.59095
731.3381, 25.99956
731.8202, 26.41998
732.3023, 26.88491
732.7844, 27.22955
733.2665, 27.26867
733.7487, 27.08977
734.2308, 27.02107
734.7129, 26.96095
735.1950, 27.19888
735.6771, 28.13094
736.1592, 29.09994
736.6414, 29.49825
737.1235, 29.50613
737.6056, 29.67407
738.0877, 30.25518
738.5698, 31.01943
739.0519, 31.62494
739.5341, 32.10462
740.0162, 32.78540
740.4983, 33.70487
740.9804, 34.70702
741.4625, 35.69788
741.9446, 36.73846
742.4268, 38.03927
742.9089, 39.74966
743.3910, 40.95392
743.8731, 41.41597
744.3552, 41.53118
744.8373, 41.28665
745.3195, 40.90461
745.8016, 40.74224
746.2837, 40.83813
746.7658, 40.79462
747.2479, 40.19977
747.7300, 39.23644
748.2122, 38.40985
748.6943, 37.72156
749.1764, 36.92810
749.6585, 35.87322
750.1406, 34.92086
750.6227, 34.42622
751.1049, 34.39063
751.5870, 34.58496
752.0691, 35.27889
752.5512, 35.81884
753.0333, 36.00532
753.5154, 36.06055
753.9976, 36.17934
754.4797, 36.34108
754.9618, 36.42057
755.4439, 36.36269
755.9260, 36.16300
756.4081, 35.84079
756.8903, 35.37517
757.3724, 34.63044
757.8545, 33.57346
758.3366, 32.49348
758.8187, 31.52790
759.3008, 30.71292
759.7830, 30.15205
760.2651, 30.00657
760.7472, 29.73267
761.2293, 29.23237
761.7114, 28.72416
762.1935, 28.29782
762.6757, 27.91696
763.1578, 27.51446
763.6399, 27.07862
764.1220, 26.67696
764.6041, 26.28963
765.0862, 26.00502
765.5684, 26.02979
766.0505, 26.30135
766.5326, 26.54235
767.0147, 26.67075
767.4968, 26.61927
767.9789, 26.25340
768.4611, 25.60052
768.9432, 25.38895
769.4253, 25.97674
769.9074, 26.39280
770.3895, 26.33504
770.8716, 26.20205
771.3538, 26.29664
771.8359, 26.54271
772.3180, 26.64157
772.8001, 26.41204
773.2822, 26.19203
773.7643, 26.19527
774.2465, 26.35937
774.7286, 26.67905
775.2107, 27.09226
775.6928, 27.33145
776.1749, 27.23285
776.6570, 27.02306
777.1392, 27.16552
777.6213, 27.71913
778.1034, 28.21467
778.5855, 28.69666
779.0676, 29.01820
779.5497, 28.82836
780.0319, 28.61477
780.5140, 29.11528
780.9961, 30.40721
781.4782, 31.45296
781.9603, 31.84350
782.4424, 32.08960
782.9246, 32.34095
783.4067, 32.70425
783.8888, 33.34565
784.3709, 34.26965
784.8530, 35.30955
785.3351, 36.35439
785.8173, 37.38744
786.2994, 38.40392
786.7815, 39.40059
787.2636, 40.11668
787.7457, 40.43615
788.2278, 40.69706
788.7100, 41.18250
789.1921, 41.80371
789.6742, 42.19556
790.1563, 42.25667
790.6384, 42.29000
791.1205, 42.40563
791.6026, 42.40289
792.0847, 42.10368
792.5668, 41.63221
793.0490, 41.12434
793.5311, 40.62921
794.0132, 40.37293
794.4953, 40.76667
794.9774, 41.41277
795.4595, 41.48594
795.9417, 41.09698
796.4238, 40.96907
796.9059, 41.33958
797.3880, 42.03625
797.8701, 42.93133
798.3522, 43.99735
798.8344, 44.69309
799.3165, 44.74670
799.7986, 44.95630
800.2807, 45.69360
800.7628, 46.39757
801.2449, 46.73558
801.7271, 46.77035
802.2092, 46.69773
802.6913, 46.57481
803.1734, 46.32221
803.6555, 45.83281
804.1376, 45.24291
804.6198, 44.79449
805.1019, 44.38157
805.5840, 43.60038
806.0661, 42.28826
806.5482, 40.83611
807.0303, 39.81009
807.5125, 39.14921
807.9946, 38.24377
808.4767, 37.02023
808.9588, 35.95321
809.4409, 35.24486
809.9230, 34.68867
810.4052, 34.04570
810.8873, 33.31794
811.3694, 32.72913
811.8515, 32.29386
812.3336, 31.97662
812.8157, 31.99646
813.2979, 31.94592
813.7800, 31.30233
814.2621, 30.31724
814.7442, 29.77758
815.2263, 30.09869
815.7084, 30.50058
816.1906, 30.12820
816.6727, 29.32278
817.1548, 28.75954
817.6369, 28.47156
818.1190, 28.28398
818.6011, 28.12235
819.0833, 27.99697
819.5654, 27.92645
820.0475, 27.91238
820.5296, 27.90863
821.0117, 27.94284
821.4938, 27.92738
821.9760, 27.73458
822.4581, 27.57681
822.9402, 27.76965
823.4223, 28.18629
823.9044, 28.21751
824.3865, 27.41274
824.8687, 26.71621
825.3508, 26.48491
825.8329, 26.53289
826.3150, 26.81589
826.7971, 27.20737
827.2792, 27.43802
827.7614, 27.38793
828.2435, 27.24937
828.7256, 27.30515
829.2077, 27.47049
829.6898, 27.35471
830.1719, 26.95009
830.6541, 26.69683
831.1362, 26.78649
831.6183, 26.98031
832.1004, 26.98169
832.5825, 26.79498
833.0646, 26.75949
833.5468, 27.04284
834.0289, 27.21613
834.5110, 27.25704
834.9931, 27.15386
835.4752, 26.71074
835.9573, 26.13821
836.4395, 25.97862
836.9216, 26.49123
837.4037, 27.01299
837.8858, 27.18757
838.3679, 27.20458
838.8500, 27.25556
839.3322, 27.32117
839.8143, 27.28035
840.2964, 27.10279
840.7785, 26.93986
841.2606, 26.94213
841.7427, 27.10129
842.2249, 27.46215
842.7070, 28.03997
843.1891, 28.38548
843.6712, 28.34414
844.1533, 28.18175
844.6354, 28.09780
845.1176, 28.08685
845.5997, 28.12579
846.0818, 28.30746
846.5639, 28.38948
847.0460, 28.35731
847.5281, 28.24541
848.0103, 27.92221
848.4924, 27.59368
848.9745, 27.59733
849.4566, 27.99885
849.9387, 28.42180
850.4208, 28.67834
850.9030, 28.86647
851.3851, 29.14804
851.8672, 29.40712
852.3493, 29.32352
852.8314, 28.90502
853.3135, 28.57267
853.7957, 28.63933
854.2778, 29.02479
854.7599, 29.65234
855.2420, 30.51333
855.7241, 31.06306
856.2062, 31.17812
856.6884, 31.29948
857.1705, 31.66357
857.6526, 32.17537
858.1347, 32.67410
858.6168, 33.16636
859.0989, 33.60837
859.5811, 33.85929
860.0632, 34.24214
860.5453, 34.95502
861.0274, 35.73788
861.5095, 36.26463
861.9916, 36.62414
862.4738, 37.26003
862.9559, 38.35705
863.4380, 39.72017
863.9201, 41.41289
864.4022, 43.17426
864.8843, 44.54395
865.3665, 45.67834
865.8486, 47.11094
866.3307, 49.06406
866.8128, 51.30658
867.2949, 53.57318
867.7770, 55.87352
868.2592, 58.28703
868.7413, 60.81091
869.2234, 63.33135
869.7055, 65.78165
870.1876, 68.39168
870.6697, 71.29881
871.1519, 74.54587
871.6340, 78.34042
872.1161, 82.60638
872.5981, 87.56699
873.0803, 93.03537
873.5624, 99.39750
874.0445, 106.7341
874.5266, 115.0880
875.0087, 124.5734
875.4908, 135.1405
875.9730, 147.0669
876.4551, 160.8625
876.9372, 175.5087
877.4193, 191.3246
877.9014, 207.0833
878.3835, 221.9496
878.8657, 235.2567
879.3478, 246.0078
879.8299, 253.9643
880.3120, 257.6199
880.7941, 254.3654
881.2762, 245.1500
881.7584, 232.2958
882.2405, 216.2435
882.7226, 198.9173
883.2047, 181.0026
883.6868, 163.8210
884.1689, 149.2734
884.6511, 137.2884
885.1332, 126.5046
885.6153, 116.7123
886.0974, 108.7078
886.5795, 102.9463
887.0616, 98.59231
887.5438, 95.30302
888.0259, 92.89121
888.5080, 90.75671
888.9901, 88.86446
889.4722, 87.30270
889.9543, 86.35734
890.4365, 85.43852
890.9186, 84.30202
891.4007, 82.97018
891.8828, 81.42558
892.3649, 79.70844
892.8470, 78.10133
893.3292, 76.64116
893.8113, 75.50956
894.2934, 75.06080
894.7755, 74.98933
895.2576, 74.61709
895.7397, 74.02636
896.2219, 73.90076
896.7040, 74.59115
897.1861, 76.09068
897.6682, 78.62621
898.1503, 82.04876
898.6324, 85.11114
899.1146, 87.74269
899.5967, 90.90258
900.0788, 94.81930
900.5609, 99.67577
901.0430, 105.7899
901.5251, 112.9818
902.0073, 120.0807
902.4894, 126.6653
902.9715, 134.0955
903.4536, 142.9598
903.9357, 152.0967
904.4178, 161.4783
904.9000, 170.5453
905.3821, 178.7971
905.8642, 186.2277
906.3463, 191.3525
906.8284, 193.6391
907.3105, 193.7188
907.7927, 191.8957
908.2748, 187.9667
908.7569, 181.1277
909.2390, 171.9683
909.7211, 162.0170
910.2032, 151.8687
910.6854, 141.7976
911.1675, 131.7751
911.6496, 122.0873
912.1317, 113.1345
912.6138, 105.0001
913.0959, 97.84609
913.5781, 91.68704
914.0602, 86.03671
914.5423, 80.35833
915.0244, 74.91289
915.5065, 70.45421
915.9886, 66.98167
916.4708, 63.85347
916.9529, 60.98487
917.4350, 58.35626
917.9171, 55.93706
918.3992, 53.75364
918.8813, 51.88942
919.3635, 50.39245
919.8456, 48.72001
920.3277, 46.49773
920.8098, 44.71620
921.2919, 43.92577
921.7740, 43.34061
922.2562, 42.31597
922.7383, 41.06432
923.2204, 40.30128
923.7025, 40.43370
924.1846, 40.21459
924.6667, 38.96259
925.1489, 37.66834
925.6310, 36.97357
926.1131, 36.58803
926.5952, 36.08695
927.0773, 35.40870
927.5594, 34.74170
928.0416, 34.18837
928.5237, 33.69447
929.0058, 33.20333
929.4879, 32.73716
929.9700, 32.35789
930.4521, 32.03735
930.9343, 31.62632
931.4164, 31.07006
931.8985, 30.60789
932.3806, 30.65000
932.8627, 30.96104
933.3448, 30.71653
933.8270, 29.96538
934.3091, 29.18139
934.7912, 28.45561
935.2733, 27.98481
935.7554, 27.95905
936.2375, 28.15716
936.7197, 27.99563
937.2018, 27.34934
937.6839, 27.10731
938.1660, 27.49945
938.6481, 27.70519
939.1302, 27.36307
939.6124, 26.84022
940.0945, 26.49599
940.5766, 26.31226
941.0587, 26.11567
941.5408, 25.76951
942.0229, 25.61794
942.5051, 25.80712
942.9872, 26.05062
943.4693, 26.31434
943.9514, 26.49284
944.4335, 26.37892
944.9156, 25.96670
945.3978, 25.69299
945.8799, 25.84428
946.3620, 26.00138
946.8441, 25.92099
947.3262, 25.76375
947.8083, 25.69121
948.2905, 25.69131
948.7726, 25.68927
949.2547, 25.65802
949.7368, 25.58836
950.2189, 25.46253
950.7010, 25.30119
951.1832, 25.08846
951.6653, 24.87150
952.1474, 24.76212
952.6295, 24.77627
953.1116, 24.86456
953.5938, 24.99976
954.0759, 25.16263
954.5580, 25.30688
955.0400, 25.44781
955.5222, 25.72239
956.0043, 26.12835
956.4864, 26.29261
956.9685, 26.05832
957.4506, 25.91040
957.9327, 26.36713
958.4149, 27.24399
958.8970, 27.69466
959.3791, 27.58545
959.8612, 27.76774
960.3433, 28.43740
960.8254, 29.03149
961.3076, 29.28390
961.7897, 29.32660
962.2718, 29.25680
962.7539, 29.06448
963.2360, 29.26928
963.7181, 30.06132
964.2003, 30.96066
964.6824, 31.99868
965.1645, 33.04782
965.6466, 34.03169
966.1287, 34.99110
966.6108, 35.94794
967.0930, 36.88208
967.5751, 38.07487
968.0572, 39.74087
968.5393, 41.48279
969.0214, 43.33572
969.5035, 45.03385
969.9857, 46.26494
970.4678, 47.13836
970.9499, 48.00797
971.4320, 49.01035
971.9141, 49.78180
972.3962, 50.25898
972.8784, 50.27050
973.3605, 49.39026
973.8426, 48.07333
974.3247, 47.09893
974.8068, 46.47141
975.2889, 45.55593
975.7711, 43.96376
976.2532, 42.20839
976.7353, 40.83558
977.2174, 39.70922
977.6995, 38.56773
978.1816, 37.42763
978.6638, 36.51350
979.1459, 35.83681
979.6280, 34.93987
980.1101, 33.39865
980.5922, 31.59151
981.0743, 30.30625
981.5565, 29.49117
982.0386, 28.89821
982.5207, 28.50091
983.0028, 27.95784
983.4849, 27.12542
983.9670, 26.22613
984.4492, 25.47876
984.9313, 24.89673
985.4134, 24.57945
985.8955, 24.57105
986.3776, 24.51269
986.8597, 24.38798
987.3419, 24.11170
987.8240, 23.55662
988.3061, 22.99091
988.7882, 22.82577
989.2703, 23.05890
989.7524, 23.15748
990.2346, 23.09858
990.7167, 22.94720
991.1988, 22.61193
991.6809, 22.32462
992.1630, 22.22182
992.6451, 22.24630
993.1273, 22.31864
993.6094, 22.45330
994.0915, 22.52979
994.5736, 22.64522
995.0557, 22.56518
995.5378, 22.00809
996.0200, 21.47351
996.5021, 21.36063
996.9842, 21.49260
997.4663, 21.47896
997.9484, 21.23790
998.4305, 21.08519
998.9127, 21.15683
999.3948, 21.26055
999.8769, 21.30944
1000.359, 21.35746
1000.841, 21.48267
1001.323, 21.64853
1001.805, 21.73807
1002.287, 21.70379
1002.770, 21.70083
1003.252, 21.91727
1003.734, 22.07773
1004.216, 21.90287
1004.698, 21.59814
1005.180, 21.41702
1005.662, 21.38313
1006.144, 21.41917
1006.627, 21.49502
1007.109, 21.61085
1007.591, 21.76624
1008.073, 21.96126
1008.555, 22.32165
1009.037, 22.67517
1009.519, 22.60494
1010.001, 22.13374
1010.483, 21.71756
1010.966, 21.61736
1011.448, 21.67761
1011.930, 21.78230
1012.412, 21.88407
1012.894, 21.83472
1013.376, 21.70071
1013.858, 21.73726
1014.340, 21.98211
1014.823, 22.20976
1015.305, 22.24963
1015.787, 22.25923
1016.269, 22.59351
1016.751, 22.61569
1017.233, 23.20707
1017.715, 22.92026
1018.197, 22.80323
1018.679, 23.01332
1019.162, 23.49637
1019.644, 24.27098
1020.126, 25.06545
1020.608, 25.18513
1021.090, 24.68682
1021.572, 24.34608
1022.054, 24.19607
1022.536, 24.14660
1023.018, 24.18387
1023.501, 24.17539
1023.983, 23.98309
1024.465, 23.97059
1024.947, 23.86074
1025.429, 23.70648
1025.911, 23.65553
1026.393, 23.37402
1026.875, 23.21936
1027.358, 23.38697
1027.840, 23.46946
1028.322, 23.01724
1028.804, 22.19943
1029.286, 21.71100
1029.768, 21.56675
1030.250, 21.76086
1030.732, 22.55915
1031.214, 22.90639
1031.697, 22.15927
1032.179, 21.30234
1032.661, 21.38480
1033.143, 22.19959
1033.625, 22.69971
1034.107, 22.80298
1034.589, 22.77655
1035.071, 22.43165
1035.553, 22.31886
1036.036, 22.83050
1036.518, 23.42562
1037.000, 23.49415
1037.482, 23.15104
1037.964, 23.07578
1038.446, 23.46032
1038.928, 23.73343
1039.410, 23.71344
1039.893, 23.82727
1040.375, 24.34308
1040.857, 24.95603
1041.339, 25.34302
1041.821, 25.55611
1042.303, 25.87500
1042.785, 26.42165
1043.267, 26.84823
1043.750, 26.88937
1044.232, 27.12100
1044.714, 27.92736
1045.196, 28.87366
1045.678, 29.49499
1046.160, 29.86408
1046.642, 30.39823
1047.124, 31.19110
1047.606, 32.02246
1048.089, 32.96898
1048.571, 33.81736
1049.053, 34.29576
1049.535, 34.78368
1050.017, 35.67454
1050.499, 36.91602
1050.981, 38.22162
1051.463, 39.51009
1051.945, 40.94560
1052.428, 42.55349
1052.910, 44.33035
1053.392, 46.23779
1053.874, 48.34392
1054.356, 51.00201
1054.838, 53.92421
1055.320, 56.07179
1055.802, 56.99203
1056.285, 57.99191
1056.767, 59.89564
1057.249, 61.41618
1057.731, 62.02233
1058.213, 61.85773
1058.695, 60.94769
1059.177, 59.43754
1059.659, 57.61812
1060.141, 55.48310
1060.624, 53.38203
1061.106, 51.64666
1061.588, 49.70866
1062.070, 47.14474
1062.552, 44.33016
1063.034, 41.41835
1063.516, 38.63286
1063.998, 36.45729
1064.480, 35.05259
1064.963, 33.81971
1065.445, 32.53791
1065.927, 31.34611
1066.409, 30.27653
1066.891, 29.36445
1067.373, 28.77604
1067.855, 28.34660
1068.337, 27.59145
1068.820, 26.35904
1069.302, 25.55828
1069.784, 26.06033
1070.266, 26.48789
1070.748, 26.01299
1071.230, 25.22712
1071.712, 24.51805
1072.194, 23.99713
1072.677, 23.79863
1073.159, 23.94440
1073.641, 24.11977
1074.123, 24.38673
1074.605, 24.39573
1075.087, 23.77431
1075.569, 22.99743
1076.051, 22.34356
1076.533, 21.89944
1077.016, 21.81907
1077.498, 22.09304
1077.980, 22.30970
1078.462, 22.22675
1078.944, 22.15032
1079.426, 22.22548
1079.908, 22.36976
1080.390, 22.52698
1080.872, 22.70184
1081.354, 22.98791
1081.837, 23.34600
1082.319, 23.43528
1082.801, 22.93567
1083.283, 22.52219
1083.765, 22.60901
1084.247, 22.79344
1084.729, 22.73929
1085.211, 22.62408
1085.694, 22.72299
1086.176, 23.03397
1086.658, 23.34873
1087.140, 23.57177
1087.622, 23.86973
1088.104, 24.55815
1088.586, 25.07298
1089.068, 24.82207
1089.551, 24.36429
1090.033, 24.40393
1090.515, 24.85549
1090.997, 25.17694
1091.479, 25.20942
1091.961, 25.17805
1092.443, 25.09912
1092.925, 25.06142
1093.407, 24.98431
1093.890, 25.07667
1094.372, 25.71461
1094.854, 26.64970
1095.336, 27.24672
1095.818, 27.34349
1096.300, 27.41866
1096.782, 27.59165
1097.264, 27.81280
1097.746, 28.06701
1098.229, 28.35950
1098.711, 28.74173
1099.193, 29.14680
1099.675, 29.36776
1100.157, 29.37819
1100.639, 29.76892
1101.121, 31.03083
1101.603, 32.19497
1102.086, 33.06905
1102.568, 33.69920
1103.050, 33.94625
1103.532, 34.06277
1104.014, 34.32101
1104.496, 34.76091
1104.978, 35.49324
1105.460, 36.89734
1105.943, 37.98515
1106.425, 38.26592
1106.907, 38.61003
1107.389, 39.48280
1107.871, 40.55880
1108.353, 41.55291
1108.835, 42.43806
1109.317, 43.12970
1109.799, 43.39733
1110.281, 44.03078
1110.764, 45.40667
1111.246, 46.72492
1111.728, 47.71069
1112.210, 48.60377
1112.692, 49.65199
1113.174, 50.42222
1113.656, 51.52641
1114.138, 51.93223
1114.621, 52.44361
1115.103, 53.06359
1115.585, 53.79260
1116.067, 54.85879
1116.549, 55.72499
1117.031, 55.94380
1117.513, 55.87957
1117.995, 56.13850
1118.478, 56.72447
1118.960, 57.17009
1119.442, 57.52417
1119.924, 57.60770
1120.406, 57.32377
1120.888, 56.95583
1121.370, 56.72905
1121.852, 56.28750
1122.334, 55.10274
1122.817, 53.37651
1123.299, 52.25846
1123.781, 51.93768
1124.263, 51.41694
1124.745, 50.62426
1125.227, 49.83158
1125.709, 49.18111
1126.191, 48.33510
1126.673, 46.93860
1127.156, 45.29594
1127.638, 44.18621
1128.120, 43.63760
1128.602, 42.87981
1129.084, 41.88239
1129.566, 41.09161
1130.048, 40.64354
1130.530, 39.96584
1131.013, 38.68806
1131.495, 37.22381
1131.977, 36.20758
1132.459, 35.53191
1132.941, 34.62310
1133.423, 33.50710
1133.905, 32.63329
1134.387, 32.04763
1134.870, 31.65555
1135.352, 31.41970
1135.834, 31.09274
1136.316, 30.41006
1136.798, 29.55393
1137.280, 28.90231
1137.762, 28.40882
1138.244, 27.91749
1138.726, 27.42387
1139.208, 26.94276
1139.691, 26.48634
1140.173, 26.13721
1140.655, 25.95354
1141.137, 25.80426
1141.619, 25.50144
1142.101, 25.13349
1142.583, 24.86753
1143.065, 24.65947
1143.548, 24.40921
1144.030, 24.10800
1144.512, 23.77393
1144.994, 23.41688
1145.476, 23.10642
1145.958, 22.92764
1146.440, 22.78243
1146.922, 22.58694
1147.405, 22.35494
1147.887, 22.06517
1148.369, 21.76708
1148.851, 21.58988
1149.333, 21.52637
1149.815, 21.36286
1150.297, 20.91673
1150.779, 20.57673
1151.261, 20.67046
1151.744, 20.84421
1152.226, 20.83864
1152.708, 20.76521
1153.190, 20.84593
1153.672, 20.98760
1154.154, 20.81711
1154.636, 20.18139
1155.118, 19.73051
1155.600, 19.85440
1156.083, 19.92111
1156.565, 19.74225
1157.047, 19.40009
1157.529, 18.68643
1158.011, 17.98579
1158.493, 18.03401
1158.975, 18.84422
1159.457, 19.29348
1159.940, 19.13855
1160.422, 18.90254
1160.904, 18.36262
1161.386, 18.10485
1161.868, 18.59429
1162.350, 19.12663
1162.832, 19.01272
1163.314, 18.46393
1163.796, 18.14274
1164.279, 18.10046
1164.761, 17.99833
1165.243, 17.80796
1165.725, 17.64460
1166.207, 17.49938
1166.689, 17.51775
1167.171, 17.84030
1167.653, 18.19357
1168.135, 18.15307
1168.618, 18.27865
1169.100, 18.25877
1169.582, 18.07892
1170.064, 18.06204
1170.546, 17.70207
1171.028, 17.53224
1171.510, 17.72968
1171.992, 17.86742
1172.474, 17.58221
1172.957, 17.13715
1173.439, 17.00468
1173.921, 17.07681
1174.403, 16.98169
1174.885, 16.80962
1175.367, 16.99192
1175.849, 17.48071
1176.331, 17.66119
1176.814, 17.27856
1177.296, 16.84194
1177.778, 16.84144
1178.260, 16.96498
1178.742, 16.82374
1179.224, 16.60230
1179.706, 16.49957
1180.188, 16.54078
1180.671, 16.80659
1181.153, 17.24104
1181.635, 17.53671
1182.117, 17.54130
1182.599, 17.45730
1183.081, 17.40792
1183.563, 17.28575
1184.045, 16.91067
1184.527, 16.52741
1185.010, 16.38486
1185.492, 16.42622
1185.974, 16.52018
1186.456, 16.65919
1186.938, 16.63185
1187.420, 16.16777
1187.902, 15.89493
1188.384, 16.08476
1188.866, 16.27218
1189.349, 16.19625
1189.831, 16.08251
1190.313, 16.20894
1190.795, 16.13433
1191.277, 16.12273
1191.759, 16.21969
1192.241, 16.12613
1192.723, 16.31478
1193.206, 16.44189
1193.688, 16.43269
1194.170, 16.35888
1194.652, 16.24477
1195.134, 16.15030
1195.616, 16.16003
1196.098, 16.26141
1196.580, 16.46166
1197.063, 16.73002
1197.545, 16.70926
1198.027, 16.40948
1198.509, 16.19201
1198.991, 16.15388
1199.473, 16.10310
1199.955, 15.90028
1200.437, 15.68694
1200.919, 15.64771
1201.401, 15.72180
1201.884, 15.89531
1202.366, 16.05464
1202.848, 15.90515
1203.330, 15.54479
1203.812, 15.37759
1204.294, 15.49824
1204.776, 15.52694
1205.258, 15.10739
1205.741, 14.80511
1206.223, 15.13476
1206.705, 15.55796
1207.187, 15.64252
1207.669, 15.59055
1208.151, 15.72085
1208.633, 15.67047
1209.115, 15.56295
1209.598, 15.59802
1210.080, 15.34833
1210.562, 15.25921
1211.044, 15.31239
1211.526, 15.72705
1212.008, 16.00034
1212.490, 15.76202
1212.972, 15.41656
1213.454, 15.48098
1213.937, 15.38014
1214.419, 15.38417
1214.901, 15.58692
1215.383, 15.55698
1215.865, 15.89938
1216.347, 16.07088
1216.829, 15.93743
1217.311, 15.71402
1217.793, 15.51387
1218.276, 15.38087
1218.758, 15.40546
1219.240, 15.50110
1219.722, 15.31681
1220.204, 15.00470
1220.686, 15.27619
1221.168, 15.95737
1221.650, 16.11457
1222.133, 15.61169
1222.615, 15.16308
1223.097, 15.17475
1223.579, 15.29802
1224.061, 15.25204
1224.543, 15.12911
1225.025, 14.88848
1225.507, 14.72840
1225.990, 14.99373
1226.472, 15.47679
1226.954, 15.76489
1227.436, 15.78940
1227.918, 15.69703
1228.400, 15.40446
1228.882, 15.26537
1229.364, 15.58539
1229.846, 15.78083
1230.328, 15.50615
1230.811, 15.14165
1231.293, 14.96465
1231.775, 14.90206
1232.257, 14.80781
1232.739, 14.68311
1233.221, 14.72315
1233.703, 14.98895
1234.185, 15.13903
1234.668, 15.12718
1235.150, 15.12520
1235.632, 15.19485
1236.114, 15.23472
1236.596, 15.15772
1237.078, 15.04665
1237.560, 15.07558
1238.042, 14.95807
1238.525, 15.08087
1239.007, 14.87155
1239.489, 14.82249
1239.971, 14.92991
1240.453, 15.05785
1240.935, 15.16117
1241.417, 15.25552
1241.899, 15.34802
1242.381, 15.44435
1242.864, 15.69974
1243.346, 15.79654
1243.828, 15.22087
1244.310, 14.54332
1244.792, 14.44411
1245.274, 14.76059
1245.756, 15.07389
1246.238, 15.31762
1246.720, 15.37895
1247.203, 15.00887
1247.685, 14.83785
1248.167, 15.04845
1248.649, 15.25238
1249.131, 15.34193
1249.613, 15.37306
1250.095, 15.38370
1250.577, 15.37256
1251.059, 15.35035
1251.542, 15.30674
1252.024, 15.04718
1252.506, 14.57434
1252.988, 14.43772
1253.470, 14.67184
1253.952, 14.98001
1254.434, 15.25200
1254.916, 15.33228
1255.399, 15.09005
1255.881, 14.78818
1256.363, 14.72762
1256.845, 14.83488
1257.327, 15.15155
1257.809, 15.46477
1258.291, 15.40207
1258.773, 15.08176
1259.255, 14.79122
1259.738, 14.60551
1260.220, 14.52991
1260.702, 14.59069
1261.184, 14.69361
1261.666, 14.86097
1262.148, 14.99527
1262.630, 15.04672
1263.112, 15.06352
1263.594, 15.08051
1264.077, 15.08329
1264.559, 15.03039
1265.041, 14.93898
1265.523, 14.96484
1266.005, 15.12887
1266.487, 15.30855
1266.969, 15.51524
1267.451, 15.57962
1267.934, 15.45950
1268.416, 15.24581
1268.898, 14.98088
1269.380, 14.78953
1269.862, 14.87544
1270.344, 15.03272
1270.826, 14.77222
1271.308, 14.37748
1271.791, 14.42848
1272.273, 14.76627
1272.755, 15.04762
1273.237, 15.18544
1273.719, 15.11845
1274.201, 14.80573
1274.683, 14.64015
1275.165, 14.97374
1275.647, 15.23307
1276.130, 15.09607
1276.612, 14.94978
1277.094, 15.10071
1277.576, 15.28839
1278.058, 15.23200
1278.540, 14.98737
1279.022, 14.64971
1279.504, 14.17541
1279.986, 14.32913
1280.469, 15.25633
1280.951, 15.78075
1281.433, 15.75163
1281.915, 15.44786
1282.397, 14.96519
1282.879, 14.72186
1283.361, 15.09543
1283.843, 15.55861
1284.326, 15.48634
1284.808, 14.87499
##END=



