##NAMES=Eudidymite
##RRUFFID=R060063
##IDEAL CHEMISTRY=Na_2_Be_2_Si_6_O_15_&#183;H_2_O
##LOCALITY=Langesundfjord, Norway
##OWNER=RRUFF
##SOURCE=University of Arizona Mineral Museum
##DESCRIPTION=Colorless crystal fragment
##STATUS=The identification of this mineral has been confirmed by X-ray diffraction and chemical analysis
##URL=rruff.info/R060063
##MEASURED CHEMISTRY=Na_1.00_Be_1.00_Si_3.00_O_7_(OH)
118.2057, 110.0160
118.6879, 111.0089
119.1700, 112.4845
119.6521, 114.3769
120.1342, 116.1577
120.6163, 117.6966
121.0984, 119.2402
121.5805, 120.8521
122.0627, 122.5115
122.5448, 124.1453
123.0269, 125.6574
123.5090, 126.9625
123.9911, 128.6828
124.4732, 130.8887
124.9554, 133.3319
125.4375, 135.9797
125.9196, 138.7769
126.4017, 141.6447
126.8838, 144.6474
127.3659, 148.1837
127.8481, 150.1529
128.3302, 150.4593
128.8123, 149.2105
129.2944, 146.3369
129.7765, 141.7064
130.2586, 135.9090
130.7408, 129.4821
131.2229, 122.3797
131.7050, 115.6476
132.1871, 109.5073
132.6692, 104.0272
133.1513, 99.45129
133.6335, 96.08574
134.1156, 93.54573
134.5977, 91.33331
135.0798, 89.44506
135.5619, 87.75359
136.0440, 86.14880
136.5262, 84.61746
137.0083, 83.23721
137.4904, 82.43908
137.9725, 81.56696
138.4546, 80.12598
138.9367, 77.96542
139.4189, 75.38386
139.9010, 72.91065
140.3831, 70.54402
140.8652, 68.34025
141.3473, 66.39363
141.8294, 64.56062
142.3116, 62.68014
142.7937, 60.65496
143.2758, 58.58593
143.7579, 56.85405
144.2400, 55.62409
144.7221, 54.60036
145.2043, 53.84277
145.6864, 53.25896
146.1685, 52.71104
146.6506, 52.10100
147.1327, 51.44370
147.6148, 50.92928
148.0969, 50.51245
148.5791, 50.24006
149.0612, 50.22153
149.5433, 50.40928
150.0254, 50.56854
150.5075, 50.50911
150.9896, 50.23959
151.4718, 50.02227
151.9539, 49.82830
152.4360, 49.70573
152.9181, 49.75681
153.4002, 50.01542
153.8823, 50.23129
154.3645, 50.11917
154.8466, 49.80159
155.3287, 49.51744
155.8108, 49.36342
156.2929, 49.29380
156.7750, 49.18811
157.2572, 48.98233
157.7393, 48.85472
158.2214, 48.94411
158.7035, 49.18351
159.1856, 49.42199
159.6677, 49.51112
160.1499, 49.46787
160.6320, 49.61095
161.1141, 50.15642
161.5962, 50.69177
162.0783, 51.06419
162.5604, 51.28706
163.0426, 51.43425
163.5247, 51.56450
164.0068, 51.66944
164.4889, 51.80149
164.9710, 51.93373
165.4531, 52.11309
165.9353, 52.35017
166.4174, 52.65269
166.8995, 53.04257
167.3816, 53.56334
167.8637, 54.33461
168.3458, 54.91159
168.8279, 55.23007
169.3101, 55.42676
169.7922, 55.50970
170.2743, 55.50710
170.7564, 55.58304
171.2385, 56.01370
171.7206, 57.04923
172.2028, 57.86921
172.6849, 58.42462
173.1670, 58.75029
173.6491, 58.85050
174.1312, 58.71149
174.6133, 58.42960
175.0955, 58.14296
175.5776, 57.84330
176.0597, 57.57037
176.5418, 57.29835
177.0239, 57.06136
177.5060, 56.94436
177.9882, 57.00429
178.4703, 57.15257
178.9524, 57.24442
179.4345, 57.26601
179.9166, 57.34882
180.3987, 57.62725
180.8809, 58.07293
181.3630, 58.43756
181.8451, 58.61036
182.3272, 58.70890
182.8093, 58.77684
183.2914, 58.80940
183.7736, 58.98657
184.2557, 59.58970
184.7378, 60.69604
185.2199, 61.60257
185.7020, 61.90398
186.1841, 62.09617
186.6663, 62.50905
187.1484, 63.20424
187.6305, 63.92540
188.1126, 64.29869
188.5947, 64.18930
189.0768, 64.06626
189.5589, 63.97706
190.0411, 63.90264
190.5232, 63.84057
191.0053, 63.78743
191.4874, 63.72309
191.9695, 63.61799
192.4516, 63.53222
192.9338, 63.28553
193.4159, 62.78728
193.8980, 62.18694
194.3801, 61.59805
194.8622, 61.06323
195.3443, 60.57973
195.8265, 60.13942
196.3086, 59.81556
196.7907, 59.44770
197.2728, 58.99225
197.7549, 58.50632
198.2370, 58.03828
198.7192, 57.60684
199.2013, 57.22993
199.6834, 56.97158
200.1655, 56.87570
200.6476, 56.82235
201.1297, 56.76719
201.6119, 56.74659
202.0940, 56.82604
202.5761, 57.03854
203.0582, 57.35451
203.5403, 57.70340
204.0224, 58.07917
204.5046, 58.48624
204.9867, 58.98535
205.4688, 59.52253
205.9509, 59.95880
206.4330, 60.23229
206.9151, 60.36815
207.3973, 60.41243
207.8794, 60.31090
208.3615, 60.26617
208.8436, 60.41349
209.3257, 60.72874
209.8078, 61.06777
210.2899, 61.32959
210.7721, 61.64316
211.2542, 62.18010
211.7363, 62.99061
212.2184, 63.84270
212.7005, 64.56221
213.1826, 65.14996
213.6648, 65.65868
214.1469, 65.99891
214.6290, 66.34058
215.1111, 66.88019
215.5932, 67.66425
216.0753, 68.42152
216.5575, 68.80994
217.0396, 68.75717
217.5217, 68.80495
218.0038, 69.18573
218.4859, 69.65096
218.9680, 70.01892
219.4502, 70.25732
219.9323, 70.53538
220.4144, 71.12417
220.8965, 72.16240
221.3786, 73.05077
221.8607, 73.52491
222.3429, 73.95827
222.8250, 74.63219
223.3071, 75.59453
223.7892, 76.61943
224.2713, 77.33161
224.7534, 77.49447
225.2356, 77.91074
225.7177, 78.62356
226.1998, 79.55344
226.6819, 80.74664
227.1640, 82.16877
227.6461, 83.63580
228.1283, 84.83593
228.6104, 85.58437
229.0925, 86.41168
229.5746, 87.44748
230.0567, 88.46389
230.5388, 89.38153
231.0210, 90.14767
231.5031, 90.66225
231.9852, 90.78529
232.4673, 90.48764
232.9494, 89.73912
233.4315, 88.52918
233.9137, 86.93070
234.3958, 84.93735
234.8779, 82.57024
235.3600, 79.92338
235.8421, 77.09555
236.3242, 73.89983
236.8064, 70.99456
237.2885, 68.47305
237.7706, 66.16151
238.2527, 63.90555
238.7348, 61.67088
239.2169, 59.55560
239.6991, 57.69570
240.1812, 56.11135
240.6633, 54.75699
241.1454, 53.65264
241.6275, 52.76240
242.1096, 52.09698
242.5918, 51.65908
243.0739, 51.30446
243.5560, 50.86979
244.0381, 50.34144
244.5202, 49.90785
245.0023, 49.67477
245.4845, 49.49702
245.9666, 49.19593
246.4487, 48.73975
246.9308, 48.29027
247.4129, 47.98518
247.8950, 47.82171
248.3772, 47.80342
248.8593, 48.13913
249.3414, 48.52075
249.8235, 48.51346
250.3056, 48.03957
250.7877, 47.56242
251.2698, 47.51212
251.7520, 47.78112
252.2341, 48.05347
252.7162, 48.28080
253.1983, 48.47130
253.6804, 48.64862
254.1625, 48.82566
254.6447, 48.91978
255.1268, 48.75842
255.6089, 48.48520
256.0910, 48.36116
256.5731, 48.52396
257.0552, 48.81750
257.5374, 49.05540
258.0195, 49.24089
258.5016, 49.35505
258.9837, 49.29897
259.4658, 49.18782
259.9479, 49.16221
260.4301, 49.27992
260.9122, 49.46864
261.3943, 49.64920
261.8764, 49.83088
262.3585, 49.96363
262.8406, 49.97891
263.3228, 49.95194
263.8049, 49.96174
264.2870, 50.04710
264.7691, 50.11478
265.2512, 50.01263
265.7333, 49.69735
266.2155, 49.42095
266.6976, 49.21206
267.1797, 49.10312
267.6618, 49.15815
268.1439, 49.39787
268.6260, 49.70746
269.1082, 49.94888
269.5903, 50.11005
270.0724, 50.26982
270.5545, 50.49673
271.0366, 50.69118
271.5187, 50.81330
272.0009, 50.85061
272.4830, 50.77001
272.9651, 50.49591
273.4472, 49.98734
273.9293, 49.51966
274.4114, 49.16814
274.8936, 48.82989
275.3757, 48.48708
275.8578, 48.12355
276.3399, 47.68788
276.8220, 47.03995
277.3041, 46.11019
277.7863, 45.49833
278.2684, 45.62451
278.7505, 45.74445
279.2326, 45.53469
279.7147, 45.05191
280.1968, 44.55361
280.6789, 44.25212
281.1610, 44.14995
281.6432, 44.12189
282.1253, 44.19921
282.6074, 44.33070
283.0895, 44.53186
283.5716, 44.77670
284.0537, 45.01000
284.5359, 45.17959
285.0180, 45.29895
285.5001, 45.52970
285.9822, 46.03177
286.4643, 46.46610
286.9464, 46.67926
287.4286, 46.78680
287.9107, 46.97042
288.3928, 47.34102
288.8749, 47.85462
289.3570, 48.32236
289.8391, 48.77740
290.3213, 49.12887
290.8034, 49.21622
291.2855, 49.25327
291.7676, 49.46247
292.2497, 49.94459
292.7318, 50.67460
293.2140, 51.60123
293.6961, 52.86654
294.1782, 54.12764
294.6603, 55.36489
295.1424, 56.57600
295.6245, 57.73631
296.1067, 58.84521
296.5888, 59.95787
297.0709, 61.20222
297.5530, 62.76207
298.0351, 64.08084
298.5172, 65.04668
298.9994, 65.88486
299.4815, 66.74572
299.9636, 67.65913
300.4457, 68.56795
300.9278, 69.37811
301.4099, 69.97533
301.8921, 70.86683
302.3742, 72.27296
302.8563, 73.74059
303.3384, 75.00292
303.8205, 76.09293
304.3026, 77.22885
304.7848, 78.63414
305.2669, 80.36502
305.7490, 81.89069
306.2311, 82.89272
306.7132, 84.02264
307.1953, 85.59209
307.6775, 87.47239
308.1596, 89.33727
308.6417, 90.95335
309.1238, 92.35176
309.6059, 93.86355
310.0880, 95.60519
310.5702, 97.34034
311.0523, 98.91985
311.5344, 100.4864
312.0165, 102.2963
312.4986, 104.4930
312.9807, 106.9147
313.4629, 109.1177
313.9450, 111.3383
314.4271, 112.9327
314.9092, 113.9842
315.3913, 114.3537
315.8734, 113.8539
316.3556, 112.4307
316.8377, 110.2580
317.3198, 107.6407
317.8019, 104.5813
318.2840, 100.9980
318.7661, 96.52717
319.2483, 91.86005
319.7304, 87.29115
320.2125, 82.96334
320.6946, 79.08147
321.1767, 75.93258
321.6588, 73.67258
322.1409, 71.50105
322.6230, 69.20689
323.1052, 67.16179
323.5873, 65.57336
324.0694, 64.39566
324.5515, 63.47256
325.0336, 62.66900
325.5157, 61.98789
325.9979, 61.51439
326.4800, 61.46314
326.9621, 61.39561
327.4442, 61.16685
327.9263, 60.85498
328.4084, 60.58095
328.8906, 60.40675
329.3727, 60.35060
329.8548, 60.49785
330.3369, 61.08497
330.8190, 61.58371
331.3011, 62.14230
331.7833, 62.50215
332.2654, 62.34991
332.7475, 61.58169
333.2296, 60.43037
333.7117, 59.33098
334.1938, 58.38464
334.6760, 57.28900
335.1581, 55.85449
335.6402, 54.42893
336.1223, 53.19803
336.6044, 52.20932
337.0865, 51.46058
337.5687, 50.98267
338.0508, 50.86627
338.5329, 50.60154
339.0150, 49.90588
339.4971, 49.33414
339.9792, 49.12943
340.4614, 49.24438
340.9435, 49.50487
341.4256, 49.78773
341.9077, 50.09536
342.3898, 50.45153
342.8719, 50.76274
343.3541, 51.25386
343.8362, 51.98541
344.3183, 52.91657
344.8004, 53.97615
345.2825, 55.12517
345.7646, 56.41486
346.2468, 58.01130
346.7289, 60.13535
347.2110, 62.15921
347.6931, 63.87849
348.1752, 65.55301
348.6573, 67.50055
349.1395, 69.76456
349.6216, 71.95294
350.1037, 73.47427
350.5858, 74.09540
351.0679, 74.93486
351.5500, 76.34826
352.0322, 77.72926
352.5143, 78.73145
352.9964, 79.41515
353.4785, 80.10432
353.9606, 81.02681
354.4427, 82.18245
354.9249, 83.60327
355.4070, 85.44473
355.8891, 87.37250
356.3712, 89.33781
356.8533, 91.29582
357.3354, 93.17614
357.8176, 94.92215
358.2997, 96.61169
358.7818, 98.42690
359.2639, 100.4352
359.7460, 102.4368
360.2281, 104.1876
360.7103, 106.0091
361.1924, 108.2024
361.6745, 110.8447
362.1566, 113.7845
362.6387, 116.8819
363.1208, 120.1634
363.6029, 123.4500
364.0851, 126.9924
364.5672, 130.2743
365.0493, 133.2236
365.5314, 135.7165
366.0135, 137.2665
366.4956, 137.7833
366.9778, 137.1345
367.4599, 134.5622
367.9420, 129.6098
368.4241, 123.4678
368.9062, 116.3341
369.3883, 108.6659
369.8705, 101.1388
370.3526, 93.81117
370.8347, 86.99171
371.3168, 81.14116
371.7989, 76.31777
372.2810, 71.98721
372.7632, 67.87379
373.2453, 64.21775
373.7274, 61.40958
374.2095, 59.61108
374.6916, 58.07671
375.1737, 56.22264
375.6559, 54.14505
376.1380, 52.31450
376.6201, 50.87582
377.1022, 49.64610
377.5843, 48.39838
378.0664, 47.14673
378.5486, 46.03862
379.0307, 45.22491
379.5128, 44.55378
379.9949, 43.76229
380.4770, 42.80584
380.9591, 41.94047
381.4413, 41.35738
381.9234, 41.02635
382.4055, 40.79484
382.8876, 40.76728
383.3697, 40.72479
383.8518, 40.45659
384.3340, 40.02947
384.8161, 39.73668
385.2982, 39.76315
385.7803, 39.91112
386.2624, 39.69107
386.7445, 38.95663
387.2267, 38.37461
387.7088, 38.20877
388.1909, 38.26026
388.6730, 38.29521
389.1551, 38.26295
389.6372, 38.15300
390.1194, 37.91789
390.6015, 37.51867
391.0836, 37.32708
391.5657, 37.57077
392.0478, 37.82122
392.5299, 37.76690
393.0121, 37.47456
393.4942, 37.22638
393.9763, 37.20431
394.4584, 37.36267
394.9405, 37.45921
395.4226, 37.41830
395.9048, 37.41320
396.3869, 37.56836
396.8690, 37.73382
397.3511, 37.66877
397.8332, 37.31237
398.3153, 36.90355
398.7975, 36.82872
399.2796, 37.28573
399.7617, 37.57332
400.2438, 37.56662
400.7259, 37.52594
401.2080, 37.59463
401.6902, 37.76649
402.1723, 37.98218
402.6544, 38.22478
403.1365, 38.46955
403.6186, 38.40163
404.1007, 37.74406
404.5828, 37.08175
405.0649, 36.50755
405.5471, 35.99165
406.0292, 35.48523
406.5113, 34.96850
406.9934, 34.47641
407.4755, 34.06344
407.9576, 33.74285
408.4398, 33.46569
408.9219, 33.19240
409.4040, 32.98772
409.8861, 32.93861
410.3682, 33.01377
410.8503, 33.06881
411.3325, 32.97525
411.8146, 32.75307
412.2967, 32.54660
412.7788, 32.31547
413.2609, 32.17439
413.7430, 32.21857
414.2252, 32.35698
414.7073, 32.47523
415.1894, 32.54753
415.6715, 32.55342
416.1536, 32.41606
416.6357, 32.12320
417.1179, 31.94619
417.6000, 32.06669
418.0821, 32.23883
418.5642, 32.16272
419.0463, 31.83678
419.5284, 31.62871
420.0106, 31.84000
420.4927, 32.29189
420.9748, 32.58779
421.4569, 32.67205
421.9390, 32.68832
422.4211, 32.68641
422.9033, 32.70129
423.3854, 32.84746
423.8675, 33.30820
424.3496, 33.74012
424.8317, 33.82634
425.3138, 33.66591
425.7960, 33.62404
426.2781, 33.86579
426.7602, 34.26582
427.2423, 34.57120
427.7244, 34.72526
428.2065, 34.98889
428.6887, 35.45842
429.1708, 36.02815
429.6529, 36.64422
430.1350, 37.27657
430.6171, 37.82190
431.0992, 38.18318
431.5814, 38.35614
432.0635, 38.51459
432.5456, 38.54782
433.0277, 38.69082
433.5098, 39.02740
433.9919, 39.52223
434.4741, 40.17167
434.9562, 40.97633
435.4383, 41.78745
435.9204, 42.28896
436.4025, 42.21880
436.8846, 42.33733
437.3668, 42.77499
437.8489, 43.26371
438.3310, 43.60681
438.8131, 43.83295
439.2952, 44.12452
439.7773, 44.66174
440.2595, 45.40555
440.7416, 45.94498
441.2237, 46.05880
441.7058, 46.29150
442.1879, 46.84258
442.6700, 47.54422
443.1522, 48.21466
443.6343, 48.79530
444.1164, 49.34233
444.5985, 49.94920
445.0806, 50.62090
445.5627, 51.25800
446.0448, 51.99708
446.5269, 52.50800
447.0091, 52.45335
447.4912, 51.97351
447.9733, 51.61494
448.4554, 51.86665
448.9375, 52.32404
449.4196, 52.23458
449.9018, 51.55681
450.3839, 50.66575
450.8660, 49.63470
451.3481, 48.55003
451.8302, 47.58744
452.3123, 46.81078
452.7945, 45.96963
453.2766, 44.78139
453.7587, 43.46190
454.2408, 42.45608
454.7229, 41.87203
455.2050, 41.49492
455.6872, 41.16236
456.1693, 40.87521
456.6514, 40.44426
457.1335, 39.53054
457.6156, 38.78484
458.0977, 38.71776
458.5799, 39.12563
459.0620, 39.43616
459.5441, 39.35570
460.0262, 39.10434
460.5083, 39.22165
460.9904, 40.07347
461.4726, 40.74462
461.9547, 41.22955
462.4368, 41.54331
462.9189, 41.59212
463.4010, 41.44289
463.8831, 41.34124
464.3653, 41.50395
464.8474, 41.91614
465.3295, 42.33755
465.8116, 42.78271
466.2937, 43.21893
466.7758, 43.54018
467.2580, 43.89284
467.7401, 44.51739
468.2222, 45.47531
468.7043, 46.43238
469.1864, 46.89862
469.6685, 46.83172
470.1507, 46.83749
470.6328, 47.09144
471.1149, 47.27577
471.5970, 47.07315
472.0791, 46.65931
472.5612, 46.49942
473.0434, 46.88736
473.5255, 47.55304
474.0076, 48.10164
474.4897, 48.52883
474.9718, 48.99693
475.4539, 49.57435
475.9361, 50.22013
476.4182, 50.88674
476.9003, 51.58916
477.3824, 52.21530
477.8645, 52.85436
478.3466, 53.33856
478.8288, 53.41054
479.3109, 53.04704
479.7930, 52.42519
480.2751, 51.66843
480.7572, 50.76638
481.2393, 49.61448
481.7215, 48.01311
482.2036, 46.44948
482.6857, 44.92943
483.1678, 43.57173
483.6499, 42.55715
484.1320, 41.93042
484.6142, 41.51522
485.0963, 41.06559
485.5784, 40.50596
486.0605, 40.28187
486.5426, 40.67702
487.0247, 41.08020
487.5068, 41.20728
487.9890, 41.19438
488.4711, 41.28165
488.9532, 41.58105
489.4353, 42.08829
489.9174, 42.74211
490.3995, 43.43431
490.8817, 44.63726
491.3638, 46.99031
491.8459, 49.44151
492.3280, 51.16510
492.8101, 52.36182
493.2922, 54.08875
493.7744, 57.33152
494.2565, 61.43064
494.7386, 64.85411
495.2207, 67.46000
495.7028, 70.24465
496.1849, 73.74150
496.6671, 77.65654
497.1492, 81.57633
497.6313, 85.52675
498.1134, 89.29066
498.5955, 92.91711
499.0776, 96.24133
499.5598, 98.85625
500.0419, 100.7056
500.5240, 102.4175
501.0061, 104.4522
501.4882, 106.8035
501.9703, 109.3302
502.4525, 111.9296
502.9346, 114.7763
503.4167, 117.8415
503.8988, 121.2025
504.3809, 125.0562
504.8630, 129.4380
505.3452, 133.9872
505.8273, 138.1766
506.3094, 141.8061
506.7915, 146.0872
507.2736, 151.3954
507.7557, 156.9669
508.2379, 162.3844
508.7200, 167.9481
509.2021, 174.2306
509.6842, 181.5513
510.1663, 189.3719
510.6484, 196.9106
511.1306, 204.1523
511.6127, 211.0811
512.0948, 218.4956
512.5769, 224.6535
513.0590, 229.0652
513.5411, 231.4518
514.0233, 230.8931
514.5054, 226.7724
514.9875, 219.6348
515.4696, 209.7850
515.9517, 197.3280
516.4338, 183.5681
516.9160, 168.5257
517.3981, 153.1906
517.8802, 138.8579
518.3623, 125.4109
518.8444, 113.3932
519.3265, 103.1165
519.8087, 94.19912
520.2908, 86.27480
520.7729, 79.34293
521.2550, 73.59566
521.7371, 69.24243
522.2192, 66.02104
522.7014, 62.89061
523.1835, 59.67465
523.6656, 56.81195
524.1477, 54.26585
524.6298, 52.11185
525.1119, 50.49994
525.5941, 49.36012
526.0762, 48.41335
526.5583, 47.41322
527.0404, 46.38964
527.5225, 45.55887
528.0046, 45.04780
528.4868, 44.47561
528.9689, 43.64910
529.4510, 42.75933
529.9331, 42.00080
530.4152, 41.40697
530.8973, 40.82050
531.3795, 40.10753
531.8616, 39.31084
532.3437, 38.55537
532.8258, 37.85335
533.3079, 37.17820
533.7900, 36.49501
534.2722, 35.82870
534.7543, 35.24523
535.2364, 34.76099
535.7185, 34.32927
536.2006, 33.94466
536.6827, 33.59501
537.1649, 33.24909
537.6470, 32.90393
538.1291, 32.62364
538.6112, 32.47859
539.0933, 32.47085
539.5754, 32.42846
540.0576, 32.38359
540.5397, 32.26802
541.0218, 31.91251
541.5039, 31.55225
541.9860, 31.53622
542.4681, 31.91961
542.9503, 32.33319
543.4324, 32.30831
543.9145, 31.82578
544.3966, 31.42869
544.8787, 31.08223
545.3608, 30.88461
545.8430, 30.96682
546.3251, 31.17121
546.8072, 31.27255
547.2892, 31.19135
547.7714, 31.09460
548.2535, 31.11585
548.7356, 31.23840
549.2177, 31.42799
549.6998, 31.69686
550.1819, 31.94551
550.6641, 32.07973
551.1462, 32.11034
551.6283, 32.17003
552.1104, 32.19715
552.5925, 32.32357
553.0746, 32.63537
553.5568, 33.06802
554.0389, 33.57950
554.5210, 34.14385
555.0031, 34.61159
555.4852, 34.77101
555.9673, 34.57143
556.4495, 34.66259
556.9316, 35.22552
557.4137, 35.89307
557.8958, 36.67030
558.3779, 37.46913
558.8600, 38.15224
559.3422, 38.68769
559.8243, 39.25805
560.3064, 40.17756
560.7885, 41.40748
561.2706, 42.24773
561.7527, 42.50584
562.2349, 42.69981
562.7170, 43.09040
563.1991, 43.63749
563.6812, 44.32009
564.1633, 45.20718
564.6454, 46.05869
565.1276, 46.70014
565.6097, 47.20433
566.0918, 47.66776
566.5739, 48.10904
567.0560, 48.66024
567.5381, 49.47250
568.0203, 50.52821
568.5024, 51.44445
568.9845, 51.90503
569.4666, 52.63956
569.9487, 53.95204
570.4308, 55.54159
570.9130, 57.13316
571.3951, 58.64861
571.8772, 60.06960
572.3593, 61.39309
572.8414, 62.61632
573.3235, 63.68845
573.8057, 64.54401
574.2878, 65.35647
574.7699, 66.29634
575.2520, 67.16281
575.7341, 67.83337
576.2162, 68.28893
576.6984, 68.25182
577.1805, 67.31286
577.6626, 65.80262
578.1447, 64.47292
578.6268, 63.40020
579.1089, 62.03407
579.5911, 59.95393
580.0732, 57.41537
580.5553, 55.10336
581.0374, 52.95673
581.5195, 51.11988
582.0016, 49.92834
582.4838, 48.84778
582.9659, 47.29998
583.4480, 45.36070
583.9301, 43.61916
584.4122, 42.49676
584.8943, 41.81614
585.3765, 40.86626
585.8586, 39.34931
586.3407, 38.19928
586.8228, 37.79255
587.3049, 37.54580
587.7870, 37.09768
588.2692, 36.47343
588.7513, 35.90611
589.2334, 35.57603
589.7155, 35.33256
590.1976, 34.88083
590.6797, 34.22595
591.1619, 33.70176
591.6440, 33.45882
592.1261, 33.32130
592.6082, 33.07310
593.0903, 32.71746
593.5724, 32.32664
594.0546, 31.75132
594.5367, 31.29398
595.0188, 31.21256
595.5009, 31.38246
595.9830, 31.56278
596.4651, 31.65810
596.9473, 31.64030
597.4294, 31.44311
597.9115, 31.00990
598.3936, 30.67611
598.8757, 30.49911
599.3578, 30.37046
599.8400, 30.30382
600.3221, 30.25090
600.8042, 30.11978
601.2863, 29.87413
601.7684, 29.67175
602.2505, 29.75498
602.7327, 30.03827
603.2148, 30.10623
603.6969, 29.87422
604.1790, 29.60876
604.6611, 29.49430
605.1432, 29.47830
605.6254, 29.37277
606.1075, 29.09710
606.5896, 28.88198
607.0717, 28.88900
607.5538, 28.93956
608.0359, 28.78221
608.5181, 28.43902
609.0002, 28.17849
609.4823, 28.21098
609.9644, 28.46289
610.4465, 28.61692
610.9286, 28.64079
611.4108, 28.62600
611.8929, 28.53225
612.3750, 28.44843
612.8571, 28.44438
613.3392, 28.50478
613.8214, 28.56243
614.3035, 28.59652
614.7856, 28.58998
615.2677, 28.48643
615.7498, 28.29666
616.2319, 28.16158
616.7141, 28.12909
617.1962, 28.14670
617.6783, 28.15618
618.1604, 28.15734
618.6425, 28.18420
619.1246, 28.31753
619.6068, 28.39108
620.0889, 28.29597
620.5710, 28.10357
621.0531, 27.88605
621.5352, 27.67939
622.0173, 27.56501
622.4995, 27.66343
622.9816, 27.97482
623.4637, 28.18822
623.9458, 28.23005
624.4279, 28.29473
624.9100, 28.56644
625.3922, 28.81353
625.8743, 28.74045
626.3564, 28.31502
626.8385, 27.94088
627.3206, 27.92916
627.8027, 28.10253
628.2849, 28.15729
628.7670, 28.09182
629.2491, 28.09384
629.7311, 28.30063
630.2133, 28.52664
630.6954, 28.38780
631.1775, 27.65232
631.6596, 27.15617
632.1417, 27.04477
632.6238, 27.03309
633.1060, 27.05387
633.5881, 27.04430
634.0702, 26.89517
634.5523, 26.56143
635.0344, 26.17625
635.5165, 25.94346
635.9987, 25.86919
636.4808, 25.73695
636.9629, 25.48685
637.4450, 25.26926
637.9271, 25.16535
638.4092, 25.14663
638.8914, 25.21666
639.3735, 25.44422
639.8556, 25.52545
640.3377, 25.12939
640.8198, 24.59516
641.3019, 24.39446
641.7841, 24.53637
642.2662, 24.76039
642.7483, 24.91868
643.2304, 25.00689
643.7125, 25.00530
644.1946, 24.84058
644.6768, 24.72485
645.1589, 24.68189
645.6410, 24.66155
646.1231, 24.67318
646.6052, 24.68259
647.0873, 24.60122
647.5695, 24.36001
648.0516, 24.14470
648.5337, 24.26034
649.0158, 24.63386
649.4979, 24.82550
649.9800, 24.75741
650.4622, 24.55463
650.9443, 24.22616
651.4264, 23.84246
651.9085, 23.71363
652.3906, 24.03651
652.8727, 24.28764
653.3549, 24.31605
653.8370, 24.24865
654.3191, 24.16105
654.8012, 24.08669
655.2833, 24.08657
655.7654, 24.21217
656.2476, 24.39428
656.7297, 24.43975
657.2118, 24.30917
657.6939, 24.22079
658.1760, 24.20830
658.6581, 24.24275
659.1403, 24.35735
659.6224, 24.49814
660.1045, 24.52596
660.5866, 24.38011
661.0687, 24.15644
661.5508, 23.82011
662.0330, 23.48004
662.5151, 23.37304
662.9972, 23.52347
663.4793, 23.72292
663.9614, 23.80408
664.4435, 23.80143
664.9257, 23.90366
665.4078, 24.29493
665.8899, 24.48149
666.3720, 24.30070
666.8541, 24.04210
667.3362, 23.86894
667.8184, 23.77582
668.3005, 23.68546
668.7826, 23.54233
669.2647, 23.42799
669.7468, 23.47209
670.2289, 23.64633
670.7111, 23.80675
671.1932, 23.92917
671.6753, 24.01960
672.1574, 24.07619
672.6395, 24.10408
673.1216, 24.14152
673.6038, 24.13718
674.0859, 24.20969
674.5680, 24.48809
675.0501, 24.76749
675.5322, 24.85938
676.0143, 24.78105
676.4965, 24.65782
676.9786, 24.55798
677.4607, 24.49109
677.9428, 24.48985
678.4249, 24.56002
678.9070, 24.60906
679.3892, 24.61434
679.8713, 24.61031
680.3534, 24.60511
680.8355, 24.61163
681.3176, 24.67470
681.7997, 24.86191
682.2819, 25.00184
682.7640, 24.97443
683.2461, 24.89746
683.7282, 24.93213
684.2103, 25.06769
684.6924, 25.14486
685.1746, 25.04557
685.6567, 24.87007
686.1388, 24.91703
686.6209, 25.26531
687.1030, 25.55045
687.5851, 25.72883
688.0673, 25.84657
688.5494, 25.89886
689.0315, 25.91789
689.5136, 25.97571
689.9957, 26.11075
690.4778, 26.22936
690.9600, 26.20913
691.4421, 26.16121
691.9242, 26.31288
692.4063, 26.65359
692.8884, 26.93064
693.3705, 26.98747
693.8527, 26.86466
694.3348, 26.65884
694.8169, 26.28756
695.2990, 26.01822
695.7811, 25.93832
696.2632, 25.87111
696.7454, 25.70611
697.2275, 25.51278
697.7096, 25.44701
698.1917, 25.58139
698.6738, 25.67062
699.1559, 25.43763
699.6381, 25.03757
700.1202, 24.78941
700.6023, 24.71767
701.0844, 24.73762
701.5665, 24.82405
702.0486, 24.92491
702.5308, 24.91932
703.0129, 24.73567
703.4950, 24.62680
703.9771, 24.63842
704.4592, 24.66573
704.9413, 24.70472
705.4235, 24.71675
705.9056, 24.61146
706.3877, 24.36756
706.8698, 24.18024
707.3519, 24.29150
707.8340, 24.57729
708.3162, 24.73216
708.7983, 24.74471
709.2804, 24.66317
709.7625, 24.49381
710.2446, 24.26901
710.7267, 24.01537
711.2089, 23.68662
711.6909, 23.54955
712.1730, 23.82820
712.6552, 24.03093
713.1373, 23.90870
713.6194, 23.64588
714.1015, 23.47275
714.5836, 23.43741
715.0657, 23.44263
715.5479, 23.41261
716.0300, 23.35946
716.5121, 23.29984
716.9942, 23.23277
717.4763, 23.24288
717.9584, 23.39470
718.4406, 23.54856
718.9227, 23.53868
719.4048, 23.35521
719.8869, 23.16145
720.3690, 22.81117
720.8511, 22.63300
721.3333, 22.85713
721.8154, 23.20896
722.2975, 23.45274
722.7796, 23.54070
723.2617, 23.48214
723.7438, 23.23123
724.2260, 22.92823
724.7081, 22.89482
725.1902, 23.12287
725.6723, 23.30380
726.1544, 23.39353
726.6365, 23.37245
727.1187, 23.16161
727.6008, 22.81660
728.0829, 22.65730
728.5650, 22.80180
729.0471, 22.94337
729.5292, 23.06490
730.0114, 23.13641
730.4935, 23.08675
730.9756, 22.96799
731.4577, 22.91972
731.9398, 23.01539
732.4219, 23.17333
732.9041, 23.31132
733.3862, 23.41947
733.8683, 23.40013
734.3504, 23.23095
734.8325, 22.97439
735.3146, 22.54223
735.7968, 22.12938
736.2789, 22.27317
736.7610, 23.24731
737.2431, 23.82406
737.7252, 23.60544
738.2073, 23.26131
738.6895, 23.10799
739.1716, 23.09837
739.6537, 23.13790
740.1358, 23.18881
740.6179, 23.20749
741.1000, 23.10299
741.5822, 22.93174
742.0643, 22.93292
742.5464, 23.12065
743.0285, 23.27322
743.5106, 23.31679
743.9927, 23.28598
744.4749, 23.19500
744.9570, 23.03337
745.4391, 22.98845
745.9212, 23.16805
746.4033, 23.32502
746.8854, 23.40215
747.3676, 23.41518
747.8497, 23.34919
748.3318, 23.22939
748.8139, 23.14140
749.2960, 23.14033
749.7781, 23.19915
750.2603, 23.29744
750.7424, 23.42474
751.2245, 23.49432
751.7066, 23.48201
752.1887, 23.45940
752.6708, 23.49497
753.1530, 23.55777
753.6351, 23.51564
754.1172, 23.20648
754.5993, 23.05705
755.0814, 23.22294
755.5635, 23.40948
756.0457, 23.43821
756.5278, 23.36552
757.0099, 23.30717
757.4920, 23.30153
757.9741, 23.35455
758.4562, 23.50539
758.9384, 23.71131
759.4205, 23.86234
759.9026, 23.95656
760.3847, 24.07810
760.8668, 24.27521
761.3489, 24.46411
761.8311, 24.49408
762.3132, 24.31853
762.7953, 24.31873
763.2774, 24.70015
763.7595, 25.00272
764.2416, 25.09110
764.7238, 25.09035
765.2059, 25.07653
765.6880, 25.08027
766.1701, 25.17516
766.6522, 25.48108
767.1343, 25.79405
767.6165, 25.81085
768.0986, 25.66840
768.5807, 25.77710
769.0628, 26.19981
769.5449, 26.58998
770.0270, 26.67433
770.5092, 26.53911
770.9913, 26.50047
771.4734, 26.63704
771.9555, 26.67365
772.4376, 26.41602
772.9197, 26.25431
773.4019, 26.47219
773.8840, 26.86138
774.3661, 27.05144
774.8482, 26.93566
775.3303, 26.85936
775.8124, 27.05404
776.2946, 27.32973
776.7767, 27.52760
777.2588, 27.63084
777.7409, 27.61576
778.2230, 27.47810
778.7051, 27.29185
779.1873, 27.14361
779.6694, 27.02942
780.1515, 26.87572
780.6336, 26.64119
781.1157, 26.50706
781.5978, 26.62261
782.0800, 26.74745
782.5621, 26.62630
783.0442, 26.30717
783.5263, 26.02256
784.0084, 25.81969
784.4905, 25.63864
784.9727, 25.48178
785.4548, 25.32020
785.9369, 25.09421
786.4190, 24.83382
786.9011, 24.64359
787.3832, 24.58203
787.8654, 24.58388
788.3475, 24.55787
788.8296, 24.50735
789.3117, 24.46442
789.7938, 24.43389
790.2759, 24.39332
790.7581, 24.33582
791.2402, 24.25575
791.7223, 24.12950
792.2044, 23.92662
792.6865, 23.82039
793.1686, 23.92369
793.6508, 23.98369
794.1328, 23.84896
794.6149, 23.67742
795.0970, 23.62266
795.5792, 23.70484
796.0613, 23.88887
796.5434, 24.25526
797.0255, 24.57230
797.5076, 24.45951
797.9897, 24.06998
798.4719, 23.88228
798.9540, 23.97159
799.4361, 24.07041
799.9182, 23.98701
800.4003, 23.78967
800.8824, 23.66740
801.3646, 23.62008
801.8467, 23.65246
802.3288, 23.85900
802.8109, 24.02429
803.2930, 24.05905
803.7751, 24.00626
804.2573, 23.90528
804.7394, 23.75768
805.2215, 23.62623
805.7036, 23.48486
806.1857, 23.41553
806.6678, 23.54791
807.1500, 23.77384
807.6321, 23.87515
808.1142, 23.82633
808.5963, 23.82034
809.0784, 24.03997
809.5605, 24.38290
810.0427, 24.56634
810.5248, 24.58500
811.0069, 24.55083
811.4890, 24.44909
811.9711, 24.39618
812.4532, 24.51856
812.9354, 24.73374
813.4175, 24.77361
813.8996, 24.55362
814.3817, 24.36606
814.8638, 24.22021
815.3459, 24.11653
815.8281, 24.09004
816.3102, 24.08907
816.7923, 24.00724
817.2744, 23.83683
817.7565, 23.75461
818.2386, 23.97737
818.7208, 24.30075
819.2029, 24.43775
819.6850, 24.42268
820.1671, 24.37383
820.6492, 24.31864
821.1313, 24.19430
821.6135, 23.92288
822.0956, 23.58051
822.5777, 23.49160
823.0598, 23.77143
823.5419, 23.93460
824.0240, 23.88637
824.5062, 23.79140
824.9883, 23.70748
825.4704, 23.64431
825.9525, 23.62413
826.4346, 23.65700
826.9167, 23.68309
827.3989, 23.70091
827.8810, 23.69103
828.3631, 23.60642
828.8452, 23.50053
829.3273, 23.46945
829.8094, 23.52053
830.2916, 23.55803
830.7737, 23.49231
831.2558, 23.38894
831.7379, 23.40143
832.2200, 23.51126
832.7021, 23.55475
833.1843, 23.49869
833.6664, 23.42826
834.1485, 23.39203
834.6306, 23.39603
835.1127, 23.46322
835.5948, 23.63672
836.0770, 23.75899
836.5591, 23.84575
837.0412, 23.86054
837.5233, 23.74127
838.0054, 23.57425
838.4875, 23.42787
838.9697, 23.31786
839.4518, 23.30734
839.9339, 23.54490
840.4160, 23.76089
840.8981, 23.74752
841.3802, 23.59972
841.8624, 23.42772
842.3445, 23.26829
842.8266, 23.16125
843.3087, 23.13267
843.7908, 23.16287
844.2729, 23.23277
844.7551, 23.33811
845.2372, 23.41145
845.7193, 23.44407
846.2014, 23.47266
846.6835, 23.50933
847.1656, 23.56028
847.6478, 23.64649
848.1299, 23.78145
848.6120, 23.84147
849.0941, 23.75977
849.5762, 23.69364
850.0583, 23.66826
850.5405, 23.67194
851.0226, 23.71911
851.5047, 23.78726
851.9868, 23.80914
852.4689, 23.74878
852.9510, 23.67240
853.4332, 23.58208
853.9153, 23.52840
854.3974, 23.62137
854.8795, 23.81118
855.3616, 23.93391
855.8438, 23.92533
856.3259, 23.83636
856.8080, 23.70679
857.2901, 23.55203
857.7722, 23.43263
858.2543, 23.34194
858.7365, 23.39531
859.2186, 23.67111
859.7007, 23.96551
860.1828, 24.12245
860.6649, 24.14621
861.1470, 24.05519
861.6292, 23.73495
862.1113, 23.48177
862.5934, 23.29809
863.0755, 23.17686
863.5576, 23.11224
864.0397, 23.11032
864.5219, 23.22910
865.0040, 23.47206
865.4861, 23.59818
865.9682, 23.36843
866.4503, 23.09066
866.9324, 23.03107
867.4146, 23.09613
867.8967, 23.12531
868.3788, 23.09507
868.8609, 23.06322
869.3430, 23.06291
869.8251, 23.10636
870.3073, 23.28924
870.7894, 23.57472
871.2715, 23.54323
871.7536, 23.13216
872.2357, 22.71957
872.7178, 22.45425
873.2000, 22.33802
873.6821, 22.41107
874.1642, 22.69939
874.6463, 22.79732
875.1284, 22.55163
875.6105, 22.34572
876.0927, 22.22519
876.5747, 22.17215
877.0568, 22.23898
877.5389, 22.35853
878.0211, 22.34370
878.5032, 22.09388
878.9853, 21.89502
879.4674, 21.94381
879.9495, 22.02552
880.4316, 21.94131
880.9138, 21.75775
881.3959, 21.61341
881.8780, 21.54699
882.3601, 21.52509
882.8422, 21.53247
883.3243, 21.55113
883.8065, 21.57110
884.2886, 21.57627
884.7707, 21.45106
885.2528, 21.17819
885.7349, 20.96889
886.2170, 20.97093
886.6992, 21.08313
887.1813, 21.08113
887.6634, 20.93422
888.1455, 20.85905
888.6276, 20.86202
889.1097, 20.93227
889.5919, 21.18123
890.0740, 21.39289
890.5561, 21.26109
891.0382, 20.84743
891.5203, 20.61921
892.0024, 20.75058
892.4846, 20.88047
892.9667, 21.00109
893.4488, 21.03360
893.9309, 20.84381
894.4130, 20.54727
894.8951, 20.36737
895.3773, 20.36553
895.8594, 20.39266
896.3415, 20.31503
896.8236, 20.23273
897.3057, 20.29817
897.7878, 20.44576
898.2700, 20.53029
898.7521, 20.51973
899.2342, 20.42311
899.7163, 20.23337
900.1984, 20.02577
900.6805, 19.96588
901.1627, 20.04745
901.6448, 20.14417
902.1269, 20.25507
902.6090, 20.34998
903.0911, 20.44920
903.5732, 20.43386
904.0554, 20.07154
904.5375, 19.36287
905.0196, 19.13878
905.5017, 19.77534
905.9838, 20.26837
906.4659, 20.48304
906.9481, 20.53970
907.4302, 20.43007
907.9123, 20.23036
908.3944, 20.09168
908.8765, 20.04908
909.3586, 19.98171
909.8408, 19.86139
910.3229, 19.69592
910.8050, 19.40713
911.2871, 19.12335
911.7692, 19.03684
912.2513, 19.13803
912.7335, 19.24672
913.2156, 19.25845
913.6977, 19.25018
914.1798, 19.32378
914.6619, 19.43123
915.1440, 19.48298
915.6262, 19.47384
916.1083, 19.40389
916.5904, 19.27522
917.0725, 19.16683
917.5546, 19.19492
918.0367, 19.30747
918.5189, 19.20296
919.0010, 18.85466
919.4831, 18.71224
919.9652, 18.90291
920.4473, 19.12843
920.9294, 19.19287
921.4116, 19.15204
921.8937, 19.13261
922.3758, 19.13575
922.8579, 19.15859
923.3400, 19.27765
923.8221, 19.30693
924.3043, 19.10257
924.7864, 18.87157
925.2685, 18.80070
925.7506, 18.86023
926.2327, 18.89875
926.7148, 18.89875
927.1970, 18.86029
927.6791, 18.73261
928.1612, 18.61618
928.6433, 18.59896
929.1254, 18.63469
929.6075, 18.63035
930.0897, 18.57395
930.5718, 18.55853
931.0539, 18.68414
931.5360, 18.82825
932.0181, 18.88894
932.5002, 18.86514
932.9824, 18.69113
933.4645, 18.41607
933.9466, 18.26215
934.4287, 18.33740
934.9108, 18.51504
935.3929, 18.64177
935.8751, 18.72631
936.3572, 18.82384
936.8393, 18.93165
937.3214, 18.94010
937.8035, 18.81486
938.2856, 18.65512
938.7678, 18.53258
939.2499, 18.44353
939.7320, 18.36965
940.2141, 18.29075
940.6962, 18.32821
941.1783, 18.58882
941.6605, 18.72968
942.1426, 18.52628
942.6247, 18.25089
943.1068, 18.22337
943.5889, 18.42231
944.0710, 18.53517
944.5532, 18.47920
945.0353, 18.45948
945.5174, 18.53587
945.9995, 18.60937
946.4816, 18.63003
946.9637, 18.61224
947.4459, 18.56391
947.9280, 18.48999
948.4101, 18.46261
948.8922, 18.61205
949.3743, 18.69482
949.8564, 18.47335
950.3386, 18.18258
950.8207, 18.09511
951.3028, 18.17845
951.7849, 18.27002
952.2670, 18.30633
952.7491, 18.30408
953.2313, 18.26452
953.7134, 18.20465
954.1955, 18.12904
954.6776, 18.05801
955.1597, 18.06666
955.6418, 18.15358
956.1240, 18.20162
956.6061, 18.12847
957.0882, 18.01716
957.5703, 18.02428
958.0524, 18.12973
958.5345, 18.22179
959.0166, 18.29739
959.4987, 18.19134
959.9808, 17.81225
960.4630, 17.50701
960.9451, 17.62650
961.4272, 18.06013
961.9093, 18.36707
962.3914, 18.54754
962.8735, 18.57851
963.3557, 18.38264
963.8378, 18.21813
964.3199, 18.22548
964.8020, 18.28290
965.2841, 18.21237
965.7662, 18.01624
966.2484, 17.95396
966.7305, 18.20208
967.2126, 18.32491
967.6947, 18.16779
968.1768, 18.01756
968.6589, 18.09838
969.1411, 18.24285
969.6232, 18.13013
970.1053, 17.71545
970.5874, 17.50314
971.0695, 17.77878
971.5516, 18.06820
972.0338, 18.23025
972.5159, 18.28468
972.9980, 18.21732
973.4801, 18.06891
973.9622, 17.90009
974.4443, 17.72562
974.9265, 17.62026
975.4086, 17.63602
975.8907, 17.73435
976.3728, 17.98369
976.8549, 18.23880
977.3370, 18.23439
977.8192, 17.99944
978.3013, 17.76795
978.7834, 17.65073
979.2655, 17.66322
979.7476, 17.97523
980.2297, 18.35180
980.7119, 18.17984
981.1940, 17.65615
981.6761, 17.58044
982.1582, 18.08696
982.6403, 18.57267
983.1224, 18.61032
983.6046, 18.40561
984.0867, 18.31179
984.5688, 18.32297
985.0509, 18.41322
985.5330, 18.58124
986.0151, 18.77774
986.4973, 18.99690
986.9794, 19.14194
987.4615, 19.10623
987.9436, 18.95491
988.4257, 18.93819
988.9078, 19.09430
989.3900, 19.09160
989.8721, 18.83484
990.3542, 18.71777
990.8363, 18.96696
991.3184, 19.27374
991.8005, 19.24544
992.2827, 18.94596
992.7648, 18.94632
993.2469, 19.46090
993.7290, 19.80174
994.2111, 19.79229
994.6932, 19.81248
995.1754, 20.09792
995.6575, 20.45382
996.1396, 20.58911
996.6217, 20.51489
997.1038, 20.59298
997.5859, 21.01488
998.0681, 21.32728
998.5502, 21.42299
999.0323, 21.45193
999.5144, 21.48842
999.9965, 21.51310
1000.479, 21.47676
1000.961, 21.37801
1001.443, 21.31292
1001.925, 21.36102
1002.407, 21.37450
1002.889, 21.26044
1003.371, 21.12711
1003.853, 21.03229
1004.336, 20.99371
1004.818, 21.04727
1005.300, 21.19491
1005.782, 21.32425
1006.264, 21.42223
1006.746, 21.43114
1007.228, 21.22329
1007.710, 20.96980
1008.193, 20.89412
1008.675, 20.94147
1009.157, 20.89632
1009.639, 20.69808
1010.121, 20.57951
1010.603, 20.86946
1011.085, 21.18615
1011.567, 21.00258
1012.049, 20.59005
1012.532, 20.43369
1013.014, 20.52225
1013.496, 20.56123
1013.978, 20.43039
1014.460, 20.30119
1014.942, 20.42073
1015.424, 20.60355
1015.906, 20.47670
1016.388, 20.13033
1016.871, 19.75627
1017.353, 19.41895
1017.835, 19.30364
1018.317, 19.50334
1018.799, 19.73582
1019.281, 19.61199
1019.763, 19.25443
1020.245, 19.05147
1020.728, 18.98983
1021.210, 19.00658
1021.692, 19.08676
1022.174, 19.14830
1022.656, 19.14275
1023.138, 19.12765
1023.620, 19.22143
1024.102, 19.38342
1024.584, 19.28316
1025.067, 18.91438
1025.549, 18.65067
1026.031, 18.55992
1026.513, 18.57171
1026.995, 18.65230
1027.477, 18.78902
1027.959, 18.98155
1028.441, 19.22315
1028.923, 19.29787
1029.406, 19.17556
1029.888, 19.04024
1030.370, 18.89649
1030.852, 18.85957
1031.334, 19.04641
1031.816, 19.29814
1032.298, 19.31743
1032.780, 19.09207
1033.263, 18.89838
1033.745, 18.67449
1034.227, 18.69714
1034.709, 19.16736
1035.191, 19.57267
1035.673, 19.55548
1036.155, 19.32069
1036.637, 19.23348
1037.120, 19.29988
1037.602, 19.46549
1038.084, 19.82748
1038.566, 20.09612
1039.048, 20.25095
1039.530, 20.26469
1040.012, 19.99411
1040.494, 19.64711
1040.976, 19.62655
1041.458, 19.98472
1041.941, 20.23812
1042.423, 20.33374
1042.905, 20.40648
1043.387, 20.47240
1043.869, 20.52001
1044.351, 20.54420
1044.833, 20.54589
1045.315, 20.53177
1045.798, 20.50438
1046.280, 20.42876
1046.762, 20.18006
1047.244, 20.06207
1047.726, 20.23692
1048.208, 20.43128
1048.690, 20.52938
1049.172, 20.52803
1049.655, 20.39097
1050.137, 20.11552
1050.619, 19.92793
1051.101, 19.99389
1051.583, 19.95785
1052.065, 19.69438
1052.547, 19.36652
1053.029, 18.98264
1053.511, 18.64409
1053.994, 18.54705
1054.476, 18.68797
1054.958, 18.69954
1055.440, 18.31289
1055.922, 18.06211
1056.404, 18.22626
1056.886, 18.40728
1057.368, 18.33590
1057.850, 18.14592
1058.333, 18.04171
1058.815, 18.03477
1059.297, 17.99885
1059.779, 17.86923
1060.261, 17.75878
1060.743, 17.71000
1061.225, 17.68414
1061.707, 17.68825
1062.190, 17.68159
1062.672, 17.56756
1063.154, 17.37698
1063.636, 17.33523
1064.118, 17.64384
1064.600, 17.81278
1065.082, 17.47248
1065.564, 17.14054
1066.047, 17.18798
1066.529, 17.40903
1067.011, 17.57300
1067.493, 17.64398
1067.975, 17.63329
1068.457, 17.51926
1068.939, 17.40210
1069.421, 17.33040
1069.903, 17.25965
1070.385, 17.08153
1070.868, 16.94615
1071.350, 17.10898
1071.832, 17.47547
1072.314, 17.66811
1072.796, 17.54157
1073.278, 17.40492
1073.760, 17.40561
1074.242, 17.42488
1074.725, 17.37119
1075.207, 17.31431
1075.689, 17.34792
1076.171, 17.44420
1076.653, 17.50519
1077.135, 17.49979
1077.617, 17.50881
1078.099, 17.59853
1078.582, 17.67657
1079.064, 17.63955
1079.546, 17.60921
1080.028, 17.70726
1080.510, 17.91008
1080.992, 18.19814
1081.474, 18.56292
1081.956, 18.72890
1082.438, 18.36423
1082.921, 18.03824
1083.403, 18.06378
1083.885, 18.23197
1084.367, 18.41495
1084.849, 18.57918
1085.331, 18.68271
1085.813, 18.72724
1086.295, 18.81371
1086.777, 18.99691
1087.260, 19.20802
1087.742, 19.49123
1088.224, 19.71453
1088.706, 19.62767
1089.188, 19.49555
1089.670, 19.77784
1090.152, 20.45087
1090.634, 21.00867
1091.116, 21.24681
1091.599, 21.42244
1092.081, 21.62908
1092.563, 21.82313
1093.045, 21.97620
1093.527, 22.10321
1094.009, 22.15767
1094.491, 22.20272
1094.973, 22.47937
1095.456, 23.13628
1095.938, 23.70530
1096.420, 23.92697
1096.902, 24.12752
1097.384, 24.46488
1097.866, 24.86943
1098.348, 25.29355
1098.830, 25.71536
1099.313, 26.09145
1099.795, 26.40116
1100.277, 26.75550
1100.759, 27.25291
1101.241, 27.71186
1101.723, 28.12416
1102.205, 28.41027
1102.687, 28.36980
1103.169, 28.21895
1103.651, 28.37939
1104.134, 28.89916
1104.616, 29.32830
1105.098, 29.48792
1105.580, 29.66470
1106.062, 29.95086
1106.544, 30.24656
1107.026, 30.47573
1107.508, 30.69396
1107.991, 30.94221
1108.473, 31.23818
1108.955, 31.68752
1109.437, 32.41262
1109.919, 33.08717
1110.401, 33.62437
1110.883, 34.15879
1111.365, 34.62034
1111.848, 35.20664
1112.330, 36.20373
1112.812, 37.48861
1113.294, 38.60213
1113.776, 39.50050
1114.258, 40.28873
1114.740, 40.57925
1115.222, 41.30535
1115.704, 43.19446
1116.187, 45.04678
1116.669, 45.87990
1117.151, 46.20166
1117.633, 47.01188
1118.115, 48.36146
1118.597, 49.75607
1119.079, 51.26960
1119.561, 52.66984
1120.043, 53.85897
1120.526, 55.04302
1121.008, 56.39668
1121.490, 57.70667
1121.972, 58.67785
1122.454, 59.33568
1122.936, 60.01813
1123.418, 60.79886
1123.900, 61.39554
1124.383, 61.83202
1124.865, 62.00960
1125.347, 61.89618
1125.829, 61.51329
1126.311, 60.88169
1126.793, 59.99002
1127.275, 58.79005
1127.757, 57.26288
1128.240, 55.53237
1128.722, 53.53099
1129.204, 51.62062
1129.686, 49.88383
1130.168, 48.25081
1130.650, 46.71452
1131.132, 45.16253
1131.614, 43.39495
1132.096, 41.45280
1132.578, 39.79901
1133.061, 38.43688
1133.543, 37.12626
1134.025, 35.83343
1134.507, 34.61612
1134.989, 33.49581
1135.471, 32.49463
1135.953, 31.63169
1136.435, 30.88757
1136.918, 30.22268
1137.400, 29.62392
1137.882, 28.96508
1138.364, 28.26449
1138.846, 27.77348
1139.328, 27.54381
1139.810, 27.30795
1140.292, 26.88041
1140.775, 26.37646
1141.257, 25.93486
1141.739, 25.56470
1142.221, 25.32594
1142.703, 25.16930
1143.185, 24.94094
1143.667, 24.62695
1144.149, 24.28415
1144.631, 23.93738
1145.114, 23.59342
1145.596, 23.26003
1146.078, 22.93321
1146.560, 22.62704
1147.042, 22.31226
1147.524, 21.86284
1148.006, 21.38211
1148.488, 21.18889
1148.970, 21.28928
1149.453, 21.27119
1149.935, 20.88059
1150.417, 20.41886
1150.899, 20.08121
1151.381, 19.82585
1151.863, 19.63129
1152.345, 19.47990
1152.827, 19.38097
1153.310, 19.30249
1153.792, 19.15486
1154.274, 18.90802
1154.756, 18.67848
1155.238, 18.52522
1155.720, 18.39593
1156.202, 18.25249
1156.684, 18.13633
1157.167, 18.12310
1157.649, 18.13582
1158.131, 18.02365
1158.613, 17.79402
1159.095, 17.66268
1159.577, 17.76234
1160.059, 17.78773
1160.541, 17.63228
1161.023, 17.46714
1161.505, 17.31021
1161.988, 17.21390
1162.470, 17.29259
1162.952, 17.45516
1163.434, 17.43523
1163.916, 17.18030
1164.398, 17.01998
1164.880, 16.99740
1165.362, 16.97991
1165.844, 16.94287
1166.327, 16.92386
1166.809, 16.96783
1167.291, 16.99868
1167.773, 16.91395
1168.255, 16.72979
1168.737, 16.52131
1169.219, 16.26430
1169.701, 16.17806
1170.184, 16.30975
1170.666, 16.32199
1171.148, 16.09243
1171.630, 15.91048
1172.112, 16.00293
1172.594, 16.21852
1173.076, 16.27549
1173.558, 16.20871
1174.041, 16.23923
1174.523, 16.34112
1175.005, 16.28293
1175.487, 16.06471
1175.969, 15.99783
1176.451, 16.19689
1176.933, 16.31011
1177.415, 15.94860
1177.897, 15.50389
1178.380, 15.68482
1178.862, 16.17529
1179.344, 16.41460
1179.826, 16.41993
1180.308, 16.27173
1180.790, 16.03499
1181.272, 15.86339
1181.754, 15.83099
1182.236, 15.82931
1182.719, 15.77209
1183.201, 15.71321
1183.683, 15.69233
1184.165, 15.69942
1184.647, 15.76686
1185.129, 15.83453
1185.611, 15.74891
1186.093, 15.51672
1186.576, 15.41618
1187.058, 15.63782
1187.540, 15.79342
1188.022, 15.67328
1188.504, 15.56080
1188.986, 15.59046
1189.468, 15.69471
1189.950, 15.87798
1190.432, 16.06677
1190.915, 16.07056
1191.397, 15.85028
1191.879, 15.62310
1192.361, 15.26090
1192.843, 15.14314
1193.325, 15.44709
1193.807, 15.74742
1194.289, 15.87616
1194.771, 15.88061
1195.254, 15.78121
1195.736, 15.62292
1196.218, 15.58204
1196.700, 15.67330
1197.182, 15.74475
1197.664, 15.80049
1198.146, 15.76437
1198.628, 15.61650
1199.111, 15.44790
1199.593, 15.30550
1200.075, 15.20825
1200.557, 15.18029
1201.039, 15.21574
1201.521, 15.33300
1202.003, 15.49512
1202.485, 15.55923
1202.968, 15.54888
1203.450, 15.63357
1203.932, 15.81820
1204.414, 15.84424
1204.896, 15.54469
1205.378, 15.22477
1205.860, 15.22358
1206.342, 15.29741
1206.824, 15.17050
1207.307, 14.97136
1207.789, 14.86288
1208.271, 14.83306
1208.753, 14.80337
1209.235, 14.76597
1209.717, 14.81745
1210.199, 15.08716
1210.681, 15.25590
1211.163, 15.10186
1211.646, 14.95714
1212.128, 15.02486
1212.610, 15.14299
1213.092, 15.17406
1213.574, 15.13200
1214.056, 15.04070
1214.538, 14.88286
1215.020, 14.88192
1215.503, 15.13276
1215.985, 15.33184
1216.467, 15.48980
1216.949, 15.48115
1217.431, 15.19160
1217.913, 14.89246
1218.395, 14.84385
1218.877, 14.95410
1219.359, 15.01787
1219.842, 15.03152
1220.324, 14.84993
1220.806, 14.49828
1221.288, 14.42793
1221.770, 14.68055
1222.252, 14.89216
1222.734, 14.91150
1223.216, 14.90446
1223.698, 15.03176
1224.181, 15.18347
1224.663, 15.19871
1225.145, 15.13072
1225.627, 15.03341
1226.109, 14.93858
1226.591, 14.87372
1227.073, 14.86267
1227.555, 14.97558
1228.038, 15.23542
1228.520, 15.48030
1229.002, 15.70906
1229.484, 15.77981
1229.966, 15.47644
1230.448, 15.14865
1230.930, 15.03184
1231.412, 15.03697
1231.895, 15.09295
1232.377, 15.16084
1232.859, 15.11172
1233.341, 14.88270
1233.823, 14.75068
1234.305, 14.76779
1234.787, 14.77580
1235.269, 14.75585
1235.751, 14.70642
1236.234, 14.59206
1236.716, 14.53918
1237.198, 14.71198
1237.680, 15.01546
1238.162, 15.17443
1238.644, 15.18971
1239.126, 15.00995
1239.608, 14.66737
1240.090, 14.53185
1240.573, 14.64856
1241.055, 14.77687
1241.537, 14.80822
1242.019, 14.85330
1242.501, 15.02895
1242.983, 15.23448
1243.465, 15.38241
1243.947, 15.44354
1244.430, 15.32621
1244.912, 15.12187
1245.394, 14.98077
1245.876, 14.90470
1246.358, 14.80056
1246.840, 14.63760
1247.322, 14.55743
1247.804, 14.73311
1248.286, 14.82634
1248.769, 14.56360
1249.251, 14.38118
1249.733, 14.63413
1250.215, 14.98806
1250.697, 15.07472
1251.179, 14.98053
1251.661, 14.95979
1252.143, 15.02718
1252.625, 15.03299
1253.108, 14.97409
1253.590, 14.83740
1254.072, 14.58833
1254.554, 14.50081
1255.036, 14.69784
1255.518, 14.95517
1256.000, 15.08323
1256.482, 15.10476
1256.964, 15.02327
1257.447, 14.88459
1257.929, 14.79565
1258.411, 14.76981
1258.893, 14.92425
1259.375, 15.16779
1259.857, 15.12131
1260.339, 14.72583
1260.821, 14.44046
1261.304, 14.53927
1261.786, 14.76261
1262.268, 15.11304
1262.750, 15.33101
1263.232, 15.11368
1263.714, 14.80106
1264.196, 14.72943
1264.678, 14.80489
1265.161, 14.78708
1265.643, 14.66150
1266.125, 14.62774
1266.607, 14.69349
##END=



