##NAMES=Eudialyte
##RRUFFID=R060206
##IDEAL CHEMISTRY=Na_15_Ca_6_Fe^2+^_3_Zr^4+^_3_Si(Si_25_O_73_)(O,OH,H_2_O)_3_(Cl,OH)_2_
##LOCALITY=Desourdy Quarry, Mont Saint-Hilaire, Rouville County, Quebec, Canada
##OWNER=RRUFF
##SOURCE=Royal Ontario Museum
##DESCRIPTION=Yellowish-brown gemmy fragment
##STATUS=The identification of this mineral is confirmed by single-crystal X-ray diffraction and chemical analysis.
##URL=rruff.info/R060206
##MEASURED CHEMISTRY=(Na_13.12_Ca_1.62_K_0.26_)_Σ=15_(Ca_4.47_Mn_1.00_Ce_0.32_La_0.21_)_Σ=6_(Fe_2.91_Mn_0.09_)_Σ=3_Zr_3.00_(Si_0.85_Nb_0.15_)_Σ=1_Si_25.00_O_73_((OH)_2.70_O_0.30_)_Σ=3_(Cl_1.20_(OH)_0.80_)_Σ=2_
91.82715, 443.5466
92.30927, 438.0530
92.79138, 439.2452
93.27350, 443.3284
93.75562, 446.4977
94.23773, 448.8706
94.71985, 451.0312
95.20197, 451.2910
95.68408, 448.5230
96.16620, 444.4939
96.64832, 441.1733
97.13043, 439.0386
97.61255, 437.2002
98.09467, 434.2339
98.57678, 429.4118
99.05890, 424.5536
99.54102, 421.6064
100.0231, 419.7868
100.5052, 418.3336
100.9874, 416.8495
101.4695, 415.2314
101.9516, 413.2134
102.4337, 409.2240
102.9158, 406.3313
103.3979, 405.2508
103.8801, 405.5851
104.3622, 406.6072
104.8443, 407.7842
105.3264, 409.1313
105.8085, 410.4387
106.2906, 411.5017
106.7728, 412.5711
107.2549, 413.8714
107.7370, 415.3937
108.2191, 416.8309
108.7012, 417.6439
109.1833, 417.7459
109.6655, 418.5986
110.1476, 421.0529
110.6297, 424.1914
111.1118, 426.4485
111.5939, 427.0560
112.0760, 427.6661
112.5582, 430.4552
113.0403, 435.1931
113.5224, 439.5562
114.0045, 441.8693
114.4866, 442.2339
114.9687, 442.5770
115.4509, 443.4052
115.9330, 444.2183
116.4151, 444.7124
116.8972, 444.8413
117.3793, 444.7672
117.8614, 444.7303
118.3436, 444.8574
118.8257, 444.6769
119.3078, 443.9872
119.7899, 443.1044
120.2720, 442.2665
120.7541, 441.5677
121.2363, 440.9401
121.7184, 440.1835
122.2005, 438.8411
122.6826, 437.8803
123.1647, 437.6530
123.6468, 437.7968
124.1290, 437.7041
124.6111, 436.9534
125.0932, 435.7258
125.5753, 435.5820
126.0574, 437.2208
126.5395, 438.9534
127.0217, 440.2062
127.5038, 440.9827
127.9859, 441.3486
128.4680, 440.9960
128.9501, 440.2614
129.4323, 440.7363
129.9144, 443.2243
130.3965, 446.5639
130.8786, 449.6823
131.3607, 452.5555
131.8428, 455.1674
132.3250, 457.2408
132.8071, 459.0553
133.2892, 461.0840
133.7713, 463.5626
134.2534, 466.4123
134.7355, 469.4989
135.2176, 473.3241
135.6998, 476.6353
136.1819, 478.7201
136.6640, 479.8440
137.1461, 480.6699
137.6282, 481.7918
138.1103, 483.2860
138.5925, 484.2118
139.0746, 484.3937
139.5567, 484.1222
140.0388, 483.5241
140.5209, 482.5790
141.0030, 481.1485
141.4852, 479.0365
141.9673, 476.0147
142.4494, 472.8101
142.9315, 469.1930
143.4136, 465.6022
143.8957, 462.4166
144.3779, 459.7069
144.8600, 457.0751
145.3421, 453.8785
145.8242, 449.8739
146.3063, 445.6776
146.7884, 441.2992
147.2706, 436.7304
147.7527, 431.8374
148.2348, 426.4948
148.7169, 421.0785
149.1990, 416.3083
149.6811, 412.0836
150.1633, 408.3431
150.6454, 405.2201
151.1275, 402.5932
151.6096, 400.1354
152.0917, 397.7127
152.5738, 395.4260
153.0560, 393.3717
153.5381, 391.5939
154.0202, 389.9312
154.5023, 388.2498
154.9844, 386.5489
155.4665, 384.9570
155.9487, 383.5674
156.4308, 382.3076
156.9129, 381.1223
157.3950, 379.9907
157.8771, 378.9681
158.3592, 378.0764
158.8414, 377.1956
159.3235, 376.8076
159.8056, 377.3780
160.2877, 378.2551
160.7698, 378.8531
161.2519, 378.9052
161.7341, 378.6254
162.2162, 378.6285
162.6983, 378.9946
163.1804, 379.5934
163.6625, 380.8359
164.1446, 382.1705
164.6268, 382.8165
165.1089, 382.2894
165.5910, 380.8570
166.0731, 380.2528
166.5552, 381.1724
167.0373, 382.1550
167.5195, 382.8401
168.0016, 383.3784
168.4837, 384.1283
168.9658, 385.3482
169.4479, 387.0054
169.9300, 388.4321
170.4122, 388.8091
170.8943, 389.7614
171.3764, 392.5528
171.8585, 396.7981
172.3406, 400.6995
172.8227, 402.7291
173.3049, 403.1303
173.7870, 404.6317
174.2691, 407.9713
174.7512, 411.8968
175.2333, 415.3782
175.7154, 418.3716
176.1976, 421.4334
176.6797, 424.9694
177.1618, 428.8952
177.6439, 432.9318
178.1260, 437.0640
178.6081, 441.2694
179.0903, 445.4532
179.5724, 449.4433
180.0545, 453.8940
180.5366, 459.5651
181.0187, 465.8992
181.5008, 471.9841
181.9830, 477.2530
182.4651, 481.9857
182.9472, 487.0952
183.4293, 492.6555
183.9114, 498.5099
184.3935, 504.7216
184.8757, 511.1041
185.3578, 517.3580
185.8399, 523.1512
186.3220, 528.5825
186.8041, 534.5568
187.2862, 541.4778
187.7684, 548.6115
188.2505, 555.7350
188.7326, 562.8977
189.2147, 570.2719
189.6968, 578.0030
190.1789, 586.1458
190.6611, 593.9330
191.1432, 601.0815
191.6253, 608.2002
192.1074, 615.2203
192.5895, 622.3027
193.0716, 629.8636
193.5538, 638.2891
194.0359, 647.7852
194.5180, 656.6714
195.0001, 664.7230
195.4822, 672.5339
195.9643, 680.5402
196.4465, 688.6230
196.9286, 696.2553
197.4107, 702.8073
197.8928, 708.0713
198.3749, 713.9022
198.8570, 721.6052
199.3392, 728.8397
199.8213, 733.8543
200.3034, 736.6103
200.7855, 738.5497
201.2676, 741.0787
201.7497, 744.1993
202.2319, 746.1629
202.7140, 746.6898
203.1961, 746.1596
203.6782, 744.7819
204.1603, 742.5554
204.6424, 739.8605
205.1246, 737.1025
205.6067, 734.1693
206.0888, 730.4539
206.5709, 725.9091
207.0530, 720.4857
207.5351, 713.9763
208.0173, 706.1777
208.4994, 697.8809
208.9815, 689.6791
209.4636, 681.4482
209.9457, 672.8616
210.4278, 663.7765
210.9100, 654.2288
211.3921, 644.1123
211.8742, 633.1492
212.3563, 622.3074
212.8384, 612.3284
213.3205, 602.8496
213.8027, 593.2030
214.2848, 583.0925
214.7669, 572.5588
215.2490, 561.8746
215.7311, 550.7458
216.2132, 539.8939
216.6953, 529.5131
217.1775, 519.5800
217.6596, 510.0392
218.1417, 500.9581
218.6238, 492.2411
219.1059, 483.3808
219.5880, 474.0223
220.0702, 465.0355
220.5523, 456.6725
221.0344, 448.8481
221.5165, 441.3746
221.9986, 434.1986
222.4807, 427.2982
222.9629, 420.4408
223.4450, 413.2854
223.9271, 406.6361
224.4092, 400.7059
224.8913, 395.3692
225.3734, 390.4609
225.8556, 385.8716
226.3377, 381.5938
226.8198, 377.2080
227.3019, 372.4072
227.7840, 367.8494
228.2661, 363.7194
228.7483, 359.9344
229.2304, 356.3746
229.7125, 352.9447
230.1946, 349.6471
230.6767, 346.6100
231.1588, 343.9442
231.6410, 341.3905
232.1231, 339.0483
232.6052, 336.7624
233.0873, 334.2362
233.5694, 331.2762
234.0515, 327.9385
234.5337, 324.6158
235.0158, 321.3475
235.4979, 318.0299
235.9800, 314.4541
236.4621, 310.8082
236.9442, 307.4929
237.4264, 304.7815
237.9085, 302.5261
238.3906, 300.0237
238.8727, 296.9235
239.3548, 294.0272
239.8369, 291.7867
240.3191, 289.9784
240.8012, 287.9638
241.2833, 285.2558
241.7654, 282.3493
242.2475, 280.6978
242.7296, 280.8975
243.2118, 281.1452
243.6939, 280.7081
244.1760, 279.7187
244.6581, 278.5836
245.1402, 277.4923
245.6223, 276.3022
246.1045, 274.6822
246.5866, 272.4533
247.0687, 270.3434
247.5508, 268.7845
248.0329, 267.6641
248.5150, 266.5199
248.9972, 265.0722
249.4793, 263.7004
249.9614, 262.8975
250.4435, 262.6760
250.9256, 262.7850
251.4077, 263.3102
251.8899, 264.1179
252.3720, 264.6412
252.8541, 264.7310
253.3362, 264.4562
253.8183, 263.8004
254.3004, 262.7643
254.7826, 261.9351
255.2647, 261.8693
255.7468, 262.3929
256.2289, 262.5775
256.7110, 262.0223
257.1931, 261.4133
257.6753, 261.3705
258.1574, 261.8158
258.6395, 262.2500
259.1216, 262.1889
259.6037, 261.7790
260.0858, 261.8873
260.5680, 262.9026
261.0501, 264.0479
261.5322, 264.6952
262.0143, 265.0275
262.4964, 265.6044
262.9785, 266.9732
263.4607, 268.9633
263.9428, 270.5844
264.4249, 271.6225
264.9070, 272.5611
265.3891, 273.4725
265.8712, 274.4708
266.3534, 275.7799
266.8355, 277.5887
267.3176, 279.8028
267.7997, 282.0771
268.2818, 284.5810
268.7639, 286.8710
269.2461, 288.7450
269.7282, 290.3487
270.2103, 291.8853
270.6924, 293.4466
271.1745, 295.0296
271.6566, 296.6327
272.1388, 298.3958
272.6209, 299.9033
273.1030, 301.1017
273.5851, 302.0181
274.0672, 302.6375
274.5493, 302.9429
275.0315, 303.0226
275.5136, 303.0869
275.9957, 303.1445
276.4778, 303.1659
276.9599, 303.3862
277.4420, 303.4608
277.9242, 302.8910
278.4063, 301.5104
278.8884, 299.9355
279.3705, 299.3986
279.8526, 300.5614
280.3347, 301.3810
280.8169, 301.3104
281.2990, 301.0997
281.7811, 301.3390
282.2632, 302.1553
282.7453, 303.2080
283.2274, 303.9919
283.7096, 304.3745
284.1917, 304.8141
284.6738, 305.0463
285.1559, 305.5326
285.6380, 306.7626
286.1201, 308.6599
286.6023, 310.5991
287.0844, 311.8443
287.5665, 312.1950
288.0486, 312.5890
288.5307, 312.6447
289.0128, 313.0634
289.4950, 314.4496
289.9771, 316.5846
290.4592, 318.6885
290.9413, 320.0509
291.4234, 320.6197
291.9055, 321.0933
292.3877, 321.0624
292.8698, 321.3448
293.3519, 322.5503
293.8340, 324.2914
294.3161, 325.5289
294.7982, 326.0339
295.2804, 326.3689
295.7625, 326.5430
296.2446, 326.0743
296.7267, 326.4356
297.2088, 326.4644
297.6909, 326.4794
298.1731, 326.9576
298.6552, 326.5824
299.1373, 327.0532
299.6194, 327.1862
300.1015, 327.4739
300.5836, 327.4268
301.0658, 327.4832
301.5479, 327.8744
302.0300, 328.0801
302.5121, 327.9945
302.9942, 329.0738
303.4763, 330.0204
303.9585, 330.5646
304.4406, 330.6768
304.9227, 330.1255
305.4048, 329.3276
305.8869, 328.5924
306.3690, 328.0002
306.8512, 327.4581
307.3333, 326.8614
307.8154, 326.3032
308.2975, 325.4058
308.7796, 324.0546
309.2617, 322.5165
309.7439, 321.0326
310.2260, 319.5622
310.7081, 317.8218
311.1902, 315.4975
311.6723, 312.4507
312.1544, 309.7002
312.6366, 307.3181
313.1187, 305.0985
313.6008, 302.7770
314.0829, 300.5298
314.5650, 298.9029
315.0471, 298.4315
315.5293, 298.9380
316.0114, 298.0464
316.4935, 294.2065
316.9756, 290.6854
317.4577, 288.1456
317.9398, 286.3559
318.4220, 285.0171
318.9041, 283.9986
319.3862, 283.1191
319.8683, 281.7698
320.3504, 278.9396
320.8326, 276.9557
321.3147, 276.1670
321.7968, 276.1432
322.2789, 276.5639
322.7610, 277.2957
323.2431, 278.2365
323.7253, 279.2125
324.2074, 280.2405
324.6895, 281.2802
325.1716, 282.2177
325.6537, 283.2526
326.1358, 284.5757
326.6180, 286.1769
327.1001, 287.8617
327.5822, 289.4052
328.0643, 290.7322
328.5464, 292.3344
329.0285, 294.4126
329.5107, 296.5349
329.9928, 298.5277
330.4749, 300.4151
330.9570, 302.3144
331.4391, 304.3459
331.9212, 306.4771
332.4034, 308.2061
332.8855, 309.1945
333.3676, 310.1407
333.8497, 311.3178
334.3318, 312.4930
334.8139, 313.3011
335.2961, 313.5502
335.7782, 313.4046
336.2603, 313.3428
336.7424, 313.5732
337.2245, 313.5616
337.7066, 313.4067
338.1888, 312.9443
338.6708, 311.9137
339.1530, 310.2859
339.6351, 308.4263
340.1172, 306.9120
340.5993, 305.9982
341.0814, 304.7823
341.5635, 302.9518
342.0457, 301.1271
342.5278, 299.6099
343.0099, 298.4258
343.4920, 297.4818
343.9741, 296.7660
344.4562, 296.3108
344.9384, 295.4736
345.4205, 293.4561
345.9026, 291.8345
346.3847, 291.4439
346.8668, 291.7086
347.3489, 291.5284
347.8311, 290.1718
348.3132, 288.0026
348.7953, 286.5384
349.2774, 286.3571
349.7595, 285.9820
350.2416, 284.8205
350.7238, 283.5059
351.2059, 282.7054
351.6880, 282.6403
352.1701, 282.9758
352.6522, 283.2030
353.1343, 283.3312
353.6165, 283.3144
354.0986, 283.1410
354.5807, 282.8319
355.0628, 282.3701
355.5449, 281.7674
356.0270, 281.0763
356.5092, 280.3235
356.9913, 279.5108
357.4734, 278.7076
357.9555, 277.7427
358.4376, 277.0055
358.9197, 276.8654
359.4019, 277.0540
359.8840, 277.0496
360.3661, 276.5805
360.8482, 275.6868
361.3303, 274.3960
361.8124, 272.4615
362.2946, 270.6933
362.7767, 269.4233
363.2588, 268.4211
363.7409, 267.5462
364.2230, 266.7957
364.7051, 265.8964
365.1873, 264.3229
365.6694, 261.9516
366.1515, 259.9951
366.6336, 258.9682
367.1157, 258.2777
367.5978, 257.5731
368.0800, 256.8163
368.5621, 255.9680
369.0442, 254.8698
369.5263, 253.6175
370.0084, 252.6925
370.4905, 252.1902
370.9727, 251.9256
371.4548, 252.1012
371.9369, 252.4141
372.4190, 252.1151
372.9011, 250.4873
373.3832, 248.3773
373.8654, 247.1631
374.3475, 246.9720
374.8296, 246.6092
375.3117, 245.1539
375.7938, 243.3532
376.2759, 242.3902
376.7581, 242.6638
377.2402, 243.0052
377.7223, 242.2601
378.2044, 240.7710
378.6865, 240.1147
379.1686, 240.9636
379.6508, 242.3974
380.1329, 243.2630
380.6150, 243.5821
381.0971, 243.9194
381.5792, 244.3780
382.0613, 244.9919
382.5435, 245.7937
383.0256, 246.7888
383.5077, 247.9966
383.9898, 249.4674
384.4719, 251.2011
384.9540, 253.0820
385.4362, 255.2352
385.9183, 257.4095
386.4004, 259.4989
386.8825, 261.4856
387.3646, 263.3156
387.8467, 264.9073
388.3289, 266.4038
388.8110, 268.2496
389.2931, 270.8748
389.7752, 272.9079
390.2573, 273.8739
390.7394, 274.1870
391.2216, 274.2552
391.7037, 274.1838
392.1858, 274.0435
392.6679, 273.9445
393.1500, 273.9438
393.6321, 273.5949
394.1143, 272.4772
394.5964, 271.4195
395.0785, 271.0220
395.5606, 271.1071
396.0427, 271.1335
396.5248, 270.7828
397.0070, 270.0448
397.4891, 268.8200
397.9712, 266.3820
398.4533, 264.3414
398.9354, 263.1837
399.4175, 262.3613
399.8997, 261.3123
400.3818, 259.8534
400.8639, 258.0947
401.3460, 256.1660
401.8281, 253.9478
402.3102, 251.8999
402.7924, 249.8966
403.2745, 248.1337
403.7566, 246.9473
404.2387, 246.1233
404.7208, 245.0432
405.2029, 243.1761
405.6851, 240.6600
406.1672, 238.6629
406.6493, 237.6950
407.1314, 236.5395
407.6135, 234.6764
408.0956, 232.6055
408.5778, 230.9022
409.0599, 229.7780
409.5420, 228.9268
410.0241, 227.9221
410.5062, 226.7551
410.9883, 225.5051
411.4705, 224.1290
411.9526, 222.7181
412.4347, 221.2087
412.9168, 219.6775
413.3989, 218.4048
413.8810, 217.6269
414.3632, 217.2707
414.8453, 217.1809
415.3274, 217.6057
415.8095, 217.6780
416.2916, 216.8016
416.7737, 215.3308
417.2559, 213.6048
417.7380, 211.5452
418.2201, 209.5886
418.7022, 208.1567
419.1843, 207.2192
419.6664, 206.5358
420.1486, 206.2024
420.6307, 205.8811
421.1128, 205.2353
421.5949, 204.2842
422.0770, 202.9167
422.5591, 200.5528
423.0413, 197.9900
423.5234, 196.4875
424.0055, 196.1886
424.4876, 195.9410
424.9697, 194.8457
425.4518, 193.0452
425.9340, 191.6113
426.4161, 190.7921
426.8982, 190.0636
427.3803, 189.3206
427.8624, 188.4905
428.3445, 187.3267
428.8267, 185.6922
429.3088, 183.9944
429.7909, 182.9578
430.2730, 182.9808
430.7551, 182.8071
431.2372, 182.1143
431.7194, 181.4611
432.2015, 181.3682
432.6836, 181.7621
433.1657, 182.1136
433.6478, 181.9727
434.1299, 181.3954
434.6121, 181.1276
435.0942, 181.2561
435.5763, 181.6123
436.0584, 182.3694
436.5405, 183.2572
437.0226, 183.9710
437.5048, 184.4060
437.9869, 184.6965
438.4690, 184.9833
438.9511, 185.1325
439.4332, 185.7191
439.9153, 187.3235
440.3975, 188.8622
440.8796, 189.8729
441.3617, 190.4038
441.8438, 190.6966
442.3259, 190.8900
442.8080, 190.9733
443.2902, 190.8755
443.7723, 190.5109
444.2544, 190.1792
444.7365, 189.8839
445.2186, 189.7209
445.7007, 189.9089
446.1829, 190.5192
446.6650, 191.0052
447.1471, 190.7080
447.6292, 189.7996
448.1113, 189.2955
448.5934, 189.5345
449.0756, 189.8209
449.5577, 189.4367
450.0398, 188.6026
450.5219, 187.9668
451.0040, 187.7967
451.4861, 187.8296
451.9683, 187.8228
452.4504, 187.7901
452.9325, 187.8356
453.4146, 188.0153
453.8967, 188.2898
454.3788, 188.6003
454.8610, 188.9943
455.3431, 189.2769
455.8252, 189.3901
456.3073, 189.3784
456.7894, 189.2987
457.2715, 189.1551
457.7537, 188.8571
458.2358, 188.2299
458.7179, 187.2733
459.2000, 187.1312
459.6821, 188.5613
460.1642, 189.7930
460.6464, 190.3952
461.1285, 190.4844
461.6106, 190.1024
462.0927, 189.2937
462.5748, 188.4327
463.0569, 188.2287
463.5391, 189.1339
464.0212, 189.4616
464.5033, 188.8052
464.9854, 187.9901
465.4675, 187.3218
465.9496, 186.8150
466.4318, 186.3865
466.9139, 185.9722
467.3960, 185.6118
467.8781, 185.4534
468.3602, 185.5844
468.8423, 185.6895
469.3245, 185.8393
469.8066, 185.8272
470.2887, 185.3729
470.7708, 184.4513
471.2529, 183.5404
471.7350, 183.0608
472.2172, 182.9014
472.6993, 182.6174
473.1814, 182.1013
473.6635, 181.6723
474.1456, 181.9578
474.6277, 182.4652
475.1099, 181.9770
475.5920, 179.4836
476.0741, 177.0101
476.5562, 176.0954
477.0383, 176.3482
477.5204, 176.7560
478.0026, 177.1121
478.4847, 177.0277
478.9668, 175.7344
479.4489, 172.8128
479.9310, 170.7784
480.4131, 170.3328
480.8953, 170.3409
481.3774, 170.2853
481.8595, 170.0383
482.3416, 169.3928
482.8237, 168.1776
483.3058, 166.6181
483.7880, 165.4848
484.2701, 165.1720
484.7522, 164.7431
485.2343, 164.0131
485.7164, 163.2670
486.1985, 162.7518
486.6807, 162.4677
487.1628, 162.2122
487.6449, 161.7498
488.1270, 161.1184
488.6091, 160.8717
489.0912, 161.2092
489.5734, 161.6295
490.0555, 162.1500
490.5376, 162.5811
491.0197, 162.5882
491.5018, 162.0499
491.9839, 161.5726
492.4661, 162.0523
492.9482, 163.3222
493.4303, 163.7638
493.9124, 162.7734
494.3945, 161.6585
494.8766, 161.4881
495.3588, 162.0183
495.8409, 162.6939
496.3230, 163.5302
496.8051, 164.3275
497.2872, 164.8116
497.7693, 165.0885
498.2515, 165.5668
498.7336, 166.4145
499.2157, 167.4806
499.6978, 168.5678
500.1799, 169.7186
500.6620, 170.7243
501.1442, 171.2461
501.6263, 171.8900
502.1084, 173.2741
502.5905, 175.1900
503.0726, 176.9291
503.5547, 178.0516
504.0368, 178.7083
504.5190, 179.4410
505.0011, 180.5738
505.4832, 181.2473
505.9653, 180.8908
506.4474, 180.5003
506.9295, 180.9628
507.4117, 182.1977
507.8938, 183.3597
508.3759, 183.6890
508.8580, 183.3502
509.3401, 183.3221
509.8222, 183.7525
510.3044, 184.1670
510.7865, 184.4910
511.2686, 184.6633
511.7507, 184.5200
512.2328, 184.0026
512.7150, 183.5839
513.1971, 183.6691
513.6792, 184.1281
514.1613, 184.5509
514.6434, 184.8522
515.1255, 185.3197
515.6077, 186.2928
516.0898, 187.6265
516.5719, 188.6576
517.0540, 189.2109
517.5361, 189.6423
518.0182, 189.9028
518.5004, 190.2019
518.9825, 190.9195
519.4646, 192.1601
519.9467, 193.6814
520.4288, 195.1479
520.9109, 196.4469
521.3931, 198.5129
521.8752, 202.8772
522.3573, 206.2403
522.8394, 206.8228
523.3215, 205.8432
523.8036, 205.0619
524.2858, 205.1969
524.7679, 205.9408
525.2500, 206.8888
525.7321, 208.1064
526.2142, 209.1993
526.6964, 210.3531
527.1785, 211.1227
527.6606, 210.8674
528.1427, 210.1109
528.6248, 210.0481
529.1069, 211.4271
529.5891, 213.2949
530.0712, 214.3283
530.5533, 214.5813
531.0354, 214.9766
531.5175, 215.7522
531.9996, 216.7830
532.4818, 217.9782
532.9639, 219.3172
533.4460, 220.7183
533.9281, 221.9954
534.4102, 223.4666
534.8923, 225.5299
535.3745, 228.0303
535.8566, 230.4785
536.3387, 232.6283
536.8208, 234.6317
537.3029, 236.7584
537.7850, 238.9824
538.2672, 241.4593
538.7493, 244.7307
539.2314, 247.7393
539.7135, 249.7415
540.1956, 250.9771
540.6777, 252.2581
541.1599, 254.1207
541.6420, 256.1407
542.1241, 257.0955
542.6062, 256.5379
543.0883, 256.3694
543.5704, 257.2522
544.0526, 258.3743
544.5347, 259.1436
545.0168, 259.6599
545.4989, 260.4923
545.9810, 262.0080
546.4631, 263.9849
546.9453, 265.7924
547.4274, 267.4663
547.9095, 270.4025
548.3916, 275.4790
548.8737, 281.7095
549.3558, 287.2183
549.8380, 291.7258
550.3201, 297.1929
550.8022, 304.4239
551.2843, 312.3682
551.7664, 320.0668
552.2485, 327.6657
552.7307, 335.9568
553.2128, 345.4705
553.6949, 355.8225
554.1770, 366.0140
554.6591, 376.1610
555.1412, 385.8864
555.6234, 394.9657
556.1055, 403.9073
556.5876, 413.5298
557.0697, 423.3951
557.5518, 432.2181
558.0339, 439.3476
558.5161, 444.8051
558.9982, 448.4405
559.4803, 450.0552
559.9624, 450.9931
560.4445, 451.7845
560.9266, 451.7741
561.4088, 449.7646
561.8909, 446.0240
562.3730, 443.5818
562.8551, 443.5127
563.3372, 445.3048
563.8193, 448.5370
564.3015, 453.1752
564.7836, 459.3337
565.2657, 467.2574
565.7478, 476.1441
566.2299, 484.6871
566.7120, 493.1629
567.1942, 500.3570
567.6763, 507.6451
568.1584, 512.3445
568.6405, 513.4282
569.1226, 510.6221
569.6047, 503.5492
570.0869, 491.9837
570.5690, 476.7133
571.0511, 459.1220
571.5332, 438.4674
572.0153, 417.7796
572.4974, 397.6440
572.9796, 377.2456
573.4617, 355.0596
573.9438, 332.1842
574.4259, 311.5643
574.9080, 294.6382
575.3901, 280.0608
575.8723, 266.5684
576.3544, 254.1658
576.8365, 242.7284
577.3186, 232.2815
577.8007, 222.7328
578.2828, 214.0603
578.7650, 206.3099
579.2471, 199.3567
579.7292, 193.5151
580.2113, 188.1699
580.6934, 183.1692
581.1755, 178.4185
581.6577, 173.6419
582.1398, 168.8057
582.6219, 164.1844
583.1040, 160.1934
583.5861, 156.8813
584.0682, 153.8304
584.5504, 151.1511
585.0325, 148.5812
585.5145, 146.0528
585.9966, 143.5786
586.4788, 141.0726
586.9609, 138.4766
587.4430, 136.2854
587.9251, 135.1823
588.4072, 134.8996
588.8893, 134.3608
589.3715, 133.3901
589.8536, 132.4742
590.3357, 131.8474
590.8178, 131.5528
591.2999, 131.6565
591.7820, 132.3672
592.2642, 133.0904
592.7463, 133.6026
593.2284, 134.0521
593.7105, 134.5079
594.1926, 135.0320
594.6747, 135.8365
595.1569, 137.1074
595.6390, 138.7620
596.1211, 140.3357
596.6032, 141.5665
597.0853, 143.2015
597.5674, 145.7601
598.0496, 148.3581
598.5317, 150.0996
599.0138, 151.1806
599.4959, 152.7475
599.9780, 155.7086
600.4601, 159.4589
600.9423, 162.9254
601.4244, 166.1057
601.9065, 169.2290
602.3886, 172.3294
602.8707, 175.4695
603.3528, 178.7343
603.8350, 182.1358
604.3171, 185.5252
604.7992, 188.9424
605.2813, 192.3165
605.7634, 195.6901
606.2455, 198.9921
606.7277, 202.0988
607.2098, 204.9527
607.6919, 207.6066
608.1740, 210.0585
608.6561, 212.2405
609.1382, 214.6057
609.6204, 217.8037
610.1025, 220.4086
610.5846, 221.7520
611.0667, 222.3373
611.5488, 222.8859
612.0309, 223.6163
612.5131, 224.0327
612.9952, 223.5615
613.4773, 222.4098
613.9594, 221.2652
614.4415, 220.2186
614.9236, 218.9331
615.4058, 217.1130
615.8879, 214.9136
616.3700, 212.8242
616.8521, 210.8971
617.3342, 208.9437
617.8163, 206.8005
618.2985, 204.6923
618.7806, 202.8811
619.2627, 201.3167
619.7448, 199.6983
620.2269, 197.8072
620.7090, 195.8456
621.1912, 194.4374
621.6733, 193.7352
622.1554, 193.1274
622.6375, 192.4835
623.1196, 191.9834
623.6017, 191.6020
624.0839, 191.4452
624.5660, 191.8790
625.0481, 193.5483
625.5302, 195.0500
626.0123, 194.6480
626.4944, 192.8594
626.9766, 191.5204
627.4587, 191.0972
627.9408, 190.7743
628.4229, 189.7562
628.9050, 188.0578
629.3871, 186.4051
629.8693, 185.0722
630.3514, 183.4396
630.8335, 181.1664
631.3156, 178.6409
631.7977, 176.3263
632.2798, 174.2288
632.7620, 171.9078
633.2441, 168.9131
633.7262, 165.4571
634.2083, 162.4580
634.6904, 159.9946
635.1725, 157.6811
635.6547, 155.5357
636.1368, 153.3928
636.6189, 150.9117
637.1010, 148.1640
637.5831, 146.0124
638.0652, 145.2382
638.5474, 144.7154
639.0295, 143.4811
639.5116, 141.7599
639.9937, 140.0868
640.4758, 138.6504
640.9579, 137.5581
641.4401, 137.0732
641.9222, 137.3468
642.4043, 136.8087
642.8864, 134.5943
643.3685, 132.5575
643.8506, 131.1468
644.3328, 130.0754
644.8149, 129.0301
645.2970, 127.9521
645.7791, 126.9643
646.2612, 126.2068
646.7433, 125.6129
647.2255, 124.9926
647.7076, 124.3384
648.1897, 123.8468
648.6718, 123.6310
649.1539, 123.5850
649.6360, 123.5559
650.1182, 123.5593
650.6003, 123.5002
651.0824, 123.3325
651.5645, 123.1387
652.0466, 122.9300
652.5287, 122.7385
653.0109, 122.5367
653.4930, 122.3335
653.9751, 122.3687
654.4572, 123.1669
654.9393, 124.7643
655.4214, 125.4925
655.9036, 124.7944
656.3857, 124.3250
656.8678, 125.3395
657.3499, 126.7405
657.8320, 127.2039
658.3141, 126.4979
658.7963, 125.8642
659.2784, 125.8963
659.7605, 126.2582
660.2426, 126.5493
660.7247, 126.8080
661.2068, 127.3583
661.6890, 128.3788
662.1711, 129.5729
662.6532, 130.3909
663.1353, 130.6906
663.6174, 131.1248
664.0995, 131.7274
664.5817, 132.4346
665.0638, 133.2695
665.5459, 134.1814
666.0280, 135.1352
666.5101, 136.1270
666.9922, 137.0403
667.4744, 137.6436
667.9565, 138.1208
668.4386, 138.9451
668.9207, 140.1436
669.4028, 141.4949
669.8849, 142.9053
670.3671, 144.3562
670.8492, 145.7983
671.3313, 147.2484
671.8134, 148.6556
672.2955, 149.5840
672.7776, 150.9006
673.2598, 153.4612
673.7419, 156.6001
674.2240, 159.1698
674.7061, 160.7393
675.1882, 161.9725
675.6703, 163.5918
676.1525, 165.5847
676.6346, 167.8717
677.1167, 170.5433
677.5988, 173.2221
678.0809, 175.7073
678.5630, 178.1063
679.0452, 180.6047
679.5273, 183.2441
680.0094, 185.8411
680.4915, 188.2477
680.9736, 190.6746
681.4557, 193.3714
681.9379, 196.2044
682.4200, 198.8617
682.9021, 201.2092
683.3842, 203.3535
683.8663, 205.3963
684.3484, 207.3044
684.8306, 209.5128
685.3127, 212.1792
685.7948, 214.8506
686.2769, 217.2348
686.7590, 219.5729
687.2411, 222.1970
687.7233, 225.1548
688.2054, 228.0100
688.6875, 230.3863
689.1696, 232.7117
689.6517, 235.2266
690.1339, 238.0493
690.6160, 241.5787
691.0981, 245.9958
691.5802, 250.7022
692.0623, 254.8659
692.5444, 258.3467
693.0266, 262.2660
693.5087, 266.7782
693.9908, 271.5118
694.4729, 276.3887
694.9550, 281.3995
695.4371, 286.6424
695.9193, 292.0960
696.4014, 297.4695
696.8835, 302.5496
697.3656, 307.5007
697.8477, 312.7138
698.3298, 318.0701
698.8120, 323.0182
699.2941, 327.3286
699.7762, 331.2779
700.2583, 335.2113
700.7404, 339.1774
701.2225, 342.5317
701.7047, 344.5052
702.1868, 346.7928
702.6689, 350.2736
703.1510, 353.8022
703.6331, 356.3389
704.1152, 357.7840
704.5974, 358.6943
705.0795, 359.3547
705.5616, 359.7230
706.0437, 359.6610
706.5258, 359.2119
707.0079, 358.7661
707.4901, 358.5218
707.9722, 357.8031
708.4543, 355.8322
708.9364, 352.6317
709.4185, 349.4539
709.9006, 346.8201
710.3828, 343.4886
710.8649, 339.0692
711.3470, 334.0213
711.8291, 328.7108
712.3112, 323.1511
712.7933, 317.2079
713.2755, 310.6076
713.7576, 303.9486
714.2397, 298.0936
714.7218, 293.0074
715.2039, 288.1915
715.6860, 283.5889
716.1682, 279.2247
716.6503, 275.0349
717.1324, 271.1332
717.6145, 268.1107
718.0966, 266.5739
718.5787, 265.0055
719.0609, 262.7366
719.5430, 260.8716
720.0251, 260.1098
720.5072, 260.4184
720.9893, 261.5604
721.4714, 263.4685
721.9536, 265.8615
722.4357, 268.4936
722.9178, 271.3279
723.3999, 273.9566
723.8820, 276.2657
724.3641, 278.8993
724.8463, 282.2492
725.3284, 286.1614
725.8105, 290.1998
726.2926, 294.4644
726.7747, 298.6403
727.2568, 302.5001
727.7390, 306.5011
728.2211, 311.0255
728.7032, 315.8153
729.1853, 320.2806
729.6674, 324.2513
730.1495, 328.3893
730.6317, 333.6606
731.1138, 339.6568
731.5959, 344.8046
732.0780, 349.0338
732.5601, 353.0534
733.0422, 357.1770
733.5244, 361.2199
734.0065, 364.8739
734.4886, 368.0689
734.9707, 371.3021
735.4528, 374.6377
735.9349, 377.9307
736.4171, 381.4120
736.8992, 384.6538
737.3813, 387.1700
737.8634, 388.9241
738.3455, 390.3368
738.8276, 391.6758
739.3098, 392.9312
739.7919, 394.1747
740.2740, 395.3844
740.7561, 396.1766
741.2382, 396.4544
741.7203, 396.3211
742.2025, 395.9611
742.6846, 395.3122
743.1667, 393.6920
743.6488, 390.7294
744.1309, 387.4135
744.6130, 383.9229
745.0952, 380.0542
745.5773, 375.3944
746.0594, 370.2559
746.5415, 365.3950
747.0236, 361.2297
747.5057, 357.2948
747.9879, 353.1615
748.4700, 348.8288
748.9521, 344.2791
749.4342, 339.4735
749.9163, 334.8283
750.3984, 330.5039
750.8806, 326.5615
751.3627, 323.0950
751.8448, 320.1364
752.3269, 317.6357
752.8090, 316.1719
753.2911, 314.4668
753.7733, 311.7762
754.2554, 308.6548
754.7375, 305.7682
755.2196, 303.2881
755.7017, 301.2027
756.1838, 299.9042
756.6660, 298.7859
757.1481, 296.7744
757.6302, 293.9814
758.1123, 291.0391
758.5944, 288.1209
759.0765, 285.3989
759.5587, 283.1202
760.0408, 281.2760
760.5229, 278.9620
761.0050, 275.9439
761.4871, 272.7872
761.9692, 269.4356
762.4514, 266.1015
762.9335, 262.8627
763.4156, 259.7598
763.8977, 256.9436
764.3798, 254.8501
764.8619, 252.2991
765.3441, 247.8114
765.8262, 242.3639
766.3083, 237.6925
766.7904, 233.9783
767.2725, 230.7324
767.7546, 227.7063
768.2368, 224.6537
768.7189, 220.9819
769.2010, 216.4025
769.6831, 212.2286
770.1652, 208.5947
770.6473, 205.1734
771.1295, 201.9993
771.6116, 198.8681
772.0937, 195.4686
772.5758, 191.7430
773.0579, 188.2288
773.5400, 185.3939
774.0222, 182.6279
774.5043, 179.4888
774.9864, 176.0425
775.4685, 172.2303
775.9506, 168.1436
776.4327, 164.4531
776.9149, 161.8762
777.3970, 160.1913
777.8791, 158.5047
778.3612, 156.8727
778.8433, 154.8255
779.3254, 151.9995
779.8076, 149.1524
780.2897, 147.0434
780.7718, 145.4769
781.2539, 143.6792
781.7360, 141.2130
782.2181, 139.1513
782.7003, 138.0191
783.1824, 137.1649
783.6645, 136.1298
784.1466, 134.9160
784.6287, 133.6490
785.1108, 132.3741
785.5930, 131.1677
786.0751, 130.2048
786.5572, 129.3931
787.0393, 128.3087
787.5214, 126.9295
788.0035, 125.5644
788.4857, 124.3143
788.9678, 123.2376
789.4499, 122.5153
789.9320, 122.2655
790.4141, 121.4110
790.8962, 119.3252
791.3784, 117.4695
791.8605, 116.3960
792.3426, 115.4831
792.8247, 114.0399
793.3068, 112.1722
793.7889, 110.6306
794.2711, 109.9884
794.7532, 109.4192
795.2353, 108.0356
795.7174, 106.1495
796.1995, 104.4180
796.6816, 102.9233
797.1638, 101.4488
797.6459, 99.83952
798.1280, 98.24419
798.6101, 97.07751
799.0922, 96.51158
799.5743, 95.62381
800.0565, 94.16740
800.5386, 92.77687
801.0207, 91.67838
801.5028, 90.82899
801.9849, 90.34574
802.4670, 90.25603
802.9492, 89.78398
803.4313, 88.17193
803.9134, 86.69118
804.3955, 86.27468
804.8776, 86.41189
805.3597, 86.37612
805.8419, 86.03654
806.3240, 85.63924
806.8061, 85.35319
807.2882, 85.16363
807.7703, 85.09839
808.2524, 85.14458
808.7346, 85.02478
809.2167, 84.69516
809.6988, 84.17588
810.1809, 83.35379
810.6630, 82.44945
811.1451, 82.09941
811.6273, 82.56919
812.1094, 83.00710
812.5915, 83.50246
813.0736, 83.86451
813.5557, 84.11864
814.0378, 84.13656
814.5200, 83.55923
815.0021, 82.41311
815.4842, 81.58286
815.9663, 81.86375
816.4484, 82.54220
816.9305, 82.90444
817.4127, 82.99140
817.8948, 82.85429
818.3769, 82.52631
818.8590, 82.19893
819.3411, 82.02648
819.8232, 81.97139
820.3054, 81.99741
820.7875, 82.24316
821.2696, 81.86607
821.7517, 80.32613
822.2338, 78.94982
822.7159, 78.76646
823.1981, 79.12524
823.6802, 78.81750
824.1623, 77.63754
824.6444, 76.65406
825.1265, 76.20992
825.6086, 75.87791
826.0908, 75.55458
826.5729, 75.13345
827.0550, 74.34572
827.5371, 73.24817
828.0192, 72.41456
828.5013, 72.42162
828.9835, 72.73030
829.4656, 72.32549
829.9477, 71.38309
830.4298, 70.77771
830.9119, 70.66982
831.3940, 70.67956
831.8762, 70.58858
832.3583, 70.34798
832.8404, 69.59055
833.3225, 69.60831
833.8046, 69.45606
834.2867, 69.14297
834.7689, 68.18696
835.2510, 68.06110
835.7331, 67.60255
836.2152, 67.13038
836.6973, 67.12128
837.1794, 66.25890
837.6616, 66.24237
838.1437, 65.88827
838.6258, 65.68868
839.1079, 64.68395
839.5900, 64.81150
840.0721, 64.76906
840.5543, 64.56563
841.0364, 63.71953
841.5185, 63.70340
842.0006, 63.35465
842.4827, 62.99225
842.9648, 63.09298
843.4470, 62.34027
843.9291, 62.43365
844.4112, 62.18929
844.8933, 62.09950
845.3754, 61.67502
845.8575, 61.35395
846.3397, 61.36757
846.8218, 61.19591
847.3039, 60.73291
847.7860, 60.65294
848.2681, 59.88861
848.7502, 59.90979
849.2324, 59.46645
849.7145, 59.06348
850.1966, 58.77012
850.6787, 58.50326
851.1608, 58.06309
851.6429, 57.46450
852.1251, 57.79554
852.6072, 57.95657
853.0893, 57.95670
853.5714, 57.31407
854.0535, 57.50144
854.5356, 57.35619
855.0178, 57.19728
855.4999, 57.50148
855.9820, 56.95234
856.4641, 57.24918
856.9462, 57.20832
857.4283, 57.32203
857.9105, 57.10104
858.3926, 56.98344
858.8747, 57.20062
859.3568, 57.23243
859.8389, 56.97292
860.3210, 57.09645
860.8032, 56.53560
861.2853, 56.57531
861.7674, 56.87412
862.2495, 56.63144
862.7316, 56.76109
863.2137, 56.74894
863.6959, 56.09233
864.1780, 56.55648
864.6601, 56.53595
865.1422, 56.01775
865.6243, 56.44350
866.1064, 55.99392
866.5886, 55.85675
867.0707, 55.95474
867.5528, 55.80761
868.0349, 56.04693
868.5170, 55.91395
868.9991, 55.60611
869.4813, 56.26581
869.9634, 56.75538
870.4455, 57.08410
870.9276, 56.77005
871.4097, 57.28600
871.8918, 57.46929
872.3740, 57.63904
872.8561, 58.27177
873.3382, 58.05120
873.8203, 58.67663
874.3024, 58.96435
874.7845, 59.40659
875.2667, 59.51425
875.7488, 59.72519
876.2309, 60.27094
876.7130, 60.63132
877.1951, 60.70038
877.6772, 61.15245
878.1594, 60.92025
878.6415, 61.31569
879.1236, 61.11455
879.6057, 61.76801
880.0878, 62.11345
880.5699, 62.46980
881.0521, 63.31401
881.5342, 63.32932
882.0163, 64.21529
882.4984, 64.78815
882.9805, 65.54018
883.4626, 65.98205
883.9448, 66.55214
884.4269, 67.48138
884.9090, 68.24994
885.3911, 68.75178
885.8732, 69.66126
886.3553, 69.91090
886.8375, 70.78596
887.3196, 72.55869
887.8017, 74.41730
888.2838, 75.53201
888.7659, 75.84098
889.2480, 76.17176
889.7302, 76.13860
890.2123, 76.67281
890.6944, 78.50352
891.1765, 80.56571
891.6586, 81.89012
892.1407, 82.71074
892.6229, 83.91249
893.1050, 85.92249
893.5871, 87.71841
894.0692, 88.35937
894.5513, 88.62717
895.0334, 89.27499
895.5156, 90.32261
895.9977, 91.74806
896.4798, 93.49882
896.9619, 95.34480
897.4440, 97.13544
897.9261, 98.79166
898.4083, 100.0897
898.8904, 101.0433
899.3725, 101.6989
899.8546, 101.9976
900.3367, 102.7261
900.8188, 104.4038
901.3010, 106.6582
901.7831, 108.8019
902.2652, 110.8528
902.7473, 112.7428
903.2294, 114.6219
903.7115, 116.0671
904.1937, 116.4996
904.6758, 116.8632
905.1579, 118.0967
905.6400, 119.9606
906.1221, 121.4008
906.6042, 121.8611
907.0864, 122.6858
907.5685, 124.5656
908.0506, 126.5495
908.5327, 128.1619
909.0148, 129.3524
909.4969, 130.0247
909.9791, 130.2046
910.4612, 130.3995
910.9433, 130.9111
911.4254, 131.6271
911.9075, 132.7417
912.3896, 133.8709
912.8718, 133.9841
913.3539, 133.1883
913.8360, 132.8360
914.3181, 133.7117
914.8002, 135.0492
915.2823, 135.5454
915.7644, 135.3561
916.2465, 135.7942
916.7286, 136.9208
917.2108, 137.5943
917.6929, 137.3089
918.1750, 137.0746
918.6571, 137.8870
919.1392, 139.6178
919.6213, 141.5566
920.1035, 143.7371
920.5856, 146.0707
921.0677, 148.8167
921.5498, 151.3493
922.0319, 153.2171
922.5140, 154.7856
922.9962, 156.4470
923.4783, 158.1971
923.9604, 160.3165
924.4425, 162.8361
924.9246, 165.7522
925.4067, 169.5039
925.8889, 173.2958
926.3710, 176.4174
926.8531, 178.9856
927.3352, 181.3623
927.8173, 183.6511
928.2994, 185.9787
928.7816, 188.2104
929.2637, 190.7060
929.7458, 194.2101
930.2279, 198.2009
930.7100, 201.6363
931.1921, 204.3094
931.6743, 206.4919
932.1564, 208.3506
932.6385, 209.9652
933.1206, 211.4611
933.6027, 212.8301
934.0848, 214.1047
934.5670, 215.2721
935.0491, 216.0655
935.5312, 216.3516
936.0133, 216.3832
936.4954, 216.5380
936.9775, 216.7323
937.4597, 216.0252
937.9418, 214.1275
938.4239, 212.5651
938.9060, 211.6791
939.3881, 210.9350
939.8702, 210.1218
940.3524, 209.1307
940.8345, 207.6611
941.3166, 205.4957
941.7987, 203.6614
942.2808, 202.6821
942.7629, 201.3357
943.2451, 198.9587
943.7272, 196.4193
944.2093, 194.5670
944.6914, 193.1833
945.1735, 191.3762
945.6556, 188.7217
946.1378, 186.2749
946.6199, 184.3713
947.1020, 182.8474
947.5841, 181.9584
948.0662, 181.1994
948.5483, 179.7570
949.0305, 177.5939
949.5126, 175.4519
949.9947, 173.6811
950.4768, 172.2307
950.9589, 171.3121
951.4410, 170.5233
951.9232, 169.1393
952.4053, 167.2401
952.8874, 165.2774
953.3695, 163.4452
953.8516, 161.8368
954.3337, 160.7484
954.8159, 159.8111
955.2980, 157.6451
955.7801, 154.5594
956.2622, 152.9214
956.7443, 153.1388
957.2264, 153.4291
957.7086, 152.7699
958.1907, 151.3703
958.6728, 149.4890
959.1549, 147.1020
959.6370, 145.0865
960.1191, 143.4366
960.6013, 142.1915
961.0834, 141.4913
961.5655, 140.9084
962.0476, 140.1237
962.5297, 139.1688
963.0118, 138.1287
963.4940, 136.8113
963.9761, 135.8940
964.4582, 135.8677
964.9403, 135.5906
965.4224, 134.1928
965.9045, 132.7982
966.3867, 132.5382
966.8688, 133.2873
967.3509, 134.1367
967.8330, 135.4275
968.3151, 136.0225
968.7972, 135.0117
969.2794, 133.9276
969.7615, 133.7885
970.2436, 134.1152
970.7257, 134.2666
971.2078, 134.1074
971.6899, 133.6030
972.1721, 132.2113
972.6542, 131.1951
973.1363, 131.7986
973.6184, 132.8556
974.1005, 133.0713
974.5826, 132.6122
975.0648, 132.1775
975.5469, 131.9987
976.0290, 131.8736
976.5111, 131.4053
976.9932, 132.1141
977.4753, 132.2908
977.9575, 132.3958
978.4396, 132.4383
978.9217, 131.9363
979.4038, 132.3626
979.8859, 132.5546
980.3680, 132.8313
980.8502, 133.6695
981.3323, 133.7525
981.8144, 134.7799
982.2965, 135.5679
982.7786, 136.6088
983.2607, 136.1144
983.7429, 137.2459
984.2250, 138.0414
984.7071, 138.7141
985.1892, 139.7378
985.6713, 141.1259
986.1534, 142.3380
986.6356, 143.3257
987.1177, 144.4387
987.5998, 145.8115
988.0819, 147.2289
988.5640, 148.4399
989.0461, 149.5999
989.5283, 151.3127
990.0104, 153.9646
990.4925, 155.8562
990.9746, 156.2857
991.4567, 157.2968
991.9388, 159.8244
992.4210, 162.9471
992.9031, 165.9736
993.3852, 168.8297
993.8673, 171.0261
994.3494, 172.0301
994.8315, 173.2759
995.3137, 175.2095
995.7958, 176.8860
996.2779, 177.5689
996.7600, 178.0387
997.2421, 179.2917
997.7242, 181.2498
998.2064, 182.8498
998.6885, 183.7838
999.1706, 184.5036
999.6527, 184.9136
1000.135, 185.3569
1000.617, 186.1710
1001.099, 187.0945
1001.581, 187.8118
1002.063, 188.2500
1002.545, 188.2696
1003.028, 187.2003
1003.510, 186.5964
1003.992, 188.0454
1004.474, 189.7116
1004.956, 189.6963
1005.438, 188.5671
1005.920, 187.6259
1006.402, 187.2310
1006.884, 187.1626
1007.367, 187.6157
1007.849, 187.9042
1008.331, 187.1473
1008.813, 185.9713
1009.295, 185.1009
1009.777, 184.6561
1010.259, 184.7617
1010.741, 185.4106
1011.224, 185.9941
1011.706, 185.7737
1012.188, 185.4009
1012.670, 186.2231
1013.152, 187.5566
1013.634, 187.5547
1014.116, 186.3360
1014.598, 185.4579
1015.080, 185.6092
1015.563, 186.3608
1016.045, 187.4645
1016.527, 188.6277
1017.009, 189.0248
1017.491, 188.8061
1017.973, 188.5753
1018.455, 188.4587
1018.937, 188.7321
1019.419, 189.5496
1019.902, 190.6691
1020.384, 191.8873
1020.866, 193.0881
1021.348, 193.6550
1021.830, 193.6103
1022.312, 193.4877
1022.794, 193.3547
1023.276, 193.6484
1023.759, 194.6859
1024.241, 195.9543
1024.723, 196.6644
1025.205, 196.8370
1025.687, 196.6750
1026.169, 196.1298
1026.651, 195.6076
1027.133, 195.1243
1027.615, 195.0083
1028.098, 195.6470
1028.580, 196.3354
1029.062, 195.6939
1029.544, 193.6684
1030.026, 192.2947
1030.508, 191.8210
1030.990, 191.1188
1031.472, 190.0064
1031.955, 188.5627
1032.437, 186.7252
1032.919, 184.7109
1033.401, 182.9454
1033.883, 181.4859
1034.365, 179.7439
1034.847, 177.6561
1035.329, 175.3870
1035.812, 172.6898
1036.294, 170.2245
1036.776, 168.5620
1037.258, 167.3118
1037.740, 165.7206
1038.222, 163.7306
1038.704, 161.7226
1039.186, 159.4762
1039.668, 157.5906
1040.151, 156.6852
1040.633, 155.5820
1041.115, 153.3477
1041.597, 150.5131
1042.079, 148.0766
1042.561, 146.0509
1043.043, 144.2945
1043.525, 143.0908
1044.007, 141.7580
1044.490, 139.9456
1044.972, 138.2200
1045.454, 137.0608
1045.936, 136.1745
1046.418, 134.8583
1046.900, 132.9521
1047.382, 131.8979
1047.864, 132.8515
1048.347, 133.2541
1048.829, 131.8760
1049.311, 130.4362
1049.793, 130.1172
1050.275, 130.4708
1050.757, 130.6589
1051.239, 130.5827
1051.721, 130.6344
1052.203, 130.2238
1052.686, 130.8736
1053.168, 134.3945
1053.650, 137.7261
1054.132, 138.2415
1054.614, 137.3833
1055.096, 137.4812
1055.578, 138.8538
1056.060, 141.1774
1056.542, 145.6224
1057.025, 149.2619
1057.507, 150.5117
1057.989, 151.3157
1058.471, 152.8970
1058.953, 155.0491
1059.435, 156.9363
1059.917, 158.5940
1060.399, 161.9601
1060.882, 169.4503
1061.364, 176.2829
1061.846, 180.0123
1062.328, 183.2802
1062.810, 187.7243
1063.292, 193.1020
1063.774, 198.7352
1064.256, 204.5824
1064.739, 211.3113
1065.221, 219.5582
1065.703, 227.9962
1066.185, 236.5773
1066.667, 244.6331
1067.149, 251.9278
1067.631, 258.2901
1068.113, 263.8691
1068.595, 268.4399
1069.078, 270.8676
1069.560, 270.1075
1070.042, 268.5912
1070.524, 266.9934
1071.006, 265.4633
1071.488, 264.0347
1071.970, 262.7669
1072.452, 261.8856
1072.934, 261.2536
1073.417, 260.2668
1073.899, 258.7953
1074.381, 256.7112
1074.863, 253.7042
1075.345, 250.3440
1075.827, 247.0053
1076.309, 243.5428
1076.791, 239.6403
1077.274, 235.4260
1077.756, 231.5070
1078.238, 228.1755
1078.720, 224.6218
1079.202, 220.0770
1079.684, 215.6611
1080.166, 212.4433
1080.648, 209.4363
1081.130, 205.3123
1081.613, 200.4049
1082.095, 195.8484
1082.577, 191.9536
1083.059, 188.5689
1083.541, 185.5301
1084.023, 183.0519
1084.505, 181.7207
1084.987, 180.6116
1085.469, 178.8260
1085.952, 176.5131
1086.434, 174.0948
1086.916, 171.6605
1087.398, 169.6825
1087.880, 168.7730
1088.362, 167.8284
1088.844, 166.1463
1089.326, 164.3620
1089.808, 162.9194
1090.291, 161.8327
1090.773, 161.2599
1091.255, 161.1495
1091.737, 160.4569
1092.219, 158.3535
1092.701, 156.2247
1093.183, 154.8277
1093.665, 153.3539
1094.148, 150.9311
1094.630, 148.2219
1095.112, 146.3108
1095.594, 145.1999
1096.076, 143.9400
1096.558, 142.2949
1097.040, 140.3975
1097.522, 137.9617
1098.005, 135.6601
1098.487, 134.1972
1098.969, 132.8616
1099.451, 130.7680
1099.933, 128.0062
1100.415, 125.2260
1100.897, 122.5612
1101.379, 119.9422
1101.861, 117.2060
1102.344, 114.7144
1102.826, 112.7555
1103.308, 110.9699
1103.790, 109.0773
1104.272, 107.0651
1104.754, 104.9365
1105.236, 102.6155
1105.718, 100.4961
1106.200, 98.78366
1106.683, 97.09245
1107.165, 95.08241
1107.647, 93.27610
1108.129, 92.28481
1108.611, 91.66470
1109.093, 90.55237
1109.575, 88.85203
1110.057, 87.31474
1110.540, 85.86208
1111.022, 84.80901
1111.504, 84.68932
1111.986, 84.43214
1112.468, 83.31069
1112.950, 81.86497
1113.432, 80.80138
1113.914, 80.10653
1114.396, 79.40160
1114.879, 78.73703
1115.361, 77.96402
1115.843, 76.76582
1116.325, 75.91529
1116.807, 75.74262
1117.289, 75.96394
1117.771, 76.47453
1118.253, 77.13619
1118.735, 77.40305
1119.218, 77.17957
1119.700, 76.87548
1120.182, 76.51492
1120.664, 75.97888
1121.146, 74.95045
1121.628, 74.27762
1122.110, 74.76939
1122.592, 75.81901
1123.075, 76.16692
1123.557, 75.78123
1124.039, 75.16648
1124.521, 74.18062
1125.003, 73.53932
1125.485, 73.51244
1125.967, 73.27779
1126.449, 72.30373
1126.932, 71.15354
1127.414, 70.54476
1127.896, 70.46282
1128.378, 70.95604
1128.860, 72.14053
1129.342, 72.62469
1129.824, 72.17252
1130.306, 72.24294
1130.788, 73.48342
1131.271, 74.51183
1131.753, 73.93388
1132.235, 72.48552
1132.717, 72.14384
1133.199, 72.81116
1133.681, 73.10094
1134.163, 72.99326
1134.645, 72.71275
1135.127, 72.32032
1135.610, 72.20435
1136.092, 72.64060
1136.574, 73.17404
1137.056, 73.06347
1137.538, 72.52922
1138.020, 72.26103
1138.502, 72.23206
1138.984, 72.43199
1139.467, 72.78862
1139.949, 72.90046
1140.431, 72.61504
1140.913, 72.25979
1141.395, 72.63721
1141.877, 72.26219
1142.359, 71.84522
1142.841, 71.39576
1143.323, 70.43167
1143.806, 70.42548
1144.288, 70.21561
1144.770, 70.12033
1145.252, 70.61637
1145.734, 70.38738
1146.216, 71.13255
1146.698, 71.66838
1147.180, 72.48705
1147.662, 73.09912
1148.145, 73.94498
1148.627, 72.88196
1149.109, 72.05307
1149.591, 71.83749
1150.073, 72.61832
1150.555, 73.38892
1151.037, 73.59952
1151.519, 73.54426
1152.002, 73.14738
1152.484, 72.81615
1152.966, 72.88585
1153.448, 73.32570
1153.930, 74.33447
1154.412, 75.75295
1154.894, 76.20376
1155.376, 74.44576
1155.859, 73.28405
1156.341, 74.13840
1156.823, 75.10281
1157.305, 75.25748
1157.787, 75.00813
1158.269, 74.64592
1158.751, 74.28632
1159.233, 74.19812
1159.715, 74.42973
1160.198, 74.82133
1160.680, 75.36569
1161.162, 76.07473
1161.644, 77.35571
1162.126, 78.29382
1162.608, 78.14776
1163.090, 77.54488
1163.572, 77.33912
1164.054, 77.53026
1164.537, 78.22550
1165.019, 79.86860
1165.501, 80.50733
1165.983, 79.62600
1166.465, 78.98203
1166.947, 79.14432
1167.429, 79.93383
1167.911, 81.34018
1168.394, 82.98846
1168.876, 83.93514
1169.358, 84.17415
1169.840, 84.18803
1170.322, 83.97298
1170.804, 83.83727
1171.286, 83.83883
1171.768, 83.96722
1172.250, 84.21867
1172.733, 84.59081
1173.215, 85.16079
1173.697, 85.73560
1174.179, 85.55436
1174.661, 84.98986
1175.143, 85.47405
1175.625, 86.84293
1176.107, 87.88242
1176.589, 88.31114
1177.072, 88.93414
1177.554, 90.37603
1178.036, 91.62025
1178.518, 91.07047
1179.000, 90.02977
1179.482, 90.40120
1179.964, 91.40089
1180.446, 91.48183
1180.929, 90.87763
1181.411, 90.89751
1181.893, 91.93382
1182.375, 93.15380
1182.857, 94.41245
1183.339, 95.28864
1183.821, 94.93269
1184.303, 94.72700
1184.786, 96.11646
1185.268, 98.14392
1185.750, 99.47147
1186.232, 100.0438
1186.714, 100.4273
1187.196, 100.6697
1187.678, 100.9010
1188.160, 100.6296
1188.642, 101.0476
1189.125, 103.3439
1189.607, 105.5693
1190.089, 106.1018
1190.571, 105.9178
1191.053, 106.7746
1191.535, 108.6555
1192.017, 109.8011
1192.499, 109.8665
1192.981, 110.2575
1193.464, 111.1575
1193.946, 112.1368
1194.428, 113.1113
1194.910, 113.8575
1195.392, 114.1093
1195.874, 114.1462
1196.356, 114.5990
1196.838, 115.4539
1197.321, 116.5364
1197.803, 117.8478
1198.285, 119.7056
1198.767, 122.0627
1199.249, 123.7086
1199.731, 124.1100
1200.213, 124.2757
1200.695, 125.2082
1201.177, 126.4985
1201.660, 127.5936
1202.142, 128.4939
1202.624, 129.1632
1203.106, 129.6608
1203.588, 129.8973
1204.070, 130.0700
1204.552, 131.0020
1205.034, 133.1100
1205.516, 135.4352
1205.999, 137.4827
1206.481, 139.2857
1206.963, 140.7986
1207.445, 142.1250
1207.927, 143.3644
1208.409, 144.5032
1208.891, 145.3336
1209.373, 145.9226
1209.856, 147.0179
1210.338, 149.0867
1210.820, 151.0193
1211.302, 152.6461
1211.784, 154.1071
1212.266, 155.3673
1212.748, 156.5472
1213.230, 157.5679
1213.713, 158.6808
1214.195, 160.4406
1214.677, 162.8542
1215.159, 165.0649
1215.641, 167.0542
1216.123, 168.9676
1216.605, 170.8267
1217.087, 172.5933
1217.569, 174.2424
1218.052, 175.7837
1218.534, 177.1698
1219.016, 178.5958
1219.498, 180.5379
1219.980, 182.8411
1220.462, 184.9089
1220.944, 186.7413
1221.426, 188.3262
1221.908, 189.7096
1222.391, 190.9491
1222.873, 192.1271
1223.355, 193.9568
1223.837, 197.3111
1224.319, 200.7628
1224.801, 202.7628
1225.283, 204.1674
1225.765, 205.7861
1226.248, 207.5634
1226.730, 209.1039
1227.212, 210.6515
1227.694, 213.2346
1228.176, 217.2302
1228.658, 220.4889
1229.140, 221.8505
1229.622, 223.0121
1230.104, 224.2510
1230.587, 225.6621
1231.069, 227.0163
1231.551, 228.8066
1232.033, 231.9929
1232.515, 236.0071
1232.997, 238.6061
1233.479, 239.3797
1233.961, 240.9086
1234.443, 243.3832
1234.926, 245.8622
1235.408, 248.1369
1235.890, 250.7511
1236.372, 254.0666
1236.854, 257.2637
1237.336, 259.3431
1237.818, 260.8120
1238.300, 263.1070
1238.783, 265.9079
1239.265, 267.8882
1239.747, 269.2656
1240.229, 271.2083
1240.711, 273.7788
1241.193, 276.0863
1241.675, 277.7455
1242.157, 279.3770
1242.640, 281.5028
1243.122, 283.7852
1243.604, 286.0044
1244.086, 288.1982
1244.568, 290.6198
1245.050, 292.9143
1245.532, 294.3900
1246.014, 295.2359
1246.496, 296.3621
1246.979, 297.9810
1247.461, 299.7115
1247.943, 301.3963
1248.425, 303.3428
1248.907, 305.6724
1249.389, 308.2110
1249.871, 311.1474
1250.353, 313.8908
1250.835, 315.7894
1251.318, 316.9821
1251.800, 317.9337
1252.282, 318.6251
1252.764, 319.1974
1253.246, 319.6347
1253.728, 321.0900
1254.210, 323.7122
1254.692, 325.8041
1255.175, 326.6043
1255.657, 327.4649
1256.139, 329.8726
1256.621, 332.5209
1257.103, 333.0599
1257.585, 332.7975
1258.067, 333.8629
1258.549, 335.7373
1259.031, 337.3516
1259.514, 338.6344
1259.996, 339.9764
1260.478, 341.4937
1260.960, 342.9667
1261.442, 344.5092
1261.924, 345.6835
1262.406, 345.8702
1262.888, 346.2091
1263.370, 347.6920
1263.853, 349.2814
1264.335, 349.7872
1264.817, 349.6573
1265.299, 349.9064
1265.781, 350.5133
1266.263, 352.0158
1266.745, 354.7809
1267.227, 356.4829
1267.710, 356.7879
1268.192, 356.8138
1268.674, 356.9303
1269.156, 357.2922
1269.638, 358.0490
1270.120, 358.9547
1270.602, 359.5653
1271.084, 360.0638
1271.567, 360.8219
1272.049, 361.8116
1272.531, 363.2038
1273.013, 364.7051
1273.495, 365.5072
1273.977, 365.5274
1274.459, 365.5409
1274.941, 365.8506
1275.423, 366.3641
1275.906, 367.3342
1276.388, 368.1172
1276.870, 367.9814
1277.352, 367.9823
1277.834, 369.3390
1278.316, 371.1120
1278.798, 371.8037
1279.280, 371.5596
1279.762, 371.2843
1280.245, 370.8419
1280.727, 370.8929
1281.209, 371.5963
1281.691, 372.0767
1282.173, 372.1284
1282.655, 372.2000
1283.137, 372.5185
1283.619, 372.9878
1284.102, 373.5365
1284.584, 373.9408
1285.066, 373.8985
1285.548, 373.4783
##END=



