##NAMES=Eulytine
##RRUFFID=R060058
##IDEAL CHEMISTRY=Bi_4_(SiO_4_)_3_
##LOCALITY=Schneeberg, Saxony, Germany
##OWNER=RRUFF
##SOURCE=University of Arizona Mineral Museum
##DESCRIPTION=Pale-yellow interpenetrant tetrahedral crystals; some transmitting red color of matrix
##STATUS=The identification of this mineral is confirmed by single-crystal X-ray diffraction and chemical analysis.
##URL=rruff.info/R060058
##MEASURED CHEMISTRY=Bi_4.00_((Si_0.96_As^5+^_0.04_)_Σ=1_((O_3.96_(OH)_0.04_)_Σ=4_)_3_ ; (OH) estimated by difference and charge balance
88.41083, 3974.453
88.89294, 4321.644
89.37506, 4680.710
89.85718, 5135.266
90.33929, 5693.121
90.82141, 6344.522
91.30353, 7074.554
91.78564, 7879.734
92.26776, 8756.725
92.74988, 9707.829
93.23199, 10920.67
93.71411, 12042.61
94.19623, 13021.36
94.67834, 13818.24
95.16046, 14375.55
95.64258, 14609.92
96.12469, 14356.82
96.60681, 14116.22
97.08893, 13860.36
97.57104, 13628.92
98.05316, 13463.53
98.53528, 13379.22
99.01740, 13346.18
99.49951, 13294.67
99.98163, 13194.57
100.4637, 13124.68
100.9459, 13085.49
101.4280, 13087.59
101.9101, 13152.42
102.3922, 13267.85
102.8743, 13123.80
103.3564, 13132.62
103.8386, 13393.21
104.3207, 13705.89
104.8028, 13971.94
105.2849, 14239.25
105.7670, 14250.46
106.2491, 13748.19
106.7313, 12923.71
107.2134, 11998.20
107.6955, 10987.00
108.1776, 9928.136
108.6597, 8994.714
109.1418, 8192.158
109.6240, 7513.592
110.1061, 6950.552
110.5882, 6495.720
111.0703, 6124.507
111.5524, 5820.754
112.0345, 5585.655
112.5167, 5404.106
112.9988, 5295.401
113.4809, 5216.581
113.9630, 5143.853
114.4451, 5071.002
114.9272, 5009.917
115.4094, 4985.012
115.8915, 5019.738
116.3736, 5064.670
116.8557, 5123.839
117.3378, 5189.230
117.8199, 5249.363
118.3021, 5296.706
118.7842, 5336.180
119.2663, 5402.596
119.7484, 5507.647
120.2305, 5621.528
120.7127, 5737.552
121.1948, 5854.622
121.6769, 5969.896
122.1590, 6077.212
122.6411, 6178.432
123.1232, 6303.954
123.6054, 6469.953
124.0875, 6651.077
124.5696, 6822.961
125.0517, 6981.679
125.5338, 7139.909
126.0159, 7317.597
126.4981, 7509.406
126.9802, 7698.118
127.4623, 7871.157
127.9444, 8034.689
128.4265, 8216.610
128.9086, 8451.238
129.3907, 8667.674
129.8729, 8815.208
130.3550, 8892.574
130.8371, 8927.976
131.3192, 8946.174
131.8013, 8949.786
132.2834, 8916.465
132.7656, 8830.866
133.2477, 8711.277
133.7298, 8561.076
134.2119, 8380.075
134.6940, 8178.521
135.1761, 7975.346
135.6583, 7775.943
136.1404, 7563.591
136.6225, 7310.982
137.1046, 7054.643
137.5867, 6836.945
138.0688, 6682.453
138.5510, 6582.762
139.0331, 6477.883
139.5152, 6336.562
139.9973, 6222.323
140.4794, 6155.423
140.9615, 6126.997
141.4437, 6118.414
141.9258, 6115.615
142.4079, 6118.589
142.8900, 6131.124
143.3721, 6149.940
143.8542, 6178.478
144.3364, 6221.417
144.8185, 6277.993
145.3006, 6340.494
145.7827, 6400.683
146.2648, 6456.578
146.7469, 6519.358
147.2291, 6627.815
147.7112, 6727.949
148.1933, 6759.690
148.6754, 6706.335
149.1575, 6591.253
149.6396, 6435.488
150.1218, 6242.019
150.6039, 6032.714
151.0860, 5800.179
151.5681, 5555.297
152.0502, 5326.654
152.5324, 5128.274
153.0145, 4948.644
153.4966, 4764.930
153.9787, 4571.702
154.4608, 4391.214
154.9429, 4238.845
155.4251, 4114.135
155.9072, 4014.568
156.3893, 3952.479
156.8714, 3910.589
157.3535, 3876.974
157.8356, 3851.669
158.3178, 3828.069
158.7999, 3792.040
159.2820, 3732.082
159.7641, 3687.931
160.2462, 3689.909
160.7283, 3707.639
161.2105, 3703.697
161.6926, 3652.515
162.1747, 3570.523
162.6568, 3530.678
163.1389, 3576.120
163.6210, 3613.914
164.1032, 3611.783
164.5853, 3585.074
165.0674, 3561.964
165.5495, 3565.094
166.0316, 3595.780
166.5137, 3614.288
166.9959, 3603.013
167.4780, 3595.900
167.9601, 3612.267
168.4422, 3645.814
168.9243, 3674.260
169.4064, 3673.168
169.8886, 3631.435
170.3707, 3602.459
170.8528, 3590.996
171.3349, 3585.998
171.8170, 3584.184
172.2991, 3583.669
172.7813, 3580.409
173.2634, 3569.206
173.7455, 3548.474
174.2276, 3520.176
174.7097, 3466.705
175.1918, 3413.833
175.6740, 3391.412
176.1561, 3409.226
176.6382, 3446.025
177.1203, 3460.566
177.6024, 3436.737
178.0845, 3430.938
178.5667, 3469.428
179.0488, 3531.813
179.5309, 3580.100
180.0130, 3597.556
180.4951, 3598.050
180.9772, 3608.254
181.4594, 3619.318
181.9415, 3653.689
182.4236, 3736.784
182.9057, 3858.228
183.3878, 3967.999
183.8699, 4034.304
184.3521, 4082.746
184.8342, 4163.348
185.3163, 4291.023
185.7984, 4428.881
186.2805, 4542.375
186.7626, 4630.095
187.2448, 4728.907
187.7269, 4866.358
188.2090, 5022.006
188.6911, 5168.375
189.1732, 5290.522
189.6553, 5410.291
190.1375, 5562.150
190.6196, 5757.278
191.1017, 5948.525
191.5838, 6102.491
192.0659, 6242.594
192.5480, 6400.081
193.0302, 6589.965
193.5123, 6803.001
193.9944, 7017.466
194.4765, 7236.527
194.9586, 7450.123
195.4408, 7654.588
195.9229, 7850.881
196.4050, 8039.548
196.8871, 8216.916
197.3692, 8385.884
197.8513, 8572.638
198.3335, 8827.223
198.8156, 9038.163
199.2977, 9168.536
199.7798, 9230.449
200.2619, 9252.814
200.7440, 9258.972
201.2262, 9249.992
201.7083, 9190.737
202.1904, 9045.449
202.6725, 8877.887
203.1546, 8708.383
203.6367, 8533.466
204.1189, 8337.035
204.6010, 8099.430
205.0831, 7808.827
205.5652, 7537.865
206.0473, 7304.818
206.5294, 7072.041
207.0116, 6809.048
207.4937, 6522.094
207.9758, 6250.486
208.4579, 6041.625
208.9400, 5921.146
209.4221, 5782.877
209.9043, 5614.726
210.3864, 5441.146
210.8685, 5271.366
211.3506, 5109.642
211.8327, 4962.685
212.3148, 4841.412
212.7970, 4759.153
213.2791, 4676.468
213.7612, 4591.670
214.2433, 4507.500
214.7254, 4423.297
215.2075, 4339.929
215.6897, 4262.840
216.1718, 4201.966
216.6539, 4171.127
217.1360, 4130.158
217.6181, 4067.262
218.1002, 3998.850
218.5824, 3941.169
219.0645, 3898.987
219.5466, 3869.164
220.0287, 3848.833
220.5108, 3847.508
220.9929, 3833.590
221.4751, 3796.191
221.9572, 3745.779
222.4393, 3692.888
222.9214, 3638.982
223.4035, 3591.160
223.8856, 3567.507
224.3678, 3576.310
224.8499, 3580.814
225.3320, 3569.793
225.8141, 3548.521
226.2962, 3525.376
226.7783, 3501.500
227.2605, 3480.471
227.7426, 3470.752
228.2247, 3475.991
228.7068, 3479.194
229.1889, 3472.478
229.6710, 3458.741
230.1532, 3445.128
230.6353, 3434.020
231.1174, 3424.592
231.5995, 3415.552
232.0816, 3407.356
232.5637, 3398.327
233.0459, 3383.452
233.5280, 3365.795
234.0101, 3358.708
234.4922, 3372.328
234.9743, 3394.246
235.4564, 3403.622
235.9386, 3397.475
236.4207, 3388.168
236.9028, 3382.281
237.3849, 3379.624
237.8670, 3379.565
238.3491, 3386.135
238.8313, 3391.440
239.3134, 3382.900
239.7955, 3354.549
240.2776, 3328.775
240.7597, 3329.336
241.2418, 3354.011
241.7240, 3365.492
242.2061, 3336.417
242.6882, 3297.395
243.1703, 3284.829
243.6524, 3305.233
244.1345, 3339.967
244.6167, 3383.158
245.0988, 3435.068
245.5809, 3462.810
246.0630, 3433.182
246.5451, 3386.958
247.0272, 3366.029
247.5094, 3379.025
247.9915, 3404.326
248.4736, 3423.332
248.9557, 3435.886
249.4378, 3444.891
249.9199, 3454.663
250.4021, 3458.733
250.8842, 3447.612
251.3663, 3416.743
251.8484, 3385.179
252.3305, 3373.486
252.8126, 3383.334
253.2948, 3398.764
253.7769, 3421.283
254.2590, 3443.935
254.7411, 3460.536
255.2232, 3469.354
255.7053, 3475.971
256.1875, 3488.108
256.6696, 3507.385
257.1517, 3521.974
257.6338, 3520.328
258.1159, 3517.214
258.5981, 3522.484
259.0802, 3538.291
259.5623, 3561.792
260.0444, 3590.738
260.5265, 3625.835
261.0086, 3662.182
261.4908, 3706.352
261.9729, 3746.483
262.4550, 3771.272
262.9371, 3777.907
263.4192, 3780.871
263.9013, 3798.630
264.3835, 3834.153
264.8656, 3868.342
265.3477, 3891.718
265.8298, 3915.553
266.3119, 3948.149
266.7940, 3991.031
267.2762, 4037.457
267.7583, 4080.749
268.2404, 4121.540
268.7225, 4155.815
269.2046, 4170.251
269.6867, 4186.167
270.1689, 4220.004
270.6510, 4274.010
271.1331, 4331.231
271.6152, 4374.500
272.0973, 4403.829
272.5794, 4420.091
273.0616, 4405.855
273.5437, 4389.936
274.0258, 4392.961
274.5079, 4416.389
274.9900, 4438.202
275.4721, 4434.534
275.9543, 4402.765
276.4364, 4362.017
276.9185, 4305.067
277.4006, 4245.638
277.8827, 4192.573
278.3648, 4145.712
278.8470, 4096.795
279.3291, 4034.655
279.8112, 3956.231
280.2933, 3885.996
280.7754, 3835.073
281.2575, 3786.266
281.7397, 3731.496
282.2218, 3670.326
282.7039, 3607.393
283.1860, 3542.987
283.6681, 3475.915
284.1502, 3424.362
284.6324, 3402.183
285.1145, 3385.474
285.5966, 3366.509
286.0787, 3343.727
286.5608, 3315.695
287.0429, 3274.933
287.5251, 3221.133
288.0072, 3186.167
288.4893, 3186.029
288.9714, 3191.016
289.4535, 3186.684
289.9356, 3175.229
290.4178, 3166.092
290.8999, 3170.836
291.3820, 3188.009
291.8641, 3189.884
292.3462, 3160.835
292.8283, 3134.647
293.3105, 3128.559
293.7926, 3137.126
294.2747, 3145.713
294.7568, 3141.031
295.2389, 3127.184
295.7210, 3130.259
296.2032, 3161.592
296.6853, 3194.759
297.1674, 3218.282
297.6495, 3235.303
298.1316, 3251.971
298.6137, 3273.047
299.0959, 3296.172
299.5780, 3312.092
300.0601, 3316.426
300.5422, 3321.273
301.0243, 3326.767
301.5064, 3336.670
301.9886, 3357.385
302.4707, 3393.890
302.9528, 3441.124
303.4349, 3487.678
303.9170, 3533.790
304.3991, 3578.420
304.8813, 3624.164
305.3634, 3667.349
305.8455, 3702.062
306.3276, 3724.190
306.8097, 3740.680
307.2918, 3762.099
307.7740, 3788.360
308.2561, 3819.931
308.7382, 3856.941
309.2203, 3899.266
309.7024, 3952.279
310.1845, 4022.482
310.6667, 4086.458
311.1488, 4111.926
311.6309, 4094.461
312.1130, 4072.611
312.5951, 4055.910
313.0772, 4041.148
313.5594, 4024.521
314.0415, 4004.910
314.5236, 3987.699
315.0057, 3984.016
315.4878, 3993.485
315.9699, 3985.519
316.4521, 3933.523
316.9342, 3877.579
317.4163, 3858.985
317.8984, 3881.296
318.3805, 3903.641
318.8626, 3891.552
319.3448, 3851.588
319.8269, 3822.119
320.3090, 3810.750
320.7911, 3812.165
321.2732, 3820.764
321.7553, 3836.290
322.2375, 3856.616
322.7196, 3887.509
323.2017, 3922.736
323.6838, 3942.498
324.1659, 3938.783
324.6480, 3931.684
325.1302, 3940.069
325.6123, 3960.688
326.0944, 3981.753
326.5765, 3999.038
327.0586, 4014.207
327.5407, 4031.860
328.0229, 4053.756
328.5050, 4070.315
328.9871, 4070.440
329.4692, 4058.263
329.9513, 4046.870
330.4334, 4041.803
330.9156, 4036.645
331.3977, 4021.141
331.8798, 3995.050
332.3619, 3976.420
332.8440, 3983.892
333.3261, 4007.251
333.8083, 4007.954
334.2904, 3968.524
334.7725, 3920.883
335.2546, 3882.573
335.7367, 3852.833
336.2188, 3829.074
336.7010, 3811.374
337.1831, 3797.647
337.6652, 3781.573
338.1473, 3767.354
338.6294, 3745.447
339.1115, 3702.941
339.5937, 3650.240
340.0758, 3611.243
340.5579, 3596.450
341.0400, 3595.459
341.5221, 3587.012
342.0042, 3569.981
342.4864, 3549.589
342.9685, 3523.304
343.4506, 3495.453
343.9327, 3470.287
344.4148, 3448.949
344.8969, 3433.160
345.3791, 3426.828
345.8612, 3437.674
346.3433, 3437.334
346.8254, 3401.685
347.3075, 3370.718
347.7896, 3388.936
348.2718, 3455.268
348.7539, 3519.269
349.2360, 3527.742
349.7181, 3467.833
350.2002, 3433.151
350.6823, 3436.366
351.1645, 3448.489
351.6466, 3455.925
352.1287, 3459.803
352.6108, 3469.416
353.0929, 3493.893
353.5750, 3531.299
354.0572, 3544.469
354.5393, 3494.769
355.0214, 3463.900
355.5035, 3482.375
355.9856, 3529.057
356.4677, 3572.420
356.9499, 3596.406
357.4320, 3603.417
357.9141, 3599.849
358.3962, 3568.541
358.8783, 3551.945
359.3604, 3556.749
359.8426, 3575.706
360.3247, 3604.815
360.8068, 3641.961
361.2889, 3682.282
361.7710, 3717.279
362.2531, 3745.733
362.7353, 3772.183
363.2174, 3786.700
363.6995, 3807.182
364.1816, 3849.545
364.6637, 3912.708
365.1458, 3977.902
365.6280, 4021.861
366.1101, 4042.041
366.5922, 4079.254
367.0743, 4154.449
367.5564, 4226.203
368.0385, 4267.162
368.5207, 4287.876
369.0028, 4318.547
369.4849, 4383.446
369.9670, 4473.678
370.4491, 4553.344
370.9312, 4617.098
371.4134, 4681.676
371.8955, 4750.866
372.3776, 4826.571
372.8597, 4911.677
373.3418, 5007.230
373.8239, 5113.010
374.3061, 5228.731
374.7882, 5354.084
375.2703, 5491.325
375.7524, 5653.793
376.2345, 5821.796
376.7166, 5966.468
377.1988, 6076.921
377.6809, 6187.424
378.1630, 6316.960
378.6451, 6465.486
379.1272, 6634.904
379.6093, 6831.935
380.0915, 7042.074
380.5736, 7249.098
381.0557, 7453.958
381.5378, 7650.585
382.0199, 7826.835
382.5020, 7997.405
382.9842, 8188.943
383.4663, 8406.229
383.9484, 8621.438
384.4305, 8799.769
384.9126, 8938.846
385.3947, 9107.173
385.8769, 9336.330
386.3590, 9571.855
386.8411, 9785.025
387.3232, 9973.212
387.8053, 10133.89
388.2874, 10261.32
388.7696, 10359.60
389.2517, 10463.96
389.7338, 10603.36
390.2159, 10714.62
390.6980, 10768.39
391.1801, 10786.62
391.6623, 10802.34
392.1444, 10829.46
392.6265, 10859.48
393.1086, 10873.98
393.5907, 10867.88
394.0728, 10851.67
394.5550, 10836.90
395.0371, 10805.75
395.5192, 10748.76
396.0013, 10662.44
396.4834, 10542.34
396.9655, 10384.02
397.4477, 10185.94
397.9298, 9954.087
398.4119, 9653.627
398.8940, 9349.360
399.3761, 9076.505
399.8582, 8820.562
400.3404, 8540.151
400.8225, 8194.710
401.3046, 7806.172
401.7867, 7481.026
402.2688, 7244.887
402.7509, 7028.956
403.2331, 6811.871
403.7152, 6597.386
404.1973, 6389.301
404.6794, 6186.771
405.1615, 5995.430
405.6436, 5823.398
406.1258, 5670.216
406.6079, 5530.194
407.0900, 5403.112
407.5721, 5288.073
408.0542, 5184.579
408.5363, 5093.073
409.0185, 5003.658
409.5006, 4908.434
409.9827, 4810.993
410.4648, 4721.182
410.9469, 4640.171
411.4290, 4568.313
411.9112, 4511.341
412.3933, 4466.738
412.8754, 4420.115
413.3575, 4359.039
413.8396, 4302.085
414.3217, 4277.007
414.8039, 4278.465
415.2860, 4260.333
415.7681, 4186.117
416.2502, 4073.263
416.7323, 4008.383
417.2144, 4025.316
417.6966, 4041.787
418.1787, 4036.761
418.6608, 4016.866
419.1429, 3988.400
419.6250, 3953.242
420.1071, 3920.017
420.5893, 3903.668
421.0714, 3913.875
421.5535, 3922.413
422.0356, 3931.377
422.5177, 3937.210
422.9998, 3938.128
423.4820, 3933.726
423.9641, 3923.892
424.4462, 3908.027
424.9283, 3886.054
425.4104, 3863.145
425.8925, 3820.878
426.3747, 3799.739
426.8568, 3825.734
427.3389, 3875.001
427.8210, 3913.360
428.3031, 3924.715
428.7852, 3917.353
429.2674, 3904.735
429.7495, 3883.267
430.2316, 3869.174
430.7137, 3869.017
431.1958, 3876.887
431.6779, 3893.317
432.1601, 3918.030
432.6422, 3938.076
433.1243, 3940.742
433.6064, 3929.415
434.0885, 3920.001
434.5706, 3915.860
435.0528, 3910.830
435.5349, 3899.631
436.0170, 3883.303
436.4991, 3864.131
436.9812, 3839.702
437.4633, 3814.749
437.9455, 3794.604
438.4276, 3778.854
438.9097, 3764.396
439.3918, 3752.514
439.8739, 3738.799
440.3560, 3707.356
440.8382, 3645.599
441.3203, 3587.761
441.8024, 3548.748
442.2845, 3517.264
442.7666, 3472.777
443.2487, 3410.623
443.7309, 3352.405
444.2130, 3331.061
444.6951, 3364.640
445.1772, 3375.784
445.6593, 3349.702
446.1414, 3317.916
446.6236, 3295.813
447.1057, 3282.465
447.5878, 3270.351
448.0699, 3254.371
448.5520, 3235.128
449.0341, 3216.586
449.5163, 3200.747
449.9984, 3182.300
450.4805, 3158.544
450.9626, 3132.819
451.4447, 3106.179
451.9268, 3078.881
452.4090, 3057.996
452.8911, 3056.519
453.3732, 3075.304
453.8553, 3087.025
454.3374, 3089.961
454.8195, 3081.398
455.3017, 3051.496
455.7838, 3006.430
456.2659, 2976.089
456.7480, 2989.564
457.2301, 3019.606
457.7122, 3019.222
458.1944, 2985.462
458.6765, 2954.161
459.1586, 2948.163
459.6407, 2959.411
460.1229, 2959.701
460.6050, 2939.677
461.0871, 2922.649
461.5692, 2922.367
462.0513, 2930.563
462.5334, 2932.479
463.0156, 2923.601
463.4977, 2909.583
463.9798, 2898.176
464.4619, 2890.795
464.9440, 2881.562
465.4261, 2869.092
465.9083, 2856.159
466.3904, 2841.099
466.8725, 2826.512
467.3546, 2820.185
467.8367, 2828.911
468.3188, 2848.080
468.8010, 2853.195
469.2831, 2832.004
469.7652, 2815.596
470.2473, 2810.675
470.7294, 2811.683
471.2115, 2815.195
471.6937, 2820.021
472.1758, 2822.603
472.6579, 2817.962
473.1400, 2806.171
473.6221, 2793.803
474.1042, 2775.875
474.5864, 2765.948
475.0685, 2780.599
475.5506, 2811.100
476.0327, 2830.432
476.5148, 2822.066
476.9969, 2801.552
477.4791, 2783.366
477.9612, 2767.851
478.4433, 2761.259
478.9254, 2769.714
479.4075, 2786.225
479.8896, 2794.094
480.3718, 2792.509
480.8539, 2786.383
481.3360, 2771.134
481.8181, 2754.869
482.3002, 2747.123
482.7823, 2749.380
483.2645, 2757.888
483.7466, 2770.639
484.2287, 2789.208
484.7108, 2793.540
485.1929, 2769.540
485.6750, 2747.985
486.1572, 2735.211
486.6393, 2731.866
487.1214, 2739.581
487.6035, 2759.454
488.0856, 2784.934
488.5677, 2803.605
489.0499, 2815.189
489.5320, 2821.125
490.0141, 2819.237
490.4962, 2813.218
490.9783, 2798.876
491.4604, 2779.593
491.9426, 2771.537
492.4247, 2796.721
492.9068, 2838.302
493.3889, 2853.537
493.8710, 2836.851
494.3531, 2820.818
494.8353, 2820.743
495.3174, 2835.272
495.7995, 2860.570
496.2816, 2909.479
496.7637, 2946.326
497.2458, 2940.095
497.7280, 2913.798
498.2101, 2913.291
498.6922, 2950.726
499.1743, 2992.579
499.6564, 2996.037
500.1385, 2947.890
500.6207, 2929.250
501.1028, 2957.196
501.5849, 2993.223
502.0670, 3028.575
502.5491, 3057.919
503.0313, 3074.570
503.5134, 3074.660
503.9955, 3061.684
504.4776, 3041.055
504.9597, 3003.642
505.4418, 2981.812
505.9240, 3001.654
506.4061, 3021.311
506.8882, 3014.491
507.3703, 2980.690
507.8524, 2936.149
508.3345, 2885.898
508.8167, 2833.954
509.2988, 2790.109
509.7809, 2753.866
510.2630, 2729.748
510.7451, 2727.949
511.2272, 2738.123
511.7094, 2737.296
512.1915, 2719.842
512.6736, 2699.628
513.1557, 2681.849
513.6378, 2666.193
514.1199, 2653.701
514.6021, 2644.513
515.0842, 2633.466
515.5663, 2612.952
516.0484, 2579.219
516.5305, 2561.665
517.0126, 2576.381
517.4948, 2587.655
517.9769, 2577.776
518.4590, 2555.480
518.9411, 2533.600
519.4232, 2517.879
519.9053, 2513.233
520.3875, 2536.345
520.8696, 2602.824
521.3517, 2642.934
521.8338, 2625.162
522.3159, 2597.510
522.7980, 2584.325
523.2802, 2584.730
523.7623, 2586.840
524.2444, 2576.033
524.7265, 2565.869
525.2086, 2593.555
525.6907, 2662.065
526.1729, 2702.494
526.6550, 2666.941
527.1371, 2594.207
527.6192, 2569.729
528.1013, 2611.296
528.5834, 2648.773
529.0656, 2662.589
529.5477, 2661.565
530.0298, 2646.434
530.5119, 2621.604
530.9940, 2611.799
531.4761, 2642.974
531.9583, 2712.148
532.4404, 2747.577
532.9225, 2725.974
533.4046, 2695.300
533.8867, 2652.619
534.3688, 2609.667
534.8510, 2579.447
535.3331, 2565.516
535.8152, 2558.112
536.2973, 2548.209
536.7794, 2535.742
537.2615, 2515.546
537.7437, 2480.747
538.2258, 2448.370
538.7079, 2432.926
539.1900, 2426.891
539.6721, 2414.256
540.1542, 2385.583
540.6364, 2355.858
541.1185, 2338.934
541.6006, 2331.333
542.0827, 2321.859
542.5648, 2307.047
543.0469, 2289.262
543.5291, 2270.613
544.0112, 2248.894
544.4933, 2236.448
544.9754, 2243.295
545.4575, 2249.713
545.9396, 2245.624
546.4218, 2232.774
546.9039, 2216.055
547.3860, 2197.775
547.8681, 2178.911
548.3502, 2159.812
548.8323, 2136.074
549.3145, 2124.886
549.7966, 2148.830
550.2787, 2169.444
550.7608, 2158.496
551.2429, 2122.366
551.7250, 2094.680
552.2072, 2104.352
552.6893, 2128.194
553.1714, 2124.680
553.6535, 2093.838
554.1356, 2064.842
554.6177, 2051.444
555.0999, 2046.010
555.5820, 2030.910
556.0641, 1999.470
556.5462, 1981.113
557.0283, 1995.747
557.5104, 2015.862
557.9926, 2017.120
558.4747, 1999.594
558.9568, 1975.751
559.4389, 1953.927
559.9210, 1934.198
560.4031, 1917.023
560.8853, 1899.188
561.3674, 1889.917
561.8495, 1890.074
562.3316, 1898.355
562.8137, 1921.172
563.2958, 1955.413
563.7780, 1978.876
564.2601, 1969.104
564.7422, 1935.218
565.2243, 1900.640
565.7064, 1862.950
566.1885, 1841.747
566.6707, 1857.092
567.1528, 1891.937
567.6349, 1906.696
568.1170, 1895.319
568.5991, 1878.471
569.0812, 1858.135
569.5634, 1838.530
570.0455, 1823.416
570.5276, 1813.821
571.0097, 1812.203
571.4918, 1822.000
571.9739, 1841.643
572.4561, 1853.962
572.9382, 1858.978
573.4203, 1855.853
573.9024, 1833.298
574.3845, 1809.722
574.8666, 1806.053
575.3488, 1824.328
575.8309, 1842.757
576.3130, 1836.638
576.7951, 1813.694
577.2772, 1809.099
577.7593, 1828.277
578.2415, 1848.338
578.7236, 1857.847
579.2057, 1858.736
579.6878, 1856.196
580.1699, 1848.090
580.6520, 1841.157
581.1342, 1839.568
581.6163, 1839.814
582.0984, 1837.650
582.5805, 1832.427
583.0626, 1825.417
583.5447, 1817.286
584.0269, 1808.314
584.5090, 1802.526
584.9911, 1802.763
585.4732, 1802.494
585.9553, 1803.868
586.4374, 1802.410
586.9196, 1791.780
587.4017, 1771.757
587.8838, 1751.926
588.3659, 1739.344
588.8480, 1733.547
589.3301, 1733.886
589.8123, 1741.386
590.2944, 1749.796
590.7765, 1756.751
591.2586, 1761.761
591.7407, 1764.467
592.2228, 1766.136
592.7050, 1762.922
593.1871, 1746.391
593.6692, 1728.621
594.1513, 1725.857
594.6334, 1737.470
595.1155, 1747.396
595.5977, 1741.428
596.0798, 1723.844
596.5619, 1724.662
597.0440, 1767.904
597.5261, 1787.929
598.0082, 1753.914
598.4904, 1709.463
598.9725, 1689.956
599.4546, 1698.038
599.9367, 1711.446
600.4188, 1715.558
600.9009, 1714.263
601.3831, 1716.552
601.8652, 1722.756
602.3473, 1725.334
602.8294, 1717.813
603.3115, 1706.998
603.7936, 1709.897
604.2758, 1733.050
604.7579, 1750.430
605.2400, 1758.645
605.7221, 1759.604
606.2042, 1749.457
606.6863, 1732.733
607.1685, 1721.406
607.6506, 1723.090
608.1327, 1735.163
608.6148, 1752.891
609.0969, 1782.267
609.5790, 1798.172
610.0612, 1783.434
610.5433, 1764.998
611.0254, 1765.315
611.5075, 1779.767
611.9896, 1782.365
612.4717, 1746.537
612.9539, 1704.773
613.4360, 1695.547
613.9181, 1712.377
614.4002, 1725.453
614.8823, 1722.955
615.3644, 1717.151
615.8466, 1728.222
616.3287, 1765.379
616.8108, 1785.304
617.2929, 1775.837
617.7750, 1763.607
618.2571, 1762.015
618.7393, 1764.982
619.2214, 1758.799
619.7035, 1737.484
620.1856, 1715.064
620.6677, 1711.373
621.1498, 1726.086
621.6320, 1745.652
622.1141, 1776.135
622.5962, 1795.915
623.0783, 1778.308
623.5604, 1737.868
624.0425, 1715.032
624.5247, 1730.586
625.0068, 1741.919
625.4889, 1722.306
625.9710, 1689.778
626.4531, 1667.960
626.9352, 1662.209
627.4174, 1669.685
627.8995, 1690.742
628.3816, 1723.742
628.8637, 1737.149
629.3458, 1718.700
629.8279, 1699.558
630.3101, 1681.655
630.7922, 1668.935
631.2743, 1670.343
631.7564, 1685.381
632.2385, 1692.058
632.7206, 1661.913
633.2028, 1619.768
633.6849, 1615.512
634.1670, 1648.838
634.6491, 1675.973
635.1312, 1674.822
635.6133, 1656.270
636.0955, 1642.647
636.5776, 1635.997
637.0597, 1630.654
637.5418, 1625.034
638.0239, 1622.132
638.5060, 1628.545
638.9882, 1638.715
639.4703, 1639.157
639.9524, 1621.977
640.4345, 1598.109
640.9166, 1584.914
641.3987, 1582.469
641.8809, 1587.900
642.3630, 1604.955
642.8451, 1622.789
643.3272, 1634.776
643.8093, 1640.779
644.2914, 1638.546
644.7736, 1622.674
645.2557, 1604.242
645.7378, 1586.441
646.2199, 1569.895
646.7020, 1553.970
647.1841, 1539.267
647.6663, 1530.510
648.1484, 1533.657
648.6305, 1547.613
649.1126, 1555.889
649.5947, 1556.361
650.0768, 1554.780
650.5590, 1549.021
651.0411, 1544.298
651.5232, 1546.278
652.0053, 1555.306
652.4874, 1564.357
652.9695, 1573.353
653.4517, 1578.096
653.9338, 1570.422
654.4159, 1551.964
654.8980, 1532.659
655.3801, 1516.006
655.8622, 1504.583
656.3444, 1504.174
656.8265, 1522.649
657.3086, 1530.514
657.7907, 1521.722
658.2728, 1510.087
658.7549, 1495.039
659.2371, 1482.857
659.7192, 1486.589
660.2013, 1513.185
660.6834, 1540.074
661.1655, 1535.884
661.6476, 1508.684
662.1298, 1499.323
662.6119, 1515.724
663.0940, 1532.560
663.5761, 1531.432
664.0582, 1516.336
664.5403, 1506.761
665.0225, 1507.014
665.5046, 1506.018
665.9867, 1503.578
666.4688, 1498.166
666.9509, 1484.625
667.4330, 1466.031
667.9152, 1453.663
668.3973, 1456.133
668.8794, 1467.888
669.3615, 1475.698
669.8436, 1479.120
670.3257, 1482.679
670.8079, 1488.295
671.2900, 1493.057
671.7721, 1496.970
672.2542, 1498.988
672.7363, 1489.505
673.2184, 1451.795
673.7006, 1418.857
674.1827, 1412.227
674.6648, 1419.287
675.1469, 1419.253
675.6290, 1407.799
676.1111, 1397.203
676.5933, 1401.967
677.0754, 1420.053
677.5575, 1424.655
678.0396, 1407.151
678.5217, 1395.945
679.0038, 1409.791
679.4860, 1427.929
679.9681, 1427.727
680.4502, 1407.769
680.9323, 1392.958
681.4144, 1396.977
681.8965, 1406.924
682.3787, 1410.073
682.8608, 1408.894
683.3429, 1413.803
683.8250, 1429.123
684.3071, 1445.537
684.7892, 1447.801
685.2714, 1432.959
685.7535, 1421.601
686.2356, 1414.535
686.7177, 1410.078
687.1998, 1411.937
687.6819, 1413.975
688.1641, 1407.645
688.6462, 1390.725
689.1283, 1371.073
689.6104, 1350.962
690.0925, 1332.314
690.5746, 1316.591
691.0568, 1304.568
691.5389, 1299.721
692.0210, 1303.936
692.5031, 1316.484
692.9852, 1337.943
693.4673, 1380.228
693.9495, 1402.406
694.4316, 1386.764
694.9137, 1369.213
695.3958, 1364.320
695.8779, 1367.719
696.3600, 1369.360
696.8422, 1364.792
697.3243, 1363.563
697.8064, 1383.191
698.2885, 1409.775
698.7706, 1406.882
699.2527, 1371.909
699.7349, 1341.934
700.2170, 1343.083
700.6991, 1365.758
701.1812, 1376.750
701.6633, 1370.658
702.1454, 1361.856
702.6276, 1342.020
703.1097, 1327.939
703.5918, 1334.068
704.0739, 1353.069
704.5560, 1366.796
705.0381, 1366.850
705.5203, 1361.283
706.0024, 1356.010
706.4845, 1351.879
706.9666, 1350.883
707.4487, 1353.325
707.9308, 1361.494
708.4130, 1379.461
708.8951, 1403.526
709.3772, 1413.922
709.8593, 1395.302
710.3414, 1385.646
710.8235, 1399.159
711.3057, 1411.171
711.7878, 1401.347
712.2699, 1375.443
712.7520, 1354.611
713.2341, 1350.756
713.7162, 1352.856
714.1984, 1347.881
714.6805, 1338.111
715.1626, 1330.524
715.6447, 1326.359
716.1268, 1327.299
716.6089, 1334.931
717.0911, 1348.851
717.5732, 1366.935
718.0553, 1403.359
718.5374, 1423.303
719.0195, 1418.123
719.5016, 1401.375
719.9838, 1371.868
720.4659, 1338.253
720.9480, 1324.914
721.4301, 1352.296
721.9122, 1391.569
722.3943, 1412.578
722.8765, 1417.194
723.3586, 1408.002
723.8407, 1384.768
724.3228, 1363.276
724.8049, 1357.964
725.2870, 1366.677
725.7692, 1369.572
726.2513, 1359.893
726.7334, 1354.342
727.2155, 1360.516
727.6976, 1365.932
728.1797, 1358.931
728.6619, 1342.587
729.1440, 1330.658
729.6261, 1332.691
730.1082, 1336.998
730.5903, 1327.564
731.0724, 1310.405
731.5546, 1304.923
732.0367, 1315.024
732.5188, 1326.121
733.0009, 1325.348
733.4830, 1314.798
733.9651, 1309.420
734.4473, 1316.196
734.9294, 1316.051
735.4115, 1293.084
735.8936, 1275.107
736.3757, 1287.914
736.8578, 1322.424
737.3400, 1345.602
737.8221, 1341.721
738.3042, 1326.551
738.7863, 1306.474
739.2684, 1286.674
739.7505, 1279.571
740.2327, 1286.609
740.7148, 1298.654
741.1969, 1310.012
741.6790, 1318.468
742.1611, 1312.225
742.6432, 1280.646
743.1254, 1259.212
743.6075, 1260.647
744.0896, 1265.578
744.5717, 1259.973
745.0538, 1248.788
745.5359, 1248.179
746.0181, 1271.210
746.5002, 1290.538
746.9823, 1283.300
747.4644, 1264.792
747.9465, 1257.405
748.4286, 1262.907
748.9108, 1271.050
749.3929, 1275.380
749.8750, 1275.944
750.3571, 1273.082
750.8392, 1267.074
751.3214, 1254.752
751.8035, 1224.703
752.2856, 1203.709
752.7677, 1222.587
753.2498, 1262.105
753.7319, 1276.990
754.2141, 1249.248
754.6962, 1222.419
755.1783, 1209.606
755.6604, 1206.634
756.1425, 1213.326
756.6246, 1226.234
757.1068, 1238.011
757.5889, 1244.987
758.0710, 1246.448
758.5531, 1235.690
759.0352, 1213.156
759.5173, 1213.053
759.9995, 1246.525
760.4816, 1276.479
760.9637, 1280.988
761.4458, 1266.672
761.9279, 1249.110
762.4100, 1220.830
762.8922, 1207.531
763.3743, 1225.667
763.8564, 1246.940
764.3385, 1257.483
764.8206, 1257.160
765.3027, 1243.774
765.7849, 1216.170
766.2670, 1195.519
766.7491, 1215.798
767.2312, 1260.142
767.7133, 1270.836
768.1954, 1244.618
768.6776, 1222.842
769.1597, 1226.385
769.6418, 1241.058
770.1239, 1241.255
770.6060, 1220.181
771.0881, 1210.031
771.5703, 1221.665
772.0524, 1230.954
772.5345, 1224.844
773.0166, 1215.548
773.4987, 1221.852
773.9808, 1246.104
774.4630, 1262.650
774.9451, 1249.958
775.4272, 1225.369
775.9093, 1210.368
776.3914, 1202.266
776.8735, 1186.882
777.3557, 1159.845
777.8378, 1138.797
778.3199, 1146.572
778.8020, 1181.474
779.2841, 1205.890
779.7662, 1214.484
780.2484, 1224.421
780.7305, 1242.871
781.2126, 1261.920
781.6947, 1278.586
782.1768, 1291.409
782.6589, 1290.616
783.1411, 1254.488
783.6232, 1226.223
784.1053, 1237.613
784.5874, 1264.252
785.0695, 1276.597
785.5516, 1270.345
786.0338, 1254.350
786.5159, 1232.266
786.9980, 1210.547
787.4801, 1206.229
787.9622, 1219.302
788.4443, 1228.780
788.9265, 1230.452
789.4086, 1230.231
789.8907, 1231.469
790.3728, 1234.513
790.8549, 1241.197
791.3370, 1265.403
791.8192, 1272.025
792.3013, 1238.701
792.7834, 1206.556
793.2655, 1205.755
793.7476, 1225.150
794.2297, 1237.877
794.7119, 1233.742
795.1940, 1225.370
795.6761, 1221.566
796.1582, 1222.203
796.6403, 1228.082
797.1224, 1238.665
797.6046, 1252.065
798.0867, 1268.333
798.5688, 1280.659
799.0509, 1274.752
799.5330, 1245.759
800.0151, 1233.046
800.4973, 1248.287
800.9794, 1260.659
801.4615, 1252.284
801.9436, 1239.275
802.4257, 1239.110
802.9078, 1253.101
803.3900, 1266.485
803.8721, 1281.315
804.3542, 1288.079
804.8363, 1274.707
805.3184, 1252.299
805.8005, 1236.001
806.2827, 1229.554
806.7648, 1229.818
807.2469, 1233.322
807.7290, 1242.667
808.2111, 1273.445
808.6932, 1324.204
809.1754, 1342.741
809.6575, 1311.953
810.1396, 1269.999
810.6217, 1248.085
811.1038, 1243.866
811.5859, 1241.432
812.0681, 1241.064
812.5502, 1242.166
813.0323, 1245.215
813.5144, 1249.210
813.9965, 1253.441
814.4786, 1258.181
814.9608, 1264.611
815.4429, 1273.863
815.9250, 1281.818
816.4071, 1289.321
816.8892, 1291.677
817.3713, 1277.580
817.8535, 1251.479
818.3356, 1231.604
818.8177, 1226.294
819.2998, 1229.097
819.7819, 1232.554
820.2640, 1236.672
820.7462, 1230.201
821.2283, 1206.177
821.7104, 1197.967
822.1925, 1229.136
822.6746, 1270.334
823.1567, 1278.642
823.6389, 1250.188
824.1210, 1231.735
824.6031, 1229.418
825.0852, 1231.114
825.5673, 1235.964
826.0494, 1241.112
826.5316, 1242.804
827.0137, 1241.723
827.4958, 1242.877
827.9779, 1249.899
828.4600, 1259.020
828.9421, 1268.564
829.4243, 1276.466
829.9064, 1276.168
830.3885, 1267.403
830.8707, 1257.835
831.3528, 1252.532
831.8349, 1250.318
832.3170, 1247.929
832.7991, 1244.754
833.2813, 1244.905
833.7634, 1251.280
834.2455, 1256.150
834.7276, 1256.742
835.2097, 1252.596
835.6918, 1240.143
836.1740, 1213.313
836.6561, 1203.470
837.1382, 1231.626
837.6203, 1260.481
838.1024, 1275.403
838.5845, 1276.402
839.0667, 1256.072
839.5488, 1217.643
840.0309, 1194.398
840.5130, 1221.021
840.9951, 1269.995
841.4772, 1305.088
841.9594, 1326.870
842.4415, 1333.461
842.9236, 1324.860
843.4057, 1318.436
843.8878, 1330.799
844.3699, 1354.815
844.8521, 1359.426
845.3342, 1337.065
845.8163, 1322.238
846.2984, 1319.050
846.7805, 1323.796
847.2626, 1338.502
847.7448, 1358.747
848.2269, 1374.423
848.7090, 1384.185
849.1911, 1392.131
849.6732, 1388.534
850.1553, 1393.918
850.6375, 1428.817
851.1196, 1478.145
851.6017, 1517.864
852.0838, 1541.766
852.5659, 1558.949
853.0480, 1572.985
853.5302, 1587.107
854.0123, 1609.503
854.4944, 1636.570
854.9765, 1653.517
855.4586, 1656.646
855.9407, 1660.355
856.4229, 1678.251
856.9050, 1707.555
857.3871, 1737.044
857.8692, 1767.302
858.3513, 1794.790
858.8334, 1819.929
859.3156, 1840.166
859.7977, 1847.631
860.2798, 1849.672
860.7619, 1871.022
861.2440, 1924.109
861.7261, 1969.122
862.2083, 2005.017
862.6904, 2029.068
863.1725, 2030.421
863.6546, 2022.852
864.1367, 2032.175
864.6188, 2063.614
865.1010, 2082.155
865.5831, 2050.206
866.0652, 2004.674
866.5473, 1988.594
867.0294, 1993.772
867.5115, 2003.019
867.9937, 2009.856
868.4758, 2000.627
868.9579, 1958.392
869.4400, 1899.738
869.9221, 1885.945
870.4042, 1921.624
870.8864, 1918.070
871.3685, 1851.479
871.8506, 1779.247
872.3327, 1738.686
872.8148, 1720.630
873.2969, 1698.629
873.7791, 1669.545
874.2612, 1643.388
874.7433, 1619.475
875.2254, 1599.071
875.7075, 1583.669
876.1896, 1571.543
876.6718, 1560.778
877.1539, 1551.141
877.6360, 1541.725
878.1181, 1532.881
878.6002, 1523.451
879.0823, 1509.579
879.5645, 1496.015
880.0466, 1494.001
880.5287, 1501.570
881.0108, 1500.653
881.4929, 1477.055
881.9750, 1444.604
882.4572, 1426.898
882.9393, 1420.443
883.4214, 1407.215
883.9035, 1385.399
884.3856, 1371.431
884.8677, 1375.527
885.3499, 1389.154
885.8320, 1396.289
886.3141, 1396.211
886.7962, 1393.855
887.2783, 1385.355
887.7604, 1382.862
888.2426, 1399.038
888.7247, 1415.889
889.2068, 1411.388
889.6889, 1386.759
890.1710, 1363.320
890.6531, 1343.061
891.1353, 1323.970
891.6174, 1301.308
892.0995, 1282.998
892.5816, 1282.379
893.0637, 1291.356
893.5458, 1285.799
894.0280, 1252.957
894.5101, 1220.033
894.9922, 1210.455
895.4743, 1210.980
895.9564, 1202.546
896.4385, 1188.184
896.9207, 1183.963
897.4028, 1194.869
897.8849, 1203.510
898.3670, 1187.287
898.8491, 1154.777
899.3312, 1138.073
899.8134, 1137.205
900.2955, 1139.772
900.7776, 1143.848
901.2597, 1145.082
901.7418, 1138.301
902.2239, 1126.831
902.7061, 1126.138
903.1882, 1145.350
903.6703, 1152.520
904.1524, 1136.949
904.6345, 1121.463
905.1166, 1120.196
905.5988, 1124.207
906.0809, 1118.446
906.5630, 1099.560
907.0451, 1090.343
907.5272, 1107.622
908.0093, 1120.300
908.4915, 1106.723
908.9736, 1086.558
909.4557, 1082.631
909.9378, 1095.137
910.4199, 1109.052
910.9020, 1119.151
911.3842, 1123.652
911.8663, 1118.113
912.3484, 1107.260
912.8305, 1094.219
913.3126, 1082.561
913.7947, 1086.880
914.2769, 1114.026
914.7590, 1139.388
915.2411, 1119.738
915.7232, 1068.591
916.2053, 1057.464
916.6874, 1086.221
917.1696, 1106.543
917.6517, 1103.435
918.1338, 1091.070
918.6159, 1081.791
919.0980, 1075.871
919.5801, 1075.599
920.0623, 1084.570
920.5444, 1088.591
921.0265, 1082.416
921.5086, 1076.959
921.9907, 1082.878
922.4728, 1092.214
922.9550, 1085.442
923.4371, 1053.618
923.9192, 1040.783
924.4013, 1068.983
924.8834, 1095.163
925.3655, 1100.621
925.8477, 1097.108
926.3298, 1098.791
926.8119, 1105.356
927.2940, 1104.501
927.7761, 1085.380
928.2582, 1066.839
928.7404, 1062.198
929.2225, 1063.989
929.7046, 1065.094
930.1867, 1064.337
930.6688, 1059.590
931.1509, 1049.943
931.6331, 1045.667
932.1152, 1064.151
932.5973, 1093.355
933.0794, 1107.492
933.5615, 1107.869
934.0436, 1102.576
934.5258, 1093.886
935.0079, 1079.926
935.4900, 1056.705
935.9721, 1031.371
936.4542, 1031.161
936.9363, 1058.424
937.4185, 1078.797
937.9006, 1089.762
938.3827, 1088.362
938.8648, 1068.565
939.3469, 1041.818
939.8290, 1029.109
940.3112, 1033.310
940.7933, 1033.871
941.2754, 1022.580
941.7575, 1020.454
942.2396, 1039.598
942.7217, 1063.831
943.2039, 1084.971
943.6860, 1101.122
944.1681, 1104.420
944.6502, 1083.083
945.1323, 1067.723
945.6144, 1069.240
946.0966, 1073.885
946.5787, 1074.850
947.0608, 1072.080
947.5429, 1066.176
948.0250, 1057.318
948.5071, 1047.560
948.9893, 1029.971
949.4714, 1020.035
949.9535, 1039.086
950.4356, 1069.147
950.9177, 1084.178
951.3998, 1081.973
951.8820, 1073.202
952.3641, 1062.804
952.8462, 1053.325
953.3283, 1049.530
953.8104, 1048.547
954.2925, 1041.308
954.7747, 1029.638
955.2568, 1026.562
955.7389, 1036.620
956.2210, 1048.789
956.7031, 1051.337
957.1852, 1046.590
957.6674, 1042.508
958.1495, 1039.084
958.6316, 1037.817
959.1137, 1038.222
959.5958, 1047.243
960.0779, 1073.180
960.5601, 1103.239
961.0422, 1107.067
961.5243, 1077.081
962.0064, 1065.406
962.4885, 1085.544
962.9706, 1093.185
963.4528, 1063.505
963.9349, 1029.165
964.4170, 1026.588
964.8991, 1051.857
965.3812, 1062.813
965.8633, 1046.617
966.3455, 1036.058
966.8276, 1034.419
967.3097, 1037.088
967.7918, 1048.066
968.2739, 1059.043
968.7560, 1054.642
969.2382, 1031.835
969.7203, 1016.427
970.2024, 1022.068
970.6845, 1029.107
971.1666, 1027.293
971.6487, 1023.049
972.1309, 1025.425
972.6130, 1031.799
973.0951, 1029.613
973.5772, 1010.515
974.0593, 997.0543
974.5414, 1013.119
975.0236, 1036.215
975.5057, 1042.157
975.9878, 1035.458
976.4699, 1024.187
976.9520, 1012.867
977.4341, 1013.791
977.9163, 1043.489
978.3984, 1078.149
978.8805, 1082.573
979.3626, 1064.399
979.8447, 1034.084
980.3268, 997.9103
980.8090, 982.3597
981.2911, 1000.235
981.7732, 1025.884
982.2553, 1024.351
982.7374, 1001.779
983.2195, 982.0692
983.7017, 965.8981
984.1838, 970.1693
984.6659, 1000.231
985.1480, 1029.458
985.6301, 1038.613
986.1122, 1030.745
986.5944, 1009.694
987.0765, 972.1622
987.5586, 950.0984
988.0407, 945.2310
988.5228, 954.4528
989.0049, 983.0981
989.4871, 1012.145
989.9692, 1018.373
990.4513, 1004.033
990.9334, 998.1785
991.4155, 1009.919
991.8976, 1008.727
992.3798, 981.3630
992.8619, 955.4759
993.3440, 945.9357
993.8261, 947.1885
994.3082, 949.9925
994.7903, 954.5748
995.2725, 959.4443
995.7546, 967.5851
996.2367, 971.9701
996.7188, 965.3208
997.2009, 959.4194
997.6830, 964.3108
998.1652, 977.2625
998.6473, 990.5479
999.1294, 1005.772
999.6115, 1012.883
1000.094, 1003.666
1000.576, 992.2705
1001.058, 985.1696
1001.540, 980.6256
1002.022, 975.9341
1002.504, 971.0033
1002.986, 967.2820
1003.468, 963.2280
1003.951, 964.2530
1004.433, 984.2045
1004.915, 1001.105
1005.397, 982.2650
1005.879, 948.4854
1006.361, 948.2178
1006.843, 991.0214
1007.325, 1027.862
1007.807, 1019.366
1008.290, 997.0917
1008.772, 989.3049
1009.254, 987.9113
1009.736, 977.6180
1010.218, 961.3901
1010.700, 956.6503
1011.182, 971.3385
1011.664, 988.7063
1012.147, 991.3361
1012.629, 986.0699
1013.111, 982.8929
1013.593, 981.5013
1014.075, 980.2995
1014.557, 979.0688
1015.039, 979.7403
1015.521, 984.4041
1016.003, 986.6403
1016.486, 970.5233
1016.968, 944.6725
1017.450, 939.5994
1017.932, 953.3765
1018.414, 963.9926
1018.896, 964.7932
1019.378, 968.9061
1019.860, 991.5375
1020.343, 1018.531
1020.825, 1005.481
1021.307, 957.5979
1021.789, 933.2492
1022.271, 937.6566
1022.753, 946.9051
1023.235, 950.9191
1023.717, 953.8278
1024.199, 960.5140
1024.682, 970.7601
1025.164, 985.5695
1025.646, 1006.042
1026.128, 1017.201
1026.610, 1016.997
1027.092, 1004.417
1027.574, 974.5745
1028.056, 942.6901
1028.538, 935.9683
1029.021, 955.1061
1029.503, 972.8755
1029.985, 990.3846
1030.467, 1002.045
1030.949, 1006.169
1031.431, 1005.035
1031.913, 998.8244
1032.395, 989.9274
1032.878, 985.0473
1033.360, 985.8114
1033.842, 983.3612
1034.324, 978.1947
1034.806, 967.8642
1035.288, 945.6453
1035.770, 926.9248
1036.252, 927.8398
1036.734, 943.4755
1037.217, 952.3722
1037.699, 951.9890
1038.181, 950.1573
1038.663, 943.1140
1039.145, 940.3150
1039.627, 945.9734
1040.109, 956.7605
1040.591, 973.8885
1041.073, 995.4580
1041.556, 1000.359
1042.038, 966.7864
1042.520, 950.4515
1043.002, 967.7415
1043.484, 985.1999
1043.966, 987.4958
1044.448, 982.8699
1044.930, 978.8651
1045.413, 975.7652
1045.895, 983.8959
1046.377, 1024.400
1046.859, 1046.298
1047.341, 1028.330
1047.823, 1004.374
1048.305, 990.3291
1048.787, 984.5425
1049.270, 984.2287
1049.752, 989.4774
1050.234, 995.2994
1050.716, 1003.995
1051.198, 1008.984
1051.680, 1009.198
1052.162, 1004.574
1052.644, 989.1088
1053.126, 970.6401
1053.609, 965.3501
1054.091, 976.9504
1054.573, 989.4210
1055.055, 1003.078
1055.537, 1011.699
1056.019, 1011.771
1056.501, 1006.870
1056.983, 995.6847
1057.465, 982.7953
1057.948, 979.4848
1058.430, 989.8086
1058.912, 999.6708
1059.394, 1004.755
1059.876, 1008.450
1060.358, 1016.010
1060.840, 1020.157
1061.322, 1008.209
1061.805, 986.5240
1062.287, 978.1593
1062.769, 994.1652
1063.251, 1003.194
1063.733, 977.3756
1064.215, 960.0565
1064.697, 992.8968
1065.179, 1035.293
1065.661, 1034.561
1066.144, 998.4727
1066.626, 979.9944
1067.108, 1003.605
1067.590, 1020.380
1068.072, 996.5613
1068.554, 974.4581
1069.036, 992.1288
1069.518, 1020.822
1070.000, 1020.551
1070.483, 992.8116
1070.965, 968.7786
1071.447, 956.1415
1071.929, 955.7632
1072.411, 979.4923
1072.893, 1003.624
1073.375, 1011.698
1073.857, 1009.336
1074.340, 1001.705
1074.822, 991.9870
1075.304, 989.7054
1075.786, 1003.634
1076.268, 1014.445
1076.750, 1009.170
1077.232, 1001.325
1077.714, 1002.773
1078.197, 1007.262
1078.679, 1002.788
1079.161, 989.6558
1079.643, 981.7737
1080.125, 987.2003
1080.607, 993.6788
1081.089, 999.0862
1081.571, 999.6599
1082.053, 984.4089
1082.536, 966.6084
1083.018, 968.5765
1083.500, 991.0944
1083.982, 1012.443
1084.464, 1027.536
1084.946, 1034.115
1085.428, 1019.474
1085.910, 1007.355
1086.393, 1021.079
1086.875, 1047.027
1087.357, 1067.483
1087.839, 1077.889
1088.321, 1071.651
1088.803, 1029.417
##END=



