##NAMES=Euxenite-(Y)
##RRUFFID=R080101
##IDEAL CHEMISTRY=(Y^3+^,Ca,Ce^3+^,U^4+^,Th^4+^)(Nb^5+^,Ta^5+^,Ti^4+^)_2_O_6_
##LOCALITY=Betafo, Madagascar
##OWNER=RRUFF
##SOURCE=Michael Scott
##DESCRIPTION=Khaki colored fragment from metamict sample R060856, after heating at T = 1000 C for 24 hours
##STATUS=The identification of this mineral has been confirmed by X-ray diffraction.
##URL=rruff.info/R080101
93.30109, 0.0000000E+00
93.78320, 4940.442
94.26532, 4923.148
94.74744, 4942.908
95.22955, 4987.589
95.71167, 5047.526
96.19379, 5079.687
96.67590, 5090.067
97.15802, 5095.045
97.64014, 5096.716
98.12225, 5094.641
98.60437, 5088.403
99.08649, 5078.905
99.56860, 5067.485
100.0507, 5055.188
100.5328, 5033.314
101.0150, 5010.248
101.4971, 4993.043
101.9792, 4982.007
102.4613, 4973.277
102.9434, 4964.245
103.4255, 4956.291
103.9077, 4950.405
104.3898, 4946.565
104.8719, 4945.295
105.3540, 4947.970
105.8361, 4955.935
106.3182, 4965.163
106.8004, 4974.219
107.2825, 4983.648
107.7646, 4993.813
108.2467, 5004.845
108.7288, 5016.523
109.2109, 5027.387
109.6931, 5034.147
110.1752, 5043.163
110.6573, 5056.102
111.1394, 5072.662
111.6215, 5091.875
112.1036, 5113.001
112.5858, 5136.466
113.0679, 5159.313
113.5500, 5180.497
114.0321, 5201.638
114.5142, 5223.678
114.9964, 5246.756
115.4785, 5270.896
115.9606, 5296.452
116.4427, 5323.263
116.9248, 5349.837
117.4069, 5373.685
117.8891, 5397.105
118.3712, 5425.759
118.8533, 5462.569
119.3354, 5502.003
119.8175, 5538.244
120.2996, 5571.708
120.7818, 5605.584
121.2639, 5641.917
121.7460, 5680.705
122.2281, 5721.453
122.7102, 5764.752
123.1923, 5809.758
123.6745, 5855.923
124.1566, 5903.260
124.6387, 5951.808
125.1208, 6002.052
125.6029, 6054.274
126.0850, 6107.744
126.5672, 6161.451
127.0493, 6216.568
127.5314, 6273.968
128.0135, 6334.278
128.4956, 6396.435
128.9777, 6458.959
129.4599, 6520.017
129.9420, 6583.109
130.4241, 6648.698
130.9062, 6716.669
131.3883, 6787.098
131.8704, 6860.584
132.3526, 6936.583
132.8347, 7012.728
133.3168, 7089.682
133.7989, 7166.398
134.2810, 7242.485
134.7632, 7318.206
135.2453, 7394.274
135.7274, 7470.450
136.2095, 7548.190
136.6916, 7630.557
137.1737, 7722.970
137.6559, 7817.213
138.1380, 7905.042
138.6201, 7985.502
139.1022, 8064.552
139.5843, 8146.679
140.0664, 8230.567
140.5486, 8313.309
141.0307, 8392.897
141.5128, 8470.861
141.9949, 8551.000
142.4770, 8636.859
142.9591, 8719.897
143.4413, 8795.714
143.9234, 8866.219
144.4055, 8935.506
144.8876, 9006.237
145.3697, 9078.304
145.8518, 9148.590
146.3340, 9218.583
146.8161, 9285.004
147.2982, 9346.659
147.7803, 9403.663
148.2624, 9456.612
148.7445, 9506.340
149.2267, 9552.165
149.7088, 9595.471
150.1909, 9638.925
150.6730, 9678.515
151.1551, 9711.276
151.6372, 9737.196
152.1194, 9758.926
152.6015, 9780.079
153.0836, 9801.603
153.5657, 9818.062
154.0478, 9828.980
154.5299, 9835.112
155.0121, 9836.491
155.4942, 9832.980
155.9763, 9826.349
156.4584, 9819.127
156.9405, 9811.809
157.4226, 9801.563
157.9048, 9787.275
158.3869, 9769.496
158.8690, 9749.424
159.3511, 9727.260
159.8332, 9702.499
160.3153, 9674.851
160.7975, 9644.424
161.2796, 9612.025
161.7617, 9577.913
162.2438, 9541.949
162.7259, 9505.051
163.2081, 9466.332
163.6902, 9427.405
164.1723, 9389.980
164.6544, 9353.908
165.1365, 9318.229
165.6186, 9281.481
166.1008, 9243.605
166.5829, 9205.784
167.0650, 9167.156
167.5471, 9129.444
168.0292, 9095.115
168.5113, 9064.522
168.9935, 9034.811
169.4756, 9000.834
169.9577, 8958.816
170.4398, 8919.535
170.9219, 8885.058
171.4040, 8852.579
171.8862, 8819.472
172.3683, 8784.810
172.8504, 8750.038
173.3325, 8718.286
173.8146, 8692.240
174.2967, 8666.747
174.7789, 8640.396
175.2610, 8614.854
175.7431, 8592.252
176.2252, 8573.359
176.7073, 8557.712
177.1894, 8544.067
177.6716, 8528.622
178.1537, 8519.213
178.6358, 8520.839
179.1179, 8529.380
179.6000, 8536.391
180.0821, 8536.888
180.5643, 8534.355
181.0464, 8539.489
181.5285, 8554.646
182.0106, 8572.402
182.4927, 8589.573
182.9748, 8606.483
183.4570, 8624.429
183.9391, 8643.445
184.4212, 8664.627
184.9033, 8688.931
185.3854, 8716.916
185.8675, 8747.145
186.3497, 8778.405
186.8318, 8810.673
187.3139, 8844.929
187.7960, 8883.188
188.2781, 8923.166
188.7602, 8961.996
189.2424, 8998.859
189.7245, 9035.362
190.2066, 9073.705
190.6887, 9114.411
191.1708, 9155.284
191.6530, 9195.172
192.1351, 9235.015
192.6172, 9275.865
193.0993, 9318.044
193.5814, 9360.798
194.0635, 9401.678
194.5457, 9438.020
195.0278, 9477.939
195.5099, 9527.393
195.9920, 9578.685
196.4741, 9623.533
196.9562, 9658.000
197.4384, 9685.970
197.9205, 9719.224
198.4026, 9763.558
198.8847, 9805.318
199.3668, 9841.778
199.8489, 9875.244
200.3311, 9908.944
200.8132, 9944.611
201.2953, 9980.725
201.7774, 10010.82
202.2595, 10031.62
202.7416, 10049.55
203.2238, 10064.36
203.7059, 10076.91
204.1880, 10089.01
204.6701, 10101.79
205.1522, 10113.95
205.6343, 10119.27
206.1165, 10115.54
206.5986, 10108.49
207.0807, 10098.74
207.5628, 10086.49
208.0449, 10072.87
208.5270, 10059.31
209.0092, 10043.60
209.4913, 10016.45
209.9734, 9972.707
210.4555, 9926.654
210.9376, 9882.714
211.4197, 9840.369
211.9019, 9797.782
212.3840, 9754.603
212.8661, 9710.657
213.3482, 9665.834
213.8303, 9620.810
214.3124, 9574.417
214.7946, 9526.170
215.2767, 9476.110
215.7588, 9425.679
216.2409, 9375.372
216.7230, 9324.909
217.2052, 9272.946
217.6873, 9219.014
218.1694, 9165.218
218.6515, 9113.837
219.1336, 9064.552
219.6157, 9014.335
220.0979, 8960.890
220.5800, 8906.330
221.0621, 8852.737
221.5442, 8800.282
222.0263, 8749.029
222.5084, 8699.480
222.9906, 8651.580
223.4727, 8603.634
223.9548, 8556.183
224.4369, 8507.957
224.9190, 8458.012
225.4011, 8405.792
225.8833, 8352.608
226.3654, 8299.079
226.8475, 8245.130
227.3296, 8192.137
227.8117, 8141.744
228.2938, 8091.581
228.7760, 8040.721
229.2581, 7988.712
229.7402, 7936.272
230.2223, 7883.902
230.7044, 7830.756
231.1865, 7780.030
231.6687, 7733.980
232.1508, 7689.061
232.6329, 7643.463
233.1150, 7596.577
233.5971, 7549.003
234.0792, 7500.725
234.5614, 7449.374
235.0435, 7403.721
235.5256, 7367.327
236.0077, 7333.216
236.4898, 7297.505
236.9719, 7259.549
237.4541, 7220.711
237.9362, 7182.771
238.4183, 7146.033
238.9004, 7110.080
239.3825, 7073.355
239.8646, 7038.519
240.3468, 7008.226
240.8289, 6982.282
241.3110, 6958.185
241.7931, 6932.247
242.2752, 6902.875
242.7573, 6876.926
243.2395, 6854.814
243.7216, 6835.204
244.2037, 6817.911
244.6858, 6802.616
245.1679, 6788.219
245.6501, 6773.579
246.1322, 6758.704
246.6143, 6743.460
247.0964, 6725.591
247.5785, 6709.000
248.0606, 6696.702
248.5428, 6688.751
249.0249, 6682.554
249.5070, 6675.584
249.9891, 6667.552
250.4712, 6661.712
250.9533, 6659.536
251.4355, 6658.292
251.9176, 6655.708
252.3997, 6651.896
252.8818, 6649.087
253.3639, 6649.271
253.8460, 6652.669
254.3282, 6656.285
254.8103, 6659.647
255.2924, 6663.587
255.7745, 6668.042
256.2566, 6673.209
256.7387, 6680.575
257.2209, 6691.524
257.7030, 6705.877
258.1851, 6720.565
258.6672, 6735.001
259.1493, 6750.129
259.6314, 6766.012
260.1136, 6782.793
260.5957, 6802.104
261.0778, 6826.510
261.5599, 6853.759
262.0420, 6877.084
262.5241, 6892.987
263.0063, 6908.991
263.4884, 6931.066
263.9705, 6958.597
264.4526, 6986.283
264.9347, 7011.257
265.4168, 7035.112
265.8990, 7060.733
266.3811, 7089.331
266.8632, 7117.752
267.3453, 7143.096
267.8274, 7165.826
268.3095, 7190.053
268.7917, 7217.841
269.2738, 7247.324
269.7559, 7275.152
270.2380, 7300.757
270.7201, 7327.748
271.2022, 7360.640
271.6844, 7398.159
272.1665, 7431.597
272.6486, 7456.595
273.1307, 7478.777
273.6128, 7504.108
274.0949, 7532.732
274.5771, 7561.555
275.0592, 7589.228
275.5413, 7615.742
276.0234, 7640.525
276.5055, 7662.900
276.9876, 7684.274
277.4698, 7705.670
277.9519, 7727.064
278.4340, 7748.640
278.9161, 7771.956
279.3982, 7795.907
279.8803, 7815.663
280.3625, 7828.884
280.8446, 7840.721
281.3267, 7855.128
281.8088, 7870.719
282.2909, 7884.264
282.7730, 7892.498
283.2552, 7897.338
283.7373, 7906.000
284.2194, 7922.062
284.7015, 7934.975
285.1836, 7939.464
285.6658, 7938.229
286.1479, 7934.813
286.6300, 7930.117
287.1121, 7924.894
287.5942, 7920.761
288.0764, 7917.619
288.5585, 7915.920
289.0406, 7915.772
289.5227, 7917.037
290.0048, 7919.857
290.4869, 7924.487
290.9691, 7930.165
291.4512, 7935.347
291.9333, 7939.410
292.4154, 7945.192
292.8975, 7955.270
293.3796, 7966.330
293.8618, 7975.454
294.3439, 7981.925
294.8260, 7988.147
295.3081, 7997.037
295.7902, 8008.737
296.2723, 8022.347
296.7545, 8039.483
297.2366, 8057.250
297.7187, 8073.922
298.2008, 8089.336
298.6829, 8104.502
299.1650, 8120.375
299.6472, 8137.070
300.1293, 8153.172
300.6114, 8167.264
301.0935, 8181.727
301.5756, 8197.747
302.0577, 8215.042
302.5399, 8232.728
303.0220, 8250.124
303.5041, 8267.214
303.9862, 8284.054
304.4683, 8300.042
304.9504, 8316.686
305.4326, 8336.203
305.9147, 8356.701
306.3968, 8374.400
306.8789, 8386.167
307.3610, 8393.966
307.8431, 8405.979
308.3253, 8424.168
308.8074, 8443.991
309.2895, 8465.638
309.7716, 8487.503
310.2537, 8507.145
310.7358, 8523.399
311.2180, 8537.832
311.7001, 8553.881
312.1822, 8572.655
312.6643, 8590.727
313.1464, 8606.150
313.6285, 8621.384
314.1107, 8638.583
314.5928, 8658.278
315.0749, 8679.317
315.5570, 8700.146
316.0391, 8720.779
316.5212, 8740.946
317.0034, 8761.547
317.4855, 8781.083
317.9676, 8798.696
318.4497, 8814.309
318.9318, 8828.254
319.4139, 8839.653
319.8961, 8847.832
320.3782, 8860.279
320.8603, 8882.969
321.3424, 8904.512
321.8245, 8920.167
322.3066, 8931.112
322.7888, 8940.997
323.2709, 8952.124
323.7530, 8964.390
324.2351, 8976.649
324.7172, 8989.123
325.1993, 9001.295
325.6815, 9013.762
326.1636, 9025.709
326.6457, 9035.748
327.1278, 9042.722
327.6099, 9048.415
328.0920, 9057.591
328.5742, 9072.295
329.0563, 9086.050
329.5384, 9098.837
330.0205, 9109.363
330.5026, 9115.046
330.9847, 9115.230
331.4669, 9114.756
331.9490, 9121.504
332.4311, 9137.885
332.9132, 9150.967
333.3953, 9154.718
333.8774, 9157.772
334.3596, 9164.828
334.8417, 9176.098
335.3238, 9188.745
335.8059, 9201.028
336.2880, 9213.035
336.7701, 9221.691
337.2523, 9221.263
337.7344, 9224.043
338.2165, 9237.978
338.6986, 9259.328
339.1807, 9279.337
339.6628, 9292.462
340.1450, 9300.154
340.6271, 9307.721
341.1092, 9314.544
341.5913, 9322.396
342.0735, 9331.401
342.5556, 9341.826
343.0377, 9354.535
343.5198, 9370.353
344.0019, 9387.077
344.4840, 9400.897
344.9662, 9411.306
345.4483, 9421.465
345.9304, 9433.293
346.4125, 9444.650
346.8946, 9453.073
347.3767, 9458.280
347.8589, 9463.920
348.3410, 9473.809
348.8231, 9487.875
349.3052, 9502.068
349.7873, 9517.361
350.2694, 9530.795
350.7516, 9540.066
351.2337, 9545.771
351.7158, 9550.372
352.1979, 9554.248
352.6800, 9558.085
353.1621, 9564.813
353.6443, 9576.316
354.1264, 9586.457
354.6085, 9589.748
355.0906, 9589.762
355.5727, 9592.095
356.0548, 9599.365
356.5370, 9608.879
357.0191, 9617.112
357.5012, 9623.927
357.9833, 9631.003
358.4654, 9639.851
358.9475, 9648.846
359.4297, 9656.294
359.9118, 9662.197
360.3939, 9666.031
360.8760, 9665.021
361.3581, 9660.713
361.8402, 9661.738
362.3224, 9672.326
362.8045, 9685.209
363.2866, 9692.453
363.7687, 9694.599
364.2508, 9696.725
364.7329, 9702.419
365.2151, 9708.821
365.6972, 9710.219
366.1793, 9705.332
366.6614, 9700.361
367.1435, 9701.128
367.6256, 9705.584
368.1078, 9707.330
368.5899, 9705.072
369.0720, 9700.277
369.5541, 9691.980
370.0362, 9681.130
370.5183, 9674.452
371.0005, 9676.495
371.4826, 9683.529
371.9647, 9686.923
372.4468, 9685.716
372.9289, 9683.860
373.4110, 9683.142
373.8932, 9682.730
374.3753, 9681.422
374.8574, 9679.014
375.3395, 9674.760
375.8216, 9666.774
376.3037, 9654.323
376.7859, 9644.481
377.2680, 9638.886
377.7501, 9635.420
378.2322, 9633.253
378.7143, 9631.902
379.1964, 9629.354
379.6786, 9623.825
380.1607, 9615.599
380.6428, 9608.237
381.1249, 9602.264
381.6070, 9596.501
382.0891, 9590.673
382.5713, 9584.756
383.0534, 9578.732
383.5355, 9572.575
384.0176, 9566.353
384.4997, 9560.042
384.9818, 9552.068
385.4640, 9546.884
385.9461, 9547.904
386.4282, 9549.755
386.9103, 9547.426
387.3924, 9540.476
387.8745, 9532.061
388.3567, 9525.463
388.8388, 9520.811
389.3209, 9517.299
389.8030, 9514.862
390.2851, 9513.409
390.7672, 9514.239
391.2494, 9515.938
391.7315, 9515.377
392.2136, 9510.478
392.6957, 9502.948
393.1778, 9499.684
393.6599, 9505.821
394.1421, 9508.937
394.6242, 9505.043
395.1063, 9499.447
395.5884, 9497.337
396.0706, 9499.790
396.5527, 9503.636
397.0348, 9504.597
397.5169, 9501.811
397.9990, 9499.402
398.4811, 9496.896
398.9633, 9495.192
399.4454, 9496.027
399.9275, 9498.069
400.4096, 9498.142
400.8917, 9493.871
401.3738, 9486.057
401.8560, 9477.873
402.3381, 9468.682
402.8202, 9460.522
403.3023, 9454.425
403.7844, 9449.389
404.2665, 9444.734
404.7487, 9440.373
405.2308, 9435.437
405.7129, 9428.345
406.1950, 9418.900
406.6771, 9410.857
407.1592, 9405.967
407.6414, 9401.678
408.1235, 9396.933
408.6056, 9391.416
409.0877, 9383.843
409.5698, 9371.769
410.0519, 9357.359
410.5341, 9345.890
411.0162, 9338.056
411.4983, 9330.995
411.9804, 9324.249
412.4625, 9316.765
412.9446, 9306.454
413.4268, 9291.475
413.9089, 9276.081
414.3910, 9264.922
414.8731, 9256.784
415.3552, 9245.391
415.8373, 9227.660
416.3195, 9207.668
416.8016, 9191.769
417.2837, 9180.135
417.7658, 9167.741
418.2479, 9152.413
418.7300, 9136.114
419.2122, 9120.733
419.6943, 9106.513
420.1764, 9093.328
420.6585, 9081.011
421.1406, 9069.688
421.6227, 9060.391
422.1049, 9055.644
422.5870, 9049.810
423.0691, 9040.909
423.5512, 9029.344
424.0333, 9015.438
424.5154, 8999.310
424.9976, 8981.958
425.4797, 8965.251
425.9618, 8948.432
426.4439, 8934.296
426.9260, 8924.187
427.4081, 8915.667
427.8903, 8908.381
428.3724, 8901.439
428.8545, 8892.274
429.3366, 8878.172
429.8187, 8859.529
430.3008, 8845.818
430.7830, 8840.800
431.2651, 8837.028
431.7472, 8835.067
432.2293, 8833.107
432.7114, 8828.753
433.1935, 8821.168
433.6757, 8812.246
434.1578, 8805.174
434.6399, 8800.428
435.1220, 8795.559
435.6041, 8789.409
436.0862, 8783.761
436.5684, 8779.926
437.0505, 8777.391
437.5326, 8774.399
438.0147, 8769.638
438.4968, 8763.520
438.9789, 8757.699
439.4611, 8752.587
439.9432, 8746.738
440.4253, 8738.827
440.9074, 8730.229
441.3895, 8722.233
441.8716, 8715.063
442.3538, 8708.913
442.8359, 8703.346
443.3180, 8698.738
443.8001, 8698.358
444.2822, 8705.434
444.7643, 8712.178
445.2465, 8709.392
445.7286, 8699.188
446.2107, 8690.478
446.6928, 8686.440
447.1749, 8684.470
447.6570, 8681.998
448.1392, 8679.075
448.6213, 8676.913
449.1034, 8676.347
449.5855, 8676.791
450.0677, 8676.646
450.5498, 8675.886
451.0319, 8674.691
451.5140, 8672.298
451.9961, 8669.843
452.4782, 8668.482
452.9604, 8668.497
453.4425, 8670.249
453.9246, 8674.648
454.4067, 8682.287
454.8888, 8686.073
455.3709, 8683.716
455.8531, 8680.766
456.3352, 8678.007
456.8173, 8676.303
457.2994, 8676.908
457.7815, 8680.427
458.2636, 8685.996
458.7458, 8692.077
459.2279, 8699.857
459.7100, 8705.652
460.1921, 8706.581
460.6742, 8708.124
461.1563, 8714.041
461.6385, 8723.746
462.1206, 8733.950
462.6027, 8742.243
463.0848, 8748.863
463.5669, 8755.324
464.0490, 8762.075
464.5312, 8767.421
465.0133, 8769.161
465.4954, 8769.997
465.9775, 8773.129
466.4596, 8779.457
466.9417, 8785.538
467.4239, 8787.339
467.9060, 8785.625
468.3881, 8785.963
468.8702, 8790.079
469.3523, 8794.618
469.8344, 8796.473
470.3166, 8796.519
470.7987, 8797.031
471.2808, 8801.505
471.7629, 8804.574
472.2450, 8800.060
472.7271, 8789.366
473.2093, 8779.485
473.6914, 8773.503
474.1735, 8769.645
474.6556, 8764.595
475.1377, 8758.437
475.6198, 8751.157
476.1020, 8742.826
476.5841, 8733.269
477.0662, 8722.293
477.5483, 8709.882
478.0304, 8695.588
478.5125, 8678.792
478.9947, 8659.876
479.4768, 8643.214
479.9589, 8633.279
480.4410, 8619.715
480.9231, 8599.623
481.4052, 8575.988
481.8874, 8551.800
482.3695, 8527.780
482.8516, 8503.318
483.3337, 8477.575
483.8158, 8450.447
484.2979, 8422.942
484.7801, 8394.110
485.2622, 8366.067
485.7443, 8341.940
486.2264, 8318.629
486.7085, 8290.628
487.1906, 8254.816
487.6728, 8216.392
488.1549, 8182.606
488.6370, 8153.769
489.1191, 8124.851
489.6012, 8094.090
490.0833, 8063.594
490.5655, 8035.827
491.0476, 8010.265
491.5297, 7983.486
492.0118, 7952.653
492.4939, 7920.682
492.9760, 7891.846
493.4582, 7865.996
493.9403, 7840.117
494.4224, 7812.300
494.9045, 7783.808
495.3866, 7758.224
495.8687, 7735.792
496.3509, 7714.610
496.8330, 7694.770
497.3151, 7675.556
497.7972, 7656.565
498.2793, 7637.596
498.7614, 7618.060
499.2436, 7597.341
499.7257, 7575.617
500.2078, 7555.188
500.6899, 7539.000
501.1720, 7520.432
501.6541, 7495.889
502.1363, 7469.706
502.6184, 7446.691
503.1005, 7427.997
503.5826, 7410.853
504.0647, 7391.294
504.5468, 7368.705
505.0290, 7350.475
505.5111, 7340.462
505.9932, 7330.139
506.4753, 7317.104
506.9575, 7301.453
507.4396, 7282.753
507.9217, 7259.975
508.4038, 7237.109
508.8859, 7219.688
509.3680, 7207.386
509.8502, 7195.186
510.3323, 7182.124
510.8144, 7168.560
511.2965, 7155.236
511.7786, 7141.947
512.2607, 7126.656
512.7429, 7106.728
513.2250, 7086.303
513.7071, 7069.251
514.1892, 7054.889
514.6713, 7039.338
515.1534, 7020.376
515.6356, 7000.677
516.1177, 6985.844
516.5998, 6979.538
517.0819, 6969.682
517.5640, 6953.338
518.0461, 6935.583
518.5283, 6919.953
519.0104, 6906.114
519.4925, 6891.826
519.9746, 6875.458
520.4567, 6857.884
520.9388, 6842.573
521.4210, 6831.484
521.9031, 6818.899
522.3852, 6802.329
522.8673, 6785.479
523.3494, 6771.304
523.8315, 6759.689
524.3137, 6748.308
524.7958, 6736.072
525.2779, 6722.624
525.7600, 6706.311
526.2421, 6686.115
526.7242, 6666.929
527.2064, 6651.392
527.6885, 6637.893
528.1706, 6624.614
528.6527, 6611.695
529.1348, 6597.889
529.6169, 6582.395
530.0991, 6565.650
530.5812, 6548.075
531.0633, 6529.761
531.5454, 6511.443
532.0275, 6493.862
532.5096, 6476.732
532.9918, 6458.377
533.4739, 6437.965
533.9560, 6417.751
534.4381, 6397.929
534.9202, 6378.672
535.4023, 6360.431
535.8845, 6343.189
536.3666, 6325.958
536.8487, 6307.935
537.3308, 6289.079
537.8129, 6269.499
538.2950, 6249.141
538.7772, 6227.962
539.2593, 6204.184
539.7414, 6180.550
540.2235, 6160.213
540.7056, 6143.984
541.1877, 6129.565
541.6699, 6115.600
542.1520, 6101.794
542.6341, 6085.714
543.1162, 6066.871
543.5983, 6046.585
544.0804, 6024.456
544.5626, 6001.811
545.0447, 5981.317
545.5268, 5964.344
546.0089, 5947.720
546.4910, 5929.491
546.9731, 5910.248
547.4553, 5891.106
547.9374, 5872.141
548.4195, 5853.761
548.9016, 5836.427
549.3837, 5820.111
549.8658, 5803.571
550.3480, 5785.361
550.8301, 5768.600
551.3122, 5755.058
551.7943, 5743.086
552.2764, 5731.117
552.7585, 5718.560
553.2407, 5704.776
553.7228, 5688.339
554.2049, 5668.913
554.6870, 5653.292
555.1691, 5645.789
555.6512, 5635.919
556.1334, 5617.001
556.6155, 5595.053
557.0976, 5578.180
557.5797, 5568.962
558.0618, 5561.529
558.5439, 5550.550
559.0261, 5536.974
559.5082, 5524.160
559.9903, 5512.695
560.4724, 5501.626
560.9545, 5490.332
561.4366, 5478.861
561.9188, 5467.322
562.4009, 5455.289
562.8830, 5443.801
563.3651, 5433.085
563.8472, 5423.182
564.3293, 5414.273
564.8115, 5406.341
565.2936, 5398.896
565.7757, 5391.431
566.2578, 5383.927
566.7399, 5377.142
567.2220, 5372.788
567.7042, 5367.059
568.1863, 5357.155
568.6684, 5346.805
569.1505, 5340.480
569.6326, 5338.856
570.1147, 5337.950
570.5969, 5333.528
571.0790, 5326.251
571.5611, 5320.519
572.0432, 5316.824
572.5253, 5313.321
573.0074, 5308.965
573.4896, 5304.280
573.9717, 5300.127
574.4538, 5296.869
574.9359, 5293.161
575.4180, 5287.099
575.9001, 5280.818
576.3823, 5277.996
576.8644, 5278.731
577.3465, 5279.153
577.8286, 5276.024
578.3107, 5270.714
578.7928, 5269.945
579.2750, 5281.227
579.7571, 5287.169
580.2392, 5283.256
580.7213, 5276.342
581.2034, 5271.020
581.6855, 5267.960
582.1677, 5266.051
582.6498, 5264.700
583.1319, 5263.614
583.6140, 5261.875
584.0961, 5259.407
584.5782, 5256.415
585.0604, 5251.817
585.5425, 5247.630
586.0246, 5245.789
586.5067, 5246.204
586.9889, 5246.977
587.4710, 5248.854
587.9531, 5249.696
588.4352, 5246.458
588.9174, 5239.648
589.3995, 5231.962
589.8816, 5224.254
590.3637, 5217.251
590.8458, 5212.353
591.3279, 5210.797
591.8101, 5207.799
592.2922, 5203.739
592.7743, 5197.851
593.2564, 5188.446
593.7385, 5177.123
594.2206, 5167.108
594.7028, 5159.926
595.1849, 5153.481
595.6670, 5143.951
596.1491, 5130.740
596.6312, 5118.963
597.1133, 5110.068
597.5955, 5101.062
598.0776, 5089.737
598.5597, 5077.294
599.0418, 5066.282
599.5239, 5058.266
600.0060, 5049.713
600.4882, 5037.141
600.9703, 5021.987
601.4524, 5007.699
601.9345, 4994.994
602.4166, 4982.402
602.8987, 4968.750
603.3809, 4954.057
603.8630, 4939.618
604.3451, 4923.694
604.8272, 4910.052
605.3093, 4902.273
605.7914, 4895.279
606.2736, 4883.500
606.7557, 4866.678
607.2378, 4848.953
607.7199, 4833.843
608.2020, 4820.667
608.6841, 4805.994
609.1663, 4788.986
609.6484, 4772.998
610.1305, 4759.808
610.6126, 4747.497
611.0947, 4734.411
611.5768, 4720.517
612.0590, 4706.907
612.5411, 4694.651
613.0232, 4682.407
613.5053, 4668.542
613.9874, 4653.284
614.4695, 4637.036
614.9517, 4619.425
615.4338, 4602.926
615.9159, 4591.900
616.3980, 4589.096
616.8801, 4582.418
617.3622, 4568.490
617.8444, 4554.609
618.3265, 4545.061
618.8086, 4537.167
619.2907, 4526.088
619.7728, 4510.047
620.2549, 4492.884
620.7371, 4479.470
621.2192, 4469.664
621.7013, 4460.593
622.1834, 4452.800
622.6655, 4444.158
623.1476, 4432.506
623.6298, 4419.505
624.1119, 4408.112
624.5940, 4399.203
625.0761, 4389.939
625.5582, 4378.693
626.0403, 4366.668
626.5225, 4356.260
627.0046, 4347.106
627.4867, 4335.701
627.9688, 4319.278
628.4509, 4299.869
628.9330, 4283.771
629.4152, 4272.582
629.8973, 4262.106
630.3794, 4253.458
630.8615, 4244.235
631.3436, 4232.785
631.8257, 4219.618
632.3079, 4206.070
632.7900, 4192.509
633.2721, 4179.388
633.7542, 4167.416
634.2363, 4156.516
634.7184, 4146.466
635.2006, 4137.687
635.6827, 4128.384
636.1648, 4117.055
636.6469, 4103.763
637.1290, 4090.018
637.6111, 4074.170
638.0933, 4059.929
638.5754, 4050.087
639.0575, 4041.715
639.5396, 4031.276
640.0217, 4018.422
640.5038, 4005.228
640.9860, 3993.360
641.4681, 3982.372
641.9502, 3969.724
642.4323, 3954.498
642.9144, 3939.882
643.3965, 3927.290
643.8787, 3914.844
644.3608, 3901.478
644.8429, 3887.152
645.3250, 3872.069
645.8071, 3856.027
646.2892, 3839.421
646.7714, 3822.036
647.2535, 3804.409
647.7356, 3788.838
648.2177, 3776.247
648.6998, 3763.837
649.1819, 3748.496
649.6641, 3729.984
650.1462, 3712.847
650.6283, 3698.458
651.1104, 3683.590
651.5925, 3668.370
652.0746, 3651.946
652.5568, 3632.634
653.0389, 3610.744
653.5210, 3589.773
654.0031, 3573.106
654.4852, 3559.138
654.9673, 3543.458
655.4495, 3525.991
655.9316, 3507.676
656.4137, 3488.413
656.8958, 3469.027
657.3779, 3450.270
657.8600, 3432.152
658.3422, 3415.659
658.8243, 3403.574
659.3064, 3390.500
659.7885, 3371.892
660.2706, 3350.794
660.7527, 3332.555
661.2349, 3318.620
661.7170, 3305.041
662.1991, 3287.062
662.6812, 3264.958
663.1633, 3245.485
663.6454, 3230.055
664.1276, 3214.115
664.6097, 3195.467
665.0918, 3176.078
665.5739, 3157.615
666.0560, 3140.102
666.5381, 3122.816
667.0203, 3105.040
667.5024, 3087.582
667.9845, 3071.425
668.4666, 3056.420
668.9487, 3042.002
669.4308, 3028.102
669.9130, 3013.379
670.3951, 2995.623
670.8772, 2974.235
671.3593, 2954.832
671.8414, 2940.043
672.3235, 2924.156
672.8057, 2905.374
673.2878, 2885.295
673.7699, 2865.039
674.2520, 2845.126
674.7341, 2826.583
675.2162, 2810.841
675.6984, 2796.867
676.1805, 2782.902
676.6626, 2768.857
677.1447, 2753.948
677.6268, 2737.625
678.1089, 2720.858
678.5911, 2704.922
679.0732, 2689.774
679.5553, 2675.455
680.0374, 2663.008
680.5195, 2650.079
681.0016, 2635.652
681.4838, 2620.344
681.9659, 2605.030
682.4480, 2589.945
682.9301, 2574.777
683.4122, 2558.726
683.8943, 2542.423
684.3765, 2528.262
684.8586, 2516.677
685.3407, 2505.002
685.8228, 2492.257
686.3049, 2479.136
686.7870, 2466.531
687.2692, 2454.440
687.7513, 2442.278
688.2334, 2429.546
688.7155, 2417.154
689.1976, 2406.324
689.6797, 2395.954
690.1619, 2384.206
690.6440, 2370.690
691.1261, 2356.287
691.6082, 2341.550
692.0903, 2326.746
692.5724, 2313.996
693.0546, 2304.204
693.5367, 2294.017
694.0188, 2282.383
694.5009, 2270.102
694.9830, 2257.659
695.4651, 2245.191
695.9473, 2233.400
696.4294, 2222.957
696.9116, 2212.786
697.3937, 2202.075
697.8758, 2191.119
698.3579, 2180.451
698.8400, 2170.212
699.3221, 2160.261
699.8043, 2150.624
700.2864, 2141.151
700.7685, 2130.609
701.2506, 2118.024
701.7327, 2106.389
702.2148, 2097.134
702.6970, 2088.370
703.1791, 2079.194
703.6612, 2069.532
704.1433, 2059.069
704.6254, 2046.940
705.1075, 2035.100
705.5897, 2025.891
706.0718, 2018.033
706.5539, 2008.725
707.0360, 1997.490
707.5181, 1986.333
708.0002, 1976.932
708.4824, 1968.830
708.9645, 1959.533
709.4466, 1948.002
709.9287, 1937.225
710.4108, 1928.274
710.8929, 1919.368
711.3751, 1909.110
711.8572, 1898.085
712.3393, 1888.166
712.8214, 1880.390
713.3035, 1872.802
713.7856, 1863.600
714.2678, 1853.398
714.7499, 1843.156
715.2320, 1833.104
715.7141, 1823.451
716.1962, 1814.456
716.6783, 1805.876
717.1605, 1797.054
717.6426, 1788.119
718.1247, 1778.738
718.6068, 1767.983
719.0889, 1757.810
719.5710, 1749.726
720.0532, 1742.608
720.5353, 1734.432
721.0174, 1724.521
721.4995, 1714.147
721.9816, 1703.954
722.4637, 1694.096
722.9459, 1684.928
723.4280, 1676.415
723.9101, 1668.168
724.3922, 1659.944
724.8743, 1651.748
725.3564, 1643.679
725.8386, 1635.923
726.3207, 1627.499
726.8028, 1617.988
727.2849, 1608.207
727.7670, 1597.346
728.2491, 1586.843
728.7313, 1579.009
729.2134, 1574.016
729.6955, 1568.510
730.1776, 1559.276
730.6597, 1548.529
731.1418, 1539.751
731.6240, 1532.748
732.1061, 1526.154
732.5882, 1519.614
733.0703, 1512.651
733.5524, 1504.618
734.0345, 1495.475
734.5167, 1486.359
734.9988, 1477.338
735.4809, 1468.250
735.9630, 1458.444
736.4451, 1449.103
736.9272, 1441.503
737.4094, 1435.432
737.8915, 1429.207
738.3736, 1421.864
738.8557, 1414.208
739.3378, 1406.913
739.8199, 1399.999
740.3021, 1393.591
740.7842, 1387.705
741.2663, 1381.689
741.7484, 1374.970
742.2305, 1367.672
742.7126, 1360.447
743.1948, 1352.889
743.6769, 1346.147
744.1590, 1341.449
744.6411, 1336.402
745.1232, 1329.165
745.6053, 1320.774
746.0875, 1313.479
746.5696, 1308.169
747.0517, 1303.392
747.5338, 1298.359
748.0159, 1293.047
748.4980, 1287.351
748.9802, 1281.311
749.4623, 1275.354
749.9444, 1269.637
750.4265, 1264.117
750.9086, 1258.694
751.3907, 1253.408
751.8729, 1248.072
752.3550, 1242.748
752.8371, 1237.219
753.3192, 1230.922
753.8013, 1224.682
754.2834, 1219.788
754.7656, 1216.291
755.2477, 1212.021
755.7298, 1204.754
756.2119, 1197.250
756.6940, 1192.467
757.1761, 1189.509
757.6583, 1186.161
758.1404, 1181.797
758.6225, 1177.017
759.1046, 1172.320
759.5867, 1167.760
760.0688, 1163.503
760.5510, 1159.675
761.0331, 1155.915
761.5152, 1152.360
761.9973, 1148.635
762.4794, 1144.244
762.9615, 1139.475
763.4437, 1135.296
763.9258, 1132.396
764.4079, 1129.243
764.8900, 1124.730
765.3721, 1119.822
765.8542, 1115.510
766.3364, 1111.875
766.8185, 1108.759
767.3006, 1106.095
767.7827, 1103.559
768.2648, 1100.443
768.7469, 1096.708
769.2291, 1093.705
769.7112, 1091.944
770.1933, 1089.569
770.6754, 1085.048
771.1575, 1079.791
771.6396, 1076.436
772.1218, 1075.301
772.6039, 1073.445
773.0860, 1069.830
773.5681, 1066.005
774.0502, 1062.766
774.5323, 1059.849
775.0145, 1056.944
775.4966, 1053.937
775.9787, 1050.691
776.4608, 1046.951
776.9429, 1043.050
777.4250, 1039.750
777.9072, 1037.053
778.3893, 1034.766
778.8714, 1032.988
779.3535, 1031.052
779.8356, 1028.206
780.3177, 1024.664
780.7999, 1021.939
781.2820, 1020.516
781.7641, 1019.167
782.2462, 1017.929
782.7283, 1016.634
783.2104, 1015.153
783.6926, 1013.530
784.1747, 1011.997
784.6568, 1010.679
785.1389, 1008.871
785.6210, 1005.207
786.1031, 1000.889
786.5853, 998.5241
787.0674, 998.0027
787.5495, 997.3933
788.0316, 995.8647
788.5137, 993.9807
788.9958, 992.5573
789.4780, 991.6393
789.9601, 990.5656
790.4422, 989.0774
790.9243, 987.8665
791.4064, 987.1335
791.8885, 986.7068
792.3707, 986.8782
792.8528, 987.3725
793.3349, 986.7878
793.8170, 983.9760
794.2991, 980.9024
794.7813, 978.4023
795.2634, 976.5709
795.7455, 975.8987
796.2276, 976.1324
796.7097, 976.0616
797.1918, 974.9283
797.6740, 973.2202
798.1561, 971.7020
798.6382, 970.3464
799.1203, 969.9347
799.6024, 970.8813
800.0845, 971.6591
800.5667, 971.4125
801.0488, 970.6067
801.5309, 970.0218
802.0130, 969.6249
802.4951, 969.4938
802.9772, 969.3333
803.4594, 969.7758
803.9415, 971.6480
804.4236, 973.9567
804.9057, 975.4211
805.3878, 975.9590
805.8699, 976.4828
806.3521, 977.5105
806.8342, 979.0076
807.3163, 981.1531
807.7985, 983.7623
808.2806, 985.8985
808.7627, 987.3890
809.2448, 989.0748
809.7269, 991.5671
810.2090, 994.7092
810.6912, 998.1068
811.1733, 1002.431
811.6554, 1005.418
812.1375, 1004.853
812.6196, 1005.517
813.1017, 1010.305
813.5839, 1016.803
814.0660, 1021.658
814.5481, 1024.374
815.0302, 1027.256
815.5123, 1031.248
815.9944, 1035.784
816.4766, 1039.983
816.9587, 1044.543
817.4408, 1051.165
817.9229, 1059.900
818.4050, 1068.491
818.8871, 1074.997
819.3693, 1080.152
819.8514, 1085.890
820.3335, 1092.194
820.8156, 1099.275
821.2977, 1107.247
821.7798, 1115.775
822.2620, 1124.835
822.7441, 1134.299
823.2262, 1143.725
823.7083, 1152.916
824.1904, 1162.628
824.6725, 1173.342
825.1547, 1184.120
825.6368, 1193.905
826.1189, 1203.760
826.6010, 1215.460
827.0831, 1229.196
827.5652, 1242.868
828.0474, 1254.522
828.5295, 1265.886
829.0116, 1279.204
829.4937, 1293.870
829.9758, 1308.552
830.4579, 1322.924
830.9401, 1336.887
831.4222, 1350.298
831.9043, 1363.628
832.3864, 1378.704
832.8685, 1395.952
833.3506, 1412.271
833.8328, 1426.711
834.3149, 1441.396
834.7970, 1457.221
835.2791, 1474.018
835.7612, 1491.415
836.2433, 1509.506
836.7255, 1527.339
837.2076, 1544.843
837.6897, 1561.798
838.1718, 1577.448
838.6539, 1592.827
839.1360, 1609.513
839.6182, 1627.463
840.1003, 1645.229
840.5824, 1661.955
841.0645, 1677.920
841.5466, 1693.495
842.0287, 1708.684
842.5109, 1723.111
842.9930, 1736.776
843.4751, 1749.995
843.9572, 1762.915
844.4393, 1775.390
844.9214, 1786.889
845.4036, 1797.481
845.8857, 1806.951
846.3678, 1815.359
846.8499, 1822.584
847.3320, 1828.046
847.8141, 1832.600
848.2963, 1837.431
848.7784, 1842.443
849.2605, 1845.985
849.7426, 1848.090
850.2247, 1848.229
850.7068, 1845.642
851.1890, 1841.394
851.6711, 1836.414
852.1532, 1830.795
852.6353, 1824.445
853.1174, 1817.386
853.5995, 1808.995
854.0817, 1798.366
854.5638, 1785.811
855.0459, 1772.391
855.5280, 1758.071
856.0101, 1742.224
856.4922, 1724.453
856.9744, 1705.855
857.4565, 1688.016
857.9386, 1670.801
858.4207, 1652.474
858.9028, 1633.047
859.3849, 1612.450
859.8671, 1590.019
860.3492, 1567.198
860.8313, 1545.540
861.3134, 1524.332
861.7955, 1501.244
862.2776, 1475.185
862.7598, 1449.421
863.2419, 1424.552
863.7240, 1400.683
864.2061, 1378.789
864.6882, 1357.568
865.1703, 1334.338
865.6525, 1308.585
866.1346, 1282.961
866.6167, 1259.425
867.0988, 1237.154
867.5809, 1215.141
868.0630, 1193.336
868.5452, 1171.866
869.0273, 1150.675
869.5094, 1129.945
869.9915, 1109.761
870.4736, 1090.161
870.9557, 1071.335
871.4379, 1053.304
871.9200, 1035.452
872.4021, 1017.579
872.8842, 1000.237
873.3663, 983.4692
873.8484, 967.4781
874.3306, 953.4716
874.8127, 941.5886
875.2948, 927.4015
875.7769, 908.2666
876.2590, 889.9343
876.7411, 874.3300
877.2233, 860.1185
877.7054, 846.4427
878.1875, 833.1893
878.6696, 820.2315
879.1517, 807.5746
879.6339, 795.4074
880.1160, 783.9262
880.5981, 773.0383
881.0802, 762.6522
881.5623, 752.6559
882.0444, 742.4992
882.5266, 732.0691
883.0087, 721.9609
883.4908, 712.9119
883.9729, 704.6241
884.4550, 695.9903
884.9371, 686.9994
885.4193, 678.3607
885.9014, 670.1925
886.3835, 662.4493
886.8656, 655.1613
887.3477, 648.2280
887.8298, 641.2609
888.3120, 634.1096
888.7941, 627.4111
889.2762, 621.1276
889.7583, 615.3242
890.2404, 610.2693
890.7225, 605.5468
891.2047, 600.8163
891.6868, 596.0248
892.1689, 591.0045
892.6510, 585.4382
893.1331, 579.9968
893.6152, 574.8812
894.0974, 570.1373
894.5795, 565.9031
895.0616, 562.0624
895.5437, 558.3949
896.0258, 554.7805
896.5079, 551.1180
896.9901, 547.1475
897.4722, 543.1044
897.9543, 539.6489
898.4364, 536.7097
898.9185, 533.6721
899.4006, 530.3786
899.8828, 527.4039
900.3649, 525.3011
900.8470, 523.8028
901.3291, 521.8801
901.8112, 519.4186
902.2933, 517.1293
902.7755, 515.1679
903.2576, 513.1625
903.7397, 510.9902
904.2218, 508.6342
904.7039, 506.0288
905.1860, 503.1549
905.6682, 500.2913
906.1503, 497.3314
906.6324, 494.5493
907.1145, 491.7122
907.5966, 489.3231
908.0787, 488.0791
908.5609, 487.6108
909.0430, 486.8768
909.5251, 485.5534
910.0072, 483.9435
910.4893, 481.9972
910.9714, 480.0273
911.4536, 478.1903
911.9357, 476.6140
912.4178, 475.6097
912.8999, 475.1837
913.3820, 474.9051
913.8641, 474.5612
914.3463, 473.9117
914.8284, 472.1531
915.3105, 469.6363
915.7926, 468.0960
916.2748, 467.7455
916.7569, 467.3134
917.2390, 466.0667
917.7211, 464.5918
918.2032, 463.9683
918.6854, 464.2638
919.1675, 463.5874
919.6496, 461.4486
920.1317, 459.9197
920.6138, 459.8985
921.0959, 460.0851
921.5781, 459.2712
922.0602, 457.6963
922.5423, 456.5572
923.0244, 456.2935
923.5065, 455.6134
923.9886, 453.9654
924.4708, 452.4593
924.9529, 451.8226
925.4350, 451.4682
925.9171, 450.5530
926.3992, 449.0471
926.8813, 447.7883
927.3635, 447.1744
927.8456, 446.8143
928.3277, 446.4758
928.8098, 446.2820
929.2919, 446.7096
929.7740, 447.3777
930.2562, 447.2260
930.7383, 445.8233
931.2204, 443.9314
931.7025, 442.0528
932.1846, 440.3221
932.6667, 439.0241
933.1489, 438.1105
933.6310, 437.4830
934.1131, 437.0928
934.5952, 436.7390
935.0773, 436.3020
935.5594, 435.6797
936.0416, 434.6109
936.5237, 433.0906
937.0058, 431.4356
937.4879, 429.6298
937.9700, 427.8686
938.4521, 426.2459
938.9343, 424.6593
939.4164, 422.9791
939.8985, 421.2115
940.3806, 419.4232
940.8627, 417.4667
941.3448, 415.8057
941.8270, 414.7938
942.3091, 413.7277
942.7912, 412.1447
943.2733, 410.3270
943.7554, 408.7872
944.2375, 407.6231
944.7197, 406.1330
945.2018, 403.7895
945.6839, 401.6227
946.1660, 400.3640
946.6481, 399.1844
947.1302, 397.2124
947.6124, 394.6289
948.0945, 392.2293
948.5766, 390.3353
949.0587, 388.3137
949.5408, 385.3490
950.0229, 382.4070
950.5051, 380.5057
950.9872, 379.3178
951.4693, 378.3542
951.9514, 377.3643
952.4335, 375.8608
952.9156, 373.3688
953.3978, 370.6042
953.8799, 368.6878
954.3620, 367.3086
954.8441, 365.6144
955.3262, 363.5757
955.8083, 361.4167
956.2905, 359.2267
956.7726, 357.3308
957.2547, 356.1792
957.7368, 355.5543
958.2189, 354.4658
958.7010, 352.8957
959.1832, 351.1032
959.6653, 349.0318
960.1474, 347.1443
960.6295, 345.7062
961.1116, 344.5909
961.5938, 343.5910
962.0759, 342.7229
962.5580, 341.7701
963.0401, 340.6879
963.5222, 339.6158
964.0043, 338.6078
964.4865, 337.5855
964.9686, 336.4865
965.4507, 335.3294
965.9328, 334.1407
966.4149, 332.7739
966.8970, 331.7758
967.3792, 331.2134
967.8613, 330.9936
968.3434, 331.6886
968.8255, 332.2614
969.3076, 331.3628
969.7897, 329.2999
970.2719, 327.8374
970.7540, 327.5844
971.2361, 327.6943
971.7182, 328.1882
972.2003, 328.5503
972.6824, 328.2319
973.1646, 327.5663
973.6467, 327.0998
974.1288, 326.9359
974.6109, 326.8441
975.0930, 326.7541
975.5751, 326.5764
976.0573, 326.1051
976.5394, 325.5635
977.0215, 325.3423
977.5036, 325.3636
977.9857, 325.2132
978.4678, 324.7646
978.9500, 324.4654
979.4321, 324.8435
979.9142, 325.5734
980.3963, 326.1249
980.8784, 326.4604
981.3605, 326.2861
981.8427, 325.6341
982.3248, 325.1905
982.8069, 325.3240
983.2890, 325.8156
983.7711, 326.4619
984.2532, 327.1914
984.7354, 327.3836
985.2175, 327.0163
985.6996, 326.9792
986.1817, 327.5216
986.6638, 327.9975
987.1459, 327.8971
987.6281, 327.5502
988.1102, 327.7429
988.5923, 328.5789
989.0744, 329.1758
989.5565, 329.4522
990.0386, 329.7603
990.5208, 330.3345
991.0029, 330.7131
991.4850, 330.3769
991.9671, 329.5410
992.4492, 329.0266
992.9313, 328.8494
993.4135, 328.9720
993.8956, 329.9211
994.3777, 330.4577
994.8598, 329.8191
995.3419, 328.8908
995.8240, 328.4960
996.3062, 328.5614
996.7883, 328.5719
997.2704, 328.4808
997.7525, 328.3441
998.2346, 328.2100
998.7167, 327.9842
999.1989, 327.5766
999.6810, 327.0750
1000.163, 326.6399
1000.645, 326.2465
1001.127, 325.6211
1001.609, 324.4036
1002.092, 323.3869
1002.574, 323.0931
1003.056, 322.9240
1003.538, 322.4971
1004.020, 321.8292
1004.502, 320.8833
1004.984, 319.7265
1005.466, 318.8802
1005.948, 319.0555
1006.431, 319.0166
1006.913, 317.5280
1007.395, 315.5671
1007.877, 314.3766
1008.359, 313.7032
1008.841, 312.5244
1009.323, 310.6033
1009.805, 308.9961
1010.288, 308.8232
1010.770, 309.0445
1011.252, 308.4880
1011.734, 307.3843
1012.216, 305.9975
1012.698, 304.4759
1013.180, 303.0838
1013.662, 301.9386
1014.144, 301.0312
1014.627, 300.5193
1015.109, 300.0948
1015.591, 299.0261
1016.073, 297.5269
1016.555, 296.3098
1017.037, 295.4413
1017.519, 294.5509
1018.001, 293.4528
1018.484, 292.3958
1018.966, 291.8723
1019.448, 291.5893
1019.930, 290.2186
1020.412, 287.9402
1020.894, 286.4972
1021.376, 286.1797
1021.858, 285.8156
1022.340, 284.7343
1022.823, 283.2247
1023.305, 281.6348
1023.787, 280.0150
1024.269, 278.8628
1024.751, 278.1926
1025.233, 277.7599
1025.715, 277.5967
1026.197, 277.0663
1026.680, 275.6992
1027.162, 273.9212
1027.644, 272.5367
1028.126, 271.5554
1028.608, 270.5574
1029.090, 269.5021
1029.572, 268.7062
1030.054, 268.3827
1030.536, 267.8610
1031.019, 266.5243
1031.501, 264.8995
1031.983, 264.1534
1032.465, 264.4304
1032.947, 264.4916
1033.429, 264.3365
1033.911, 263.9291
1034.393, 263.0643
1034.875, 262.2976
1035.358, 262.1161
1035.840, 262.2448
1036.322, 261.9829
1036.804, 261.1507
1037.286, 260.8115
1037.768, 261.4028
1038.250, 261.7022
1038.732, 261.4729
1039.215, 260.8415
1039.697, 259.6581
1040.179, 258.2074
1040.661, 257.2352
1041.143, 256.8647
1041.625, 256.5084
1042.107, 256.0640
1042.589, 255.7774
1043.072, 255.7168
1043.554, 255.8103
1044.036, 256.2631
1044.518, 256.7852
1045.000, 256.5991
1045.482, 255.4306
1045.964, 254.5762
1046.446, 254.2919
1046.928, 254.1053
1047.411, 253.9120
1047.893, 253.7626
1048.375, 253.6629
1048.857, 253.6446
1049.339, 253.8544
1049.821, 254.4318
1050.303, 254.5787
1050.785, 253.7106
1051.267, 253.0036
1051.750, 253.1906
1052.232, 253.3509
1052.714, 252.5162
1053.196, 251.1431
1053.678, 250.3204
1054.160, 250.2519
1054.642, 250.4114
1055.124, 251.0268
1055.607, 251.3916
1056.089, 251.1468
1056.571, 250.6348
1057.053, 250.1208
1057.535, 249.5712
1058.017, 248.8457
1058.499, 247.9104
1058.981, 246.9311
1059.464, 245.5877
1059.946, 244.6996
1060.428, 245.0371
1060.910, 245.5733
1061.392, 245.5142
1061.874, 244.9521
1062.356, 244.1859
1062.838, 243.2673
1063.320, 242.3159
1063.802, 241.0629
1064.285, 240.1875
1064.767, 240.4288
1065.249, 240.7832
1065.731, 240.4416
1066.213, 239.5380
1066.695, 238.3368
1067.177, 236.9092
1067.659, 235.8096
1068.142, 235.4896
1068.624, 235.2519
1069.106, 235.0006
1069.588, 234.4892
1070.070, 233.2237
1070.552, 231.6626
1071.034, 230.7365
1071.516, 230.5665
1071.999, 230.1118
1072.481, 228.5550
1072.963, 227.1270
1073.445, 226.5350
1073.927, 226.1635
1074.409, 225.6385
1074.891, 224.9079
1075.373, 223.8094
1075.855, 222.4069
1076.338, 221.3946
1076.820, 221.3546
1077.302, 221.2483
1077.784, 220.4959
1078.266, 219.5654
1078.748, 218.8236
1079.230, 218.1492
1079.712, 217.2736
1080.194, 216.2125
1080.677, 215.3255
1081.159, 214.8801
1081.641, 214.3535
1082.123, 213.4930
1082.605, 212.4758
1083.087, 211.2657
1083.569, 210.0850
1084.052, 209.2204
1084.534, 208.6645
1085.016, 208.1952
1085.498, 207.7246
1085.980, 207.3693
1086.462, 207.4563
1086.944, 207.3664
1087.426, 206.5880
1087.908, 205.4786
1088.391, 204.3607
1088.873, 203.3366
1089.355, 202.5912
1089.837, 202.2603
1090.319, 201.8427
1090.801, 201.0591
1091.283, 200.2273
1091.765, 199.4131
1092.247, 198.7301
1092.730, 198.4075
1093.212, 198.2839
1093.694, 197.8736
1094.176, 197.0107
1094.658, 196.3228
1095.140, 196.3161
1095.622, 196.1700
1096.104, 195.4324
1096.587, 194.4646
1097.069, 193.4353
1097.551, 192.4740
1098.033, 191.7778
1098.515, 191.3840
1098.997, 191.1436
1099.479, 191.2814
1099.961, 191.1985
1100.443, 190.3604
1100.926, 189.5679
1101.408, 189.5480
1101.890, 189.8828
1102.372, 189.9162
1102.854, 189.5750
1103.336, 189.0257
1103.818, 188.0311
1104.300, 187.2395
1104.782, 186.9575
1105.265, 186.7277
1105.747, 186.1268
1106.229, 185.5489
1106.711, 185.7691
1107.193, 186.6106
1107.675, 186.5391
1108.157, 184.4672
1108.639, 183.2084
1109.122, 183.9115
1109.604, 184.4941
1110.086, 183.9109
1110.568, 183.0245
1111.050, 182.6637
1111.532, 182.7244
1112.014, 182.7073
1112.496, 182.5523
1112.979, 182.4266
1113.461, 182.5128
1113.943, 182.3889
1114.425, 181.5282
1114.907, 180.8598
1115.389, 181.4185
1115.871, 182.5168
1116.353, 182.5146
1116.835, 181.1526
1117.318, 180.2267
1117.800, 179.7984
1118.282, 179.7179
1118.764, 180.2563
1119.246, 180.6987
1119.728, 180.6402
1120.210, 180.2639
1120.692, 179.7986
1121.174, 179.2483
1121.657, 178.8780
1122.139, 178.7244
1122.621, 178.6524
1123.103, 178.6844
1123.585, 178.7079
1124.067, 178.6356
1124.549, 178.6231
1125.031, 178.8970
1125.514, 179.3491
1125.996, 179.4452
1126.478, 179.1020
1126.960, 178.8468
1127.442, 178.7146
1127.924, 178.5726
1128.406, 178.3927
1128.888, 178.1217
1129.370, 177.6780
1129.853, 177.1965
1130.335, 177.0568
1130.817, 177.2573
1131.299, 176.9960
1131.781, 176.2343
1132.263, 175.8883
1132.745, 176.1614
1133.227, 176.5388
1133.709, 176.7361
1134.192, 176.7901
1134.674, 176.6780
1135.156, 176.5135
1135.638, 176.9578
1136.120, 177.8664
1136.602, 177.9877
1137.084, 177.2584
1137.566, 176.6127
1138.049, 176.4222
1138.531, 176.5399
1139.013, 176.9092
1139.495, 177.2886
1139.977, 177.0681
1140.459, 176.5092
1140.941, 176.3942
1141.423, 176.6527
1141.906, 176.7718
1142.388, 176.6707
1142.870, 176.8512
1143.352, 177.7055
1143.834, 178.4280
1144.316, 177.7947
1144.798, 176.6304
1145.280, 176.1107
1145.762, 176.0677
1146.245, 176.1906
1146.727, 176.3672
1147.209, 176.4491
1147.691, 176.3819
1148.173, 176.3614
1148.655, 176.6751
1149.137, 176.9468
1149.619, 176.7100
1150.101, 176.3601
1150.584, 176.3422
1151.066, 176.5864
1151.548, 176.9699
1152.030, 177.4037
1152.512, 177.5047
1152.994, 176.8433
1153.476, 176.3566
1153.958, 176.7228
1154.441, 177.1725
1154.923, 177.2289
1155.405, 177.0412
1155.887, 176.6549
1156.369, 176.2231
1156.851, 176.2312
1157.333, 176.9224
1157.815, 177.4540
1158.297, 177.4440
1158.780, 177.5220
1159.262, 178.0084
1159.744, 178.5329
1160.226, 178.9239
1160.708, 179.1298
1161.190, 178.9763
1161.672, 178.4231
1162.154, 178.2060
1162.636, 178.4317
1163.119, 178.8179
1163.601, 179.6129
1164.083, 180.0776
1164.565, 179.7316
1165.047, 179.1925
1165.529, 179.1332
1166.011, 179.4092
1166.493, 179.3632
1166.976, 178.7982
1167.458, 179.0027
1167.940, 180.1839
1168.422, 181.1230
1168.904, 181.5361
1169.386, 181.6006
1169.868, 181.3975
1170.350, 181.0414
1170.833, 180.6886
1171.315, 180.3634
1171.797, 180.2217
1172.279, 180.2551
1172.761, 180.3266
1173.243, 180.4361
1173.725, 180.8479
1174.207, 181.6542
1174.689, 182.4417
1175.172, 182.8499
1175.654, 182.9735
1176.136, 182.8206
1176.618, 182.5769
1177.100, 182.7756
1177.582, 183.2403
1178.064, 183.4123
1178.546, 183.2261
1179.028, 182.9288
1179.511, 182.6196
1179.993, 182.5923
1180.475, 183.3589
1180.957, 184.2569
1181.439, 184.7656
1181.921, 184.9215
1182.403, 184.4525
1182.885, 183.7973
1183.368, 183.9488
1183.850, 185.0338
1184.332, 185.9778
1184.814, 186.4050
1185.296, 186.4922
1185.778, 185.9461
1186.260, 185.4970
1186.742, 185.6812
1187.224, 186.1185
1187.707, 186.3553
1188.189, 186.4637
1188.671, 186.8590
1189.153, 187.7745
1189.635, 188.2225
1190.117, 187.6746
1190.599, 187.3678
1191.081, 187.5074
1191.564, 187.9246
1192.046, 188.7677
1192.528, 189.5551
1193.010, 189.4998
1193.492, 188.7615
1193.974, 188.7285
1194.456, 189.5569
1194.938, 190.3155
1195.421, 191.0020
1195.903, 191.3160
1196.385, 191.1096
1196.867, 190.9183
1197.349, 191.1518
1197.831, 191.5890
1198.313, 191.7231
1198.795, 191.7207
1199.277, 192.6428
1199.760, 194.2191
1200.242, 194.8950
1200.724, 194.6212
1201.206, 194.4408
1201.688, 194.7457
1202.170, 195.1409
1202.652, 195.2562
1203.134, 195.4224
1203.616, 196.1992
1204.099, 197.1814
1204.581, 197.8670
1205.063, 198.2697
1205.545, 198.2650
1206.027, 198.0717
1206.509, 198.5236
1206.991, 199.9961
1207.473, 201.1179
1207.956, 200.8241
1208.438, 200.4324
1208.920, 200.5018
1209.402, 200.8643
1209.884, 201.5496
1210.366, 202.3348
1210.848, 202.8663
1211.330, 203.1546
1211.813, 203.5696
1212.295, 204.2710
1212.777, 204.8457
1213.259, 205.0977
1213.741, 205.5518
1214.223, 206.5858
1214.705, 207.4444
1215.187, 207.4642
1215.669, 207.1681
1216.151, 207.5549
1216.634, 208.5685
1217.116, 209.2004
1217.598, 209.4046
1218.080, 209.8446
1218.562, 210.6092
1219.044, 211.0166
1219.526, 210.8202
1220.008, 210.5446
1220.491, 210.5898
1220.973, 210.9433
1221.455, 211.7316
1221.937, 212.7453
1222.419, 213.5375
1222.901, 214.0719
1223.383, 214.1079
1223.865, 213.8019
1224.348, 213.8074
1224.830, 214.3237
1225.312, 214.8212
1225.794, 214.8696
1226.276, 214.9094
1226.758, 215.2289
1227.240, 215.7379
1227.722, 216.6556
1228.204, 217.5007
1228.687, 217.3843
1229.169, 216.6461
1229.651, 216.6752
1230.133, 217.9290
1230.615, 218.7410
1231.097, 218.4425
1231.579, 218.2335
1232.061, 218.0080
1232.543, 218.3161
1233.026, 218.8523
1233.508, 220.8890
1233.990, 227.2427
1234.472, 235.7122
1234.954, 236.1484
1235.436, 226.8250
1235.918, 221.5244
1236.400, 220.5546
1236.883, 220.3755
1237.365, 220.2955
1237.847, 220.5343
1238.329, 221.2218
1238.811, 222.0215
1239.293, 222.6186
1239.775, 222.9273
1240.257, 222.4898
1240.740, 221.7558
1241.222, 221.9291
1241.704, 222.7047
1242.186, 223.0396
1242.668, 222.8443
1243.150, 222.7487
1243.632, 223.0215
1244.114, 223.4992
1244.596, 224.2876
1245.078, 224.9754
1245.561, 225.1297
1246.043, 225.2419
1246.525, 225.7429
1247.007, 226.4726
1247.489, 227.2890
1247.971, 228.1016
1248.453, 228.4586
1248.935, 227.9547
1249.418, 227.8970
1249.900, 228.5441
1250.382, 229.1625
1250.864, 229.6237
1251.346, 229.9821
1251.828, 230.2381
1252.310, 230.4814
1252.792, 230.8487
1253.275, 231.2893
1253.757, 231.6447
1254.239, 231.8970
1254.721, 231.5653
1255.203, 230.7851
1255.685, 231.0301
1256.167, 232.4630
1256.649, 233.5128
1257.131, 233.3630
1257.614, 232.8988
1258.096, 232.7581
1258.578, 233.0683
1259.060, 234.3285
1259.542, 235.8305
1260.024, 236.5399
1260.506, 236.9034
1260.988, 238.0344
1261.470, 239.7423
1261.953, 240.5108
1262.435, 239.6358
1262.917, 239.2648
1263.399, 240.3512
1263.881, 241.4075
1264.363, 240.7833
1264.845, 241.6770
1265.327, 247.2514
1265.810, 253.3600
1266.292, 255.2556
1266.774, 253.7691
1267.256, 252.0240
1267.738, 249.9521
1268.220, 248.3039
1268.702, 247.0702
1269.184, 246.8181
1269.667, 247.6312
1270.149, 248.8500
1270.631, 250.1687
1271.113, 251.2078
1271.595, 251.5217
1272.077, 251.5904
1272.559, 252.0813
1273.041, 252.8255
1273.523, 253.5607
1274.005, 254.3677
1274.488, 255.5089
1274.970, 256.8687
1275.452, 258.0388
1275.934, 258.9095
1276.416, 259.7842
1276.898, 261.0862
1277.380, 261.9335
1277.862, 261.3139
1278.345, 261.1483
1278.827, 262.6713
1279.309, 264.7325
1279.791, 266.6355
1280.273, 268.2336
1280.755, 269.0939
1281.237, 269.2289
1281.719, 269.7327
1282.202, 270.6097
1282.684, 271.8138
1283.166, 273.3409
1283.648, 274.4727
1284.130, 274.9952
1284.612, 275.4884
1285.094, 276.3398
1285.576, 277.5130
1286.058, 279.1368
1286.541, 280.8738
1287.023, 282.4400
##END=



