##NAMES=Euxenite-(Y)
##RRUFFID=R080101
##IDEAL CHEMISTRY=(Y^3+^,Ca,Ce^3+^,U^4+^,Th^4+^)(Nb^5+^,Ta^5+^,Ti^4+^)_2_O_6_
##LOCALITY=Betafo, Madagascar
##OWNER=RRUFF
##SOURCE=Michael Scott
##DESCRIPTION=Khaki colored fragment from metamict sample R060856, after heating at T = 1000 C for 24 hours
##STATUS=The identification of this mineral has been confirmed by X-ray diffraction.
##URL=rruff.info/R080101
90.52570, 0.0000000E+00
91.00781, 236.5776
91.48993, 225.3467
91.97205, 220.8631
92.45416, 224.8148
92.93628, 235.3924
93.41840, 248.7184
93.90051, 264.0564
94.38263, 281.9883
94.86475, 303.4860
95.34686, 328.5513
95.82898, 357.4196
96.31110, 389.1904
96.79321, 424.2072
97.27533, 465.4606
97.75745, 513.2292
98.23956, 567.2363
98.72168, 624.5840
99.20380, 684.1038
99.68591, 748.7866
100.1680, 821.6501
100.6501, 902.0690
101.1323, 990.6356
101.6144, 1086.854
102.0965, 1190.661
102.5786, 1301.773
103.0607, 1419.118
103.5428, 1545.491
104.0250, 1688.813
104.5071, 1850.508
104.9892, 2024.734
105.4713, 2208.131
105.9534, 2399.759
106.4355, 2602.194
106.9177, 2823.355
107.3998, 3055.556
107.8819, 3282.542
108.3640, 3500.214
108.8461, 3713.344
109.3282, 3927.006
109.8104, 4146.284
110.2925, 4355.505
110.7746, 4549.585
111.2567, 4729.215
111.7388, 4907.891
112.2209, 5077.847
112.7031, 5250.067
113.1852, 5434.175
113.6673, 5631.518
114.1494, 5839.586
114.6315, 6057.002
115.1136, 6285.471
115.5958, 6528.451
116.0779, 6796.986
116.5600, 7077.875
117.0421, 7355.112
117.5242, 7631.197
118.0063, 7899.426
118.4885, 8159.248
118.9706, 8410.295
119.4527, 8654.105
119.9348, 8900.326
120.4169, 9138.774
120.8990, 9354.533
121.3812, 9534.303
121.8633, 9688.878
122.3454, 9825.347
122.8275, 9944.520
123.3096, 10049.55
123.7917, 10141.16
124.2739, 10220.26
124.7560, 10290.21
125.2381, 10350.35
125.7202, 10403.40
126.2023, 10452.36
126.6844, 10496.25
127.1666, 10539.17
127.6487, 10586.28
128.1308, 10637.76
128.6129, 10692.40
129.0950, 10748.12
129.5771, 10806.25
130.0593, 10871.97
130.5414, 10946.56
131.0235, 11029.20
131.5056, 11108.01
131.9877, 11142.60
132.4698, 11129.01
132.9520, 11122.63
133.4341, 11123.18
133.9162, 11121.47
134.3983, 11114.34
134.8804, 11102.71
135.3625, 11091.82
135.8447, 11083.05
136.3268, 11072.65
136.8089, 11054.92
137.2910, 11029.34
137.7731, 11000.34
138.2552, 10969.31
138.7374, 10936.44
139.2195, 10900.12
139.7016, 10859.45
140.1837, 10815.23
140.6658, 10769.81
141.1479, 10722.23
141.6301, 10673.72
142.1122, 10624.23
142.5943, 10572.89
143.0764, 10520.96
143.5585, 10466.63
144.0406, 10411.29
144.5228, 10358.11
145.0049, 10307.53
145.4870, 10258.92
145.9691, 10212.83
146.4512, 10170.64
146.9333, 10128.02
147.4155, 10085.23
147.8976, 10041.85
148.3797, 9996.697
148.8618, 9946.574
149.3439, 9896.613
149.8260, 9850.149
150.3082, 9811.132
150.7903, 9770.556
151.2724, 9725.216
151.7545, 9674.984
152.2366, 9628.371
152.7188, 9587.154
153.2009, 9548.416
153.6830, 9510.264
154.1651, 9474.499
154.6472, 9436.806
155.1293, 9396.377
155.6115, 9352.694
156.0936, 9308.526
156.5757, 9266.605
157.0578, 9223.698
157.5399, 9176.868
158.0220, 9117.209
158.5042, 9060.690
158.9863, 9014.347
159.4684, 8979.950
159.9505, 8949.457
160.4326, 8922.082
160.9147, 8897.285
161.3969, 8874.186
161.8790, 8850.188
162.3611, 8829.514
162.8432, 8815.547
163.3253, 8811.153
163.8074, 8806.051
164.2896, 8793.087
164.7717, 8775.888
165.2538, 8761.810
165.7359, 8756.429
166.2180, 8753.791
166.7001, 8749.791
167.1823, 8744.225
167.6644, 8735.692
168.1465, 8722.817
168.6286, 8706.115
169.1107, 8687.130
169.5928, 8666.195
170.0750, 8643.706
170.5571, 8619.772
171.0392, 8594.941
171.5213, 8568.543
172.0034, 8539.537
172.4855, 8508.270
172.9677, 8476.827
173.4498, 8445.495
173.9319, 8414.852
174.4140, 8385.667
174.8961, 8357.877
175.3782, 8331.923
175.8604, 8308.816
176.3425, 8288.004
176.8246, 8265.976
177.3067, 8236.412
177.7888, 8203.524
178.2709, 8176.612
178.7531, 8160.305
179.2352, 8149.444
179.7173, 8136.378
180.1994, 8121.146
180.6815, 8106.314
181.1636, 8093.197
181.6458, 8082.151
182.1279, 8074.799
182.6100, 8072.693
183.0921, 8074.078
183.5742, 8075.396
184.0563, 8076.575
184.5385, 8078.399
185.0206, 8081.927
185.5027, 8086.849
185.9848, 8091.726
186.4669, 8096.784
186.9490, 8101.275
187.4312, 8101.415
187.9133, 8096.261
188.3954, 8092.710
188.8775, 8100.146
189.3596, 8117.532
189.8417, 8135.766
190.3239, 8150.013
190.8060, 8161.891
191.2881, 8179.384
191.7702, 8202.987
192.2523, 8229.737
192.7344, 8256.590
193.2166, 8283.507
193.6987, 8310.767
194.1808, 8339.210
194.6629, 8368.610
195.1450, 8396.062
195.6271, 8420.269
196.1093, 8445.862
196.5914, 8479.252
197.0735, 8520.547
197.5556, 8567.606
198.0377, 8621.464
198.5198, 8682.597
199.0020, 8739.944
199.4841, 8792.704
199.9662, 8843.051
200.4483, 8895.333
200.9304, 8949.666
201.4125, 9004.857
201.8947, 9061.955
202.3768, 9121.593
202.8589, 9174.613
203.3410, 9219.880
203.8231, 9260.244
204.3052, 9300.715
204.7874, 9342.396
205.2695, 9380.849
205.7516, 9415.483
206.2337, 9447.302
206.7158, 9467.752
207.1979, 9473.677
207.6801, 9471.303
208.1622, 9474.251
208.6443, 9485.177
209.1264, 9493.368
209.6085, 9493.151
210.0906, 9482.598
210.5728, 9472.178
211.0549, 9461.588
211.5370, 9451.625
212.0191, 9444.375
212.5012, 9440.066
212.9833, 9437.949
213.4655, 9438.471
213.9476, 9443.084
214.4297, 9444.737
214.9118, 9441.081
215.3939, 9435.629
215.8760, 9437.775
216.3581, 9450.517
216.8403, 9464.558
217.3224, 9474.841
217.8045, 9479.218
218.2866, 9486.528
218.7687, 9497.934
219.2508, 9511.728
219.7330, 9523.271
220.2151, 9532.104
220.6972, 9538.955
221.1793, 9543.783
221.6614, 9545.870
222.1435, 9547.434
222.6257, 9548.846
223.1078, 9549.567
223.5899, 9548.186
224.0720, 9544.476
224.5541, 9539.170
225.0362, 9532.303
225.5184, 9523.114
226.0005, 9514.966
226.4826, 9508.706
226.9647, 9503.589
227.4468, 9497.410
227.9289, 9491.572
228.4111, 9483.049
228.8932, 9469.948
229.3753, 9449.639
229.8574, 9432.014
230.3395, 9420.604
230.8216, 9411.434
231.3038, 9391.935
231.7859, 9354.525
232.2680, 9317.990
232.7501, 9291.262
233.2322, 9279.503
233.7143, 9265.639
234.1965, 9248.306
234.6786, 9228.860
235.1607, 9211.032
235.6428, 9195.545
236.1249, 9180.315
236.6070, 9163.983
237.0892, 9144.188
237.5713, 9128.190
238.0534, 9116.541
238.5355, 9108.421
239.0176, 9101.850
239.4997, 9096.563
239.9819, 9093.044
240.4640, 9091.927
240.9461, 9095.038
241.4282, 9096.373
241.9103, 9096.308
242.3924, 9094.440
242.8746, 9089.145
243.3567, 9077.068
243.8388, 9066.842
244.3209, 9061.728
244.8030, 9062.082
245.2851, 9067.172
245.7673, 9077.891
246.2494, 9093.116
246.7315, 9110.619
247.2136, 9131.313
247.6957, 9152.919
248.1778, 9174.240
248.6600, 9193.783
249.1421, 9217.737
249.6242, 9249.147
250.1063, 9283.478
250.5884, 9310.452
251.0705, 9321.894
251.5527, 9339.963
252.0348, 9374.285
252.5169, 9431.189
252.9990, 9481.955
253.4811, 9524.460
253.9632, 9562.640
254.4454, 9602.505
254.9275, 9644.061
255.4096, 9687.644
255.8917, 9734.006
256.3738, 9783.696
256.8560, 9832.131
257.3381, 9878.679
257.8202, 9924.879
258.3023, 9973.919
258.7844, 10025.28
259.2665, 10079.64
259.7487, 10138.08
260.2308, 10201.04
260.7129, 10263.04
261.1950, 10323.11
261.6771, 10382.96
262.1592, 10444.40
262.6414, 10506.03
263.1235, 10571.53
263.6056, 10642.35
264.0877, 10719.64
264.5698, 10793.84
265.0519, 10863.62
265.5341, 10931.85
266.0162, 11003.41
266.4983, 11079.56
266.9804, 11153.52
267.4625, 11223.54
267.9446, 11289.14
268.4268, 11358.33
268.9089, 11432.26
269.3910, 11505.34
269.8731, 11570.94
270.3552, 11625.96
270.8373, 11684.58
271.3195, 11752.73
271.8016, 11828.51
272.2837, 11894.23
272.7658, 11947.56
273.2479, 11997.73
273.7300, 12056.49
274.2122, 12126.47
274.6943, 12187.21
275.1764, 12231.93
275.6585, 12264.00
276.1406, 12301.93
276.6227, 12347.88
277.1049, 12392.94
277.5870, 12430.08
278.0691, 12459.05
278.5512, 12484.02
279.0333, 12506.15
279.5154, 12524.55
279.9976, 12535.44
280.4797, 12538.06
280.9618, 12536.99
281.4439, 12537.58
281.9260, 12539.88
282.4081, 12530.56
282.8903, 12505.93
283.3724, 12470.76
283.8545, 12436.16
284.3366, 12402.34
284.8187, 12366.32
285.3008, 12326.22
285.7830, 12281.95
286.2651, 12236.50
286.7472, 12189.57
287.2293, 12141.99
287.7114, 12095.48
288.1935, 12049.96
288.6757, 12003.78
289.1578, 11954.63
289.6399, 11903.39
290.1220, 11858.71
290.6041, 11822.31
291.0862, 11787.37
291.5684, 11741.85
292.0505, 11686.88
292.5326, 11635.34
293.0147, 11596.29
293.4968, 11565.48
293.9789, 11528.35
294.4611, 11484.32
294.9432, 11437.73
295.4253, 11392.34
295.9074, 11348.30
296.3895, 11307.20
296.8716, 11271.20
297.3538, 11237.94
297.8359, 11201.84
298.3180, 11162.44
298.8001, 11123.60
299.2822, 11089.87
299.7643, 11059.12
300.2465, 11026.27
300.7286, 10987.50
301.2107, 10947.13
301.6928, 10910.67
302.1749, 10878.29
302.6570, 10846.99
303.1392, 10816.17
303.6213, 10784.83
304.1034, 10751.78
304.5855, 10715.25
305.0676, 10678.17
305.5497, 10642.47
306.0319, 10608.24
306.5140, 10574.04
306.9961, 10536.69
307.4782, 10500.13
307.9603, 10469.56
308.4424, 10449.66
308.9246, 10429.63
309.4067, 10399.58
309.8888, 10362.35
310.3709, 10325.51
310.8530, 10292.95
311.3351, 10262.98
311.8173, 10235.12
312.2994, 10210.32
312.7815, 10183.31
313.2636, 10148.21
313.7457, 10109.30
314.2278, 10073.94
314.7100, 10049.56
315.1921, 10027.19
315.6742, 10000.08
316.1563, 9966.349
316.6384, 9936.726
317.1205, 9925.167
317.6027, 9918.371
318.0848, 9899.487
318.5669, 9852.665
319.0490, 9802.178
319.5311, 9756.830
320.0132, 9717.178
320.4954, 9679.342
320.9775, 9643.190
321.4596, 9608.079
321.9417, 9574.025
322.4238, 9540.910
322.9059, 9508.853
323.3881, 9479.832
323.8702, 9453.448
324.3523, 9421.964
324.8344, 9382.713
325.3165, 9339.251
325.7986, 9293.374
326.2808, 9238.975
326.7629, 9189.709
327.2450, 9148.487
327.7271, 9113.667
328.2092, 9078.538
328.6913, 9044.247
329.1735, 9008.666
329.6556, 8970.024
330.1377, 8924.780
330.6198, 8883.205
331.1019, 8848.141
331.5840, 8815.858
332.0662, 8778.105
332.5483, 8729.101
333.0304, 8682.368
333.5125, 8643.960
333.9946, 8615.643
334.4767, 8583.207
334.9589, 8544.347
335.4410, 8503.968
335.9231, 8468.971
336.4052, 8442.359
336.8873, 8413.953
337.3694, 8380.315
337.8515, 8342.191
338.3336, 8309.415
338.8158, 8282.928
339.2979, 8260.020
339.7800, 8238.578
340.2621, 8219.214
340.7442, 8198.837
341.2263, 8176.603
341.7085, 8153.584
342.1906, 8134.141
342.6727, 8118.161
343.1548, 8105.490
343.6369, 8097.061
344.1190, 8092.587
344.6012, 8086.773
345.0833, 8078.836
345.5654, 8069.596
346.0475, 8058.961
346.5296, 8047.190
347.0117, 8038.831
347.4939, 8039.833
347.9760, 8046.429
348.4581, 8044.955
348.9402, 8033.399
349.4223, 8021.540
349.9044, 8020.487
350.3866, 8028.327
350.8687, 8038.376
351.3508, 8049.287
351.8329, 8060.292
352.3150, 8069.233
352.7971, 8076.277
353.2793, 8085.176
353.7614, 8099.089
354.2435, 8116.954
354.7256, 8137.476
355.2077, 8162.584
355.6898, 8187.167
356.1720, 8204.686
356.6541, 8217.131
357.1362, 8232.901
357.6183, 8256.424
358.1004, 8285.769
358.5826, 8320.073
359.0647, 8361.034
359.5468, 8402.066
360.0289, 8439.731
360.5110, 8474.954
360.9931, 8509.640
361.4753, 8539.687
361.9574, 8572.804
362.4395, 8613.517
362.9216, 8663.086
363.4037, 8714.733
363.8858, 8768.013
364.3680, 8821.831
364.8501, 8875.272
365.3322, 8923.490
365.8143, 8975.553
366.2964, 9033.989
366.7785, 9099.115
367.2607, 9167.173
367.7428, 9237.642
368.2249, 9311.719
368.7070, 9390.537
369.1891, 9477.207
369.6712, 9563.420
370.1534, 9646.754
370.6355, 9729.645
371.1176, 9819.794
371.5997, 9918.749
372.0818, 10022.70
372.5639, 10131.24
373.0461, 10246.12
373.5282, 10360.92
374.0103, 10475.36
374.4924, 10591.89
374.9745, 10712.92
375.4566, 10839.99
375.9388, 10968.96
376.4209, 11095.81
376.9030, 11222.97
377.3851, 11359.86
377.8672, 11508.80
378.3493, 11666.17
378.8315, 11827.07
379.3136, 11993.05
379.7957, 12163.79
380.2778, 12341.58
380.7599, 12523.97
381.2420, 12708.89
381.7242, 12893.28
382.2063, 13087.03
382.6884, 13294.78
383.1705, 13515.96
383.6526, 13742.82
384.1347, 13974.02
384.6169, 14210.34
385.0990, 14442.79
385.5811, 14676.34
386.0632, 14917.29
386.5453, 15170.03
387.0274, 15432.03
387.5096, 15695.16
387.9917, 15958.30
388.4738, 16230.69
388.9559, 16517.33
389.4380, 16811.68
389.9201, 17107.62
390.4023, 17400.60
390.8844, 17694.40
391.3665, 17990.03
391.8486, 18289.90
392.3307, 18592.21
392.8128, 18899.63
393.2950, 19206.85
393.7771, 19511.52
394.2592, 19807.17
394.7413, 20113.06
395.2234, 20443.38
395.7055, 20783.57
396.1877, 21111.25
396.6698, 21413.73
397.1519, 21710.01
397.6340, 22009.00
398.1161, 22312.17
398.5982, 22607.71
399.0804, 22897.10
399.5625, 23177.73
400.0446, 23447.39
400.5267, 23703.74
401.0088, 23954.79
401.4909, 24198.41
401.9731, 24436.74
402.4552, 24674.12
402.9373, 24915.24
403.4194, 25148.38
403.9015, 25367.07
404.3836, 25568.49
404.8658, 25767.44
405.3479, 25963.88
405.8300, 26154.55
406.3121, 26334.79
406.7942, 26502.77
407.2763, 26670.66
407.7585, 26845.64
408.2406, 27024.26
408.7227, 27180.46
409.2048, 27311.13
409.6869, 27437.33
410.1690, 27578.54
410.6512, 27730.76
411.1333, 27881.53
411.6154, 28029.45
412.0975, 28173.72
412.5796, 28313.90
413.0617, 28450.77
413.5439, 28589.86
414.0260, 28740.92
414.5081, 28895.65
414.9902, 29038.79
415.4723, 29169.34
415.9544, 29298.49
416.4366, 29436.95
416.9187, 29578.67
417.4008, 29713.91
417.8829, 29844.36
418.3650, 29963.90
418.8471, 30067.50
419.3293, 30156.07
419.8114, 30241.51
420.2935, 30331.94
420.7756, 30418.41
421.2577, 30493.60
421.7398, 30560.39
422.2220, 30611.21
422.7041, 30647.47
423.1862, 30666.88
423.6683, 30665.75
424.1504, 30636.51
424.6325, 30593.52
425.1147, 30541.44
425.5968, 30480.25
426.0789, 30404.73
426.5610, 30305.36
427.0431, 30200.29
427.5252, 30106.10
428.0074, 30030.23
428.4895, 29946.97
428.9716, 29851.46
429.4537, 29748.22
429.9358, 29653.00
430.4179, 29566.85
430.9001, 29485.08
431.3822, 29406.24
431.8643, 29330.33
432.3464, 29254.70
432.8285, 29176.03
433.3106, 29108.62
433.7928, 29076.24
434.2749, 29075.29
434.7570, 29075.67
435.2391, 29069.89
435.7212, 29058.53
436.2033, 29047.22
436.6855, 29034.75
437.1676, 29006.30
437.6497, 28956.35
438.1318, 28882.51
438.6139, 28782.04
439.0960, 28655.70
439.5782, 28498.62
440.0603, 28309.67
440.5424, 28085.88
441.0245, 27825.33
441.5066, 27517.21
441.9887, 27177.75
442.4709, 26824.48
442.9530, 26456.13
443.4351, 26034.00
443.9172, 25521.68
444.3993, 24964.83
444.8814, 24403.51
445.3636, 23843.02
445.8457, 23273.91
446.3278, 22683.83
446.8099, 22086.91
447.2920, 21502.10
447.7741, 20924.83
448.2563, 20361.47
448.7384, 19823.52
449.2205, 19306.01
449.7026, 18810.26
450.1847, 18338.39
450.6668, 17893.03
451.1490, 17477.53
451.6311, 17089.26
452.1132, 16737.49
452.5953, 16420.16
453.0774, 16140.09
453.5595, 15887.91
454.0417, 15662.27
454.5238, 15468.96
455.0059, 15309.38
455.4880, 15183.79
455.9701, 15087.76
456.4522, 15022.36
456.9344, 14982.19
457.4165, 14964.01
457.8986, 14966.44
458.3807, 14985.96
458.8628, 15020.32
459.3449, 15072.54
459.8271, 15150.74
460.3092, 15251.84
460.7913, 15363.56
461.2734, 15480.37
461.7555, 15603.21
462.2376, 15732.90
462.7198, 15866.92
463.2019, 16014.80
463.6840, 16186.12
464.1661, 16370.72
464.6482, 16556.29
465.1303, 16744.29
465.6125, 16927.63
466.0946, 17100.59
466.5767, 17265.90
467.0588, 17435.37
467.5409, 17617.58
468.0230, 17797.63
468.5052, 17967.98
468.9873, 18121.67
469.4694, 18284.21
469.9515, 18461.47
470.4336, 18642.13
470.9157, 18812.17
471.3979, 18968.43
471.8800, 19122.64
472.3621, 19279.31
472.8442, 19435.76
473.3263, 19585.40
473.8084, 19727.89
474.2906, 19866.00
474.7727, 20002.10
475.2548, 20135.46
475.7369, 20262.81
476.2190, 20383.92
476.7011, 20499.24
477.1833, 20612.70
477.6654, 20722.48
478.1475, 20823.73
478.6296, 20912.84
479.1117, 20993.62
479.5938, 21070.30
480.0760, 21142.77
480.5581, 21207.55
481.0402, 21263.80
481.5223, 21311.81
482.0044, 21352.71
482.4865, 21388.19
482.9687, 21411.63
483.4508, 21423.09
483.9329, 21420.58
484.4150, 21401.19
484.8971, 21352.89
485.3792, 21299.74
485.8614, 21250.65
486.3435, 21204.34
486.8256, 21139.33
487.3077, 21054.29
487.7898, 20953.18
488.2719, 20835.00
488.7541, 20696.22
489.2362, 20559.49
489.7183, 20425.73
490.2004, 20292.75
490.6825, 20155.03
491.1646, 20011.70
491.6468, 19866.16
492.1289, 19716.12
492.6110, 19565.47
493.0931, 19413.43
493.5752, 19259.56
494.0573, 19116.89
494.5395, 18994.83
495.0216, 18889.58
495.5037, 18790.82
495.9858, 18699.60
496.4679, 18612.66
496.9500, 18526.24
497.4322, 18443.39
497.9143, 18370.68
498.3964, 18316.06
498.8785, 18267.50
499.3606, 18222.12
499.8427, 18178.27
500.3249, 18131.44
500.8070, 18079.34
501.2891, 18023.98
501.7712, 17967.76
502.2533, 17913.94
502.7354, 17851.04
503.2176, 17781.71
503.6997, 17701.20
504.1818, 17604.00
504.6639, 17485.73
505.1460, 17358.19
505.6281, 17223.13
506.1103, 17079.21
506.5924, 16926.47
507.0745, 16764.43
507.5566, 16594.57
508.0387, 16419.98
508.5208, 16240.04
509.0030, 16039.88
509.4851, 15817.44
509.9672, 15586.89
510.4493, 15363.70
510.9314, 15145.24
511.4135, 14920.78
511.8957, 14688.18
512.3778, 14452.93
512.8599, 14220.79
513.3420, 13992.09
513.8242, 13768.28
514.3063, 13542.80
514.7884, 13324.20
515.2705, 13121.45
515.7526, 12935.89
516.2347, 12756.08
516.7169, 12574.18
517.1990, 12398.24
517.6811, 12234.27
518.1632, 12084.01
518.6453, 11944.26
519.1274, 11814.11
519.6096, 11693.69
520.0917, 11585.68
520.5738, 11493.23
521.0559, 11408.21
521.5380, 11327.92
522.0201, 11252.73
522.5023, 11189.13
522.9844, 11137.02
523.4665, 11096.62
523.9486, 11069.72
524.4307, 11055.85
524.9128, 11046.47
525.3950, 11040.31
525.8771, 11040.95
526.3592, 11055.32
526.8413, 11080.93
527.3234, 11109.29
527.8055, 11134.97
528.2877, 11163.53
528.7698, 11202.95
529.2519, 11251.38
529.7340, 11302.60
530.2161, 11350.22
530.6982, 11401.16
531.1804, 11462.04
531.6625, 11533.40
532.1446, 11610.04
532.6267, 11694.86
533.1088, 11781.66
533.5909, 11863.38
534.0731, 11931.25
534.5552, 12005.19
535.0373, 12090.47
535.5194, 12182.04
536.0015, 12272.35
536.4836, 12362.29
536.9658, 12447.45
537.4479, 12524.87
537.9300, 12594.44
538.4121, 12663.28
538.8942, 12731.66
539.3763, 12795.89
539.8585, 12853.90
540.3406, 12905.26
540.8227, 12947.54
541.3048, 12980.14
541.7869, 13005.82
542.2690, 13030.96
542.7512, 13052.20
543.2333, 13061.09
543.7154, 13047.18
544.1975, 13025.39
544.6796, 13009.92
545.1617, 12997.91
545.6439, 12977.25
546.1260, 12944.64
546.6081, 12900.10
547.0902, 12841.61
547.5723, 12766.80
548.0544, 12690.24
548.5366, 12616.73
549.0187, 12540.04
549.5008, 12454.41
549.9829, 12355.30
550.4650, 12255.82
550.9471, 12158.18
551.4293, 12060.48
551.9114, 11954.33
552.3935, 11837.58
552.8756, 11723.04
553.3577, 11616.56
553.8398, 11516.29
554.3220, 11413.84
554.8041, 11308.76
555.2862, 11202.79
555.7683, 11094.55
556.2504, 10986.13
556.7325, 10878.41
557.2147, 10770.78
557.6968, 10668.13
558.1789, 10575.67
558.6610, 10490.11
559.1431, 10407.51
559.6252, 10330.52
560.1074, 10252.10
560.5895, 10166.37
561.0716, 10076.10
561.5537, 9992.504
562.0358, 9918.348
562.5179, 9849.652
563.0001, 9786.534
563.4822, 9729.887
563.9643, 9671.713
564.4464, 9610.030
564.9285, 9549.608
565.4106, 9493.380
565.8928, 9441.462
566.3749, 9392.033
566.8570, 9344.390
567.3391, 9299.370
567.8212, 9258.145
568.3033, 9220.283
568.7855, 9185.490
569.2676, 9154.067
569.7497, 9124.733
570.2318, 9095.223
570.7139, 9065.975
571.1960, 9036.506
571.6782, 9005.286
572.1603, 8974.918
572.6424, 8946.556
573.1245, 8919.740
573.6066, 8900.263
574.0887, 8899.028
574.5709, 8900.624
575.0530, 8892.843
575.5351, 8864.065
576.0172, 8840.271
576.4993, 8823.010
576.9814, 8810.681
577.4636, 8801.938
577.9457, 8799.438
578.4278, 8792.998
578.9099, 8777.793
579.3920, 8757.752
579.8741, 8749.378
580.3563, 8753.482
580.8384, 8758.662
581.3205, 8757.568
581.8026, 8752.268
582.2847, 8747.901
582.7668, 8744.528
583.2490, 8744.085
583.7311, 8749.488
584.2131, 8758.256
584.6953, 8767.219
585.1774, 8775.182
585.6595, 8784.246
586.1416, 8797.100
586.6237, 8811.371
587.1058, 8823.659
587.5880, 8835.581
588.0701, 8842.842
588.5522, 8839.298
589.0343, 8828.857
589.5164, 8830.313
589.9985, 8849.246
590.4807, 8870.599
590.9628, 8887.404
591.4449, 8899.399
591.9270, 8919.342
592.4091, 8948.635
592.8912, 8979.494
593.3734, 9006.366
593.8555, 9029.143
594.3376, 9044.856
594.8197, 9050.892
595.3018, 9058.855
595.7839, 9084.759
596.2661, 9121.512
596.7482, 9155.463
597.2303, 9179.494
597.7124, 9201.553
598.1945, 9223.730
598.6766, 9247.578
599.1588, 9277.328
599.6409, 9320.067
600.1230, 9363.241
600.6051, 9401.054
601.0872, 9432.598
601.5693, 9468.625
602.0515, 9509.470
602.5336, 9553.677
603.0157, 9601.532
603.4978, 9654.106
603.9799, 9703.145
604.4620, 9747.204
604.9442, 9791.734
605.4263, 9843.565
605.9084, 9902.330
606.3905, 9961.127
606.8726, 10018.33
607.3547, 10076.96
607.8369, 10143.12
608.3190, 10214.27
608.8011, 10285.83
609.2832, 10352.54
609.7653, 10420.72
610.2474, 10495.11
610.7296, 10575.47
611.2117, 10654.51
611.6938, 10726.84
612.1759, 10801.00
612.6580, 10880.87
613.1401, 10967.29
613.6223, 11058.98
614.1044, 11157.21
614.5865, 11257.41
615.0686, 11353.26
615.5507, 11443.40
616.0328, 11538.79
616.5150, 11640.74
616.9971, 11746.57
617.4792, 11851.25
617.9613, 11956.06
618.4434, 12066.33
618.9255, 12184.25
619.4077, 12307.86
619.8898, 12438.39
620.3719, 12574.10
620.8540, 12711.46
621.3361, 12843.20
621.8182, 12979.11
622.3004, 13126.34
622.7825, 13284.42
623.2646, 13442.09
623.7467, 13593.72
624.2288, 13745.78
624.7109, 13899.80
625.1931, 14052.97
625.6752, 14220.76
626.1573, 14410.36
626.6394, 14603.91
627.1215, 14780.45
627.6036, 14939.51
628.0858, 15104.97
628.5679, 15281.32
629.0500, 15463.52
629.5321, 15642.97
630.0142, 15821.31
630.4963, 15997.89
630.9785, 16176.67
631.4606, 16351.90
631.9427, 16514.66
632.4248, 16669.22
632.9069, 16829.56
633.3890, 17009.37
633.8712, 17187.18
634.3533, 17354.04
634.8354, 17508.76
635.3175, 17661.99
635.7996, 17816.78
636.2817, 17966.90
636.7639, 18110.52
637.2460, 18246.09
637.7281, 18377.40
638.2102, 18504.94
638.6923, 18627.80
639.1744, 18746.88
639.6566, 18860.32
640.1387, 18964.36
640.6208, 19055.62
641.1029, 19138.76
641.5850, 19218.71
642.0671, 19293.61
642.5493, 19361.59
643.0314, 19417.87
643.5135, 19470.32
643.9956, 19527.85
644.4777, 19585.69
644.9598, 19629.25
645.4420, 19647.71
645.9241, 19659.67
646.4062, 19671.55
646.8883, 19683.14
647.3704, 19686.73
647.8525, 19681.64
648.3347, 19670.07
648.8168, 19653.18
649.2989, 19630.73
649.7810, 19603.81
650.2631, 19572.68
650.7452, 19534.82
651.2274, 19484.49
651.7095, 19426.55
652.1916, 19370.60
652.6737, 19320.11
653.1558, 19267.91
653.6379, 19210.88
654.1201, 19147.65
654.6022, 19076.21
655.0843, 18994.19
655.5664, 18905.92
656.0485, 18813.27
656.5306, 18715.44
657.0128, 18608.38
657.4949, 18485.98
657.9770, 18366.45
658.4591, 18255.71
658.9412, 18151.84
659.4233, 18047.50
659.9055, 17942.60
660.3876, 17834.45
660.8697, 17718.66
661.3518, 17598.29
661.8339, 17481.37
662.3160, 17367.70
662.7982, 17252.87
663.2803, 17132.35
663.7624, 17009.56
664.2445, 16888.49
664.7266, 16768.65
665.2087, 16652.82
665.6909, 16541.47
666.1730, 16434.78
666.6551, 16333.22
667.1372, 16238.99
667.6193, 16144.34
668.1014, 16047.14
668.5836, 15952.61
669.0657, 15869.80
669.5478, 15800.39
670.0299, 15730.49
670.5120, 15657.50
670.9941, 15582.47
671.4763, 15503.19
671.9584, 15422.59
672.4405, 15350.73
672.9226, 15293.49
673.4047, 15245.16
673.8868, 15203.02
674.3690, 15166.31
674.8511, 15130.84
675.3332, 15086.12
675.8153, 15050.69
676.2974, 15034.61
676.7795, 15038.83
677.2617, 15041.77
677.7438, 15039.52
678.2259, 15041.70
678.7080, 15051.98
679.1901, 15070.31
679.6722, 15101.92
680.1544, 15148.04
680.6365, 15202.28
681.1186, 15259.84
681.6007, 15321.09
682.0828, 15388.36
682.5649, 15461.20
683.0471, 15541.26
683.5292, 15627.05
684.0113, 15720.38
684.4934, 15821.70
684.9755, 15934.66
685.4576, 16051.47
685.9398, 16169.21
686.4219, 16291.00
686.9040, 16421.67
687.3861, 16558.88
687.8682, 16710.35
688.3503, 16879.91
688.8325, 17062.94
689.3146, 17242.33
689.7967, 17417.33
690.2788, 17599.76
690.7609, 17794.13
691.2430, 17997.15
691.7252, 18205.96
692.2073, 18422.26
692.6894, 18645.21
693.1715, 18880.04
693.6536, 19117.11
694.1357, 19346.90
694.6179, 19569.47
695.1000, 19799.93
695.5821, 20043.78
696.0642, 20294.46
696.5463, 20548.63
697.0284, 20806.14
697.5106, 21067.77
697.9927, 21334.08
698.4748, 21604.59
698.9569, 21878.73
699.4390, 22156.56
699.9211, 22425.14
700.4033, 22682.66
700.8854, 22941.30
701.3675, 23218.16
701.8496, 23503.22
702.3317, 23779.94
702.8138, 24036.81
703.2960, 24298.10
703.7781, 24579.78
704.2602, 24870.64
704.7423, 25156.94
705.2244, 25437.38
705.7065, 25710.60
706.1887, 25978.07
706.6708, 26235.28
707.1529, 26484.59
707.6350, 26726.07
708.1171, 26955.96
708.5992, 27171.35
709.0814, 27376.66
709.5635, 27587.36
710.0456, 27802.10
710.5277, 28009.82
711.0098, 28210.13
711.4919, 28397.32
711.9741, 28563.12
712.4562, 28709.49
712.9383, 28850.06
713.4204, 29000.60
713.9025, 29136.69
714.3846, 29244.60
714.8668, 29326.88
715.3489, 29402.72
715.8310, 29471.66
716.3131, 29536.55
716.7952, 29605.14
717.2773, 29674.67
717.7595, 29709.82
718.2416, 29709.01
718.7237, 29696.54
719.2058, 29697.41
719.6879, 29697.28
720.1700, 29672.21
720.6522, 29618.98
721.1343, 29553.26
721.6164, 29479.05
722.0985, 29399.09
722.5806, 29313.78
723.0627, 29224.26
723.5449, 29128.61
724.0270, 29029.08
724.5091, 28920.63
724.9912, 28797.77
725.4733, 28657.18
725.9554, 28512.61
726.4376, 28365.57
726.9197, 28212.47
727.4018, 28047.79
727.8839, 27874.75
728.3660, 27704.57
728.8481, 27539.83
729.3303, 27374.31
729.8124, 27205.12
730.2945, 27032.01
730.7766, 26856.37
731.2587, 26669.38
731.7408, 26487.91
732.2230, 26316.42
732.7051, 26152.39
733.1872, 25992.28
733.6693, 25839.01
734.1514, 25684.64
734.6335, 25524.46
735.1157, 25365.11
735.5978, 25226.04
736.0799, 25105.51
736.5620, 24987.74
737.0441, 24858.78
737.5262, 24734.50
738.0084, 24632.95
738.4905, 24550.44
738.9726, 24474.21
739.4547, 24392.24
739.9368, 24321.47
740.4189, 24275.20
740.9011, 24251.47
741.3832, 24215.13
741.8653, 24149.46
742.3474, 24100.29
742.8295, 24089.96
743.3116, 24113.69
743.7938, 24133.71
744.2759, 24149.41
744.7580, 24175.97
745.2401, 24231.82
745.7222, 24301.44
746.2043, 24358.89
746.6865, 24404.53
747.1686, 24458.01
747.6507, 24530.91
748.1328, 24616.15
748.6149, 24709.97
749.0970, 24810.37
749.5792, 24922.52
750.0613, 25050.17
750.5434, 25185.08
751.0255, 25321.47
751.5076, 25456.66
751.9897, 25615.12
752.4719, 25801.70
752.9540, 25990.75
753.4361, 26159.08
753.9182, 26315.46
754.4003, 26480.25
754.8824, 26653.98
755.3646, 26840.03
755.8467, 27046.41
756.3288, 27261.91
756.8109, 27470.12
757.2930, 27666.18
757.7751, 27866.88
758.2573, 28078.15
758.7394, 28292.14
759.2215, 28499.86
759.7036, 28701.11
760.1857, 28914.27
760.6678, 29141.56
761.1500, 29370.07
761.6321, 29572.94
762.1142, 29760.02
762.5963, 29960.43
763.0784, 30183.50
763.5605, 30409.89
764.0427, 30632.39
764.5248, 30847.53
765.0069, 31051.04
765.4890, 31229.71
765.9711, 31412.18
766.4532, 31606.59
766.9354, 31803.61
767.4175, 31991.99
767.8996, 32172.90
768.3817, 32342.57
768.8638, 32499.59
769.3459, 32650.00
769.8281, 32800.35
770.3102, 32949.76
770.7923, 33095.59
771.2744, 33239.37
771.7565, 33375.82
772.2386, 33501.98
772.7208, 33619.50
773.2029, 33731.21
773.6850, 33842.87
774.1671, 33941.35
774.6492, 34025.88
775.1313, 34095.56
775.6135, 34147.87
776.0956, 34181.26
776.5777, 34203.31
777.0598, 34215.71
777.5419, 34217.84
778.0240, 34208.77
778.5062, 34188.73
778.9883, 34158.48
779.4704, 34129.10
779.9525, 34079.32
780.4346, 33985.45
780.9167, 33861.80
781.3989, 33741.70
781.8810, 33650.00
782.3631, 33539.28
782.8452, 33400.59
783.3273, 33239.18
783.8094, 33066.88
784.2916, 32883.06
784.7737, 32689.36
785.2558, 32484.03
785.7379, 32268.78
786.2200, 32053.34
786.7021, 31831.79
787.1843, 31596.58
787.6664, 31323.89
788.1485, 31049.59
788.6306, 30798.00
789.1127, 30562.18
789.5948, 30324.67
790.0770, 30077.90
790.5591, 29832.74
791.0412, 29591.63
791.5233, 29354.26
792.0054, 29113.62
792.4875, 28871.26
792.9697, 28631.11
793.4518, 28397.59
793.9339, 28167.42
794.4160, 27939.65
794.8981, 27714.32
795.3802, 27491.83
795.8624, 27265.22
796.3445, 27048.60
796.8266, 26851.36
797.3087, 26673.34
797.7908, 26503.58
798.2729, 26341.44
798.7551, 26191.25
799.2372, 26051.46
799.7193, 25923.70
800.2014, 25810.36
800.6835, 25712.06
801.1656, 25628.77
801.6478, 25562.82
802.1299, 25511.48
802.6120, 25468.94
803.0941, 25437.12
803.5762, 25421.78
804.0583, 25427.51
804.5405, 25447.79
805.0226, 25479.08
805.5047, 25522.29
805.9868, 25587.29
806.4689, 25679.85
806.9510, 25772.11
807.4332, 25847.99
807.9153, 25921.50
808.3974, 26033.97
808.8795, 26180.88
809.3616, 26336.74
809.8438, 26489.89
810.3259, 26643.53
810.8080, 26791.43
811.2901, 26940.05
811.7722, 27114.09
812.2543, 27338.73
812.7365, 27568.56
813.2186, 27789.31
813.7007, 28007.79
814.1828, 28246.38
814.6649, 28508.75
815.1470, 28769.81
815.6292, 29015.87
816.1113, 29255.32
816.5934, 29501.67
817.0755, 29754.15
817.5576, 30006.65
818.0397, 30252.56
818.5219, 30500.71
819.0040, 30757.82
819.4861, 31021.68
819.9682, 31279.62
820.4503, 31525.71
820.9324, 31782.05
821.4146, 32055.67
821.8967, 32335.56
822.3788, 32583.10
822.8609, 32798.76
823.3430, 33019.43
823.8251, 33264.59
824.3073, 33512.95
824.7894, 33746.26
825.2715, 33963.77
825.7536, 34174.66
826.2357, 34369.16
826.7178, 34569.00
827.2000, 34787.05
827.6821, 35011.78
828.1642, 35214.53
828.6463, 35390.38
829.1284, 35570.44
829.6105, 35766.58
830.0927, 35966.74
830.5748, 36153.79
831.0569, 36329.33
831.5390, 36501.75
832.0211, 36683.26
832.5032, 36851.03
832.9854, 36979.05
833.4675, 37085.15
833.9496, 37193.34
834.4317, 37308.63
834.9138, 37427.11
835.3959, 37556.65
835.8781, 37679.96
836.3602, 37765.61
836.8423, 37812.54
837.3244, 37872.86
837.8065, 37961.68
838.2886, 38047.55
838.7708, 38088.71
839.2529, 38103.26
839.7350, 38122.80
840.2171, 38166.27
840.6992, 38193.86
841.1813, 38188.92
841.6635, 38163.25
842.1456, 38130.48
842.6277, 38093.93
843.1098, 38040.15
843.5919, 37967.79
844.0740, 37880.31
844.5562, 37779.94
845.0383, 37669.11
845.5204, 37557.32
846.0025, 37447.73
846.4846, 37327.37
846.9667, 37192.85
847.4489, 37039.26
847.9310, 36861.84
848.4131, 36649.66
848.8952, 36436.59
849.3773, 36225.22
849.8594, 36009.18
850.3416, 35783.68
850.8237, 35548.68
851.3058, 35308.32
851.7879, 35060.94
852.2700, 34804.98
852.7521, 34534.86
853.2343, 34250.95
853.7164, 33952.68
854.1985, 33642.47
854.6806, 33318.48
855.1627, 32970.45
855.6448, 32616.13
856.1270, 32266.80
856.6091, 31921.19
857.0912, 31561.71
857.5733, 31189.80
858.0554, 30812.01
858.5375, 30433.88
859.0197, 30052.59
859.5018, 29653.03
859.9839, 29240.31
860.4660, 28835.05
860.9481, 28460.85
861.4302, 28087.05
861.9124, 27688.81
862.3945, 27271.31
862.8766, 26860.19
863.3587, 26466.51
863.8408, 26071.99
864.3229, 25675.51
864.8051, 25275.17
865.2872, 24875.79
865.7693, 24475.03
866.2514, 24077.63
866.7335, 23695.80
867.2156, 23313.02
867.6978, 22914.80
868.1799, 22512.09
868.6620, 22123.27
869.1441, 21760.53
869.6262, 21408.76
870.1083, 21065.54
870.5905, 20727.79
871.0726, 20392.74
871.5547, 20056.53
872.0368, 19726.04
872.5189, 19402.31
873.0010, 19087.02
873.4832, 18781.13
873.9653, 18480.73
874.4474, 18181.69
874.9295, 17878.90
875.4116, 17579.66
875.8937, 17282.53
876.3759, 16990.89
876.8580, 16712.76
877.3401, 16450.36
877.8222, 16187.35
878.3043, 15920.39
878.7864, 15658.85
879.2686, 15410.49
879.7507, 15171.70
880.2328, 14936.57
880.7149, 14704.47
881.1970, 14474.66
881.6791, 14244.91
882.1613, 14019.47
882.6434, 13798.73
883.1255, 13582.65
883.6076, 13372.51
884.0897, 13168.87
884.5718, 12969.87
885.0540, 12774.30
885.5361, 12580.89
886.0182, 12393.66
886.5003, 12210.85
886.9824, 12031.02
887.4645, 11851.45
887.9467, 11675.97
888.4288, 11506.64
888.9109, 11344.71
889.3930, 11184.82
889.8751, 11027.90
890.3572, 10873.37
890.8394, 10723.44
891.3215, 10576.08
891.8036, 10424.54
892.2857, 10271.69
892.7678, 10125.54
893.2499, 9994.573
893.7321, 9868.401
894.2142, 9737.587
894.6963, 9605.020
895.1784, 9478.313
895.6605, 9363.400
896.1426, 9245.495
896.6248, 9119.457
897.1069, 8992.886
897.5890, 8877.605
898.0711, 8771.823
898.5532, 8667.818
899.0353, 8562.926
899.5175, 8460.574
899.9996, 8362.993
900.4817, 8268.228
900.9638, 8175.111
901.4459, 8081.845
901.9280, 7990.432
902.4102, 7899.422
902.8923, 7810.477
903.3744, 7724.750
903.8565, 7641.540
904.3386, 7560.478
904.8207, 7482.502
905.3029, 7406.812
905.7850, 7335.678
906.2671, 7266.321
906.7492, 7195.081
907.2313, 7122.102
907.7134, 7048.239
908.1956, 6967.552
908.6777, 6893.552
909.1598, 6833.671
909.6419, 6784.013
910.1240, 6723.687
910.6061, 6652.764
911.0883, 6584.074
911.5704, 6524.508
912.0525, 6469.306
912.5346, 6409.896
913.0167, 6349.503
913.4988, 6295.132
913.9810, 6254.119
914.4631, 6213.369
914.9452, 6170.695
915.4273, 6126.525
915.9094, 6080.596
916.3915, 6032.999
916.8737, 5987.327
917.3558, 5944.094
917.8379, 5902.869
918.3200, 5864.932
918.8021, 5827.951
919.2842, 5787.132
919.7664, 5740.070
920.2485, 5698.077
920.7306, 5669.680
921.2127, 5643.023
921.6948, 5611.041
922.1769, 5573.071
922.6591, 5537.624
923.1412, 5504.727
923.6233, 5472.575
924.1054, 5439.295
924.5875, 5405.977
925.0696, 5373.691
925.5518, 5342.381
926.0339, 5311.347
926.5160, 5280.309
926.9981, 5249.937
927.4802, 5220.476
927.9623, 5192.122
928.4445, 5165.077
928.9266, 5139.307
929.4087, 5114.620
929.8908, 5091.469
930.3729, 5067.689
930.8550, 5038.534
931.3372, 5006.862
931.8193, 4978.467
932.3014, 4956.123
932.7835, 4935.068
933.2656, 4915.343
933.7477, 4895.428
934.2299, 4873.404
934.7120, 4849.134
935.1941, 4825.329
935.6762, 4802.269
936.1583, 4779.337
936.6404, 4754.692
937.1226, 4730.780
937.6047, 4712.730
938.0868, 4700.903
938.5689, 4685.979
939.0510, 4661.836
939.5331, 4637.137
940.0153, 4614.607
940.4974, 4594.159
940.9795, 4575.673
941.4616, 4559.011
941.9437, 4540.799
942.4258, 4518.230
942.9080, 4495.021
943.3901, 4478.426
943.8722, 4464.714
944.3543, 4445.851
944.8364, 4411.399
945.3185, 4382.569
945.8007, 4364.684
946.2828, 4351.712
946.7649, 4335.170
947.2470, 4315.213
947.7291, 4297.416
948.2112, 4282.912
948.6934, 4267.770
949.1755, 4246.840
949.6576, 4223.819
950.1397, 4202.224
950.6218, 4182.583
951.1039, 4164.091
951.5861, 4147.142
952.0682, 4130.467
952.5503, 4113.984
953.0324, 4097.337
953.5145, 4076.865
953.9966, 4053.063
954.4788, 4030.932
954.9609, 4014.945
955.4430, 4000.110
955.9251, 3982.213
956.4072, 3962.345
956.8893, 3943.491
957.3715, 3928.103
957.8536, 3910.218
958.3357, 3888.152
958.8178, 3864.961
959.2999, 3845.758
959.7820, 3829.770
960.2642, 3814.231
960.7463, 3798.577
961.2284, 3782.494
961.7105, 3766.008
962.1926, 3748.614
962.6747, 3729.122
963.1569, 3706.438
963.6390, 3686.651
964.1211, 3670.301
964.6032, 3654.976
965.0853, 3640.659
965.5674, 3626.180
966.0496, 3607.884
966.5317, 3586.470
967.0138, 3564.332
967.4959, 3540.487
967.9780, 3518.864
968.4601, 3504.474
968.9423, 3493.405
969.4244, 3476.962
969.9065, 3453.368
970.3886, 3431.522
970.8707, 3412.932
971.3528, 3395.989
971.8350, 3378.815
972.3171, 3361.366
972.7992, 3342.768
973.2813, 3322.093
973.7634, 3303.078
974.2455, 3288.485
974.7277, 3274.726
975.2098, 3259.724
975.6919, 3243.447
976.1740, 3227.913
976.6561, 3213.141
977.1382, 3198.563
977.6204, 3183.270
978.1025, 3168.178
978.5846, 3155.197
979.0667, 3143.386
979.5488, 3129.658
980.0309, 3109.567
980.5131, 3092.767
980.9952, 3082.286
981.4773, 3074.160
981.9594, 3061.682
982.4415, 3045.364
982.9236, 3028.804
983.4058, 3012.793
983.8879, 2997.093
984.3700, 2981.589
984.8521, 2966.318
985.3342, 2951.273
985.8163, 2936.437
986.2985, 2922.466
986.7806, 2910.430
987.2627, 2896.730
987.7448, 2878.105
988.2269, 2856.868
988.7090, 2840.011
989.1912, 2826.980
989.6733, 2815.333
990.1554, 2806.748
990.6375, 2796.069
991.1196, 2778.853
991.6017, 2758.880
992.0839, 2743.042
992.5660, 2732.359
993.0481, 2721.175
993.5302, 2708.657
994.0123, 2696.012
994.4944, 2685.577
994.9766, 2675.406
995.4587, 2661.228
995.9408, 2642.169
996.4229, 2626.880
996.9050, 2622.724
997.3871, 2618.117
997.8693, 2608.167
998.3514, 2593.625
998.8335, 2578.800
999.3156, 2563.867
999.7977, 2550.721
1000.280, 2541.586
1000.762, 2533.080
1001.244, 2521.313
1001.726, 2508.318
1002.208, 2497.518
1002.690, 2492.970
1003.173, 2484.395
1003.655, 2469.916
1004.137, 2454.788
1004.619, 2444.944
1005.101, 2438.961
1005.583, 2432.648
1006.065, 2425.616
1006.547, 2418.374
1007.029, 2411.160
1007.512, 2403.664
1007.994, 2396.309
1008.476, 2388.504
1008.958, 2377.267
1009.440, 2361.785
1009.922, 2347.758
1010.404, 2337.012
1010.886, 2328.285
1011.369, 2320.618
1011.851, 2313.411
1012.333, 2305.674
1012.815, 2297.273
1013.297, 2287.865
1013.779, 2276.249
1014.261, 2265.060
1014.743, 2256.668
1015.225, 2250.812
1015.708, 2243.038
1016.190, 2233.447
1016.672, 2223.513
1017.154, 2213.113
1017.636, 2203.845
1018.118, 2197.622
1018.600, 2193.532
1019.082, 2188.412
1019.565, 2181.787
1020.047, 2174.804
1020.529, 2167.337
1021.011, 2160.153
1021.493, 2154.872
1021.975, 2150.409
1022.457, 2144.282
1022.939, 2135.874
1023.421, 2127.575
1023.904, 2120.940
1024.386, 2114.156
1024.868, 2106.033
1025.350, 2096.778
1025.832, 2087.961
1026.314, 2079.612
1026.796, 2072.685
1027.278, 2068.549
1027.760, 2064.846
1028.243, 2059.110
1028.725, 2052.222
1029.207, 2045.675
1029.689, 2040.487
1030.171, 2034.293
1030.653, 2026.655
1031.135, 2018.800
1031.617, 2011.440
1032.100, 2004.941
1032.582, 2000.877
1033.064, 1998.971
1033.546, 1995.517
1034.028, 1986.077
1034.510, 1977.105
1034.992, 1972.279
1035.474, 1970.127
1035.957, 1966.889
1036.439, 1962.496
1036.921, 1957.469
1037.403, 1951.667
1037.885, 1946.104
1038.367, 1942.292
1038.849, 1939.246
1039.331, 1935.945
1039.813, 1932.206
1040.296, 1927.848
1040.778, 1922.520
1041.260, 1917.294
1041.742, 1912.851
1042.224, 1908.944
1042.706, 1904.401
1043.188, 1899.699
1043.670, 1896.514
1044.152, 1899.237
1044.635, 1899.497
1045.117, 1890.896
1045.599, 1879.476
1046.081, 1873.474
1046.563, 1873.839
1047.045, 1871.004
1047.527, 1864.095
1048.009, 1857.189
1048.492, 1854.821
1048.974, 1853.824
1049.456, 1851.321
1049.938, 1847.100
1050.420, 1841.013
1050.902, 1830.797
1051.384, 1823.483
1051.866, 1821.620
1052.349, 1822.288
1052.831, 1820.561
1053.313, 1816.713
1053.795, 1810.928
1054.277, 1802.400
1054.759, 1795.611
1055.241, 1793.805
1055.723, 1793.486
1056.205, 1792.755
1056.688, 1791.566
1057.170, 1787.932
1057.652, 1781.834
1058.134, 1776.256
1058.616, 1773.375
1059.098, 1770.988
1059.580, 1767.457
1060.062, 1762.865
1060.544, 1757.197
1061.027, 1748.783
1061.509, 1743.011
1061.991, 1740.769
1062.473, 1739.264
1062.955, 1735.335
1063.437, 1730.294
1063.919, 1727.551
1064.401, 1726.918
1064.884, 1725.049
1065.366, 1718.914
1065.848, 1713.217
1066.330, 1709.687
1066.812, 1707.374
1067.294, 1704.491
1067.776, 1701.042
1068.258, 1696.408
1068.740, 1690.191
1069.223, 1684.538
1069.705, 1682.782
1070.187, 1681.104
1070.669, 1675.219
1071.151, 1664.639
1071.633, 1657.669
1072.115, 1654.714
1072.597, 1653.243
1073.079, 1652.922
1073.562, 1652.404
1074.044, 1649.348
1074.526, 1644.640
1075.008, 1639.883
1075.490, 1636.023
1075.972, 1631.169
1076.454, 1624.507
1076.936, 1618.020
1077.419, 1613.174
1077.901, 1609.813
1078.383, 1607.829
1078.865, 1606.836
1079.347, 1604.466
1079.829, 1597.877
1080.311, 1591.280
1080.793, 1586.718
1081.275, 1583.262
1081.758, 1579.522
1082.240, 1575.421
1082.722, 1571.912
1083.204, 1569.208
1083.686, 1565.949
1084.168, 1559.315
1084.650, 1552.684
1085.132, 1550.546
1085.615, 1552.750
1086.097, 1549.647
1086.579, 1538.838
1087.061, 1529.572
1087.543, 1524.569
1088.025, 1522.452
1088.507, 1522.902
1088.989, 1524.243
1089.471, 1523.377
1089.953, 1519.282
1090.436, 1514.170
1090.918, 1507.541
1091.400, 1501.298
1091.882, 1496.100
1092.364, 1492.066
1092.846, 1490.530
1093.328, 1490.920
1093.810, 1490.512
1094.293, 1487.711
1094.775, 1484.273
1095.257, 1480.740
1095.739, 1477.106
1096.221, 1473.204
1096.703, 1468.862
1097.185, 1465.812
1097.667, 1464.095
1098.150, 1462.647
1098.632, 1460.878
1099.114, 1458.880
1099.596, 1456.637
1100.078, 1454.203
1100.560, 1451.786
1101.042, 1449.651
1101.524, 1446.732
1102.006, 1442.666
1102.489, 1438.490
1102.971, 1435.524
1103.453, 1433.037
1103.935, 1430.007
1104.417, 1426.325
1104.899, 1422.241
1105.381, 1415.931
1105.863, 1412.414
1106.345, 1414.475
1106.828, 1418.318
1107.310, 1414.964
1107.792, 1406.543
1108.274, 1399.581
1108.756, 1395.698
1109.238, 1392.545
1109.720, 1388.698
1110.202, 1385.686
1110.685, 1384.779
1111.167, 1385.533
1111.649, 1384.561
1112.131, 1382.027
1112.613, 1379.542
1113.095, 1378.117
1113.577, 1376.462
1114.059, 1373.818
1114.542, 1370.339
1115.024, 1365.994
1115.506, 1360.255
1115.988, 1356.664
1116.470, 1355.467
1116.952, 1353.891
1117.434, 1348.637
1117.916, 1343.195
1118.398, 1341.944
1118.880, 1343.453
1119.363, 1344.301
1119.845, 1345.003
1120.327, 1342.394
1120.809, 1335.327
1121.291, 1327.980
1121.773, 1324.863
1122.255, 1324.198
1122.737, 1323.146
1123.220, 1321.571
1123.702, 1319.862
1124.184, 1318.382
1124.666, 1316.449
1125.148, 1313.924
1125.630, 1310.932
1126.112, 1307.379
1126.594, 1303.555
1127.077, 1300.466
1127.559, 1298.278
1128.041, 1295.995
1128.523, 1293.295
1129.005, 1290.122
1129.487, 1286.081
1129.969, 1281.775
1130.451, 1279.172
1130.933, 1278.056
1131.416, 1276.993
1131.898, 1275.721
1132.380, 1273.825
1132.862, 1270.798
1133.344, 1267.133
1133.826, 1262.823
1134.308, 1258.009
1134.790, 1255.195
1135.272, 1254.410
1135.755, 1253.436
1136.237, 1251.340
1136.719, 1248.679
1137.201, 1245.542
1137.683, 1242.405
1138.165, 1240.115
1138.647, 1239.248
1139.129, 1236.750
1139.612, 1232.443
1140.094, 1227.868
1140.576, 1223.924
1141.058, 1220.392
1141.540, 1217.152
1142.022, 1214.104
1142.504, 1210.969
1142.986, 1206.838
1143.469, 1204.646
1143.951, 1205.213
1144.433, 1205.373
1144.915, 1201.437
1145.397, 1195.667
1145.879, 1192.602
1146.361, 1191.576
1146.843, 1189.379
1147.325, 1182.671
1147.807, 1178.292
1148.290, 1178.034
1148.772, 1178.572
1149.254, 1175.248
1149.736, 1169.607
1150.218, 1165.674
1150.700, 1163.588
1151.182, 1161.453
1151.664, 1157.597
1152.147, 1154.746
1152.629, 1154.038
1153.111, 1154.255
1153.593, 1153.509
1154.075, 1151.761
1154.557, 1148.394
1155.039, 1143.198
1155.521, 1138.667
1156.004, 1137.282
1156.486, 1135.695
1156.968, 1132.415
1157.450, 1127.781
1157.932, 1121.839
1158.414, 1115.066
1158.896, 1111.058
1159.378, 1111.037
1159.860, 1112.227
1160.343, 1115.909
1160.825, 1117.142
1161.307, 1110.948
1161.789, 1098.924
1162.271, 1093.986
1162.753, 1095.825
1163.235, 1097.326
1163.717, 1095.985
1164.199, 1093.441
1164.682, 1090.615
1165.164, 1087.536
1165.646, 1084.093
1166.128, 1080.231
1166.610, 1077.019
1167.092, 1074.462
1167.574, 1072.987
1168.056, 1073.948
1168.539, 1074.422
1169.021, 1071.379
1169.503, 1066.383
1169.985, 1061.240
1170.467, 1055.516
1170.949, 1053.025
1171.431, 1054.203
1171.913, 1054.994
1172.396, 1052.321
1172.878, 1048.427
1173.360, 1045.162
1173.842, 1042.515
1174.324, 1040.600
1174.806, 1040.479
1175.288, 1037.516
1175.770, 1030.935
1176.252, 1025.086
1176.734, 1024.945
1177.217, 1026.299
1177.699, 1023.100
1178.181, 1017.063
1178.663, 1013.709
1179.145, 1015.272
1179.627, 1015.967
1180.109, 1015.600
1180.591, 1013.491
1181.074, 1007.171
1181.556, 999.9096
1182.038, 996.9547
1182.520, 997.4847
1183.002, 996.3691
1183.484, 991.5198
1183.966, 987.8295
1184.448, 986.1705
1184.931, 984.9991
1185.413, 982.4117
1185.895, 979.1786
1186.377, 976.1943
1186.859, 973.6321
1187.341, 972.4685
1187.823, 973.8326
1188.305, 974.6523
1188.787, 974.4666
1189.270, 973.2224
1189.752, 970.3467
1190.234, 966.5788
1190.716, 962.8948
1191.198, 959.4353
1191.680, 956.9507
1192.162, 956.4363
1192.644, 955.2805
1193.126, 952.7384
1193.609, 949.5558
1194.091, 946.5197
1194.573, 943.9117
1195.055, 942.4255
1195.537, 942.2159
1196.019, 942.1140
1196.501, 942.4581
1196.983, 941.7560
1197.466, 939.2853
1197.948, 935.9329
1198.430, 932.6656
1198.912, 929.8803
1199.394, 929.0717
1199.876, 931.1008
1200.358, 930.0145
1200.840, 921.5413
1201.323, 915.5983
1201.805, 916.8522
1202.287, 921.2372
1202.769, 920.5685
1203.251, 916.5253
1203.733, 912.5500
1204.215, 909.3242
1204.697, 906.4297
1205.179, 903.5261
1205.661, 901.4100
1206.144, 900.9512
1206.626, 900.9682
1207.108, 898.1044
1207.590, 893.7744
1208.072, 891.2151
1208.554, 892.0546
1209.036, 892.1611
1209.518, 890.5848
1210.001, 888.8939
1210.483, 888.0598
1210.965, 887.4568
1211.447, 885.0941
1211.929, 881.9042
1212.411, 880.0344
1212.893, 881.0615
1213.375, 880.8257
1213.858, 878.6934
1214.340, 875.6948
1214.822, 871.7025
1215.304, 867.7585
1215.786, 866.8231
1216.268, 867.8419
1216.750, 868.5275
1217.232, 868.2274
1217.714, 867.5040
1218.197, 866.5501
1218.679, 864.9060
1219.161, 861.6483
1219.643, 857.9513
1220.125, 856.9703
1220.607, 857.4044
1221.089, 856.1405
1221.571, 849.9310
1222.053, 846.6146
1222.536, 847.4063
1223.018, 848.8220
1223.500, 848.6337
1223.982, 847.4148
1224.464, 846.5047
1224.946, 845.4375
1225.428, 843.1212
1225.910, 836.7103
1226.393, 833.7572
1226.875, 835.3982
1227.357, 837.3555
1227.839, 836.7197
1228.321, 834.2563
1228.803, 830.3251
1229.285, 825.7095
1229.767, 822.1888
1230.250, 819.8186
1230.732, 819.3043
1231.214, 820.6071
1231.696, 823.9506
1232.178, 833.6378
1232.660, 842.4053
1233.142, 837.5778
1233.624, 824.2703
1234.106, 814.5433
1234.589, 810.7469
1235.071, 809.3860
1235.553, 810.8801
1236.035, 812.1075
1236.517, 809.7518
1236.999, 806.5635
1237.481, 806.3001
1237.963, 807.5447
1238.445, 806.7006
1238.928, 802.2147
1239.410, 800.8361
1239.892, 803.2059
1240.374, 804.7888
1240.856, 800.3769
1241.338, 795.2338
1241.820, 794.8254
1242.302, 797.0465
1242.785, 797.2202
1243.267, 794.6281
1243.749, 793.1191
1244.231, 792.8806
1244.713, 792.8311
1245.195, 792.7348
1245.677, 791.9874
1246.159, 789.5234
1246.641, 786.3342
1247.124, 784.2388
1247.606, 783.3198
1248.088, 782.7382
1248.570, 782.4484
1249.052, 781.7068
1249.534, 778.6187
1250.016, 776.4256
1250.498, 778.5419
1250.980, 781.8430
1251.463, 781.8508
1251.945, 778.6288
1252.427, 777.5992
1252.909, 778.7014
1253.391, 778.6446
1253.873, 773.8779
1254.355, 769.3799
1254.837, 767.8565
1255.320, 767.2224
1255.802, 764.7437
1256.284, 760.9767
1256.766, 759.8780
1257.248, 761.2575
1257.730, 762.5441
1258.212, 762.5984
1258.694, 762.0638
1259.177, 760.8566
1259.659, 759.5844
1260.141, 759.0216
1260.623, 758.8965
1261.105, 758.4270
1261.587, 757.5518
1262.069, 756.1540
1262.551, 753.6412
1263.033, 751.3856
1263.516, 749.4946
1263.998, 747.9972
1264.480, 746.9934
1264.962, 746.3681
1265.444, 746.2086
1265.926, 746.2441
1266.408, 745.5248
1266.890, 742.8785
1267.372, 741.3248
1267.855, 741.3671
1268.337, 741.3650
1268.819, 739.7907
1269.301, 737.3748
1269.783, 734.8192
1270.265, 732.3146
1270.747, 730.2414
1271.229, 728.4242
1271.712, 727.9960
1272.194, 729.2893
1272.676, 729.7571
1273.158, 725.7509
1273.640, 721.5381
1274.122, 721.8718
1274.604, 724.6145
1275.086, 725.5569
1275.568, 724.4340
1276.051, 722.3132
1276.533, 719.1953
1277.015, 716.6718
1277.497, 716.0230
1277.979, 715.9724
1278.461, 716.6115
1278.943, 716.7939
1279.425, 714.8157
1279.907, 710.7258
1280.390, 708.0641
1280.872, 706.7518
1281.354, 705.6291
1281.836, 703.9229
1282.318, 702.5085
1282.800, 702.0908
1283.282, 701.6630
1283.764, 700.3262
1284.247, 698.2093
1284.729, 695.6661
1285.211, 692.9654
1285.693, 691.1546
1286.175, 691.2982
1286.657, 691.5045
1287.139, 691.9804
1287.621, 691.5466
1288.104, 688.6063
1288.586, 684.5154
1289.068, 681.8611
1289.550, 680.3561
1290.032, 679.3264
1290.514, 679.0052
1290.996, 678.3993
1291.478, 677.4944
1291.960, 676.3954
1292.443, 675.4822
1292.925, 674.0789
1293.407, 670.0172
1293.889, 665.4212
1294.371, 664.3721
1294.853, 667.9349
1295.335, 669.2584
1295.817, 668.3222
1296.299, 666.1467
1296.782, 662.3986
1297.264, 658.9478
1297.746, 657.1328
1298.228, 656.4054
1298.710, 656.2809
1299.192, 656.7328
1299.674, 657.0886
1300.156, 657.2164
1300.639, 656.0704
1301.121, 652.4298
1301.603, 649.3254
1302.085, 648.7942
1302.567, 648.7941
1303.049, 648.4315
1303.531, 647.5964
##END=



