##NAMES=Eveite
##RRUFFID=R100048
##IDEAL CHEMISTRY=Mn^2+^_2_As^5+^O_4_(OH)
##LOCALITY=Langban, Filipstad, Varmland, Sweden
##OWNER=RRUFF
##SOURCE=William W Pinch
##DESCRIPTION=Groups of very pale green (gray) crystals associated with pink akrochordite, R100028, and colorless barite, co-type (Flink 32/22). Used for structure refinement in Yang et al (2011)
##STATUS=The identification of this mineral has been confirmed by single-crystal X-ray diffraction.
##URL=rruff.info/R100048
90.01007, 0.0000000E+00
90.49219, 35.25098
90.97430, 34.12482
91.45642, 33.72552
91.93854, 34.97787
92.42065, 36.68548
92.90277, 36.98032
93.38489, 35.59698
93.86700, 33.50922
94.34912, 31.74094
94.83124, 30.25582
95.31335, 28.89470
95.79547, 27.51318
96.27759, 26.16901
96.75970, 25.03428
97.24182, 24.13018
97.72394, 23.46665
98.20605, 23.24523
98.68817, 23.54350
99.17029, 23.63756
99.65240, 22.29998
100.1345, 19.30840
100.6166, 18.41872
101.0988, 21.27068
101.5809, 27.16993
102.0630, 29.94896
102.5451, 28.54191
103.0272, 25.95525
103.5093, 26.01962
103.9915, 30.48088
104.4736, 32.97647
104.9557, 30.84340
105.4378, 22.58744
105.9199, 18.30338
106.4020, 19.92432
106.8842, 24.54352
107.3663, 27.08223
107.8484, 25.76217
108.3305, 24.39098
108.8126, 24.25657
109.2947, 25.97126
109.7769, 27.91890
110.2590, 31.58516
110.7411, 35.75081
111.2232, 36.53217
111.7053, 29.26909
112.1874, 21.83884
112.6696, 17.83285
113.1517, 20.33111
113.6338, 23.31603
114.1159, 26.59207
114.5980, 29.97294
115.0801, 32.26458
115.5623, 32.62442
116.0444, 32.03196
116.5265, 31.24806
117.0086, 29.86728
117.4907, 28.84709
117.9728, 28.78742
118.4550, 29.73295
118.9371, 30.45814
119.4192, 30.11519
119.9013, 29.30438
120.3834, 28.79622
120.8655, 28.91651
121.3477, 29.44516
121.8298, 30.36930
122.3119, 31.78290
122.7940, 33.05990
123.2761, 33.89131
123.7582, 34.26545
124.2404, 34.15638
124.7225, 32.73126
125.2046, 31.09539
125.6867, 30.76300
126.1688, 32.24741
126.6509, 34.32956
127.1331, 35.82144
127.6152, 36.79078
128.0973, 37.57433
128.5794, 37.92461
129.0615, 38.24620
129.5436, 39.67273
130.0258, 43.00526
130.5079, 46.94757
130.9900, 48.56799
131.4721, 47.85528
131.9542, 47.87434
132.4363, 51.99274
132.9185, 59.63287
133.4006, 66.82867
133.8827, 72.57304
134.3648, 77.02058
134.8469, 80.49085
135.3290, 82.56436
135.8112, 85.52383
136.2933, 92.58285
136.7754, 104.0415
137.2575, 115.2607
137.7396, 124.1184
138.2217, 130.5927
138.7039, 140.1437
139.1860, 153.6830
139.6681, 168.8972
140.1502, 182.5302
140.6323, 194.0637
141.1144, 205.3037
141.5966, 217.1517
142.0787, 229.9542
142.5608, 241.4164
143.0429, 251.0329
143.5250, 259.5735
144.0071, 268.8663
144.4893, 279.6190
144.9714, 289.8427
145.4535, 298.3255
145.9356, 303.7137
146.4177, 310.2280
146.8998, 318.0271
147.3820, 327.0166
147.8641, 337.2039
148.3462, 348.8085
148.8283, 361.2729
149.3104, 374.3763
149.7925, 386.3519
150.2747, 401.2384
150.7568, 420.6911
151.2389, 444.1880
151.7210, 465.3598
152.2031, 482.9827
152.6852, 498.8318
153.1674, 514.1984
153.6495, 526.6816
154.1316, 541.1011
154.6137, 559.7001
155.0958, 582.6066
155.5779, 602.3608
156.0601, 616.3907
156.5422, 627.7159
157.0243, 638.7414
157.5064, 650.8027
157.9885, 661.7722
158.4706, 670.6511
158.9528, 677.1487
159.4349, 683.8002
159.9170, 690.5414
160.3991, 697.9896
160.8812, 706.8594
161.3633, 718.4003
161.8455, 730.5694
162.3276, 742.5169
162.8097, 753.9020
163.2918, 765.5744
163.7739, 776.5655
164.2560, 787.2717
164.7382, 794.6993
165.2203, 804.8112
165.7024, 816.8209
166.1845, 829.8825
166.6666, 844.9060
167.1487, 857.7906
167.6309, 865.1976
168.1130, 869.0125
168.5951, 873.0621
169.0772, 879.7532
169.5593, 887.1882
170.0414, 893.9933
170.5236, 900.3538
171.0057, 905.1594
171.4878, 906.6889
171.9699, 905.8554
172.4520, 905.3923
172.9341, 907.3126
173.4163, 910.2706
173.8984, 912.5948
174.3805, 913.5156
174.8626, 914.3748
175.3447, 916.8725
175.8268, 920.6396
176.3090, 923.9998
176.7911, 924.9116
177.2732, 924.7941
177.7553, 926.0358
178.2374, 929.8110
178.7195, 934.5363
179.2017, 938.4059
179.6838, 941.4809
180.1659, 943.9729
180.6480, 945.0815
181.1301, 945.7167
181.6122, 948.1845
182.0944, 954.0930
182.5765, 961.4647
183.0586, 967.7870
183.5407, 972.9608
184.0228, 976.0433
184.5049, 974.3177
184.9871, 969.2500
185.4692, 966.2419
185.9513, 967.7117
186.4334, 972.0270
186.9155, 975.5032
187.3976, 978.0711
187.8798, 980.4435
188.3619, 983.0775
188.8440, 986.0518
189.3261, 989.7640
189.8082, 995.0189
190.2903, 1001.128
190.7725, 1005.884
191.2546, 1009.403
191.7367, 1011.302
192.2188, 1009.997
192.7009, 1005.716
193.1830, 1003.112
193.6652, 1004.696
194.1473, 1009.705
194.6294, 1013.278
195.1115, 1015.247
195.5936, 1016.363
196.0757, 1017.213
196.5579, 1017.759
197.0400, 1019.132
197.5221, 1022.316
198.0042, 1027.114
198.4863, 1030.591
198.9684, 1032.541
199.4506, 1033.603
199.9327, 1034.438
200.4148, 1034.973
200.8969, 1035.957
201.3790, 1038.208
201.8611, 1041.809
202.3433, 1043.376
202.8254, 1042.172
203.3075, 1040.076
203.7896, 1040.640
204.2717, 1044.408
204.7538, 1047.953
205.2360, 1049.665
205.7181, 1049.316
206.2002, 1048.945
206.6823, 1048.096
207.1644, 1047.750
207.6465, 1050.549
208.1287, 1057.756
208.6108, 1063.621
209.0929, 1064.656
209.5750, 1059.378
210.0571, 1057.775
210.5392, 1061.212
211.0214, 1067.147
211.5035, 1069.773
211.9856, 1067.535
212.4677, 1066.273
212.9498, 1069.158
213.4319, 1077.484
213.9140, 1084.361
214.3962, 1089.487
214.8783, 1093.300
215.3604, 1096.549
215.8425, 1098.886
216.3246, 1101.459
216.8067, 1104.990
217.2889, 1109.911
217.7710, 1113.991
218.2531, 1116.668
218.7352, 1118.716
219.2173, 1122.420
219.6994, 1129.130
220.1816, 1134.909
220.6637, 1138.031
221.1458, 1137.928
221.6279, 1136.702
222.1100, 1133.896
222.5921, 1130.206
223.0743, 1127.504
223.5564, 1126.597
224.0385, 1125.351
224.5206, 1122.766
225.0027, 1118.354
225.4848, 1113.797
225.9670, 1108.624
226.4491, 1103.541
226.9312, 1100.725
227.4133, 1102.129
227.8954, 1102.655
228.3775, 1099.500
228.8597, 1090.083
229.3418, 1083.149
229.8239, 1079.234
230.3060, 1077.665
230.7881, 1076.905
231.2702, 1077.560
231.7524, 1078.016
232.2345, 1077.531
232.7166, 1075.803
233.1987, 1073.757
233.6808, 1071.364
234.1629, 1068.681
234.6451, 1065.671
235.1272, 1061.696
235.6093, 1058.429
236.0914, 1056.778
236.5735, 1057.764
237.0556, 1058.068
237.5378, 1057.218
238.0199, 1055.871
238.5020, 1055.783
238.9841, 1057.876
239.4662, 1059.907
239.9483, 1060.916
240.4305, 1060.527
240.9126, 1059.978
241.3947, 1059.340
241.8768, 1058.498
242.3589, 1056.996
242.8410, 1053.840
243.3232, 1051.496
243.8053, 1051.323
244.2874, 1054.985
244.7695, 1056.663
245.2516, 1055.588
245.7337, 1052.844
246.2159, 1050.697
246.6980, 1048.777
247.1801, 1048.071
247.6622, 1049.449
248.1443, 1054.640
248.6264, 1056.984
249.1086, 1055.630
249.5907, 1051.891
250.0728, 1048.051
250.5549, 1042.670
251.0370, 1039.632
251.5191, 1041.336
252.0013, 1050.442
252.4834, 1055.010
252.9655, 1052.924
253.4476, 1047.511
253.9297, 1044.882
254.4118, 1045.866
254.8940, 1048.108
255.3761, 1051.186
255.8582, 1055.741
256.3403, 1058.578
256.8224, 1059.513
257.3046, 1058.894
257.7867, 1056.887
258.2688, 1052.234
258.7509, 1048.874
259.2330, 1048.507
259.7151, 1051.796
260.1973, 1054.311
260.6794, 1056.182
261.1615, 1057.140
261.6436, 1056.100
262.1257, 1051.253
262.6078, 1048.911
263.0900, 1052.186
263.5721, 1062.120
264.0542, 1067.161
264.5363, 1065.353
265.0184, 1061.026
265.5005, 1059.819
265.9827, 1062.726
266.4648, 1065.838
266.9469, 1067.952
267.4290, 1069.015
267.9111, 1070.872
268.3932, 1073.807
268.8754, 1077.064
269.3575, 1079.882
269.8396, 1082.339
270.3217, 1084.094
270.8038, 1084.587
271.2859, 1083.978
271.7681, 1085.738
272.2502, 1090.912
272.7323, 1096.301
273.2144, 1098.090
273.6965, 1095.520
274.1786, 1093.508
274.6608, 1092.893
275.1429, 1093.685
275.6250, 1096.474
276.1071, 1102.057
276.5892, 1107.365
277.0714, 1108.855
277.5535, 1106.001
278.0356, 1104.457
278.5177, 1105.682
278.9998, 1108.914
279.4819, 1110.971
279.9641, 1111.722
280.4462, 1111.985
280.9283, 1112.663
281.4104, 1113.810
281.8925, 1113.522
282.3746, 1110.773
282.8568, 1106.969
283.3389, 1106.189
283.8210, 1108.621
284.3031, 1112.558
284.7852, 1117.845
285.2673, 1124.238
285.7495, 1127.697
286.2316, 1126.440
286.7137, 1123.808
287.1958, 1128.413
287.6779, 1140.523
288.1600, 1151.021
288.6422, 1152.490
289.1243, 1146.379
289.6064, 1143.367
290.0885, 1144.758
290.5706, 1148.320
291.0527, 1151.037
291.5349, 1152.911
292.0170, 1153.807
292.4991, 1152.890
292.9812, 1150.828
293.4633, 1150.129
293.9454, 1151.055
294.4276, 1152.808
294.9097, 1154.518
295.3918, 1156.193
295.8739, 1157.829
296.3560, 1159.516
296.8381, 1161.140
297.3203, 1162.272
297.8024, 1162.841
298.2845, 1163.380
298.7666, 1164.534
299.2487, 1166.119
299.7308, 1167.623
300.2130, 1169.151
300.6951, 1170.347
301.1772, 1170.005
301.6593, 1168.141
302.1414, 1167.106
302.6235, 1169.612
303.1057, 1174.437
303.5878, 1179.098
304.0699, 1183.336
304.5520, 1186.631
305.0341, 1188.002
305.5162, 1187.624
305.9984, 1186.966
306.4805, 1186.789
306.9626, 1187.055
307.4447, 1187.934
307.9268, 1190.694
308.4089, 1192.419
308.8911, 1189.302
309.3732, 1182.462
309.8553, 1176.541
310.3374, 1173.982
310.8195, 1173.795
311.3016, 1175.374
311.7838, 1179.432
312.2659, 1183.410
312.7480, 1185.651
313.2301, 1186.510
313.7122, 1186.904
314.1943, 1187.259
314.6765, 1187.337
315.1586, 1186.758
315.6407, 1185.135
316.1228, 1184.087
316.6049, 1183.650
317.0870, 1184.406
317.5692, 1187.289
318.0513, 1196.569
318.5334, 1204.846
319.0155, 1207.792
319.4976, 1204.329
319.9797, 1200.969
320.4619, 1200.010
320.9440, 1200.185
321.4261, 1200.085
321.9082, 1198.532
322.3903, 1197.436
322.8724, 1197.642
323.3546, 1199.202
323.8367, 1200.475
324.3188, 1201.666
324.8009, 1202.209
325.2830, 1201.670
325.7651, 1198.416
326.2473, 1195.892
326.7294, 1195.108
327.2115, 1195.803
327.6936, 1195.760
328.1757, 1193.799
328.6578, 1191.869
329.1400, 1190.939
329.6221, 1191.964
330.1042, 1192.703
330.5863, 1193.114
331.0684, 1193.211
331.5505, 1192.992
332.0327, 1191.723
332.5148, 1190.953
332.9969, 1191.337
333.4790, 1193.210
333.9611, 1195.214
334.4432, 1197.255
334.9254, 1199.476
335.4075, 1202.226
335.8896, 1206.087
336.3717, 1209.371
336.8538, 1211.600
337.3359, 1212.792
337.8180, 1212.642
338.3001, 1210.143
338.7823, 1207.865
339.2644, 1209.285
339.7465, 1215.443
340.2286, 1220.761
340.7107, 1223.625
341.1928, 1224.470
341.6750, 1226.107
342.1571, 1228.692
342.6392, 1231.514
343.1213, 1234.128
343.6034, 1236.503
344.0855, 1238.451
344.5677, 1239.788
345.0498, 1240.790
345.5319, 1242.304
346.0140, 1244.362
346.4961, 1245.967
346.9782, 1246.393
347.4604, 1245.803
347.9425, 1244.684
348.4246, 1242.839
348.9067, 1241.241
349.3888, 1241.446
349.8709, 1243.247
350.3531, 1245.441
350.8352, 1247.707
351.3173, 1249.900
351.7994, 1252.079
352.2815, 1254.327
352.7636, 1255.469
353.2458, 1253.401
353.7279, 1249.378
354.2100, 1246.105
354.6921, 1244.474
355.1742, 1244.159
355.6563, 1245.010
356.1385, 1246.973
356.6206, 1249.550
357.1027, 1254.640
357.5848, 1259.316
358.0669, 1259.803
358.5490, 1252.392
359.0312, 1244.601
359.5133, 1240.872
359.9954, 1240.558
360.4775, 1241.565
360.9596, 1244.640
361.4417, 1247.537
361.9239, 1248.240
362.4060, 1245.174
362.8881, 1243.627
363.3702, 1248.129
363.8523, 1254.913
364.3344, 1258.203
364.8166, 1252.848
365.2987, 1246.859
365.7808, 1242.895
366.2629, 1241.055
366.7450, 1241.377
367.2271, 1246.403
367.7093, 1252.376
368.1914, 1255.992
368.6735, 1254.311
369.1556, 1253.231
369.6377, 1253.790
370.1198, 1255.795
370.6020, 1257.629
371.0841, 1260.001
371.5662, 1261.547
372.0483, 1261.339
372.5304, 1257.548
373.0125, 1255.642
373.4947, 1257.469
373.9768, 1260.639
374.4589, 1258.956
374.9410, 1249.703
375.4231, 1241.165
375.9052, 1236.802
376.3874, 1237.256
376.8695, 1236.705
377.3516, 1234.859
377.8337, 1232.494
378.3158, 1230.478
378.7979, 1228.832
379.2801, 1227.467
379.7622, 1226.837
380.2443, 1226.416
380.7264, 1222.493
381.2085, 1214.343
381.6906, 1207.968
382.1728, 1210.057
382.6549, 1219.219
383.1370, 1226.479
383.6191, 1230.220
384.1012, 1231.680
384.5833, 1232.625
385.0655, 1233.074
385.5476, 1233.196
386.0297, 1232.102
386.5118, 1230.988
386.9939, 1232.541
387.4760, 1237.313
387.9582, 1242.369
388.4403, 1244.810
388.9224, 1245.532
389.4045, 1246.390
389.8866, 1247.691
390.3687, 1249.790
390.8509, 1253.104
391.3330, 1257.562
391.8151, 1262.617
392.2972, 1269.045
392.7793, 1275.354
393.2614, 1279.953
393.7436, 1280.536
394.2257, 1281.966
394.7078, 1287.203
395.1899, 1294.925
395.6720, 1301.661
396.1541, 1306.153
396.6363, 1309.557
397.1184, 1312.127
397.6005, 1313.347
398.0826, 1315.498
398.5647, 1318.864
399.0468, 1323.369
399.5290, 1328.924
400.0111, 1339.175
400.4932, 1346.500
400.9753, 1348.663
401.4574, 1345.682
401.9395, 1343.520
402.4217, 1341.427
402.9038, 1340.887
403.3859, 1343.408
403.8680, 1351.422
404.3501, 1356.545
404.8322, 1357.332
405.3144, 1355.262
405.7965, 1354.059
406.2786, 1353.732
406.7607, 1354.211
407.2428, 1355.857
407.7249, 1358.741
408.2071, 1360.349
408.6892, 1360.374
409.1713, 1360.042
409.6534, 1360.414
410.1355, 1361.544
410.6176, 1364.671
411.0998, 1371.340
411.5819, 1379.502
412.0640, 1383.735
412.5461, 1384.138
413.0282, 1384.130
413.5103, 1385.630
413.9925, 1388.662
414.4746, 1393.751
414.9567, 1401.635
415.4388, 1409.681
415.9209, 1414.725
416.4030, 1417.786
416.8852, 1421.543
417.3673, 1429.047
417.8494, 1436.623
418.3315, 1440.511
418.8136, 1440.415
419.2957, 1440.985
419.7779, 1445.437
420.2600, 1451.579
420.7421, 1457.141
421.2242, 1461.163
421.7063, 1464.900
422.1884, 1468.583
422.6706, 1472.297
423.1527, 1476.496
423.6348, 1481.526
424.1169, 1486.839
424.5990, 1492.022
425.0811, 1496.018
425.5633, 1502.261
426.0454, 1512.558
426.5275, 1524.406
427.0096, 1534.818
427.4917, 1543.297
427.9738, 1550.955
428.4560, 1557.741
428.9381, 1563.758
429.4202, 1570.124
429.9023, 1576.704
430.3844, 1583.706
430.8665, 1591.459
431.3487, 1600.232
431.8308, 1607.955
432.3129, 1614.197
432.7950, 1619.595
433.2771, 1625.137
433.7592, 1630.749
434.2414, 1636.894
434.7235, 1644.938
435.2056, 1653.819
435.6877, 1658.742
436.1698, 1659.475
436.6519, 1658.903
437.1341, 1660.184
437.6162, 1662.407
438.0983, 1663.214
438.5804, 1661.847
439.0625, 1658.996
439.5446, 1655.065
440.0268, 1650.234
440.5089, 1645.126
440.9910, 1640.214
441.4731, 1635.160
441.9552, 1629.989
442.4373, 1625.072
442.9195, 1618.266
443.4016, 1607.329
443.8837, 1594.285
444.3658, 1581.590
444.8479, 1570.725
445.3300, 1559.562
445.8122, 1546.240
446.2943, 1531.352
446.7764, 1519.150
447.2585, 1513.761
447.7406, 1508.514
448.2227, 1499.776
448.7049, 1484.524
449.1870, 1471.705
449.6691, 1462.156
450.1512, 1454.684
450.6333, 1447.806
451.1154, 1442.033
451.5976, 1435.574
452.0797, 1427.627
452.5618, 1418.346
453.0439, 1410.641
453.5260, 1404.943
454.0081, 1399.917
454.4903, 1394.253
454.9724, 1388.024
455.4545, 1383.203
455.9366, 1380.091
456.4187, 1378.448
456.9008, 1378.282
457.3830, 1379.466
457.8651, 1381.016
458.3472, 1384.202
458.8293, 1386.926
459.3114, 1383.623
459.7935, 1374.387
460.2757, 1366.739
460.7578, 1368.606
461.2399, 1375.314
461.7220, 1380.314
462.2041, 1381.271
462.6862, 1381.293
463.1684, 1382.092
463.6505, 1383.486
464.1326, 1385.052
464.6147, 1385.581
465.0968, 1387.081
465.5789, 1391.107
466.0611, 1398.184
466.5432, 1404.282
467.0253, 1407.910
467.5074, 1410.532
467.9895, 1413.355
468.4716, 1417.084
468.9538, 1420.198
469.4359, 1421.748
469.9180, 1422.612
470.4001, 1426.066
470.8822, 1434.378
471.3643, 1441.230
471.8465, 1443.561
472.3286, 1440.839
472.8107, 1439.669
473.2928, 1440.665
473.7749, 1441.817
474.2570, 1440.914
474.7392, 1437.976
475.2213, 1434.311
475.7034, 1430.527
476.1855, 1425.790
476.6676, 1417.289
477.1497, 1405.424
477.6319, 1394.460
478.1140, 1387.113
478.5961, 1382.143
479.0782, 1377.743
479.5603, 1373.816
480.0424, 1369.952
480.5246, 1366.739
481.0067, 1363.113
481.4888, 1357.447
481.9709, 1346.346
482.4530, 1336.331
482.9352, 1331.754
483.4173, 1331.158
483.8994, 1329.936
484.3815, 1324.662
484.8636, 1319.939
485.3457, 1318.473
485.8279, 1321.673
486.3100, 1323.418
486.7921, 1321.908
487.2742, 1319.435
487.7563, 1317.914
488.2384, 1317.239
488.7206, 1317.851
489.2027, 1320.602
489.6848, 1324.556
490.1669, 1325.983
490.6490, 1323.986
491.1311, 1322.178
491.6133, 1322.125
492.0954, 1323.816
492.5775, 1327.283
493.0596, 1332.945
493.5417, 1338.562
494.0238, 1341.359
494.5060, 1341.871
494.9881, 1342.117
495.4702, 1341.538
495.9523, 1342.599
496.4344, 1350.813
496.9165, 1364.313
497.3987, 1376.044
497.8808, 1380.645
498.3629, 1382.567
498.8450, 1385.979
499.3271, 1391.270
499.8092, 1396.772
500.2914, 1401.600
500.7735, 1406.214
501.2556, 1411.184
501.7377, 1416.672
502.2198, 1422.390
502.7019, 1428.706
503.1841, 1435.247
503.6662, 1441.063
504.1483, 1446.579
504.6304, 1450.909
505.1125, 1453.299
505.5946, 1453.500
506.0768, 1455.356
506.5589, 1460.009
507.0410, 1464.643
507.5231, 1466.475
508.0052, 1464.848
508.4873, 1465.222
508.9695, 1469.077
509.4516, 1473.803
509.9337, 1474.571
510.4158, 1471.484
510.8979, 1466.468
511.3800, 1459.337
511.8622, 1451.116
512.3443, 1444.481
512.8264, 1439.357
513.3085, 1433.462
513.7906, 1423.790
514.2728, 1412.802
514.7549, 1404.014
515.2370, 1398.832
515.7191, 1393.634
516.2012, 1385.677
516.6833, 1376.368
517.1655, 1367.742
517.6476, 1359.989
518.1297, 1353.520
518.6118, 1349.185
519.0939, 1346.741
519.5760, 1343.413
520.0582, 1337.879
520.5403, 1332.279
521.0224, 1327.423
521.5045, 1322.980
521.9866, 1320.381
522.4688, 1320.857
522.9509, 1321.795
523.4330, 1319.356
523.9151, 1312.592
524.3972, 1307.818
524.8793, 1307.087
525.3615, 1308.629
525.8436, 1307.717
526.3257, 1304.370
526.8078, 1300.608
527.2899, 1296.767
527.7720, 1293.471
528.2542, 1292.989
528.7363, 1295.531
529.2184, 1297.487
529.7005, 1294.633
530.1826, 1289.699
530.6647, 1286.500
531.1469, 1287.135
531.6290, 1288.030
532.1111, 1286.666
532.5932, 1284.178
533.0753, 1282.883
533.5574, 1284.909
534.0396, 1286.811
534.5217, 1287.536
535.0038, 1286.992
535.4859, 1285.487
535.9680, 1281.883
536.4501, 1278.444
536.9323, 1276.622
537.4144, 1277.297
537.8965, 1276.873
538.3786, 1274.613
538.8607, 1272.161
539.3428, 1272.538
539.8250, 1276.029
540.3071, 1278.523
540.7892, 1278.402
541.2713, 1276.900
541.7534, 1277.789
542.2355, 1280.732
542.7177, 1282.045
543.1998, 1277.374
543.6819, 1270.325
544.1640, 1266.523
544.6461, 1266.445
545.1282, 1267.840
545.6104, 1270.468
546.0925, 1273.154
546.5746, 1274.490
547.0567, 1272.677
547.5388, 1271.420
548.0209, 1273.076
548.5031, 1276.110
548.9852, 1277.176
549.4673, 1273.313
549.9494, 1270.028
550.4315, 1268.952
550.9136, 1270.075
551.3958, 1270.330
551.8779, 1268.746
552.3600, 1267.941
552.8421, 1270.159
553.3242, 1275.903
553.8063, 1279.900
554.2885, 1281.844
554.7706, 1282.275
555.2527, 1281.485
555.7348, 1279.647
556.2169, 1277.828
556.6990, 1276.318
557.1812, 1275.051
557.6633, 1273.605
558.1454, 1272.234
558.6275, 1271.899
559.1096, 1274.709
559.5917, 1277.719
560.0739, 1277.574
560.5560, 1273.984
561.0381, 1272.459
561.5202, 1278.630
562.0023, 1285.673
562.4844, 1288.380
562.9666, 1281.572
563.4487, 1277.133
563.9308, 1277.266
564.4129, 1279.414
564.8950, 1279.475
565.3771, 1275.900
565.8593, 1273.704
566.3414, 1274.115
566.8235, 1276.734
567.3056, 1280.624
567.7877, 1286.180
568.2698, 1289.890
568.7520, 1287.286
569.2341, 1280.848
569.7162, 1281.694
570.1983, 1290.639
570.6804, 1298.974
571.1625, 1296.884
571.6447, 1289.139
572.1268, 1283.470
572.6089, 1282.313
573.0910, 1282.257
573.5731, 1281.306
574.0552, 1279.916
574.5374, 1278.855
575.0195, 1277.865
575.5016, 1277.795
575.9837, 1279.671
576.4658, 1283.232
576.9479, 1285.195
577.4301, 1283.965
577.9122, 1282.957
578.3943, 1284.037
578.8764, 1287.983
579.3585, 1289.325
579.8406, 1287.248
580.3228, 1284.378
580.8049, 1283.383
581.2870, 1284.175
581.7691, 1285.430
582.2512, 1287.023
582.7333, 1288.691
583.2155, 1290.047
583.6975, 1291.120
584.1796, 1292.111
584.6617, 1293.276
585.1439, 1294.228
585.6260, 1294.310
586.1081, 1293.730
586.5902, 1293.582
587.0723, 1295.379
587.5544, 1296.964
588.0366, 1296.629
588.5187, 1293.336
589.0008, 1291.986
589.4829, 1295.233
589.9650, 1299.263
590.4471, 1301.206
590.9293, 1300.105
591.4114, 1299.210
591.8935, 1298.928
592.3756, 1298.748
592.8577, 1297.408
593.3398, 1294.806
593.8220, 1293.062
594.3041, 1293.227
594.7862, 1294.404
595.2683, 1294.665
595.7504, 1294.050
596.2325, 1292.883
596.7147, 1290.019
597.1968, 1287.445
597.6789, 1287.832
598.1610, 1291.412
598.6431, 1295.366
599.1252, 1299.400
599.6074, 1302.373
600.0895, 1303.192
600.5716, 1299.956
601.0537, 1297.574
601.5358, 1297.000
602.0179, 1297.599
602.5001, 1298.734
602.9822, 1301.140
603.4643, 1302.462
603.9464, 1301.723
604.4285, 1299.848
604.9106, 1300.402
605.3928, 1303.722
605.8749, 1306.208
606.3570, 1304.965
606.8391, 1301.580
607.3212, 1301.744
607.8033, 1305.316
608.2855, 1309.145
608.7676, 1311.257
609.2497, 1311.974
609.7318, 1311.299
610.2139, 1308.867
610.6960, 1306.904
611.1782, 1306.510
611.6603, 1307.268
612.1424, 1308.742
612.6245, 1312.246
613.1066, 1314.745
613.5887, 1315.422
614.0709, 1314.948
614.5530, 1314.702
615.0351, 1315.140
615.5172, 1314.759
615.9993, 1312.604
616.4814, 1309.308
616.9636, 1308.652
617.4457, 1310.869
617.9278, 1313.160
618.4099, 1313.656
618.8920, 1312.878
619.3741, 1312.072
619.8563, 1311.271
620.3384, 1310.808
620.8205, 1311.399
621.3026, 1312.279
621.7847, 1312.325
622.2668, 1310.736
622.7490, 1309.841
623.2311, 1311.450
623.7132, 1314.047
624.1953, 1315.690
624.6774, 1315.663
625.1595, 1315.104
625.6417, 1313.894
626.1238, 1312.296
626.6059, 1310.995
627.0880, 1309.899
627.5701, 1309.400
628.0522, 1309.812
628.5344, 1310.942
629.0165, 1311.714
629.4986, 1312.119
629.9807, 1312.696
630.4628, 1314.059
630.9449, 1315.783
631.4271, 1317.089
631.9092, 1317.904
632.3913, 1318.515
632.8734, 1319.126
633.3555, 1319.625
633.8376, 1319.811
634.3198, 1319.110
634.8019, 1319.116
635.2840, 1320.758
635.7661, 1323.152
636.2482, 1325.109
636.7303, 1326.662
637.2125, 1327.619
637.6946, 1327.673
638.1767, 1327.238
638.6588, 1327.757
639.1409, 1329.503
639.6230, 1330.332
640.1052, 1328.487
640.5873, 1325.452
641.0694, 1326.676
641.5515, 1331.755
642.0336, 1335.805
642.5157, 1334.450
642.9979, 1330.844
643.4800, 1328.312
643.9621, 1327.138
644.4442, 1327.095
644.9263, 1328.986
645.4084, 1331.393
645.8906, 1333.155
646.3727, 1333.768
646.8548, 1334.240
647.3369, 1334.255
647.8190, 1334.356
648.3011, 1335.297
648.7833, 1337.428
649.2654, 1339.152
649.7475, 1340.266
650.2296, 1340.770
650.7117, 1340.189
651.1938, 1338.679
651.6760, 1338.255
652.1581, 1340.525
652.6402, 1343.748
653.1223, 1345.404
653.6044, 1345.703
654.0865, 1345.593
654.5687, 1345.056
655.0508, 1344.734
655.5329, 1345.432
656.0150, 1347.256
656.4971, 1348.060
656.9792, 1346.471
657.4614, 1344.441
657.9435, 1342.834
658.4256, 1341.307
658.9077, 1341.644
659.3898, 1344.726
659.8719, 1348.099
660.3541, 1348.733
660.8362, 1346.738
661.3183, 1346.108
661.8004, 1347.618
662.2825, 1350.029
662.7646, 1352.393
663.2468, 1354.385
663.7289, 1355.141
664.2110, 1353.628
664.6931, 1351.722
665.1752, 1350.548
665.6573, 1350.009
666.1395, 1349.823
666.6216, 1349.651
667.1037, 1350.105
667.5858, 1351.559
668.0679, 1353.902
668.5500, 1356.536
669.0322, 1360.090
669.5143, 1362.716
669.9964, 1363.387
670.4785, 1362.218
670.9606, 1360.962
671.4427, 1359.535
671.9249, 1358.720
672.4070, 1359.395
672.8891, 1361.072
673.3712, 1362.614
673.8533, 1363.863
674.3354, 1365.561
674.8176, 1369.607
675.2997, 1373.756
675.7818, 1375.461
676.2639, 1372.812
676.7460, 1370.319
677.2281, 1368.062
677.7103, 1366.987
678.1924, 1368.600
678.6745, 1375.189
679.1566, 1379.262
679.6387, 1379.000
680.1208, 1376.479
680.6030, 1376.621
681.0851, 1379.396
681.5672, 1381.121
682.0493, 1379.766
682.5314, 1377.212
683.0135, 1376.588
683.4957, 1377.605
683.9778, 1379.177
684.4599, 1381.686
684.9420, 1383.735
685.4241, 1383.963
685.9063, 1382.507
686.3884, 1381.695
686.8705, 1383.196
687.3526, 1384.524
687.8347, 1384.455
688.3168, 1382.719
688.7990, 1381.634
689.2811, 1381.309
689.7632, 1381.409
690.2453, 1381.641
690.7274, 1382.036
691.2095, 1383.031
691.6917, 1384.721
692.1738, 1386.454
692.6559, 1388.266
693.1380, 1389.418
693.6201, 1388.036
694.1022, 1382.241
694.5844, 1377.927
695.0665, 1380.641
695.5486, 1386.067
696.0307, 1388.687
696.5128, 1383.458
696.9949, 1380.313
697.4771, 1381.257
697.9592, 1384.349
698.4413, 1385.658
698.9234, 1384.700
699.4055, 1383.907
699.8876, 1383.911
700.3698, 1384.505
700.8519, 1385.534
701.3340, 1386.854
701.8161, 1387.392
702.2982, 1385.615
702.7803, 1383.443
703.2625, 1383.313
703.7446, 1384.833
704.2267, 1385.921
704.7088, 1384.504
705.1909, 1383.451
705.6730, 1385.050
706.1552, 1389.780
706.6373, 1391.216
707.1194, 1386.855
707.6015, 1382.662
708.0836, 1382.231
708.5657, 1385.777
709.0479, 1388.235
709.5300, 1389.496
710.0121, 1390.144
710.4942, 1390.515
710.9763, 1390.666
711.4584, 1390.561
711.9406, 1390.072
712.4227, 1390.223
712.9048, 1392.751
713.3869, 1395.832
713.8690, 1397.405
714.3511, 1395.407
714.8333, 1394.828
715.3154, 1398.712
715.7975, 1403.394
716.2796, 1404.686
716.7617, 1400.983
717.2438, 1398.893
717.7260, 1399.719
718.2081, 1401.776
718.6902, 1402.130
719.1723, 1400.957
719.6544, 1399.560
720.1365, 1398.408
720.6187, 1397.110
721.1008, 1394.381
721.5829, 1391.131
722.0650, 1389.438
722.5471, 1391.159
723.0292, 1393.645
723.5114, 1396.211
723.9935, 1398.647
724.4756, 1400.155
724.9577, 1399.515
725.4398, 1399.869
725.9219, 1402.720
726.4041, 1407.361
726.8862, 1409.361
727.3683, 1408.533
727.8504, 1407.543
728.3325, 1407.774
728.8146, 1408.953
729.2968, 1411.152
729.7789, 1414.146
730.2610, 1415.910
730.7431, 1414.285
731.2252, 1411.616
731.7073, 1409.171
732.1895, 1406.983
732.6716, 1406.328
733.1537, 1407.588
733.6358, 1410.332
734.1179, 1415.293
734.6000, 1423.663
735.0822, 1426.240
735.5643, 1421.684
736.0464, 1415.934
736.5285, 1414.290
737.0106, 1415.950
737.4927, 1418.072
737.9749, 1420.426
738.4570, 1422.841
738.9391, 1426.434
739.4212, 1429.430
739.9033, 1429.279
740.3854, 1423.484
740.8676, 1419.547
741.3497, 1420.818
741.8318, 1424.333
742.3139, 1426.933
742.7960, 1427.828
743.2781, 1429.819
743.7603, 1433.351
744.2424, 1437.524
744.7245, 1441.440
745.2066, 1444.943
745.6887, 1446.948
746.1708, 1446.688
746.6530, 1446.070
747.1351, 1448.115
747.6172, 1451.190
748.0993, 1452.405
748.5814, 1447.775
749.0635, 1444.495
749.5457, 1446.169
750.0278, 1450.753
750.5099, 1453.744
750.9920, 1454.027
751.4741, 1454.770
751.9562, 1456.605
752.4384, 1459.223
752.9205, 1462.162
753.4026, 1465.410
753.8847, 1467.394
754.3668, 1466.394
754.8489, 1465.052
755.3311, 1467.718
755.8132, 1473.311
756.2953, 1478.590
756.7774, 1482.467
757.2595, 1485.299
757.7416, 1486.666
758.2238, 1486.925
758.7059, 1488.249
759.1880, 1491.848
759.6701, 1494.638
760.1522, 1495.230
760.6343, 1494.278
761.1165, 1495.303
761.5986, 1498.340
762.0807, 1502.551
762.5628, 1508.453
763.0449, 1514.792
763.5270, 1518.465
764.0092, 1520.141
764.4913, 1523.578
764.9734, 1533.875
765.4555, 1543.971
765.9376, 1548.539
766.4197, 1547.432
766.9019, 1549.068
767.3840, 1555.657
767.8661, 1562.473
768.3482, 1567.018
768.8303, 1569.523
769.3124, 1575.076
769.7946, 1583.832
770.2767, 1593.210
770.7588, 1601.016
771.2409, 1608.334
771.7230, 1617.403
772.2051, 1628.213
772.6873, 1638.830
773.1694, 1647.521
773.6515, 1656.049
774.1336, 1665.657
774.6157, 1676.565
775.0978, 1687.862
775.5800, 1698.982
776.0621, 1711.134
776.5442, 1725.295
777.0263, 1741.625
777.5084, 1757.281
777.9905, 1772.180
778.4727, 1787.771
778.9548, 1805.451
779.4369, 1824.615
779.9190, 1843.807
780.4011, 1862.630
780.8832, 1884.010
781.3654, 1911.748
781.8475, 1940.928
782.3296, 1967.336
782.8117, 1987.917
783.2938, 2013.749
783.7759, 2047.116
784.2581, 2082.726
784.7402, 2115.752
785.2223, 2146.066
785.7044, 2180.302
786.1865, 2218.559
786.6686, 2259.435
787.1508, 2301.942
787.6329, 2345.812
788.1150, 2391.882
788.5971, 2441.023
789.0792, 2488.996
789.5613, 2530.725
790.0435, 2573.282
790.5256, 2623.927
791.0077, 2687.047
791.4898, 2745.592
791.9719, 2796.753
792.4540, 2847.393
792.9362, 2903.722
793.4183, 2965.582
793.9004, 3022.139
794.3825, 3072.725
794.8646, 3121.056
795.3467, 3171.694
795.8289, 3222.880
796.3110, 3270.753
796.7931, 3313.950
797.2752, 3360.310
797.7573, 3415.284
798.2394, 3473.542
798.7216, 3530.147
799.2037, 3582.555
799.6858, 3641.315
800.1679, 3707.094
800.6500, 3777.756
801.1321, 3851.889
801.6143, 3930.040
802.0964, 4017.891
802.5785, 4116.421
803.0606, 4217.594
803.5427, 4316.732
804.0248, 4411.881
804.5070, 4502.438
804.9891, 4588.739
805.4712, 4668.445
805.9533, 4747.690
806.4354, 4815.714
806.9175, 4864.846
807.3997, 4894.387
807.8818, 4909.157
808.3639, 4910.244
808.8460, 4892.915
809.3281, 4849.404
809.8102, 4783.876
810.2924, 4704.744
810.7745, 4612.259
811.2566, 4514.185
811.7387, 4410.478
812.2208, 4308.133
812.7029, 4212.881
813.1851, 4123.682
813.6672, 4048.078
814.1493, 3989.712
814.6314, 3940.052
815.1135, 3890.761
815.5956, 3840.723
816.0778, 3810.090
816.5599, 3800.435
817.0420, 3802.017
817.5241, 3805.487
818.0062, 3814.070
818.4883, 3833.399
818.9705, 3864.841
819.4526, 3902.714
819.9347, 3942.579
820.4168, 3988.993
820.8989, 4047.169
821.3810, 4119.489
821.8632, 4189.882
822.3453, 4257.514
822.8274, 4325.631
823.3095, 4395.156
823.7916, 4466.767
824.2737, 4542.054
824.7559, 4621.566
825.2380, 4693.371
825.7201, 4750.584
826.2022, 4792.935
826.6843, 4821.443
827.1664, 4837.289
827.6486, 4828.767
828.1307, 4789.916
828.6128, 4728.048
829.0949, 4644.615
829.5770, 4540.045
830.0591, 4416.388
830.5413, 4272.835
831.0234, 4118.192
831.5055, 3953.786
831.9876, 3785.218
832.4697, 3618.708
832.9518, 3456.338
833.4340, 3301.528
833.9161, 3154.871
834.3982, 3019.634
834.8803, 2898.948
835.3624, 2794.045
835.8445, 2695.972
836.3267, 2604.417
836.8088, 2520.863
837.2909, 2447.744
837.7730, 2384.050
838.2551, 2323.331
838.7372, 2265.802
839.2194, 2214.605
839.7015, 2174.221
840.1836, 2139.394
840.6657, 2105.168
841.1478, 2071.539
841.6299, 2041.257
842.1121, 2015.162
842.5942, 1992.760
843.0763, 1973.838
843.5584, 1958.152
844.0405, 1944.510
844.5226, 1932.918
845.0048, 1923.125
845.4869, 1915.137
845.9690, 1908.703
846.4511, 1902.878
846.9332, 1898.146
847.4153, 1896.253
847.8975, 1899.996
848.3796, 1904.779
848.8617, 1908.373
849.3438, 1911.258
849.8259, 1914.854
850.3080, 1918.074
850.7902, 1924.677
851.2723, 1935.969
851.7544, 1950.502
852.2365, 1964.849
852.7186, 1979.349
853.2007, 1995.971
853.6829, 2015.434
854.1650, 2037.011
854.6471, 2059.366
855.1292, 2083.716
855.6113, 2112.215
856.0934, 2148.801
856.5756, 2184.608
857.0577, 2216.793
857.5398, 2249.023
858.0219, 2288.655
858.5040, 2336.325
858.9861, 2381.850
859.4683, 2422.956
859.9504, 2464.773
860.4325, 2513.223
860.9146, 2566.606
861.3967, 2621.530
861.8788, 2677.592
862.3610, 2733.622
862.8431, 2787.320
863.3252, 2841.512
863.8073, 2898.894
864.2894, 2963.835
864.7715, 3019.326
865.2537, 3063.716
865.7358, 3103.102
866.2179, 3145.415
866.7000, 3187.735
867.1821, 3222.187
867.6642, 3248.196
868.1464, 3269.086
868.6285, 3287.333
869.1106, 3301.542
869.5927, 3311.817
870.0748, 3319.000
870.5569, 3316.020
871.0391, 3302.886
871.5212, 3279.551
872.0033, 3244.883
872.4854, 3199.427
872.9675, 3149.737
873.4496, 3095.064
873.9318, 3033.512
874.4139, 2958.800
874.8960, 2880.219
875.3781, 2806.713
875.8602, 2737.185
876.3423, 2665.064
876.8245, 2582.386
877.3066, 2505.656
877.7887, 2440.480
878.2708, 2384.601
878.7529, 2328.534
879.2350, 2272.519
879.7172, 2219.024
880.1993, 2170.012
880.6814, 2124.701
881.1635, 2082.489
881.6456, 2043.396
882.1277, 2007.451
882.6099, 1975.490
883.0920, 1945.761
883.5741, 1917.422
884.0562, 1891.303
884.5383, 1867.918
885.0204, 1847.258
885.5026, 1829.673
885.9847, 1815.707
886.4668, 1803.375
886.9489, 1789.814
887.4310, 1775.816
887.9131, 1763.114
888.3953, 1752.149
888.8774, 1742.546
889.3595, 1735.743
889.8416, 1729.255
890.3237, 1720.307
890.8058, 1706.840
891.2880, 1697.628
891.7701, 1693.907
892.2522, 1690.754
892.7343, 1682.462
893.2164, 1671.325
893.6985, 1663.846
894.1807, 1660.559
894.6628, 1657.815
895.1449, 1654.553
895.6270, 1650.073
896.1091, 1643.003
896.5912, 1633.057
897.0734, 1625.882
897.5555, 1622.176
898.0376, 1619.791
898.5197, 1618.487
899.0018, 1617.507
899.4839, 1612.529
899.9661, 1604.670
900.4482, 1600.444
900.9303, 1608.594
901.4124, 1616.714
901.8945, 1616.473
902.3766, 1609.548
902.8588, 1601.514
903.3409, 1591.184
903.8230, 1583.491
904.3051, 1579.670
904.7872, 1578.458
905.2693, 1578.137
905.7515, 1578.363
906.2336, 1576.848
906.7157, 1572.401
907.1978, 1567.579
907.6799, 1564.528
908.1620, 1562.398
908.6442, 1560.122
909.1263, 1557.236
909.6084, 1554.771
910.0905, 1553.312
910.5726, 1551.524
911.0547, 1547.433
911.5369, 1541.426
912.0190, 1538.247
912.5011, 1538.275
912.9832, 1538.396
913.4653, 1535.431
913.9474, 1531.767
914.4296, 1529.833
914.9117, 1529.929
915.3938, 1529.675
915.8759, 1528.547
916.3580, 1527.198
916.8401, 1525.822
917.3223, 1524.403
917.8044, 1522.932
918.2865, 1521.406
918.7686, 1519.842
919.2507, 1517.359
919.7328, 1515.602
920.2150, 1517.748
920.6971, 1521.853
921.1792, 1523.134
921.6613, 1517.315
922.1434, 1512.470
922.6255, 1509.599
923.1077, 1508.383
923.5898, 1509.067
924.0719, 1511.454
924.5540, 1511.635
925.0361, 1508.280
925.5182, 1504.821
926.0004, 1506.383
926.4825, 1508.971
926.9646, 1507.058
927.4467, 1496.682
927.9288, 1490.310
928.4109, 1490.780
928.8931, 1493.436
929.3752, 1495.630
929.8573, 1497.348
930.3394, 1497.681
930.8215, 1496.639
931.3036, 1495.230
931.7858, 1494.338
932.2679, 1493.372
932.7500, 1491.549
933.2321, 1489.029
933.7142, 1486.852
934.1964, 1485.386
934.6785, 1484.184
935.1606, 1483.170
935.6427, 1482.350
936.1248, 1481.423
936.6069, 1480.486
937.0891, 1481.127
937.5712, 1484.635
938.0533, 1488.418
938.5354, 1490.377
939.0175, 1490.827
939.4996, 1490.194
939.9818, 1487.278
940.4639, 1485.148
940.9460, 1484.080
941.4281, 1483.605
941.9102, 1483.289
942.3923, 1483.156
942.8745, 1484.075
943.3566, 1486.208
943.8387, 1486.475
944.3208, 1479.368
944.8029, 1471.537
945.2850, 1469.215
945.7672, 1473.152
946.2493, 1476.102
946.7314, 1476.870
947.2135, 1477.783
947.6956, 1480.134
948.1777, 1483.141
948.6599, 1483.526
949.1420, 1481.684
949.6241, 1479.795
950.1062, 1478.645
950.5883, 1478.074
951.0704, 1478.367
951.5526, 1479.077
952.0347, 1479.288
952.5168, 1478.224
952.9989, 1478.194
953.4810, 1479.708
953.9631, 1481.620
954.4453, 1482.562
954.9274, 1482.702
955.4095, 1482.654
955.8916, 1482.514
956.3737, 1481.964
956.8558, 1479.831
957.3380, 1477.941
957.8201, 1478.286
958.3022, 1481.176
958.7843, 1480.878
959.2664, 1475.755
959.7485, 1472.726
960.2307, 1476.943
960.7128, 1484.416
961.1949, 1485.015
961.6770, 1480.430
962.1591, 1476.626
962.6412, 1478.060
963.1234, 1478.947
963.6055, 1474.683
964.0876, 1469.307
964.5697, 1470.312
965.0518, 1479.847
965.5339, 1485.563
966.0161, 1485.579
966.4982, 1482.954
966.9803, 1478.945
967.4624, 1475.674
967.9445, 1478.399
968.4266, 1489.058
968.9088, 1495.503
969.3909, 1487.818
969.8730, 1479.904
970.3551, 1479.613
970.8372, 1486.366
971.3193, 1489.856
971.8015, 1489.972
972.2836, 1488.680
972.7657, 1485.344
973.2478, 1482.636
973.7299, 1485.635
974.2120, 1491.713
974.6942, 1494.380
975.1763, 1486.488
975.6584, 1482.268
976.1405, 1484.810
976.6226, 1490.350
977.1047, 1494.063
977.5869, 1495.994
978.0690, 1495.331
978.5511, 1491.521
979.0332, 1489.292
979.5153, 1495.383
979.9974, 1503.052
980.4796, 1505.983
980.9617, 1502.873
981.4438, 1498.951
981.9259, 1492.942
982.4080, 1489.283
982.8901, 1490.898
983.3723, 1495.860
983.8544, 1498.664
984.3365, 1499.463
984.8186, 1498.906
985.3007, 1495.526
985.7828, 1492.815
986.2650, 1492.570
986.7471, 1494.043
987.2292, 1496.083
987.7113, 1499.321
988.1934, 1500.537
988.6755, 1499.141
989.1577, 1496.863
989.6398, 1495.215
990.1219, 1494.174
990.6040, 1493.903
991.0861, 1494.432
991.5682, 1494.849
992.0504, 1495.463
992.5325, 1495.146
993.0146, 1493.131
993.4967, 1489.836
993.9788, 1486.948
994.4609, 1484.489
994.9431, 1483.842
995.4252, 1486.893
995.9073, 1490.063
996.3894, 1488.480
996.8715, 1484.645
997.3536, 1482.622
997.8358, 1484.859
998.3179, 1487.023
998.8000, 1489.179
999.2821, 1490.918
999.7642, 1492.016
1000.246, 1492.372
1000.728, 1490.723
1001.211, 1487.121
1001.693, 1485.088
1002.175, 1488.943
1002.657, 1493.300
1003.139, 1494.444
1003.621, 1492.660
1004.103, 1491.020
1004.585, 1489.062
1005.068, 1489.233
1005.550, 1492.904
1006.032, 1497.677
1006.514, 1500.376
1006.996, 1501.174
1007.478, 1500.058
1007.960, 1495.579
1008.442, 1492.948
1008.924, 1496.142
1009.407, 1499.671
1009.889, 1499.329
1010.371, 1494.877
1010.853, 1494.467
1011.335, 1498.143
1011.817, 1501.172
1012.299, 1499.699
1012.781, 1496.730
1013.263, 1494.506
1013.746, 1493.076
1014.228, 1492.307
1014.710, 1491.587
1015.192, 1492.893
1015.674, 1497.654
1016.156, 1502.645
1016.638, 1502.174
1017.120, 1497.917
1017.603, 1494.855
1018.085, 1493.759
1018.567, 1494.293
1019.049, 1497.638
1019.531, 1501.368
1020.013, 1504.088
1020.495, 1505.775
1020.977, 1505.733
1021.459, 1503.767
1021.942, 1501.717
1022.424, 1500.330
1022.906, 1499.466
1023.388, 1499.139
1023.870, 1499.144
1024.352, 1499.067
1024.834, 1499.362
1025.316, 1498.629
1025.799, 1495.940
1026.281, 1493.387
1026.763, 1493.724
1027.245, 1496.357
1027.727, 1496.911
1028.209, 1495.244
1028.691, 1494.049
1029.173, 1495.821
1029.656, 1498.091
1030.138, 1499.097
1030.620, 1499.041
1031.102, 1499.346
1031.584, 1499.869
1032.066, 1501.684
1032.548, 1505.963
1033.030, 1509.391
1033.512, 1504.558
1033.995, 1496.196
1034.477, 1493.026
1034.959, 1498.591
1035.441, 1503.163
1035.923, 1503.897
1036.405, 1503.598
1036.887, 1503.625
1037.369, 1503.932
1037.851, 1504.250
1038.334, 1504.526
1038.816, 1504.190
1039.298, 1502.146
1039.780, 1500.196
1040.262, 1499.785
1040.744, 1500.278
1041.226, 1500.367
1041.708, 1499.868
1042.191, 1499.430
1042.673, 1499.161
1043.155, 1498.742
1043.637, 1497.111
1044.119, 1495.402
1044.601, 1496.310
1045.083, 1499.824
1045.565, 1501.677
1046.047, 1498.022
1046.530, 1495.185
1047.012, 1495.041
1047.494, 1497.103
1047.976, 1501.319
1048.458, 1507.134
1048.940, 1509.210
1049.422, 1504.936
1049.904, 1500.421
1050.386, 1500.295
1050.869, 1502.214
1051.351, 1504.023
1051.833, 1505.646
1052.315, 1506.796
1052.797, 1507.662
1053.279, 1507.090
1053.761, 1502.753
1054.243, 1497.623
1054.726, 1497.018
1055.208, 1499.826
1055.690, 1503.118
1056.172, 1507.822
1056.654, 1509.977
1057.136, 1507.902
1057.618, 1504.809
1058.100, 1505.037
1058.583, 1507.863
1059.065, 1508.107
1059.547, 1505.442
1060.029, 1502.918
1060.511, 1503.089
1060.993, 1503.719
1061.475, 1503.291
1061.957, 1502.127
1062.439, 1501.753
1062.922, 1502.264
1063.404, 1503.279
1063.886, 1505.156
1064.368, 1506.104
1064.850, 1502.504
1065.332, 1497.245
1065.814, 1494.234
1066.296, 1494.528
1066.778, 1495.939
1067.261, 1499.308
1067.743, 1501.638
1068.225, 1500.894
1068.707, 1498.207
1069.189, 1496.661
1069.671, 1496.409
1070.153, 1498.148
1070.635, 1504.999
1071.118, 1510.086
1071.600, 1508.950
1072.082, 1505.693
1072.564, 1504.449
1073.046, 1505.466
1073.528, 1504.696
1074.010, 1501.895
1074.492, 1501.281
1074.974, 1509.812
1075.457, 1518.843
1075.939, 1519.736
1076.421, 1514.203
1076.903, 1510.380
1077.385, 1509.216
1077.867, 1508.828
1078.349, 1509.281
1078.831, 1509.401
1079.313, 1506.533
1079.796, 1502.638
1080.278, 1501.628
1080.760, 1504.180
1081.242, 1506.376
1081.724, 1505.969
1082.206, 1506.201
1082.688, 1508.838
1083.170, 1512.563
1083.652, 1512.743
1084.135, 1509.985
1084.617, 1507.369
1085.099, 1506.012
1085.581, 1504.749
1086.063, 1501.906
1086.545, 1499.621
1087.027, 1500.286
1087.509, 1504.481
1087.992, 1505.318
1088.474, 1502.572
1088.956, 1500.219
1089.438, 1501.070
1089.920, 1503.188
1090.402, 1504.682
1090.884, 1505.852
1091.366, 1507.346
1091.849, 1509.368
1092.331, 1511.606
1092.813, 1514.441
1093.295, 1516.266
1093.777, 1514.390
1094.259, 1510.719
1094.741, 1509.191
1095.223, 1509.804
1095.705, 1510.874
1096.188, 1512.211
1096.670, 1513.381
1097.152, 1514.556
1097.634, 1515.314
1098.116, 1514.533
1098.598, 1512.559
1099.080, 1510.969
1099.562, 1509.948
1100.044, 1510.310
1100.527, 1514.599
1101.009, 1518.666
1101.491, 1519.553
1101.973, 1517.726
1102.455, 1515.372
1102.937, 1512.403
1103.419, 1510.766
1103.901, 1511.327
1104.384, 1512.896
1104.866, 1514.613
1105.348, 1516.399
1105.830, 1518.328
1106.312, 1520.686
1106.794, 1521.558
1107.276, 1520.462
1107.758, 1519.581
1108.240, 1520.927
1108.723, 1522.632
1109.205, 1520.544
1109.687, 1516.309
1110.169, 1513.693
1110.651, 1515.433
1111.133, 1516.637
1111.615, 1516.676
1112.097, 1516.548
1112.579, 1517.270
1113.062, 1518.593
1113.544, 1519.758
1114.026, 1520.690
1114.508, 1520.992
1114.990, 1520.342
1115.472, 1519.115
1115.954, 1516.712
1116.436, 1514.388
1116.919, 1514.567
1117.401, 1517.013
1117.883, 1517.578
1118.365, 1515.712
1118.847, 1514.391
1119.329, 1516.896
1119.811, 1519.761
1120.293, 1519.668
1120.776, 1517.745
1121.258, 1519.678
1121.740, 1526.228
1122.222, 1528.875
1122.704, 1524.815
1123.186, 1519.654
1123.668, 1518.981
1124.150, 1520.555
1124.632, 1522.309
1125.115, 1524.072
1125.597, 1524.620
1126.079, 1523.670
1126.561, 1522.449
1127.043, 1521.221
1127.525, 1520.354
1128.007, 1520.507
1128.489, 1521.430
1128.971, 1522.966
1129.454, 1526.139
1129.936, 1526.574
1130.418, 1522.503
1130.900, 1518.491
1131.382, 1517.212
1131.864, 1518.002
1132.346, 1519.477
1132.828, 1521.334
1133.311, 1522.628
1133.793, 1522.671
1134.275, 1522.437
1134.757, 1521.424
1135.239, 1521.019
1135.721, 1522.927
1136.203, 1526.742
1136.685, 1529.605
1137.167, 1531.410
1137.650, 1531.694
1138.132, 1528.603
1138.614, 1525.744
1139.096, 1524.991
1139.578, 1525.350
1140.060, 1525.491
1140.542, 1525.406
1141.024, 1526.485
1141.506, 1528.890
1141.989, 1529.572
1142.471, 1523.060
1142.953, 1516.979
1143.435, 1517.985
1143.917, 1523.908
1144.399, 1526.852
1144.881, 1526.473
1145.363, 1525.465
1145.846, 1524.221
1146.328, 1522.944
1146.810, 1520.661
1147.292, 1519.338
1147.774, 1521.348
1148.256, 1526.838
1148.738, 1532.271
1149.220, 1538.230
1149.703, 1541.570
1150.185, 1541.295
1150.667, 1538.431
1151.149, 1531.821
1151.631, 1524.689
1152.113, 1522.084
1152.595, 1525.643
1153.077, 1527.024
1153.559, 1524.497
1154.042, 1522.891
1154.524, 1524.184
1155.006, 1527.411
1155.488, 1532.176
1155.970, 1537.211
1156.452, 1539.699
1156.934, 1538.006
1157.416, 1536.722
1157.898, 1536.695
1158.381, 1536.647
1158.863, 1535.799
1159.345, 1534.472
1159.827, 1533.643
1160.309, 1533.127
1160.791, 1532.380
1161.273, 1530.871
1161.755, 1529.726
1162.238, 1528.190
1162.720, 1528.425
1163.202, 1533.804
1163.684, 1542.559
1164.166, 1544.486
1164.648, 1540.917
1165.130, 1537.660
1165.612, 1538.351
1166.094, 1538.653
1166.577, 1536.072
1167.059, 1533.570
1167.541, 1534.709
1168.023, 1538.899
1168.505, 1541.121
1168.987, 1541.275
1169.469, 1540.058
1169.951, 1534.864
1170.433, 1531.815
1170.916, 1536.024
1171.398, 1542.460
1171.880, 1544.398
1172.362, 1542.124
1172.844, 1540.873
1173.326, 1541.053
1173.808, 1541.914
1174.290, 1543.659
1174.773, 1545.245
1175.255, 1546.683
1175.737, 1547.319
1176.219, 1545.131
1176.701, 1540.090
1177.183, 1537.077
1177.665, 1536.785
1178.147, 1536.858
1178.630, 1534.603
1179.112, 1532.800
1179.594, 1534.079
1180.076, 1537.405
1180.558, 1539.382
1181.040, 1539.953
1181.522, 1540.260
1182.004, 1540.410
1182.486, 1541.002
1182.969, 1543.333
1183.451, 1545.665
1183.933, 1546.531
1184.415, 1545.996
1184.897, 1544.805
1185.379, 1542.811
1185.861, 1541.639
1186.343, 1541.801
1186.825, 1542.542
1187.308, 1544.706
1187.790, 1545.987
1188.272, 1543.225
1188.754, 1536.546
1189.236, 1531.884
1189.718, 1529.216
1190.200, 1529.872
1190.682, 1535.504
1191.165, 1541.140
1191.647, 1541.044
1192.129, 1538.396
1192.611, 1536.184
1193.093, 1534.667
1193.575, 1534.999
1194.057, 1537.376
1194.539, 1540.185
1195.021, 1543.216
1195.504, 1545.500
1195.986, 1545.245
1196.468, 1543.932
1196.950, 1543.344
1197.432, 1543.625
1197.914, 1545.092
1198.396, 1548.059
1198.878, 1549.933
1199.360, 1548.892
1199.843, 1547.057
1200.325, 1546.666
1200.807, 1547.208
1201.289, 1548.282
1201.771, 1550.416
1202.253, 1550.051
1202.735, 1546.803
1203.217, 1543.669
1203.700, 1542.119
1204.182, 1541.860
1204.664, 1543.160
1205.146, 1545.287
1205.628, 1547.027
1206.110, 1547.951
1206.592, 1549.775
1207.074, 1552.792
1207.557, 1554.757
1208.039, 1552.785
1208.521, 1550.373
1209.003, 1551.512
1209.485, 1554.958
1209.967, 1558.651
1210.449, 1563.261
1210.931, 1565.355
1211.413, 1564.711
1211.896, 1563.015
1212.378, 1561.063
1212.860, 1559.014
1213.342, 1556.309
1213.824, 1553.849
1214.306, 1553.674
1214.788, 1556.205
1215.270, 1560.423
1215.752, 1566.834
1216.235, 1570.609
1216.717, 1565.635
1217.199, 1558.512
1217.681, 1555.705
1218.163, 1555.866
1218.645, 1555.788
1219.127, 1555.005
1219.609, 1555.123
1220.092, 1556.312
1220.574, 1557.461
1221.056, 1557.569
1221.538, 1557.344
1222.020, 1557.484
1222.502, 1557.775
1222.984, 1557.625
1223.466, 1556.836
1223.948, 1556.583
1224.431, 1556.976
1224.913, 1557.301
1225.395, 1557.096
1225.877, 1556.470
1226.359, 1554.650
1226.841, 1552.724
1227.323, 1553.557
1227.805, 1557.926
1228.287, 1559.220
1228.770, 1556.823
1229.252, 1554.417
1229.734, 1554.832
1230.216, 1556.440
1230.698, 1558.515
1231.180, 1560.764
1231.662, 1562.869
1232.144, 1564.942
1232.627, 1564.958
1233.109, 1562.689
1233.591, 1560.293
1234.073, 1558.471
1234.555, 1557.983
1235.037, 1561.098
1235.519, 1565.176
1236.001, 1564.660
1236.484, 1559.568
1236.966, 1556.980
1237.448, 1557.544
1237.930, 1558.809
1238.412, 1558.894
1238.894, 1559.450
1239.376, 1562.656
1239.858, 1566.225
1240.340, 1565.494
1240.823, 1561.032
1241.305, 1559.836
1241.787, 1562.451
1242.269, 1564.725
1242.751, 1562.993
1243.233, 1561.665
1243.715, 1563.499
1244.197, 1566.096
1244.679, 1565.209
1245.162, 1561.622
1245.644, 1559.063
1246.126, 1557.933
1246.608, 1558.981
1247.090, 1565.182
1247.572, 1570.359
1248.054, 1572.572
1248.536, 1572.873
1249.019, 1572.171
1249.501, 1570.885
1249.983, 1570.297
1250.465, 1570.506
1250.947, 1571.331
1251.429, 1573.352
1251.911, 1575.135
1252.393, 1576.689
1252.875, 1577.335
1253.358, 1575.017
1253.840, 1571.468
1254.322, 1570.778
1254.804, 1573.017
1255.286, 1575.667
1255.768, 1579.347
1256.250, 1581.002
1256.732, 1579.833
1257.214, 1577.385
1257.697, 1574.599
1258.179, 1572.323
1258.661, 1572.754
1259.143, 1575.398
1259.625, 1576.001
1260.107, 1572.892
1260.589, 1571.107
1261.071, 1571.627
1261.554, 1572.475
1262.036, 1571.534
1262.518, 1569.724
1263.000, 1567.070
1263.482, 1564.384
1263.964, 1565.427
1264.446, 1571.749
1264.928, 1574.729
1265.411, 1572.898
1265.893, 1570.596
1266.375, 1571.886
1266.857, 1574.244
1267.339, 1575.145
1267.821, 1575.401
1268.303, 1578.326
1268.785, 1584.439
1269.267, 1585.669
1269.750, 1580.989
1270.232, 1576.783
1270.714, 1578.898
1271.196, 1581.915
1271.678, 1582.588
1272.160, 1581.747
1272.642, 1580.203
1273.124, 1578.107
1273.606, 1577.741
1274.089, 1579.197
1274.571, 1580.697
1275.053, 1581.564
1275.535, 1581.781
1276.017, 1581.202
1276.499, 1580.227
1276.981, 1579.384
1277.463, 1578.591
1277.946, 1576.865
1278.428, 1574.535
1278.910, 1574.164
1279.392, 1581.019
1279.874, 1583.528
1280.356, 1578.045
1280.838, 1571.054
1281.320, 1570.026
1281.802, 1572.476
1282.285, 1573.715
1282.767, 1573.629
1283.249, 1572.709
1283.731, 1569.328
1284.213, 1568.892
1284.695, 1572.416
1285.177, 1576.669
1285.659, 1579.405
1286.141, 1580.648
1286.624, 1579.102
1287.106, 1576.193
1287.588, 1576.297
1288.070, 1581.191
1288.552, 1582.199
1289.034, 1578.551
1289.516, 1575.115
1289.998, 1576.364
1290.481, 1578.573
1290.963, 1578.655
1291.445, 1577.697
1291.927, 1577.627
1292.409, 1578.468
1292.891, 1579.238
1293.373, 1580.019
1293.855, 1582.205
1294.338, 1589.712
1294.820, 1595.088
1295.302, 1592.387
1295.784, 1587.939
1296.266, 1587.142
1296.748, 1589.527
1297.230, 1592.583
1297.712, 1595.931
1298.194, 1597.743
1298.677, 1595.761
1299.159, 1593.224
1299.641, 1589.870
1300.123, 1587.542
1300.605, 1588.247
1301.087, 1590.570
1301.569, 1590.580
1302.051, 1589.176
1302.533, 1588.527
1303.016, 1587.930
##END=



