##NAMES=Fairfieldite
##RRUFFID=R070630
##IDEAL CHEMISTRY=Ca_2_Mn^2+^(PO_4_)_2_&#183;2H_2_O
##LOCALITY=Tip Top mine, Custer County, South Dakota, USA
##OWNER=RRUFF
##SOURCE=Dakota Matrix Minerals
##DESCRIPTION=Transparent white to colorless lamellar and massive crystals associated with whitlockite
##STATUS=The identification of this mineral is confirmed by single-crystal X-ray diffraction and chemical analysis.
##URL=rruff.info/R070630
##MEASURED CHEMISTRY=Ca_1.99_(Mn_0.83_Mg_0.16_Fe_0.01_)(P_1.00_O_4_)_2_Â·2H_2_O
115.6752, 289.5681
116.1573, 279.5350
116.6394, 273.9746
117.1216, 283.0468
117.6037, 305.6503
118.0858, 333.6970
118.5679, 365.8258
119.0500, 400.1242
119.5321, 434.2288
120.0143, 471.7138
120.4964, 506.0423
120.9785, 528.3304
121.4606, 536.4549
121.9427, 546.3004
122.4248, 578.0894
122.9070, 623.3219
123.3891, 659.8401
123.8712, 665.3539
124.3533, 656.4296
124.8354, 657.4246
125.3175, 668.6119
125.7996, 696.6517
126.2818, 762.2390
126.7639, 863.1938
127.2460, 959.9976
127.7281, 1021.889
128.2102, 1055.553
128.6924, 1086.453
129.1745, 1123.372
129.6566, 1161.408
130.1387, 1180.016
130.6208, 1174.829
131.1029, 1174.404
131.5850, 1224.166
132.0672, 1324.197
132.5493, 1405.519
133.0314, 1427.648
133.5135, 1392.810
133.9956, 1393.314
134.4777, 1439.987
134.9599, 1507.695
135.4420, 1540.276
135.9241, 1528.173
136.4062, 1521.208
136.8883, 1550.431
137.3704, 1622.565
137.8526, 1695.385
138.3347, 1771.116
138.8168, 1844.860
139.2989, 1889.288
139.7810, 1891.792
140.2631, 1885.277
140.7453, 1899.677
141.2274, 1950.502
141.7095, 1986.974
142.1916, 1991.498
142.6737, 1957.730
143.1558, 1954.784
143.6380, 1996.019
144.1201, 2059.360
144.6022, 2118.745
145.0843, 2186.535
145.5664, 2213.948
146.0485, 2206.537
146.5307, 2144.217
147.0128, 2094.699
147.4949, 2066.806
147.9770, 2051.682
148.4591, 2028.227
148.9412, 1989.917
149.4234, 1948.855
149.9055, 1910.015
150.3876, 1865.404
150.8697, 1831.958
151.3518, 1810.408
151.8339, 1800.457
152.3161, 1802.923
152.7982, 1830.902
153.2803, 1863.819
153.7624, 1887.329
154.2445, 1895.062
154.7266, 1897.793
155.2087, 1894.561
155.6909, 1884.240
156.1730, 1881.531
156.6551, 1893.067
157.1372, 1912.771
157.6193, 1933.816
158.1014, 1953.343
158.5836, 1974.275
159.0657, 1996.924
159.5478, 2019.327
160.0299, 2048.492
160.5120, 2096.974
160.9941, 2154.201
161.4763, 2198.187
161.9584, 2209.757
162.4405, 2210.999
162.9226, 2217.134
163.4047, 2233.149
163.8868, 2252.020
164.3690, 2267.760
164.8511, 2282.273
165.3332, 2303.910
165.8153, 2339.749
166.2974, 2384.085
166.7795, 2430.841
167.2617, 2471.718
167.7438, 2518.845
168.2259, 2586.958
168.7080, 2674.888
169.1901, 2761.436
169.6722, 2828.090
170.1544, 2883.724
170.6365, 2943.108
171.1186, 3017.419
171.6007, 3095.971
172.0828, 3169.326
172.5649, 3236.539
173.0471, 3301.932
173.5292, 3365.491
174.0113, 3429.281
174.4934, 3498.611
174.9755, 3583.826
175.4576, 3674.458
175.9397, 3755.087
176.4219, 3828.028
176.9040, 3882.406
177.3861, 3901.992
177.8682, 3889.704
178.3503, 3863.327
178.8324, 3825.986
179.3146, 3783.394
179.7967, 3745.468
180.2788, 3705.734
180.7609, 3681.534
181.2430, 3708.377
181.7251, 3785.472
182.2073, 3884.042
182.6894, 3977.375
183.1715, 4070.112
183.6536, 4178.188
184.1357, 4313.621
184.6178, 4466.445
185.1000, 4626.333
185.5821, 4799.175
186.0642, 4947.340
186.5463, 5030.792
187.0284, 5051.561
187.5105, 5035.133
187.9927, 4980.085
188.4748, 4893.134
188.9569, 4798.223
189.4390, 4690.419
189.9211, 4589.984
190.4032, 4528.815
190.8854, 4507.750
191.3675, 4500.343
191.8496, 4488.555
192.3317, 4474.275
192.8138, 4487.891
193.2959, 4535.919
193.7781, 4605.584
194.2602, 4668.913
194.7423, 4723.010
195.2244, 4789.691
195.7065, 4886.877
196.1886, 5015.320
196.6708, 5146.851
197.1529, 5278.426
197.6350, 5410.669
198.1171, 5544.447
198.5992, 5678.997
199.0813, 5818.522
199.5634, 5970.280
200.0456, 6137.521
200.5277, 6298.868
201.0098, 6462.877
201.4919, 6622.950
201.9740, 6715.715
202.4561, 6737.567
202.9383, 6700.521
203.4204, 6612.834
203.9025, 6469.970
204.3846, 6291.548
204.8667, 6074.756
205.3488, 5818.488
205.8310, 5566.822
206.3131, 5311.165
206.7952, 5072.362
207.2773, 4882.034
207.7594, 4747.930
208.2415, 4637.614
208.7237, 4541.871
209.2058, 4460.985
209.6879, 4394.910
210.1700, 4344.339
210.6521, 4308.031
211.1342, 4285.730
211.6164, 4282.376
212.0985, 4281.837
212.5806, 4276.073
213.0627, 4261.478
213.5448, 4254.943
214.0269, 4259.236
214.5091, 4270.704
214.9912, 4283.136
215.4733, 4307.385
215.9554, 4312.257
216.4375, 4275.497
216.9196, 4182.384
217.4018, 4092.778
217.8839, 4013.467
218.3660, 3941.475
218.8481, 3854.469
219.3302, 3736.382
219.8123, 3628.318
220.2945, 3562.869
220.7766, 3556.429
221.2587, 3553.335
221.7408, 3549.153
222.2229, 3543.507
222.7050, 3529.716
223.1871, 3497.120
223.6693, 3468.997
224.1514, 3466.006
224.6335, 3497.729
225.1156, 3535.574
225.5977, 3577.900
226.0798, 3624.633
226.5620, 3663.448
227.0441, 3687.367
227.5262, 3709.662
228.0083, 3745.176
228.4904, 3798.922
228.9725, 3856.253
229.4547, 3912.629
229.9368, 3966.546
230.4189, 4030.599
230.9010, 4105.243
231.3831, 4190.430
231.8652, 4288.653
232.3474, 4414.736
232.8295, 4531.422
233.3116, 4625.693
233.7937, 4692.772
234.2758, 4760.255
234.7579, 4840.361
235.2401, 4913.766
235.7222, 4946.661
236.2043, 4932.659
236.6864, 4888.056
237.1685, 4820.158
237.6507, 4736.072
238.1328, 4606.183
238.6149, 4411.848
239.0970, 4178.227
239.5791, 3961.513
240.0612, 3765.834
240.5434, 3580.365
241.0255, 3401.327
241.5076, 3221.063
241.9897, 3062.186
242.4718, 2927.298
242.9539, 2813.441
243.4360, 2712.967
243.9182, 2630.212
244.4003, 2554.698
244.8824, 2480.004
245.3645, 2401.302
245.8466, 2335.912
246.3287, 2285.936
246.8109, 2249.874
247.2930, 2223.040
247.7751, 2213.093
248.2572, 2202.148
248.7393, 2177.479
249.2214, 2127.906
249.7036, 2090.367
250.1857, 2068.153
250.6678, 2060.531
251.1499, 2064.342
251.6320, 2088.385
252.1141, 2111.984
252.5963, 2120.547
253.0784, 2110.351
253.5605, 2093.676
254.0426, 2070.831
254.5247, 2042.365
255.0068, 2009.003
255.4890, 1961.948
255.9711, 1921.992
256.4532, 1909.942
256.9353, 1945.171
257.4174, 1960.154
257.8995, 1937.526
258.3817, 1881.240
258.8638, 1843.176
259.3459, 1827.394
259.8280, 1824.173
260.3101, 1825.783
260.7922, 1833.428
261.2744, 1842.569
261.7565, 1851.992
262.2386, 1861.869
262.7207, 1873.570
263.2028, 1885.944
263.6849, 1901.917
264.1671, 1925.822
264.6492, 1960.019
265.1313, 1993.839
265.6134, 2022.620
266.0955, 2046.714
266.5776, 2078.628
267.0598, 2117.666
267.5419, 2165.155
268.0240, 2227.781
268.5061, 2312.124
268.9882, 2385.290
269.4703, 2436.481
269.9525, 2466.138
270.4346, 2497.163
270.9167, 2531.958
271.3988, 2564.387
271.8809, 2582.788
272.3630, 2582.133
272.8452, 2593.684
273.3273, 2632.569
273.8094, 2697.127
274.2915, 2744.565
274.7736, 2769.323
275.2557, 2789.048
275.7379, 2827.990
276.2200, 2888.764
276.7021, 2949.201
277.1842, 3000.859
277.6663, 3044.144
278.1484, 3093.758
278.6305, 3151.472
279.1126, 3210.552
279.5948, 3260.853
280.0769, 3301.938
280.5590, 3340.147
281.0411, 3375.842
281.5232, 3409.781
282.0053, 3450.770
282.4875, 3501.539
282.9696, 3551.605
283.4517, 3591.800
283.9338, 3622.128
284.4159, 3631.188
284.8980, 3606.235
285.3802, 3552.710
285.8623, 3508.899
286.3444, 3478.391
286.8265, 3442.995
287.3086, 3376.721
287.7907, 3281.243
288.2729, 3176.970
288.7550, 3072.328
289.2371, 2966.385
289.7192, 2853.236
290.2013, 2731.302
290.6834, 2613.650
291.1656, 2518.488
291.6477, 2443.745
292.1298, 2380.356
292.6119, 2331.707
293.0940, 2291.341
293.5761, 2236.600
294.0583, 2164.162
294.5404, 2095.078
295.0225, 2054.982
295.5046, 2038.825
295.9867, 2027.463
296.4688, 2016.694
296.9510, 2003.607
297.4331, 1981.076
297.9152, 1947.521
298.3973, 1913.155
298.8794, 1885.800
299.3615, 1865.401
299.8437, 1851.016
300.3258, 1845.281
300.8079, 1844.243
301.2900, 1843.849
301.7721, 1844.357
302.2542, 1841.719
302.7364, 1828.062
303.2185, 1808.638
303.7006, 1794.017
304.1827, 1790.262
304.6648, 1793.140
305.1469, 1800.555
305.6291, 1812.925
306.1112, 1823.198
306.5933, 1822.367
307.0754, 1816.320
307.5575, 1814.960
308.0396, 1828.022
308.5218, 1843.846
309.0039, 1856.143
309.4860, 1865.024
309.9681, 1863.505
310.4502, 1840.036
310.9323, 1805.231
311.4145, 1773.921
311.8966, 1754.734
312.3787, 1738.093
312.8608, 1716.959
313.3429, 1690.357
313.8250, 1668.349
314.3072, 1658.849
314.7893, 1654.872
315.2714, 1648.203
315.7535, 1636.963
316.2356, 1621.756
316.7177, 1598.273
317.1999, 1565.248
317.6820, 1543.415
318.1641, 1550.875
318.6462, 1567.495
319.1283, 1573.391
319.6104, 1557.370
320.0926, 1536.386
320.5747, 1511.657
321.0568, 1482.839
321.5389, 1462.694
322.0210, 1456.622
322.5031, 1458.856
322.9852, 1464.555
323.4673, 1484.986
323.9495, 1496.451
324.4316, 1488.547
324.9137, 1460.406
325.3958, 1445.860
325.8779, 1458.912
326.3600, 1478.752
326.8422, 1490.875
327.3243, 1494.852
327.8064, 1491.311
328.2885, 1475.628
328.7706, 1448.643
329.2527, 1431.714
329.7349, 1426.428
330.2170, 1429.846
330.6991, 1441.561
331.1812, 1471.330
331.6633, 1490.981
332.1454, 1494.833
332.6276, 1485.239
333.1097, 1478.521
333.5918, 1476.742
334.0739, 1474.766
334.5560, 1466.702
335.0381, 1446.825
335.5203, 1441.470
336.0024, 1458.933
336.4845, 1491.461
336.9666, 1508.040
337.4487, 1503.596
337.9308, 1497.557
338.4130, 1504.798
338.8951, 1527.409
339.3772, 1540.685
339.8593, 1538.546
340.3414, 1529.616
340.8235, 1536.901
341.3057, 1562.144
341.7878, 1588.183
342.2699, 1600.902
342.7520, 1602.368
343.2341, 1614.198
343.7162, 1641.630
344.1984, 1673.637
344.6805, 1688.581
345.1626, 1687.679
345.6447, 1688.937
346.1268, 1705.030
346.6089, 1731.461
347.0911, 1754.800
347.5732, 1773.925
348.0553, 1790.142
348.5374, 1803.376
349.0195, 1814.372
349.5016, 1826.255
349.9838, 1843.652
350.4659, 1861.794
350.9480, 1871.400
351.4301, 1870.850
351.9122, 1870.737
352.3943, 1881.202
352.8765, 1899.292
353.3586, 1918.921
353.8407, 1935.854
354.3228, 1953.798
354.8049, 1976.359
355.2870, 2003.854
355.7692, 2032.420
356.2513, 2064.405
356.7334, 2094.715
357.2155, 2116.660
357.6976, 2115.854
358.1797, 2115.811
358.6619, 2134.698
359.1440, 2172.142
359.6261, 2198.457
360.1082, 2189.744
360.5903, 2169.732
361.0724, 2159.897
361.5546, 2177.750
362.0367, 2194.439
362.5188, 2202.219
363.0009, 2201.509
363.4830, 2197.932
363.9651, 2188.756
364.4473, 2179.464
364.9294, 2173.455
365.4115, 2186.645
365.8936, 2185.250
366.3757, 2154.091
366.8578, 2101.657
367.3399, 2070.145
367.8221, 2080.228
368.3042, 2092.738
368.7863, 2089.485
369.2684, 2059.799
369.7505, 2032.236
370.2326, 2005.779
370.7148, 1982.219
371.1969, 1967.017
371.6790, 1962.271
372.1611, 1962.412
372.6432, 1967.947
373.1253, 1983.530
373.6075, 1983.190
374.0896, 1960.616
374.5717, 1929.252
375.0538, 1911.362
375.5359, 1908.597
376.0180, 1911.351
376.5002, 1919.006
376.9823, 1930.920
377.4644, 1932.558
377.9465, 1921.389
378.4286, 1907.711
378.9107, 1905.647
379.3929, 1914.331
379.8750, 1921.068
380.3571, 1918.584
380.8392, 1911.810
381.3213, 1914.166
381.8034, 1925.830
382.2856, 1944.061
382.7677, 1972.093
383.2498, 2005.045
383.7319, 2030.540
384.2140, 2044.130
384.6961, 2048.972
385.1783, 2044.351
385.6604, 2031.864
386.1425, 2024.061
386.6246, 2024.998
387.1067, 2036.923
387.5888, 2065.107
388.0710, 2122.519
388.5531, 2177.380
389.0352, 2203.517
389.5173, 2208.175
389.9994, 2212.882
390.4815, 2224.755
390.9637, 2242.367
391.4458, 2264.079
391.9279, 2287.752
392.4100, 2320.235
392.8921, 2372.059
393.3742, 2433.450
393.8564, 2486.163
394.3385, 2512.099
394.8206, 2540.959
395.3027, 2585.319
395.7848, 2650.524
396.2669, 2713.264
396.7491, 2768.752
397.2312, 2821.695
397.7133, 2877.722
398.1954, 2934.235
398.6775, 2996.307
399.1596, 3065.388
399.6418, 3141.640
400.1239, 3220.714
400.6060, 3300.498
401.0881, 3385.675
401.5702, 3480.906
402.0523, 3587.063
402.5345, 3698.275
403.0166, 3813.503
403.4987, 3933.177
403.9808, 4059.636
404.4629, 4191.823
404.9450, 4329.957
405.4272, 4472.153
405.9093, 4618.820
406.3914, 4779.899
406.8735, 4959.765
407.3556, 5146.928
407.8377, 5316.805
408.3199, 5470.645
408.8020, 5624.654
409.2841, 5791.702
409.7662, 5967.661
410.2483, 6137.008
410.7304, 6297.356
411.2126, 6456.601
411.6946, 6618.745
412.1768, 6784.905
412.6589, 6962.849
413.1410, 7161.553
413.6231, 7369.367
414.1052, 7576.814
414.5873, 7782.615
415.0695, 7975.381
415.5516, 8134.731
416.0337, 8279.866
416.5158, 8429.912
416.9979, 8600.438
417.4800, 8770.390
417.9622, 8931.477
418.4443, 9083.617
418.9264, 9230.693
419.4085, 9384.756
419.8906, 9525.616
420.3727, 9638.220
420.8549, 9707.396
421.3370, 9770.622
421.8191, 9847.380
422.3012, 9921.854
422.7833, 9953.417
423.2654, 9940.675
423.7476, 9884.916
424.2297, 9778.937
424.7118, 9606.555
425.1939, 9445.123
425.6760, 9305.858
426.1581, 9170.719
426.6403, 9013.224
427.1224, 8830.701
427.6045, 8635.317
428.0866, 8427.863
428.5687, 8208.097
429.0508, 7989.321
429.5330, 7767.111
430.0151, 7558.604
430.4972, 7377.673
430.9793, 7224.428
431.4614, 7082.188
431.9435, 6946.976
432.4257, 6823.813
432.9078, 6731.146
433.3899, 6666.849
433.8720, 6600.152
434.3541, 6499.242
434.8362, 6383.644
435.3184, 6298.211
435.8005, 6252.929
436.2826, 6217.798
436.7647, 6165.030
437.2468, 6099.458
437.7289, 6033.336
438.2111, 5973.262
438.6932, 5913.853
439.1753, 5852.896
439.6574, 5790.482
440.1395, 5720.506
440.6216, 5642.478
441.1038, 5553.876
441.5859, 5453.198
442.0680, 5337.510
442.5501, 5211.183
443.0322, 5068.963
443.5143, 4913.630
443.9965, 4763.009
444.4786, 4619.793
444.9607, 4482.080
445.4428, 4347.156
445.9249, 4217.887
446.4070, 4088.429
446.8892, 3958.403
447.3713, 3829.261
447.8534, 3704.506
448.3355, 3581.944
448.8176, 3467.829
449.2997, 3364.228
449.7819, 3272.268
450.2640, 3182.285
450.7461, 3093.467
451.2282, 3006.907
451.7103, 2924.779
452.1924, 2846.399
452.6746, 2771.596
453.1567, 2696.458
453.6388, 2626.291
454.1209, 2580.738
454.6030, 2559.035
455.0851, 2535.349
455.5673, 2481.471
456.0494, 2411.689
456.5315, 2358.313
457.0136, 2330.810
457.4957, 2311.063
457.9778, 2280.431
458.4599, 2242.791
458.9420, 2207.102
459.4242, 2178.991
459.9063, 2154.277
460.3884, 2131.082
460.8705, 2109.636
461.3526, 2086.452
461.8347, 2056.509
462.3169, 2025.965
462.7990, 2000.955
463.2811, 1990.797
463.7632, 1978.565
464.2453, 1959.607
464.7274, 1934.419
465.2096, 1908.040
465.6917, 1871.518
466.1738, 1841.977
466.6559, 1829.490
467.1380, 1851.207
467.6201, 1855.917
468.1023, 1834.847
468.5844, 1801.813
469.0665, 1786.578
469.5486, 1796.362
470.0307, 1801.569
470.5128, 1790.207
470.9950, 1763.249
471.4771, 1736.980
471.9592, 1710.565
472.4413, 1688.344
472.9234, 1676.476
473.4055, 1673.701
473.8877, 1671.602
474.3698, 1667.311
474.8519, 1663.580
475.3340, 1667.135
475.8161, 1676.712
476.2982, 1683.830
476.7804, 1682.586
477.2625, 1676.031
477.7446, 1665.809
478.2267, 1649.917
478.7088, 1639.557
479.1909, 1653.116
479.6731, 1675.123
480.1552, 1680.922
480.6373, 1643.904
481.1194, 1604.426
481.6015, 1578.623
482.0836, 1567.103
482.5658, 1562.290
483.0479, 1564.787
483.5300, 1572.235
484.0121, 1583.430
484.4942, 1611.048
484.9763, 1624.079
485.4585, 1615.417
485.9406, 1592.346
486.4227, 1574.712
486.9048, 1564.005
487.3869, 1555.989
487.8690, 1549.129
488.3512, 1543.470
488.8333, 1539.408
489.3154, 1537.261
489.7975, 1535.935
490.2796, 1534.089
490.7617, 1531.764
491.2439, 1530.108
491.7260, 1530.986
492.2081, 1531.425
492.6902, 1522.559
493.1723, 1505.744
493.6544, 1492.288
494.1366, 1491.526
494.6187, 1498.620
495.1008, 1508.206
495.5829, 1521.036
496.0650, 1531.101
496.5471, 1532.147
497.0293, 1527.933
497.5114, 1525.065
497.9935, 1532.874
498.4756, 1536.317
498.9577, 1522.957
499.4398, 1491.728
499.9220, 1474.920
500.4041, 1492.486
500.8862, 1517.634
501.3683, 1531.330
501.8504, 1527.106
502.3325, 1520.979
502.8146, 1512.694
503.2968, 1503.099
503.7789, 1494.061
504.2610, 1484.770
504.7431, 1477.866
505.2252, 1475.984
505.7073, 1479.120
506.1895, 1474.526
506.6716, 1459.089
507.1537, 1447.268
507.6358, 1462.570
508.1179, 1499.450
508.6000, 1521.262
509.0822, 1512.307
509.5643, 1491.127
510.0464, 1486.343
510.5285, 1495.119
511.0106, 1503.813
511.4927, 1503.355
511.9749, 1498.637
512.4570, 1493.545
512.9391, 1487.746
513.4212, 1486.165
513.9033, 1496.698
514.3854, 1511.468
514.8676, 1520.159
515.3497, 1513.352
515.8318, 1507.032
516.3139, 1506.596
516.7960, 1511.643
517.2781, 1514.216
517.7603, 1511.238
518.2424, 1508.380
518.7245, 1509.147
519.2066, 1518.030
519.6887, 1518.667
520.1708, 1506.646
520.6530, 1490.703
521.1351, 1485.036
521.6172, 1490.166
522.0993, 1502.102
522.5814, 1524.021
523.0635, 1551.178
523.5457, 1561.762
524.0278, 1555.464
524.5099, 1547.816
524.9920, 1552.290
525.4741, 1564.760
525.9562, 1577.058
526.4384, 1588.063
526.9205, 1597.308
527.4026, 1600.569
527.8847, 1601.746
528.3668, 1609.310
528.8489, 1637.235
529.3311, 1664.031
529.8132, 1673.173
530.2953, 1663.722
530.7774, 1663.491
531.2595, 1688.835
531.7416, 1720.746
532.2238, 1745.394
532.7059, 1748.637
533.1880, 1762.822
533.6701, 1792.245
534.1522, 1831.751
534.6343, 1869.772
535.1165, 1907.290
535.5986, 1941.705
536.0807, 1970.065
536.5628, 1993.332
537.0449, 2024.907
537.5270, 2066.574
538.0092, 2109.981
538.4913, 2148.840
538.9734, 2182.966
539.4555, 2212.064
539.9376, 2235.295
540.4197, 2254.484
540.9019, 2268.556
541.3840, 2280.211
541.8661, 2297.981
542.3482, 2330.315
542.8303, 2367.574
543.3124, 2402.463
543.7946, 2434.302
544.2767, 2467.735
544.7588, 2508.332
545.2409, 2549.575
545.7230, 2585.942
546.2051, 2611.245
546.6873, 2638.353
547.1694, 2669.609
547.6515, 2703.349
548.1336, 2736.336
548.6157, 2770.980
549.0978, 2800.361
549.5800, 2824.524
550.0621, 2843.742
550.5442, 2843.342
551.0263, 2821.482
551.5084, 2786.481
551.9905, 2741.931
552.4727, 2689.675
552.9548, 2641.960
553.4369, 2603.719
553.9190, 2565.743
554.4011, 2511.210
554.8832, 2444.824
555.3654, 2381.380
555.8475, 2330.618
556.3296, 2285.130
556.8117, 2234.287
557.2938, 2177.323
557.7759, 2132.141
558.2581, 2120.785
558.7402, 2116.628
559.2223, 2097.578
559.7044, 2038.195
560.1865, 1991.055
560.6686, 1970.250
561.1508, 1964.202
561.6329, 1948.415
562.1150, 1908.547
562.5971, 1883.625
563.0792, 1894.462
563.5613, 1939.672
564.0435, 1943.953
564.5256, 1898.470
565.0077, 1844.473
565.4898, 1812.784
565.9719, 1802.664
566.4540, 1809.100
566.9362, 1835.066
567.4183, 1867.380
567.9004, 1888.683
568.3824, 1901.530
568.8646, 1912.188
569.3467, 1920.325
569.8288, 1930.010
570.3109, 1944.740
570.7930, 1964.299
571.2751, 1987.027
571.7573, 2015.859
572.2394, 2044.727
572.7215, 2068.432
573.2036, 2078.935
573.6857, 2097.849
574.1678, 2132.595
574.6500, 2174.392
575.1321, 2211.270
575.6142, 2243.813
576.0963, 2269.830
576.5784, 2286.641
577.0605, 2296.419
577.5427, 2308.184
578.0248, 2320.422
578.5069, 2344.449
578.9890, 2397.919
579.4711, 2471.494
579.9532, 2521.873
580.4354, 2542.120
580.9175, 2561.553
581.3996, 2610.396
581.8817, 2680.092
582.3638, 2754.818
582.8459, 2838.258
583.3281, 2916.731
583.8102, 2979.592
584.2923, 3029.828
584.7744, 3076.561
585.2565, 3133.526
585.7386, 3178.580
586.2208, 3198.040
586.7029, 3182.213
587.1850, 3175.815
587.6671, 3185.663
588.1492, 3198.432
588.6313, 3199.826
589.1135, 3183.294
589.5956, 3180.982
590.0777, 3199.243
590.5598, 3230.982
591.0419, 3262.721
591.5240, 3294.134
592.0062, 3324.579
592.4883, 3353.756
592.9704, 3381.766
593.4525, 3407.148
593.9346, 3430.198
594.4167, 3455.283
594.8989, 3478.003
595.3810, 3508.151
595.8631, 3559.405
596.3452, 3647.407
596.8273, 3727.198
597.3094, 3764.009
597.7916, 3786.038
598.2737, 3837.933
598.7558, 3952.532
599.2379, 4069.307
599.7200, 4185.548
600.2021, 4298.347
600.6843, 4382.102
601.1664, 4436.775
601.6485, 4461.111
602.1306, 4454.726
602.6127, 4417.841
603.0948, 4347.439
603.5770, 4244.901
604.0591, 4108.528
604.5412, 3927.439
605.0233, 3710.727
605.5054, 3487.942
605.9875, 3254.791
606.4697, 3033.462
606.9518, 2847.912
607.4339, 2691.190
607.9160, 2541.966
608.3981, 2384.647
608.8802, 2239.460
609.3624, 2118.092
609.8445, 2020.659
610.3266, 1940.555
610.8087, 1887.457
611.2908, 1843.572
611.7729, 1798.796
612.2551, 1749.465
612.7372, 1710.543
613.2193, 1686.980
613.7014, 1668.853
614.1835, 1636.224
614.6656, 1588.533
615.1478, 1552.367
615.6299, 1539.129
616.1120, 1539.135
616.5941, 1534.092
617.0762, 1524.464
617.5583, 1513.329
618.0405, 1499.483
618.5226, 1486.766
619.0047, 1479.609
619.4868, 1479.050
619.9689, 1478.593
620.4510, 1477.409
620.9332, 1473.974
621.4153, 1466.907
621.8974, 1452.228
622.3795, 1438.430
622.8616, 1424.461
623.3438, 1412.286
623.8259, 1407.229
624.3080, 1412.096
624.7901, 1415.933
625.2722, 1414.660
625.7543, 1409.490
626.2365, 1406.163
626.7186, 1404.677
627.2007, 1405.786
627.6828, 1412.652
628.1649, 1421.983
628.6470, 1426.748
629.1292, 1425.570
629.6113, 1423.207
630.0934, 1429.583
630.5755, 1434.726
631.0576, 1426.193
631.5397, 1373.372
632.0219, 1335.912
632.5040, 1339.084
632.9861, 1371.077
633.4682, 1395.861
633.9503, 1413.068
634.4324, 1421.936
634.9146, 1421.428
635.3967, 1411.740
635.8788, 1398.020
636.3609, 1378.832
636.8430, 1361.595
637.3251, 1348.844
637.8073, 1342.184
638.2894, 1355.016
638.7715, 1393.557
639.2536, 1427.827
639.7357, 1415.821
640.2178, 1379.140
640.7000, 1356.708
641.1821, 1376.489
641.6642, 1398.614
642.1463, 1398.361
642.6284, 1383.540
643.1105, 1377.212
643.5927, 1395.111
644.0748, 1411.927
644.5569, 1418.757
645.0390, 1415.117
645.5211, 1415.271
646.0032, 1423.707
646.4854, 1427.050
646.9675, 1409.646
647.4496, 1371.621
647.9317, 1353.174
648.4138, 1359.416
648.8959, 1376.328
649.3781, 1390.120
649.8602, 1400.694
650.3423, 1407.937
650.8244, 1408.242
651.3065, 1409.536
651.7886, 1422.412
652.2708, 1441.558
652.7529, 1452.566
653.2350, 1445.218
653.7171, 1433.431
654.1992, 1420.586
654.6813, 1406.550
655.1635, 1399.442
655.6456, 1405.072
656.1277, 1409.835
656.6098, 1402.897
657.0919, 1381.343
657.5740, 1370.021
658.0562, 1370.235
658.5382, 1379.195
659.0203, 1399.727
659.5024, 1427.389
659.9846, 1445.661
660.4667, 1449.681
660.9488, 1443.211
661.4309, 1420.497
661.9130, 1389.983
662.3951, 1372.128
662.8773, 1386.352
663.3594, 1405.397
663.8415, 1420.875
664.3236, 1432.190
664.8057, 1431.987
665.2878, 1407.403
665.7700, 1386.341
666.2521, 1384.471
666.7342, 1406.848
667.2163, 1418.058
667.6984, 1415.310
668.1805, 1409.041
668.6627, 1411.286
669.1448, 1420.389
669.6269, 1427.869
670.1090, 1433.029
670.5911, 1433.720
671.0732, 1422.725
671.5554, 1405.799
672.0375, 1394.937
672.5196, 1401.602
673.0017, 1409.527
673.4838, 1412.233
673.9659, 1409.909
674.4481, 1404.731
674.9302, 1390.368
675.4123, 1380.355
675.8944, 1381.261
676.3765, 1394.649
676.8586, 1398.651
677.3408, 1389.181
677.8229, 1382.264
678.3050, 1398.499
678.7871, 1431.888
679.2692, 1444.293
679.7513, 1427.033
680.2335, 1406.999
680.7156, 1420.934
681.1977, 1450.819
681.6798, 1465.056
682.1619, 1439.318
682.6440, 1411.780
683.1262, 1396.472
683.6083, 1392.228
684.0904, 1395.516
684.5725, 1413.540
685.0546, 1430.660
685.5367, 1445.518
686.0189, 1457.475
686.5010, 1457.387
686.9831, 1442.048
687.4652, 1425.993
687.9473, 1417.560
688.4294, 1416.004
688.9116, 1419.765
689.3937, 1429.261
689.8758, 1436.707
690.3579, 1434.005
690.8400, 1425.336
691.3221, 1415.250
691.8043, 1400.684
692.2864, 1394.473
692.7685, 1412.516
693.2506, 1439.109
693.7327, 1451.511
694.2148, 1436.316
694.6970, 1419.878
695.1791, 1401.364
695.6612, 1384.731
696.1433, 1384.050
696.6254, 1401.714
697.1075, 1422.073
697.5897, 1441.231
698.0718, 1457.709
698.5539, 1466.644
699.0360, 1468.237
699.5181, 1465.527
700.0002, 1456.641
700.4824, 1446.852
700.9645, 1441.476
701.4466, 1441.284
701.9287, 1443.981
702.4108, 1458.162
702.8929, 1469.289
703.3751, 1463.943
703.8572, 1422.411
704.3393, 1397.381
704.8214, 1392.698
705.3035, 1401.145
705.7856, 1415.299
706.2678, 1435.847
706.7499, 1451.704
707.2320, 1460.409
707.7141, 1462.701
708.1962, 1455.244
708.6783, 1441.253
709.1605, 1432.577
709.6426, 1441.457
710.1247, 1452.683
710.6068, 1453.144
711.0889, 1444.342
711.5710, 1439.700
712.0532, 1446.630
712.5353, 1455.268
713.0174, 1460.811
713.4995, 1462.254
713.9816, 1467.488
714.4637, 1477.514
714.9459, 1488.978
715.4280, 1501.344
715.9101, 1513.678
716.3922, 1516.798
716.8743, 1508.356
717.3564, 1498.006
717.8386, 1494.250
718.3207, 1496.380
718.8028, 1504.112
719.2849, 1523.517
719.7670, 1538.524
720.2491, 1538.683
720.7313, 1529.554
721.2134, 1521.747
721.6955, 1514.109
722.1776, 1511.410
722.6597, 1514.978
723.1418, 1524.094
723.6240, 1537.245
724.1061, 1555.361
724.5882, 1571.615
725.0703, 1584.022
725.5524, 1592.038
726.0345, 1591.391
726.5167, 1582.922
726.9988, 1577.113
727.4809, 1574.932
727.9630, 1582.724
728.4451, 1614.400
728.9272, 1677.937
729.4094, 1718.866
729.8915, 1704.006
730.3736, 1671.695
730.8557, 1651.172
731.3378, 1646.523
731.8199, 1643.840
732.3021, 1644.033
732.7842, 1644.304
733.2663, 1637.980
733.7484, 1626.302
734.2305, 1624.337
734.7126, 1637.720
735.1948, 1657.401
735.6769, 1676.468
736.1590, 1693.163
736.6411, 1703.320
737.1232, 1691.314
737.6053, 1686.576
738.0875, 1711.319
738.5696, 1756.557
739.0517, 1781.272
739.5338, 1770.684
740.0159, 1758.603
740.4980, 1754.917
740.9802, 1758.940
741.4623, 1763.358
741.9444, 1768.038
742.4265, 1774.655
742.9086, 1785.132
743.3907, 1798.179
743.8729, 1810.132
744.3550, 1820.892
744.8371, 1833.913
745.3192, 1854.531
745.8013, 1876.702
746.2834, 1894.814
746.7656, 1906.265
747.2477, 1918.823
747.7298, 1936.845
748.2119, 1953.938
748.6940, 1963.207
749.1761, 1962.186
749.6582, 1963.297
750.1403, 1966.586
750.6224, 1974.866
751.1046, 1997.449
751.5867, 2029.942
752.0688, 2053.747
752.5509, 2059.793
753.0330, 2060.320
753.5151, 2059.194
753.9973, 2061.205
754.4794, 2076.730
754.9615, 2136.609
755.4436, 2180.701
755.9257, 2178.405
756.4078, 2143.753
756.8900, 2134.033
757.3721, 2155.637
757.8542, 2185.234
758.3363, 2218.529
758.8184, 2252.135
759.3005, 2267.330
759.7827, 2264.847
760.2648, 2257.985
760.7469, 2253.331
761.2290, 2250.760
761.7111, 2251.372
762.1932, 2255.293
762.6754, 2256.954
763.1575, 2256.924
763.6396, 2251.730
764.1217, 2236.857
764.6038, 2205.809
765.0859, 2186.690
765.5681, 2182.489
766.0502, 2185.056
766.5323, 2188.556
767.0144, 2192.647
767.4965, 2193.683
767.9786, 2191.776
768.4608, 2184.285
768.9429, 2164.708
769.4250, 2138.591
769.9071, 2114.286
770.3892, 2091.988
770.8713, 2075.660
771.3535, 2077.717
771.8356, 2084.005
772.3177, 2068.324
772.7998, 2012.064
773.2819, 1968.675
773.7640, 1948.743
774.2462, 1944.000
774.7283, 1935.625
775.2104, 1923.691
775.6925, 1910.344
776.1746, 1896.519
776.6567, 1881.772
777.1389, 1862.373
777.6210, 1840.965
778.1031, 1827.111
778.5852, 1836.165
779.0673, 1843.699
779.5494, 1836.999
780.0316, 1815.750
780.5137, 1794.984
780.9958, 1771.784
781.4779, 1755.344
781.9600, 1753.131
782.4421, 1763.348
782.9243, 1764.581
783.4064, 1756.805
783.8885, 1741.759
784.3706, 1712.014
784.8527, 1680.146
785.3348, 1667.116
785.8170, 1675.926
786.2991, 1681.953
786.7812, 1665.961
787.2633, 1647.694
787.7454, 1643.774
788.2275, 1664.862
788.7097, 1671.438
789.1918, 1658.204
789.6739, 1639.115
790.1560, 1628.635
790.6381, 1626.001
791.1202, 1617.947
791.6024, 1601.709
792.0845, 1586.082
792.5666, 1580.934
793.0487, 1582.527
793.5308, 1585.769
794.0129, 1592.755
794.4951, 1594.915
794.9772, 1581.881
795.4593, 1564.780
795.9414, 1561.437
796.4235, 1584.355
796.9056, 1591.931
797.3878, 1573.044
797.8699, 1543.624
798.3520, 1536.566
798.8341, 1549.273
799.3162, 1560.064
799.7983, 1562.172
800.2805, 1558.043
800.7626, 1546.969
801.2447, 1531.681
801.7268, 1518.830
802.2089, 1509.161
802.6910, 1504.166
803.1732, 1509.264
803.6553, 1519.743
804.1374, 1518.499
804.6195, 1499.320
805.1016, 1488.114
805.5837, 1498.786
806.0659, 1522.027
806.5480, 1526.916
807.0301, 1515.407
807.5122, 1502.965
807.9943, 1497.553
808.4764, 1495.933
808.9586, 1496.251
809.4407, 1498.186
809.9228, 1499.800
810.4049, 1500.433
810.8870, 1500.589
811.3691, 1499.419
811.8513, 1496.943
812.3334, 1501.323
812.8155, 1514.621
813.2976, 1525.102
813.7797, 1523.820
814.2618, 1513.869
814.7440, 1501.104
815.2261, 1486.090
815.7082, 1475.508
816.1903, 1476.751
816.6724, 1482.244
817.1545, 1486.325
817.6367, 1487.995
818.1188, 1490.145
818.6009, 1493.594
819.0830, 1496.980
819.5651, 1500.053
820.0472, 1503.083
820.5294, 1500.892
821.0115, 1492.349
821.4936, 1485.754
821.9757, 1494.329
822.4578, 1508.752
822.9399, 1511.447
823.4221, 1497.542
823.9042, 1484.224
824.3863, 1482.130
824.8684, 1483.299
825.3505, 1479.978
825.8326, 1464.859
826.3148, 1460.513
826.7969, 1470.132
827.2790, 1485.077
827.7611, 1498.563
828.2432, 1509.861
828.7253, 1513.098
829.2075, 1506.352
829.6896, 1495.978
830.1717, 1483.660
830.6538, 1473.324
831.1359, 1471.029
831.6180, 1487.979
832.1002, 1496.749
832.5823, 1484.403
833.0644, 1464.427
833.5465, 1449.501
834.0286, 1437.436
834.5107, 1442.097
834.9929, 1469.913
835.4750, 1503.666
835.9571, 1518.530
836.4392, 1518.618
836.9213, 1514.840
837.4034, 1508.500
837.8855, 1502.989
838.3676, 1499.043
838.8497, 1497.709
839.3318, 1500.734
839.8140, 1517.587
840.2961, 1525.074
840.7782, 1516.943
841.2603, 1502.349
841.7424, 1500.319
842.2245, 1510.477
842.7067, 1512.279
843.1888, 1495.424
843.6709, 1477.572
844.1530, 1484.735
844.6351, 1507.096
845.1172, 1524.948
845.5994, 1523.760
846.0815, 1524.770
846.5636, 1542.623
847.0457, 1564.988
847.5278, 1563.721
848.0099, 1527.651
848.4921, 1505.832
848.9742, 1513.036
849.4563, 1534.879
849.9384, 1543.339
850.4205, 1541.221
850.9026, 1539.464
851.3848, 1543.940
851.8669, 1548.728
852.3490, 1551.188
852.8311, 1550.870
853.3132, 1546.576
853.7953, 1529.178
854.2775, 1520.620
854.7596, 1527.110
855.2417, 1542.995
855.7238, 1554.711
856.2059, 1562.363
856.6880, 1564.376
857.1702, 1557.856
857.6523, 1548.406
858.1344, 1538.562
858.6165, 1531.496
859.0986, 1534.979
859.5807, 1571.754
860.0629, 1598.200
860.5450, 1588.408
861.0271, 1558.736
861.5092, 1549.863
861.9913, 1567.627
862.4734, 1582.698
862.9556, 1584.077
863.4377, 1580.666
863.9198, 1595.033
864.4019, 1621.948
864.8840, 1642.827
865.3661, 1649.562
865.8483, 1647.301
866.3304, 1632.516
866.8125, 1610.517
867.2946, 1598.153
867.7767, 1596.222
868.2589, 1604.871
868.7410, 1628.205
869.2231, 1658.990
869.7052, 1681.042
870.1873, 1693.920
870.6694, 1693.167
871.1516, 1666.023
871.6337, 1636.593
872.1158, 1632.928
872.5979, 1647.132
873.0800, 1660.114
873.5621, 1665.247
874.0443, 1669.126
874.5264, 1671.773
875.0085, 1674.708
875.4906, 1683.372
875.9727, 1698.605
876.4548, 1710.822
876.9370, 1717.392
877.4191, 1718.882
877.9012, 1712.223
878.3833, 1701.116
878.8654, 1695.109
879.3475, 1698.965
879.8297, 1707.985
880.3118, 1720.009
880.7939, 1736.199
881.2760, 1761.372
881.7581, 1803.720
882.2402, 1829.684
882.7224, 1827.352
883.2045, 1810.845
883.6866, 1806.349
884.1687, 1812.416
884.6508, 1824.274
885.1329, 1845.116
885.6151, 1864.685
886.0972, 1875.783
886.5793, 1881.084
887.0614, 1885.627
887.5435, 1886.528
888.0256, 1892.814
888.5078, 1906.516
888.9899, 1925.282
889.4720, 1947.318
889.9541, 1971.851
890.4362, 1990.095
890.9183, 1995.347
891.4005, 2002.138
891.8826, 2030.082
892.3647, 2067.505
892.8468, 2095.769
893.3289, 2094.926
893.8110, 2104.029
894.2932, 2129.773
894.7753, 2165.012
895.2574, 2200.551
895.7395, 2236.377
896.2216, 2266.211
896.7037, 2286.094
897.1859, 2307.497
897.6680, 2339.464
898.1501, 2383.747
898.6322, 2443.452
899.1143, 2530.853
899.5964, 2613.695
900.0786, 2682.801
900.5607, 2742.891
901.0428, 2791.457
901.5249, 2820.190
902.0070, 2885.599
902.4891, 2997.343
902.9713, 3125.744
903.4534, 3228.498
903.9355, 3321.675
904.4176, 3435.038
904.8997, 3576.348
905.3818, 3736.613
905.8640, 3929.457
906.3461, 4127.245
906.8282, 4305.584
907.3103, 4441.290
907.7924, 4623.046
908.2745, 4858.116
908.7567, 5116.223
909.2388, 5365.194
909.7209, 5614.997
910.2030, 5908.685
910.6851, 6254.522
911.1672, 6597.237
911.6494, 6886.022
912.1315, 7169.796
912.6136, 7491.284
913.0957, 7864.881
913.5778, 8223.607
914.0599, 8557.923
914.5421, 8892.825
915.0242, 9248.014
915.5063, 9618.454
915.9884, 9984.249
916.4705, 10344.95
916.9526, 10707.44
917.4348, 11086.60
917.9169, 11456.53
918.3990, 11795.57
918.8811, 12099.49
919.3632, 12395.69
919.8453, 12686.00
920.3275, 12967.96
920.8096, 13248.98
921.2917, 13521.49
921.7738, 13777.16
922.2559, 14011.85
922.7380, 14173.79
923.2202, 14218.06
923.7023, 14191.18
924.1844, 14123.15
924.6665, 14014.68
925.1486, 13857.56
925.6307, 13643.62
926.1129, 13396.82
926.5950, 13118.56
927.0771, 12811.58
927.5591, 12480.64
928.0413, 12127.45
928.5234, 11790.14
929.0055, 11492.10
929.4876, 11210.69
929.9697, 10927.15
930.4518, 10647.57
930.9340, 10394.36
931.4161, 10164.84
931.8982, 9970.688
932.3803, 9817.206
932.8624, 9695.307
933.3445, 9575.528
933.8267, 9462.383
934.3088, 9386.473
934.7909, 9358.530
935.2730, 9367.933
935.7551, 9420.236
936.2372, 9498.294
936.7194, 9579.335
937.2015, 9655.418
937.6836, 9735.518
938.1657, 9811.096
938.6478, 9899.591
939.1299, 10033.38
939.6121, 10207.29
940.0942, 10353.82
940.5763, 10457.39
941.0584, 10567.39
941.5405, 10743.23
942.0226, 10939.78
942.5048, 11106.27
942.9869, 11221.73
943.4690, 11347.38
943.9511, 11495.12
944.4332, 11641.69
944.9153, 11762.79
945.3975, 11861.78
945.8796, 12005.69
946.3617, 12195.44
946.8438, 12363.28
947.3259, 12435.47
947.8080, 12472.04
948.2902, 12527.43
948.7723, 12606.47
949.2544, 12667.33
949.7365, 12703.53
950.2186, 12724.45
950.7007, 12736.07
951.1829, 12735.20
951.6650, 12711.35
952.1471, 12662.90
952.6292, 12572.51
953.1113, 12416.88
953.5934, 12227.91
954.0756, 12035.81
954.5577, 11832.01
955.0398, 11587.99
955.5219, 11295.06
956.0040, 10965.53
956.4861, 10599.49
956.9683, 10204.41
957.4504, 9792.035
957.9325, 9365.816
958.4146, 8942.756
958.8967, 8535.840
959.3788, 8138.226
959.8610, 7734.423
960.3431, 7343.768
960.8252, 6989.637
961.3073, 6691.501
961.7894, 6399.243
962.2715, 6101.821
962.7537, 5820.590
963.2358, 5584.575
963.7179, 5386.285
964.2000, 5199.131
964.6821, 5020.894
965.1642, 4854.375
965.6464, 4696.821
966.1285, 4557.389
966.6106, 4448.748
967.0927, 4378.832
967.5748, 4300.970
968.0569, 4207.712
968.5391, 4123.452
969.0212, 4069.481
969.5033, 4036.673
969.9854, 3990.230
970.4675, 3931.971
970.9496, 3884.364
971.4318, 3866.488
971.9139, 3856.935
972.3960, 3843.951
972.8781, 3828.002
973.3602, 3817.322
973.8423, 3815.414
974.3245, 3807.775
974.8066, 3796.183
975.2887, 3768.186
975.7708, 3687.318
976.2529, 3568.506
976.7350, 3454.015
977.2172, 3376.321
977.6993, 3289.566
978.1814, 3166.204
978.6635, 3028.512
979.1456, 2909.229
979.6277, 2809.969
980.1099, 2720.684
980.5920, 2639.664
981.0741, 2566.213
981.5562, 2503.355
982.0383, 2446.501
982.5204, 2387.032
983.0026, 2319.287
983.4847, 2263.151
983.9668, 2235.004
984.4489, 2211.914
984.9310, 2178.090
985.4131, 2132.400
985.8953, 2099.314
986.3774, 2079.434
986.8595, 2060.789
987.3416, 2031.415
987.8237, 2000.422
988.3058, 1978.884
988.7880, 1966.619
989.2701, 1952.783
989.7522, 1929.834
990.2343, 1912.386
990.7164, 1907.591
991.1985, 1910.213
991.6807, 1898.874
992.1628, 1875.787
992.6449, 1859.785
993.1270, 1866.606
993.6091, 1872.891
994.0912, 1854.674
994.5734, 1824.451
995.0555, 1805.883
995.5376, 1806.848
996.0197, 1809.968
996.5018, 1815.767
996.9839, 1819.666
997.4661, 1813.210
997.9482, 1799.734
998.4303, 1789.290
998.9124, 1783.676
999.3945, 1780.946
999.8766, 1782.957
1000.359, 1785.246
1000.841, 1784.598
1001.323, 1781.072
1001.805, 1772.590
1002.287, 1757.184
1002.769, 1745.877
1003.251, 1750.446
1003.734, 1761.906
1004.216, 1761.866
1004.698, 1752.820
1005.180, 1749.741
1005.662, 1774.156
1006.144, 1787.405
1006.626, 1769.271
1007.108, 1734.271
1007.591, 1724.712
1008.073, 1740.774
1008.555, 1765.790
1009.037, 1800.466
1009.519, 1830.379
1010.001, 1831.886
1010.483, 1820.770
1010.965, 1820.450
1011.447, 1846.819
1011.930, 1867.356
1012.412, 1874.268
1012.894, 1884.812
1013.376, 1921.974
1013.858, 1979.432
1014.340, 2022.328
1014.822, 2047.761
1015.304, 2064.500
1015.786, 2071.900
1016.269, 2078.257
1016.751, 2087.537
1017.233, 2100.354
1017.715, 2125.217
1018.197, 2166.115
1018.679, 2205.989
1019.161, 2237.923
1019.643, 2264.349
1020.125, 2288.555
1020.608, 2311.281
1021.090, 2334.635
1021.572, 2353.967
1022.054, 2380.959
1022.536, 2423.791
1023.018, 2472.885
1023.500, 2518.528
1023.982, 2561.056
1024.465, 2591.071
1024.947, 2607.488
1025.429, 2609.376
1025.911, 2586.441
1026.393, 2553.682
1026.875, 2529.770
1027.357, 2522.433
1027.839, 2499.260
1028.322, 2454.173
1028.804, 2401.438
1029.286, 2348.093
1029.768, 2293.449
1030.250, 2232.840
1030.732, 2168.184
1031.214, 2113.957
1031.696, 2093.432
1032.178, 2071.015
1032.661, 2022.374
1033.143, 1957.358
1033.625, 1903.798
1034.107, 1862.475
1034.589, 1830.296
1035.071, 1807.890
1035.553, 1791.051
1036.035, 1773.154
1036.517, 1756.763
1037.000, 1746.173
1037.482, 1743.168
1037.964, 1743.920
1038.446, 1753.646
1038.928, 1760.181
1039.410, 1754.255
1039.892, 1736.419
1040.374, 1719.169
1040.857, 1702.765
1041.339, 1687.124
1041.821, 1666.000
1042.303, 1651.349
1042.785, 1659.161
1043.267, 1683.546
1043.749, 1689.892
1044.231, 1668.500
1044.714, 1653.401
1045.196, 1654.857
1045.678, 1662.074
1046.160, 1653.261
1046.642, 1636.438
1047.124, 1630.502
1047.606, 1646.163
1048.088, 1660.394
1048.570, 1669.183
1049.052, 1670.155
1049.535, 1657.921
1050.017, 1631.154
1050.499, 1618.332
1050.981, 1620.072
1051.463, 1623.073
1051.945, 1612.091
1052.427, 1602.021
1052.909, 1610.357
1053.392, 1634.424
1053.874, 1646.640
1054.356, 1638.565
1054.838, 1634.589
1055.320, 1644.161
1055.802, 1656.509
1056.284, 1644.568
1056.766, 1618.643
1057.249, 1607.065
1057.731, 1628.559
1058.213, 1643.103
1058.695, 1624.004
1059.177, 1599.203
1059.659, 1594.304
1060.141, 1611.810
1060.623, 1617.229
1061.105, 1609.587
1061.588, 1602.417
1062.070, 1608.078
1062.552, 1617.769
1063.034, 1624.234
1063.516, 1627.187
1063.998, 1626.514
1064.480, 1616.684
1064.962, 1616.913
1065.444, 1636.007
1065.927, 1662.125
1066.409, 1672.571
1066.891, 1671.515
1067.373, 1669.842
1067.855, 1670.118
1068.337, 1671.535
1068.819, 1672.426
1069.301, 1675.515
1069.783, 1683.776
1070.266, 1697.994
1070.748, 1707.782
1071.230, 1713.069
1071.712, 1720.022
1072.194, 1735.965
1072.676, 1753.396
1073.158, 1766.244
1073.640, 1774.606
1074.123, 1780.962
1074.605, 1781.890
1075.087, 1789.918
1075.569, 1808.757
1076.051, 1834.495
1076.533, 1861.752
1077.015, 1890.694
1077.497, 1921.701
1077.979, 1955.827
1078.462, 1988.081
1078.944, 2006.237
1079.426, 2031.413
1079.908, 2083.620
1080.390, 2161.816
1080.872, 2205.809
1081.354, 2217.293
1081.836, 2238.659
1082.318, 2300.718
1082.801, 2380.236
1083.283, 2466.241
1083.765, 2556.109
1084.247, 2642.226
1084.729, 2722.214
1085.211, 2806.151
1085.693, 2896.635
1086.175, 2989.132
1086.658, 3074.761
1087.140, 3159.231
1087.622, 3252.168
1088.104, 3356.352
1088.586, 3464.762
1089.068, 3581.486
1089.550, 3692.817
1090.032, 3791.539
1090.515, 3878.772
1090.997, 3956.693
1091.479, 4027.410
1091.961, 4101.346
1092.443, 4184.319
1092.925, 4272.833
1093.407, 4377.741
1093.889, 4483.003
1094.371, 4562.744
1094.854, 4616.462
1095.336, 4649.021
1095.818, 4661.013
1096.300, 4653.171
1096.782, 4634.598
1097.264, 4591.208
1097.746, 4507.307
1098.228, 4379.377
1098.710, 4215.420
1099.193, 4000.270
1099.675, 3793.801
1100.157, 3622.871
1100.639, 3474.309
1101.121, 3309.427
1101.603, 3134.634
1102.085, 2970.598
1102.567, 2822.282
1103.050, 2687.619
1103.532, 2561.013
1104.014, 2450.429
1104.496, 2369.615
1104.978, 2316.267
1105.460, 2250.969
1105.942, 2171.539
1106.424, 2099.908
1106.906, 2053.739
1107.389, 2018.192
1107.871, 1984.737
1108.353, 1952.392
1108.835, 1918.022
1109.317, 1880.573
1109.799, 1844.776
1110.281, 1810.219
1110.763, 1780.866
1111.245, 1763.898
1111.728, 1754.648
1112.210, 1747.542
1112.692, 1742.991
1113.174, 1735.849
1113.656, 1724.948
1114.138, 1713.448
1114.620, 1701.335
1115.102, 1690.625
1115.585, 1693.314
1116.067, 1704.727
1116.549, 1704.309
1117.031, 1660.763
1117.513, 1631.671
1117.995, 1641.544
1118.477, 1667.821
1118.959, 1676.088
1119.442, 1667.882
1119.924, 1658.485
1120.406, 1649.728
1120.888, 1642.358
1121.370, 1640.758
1121.852, 1637.703
1122.334, 1624.162
1122.816, 1601.719
1123.298, 1591.396
1123.781, 1594.201
1124.263, 1600.863
1124.745, 1611.302
1125.227, 1618.210
1125.709, 1606.681
1126.191, 1587.491
1126.673, 1578.247
1127.155, 1592.247
1127.637, 1598.505
1128.120, 1595.374
1128.602, 1588.677
1129.084, 1582.529
1129.566, 1576.723
1130.048, 1570.811
1130.530, 1564.718
1131.012, 1558.322
1131.494, 1543.863
1131.977, 1540.052
1132.459, 1555.158
1132.941, 1578.760
1133.423, 1593.002
1133.905, 1598.359
1134.387, 1595.483
1134.869, 1583.659
1135.351, 1568.887
1135.833, 1548.645
1136.316, 1532.591
1136.798, 1528.791
1137.280, 1535.945
1137.762, 1535.033
1138.244, 1526.367
1138.726, 1521.504
1139.208, 1530.061
1139.690, 1539.901
1140.172, 1537.759
1140.655, 1531.662
1141.137, 1536.160
1141.619, 1557.945
1142.101, 1568.198
1142.583, 1564.756
1143.065, 1556.060
1143.547, 1549.488
1144.029, 1542.097
1144.512, 1526.180
1144.994, 1503.970
1145.476, 1495.783
1145.958, 1509.068
1146.440, 1526.267
1146.922, 1548.234
1147.404, 1563.881
1147.886, 1540.932
1148.369, 1502.253
1148.851, 1498.330
1149.333, 1551.823
1149.815, 1580.927
1150.297, 1541.761
1150.779, 1506.211
1151.261, 1514.030
1151.743, 1551.165
1152.225, 1560.631
1152.708, 1547.904
1153.190, 1535.879
1153.672, 1536.936
1154.154, 1538.188
1154.636, 1534.233
1155.118, 1528.857
1155.600, 1526.337
1156.082, 1526.540
1156.564, 1520.714
1157.047, 1508.629
1157.529, 1502.380
1158.011, 1517.438
1158.493, 1534.594
1158.975, 1542.771
1159.457, 1542.813
1159.939, 1535.111
1160.421, 1518.427
1160.903, 1510.300
1161.386, 1515.875
1161.868, 1524.286
1162.350, 1522.439
1162.832, 1519.233
1163.314, 1521.957
1163.796, 1531.009
1164.278, 1561.365
1164.760, 1623.563
1165.243, 1655.341
1165.725, 1610.998
1166.207, 1543.278
1166.689, 1524.960
1167.171, 1536.205
1167.653, 1541.017
1168.135, 1518.979
1168.617, 1511.591
1169.099, 1521.909
1169.582, 1538.474
1170.064, 1557.414
1170.546, 1572.995
1171.028, 1569.757
1171.510, 1551.433
1171.992, 1538.056
1172.474, 1541.697
1172.956, 1543.989
1173.438, 1542.177
1173.921, 1537.722
1174.403, 1530.650
1174.885, 1522.989
1175.367, 1520.313
1175.849, 1523.509
1176.331, 1529.871
1176.813, 1543.966
1177.295, 1554.418
1177.778, 1556.908
1178.260, 1552.897
1178.742, 1545.216
1179.224, 1534.747
1179.706, 1523.720
1180.188, 1509.054
1180.670, 1503.486
1181.152, 1522.624
1181.635, 1544.999
1182.117, 1555.335
1182.599, 1554.136
1183.081, 1550.807
1183.563, 1545.417
1184.045, 1539.125
1184.527, 1527.742
1185.009, 1521.078
1185.491, 1526.554
1185.974, 1538.906
1186.456, 1553.647
1186.938, 1571.589
1187.420, 1570.911
1187.902, 1549.146
1188.384, 1530.799
1188.866, 1540.465
1189.348, 1555.036
1189.830, 1557.564
1190.313, 1550.787
1190.795, 1546.630
1191.277, 1545.276
1191.759, 1544.578
1192.241, 1544.094
1192.723, 1544.081
1193.205, 1547.112
1193.687, 1549.107
1194.170, 1544.388
1194.652, 1532.333
1195.134, 1525.809
1195.616, 1525.264
1196.098, 1527.795
1196.580, 1534.822
1197.062, 1540.049
1197.544, 1531.605
1198.026, 1518.560
1198.509, 1514.968
1198.991, 1526.367
1199.473, 1535.667
1199.955, 1543.191
1200.437, 1547.555
1200.919, 1544.337
1201.401, 1540.068
1201.883, 1544.386
1202.365, 1554.609
1202.848, 1562.372
1203.330, 1562.686
1203.812, 1572.980
1204.294, 1599.691
1204.776, 1617.986
1205.258, 1587.749
1205.740, 1540.941
1206.222, 1521.981
1206.705, 1532.302
1207.187, 1546.755
1207.669, 1565.125
1208.151, 1578.728
1208.633, 1585.307
1209.115, 1586.845
1209.597, 1586.270
1210.079, 1582.555
1210.562, 1572.348
1211.044, 1553.603
1211.526, 1541.183
1212.008, 1538.902
1212.490, 1536.325
1212.972, 1524.394
1213.454, 1515.812
1213.936, 1550.584
1214.418, 1604.145
1214.901, 1625.630
1215.383, 1582.778
1215.865, 1550.749
1216.347, 1539.076
1216.829, 1532.441
1217.311, 1519.666
1217.793, 1505.048
1218.275, 1495.831
1218.757, 1493.002
1219.240, 1499.325
1219.722, 1531.386
1220.204, 1548.068
1220.686, 1540.543
1221.168, 1527.747
1221.650, 1531.424
1222.132, 1542.914
1222.614, 1540.399
1223.097, 1525.035
1223.579, 1512.170
1224.061, 1510.732
1224.543, 1507.096
1225.025, 1497.140
1225.507, 1487.359
1225.989, 1490.136
1226.471, 1499.702
1226.953, 1501.249
1227.436, 1492.548
1227.918, 1491.288
1228.400, 1508.548
1228.882, 1525.338
1229.364, 1537.801
1229.846, 1544.344
1230.328, 1537.715
1230.810, 1523.386
1231.292, 1513.421
1231.775, 1511.019
1232.257, 1511.349
1232.739, 1514.760
1233.221, 1518.359
1233.703, 1522.511
1234.185, 1524.668
1234.667, 1510.812
1235.149, 1490.012
1235.632, 1486.521
1236.114, 1525.347
1236.596, 1548.270
1237.078, 1545.630
1237.560, 1533.252
1238.042, 1517.268
1238.524, 1501.954
1239.006, 1500.579
1239.489, 1510.194
1239.971, 1520.228
1240.453, 1532.813
1240.935, 1535.197
1241.417, 1521.776
1241.899, 1507.018
1242.381, 1507.589
1242.863, 1517.203
1243.345, 1523.433
1243.828, 1525.694
1244.310, 1524.640
1244.792, 1519.451
1245.274, 1511.463
1245.756, 1498.756
1246.238, 1487.715
1246.720, 1488.416
1247.202, 1496.951
1247.684, 1507.291
1248.167, 1518.675
1248.649, 1530.207
1249.131, 1545.887
1249.613, 1553.467
1250.095, 1548.359
1250.577, 1536.180
1251.059, 1521.705
1251.541, 1508.116
1252.023, 1501.631
1252.506, 1504.365
1252.988, 1508.261
1253.470, 1513.683
1253.952, 1515.719
1254.434, 1507.202
1254.916, 1502.015
1255.398, 1541.594
1255.880, 1595.256
1256.363, 1606.756
1256.845, 1536.886
1257.327, 1502.482
1257.809, 1514.428
1258.291, 1532.417
1258.773, 1533.277
1259.255, 1526.652
1259.737, 1527.728
1260.219, 1532.006
1260.702, 1529.854
1261.184, 1511.687
1261.666, 1507.586
1262.148, 1520.163
1262.630, 1534.374
1263.112, 1540.133
1263.594, 1540.355
1264.076, 1537.079
1264.558, 1531.101
1265.041, 1523.719
1265.523, 1513.314
1266.005, 1507.750
1266.487, 1507.611
1266.969, 1512.292
1267.451, 1528.255
1267.933, 1543.087
1268.415, 1540.307
1268.898, 1525.581
1269.380, 1524.195
1269.862, 1539.258
1270.344, 1545.910
1270.826, 1539.660
1271.308, 1532.116
1271.790, 1531.117
1272.272, 1535.515
1272.755, 1550.293
1273.237, 1569.836
1273.719, 1570.585
1274.201, 1552.235
1274.683, 1537.718
1275.165, 1532.580
1275.647, 1529.707
1276.129, 1518.712
1276.611, 1512.796
1277.094, 1527.774
1277.576, 1555.838
1278.058, 1554.237
1278.540, 1526.583
1279.022, 1506.648
1279.504, 1504.944
1279.986, 1510.671
1280.468, 1524.614
1280.950, 1536.881
##END=



