##NAMES=Fairfieldite
##RRUFFID=R070630
##IDEAL CHEMISTRY=Ca_2_Mn^2+^(PO_4_)_2_&#183;2H_2_O
##LOCALITY=Tip Top mine, Custer County, South Dakota, USA
##OWNER=RRUFF
##SOURCE=Dakota Matrix Minerals
##DESCRIPTION=Transparent white to colorless lamellar and massive crystals associated with whitlockite
##STATUS=The identification of this mineral is confirmed by single-crystal X-ray diffraction and chemical analysis.
##URL=rruff.info/R070630
##MEASURED CHEMISTRY=Ca_1.99_(Mn_0.83_Mg_0.16_Fe_0.01_)(P_1.00_O_4_)_2_Â·2H_2_O
86.68555, 1073.480
87.16766, 1105.125
87.64978, 1134.792
88.13190, 1162.563
88.61401, 1185.926
89.09613, 1195.564
89.57825, 1204.458
90.06036, 1221.152
90.54248, 1248.000
91.02460, 1283.597
91.50671, 1326.834
91.98883, 1386.154
92.47095, 1439.012
92.95306, 1480.155
93.43518, 1512.924
93.91730, 1540.856
94.39941, 1564.931
94.88153, 1585.042
95.36365, 1615.736
95.84576, 1650.989
96.32788, 1701.039
96.81000, 1776.999
97.29212, 1875.100
97.77424, 1979.424
98.25636, 2073.077
98.73847, 2150.908
99.22059, 2230.502
99.70271, 2308.640
100.1848, 2389.798
100.6669, 2479.341
101.1491, 2578.874
101.6312, 2684.642
102.1133, 2724.252
102.5954, 2749.524
103.0775, 2786.785
103.5596, 2854.466
104.0418, 2943.690
104.5239, 3026.246
105.0060, 3108.115
105.4881, 3162.822
105.9702, 3159.967
106.4523, 3094.204
106.9345, 2979.936
107.4166, 2818.214
107.8987, 2594.757
108.3808, 2380.415
108.8629, 2206.096
109.3450, 2058.016
109.8272, 1923.419
110.3093, 1790.894
110.7914, 1665.668
111.2735, 1575.036
111.7556, 1546.076
112.2377, 1524.538
112.7199, 1490.129
113.2020, 1447.038
113.6841, 1408.328
114.1662, 1388.652
114.6483, 1395.074
115.1304, 1389.471
115.6126, 1363.962
116.0947, 1334.368
116.5768, 1306.946
117.0589, 1283.588
117.5410, 1264.557
118.0231, 1250.515
118.5053, 1248.893
118.9874, 1241.396
119.4695, 1219.722
119.9516, 1195.005
120.4337, 1179.650
120.9158, 1179.130
121.3980, 1190.505
121.8801, 1205.606
122.3622, 1231.796
122.8443, 1252.217
123.3264, 1260.677
123.8085, 1258.546
124.2907, 1250.413
124.7728, 1237.820
125.2549, 1220.776
125.7370, 1202.137
126.2191, 1173.728
126.7012, 1148.384
127.1834, 1140.716
127.6655, 1153.342
128.1476, 1170.362
128.6297, 1182.065
129.1118, 1189.977
129.5939, 1195.890
130.0761, 1198.680
130.5582, 1199.766
131.0403, 1203.990
131.5224, 1212.683
132.0045, 1223.327
132.4866, 1237.153
132.9688, 1252.450
133.4509, 1263.453
133.9330, 1265.181
134.4151, 1257.015
134.8972, 1244.335
135.3793, 1217.268
135.8615, 1193.072
136.3436, 1177.579
136.8257, 1172.674
137.3078, 1179.319
137.7899, 1201.569
138.2720, 1254.876
138.7542, 1294.288
139.2363, 1317.394
139.7184, 1328.861
140.2005, 1330.510
140.6826, 1323.245
141.1647, 1310.083
141.6469, 1299.832
142.1290, 1280.803
142.6111, 1278.549
143.0932, 1304.002
143.5753, 1347.038
144.0574, 1394.098
144.5396, 1439.119
145.0217, 1480.584
145.5038, 1506.429
145.9859, 1523.336
146.4680, 1523.011
146.9501, 1493.642
147.4323, 1439.728
147.9144, 1383.059
148.3965, 1338.932
148.8786, 1307.949
149.3607, 1279.322
149.8429, 1252.584
150.3250, 1228.019
150.8071, 1205.263
151.2892, 1183.857
151.7713, 1166.480
152.2534, 1160.963
152.7356, 1163.419
153.2177, 1159.469
153.6998, 1139.487
154.1819, 1109.854
154.6640, 1083.985
155.1461, 1060.311
155.6283, 1047.160
156.1104, 1054.502
156.5925, 1079.410
157.0746, 1102.923
157.5567, 1108.143
158.0388, 1095.697
158.5210, 1091.991
159.0031, 1111.613
159.4852, 1133.217
159.9673, 1144.760
160.4494, 1144.828
160.9315, 1138.887
161.4137, 1129.874
161.8958, 1112.805
162.3779, 1110.022
162.8600, 1136.644
163.3421, 1169.842
163.8242, 1194.035
164.3064, 1204.272
164.7885, 1207.439
165.2706, 1218.255
165.7527, 1244.975
166.2348, 1266.347
166.7169, 1274.683
167.1991, 1279.113
167.6812, 1289.009
168.1633, 1309.118
168.6454, 1337.274
169.1275, 1364.706
169.6096, 1386.575
170.0918, 1412.966
170.5739, 1442.832
171.0560, 1478.399
171.5381, 1525.582
172.0202, 1590.597
172.5023, 1671.427
172.9845, 1727.610
173.4666, 1734.137
173.9487, 1746.293
174.4308, 1789.001
174.9129, 1857.653
175.3951, 1931.425
175.8772, 1996.129
176.3593, 2050.791
176.8414, 2097.505
177.3235, 2139.572
177.8056, 2172.550
178.2878, 2190.564
178.7699, 2193.596
179.2520, 2191.916
179.7341, 2193.903
180.2162, 2199.656
180.6983, 2207.427
181.1805, 2209.083
181.6626, 2215.899
182.1447, 2241.875
182.6268, 2289.811
183.1089, 2352.819
183.5910, 2426.648
184.0732, 2509.773
184.5553, 2600.363
185.0374, 2709.960
185.5195, 2826.503
186.0016, 2926.290
186.4837, 3013.835
186.9659, 3065.561
187.4480, 3064.363
187.9301, 3013.751
188.4122, 2931.699
188.8943, 2815.745
189.3764, 2670.919
189.8586, 2531.806
190.3407, 2393.434
190.8228, 2276.703
191.3049, 2196.656
191.7870, 2153.644
192.2691, 2131.696
192.7513, 2122.460
193.2334, 2127.841
193.7155, 2126.671
194.1976, 2094.065
194.6797, 2067.112
195.1618, 2067.587
195.6440, 2099.632
196.1261, 2151.862
196.6082, 2213.864
197.0903, 2292.377
197.5724, 2360.580
198.0546, 2401.914
198.5367, 2439.698
199.0188, 2486.539
199.5009, 2547.034
199.9830, 2622.845
200.4651, 2722.842
200.9473, 2875.882
201.4294, 2998.564
201.9115, 3084.433
202.3936, 3140.837
202.8757, 3173.564
203.3578, 3184.887
203.8400, 3174.809
204.3221, 3142.459
204.8042, 3075.111
205.2863, 2999.125
205.7684, 2905.796
206.2505, 2809.816
206.7327, 2727.397
207.2148, 2667.354
207.6969, 2625.231
208.1790, 2582.317
208.6611, 2529.581
209.1432, 2486.397
209.6254, 2455.993
210.1075, 2436.712
210.5896, 2423.915
211.0717, 2414.070
211.5538, 2409.950
212.0359, 2432.286
212.5181, 2513.201
213.0002, 2583.033
213.4823, 2622.210
213.9644, 2637.202
214.4465, 2644.943
214.9286, 2657.981
215.4108, 2673.256
215.8929, 2653.875
216.3750, 2585.174
216.8571, 2505.682
217.3392, 2422.665
217.8213, 2339.735
218.3035, 2265.139
218.7856, 2205.735
219.2677, 2160.528
219.7498, 2109.086
220.2319, 2043.679
220.7140, 1979.798
221.1962, 1925.505
221.6783, 1880.444
222.1604, 1839.328
222.6425, 1797.594
223.1246, 1756.632
223.6067, 1724.782
224.0889, 1700.307
224.5710, 1685.859
225.0531, 1683.440
225.5352, 1693.054
226.0173, 1713.939
226.4994, 1748.914
226.9816, 1796.580
227.4637, 1841.605
227.9458, 1879.474
228.4279, 1916.730
228.9100, 1959.978
229.3921, 2009.781
229.8743, 2060.596
230.3564, 2102.929
230.8385, 2142.058
231.3206, 2197.681
231.8027, 2282.014
232.2849, 2380.251
232.7670, 2478.471
233.2491, 2577.373
233.7312, 2668.754
234.2133, 2742.015
234.6954, 2802.136
235.1776, 2859.561
235.6597, 2932.904
236.1418, 2999.162
236.6239, 3022.894
237.1060, 2999.406
237.5881, 2947.555
238.0703, 2872.502
238.5524, 2779.314
239.0345, 2674.337
239.5166, 2555.180
239.9987, 2426.546
240.4808, 2292.551
240.9630, 2147.791
241.4451, 2012.107
241.9272, 1897.376
242.4093, 1799.639
242.8914, 1713.677
243.3735, 1642.195
243.8557, 1580.127
244.3378, 1512.870
244.8199, 1433.275
245.3020, 1364.823
245.7841, 1326.094
246.2662, 1306.819
246.7484, 1289.294
247.2305, 1264.801
247.7126, 1236.075
248.1947, 1210.930
248.6768, 1191.024
249.1589, 1171.948
249.6411, 1146.506
250.1232, 1120.309
250.6053, 1104.353
251.0874, 1109.926
251.5695, 1129.367
252.0516, 1137.879
252.5338, 1131.218
253.0159, 1120.080
253.4980, 1111.329
253.9801, 1102.264
254.4622, 1087.554
254.9443, 1060.843
255.4265, 1026.976
255.9086, 1003.869
256.3907, 998.5518
256.8728, 993.1392
257.3549, 976.1113
257.8370, 954.2671
258.3192, 939.7949
258.8013, 943.4530
259.2834, 958.3560
259.7655, 958.0811
260.2476, 933.3061
260.7297, 907.1660
261.2119, 881.0950
261.6940, 860.7204
262.1761, 855.5590
262.6582, 873.6220
263.1403, 909.4475
263.6224, 944.1251
264.1046, 985.3586
264.5867, 1011.864
265.0688, 1010.314
265.5509, 993.5125
266.0330, 978.8870
266.5151, 974.4999
266.9973, 979.7294
267.4794, 993.0697
267.9615, 1018.496
268.4436, 1046.188
268.9257, 1078.258
269.4078, 1109.035
269.8900, 1129.497
270.3721, 1132.592
270.8542, 1125.914
271.3363, 1133.105
271.8184, 1159.511
272.3005, 1192.242
272.7827, 1231.232
273.2648, 1272.177
273.7469, 1308.872
274.2290, 1337.262
274.7111, 1361.873
275.1932, 1395.170
275.6754, 1441.240
276.1575, 1488.865
276.6396, 1538.941
277.1217, 1587.076
277.6038, 1626.818
278.0859, 1653.977
278.5681, 1676.335
279.0502, 1712.089
279.5323, 1764.460
280.0144, 1824.909
280.4965, 1903.475
280.9786, 1982.214
281.4608, 2043.149
281.9429, 2078.562
282.4250, 2098.833
282.9071, 2124.555
283.3892, 2160.664
283.8713, 2190.847
284.3535, 2214.116
284.8356, 2230.313
285.3177, 2242.444
285.7998, 2251.524
286.2819, 2248.487
286.7640, 2214.528
287.2462, 2135.685
287.7283, 2061.529
288.2104, 2003.859
288.6925, 1950.260
289.1746, 1892.618
289.6567, 1828.610
290.1389, 1759.905
290.6210, 1687.104
291.1031, 1608.486
291.5852, 1532.123
292.0673, 1454.617
292.5495, 1382.436
293.0316, 1321.471
293.5137, 1272.229
293.9958, 1229.011
294.4779, 1185.698
294.9601, 1142.211
295.4422, 1099.331
295.9243, 1041.651
296.4064, 996.7559
296.8885, 987.7385
297.3706, 1012.142
297.8528, 1040.739
298.3349, 1042.890
298.8170, 1015.117
299.2991, 990.5689
299.7812, 966.7283
300.2633, 950.6277
300.7455, 948.2960
301.2276, 957.9031
301.7097, 971.2237
302.1918, 982.5952
302.6739, 991.9942
303.1560, 999.0262
303.6382, 1004.285
304.1203, 1006.100
304.6024, 999.7512
305.0845, 988.8843
305.5666, 983.1146
306.0487, 991.1315
306.5309, 1011.044
307.0130, 1027.851
307.4951, 1040.350
307.9772, 1051.073
308.4593, 1065.093
308.9414, 1078.334
309.4236, 1082.269
309.9057, 1068.403
310.3878, 1042.808
310.8699, 1026.095
311.3520, 1022.083
311.8341, 1020.292
312.3163, 1022.444
312.7984, 1022.549
313.2805, 1010.634
313.7626, 978.5219
314.2447, 936.5958
314.7268, 905.7143
315.2090, 889.0458
315.6911, 874.5524
316.1732, 857.1168
316.6553, 839.3933
317.1374, 824.9617
317.6195, 816.3832
318.1017, 808.0061
318.5838, 788.9316
319.0659, 756.0068
319.5480, 731.6012
320.0301, 732.5256
320.5122, 741.0355
320.9944, 741.4888
321.4765, 730.2930
321.9586, 715.4135
322.4407, 702.7564
322.9228, 692.3690
323.4049, 687.7865
323.8871, 696.8160
324.3692, 706.1775
324.8513, 701.0914
325.3334, 679.7957
325.8155, 659.5894
326.2976, 654.3146
326.7798, 661.3600
327.2619, 666.2167
327.7440, 663.8225
328.2261, 661.8608
328.7082, 670.1514
329.1903, 687.7273
329.6725, 700.7902
330.1546, 702.0668
330.6367, 694.0806
331.1188, 680.7958
331.6009, 659.7465
332.0830, 641.3826
332.5652, 637.5719
333.0473, 645.0590
333.5294, 653.7886
334.0115, 663.3900
334.4936, 671.4033
334.9757, 672.2960
335.4579, 664.7560
335.9400, 659.3998
336.4221, 667.5894
336.9042, 685.1488
337.3863, 695.1687
337.8684, 690.9598
338.3506, 682.0084
338.8327, 674.4667
339.3148, 668.6343
339.7969, 666.2188
340.2790, 668.7843
340.7611, 675.6561
341.2433, 683.2899
341.7254, 693.2044
342.2075, 702.1146
342.6896, 709.0657
343.1717, 713.8171
343.6538, 715.3685
344.1360, 712.8537
344.6181, 707.4982
345.1002, 701.7281
345.5823, 691.5073
346.0644, 688.0199
346.5465, 696.5155
347.0287, 712.8619
347.5108, 731.1604
347.9929, 749.4983
348.4750, 769.3477
348.9571, 794.1237
349.4392, 830.7556
349.9214, 854.7585
350.4035, 852.3279
350.8856, 843.9927
351.3677, 849.9783
351.8498, 872.7238
352.3319, 898.5201
352.8141, 911.4235
353.2962, 906.6480
353.7783, 911.7394
354.2604, 931.5670
354.7425, 955.5875
355.2246, 980.2422
355.7068, 1004.215
356.1889, 1026.148
356.6710, 1045.232
357.1531, 1061.439
357.6352, 1072.155
358.1173, 1070.059
358.5995, 1070.710
359.0816, 1077.710
359.5637, 1090.377
360.0458, 1108.305
360.5279, 1131.997
361.0100, 1158.379
361.4922, 1176.651
361.9743, 1181.389
362.4564, 1184.647
362.9385, 1186.788
363.4206, 1188.679
363.9027, 1191.886
364.3849, 1196.795
364.8670, 1201.016
365.3491, 1200.280
365.8312, 1192.868
366.3133, 1184.828
366.7954, 1176.638
367.2776, 1167.984
367.7597, 1158.679
368.2418, 1148.667
368.7239, 1138.072
369.2060, 1126.062
369.6881, 1112.349
370.1703, 1102.597
370.6524, 1106.034
371.1345, 1103.451
371.6166, 1082.909
372.0987, 1049.031
372.5808, 1014.043
373.0630, 979.0731
373.5451, 949.4097
374.0272, 949.4344
374.5093, 995.8891
374.9915, 1035.537
375.4736, 1039.558
375.9557, 1022.424
376.4378, 1001.828
376.9199, 980.8753
377.4020, 962.6926
377.8842, 953.8082
378.3663, 955.0464
378.8484, 952.2602
379.3305, 935.5450
379.8126, 914.6519
380.2947, 901.7778
380.7769, 897.9589
381.2590, 900.9119
381.7411, 912.1348
382.2232, 929.5109
382.7053, 946.9099
383.1874, 965.2048
383.6696, 978.3349
384.1517, 973.7969
384.6338, 951.3933
385.1159, 935.7122
385.5980, 937.8436
386.0801, 948.2218
386.5623, 956.2748
387.0444, 960.5663
387.5265, 961.9450
388.0086, 960.0702
388.4907, 954.8591
388.9728, 953.6489
389.4550, 957.5158
389.9371, 964.2846
390.4192, 973.9637
390.9013, 985.7228
391.3834, 995.9810
391.8655, 1001.409
392.3477, 1005.231
392.8298, 1023.576
393.3119, 1077.492
393.7940, 1119.165
394.2761, 1137.887
394.7582, 1141.597
395.2404, 1136.107
395.7225, 1124.047
396.2046, 1112.775
396.6867, 1114.779
397.1688, 1132.268
397.6509, 1160.331
398.1331, 1208.421
398.6152, 1258.178
399.0973, 1300.236
399.5794, 1332.630
400.0615, 1355.401
400.5436, 1363.483
401.0258, 1354.724
401.5079, 1374.288
401.9900, 1455.020
402.4721, 1530.646
402.9542, 1575.407
403.4363, 1601.849
403.9185, 1634.020
404.4006, 1684.684
404.8827, 1749.497
405.3648, 1819.843
405.8469, 1900.693
406.3290, 1974.032
406.8112, 2025.709
407.2933, 2071.734
407.7754, 2123.099
408.2575, 2181.907
408.7396, 2253.009
409.2217, 2345.813
409.7039, 2458.898
410.1860, 2571.893
410.6681, 2678.373
411.1502, 2787.690
411.6323, 2911.301
412.1144, 3047.700
412.5966, 3179.242
413.0787, 3289.083
413.5608, 3392.661
414.0429, 3519.131
414.5250, 3673.515
415.0071, 3825.507
415.4893, 3949.373
415.9714, 4049.660
416.4535, 4159.292
416.9356, 4273.798
417.4177, 4402.204
417.8998, 4560.592
418.3820, 4738.479
418.8641, 4909.468
419.3462, 5063.475
419.8283, 5198.033
420.3104, 5302.864
420.7925, 5355.332
421.2747, 5417.270
421.7568, 5516.124
422.2389, 5616.762
422.7210, 5682.141
423.2031, 5705.006
423.6852, 5703.420
424.1674, 5699.676
424.6495, 5699.612
425.1316, 5669.382
425.6137, 5603.619
426.0958, 5517.878
426.5779, 5408.576
427.0601, 5284.152
427.5422, 5159.964
428.0243, 5045.895
428.5064, 4940.026
428.9885, 4831.198
429.4706, 4710.437
429.9528, 4601.384
430.4349, 4509.664
430.9170, 4429.029
431.3991, 4353.366
431.8812, 4280.603
432.3633, 4215.048
432.8455, 4166.535
433.3276, 4136.058
433.8097, 4096.706
434.2918, 4032.494
434.7739, 3971.884
435.2560, 3933.286
435.7382, 3915.835
436.2203, 3911.656
436.7024, 3925.012
437.1845, 3946.704
437.6666, 3960.520
438.1487, 3965.584
438.6309, 3964.402
439.1130, 3958.954
439.5951, 3947.834
440.0772, 3928.843
440.5593, 3906.134
441.0414, 3870.431
441.5236, 3809.362
442.0057, 3730.858
442.4878, 3658.217
442.9699, 3601.248
443.4520, 3545.512
443.9341, 3464.705
444.4163, 3348.638
444.8984, 3229.883
445.3805, 3107.183
445.8626, 2983.198
446.3447, 2856.624
446.8268, 2729.261
447.3090, 2608.030
447.7911, 2499.283
448.2732, 2402.628
448.7553, 2311.126
449.2374, 2230.554
449.7195, 2148.787
450.2017, 2056.389
450.6838, 1963.255
451.1659, 1885.527
451.6480, 1830.414
452.1301, 1786.183
452.6122, 1728.917
453.0944, 1652.098
453.5765, 1584.215
454.0586, 1532.469
454.5407, 1489.108
455.0228, 1452.095
455.5049, 1420.521
455.9871, 1390.175
456.4692, 1359.588
456.9513, 1328.267
457.4334, 1292.800
457.9156, 1250.735
458.3977, 1211.601
458.8798, 1181.727
459.3619, 1158.952
459.8440, 1140.906
460.3261, 1136.120
460.8083, 1124.662
461.2904, 1080.376
461.7725, 1014.338
462.2546, 967.9628
462.7367, 957.5735
463.2188, 969.7134
463.7010, 986.6183
464.1831, 1017.454
464.6652, 1023.248
465.1473, 973.2712
465.6294, 914.2622
466.1115, 889.4813
466.5937, 898.8996
467.0758, 912.2853
467.5579, 904.5744
468.0400, 877.0204
468.5221, 857.8135
469.0042, 855.6918
469.4864, 852.1731
469.9685, 843.9257
470.4506, 832.4634
470.9327, 817.9380
471.4148, 800.5735
471.8969, 785.6712
472.3791, 784.3293
472.8612, 801.4824
473.3433, 810.4741
473.8254, 810.5979
474.3075, 799.6514
474.7896, 764.0641
475.2718, 712.9272
475.7539, 679.6254
476.2360, 697.1661
476.7181, 741.6774
477.2002, 758.2353
477.6823, 742.3970
478.1645, 724.0668
478.6466, 717.6271
479.1287, 718.4086
479.6108, 717.5539
480.0929, 715.4077
480.5750, 710.0406
481.0572, 696.6252
481.5393, 680.0605
482.0214, 669.8902
482.5035, 668.5911
482.9856, 672.1137
483.4677, 677.1396
483.9499, 684.9492
484.4320, 685.1360
484.9141, 667.8743
485.3962, 652.8532
485.8783, 654.1670
486.3604, 665.6522
486.8426, 671.6528
487.3247, 663.0686
487.8068, 646.2477
488.2889, 640.7781
488.7710, 658.4019
489.2531, 665.4329
489.7353, 651.9572
490.2174, 633.5121
490.6995, 620.1381
491.1816, 613.1924
491.6637, 609.3163
492.1458, 604.6271
492.6280, 599.9645
493.1101, 602.5382
493.5922, 616.1157
494.0743, 628.9616
494.5564, 635.8384
495.0385, 637.6423
495.5207, 634.0080
496.0028, 620.8026
496.4849, 609.6563
496.9670, 614.6048
497.4491, 630.0928
497.9312, 634.6962
498.4134, 620.0733
498.8955, 600.6000
499.3776, 596.2487
499.8597, 610.8185
500.3418, 618.9405
500.8239, 618.3087
501.3061, 611.5477
501.7882, 595.1542
502.2703, 573.4660
502.7524, 558.4451
503.2345, 557.5419
503.7166, 567.7788
504.1988, 578.5053
504.6809, 591.7374
505.1630, 602.1566
505.6451, 610.5322
506.1272, 615.4481
506.6093, 615.6276
507.0915, 611.0021
507.5736, 602.4544
508.0557, 586.5223
508.5378, 565.1695
509.0199, 559.2540
509.5020, 576.6061
509.9842, 594.3484
510.4663, 602.1711
510.9484, 602.7747
511.4305, 598.8421
511.9126, 589.3701
512.3948, 578.8318
512.8769, 571.7176
513.3590, 566.5495
513.8411, 556.6095
514.3232, 538.4008
514.8054, 521.6702
515.2875, 518.5509
515.7696, 531.3749
516.2517, 545.0780
516.7338, 564.8680
517.2159, 580.4163
517.6981, 581.9074
518.1802, 574.1537
518.6623, 569.7180
519.1444, 575.4016
519.6265, 587.1152
520.1086, 593.5001
520.5908, 589.4040
521.0729, 589.9232
521.5550, 603.6317
522.0371, 615.5360
522.5192, 614.0077
523.0013, 600.3201
523.4835, 585.2500
523.9656, 575.1013
524.4477, 570.0679
524.9298, 572.4398
525.4119, 584.7485
525.8940, 595.5464
526.3762, 598.6048
526.8583, 597.5806
527.3404, 597.9774
527.8225, 601.4138
528.3046, 602.3821
528.7867, 594.6395
529.2689, 583.4536
529.7510, 576.8784
530.2331, 576.3446
530.7152, 583.5507
531.1973, 602.7231
531.6794, 634.1230
532.1616, 651.2321
532.6437, 645.7488
533.1258, 637.8766
533.6079, 631.3141
534.0900, 626.9142
534.5721, 625.2339
535.0543, 626.4801
535.5364, 630.5611
536.0185, 636.6893
536.5006, 643.9087
536.9827, 658.2998
537.4648, 688.9437
537.9470, 717.1375
538.4291, 734.0359
538.9112, 742.4374
539.3933, 748.2938
539.8754, 751.5492
540.3575, 757.1357
540.8397, 775.2823
541.3218, 804.2731
541.8039, 822.7631
542.2860, 818.1836
542.7681, 810.7892
543.2502, 834.1377
543.7324, 891.4685
544.2145, 935.8060
544.6966, 949.3545
545.1787, 956.7990
545.6608, 975.9496
546.1429, 1005.326
546.6251, 1036.777
547.1072, 1066.156
547.5893, 1091.977
548.0714, 1109.748
548.5535, 1113.487
549.0356, 1119.459
549.5178, 1131.480
549.9999, 1143.302
550.4820, 1150.142
550.9641, 1152.559
551.4462, 1155.354
551.9283, 1165.184
552.4105, 1176.599
552.8926, 1173.885
553.3747, 1155.967
553.8568, 1128.197
554.3389, 1084.261
554.8210, 1037.123
555.3032, 1006.976
555.7853, 997.2977
556.2674, 989.5181
556.7495, 978.2653
557.2316, 963.8345
557.7137, 945.4011
558.1959, 923.4305
558.6780, 902.2369
559.1601, 885.7500
559.6422, 872.5224
560.1243, 852.2935
560.6064, 811.9355
561.0886, 780.7421
561.5707, 765.2442
562.0528, 757.6793
562.5349, 752.3125
563.0170, 747.5356
563.4991, 743.0217
563.9813, 738.2457
564.4634, 733.3623
564.9455, 729.2393
565.4276, 725.1057
565.9097, 723.5886
566.3918, 728.7266
566.8740, 736.1951
567.3561, 740.3669
567.8382, 739.9171
568.3203, 738.1349
568.8024, 736.1611
569.2845, 734.2559
569.7667, 732.2593
570.2488, 730.2309
570.7309, 730.3076
571.2130, 734.8159
571.6951, 743.4295
572.1772, 749.8730
572.6594, 751.5720
573.1415, 754.3898
573.6236, 757.8942
574.1057, 763.8596
574.5878, 774.9492
575.0699, 791.3337
575.5521, 809.5709
576.0342, 825.1329
576.5163, 838.4145
576.9984, 858.1880
577.4805, 890.8138
577.9626, 917.2918
578.4448, 919.2555
578.9269, 912.4141
579.4090, 918.8445
579.8911, 945.4938
580.3732, 975.8080
580.8553, 999.1049
581.3375, 1019.485
581.8196, 1045.758
582.3017, 1079.295
582.7838, 1112.906
583.2659, 1140.803
583.7480, 1163.032
584.2302, 1182.960
584.7123, 1209.819
585.1944, 1223.038
585.6765, 1210.179
586.1586, 1186.566
586.6407, 1166.621
587.1229, 1154.121
587.6050, 1145.907
588.0871, 1139.542
588.5692, 1134.883
589.0513, 1128.783
589.5334, 1116.134
590.0156, 1113.928
590.4977, 1138.479
590.9798, 1175.916
591.4619, 1205.981
591.9440, 1222.894
592.4261, 1244.391
592.9083, 1283.629
593.3904, 1331.462
593.8725, 1370.717
594.3546, 1400.381
594.8367, 1440.266
595.3188, 1508.408
595.8010, 1600.523
596.2831, 1680.413
596.7652, 1736.682
597.2473, 1794.508
597.7294, 1842.648
598.2115, 1901.875
598.6937, 1997.288
599.1758, 2127.245
599.6579, 2261.868
600.1400, 2378.579
600.6221, 2479.128
601.1042, 2572.511
601.5864, 2662.954
602.0685, 2726.897
602.5506, 2750.395
603.0327, 2741.622
603.5148, 2724.546
603.9969, 2709.320
604.4791, 2646.443
604.9612, 2488.875
605.4433, 2297.102
605.9254, 2128.129
606.4075, 1983.838
606.8896, 1842.527
607.3718, 1689.183
607.8539, 1531.788
608.3360, 1400.489
608.8181, 1305.681
609.3002, 1217.334
609.7823, 1132.065
610.2645, 1052.498
610.7466, 981.3965
611.2287, 918.0966
611.7108, 858.9738
612.1929, 797.8753
612.6750, 743.7609
613.1572, 715.0510
613.6393, 710.3073
614.1214, 705.1851
614.6035, 693.1145
615.0856, 673.7976
615.5677, 643.7401
616.0499, 598.5527
616.5320, 566.1456
617.0141, 554.9643
617.4962, 549.8304
617.9783, 543.3242
618.4604, 536.5914
618.9426, 533.9946
619.4247, 537.4064
619.9068, 542.2357
620.3889, 541.3248
620.8710, 534.2692
621.3531, 523.6634
621.8353, 503.9770
622.3174, 488.7172
622.7995, 489.0401
623.2816, 498.2262
623.7637, 502.3970
624.2458, 496.2278
624.7280, 488.1868
625.2101, 485.7474
625.6922, 485.2384
626.1743, 476.9797
626.6564, 459.2703
627.1385, 443.3645
627.6207, 439.6868
628.1028, 447.9256
628.5849, 457.7059
629.0670, 479.0770
629.5491, 489.3673
630.0313, 476.6002
630.5134, 456.8845
630.9955, 444.0078
631.4776, 440.6175
631.9597, 442.9209
632.4418, 450.3924
632.9240, 460.9151
633.4061, 468.1033
633.8882, 471.6213
634.3703, 474.9188
634.8524, 480.0717
635.3345, 485.4124
635.8167, 487.7136
636.2988, 486.9960
636.7809, 484.1325
637.2630, 481.6950
637.7451, 475.1228
638.2272, 454.4964
638.7094, 426.9017
639.1915, 410.2666
639.6736, 414.3709
640.1557, 432.1456
640.6378, 451.8626
641.1199, 475.6801
641.6021, 491.2433
642.0842, 497.4437
642.5663, 494.5400
643.0484, 478.3347
643.5305, 454.0503
644.0126, 434.6320
644.4948, 420.3624
644.9769, 416.5124
645.4590, 436.3793
645.9411, 467.2760
646.4232, 481.3866
646.9053, 473.2621
647.3875, 461.0172
647.8696, 463.2545
648.3517, 478.9885
648.8338, 480.4664
649.3159, 446.4632
649.7980, 426.9429
650.2802, 443.5823
650.7623, 468.2903
651.2444, 473.4775
651.7265, 457.2881
652.2086, 442.5721
652.6907, 451.2957
653.1729, 470.0205
653.6550, 469.9464
654.1371, 451.5174
654.6192, 435.5789
655.1013, 429.7587
655.5834, 433.2522
656.0656, 447.2837
656.5477, 482.0355
657.0298, 496.5282
657.5119, 471.2967
657.9940, 445.1135
658.4761, 437.4299
658.9583, 442.9843
659.4404, 450.4344
659.9225, 455.1454
660.4046, 459.3465
660.8867, 468.1184
661.3688, 480.7180
661.8510, 484.8078
662.3331, 477.8919
662.8152, 465.9593
663.2974, 448.1844
663.7795, 429.0436
664.2616, 420.8247
664.7437, 429.1665
665.2258, 438.4134
665.7079, 445.5178
666.1901, 450.0306
666.6722, 451.4859
667.1543, 449.8333
667.6364, 444.1770
668.1185, 432.8460
668.6006, 419.7739
669.0828, 417.3072
669.5649, 428.2031
670.0470, 440.3214
670.5291, 458.8273
671.0112, 470.2927
671.4933, 457.1206
671.9755, 427.1827
672.4576, 413.2749
672.9397, 440.6425
673.4218, 470.2931
673.9039, 474.1937
674.3860, 461.9452
674.8682, 450.0148
675.3503, 442.9206
675.8324, 441.2874
676.3145, 447.2741
676.7966, 460.2625
677.2787, 462.8998
677.7609, 446.8551
678.2430, 434.0709
678.7251, 431.8457
679.2072, 432.9626
679.6893, 431.0645
680.1714, 425.7496
680.6536, 421.3879
681.1357, 417.8317
681.6178, 418.0343
682.0999, 429.4950
682.5820, 448.9936
683.0641, 461.4841
683.5463, 460.5619
684.0284, 455.1662
684.5105, 459.2317
684.9926, 476.5834
685.4747, 484.2847
685.9568, 470.5981
686.4390, 460.5226
686.9211, 465.1965
687.4032, 475.2193
687.8853, 477.4916
688.3674, 468.8585
688.8495, 460.5840
689.3317, 464.2438
689.8138, 473.4629
690.2959, 472.9176
690.7780, 462.5218
691.2601, 458.2935
691.7422, 470.7263
692.2244, 488.9222
692.7065, 488.2722
693.1886, 454.0475
693.6707, 435.5990
694.1528, 445.8633
694.6349, 457.1750
695.1171, 454.9875
695.5992, 445.3668
696.0813, 440.1618
696.5634, 443.8910
697.0455, 450.8798
697.5276, 453.7737
698.0098, 455.0499
698.4919, 467.7383
698.9740, 494.6203
699.4561, 508.5819
699.9382, 488.1747
700.4203, 446.5008
700.9025, 423.6476
701.3846, 433.0411
701.8667, 440.0992
702.3488, 441.5747
702.8309, 443.1878
703.3130, 448.6970
703.7952, 457.1900
704.2773, 466.6972
704.7594, 477.1843
705.2415, 484.7601
705.7236, 481.4053
706.2057, 469.8573
706.6879, 465.8672
707.1700, 472.7184
707.6521, 480.0848
708.1342, 481.7603
708.6163, 477.7488
709.0984, 467.8425
709.5806, 438.8828
710.0627, 422.8726
710.5448, 425.4650
711.0269, 438.7454
711.5090, 468.0634
711.9911, 503.1790
712.4733, 517.1870
712.9554, 490.5346
713.4375, 452.9878
713.9196, 452.5550
714.4017, 482.9933
714.8839, 501.0017
715.3660, 497.9506
715.8481, 488.9477
716.3302, 485.1502
716.8123, 485.5018
717.2944, 483.1602
717.7766, 471.1444
718.2587, 466.3019
718.7408, 475.9038
719.2229, 488.7790
719.7050, 497.3680
720.1871, 501.4170
720.6693, 504.2746
721.1514, 508.7544
721.6335, 510.5769
722.1156, 498.4630
722.5977, 475.8607
723.0798, 467.2421
723.5620, 478.5917
724.0441, 496.7659
724.5262, 513.6877
725.0083, 528.3284
725.4904, 532.8456
725.9725, 515.2856
726.4547, 504.3132
726.9368, 510.0915
727.4189, 517.1646
727.9010, 507.7008
728.3831, 488.3312
728.8652, 484.7748
729.3474, 516.7355
729.8295, 557.0872
730.3116, 566.4830
730.7937, 551.5689
731.2758, 544.1617
731.7579, 550.6523
732.2401, 560.0167
732.7222, 564.2784
733.2043, 563.6558
733.6864, 559.4986
734.1685, 538.6151
734.6506, 533.0811
735.1328, 559.3088
735.6149, 588.3004
736.0970, 602.2954
736.5791, 601.7432
737.0612, 593.0899
737.5433, 575.8794
738.0255, 559.0824
738.5076, 552.7750
738.9897, 554.8215
739.4718, 559.6216
739.9539, 566.1910
740.4360, 575.1344
740.9182, 588.4167
741.4003, 603.0905
741.8824, 604.4152
742.3645, 573.8417
742.8466, 563.6108
743.3287, 597.6014
743.8109, 631.9753
744.2930, 639.0084
744.7751, 626.6647
745.2572, 618.1640
745.7393, 623.4760
746.2214, 630.0500
746.7036, 624.5062
747.1857, 614.5687
747.6678, 615.6589
748.1499, 628.7040
748.6320, 642.6321
749.1141, 649.6367
749.5963, 653.2571
750.0784, 664.6649
750.5605, 688.2402
751.0426, 707.0704
751.5247, 719.7997
752.0068, 727.6367
752.4890, 727.4683
752.9711, 723.8922
753.4532, 726.7208
753.9353, 740.7783
754.4174, 753.4541
754.8995, 754.8397
755.3817, 753.7995
755.8638, 763.6324
756.3459, 781.5935
756.8280, 792.2834
757.3101, 786.8544
757.7922, 775.3628
758.2744, 775.9627
758.7565, 789.3329
759.2386, 810.5161
759.7207, 848.1495
760.2028, 874.6854
760.6849, 868.1072
761.1671, 842.8459
761.6492, 827.3101
762.1313, 823.3861
762.6134, 824.1300
763.0955, 830.6328
763.5776, 838.8569
764.0598, 847.3635
764.5419, 855.0289
765.0240, 860.6229
765.5061, 863.5901
765.9882, 863.4281
766.4703, 855.8074
766.9525, 843.6276
767.4346, 847.1962
767.9167, 870.2231
768.3988, 879.5410
768.8809, 855.2528
769.3630, 817.4685
769.8452, 800.2704
770.3273, 812.5662
770.8094, 811.3955
771.2915, 782.9877
771.7736, 757.4473
772.2557, 747.4876
772.7379, 745.4041
773.2200, 741.5142
773.7021, 733.9797
774.1842, 727.7582
774.6663, 729.6359
775.1484, 733.2378
775.6306, 728.6707
776.1127, 716.6565
776.5948, 698.9150
777.0769, 675.4263
777.5590, 654.6608
778.0411, 647.0227
778.5233, 652.2855
779.0054, 654.7791
779.4875, 654.6769
779.9696, 651.4260
780.4517, 643.8022
780.9338, 633.9180
781.4160, 620.6910
781.8981, 605.7670
782.3802, 597.1666
782.8623, 603.5895
783.3444, 610.3846
783.8265, 608.6691
784.3087, 601.1475
784.7908, 588.2560
785.2729, 572.4507
785.7550, 564.0954
786.2371, 572.3192
786.7192, 589.7403
787.2014, 597.4283
787.6835, 594.9882
788.1656, 585.2171
788.6477, 563.1493
789.1298, 545.7452
789.6119, 551.2236
790.0941, 570.9399
790.5762, 570.5168
791.0583, 530.6715
791.5404, 505.5916
792.0225, 518.4584
792.5046, 534.5798
792.9868, 525.2330
793.4689, 500.9097
793.9510, 489.6602
794.4331, 503.7112
794.9152, 521.4074
795.3973, 517.6254
795.8795, 501.0667
796.3616, 494.7822
796.8437, 499.6559
797.3258, 504.6544
797.8079, 504.6023
798.2900, 501.8521
798.7722, 500.4510
799.2543, 500.8986
799.7364, 500.2984
800.2185, 502.2623
800.7006, 497.9928
801.1827, 476.6854
801.6649, 453.3255
802.1470, 445.0369
802.6291, 453.1055
803.1112, 462.5192
803.5933, 467.5059
804.0754, 471.9754
804.5576, 484.1839
805.0397, 496.0273
805.5218, 489.1890
806.0039, 462.4405
806.4860, 437.4479
806.9681, 433.6403
807.4503, 445.1650
807.9324, 454.4137
808.4145, 461.1944
808.8966, 470.7433
809.3787, 486.5443
809.8608, 499.0268
810.3430, 499.0302
810.8251, 488.3071
811.3072, 479.3735
811.7893, 468.3769
812.2714, 464.6252
812.7535, 475.1158
813.2357, 487.2818
813.7178, 494.8815
814.1999, 497.2318
814.6820, 493.0759
815.1641, 479.9863
815.6462, 469.7172
816.1284, 478.6947
816.6105, 493.4810
817.0926, 487.7870
817.5747, 464.6228
818.0568, 448.5648
818.5389, 451.4499
819.0211, 463.6096
819.5032, 471.2854
819.9853, 474.6240
820.4674, 469.5868
820.9495, 451.8569
821.4316, 436.3076
821.9138, 427.5452
822.3959, 424.3094
822.8780, 425.5941
823.3601, 431.4358
823.8422, 438.5646
824.3243, 451.6065
824.8065, 459.8903
825.2886, 456.7897
825.7707, 448.4369
826.2528, 439.1870
826.7349, 431.2722
827.2170, 429.2806
827.6992, 438.6407
828.1813, 451.0901
828.6635, 454.8730
829.1456, 452.3354
829.6277, 449.8667
830.1098, 448.7191
830.5919, 452.3452
831.0740, 464.3063
831.5562, 480.1230
832.0383, 486.4961
832.5204, 481.4995
833.0025, 473.1961
833.4846, 457.8288
833.9667, 445.1289
834.4489, 441.9402
834.9310, 443.9368
835.4131, 445.9549
835.8952, 448.9260
836.3773, 446.1220
836.8594, 420.5396
837.3416, 404.3732
837.8237, 430.1308
838.3058, 473.4828
838.7879, 493.7597
839.2700, 482.6809
839.7521, 466.7275
840.2343, 469.0652
840.7164, 480.1479
841.1985, 479.9569
841.6806, 471.3115
842.1627, 472.3758
842.6448, 488.1022
843.1270, 499.1272
843.6091, 485.6717
844.0912, 454.2766
844.5733, 441.8208
845.0554, 458.4061
845.5375, 466.2853
846.0197, 452.1492
846.5018, 439.4995
846.9839, 449.3549
847.4660, 469.9156
847.9481, 473.8690
848.4302, 448.3791
848.9124, 433.7081
849.3945, 454.1500
849.8766, 476.1129
850.3587, 471.4531
850.8408, 452.3987
851.3229, 445.7780
851.8051, 459.1238
852.2872, 472.3708
852.7693, 461.3629
853.2514, 441.0625
853.7335, 444.9758
854.2156, 468.0056
854.6978, 481.9262
855.1799, 478.4548
855.6620, 466.4696
856.1441, 453.0765
856.6262, 439.8984
857.1083, 439.7368
857.5905, 457.9617
858.0726, 472.4526
858.5547, 479.3914
859.0368, 482.3646
859.5189, 482.4867
860.0010, 480.6587
860.4832, 479.2082
860.9653, 476.2580
861.4474, 477.7186
861.9295, 495.7686
862.4116, 507.6922
862.8937, 490.9386
863.3759, 460.2988
863.8580, 441.1165
864.3401, 440.8599
864.8222, 451.7412
865.3043, 475.4560
865.7864, 501.8741
866.2686, 517.0101
866.7507, 522.2793
867.2328, 522.0903
867.7149, 517.9638
868.1970, 511.7630
868.6791, 504.2527
869.1613, 497.1257
869.6434, 498.3493
870.1255, 509.1179
870.6076, 520.4661
871.0897, 533.4891
871.5718, 540.3835
872.0540, 533.3893
872.5361, 516.4057
873.0182, 503.0092
873.5003, 491.1104
873.9824, 486.8484
874.4645, 497.8661
874.9467, 508.1850
875.4288, 510.2318
875.9109, 507.0719
876.3930, 501.9784
876.8751, 495.5604
877.3572, 493.4815
877.8394, 500.4879
878.3215, 511.1019
878.8036, 522.9202
879.2857, 534.3277
879.7678, 543.9755
880.2499, 550.9511
880.7321, 551.8777
881.2142, 541.5495
881.6963, 529.1493
882.1784, 535.1854
882.6605, 557.0319
883.1426, 576.9210
883.6248, 592.6816
884.1069, 600.8483
884.5890, 598.6433
885.0711, 588.7752
885.5532, 575.2860
886.0353, 552.7236
886.5175, 549.8398
886.9996, 581.2543
887.4817, 608.3730
887.9638, 614.4415
888.4459, 609.9606
888.9280, 603.6381
889.4102, 595.5114
889.8923, 597.4614
890.3744, 622.5399
890.8565, 643.8152
891.3386, 650.6531
891.8207, 650.1581
892.3029, 644.3537
892.7850, 637.5896
893.2671, 640.9651
893.7492, 662.0826
894.2313, 686.3072
894.7134, 699.8203
895.1956, 708.6476
895.6777, 723.9949
896.1598, 744.4429
896.6419, 759.7706
897.1240, 765.7162
897.6061, 769.6569
898.0883, 779.8589
898.5704, 796.3258
899.0525, 820.9644
899.5346, 854.4032
900.0167, 884.3658
900.4988, 907.5803
900.9810, 924.8857
901.4631, 935.1759
901.9452, 940.2339
902.4273, 952.5876
902.9094, 972.0101
903.3915, 999.0437
903.8737, 1034.905
904.3558, 1077.256
904.8379, 1123.831
905.3200, 1176.006
905.8021, 1237.790
906.2842, 1311.110
906.7664, 1385.293
907.2485, 1457.371
907.7306, 1529.911
908.2127, 1599.205
908.6948, 1672.620
909.1769, 1764.138
909.6591, 1872.298
910.1412, 1973.562
910.6233, 2037.168
911.1054, 2111.649
911.5875, 2259.138
912.0696, 2450.357
912.5518, 2633.950
913.0339, 2803.311
913.5160, 2967.318
913.9981, 3129.908
914.4802, 3300.582
914.9623, 3494.989
915.4445, 3712.043
915.9266, 3943.672
916.4087, 4190.563
916.8908, 4431.281
917.3729, 4653.430
917.8550, 4876.936
918.3372, 5127.101
918.8193, 5400.768
919.3014, 5655.178
919.7835, 5886.256
920.2656, 6104.073
920.7477, 6310.732
921.2299, 6504.971
921.7120, 6693.757
922.1941, 6869.391
922.6762, 7014.211
923.1583, 7135.203
923.6404, 7205.892
924.1226, 7208.557
924.6047, 7175.961
925.0868, 7123.575
925.5689, 7046.331
926.0510, 6931.923
926.5331, 6780.784
927.0153, 6614.926
927.4974, 6443.194
927.9795, 6263.864
928.4616, 6074.187
928.9437, 5877.611
929.4258, 5678.107
929.9080, 5479.088
930.3901, 5284.878
930.8722, 5097.634
931.3543, 4924.290
931.8364, 4773.620
932.3185, 4642.948
932.8007, 4519.930
933.2828, 4406.816
933.7649, 4327.388
934.2470, 4290.293
934.7291, 4269.206
935.2112, 4233.792
935.6934, 4189.659
936.1755, 4170.737
936.6576, 4180.274
937.1397, 4187.385
937.6218, 4180.188
938.1039, 4190.948
938.5861, 4246.181
939.0682, 4330.858
939.5503, 4404.198
940.0324, 4462.920
940.5145, 4519.584
940.9966, 4568.539
941.4788, 4622.784
941.9609, 4686.733
942.4430, 4757.287
942.9251, 4831.897
943.4072, 4910.268
943.8893, 4992.088
944.3715, 5077.470
944.8536, 5165.708
945.3357, 5251.466
945.8178, 5344.503
946.2999, 5461.887
946.7820, 5590.771
947.2642, 5702.357
947.7463, 5786.341
948.2284, 5862.619
948.7105, 5935.521
949.1926, 6012.383
949.6747, 6112.626
950.1569, 6217.232
950.6390, 6287.835
951.1211, 6320.018
951.6032, 6345.329
952.0853, 6391.792
952.5674, 6430.272
953.0496, 6414.349
953.5317, 6355.209
954.0138, 6283.378
954.4959, 6202.114
954.9780, 6109.832
955.4601, 6007.122
955.9423, 5878.646
956.4244, 5697.172
956.9065, 5468.849
957.3886, 5250.895
957.8707, 5044.646
958.3528, 4826.340
958.8350, 4589.325
959.3171, 4348.149
959.7992, 4115.506
960.2813, 3890.531
960.7634, 3663.995
961.2455, 3430.000
961.7277, 3215.907
962.2098, 3024.638
962.6919, 2850.094
963.1740, 2689.599
963.6561, 2542.692
964.1382, 2406.631
964.6204, 2280.819
965.1025, 2175.431
965.5846, 2109.232
966.0667, 2037.501
966.5488, 1947.596
967.0309, 1854.102
967.5131, 1759.424
967.9952, 1670.739
968.4773, 1606.003
968.9594, 1573.753
969.4415, 1546.331
969.9236, 1517.077
970.4058, 1487.564
970.8879, 1455.993
971.3700, 1426.313
971.8521, 1406.231
972.3342, 1394.549
972.8163, 1378.292
973.2985, 1346.975
973.7806, 1315.934
974.2627, 1300.538
974.7448, 1290.703
975.2269, 1275.082
975.7090, 1252.675
976.1912, 1226.700
976.6733, 1198.039
977.1554, 1160.123
977.6375, 1097.393
978.1196, 1025.986
978.6017, 974.1804
979.0839, 938.8830
979.5660, 911.7051
980.0481, 890.2305
980.5302, 870.0027
981.0123, 848.2527
981.4944, 826.0109
981.9766, 805.9954
982.4587, 787.4989
982.9408, 763.0524
983.4229, 732.3961
983.9050, 705.8578
984.3871, 687.0479
984.8693, 674.2476
985.3514, 666.1128
985.8335, 661.9850
986.3156, 659.7662
986.7977, 661.4700
987.2798, 650.7474
987.7620, 620.0897
988.2441, 593.7706
988.7262, 585.1227
989.2083, 589.3826
989.6904, 600.0654
990.1725, 619.7427
990.6547, 626.5844
991.1368, 614.3935
991.6189, 601.0291
992.1011, 588.7407
992.5832, 578.2531
993.0653, 570.1760
993.5474, 564.4794
994.0295, 561.2060
994.5117, 562.4264
994.9938, 561.6166
995.4759, 556.9002
995.9580, 552.0563
996.4401, 547.9973
996.9222, 544.9049
997.4044, 544.3024
997.8865, 545.5901
998.3686, 542.7720
998.8507, 524.7225
999.3328, 516.0009
999.8149, 534.6109
1000.297, 554.6318
1000.779, 554.5685
1001.261, 543.0607
1001.743, 538.8455
1002.226, 546.2220
1002.708, 549.7162
1003.190, 534.8409
1003.672, 521.9754
1004.154, 531.9955
1004.636, 546.2737
1005.118, 535.4477
1005.600, 507.1817
1006.082, 496.8911
1006.565, 521.9319
1007.047, 548.8950
1007.529, 552.4196
1008.011, 543.3545
1008.493, 528.0528
1008.975, 511.8824
1009.457, 504.5830
1009.939, 507.3346
1010.422, 513.6414
1010.904, 519.6874
1011.386, 526.0604
1011.868, 532.7150
1012.350, 540.5641
1012.832, 554.8557
1013.314, 572.4718
1013.796, 578.4020
1014.278, 568.4521
1014.761, 559.7119
1015.243, 570.5510
1015.725, 591.7435
1016.207, 603.4401
1016.689, 607.6053
1017.171, 611.9372
1017.653, 617.4424
1018.135, 621.1782
1018.617, 621.2703
1019.100, 624.7722
1019.582, 645.1746
1020.064, 677.6939
1020.546, 693.6328
1021.028, 694.0513
1021.510, 706.6660
1021.992, 738.0364
1022.474, 770.7846
1022.957, 793.4998
1023.439, 807.2863
1023.921, 810.9711
1024.403, 803.8534
1024.885, 813.1331
1025.367, 842.4777
1025.849, 860.7362
1026.331, 857.1159
1026.813, 845.3796
1027.296, 839.4227
1027.778, 834.8101
1028.260, 809.6092
1028.742, 754.0449
1029.224, 730.9448
1029.706, 757.5690
1030.188, 770.5176
1030.670, 740.1857
1031.152, 691.5129
1031.635, 652.5182
1032.117, 623.0960
1032.599, 601.1047
1033.081, 589.1872
1033.563, 577.5140
1034.045, 564.3299
1034.527, 552.6418
1035.009, 541.9974
1035.492, 535.7670
1035.974, 541.8282
1036.456, 562.4998
1036.938, 570.6251
1037.420, 562.4513
1037.902, 548.0894
1038.384, 521.1566
1038.866, 497.7519
1039.349, 489.9777
1039.831, 492.4530
1040.313, 493.6539
1040.795, 493.6902
1041.277, 492.0304
1041.759, 482.7554
1042.241, 479.7777
1042.723, 492.4138
1043.205, 506.6385
1043.688, 510.1649
1044.170, 506.6546
1044.652, 509.1350
1045.134, 524.2597
1045.616, 529.8172
1046.098, 521.8967
1046.580, 506.8260
1047.062, 476.1298
1047.544, 447.4526
1048.027, 440.7346
1048.509, 452.2153
1048.991, 459.2527
1049.473, 453.1491
1049.955, 453.7491
1050.437, 475.2223
1050.919, 491.6514
1051.401, 479.9012
1051.884, 463.0203
1052.366, 475.9596
1052.848, 515.6117
1053.330, 533.2889
1053.812, 499.2503
1054.294, 472.2971
1054.776, 473.1441
1055.258, 478.5329
1055.740, 476.1917
1056.223, 468.1736
1056.705, 456.2909
1057.187, 441.5206
1057.669, 433.4249
1058.151, 437.3066
1058.633, 444.8086
1059.115, 459.3599
1059.597, 470.4301
1060.079, 464.9982
1060.562, 452.5560
1061.044, 450.9019
1061.526, 463.1862
1062.008, 475.4371
1062.490, 485.4587
1062.972, 491.0573
1063.454, 489.0289
1063.936, 484.2131
1064.419, 478.8604
1064.901, 474.4981
1065.383, 474.2370
1065.865, 479.0888
1066.347, 481.8658
1066.829, 478.0534
1067.311, 473.5648
1067.793, 467.4140
1068.276, 465.2906
1068.758, 479.5444
1069.240, 501.0618
1069.722, 504.0422
1070.204, 478.6788
1070.686, 462.4946
1071.168, 478.7651
1071.650, 500.6888
1072.132, 518.6152
1072.615, 529.7733
1073.097, 526.5008
1073.579, 514.9514
1074.061, 513.1967
1074.543, 528.4135
1075.025, 542.5878
1075.507, 546.6484
1075.989, 548.1335
1076.472, 549.8973
1076.954, 552.9315
1077.436, 557.9312
1077.918, 565.0057
1078.400, 573.8157
1078.882, 583.7107
1079.364, 597.9028
1079.846, 622.8683
1080.328, 647.0427
1080.811, 660.4984
1081.293, 670.4673
1081.775, 684.6258
1082.257, 703.7108
1082.739, 725.6127
1083.221, 748.8895
1083.703, 777.3044
1084.185, 812.5567
1084.667, 853.3776
1085.150, 901.5193
1085.632, 953.0599
1086.114, 1002.811
1086.596, 1051.071
1087.078, 1101.745
1087.560, 1156.066
1088.042, 1212.894
1088.524, 1267.125
1089.007, 1328.128
1089.489, 1404.257
1089.971, 1488.852
1090.453, 1574.484
1090.935, 1660.728
1091.417, 1752.806
1091.899, 1852.109
1092.381, 1956.794
1092.864, 2073.250
1093.346, 2188.350
1093.828, 2305.862
1094.310, 2409.788
1094.792, 2473.991
1095.274, 2504.697
1095.756, 2543.023
1096.238, 2617.241
1096.720, 2660.088
1097.203, 2645.490
1097.685, 2598.834
1098.167, 2523.309
1098.649, 2431.238
1099.131, 2339.737
1099.613, 2245.858
1100.095, 2122.124
1100.577, 1939.614
1101.059, 1775.687
1101.542, 1658.603
1102.024, 1554.804
1102.506, 1448.090
1102.988, 1345.390
1103.470, 1255.929
1103.952, 1178.689
1104.434, 1103.647
1104.916, 1027.516
1105.399, 956.1173
1105.881, 880.2305
1106.363, 821.4825
1106.845, 803.6546
1107.327, 797.2697
1107.809, 766.2125
1108.291, 715.9058
1108.773, 686.0425
1109.255, 696.4396
1109.738, 695.7425
1110.220, 667.9285
1110.702, 642.7016
1111.184, 637.0654
1111.666, 634.5251
1112.148, 613.8663
1112.630, 580.2811
1113.112, 563.8486
1113.594, 577.2856
1114.077, 583.7422
1114.559, 578.3721
1115.041, 572.7689
1115.523, 571.1078
1116.005, 570.0089
1116.487, 567.5810
1116.969, 563.1083
1117.451, 553.1060
1117.934, 534.0985
1118.416, 518.5502
1118.898, 504.4131
1119.380, 498.3223
1119.862, 508.3316
1120.344, 517.8255
1120.826, 510.3810
1121.308, 492.1479
1121.791, 483.9700
1122.273, 489.6250
1122.755, 490.2050
1123.237, 483.4672
1123.719, 477.9894
1124.201, 475.5882
1124.683, 476.7091
1125.165, 483.1546
1125.647, 491.5512
1126.130, 492.9147
1126.612, 486.6016
1127.094, 478.0158
1127.576, 466.1636
1128.058, 456.4133
1128.540, 448.5013
1129.022, 452.8896
1129.504, 481.0212
1129.986, 515.1580
1130.469, 516.7544
1130.951, 487.1941
1131.433, 464.4277
1131.915, 448.4508
1132.397, 444.7596
1132.879, 454.8664
1133.361, 466.4461
1133.843, 472.1139
1134.326, 473.3523
1134.808, 470.6141
1135.290, 465.7480
1135.772, 468.8253
1136.254, 478.5861
1136.736, 488.7989
1137.218, 497.3441
1137.700, 493.7169
1138.182, 472.1524
1138.665, 447.2361
1139.147, 436.5415
1139.629, 436.1745
1140.111, 439.8591
1140.593, 445.8279
1141.075, 450.5190
1141.557, 452.3179
1142.039, 444.8293
1142.521, 426.0014
1143.004, 410.2123
1143.486, 412.2575
1143.968, 423.2210
1144.450, 432.9396
1144.932, 441.8369
1145.414, 452.6320
1145.896, 462.8908
1146.378, 465.0092
1146.861, 457.4033
1147.343, 448.2867
1147.825, 443.1902
1148.307, 438.6832
1148.789, 426.8398
1149.271, 418.2581
1149.753, 432.5912
1150.235, 455.7499
1150.718, 456.5372
1151.200, 433.1225
1151.682, 418.8505
1152.164, 435.5943
1152.646, 449.7039
1153.128, 438.7021
1153.610, 425.7262
1154.092, 428.0642
1154.574, 437.5593
1155.057, 443.9082
1155.539, 445.8391
1156.021, 444.1668
1156.503, 434.6327
1156.985, 431.9240
1157.467, 451.1217
1157.949, 462.9145
1158.431, 445.8005
1158.913, 423.4579
1159.396, 419.8230
1159.878, 430.3386
1160.360, 435.1667
1160.842, 430.6113
1161.324, 429.8821
1161.806, 435.3381
1162.288, 440.6497
1162.770, 443.9266
1163.253, 447.7279
1163.735, 455.5792
1164.217, 463.6613
1164.699, 463.3676
1165.181, 454.0282
1165.663, 444.6086
1166.145, 433.9223
1166.627, 428.6885
1167.109, 431.4785
1167.592, 433.9677
1168.074, 431.7582
1168.556, 426.0730
1169.038, 416.2874
1169.520, 405.5611
1170.002, 417.0164
1170.484, 449.4824
1170.966, 466.6798
1171.448, 465.1710
1171.931, 462.1130
1172.413, 464.4044
1172.895, 462.2230
1173.377, 442.7978
1173.859, 419.5140
1174.341, 423.0121
1174.823, 444.7190
1175.305, 463.7347
1175.788, 477.2645
1176.270, 479.4796
1176.752, 470.7567
1177.234, 463.7471
1177.716, 466.6976
1178.198, 474.0868
1178.680, 480.2776
1179.162, 487.1112
1179.645, 503.8510
1180.127, 519.4189
1180.609, 506.6093
1181.091, 472.4579
1181.573, 455.9602
1182.055, 474.1385
1182.537, 495.8456
1183.019, 509.2036
1183.501, 513.8169
1183.984, 501.5686
1184.466, 487.2667
1184.948, 488.6679
1185.430, 498.3109
1185.912, 494.7340
1186.394, 472.9774
1186.876, 463.0523
1187.358, 484.3409
1187.840, 498.0566
1188.323, 486.2408
1188.805, 475.6943
1189.287, 488.4913
1189.769, 505.8155
1190.251, 500.6800
1190.733, 475.6100
1191.215, 461.8428
1191.697, 463.2494
1192.180, 465.6949
1192.662, 469.0192
1193.144, 472.5289
1193.626, 476.4601
1194.108, 479.1984
1194.590, 479.2994
1195.072, 477.1725
1195.554, 473.0674
1196.036, 467.0248
1196.519, 466.5833
1197.001, 471.5443
1197.483, 468.2739
1197.965, 454.1603
1198.447, 440.4178
1198.929, 433.3017
1199.411, 435.2234
1199.893, 457.0517
1200.375, 485.3350
1200.858, 486.6931
1201.340, 470.6064
1201.822, 459.7523
1202.304, 455.3167
1202.786, 449.2666
1203.268, 439.1029
1203.750, 429.2946
1204.232, 420.1349
1204.715, 417.5687
1205.197, 433.5716
1205.679, 452.5027
1206.161, 458.0113
1206.643, 455.2075
1207.125, 453.5521
1207.607, 454.1593
1208.089, 453.8148
1208.572, 453.1487
1209.054, 447.2214
1209.536, 422.9671
1210.018, 407.9461
1210.500, 423.3138
1210.982, 444.5512
1211.464, 449.2765
1211.946, 443.0171
1212.428, 441.1481
1212.911, 443.8986
1213.393, 450.4728
1213.875, 467.6780
1214.357, 469.5354
1214.839, 444.1249
1215.321, 426.3475
1215.803, 436.8101
1216.285, 454.7081
1216.767, 453.4579
1217.250, 437.2156
1217.732, 421.3581
1218.214, 406.4701
1218.696, 409.5944
1219.178, 429.8595
1219.660, 438.0736
1220.142, 426.5966
1220.624, 419.3638
1221.107, 434.8650
1221.589, 455.6281
1222.071, 454.4949
1222.553, 443.8965
1223.035, 449.0660
1223.517, 460.5898
1223.999, 453.7627
1224.481, 432.9370
1224.964, 426.0030
1225.446, 442.9477
1225.928, 456.4526
1226.410, 442.5068
1226.892, 430.2941
1227.374, 445.0018
1227.856, 460.1913
1228.338, 449.5936
1228.820, 427.3043
1229.302, 415.1728
1229.785, 415.0184
1230.267, 419.8200
1230.749, 434.7226
1231.231, 443.6347
1231.713, 448.3026
1232.195, 442.6822
1232.677, 416.6505
1233.159, 393.3849
1233.642, 391.4399
1234.124, 403.9399
1234.606, 417.9294
1235.088, 433.3379
1235.570, 433.1181
1236.052, 416.5876
1236.534, 403.0307
1237.016, 395.3726
1237.499, 396.9264
1237.981, 409.2601
1238.463, 425.9076
1238.945, 443.6005
1239.427, 454.4403
1239.909, 433.7331
1240.391, 401.2388
1240.873, 398.9739
1241.355, 419.1782
1241.838, 442.5555
1242.320, 460.8055
1242.802, 459.5274
1243.284, 428.2377
1243.766, 399.6260
1244.248, 392.9304
1244.730, 395.9984
1245.212, 405.3584
1245.695, 417.3417
1246.177, 436.4640
1246.659, 452.8959
1247.141, 441.5271
1247.623, 398.4906
1248.105, 381.7878
1248.587, 413.2318
1249.069, 436.5151
1249.552, 449.6054
1250.034, 452.1931
1250.516, 439.8238
1250.998, 426.2123
1251.480, 423.8286
1251.962, 428.9235
1252.444, 432.5360
1252.926, 434.6946
1253.408, 436.4516
1253.891, 437.5241
1254.373, 433.1907
1254.855, 423.5475
1255.337, 416.5647
1255.819, 415.9053
1256.301, 417.4546
1256.783, 417.0110
1257.265, 417.0794
1257.747, 422.1712
1258.230, 428.7769
1258.712, 430.5117
1259.194, 430.8503
1259.676, 440.1623
1260.158, 456.1085
1260.640, 460.3796
##END=



