##NAMES=Fairfieldite
##RRUFFID=R050539
##IDEAL CHEMISTRY=Ca_2_Mn^2+^(PO_4_)_2_&#183;2H_2_O
##LOCALITY=Foote mine, Kings Mountain, Cleveland County, North Carolina, USA
##OWNER=RRUFF
##SOURCE=University of Arizona Mineral Museum
##DESCRIPTION=Transparent tabular crystals associated with fluorapatite
##STATUS=The identification of this mineral has been confirmed by X-ray diffraction and chemical analysis
##URL=rruff.info/R050539
##MEASURED CHEMISTRY=Ca_2.00_(Mn^2+^_0.82_Fe^2+^_0.15_Mg_0.03_)_Σ=1_(P_1.00_O_4_)_2_·2H_2_O
92.37695, 231.7999
92.85907, 230.2849
93.34119, 230.8159
93.82330, 231.5116
94.30542, 231.0893
94.78754, 229.2709
95.26965, 226.6409
95.75177, 224.2570
96.23389, 222.5993
96.71600, 221.4376
97.19812, 220.5866
97.68024, 219.9737
98.16235, 219.9683
98.64447, 221.1385
99.12659, 223.7552
99.60870, 226.2592
100.0908, 228.3648
100.5729, 230.9554
101.0551, 234.8655
101.5372, 240.5576
102.0193, 247.7060
102.5014, 254.6633
102.9835, 263.7962
103.4656, 270.3254
103.9478, 274.0370
104.4299, 274.6041
104.9120, 271.3965
105.3941, 263.7322
105.8762, 251.0851
106.3583, 237.8990
106.8405, 222.6878
107.3226, 208.1005
107.8047, 195.4297
108.2868, 184.8593
108.7689, 176.0426
109.2510, 169.1107
109.7332, 164.1883
110.2153, 159.2543
110.6974, 153.6347
111.1795, 147.9619
111.6616, 143.1372
112.1437, 139.4176
112.6259, 136.5859
113.1080, 134.4341
113.5901, 132.9174
114.0722, 131.7015
114.5543, 130.7047
115.0364, 129.9106
115.5185, 129.0663
116.0007, 127.9555
116.4828, 126.9054
116.9649, 126.1252
117.4470, 125.6475
117.9291, 125.3249
118.4112, 124.9438
118.8934, 124.4110
119.3755, 124.0629
119.8576, 123.8867
120.3397, 123.8938
120.8218, 124.0357
121.3039, 124.2978
121.7861, 124.7892
122.2682, 125.8413
122.7503, 128.7951
123.2324, 130.8415
123.7145, 131.3264
124.1966, 130.8533
124.6788, 130.2332
125.1609, 129.9041
125.6430, 129.8601
126.1251, 130.0563
126.6072, 130.6539
127.0893, 131.2672
127.5715, 131.7560
128.0536, 132.1256
128.5357, 132.4314
129.0178, 132.7193
129.4999, 132.9704
129.9821, 133.1311
130.4642, 133.0847
130.9463, 133.0092
131.4284, 133.0787
131.9105, 133.3051
132.3926, 133.6530
132.8748, 134.0800
133.3569, 134.6034
133.8390, 135.2908
134.3211, 136.2743
134.8032, 137.4591
135.2853, 138.4905
135.7674, 139.1049
136.2496, 139.9472
136.7317, 141.3169
137.2138, 143.1369
137.6959, 145.1802
138.1780, 147.1933
138.6601, 149.1163
139.1423, 151.6600
139.6244, 155.0267
140.1065, 158.8820
140.5886, 162.9020
141.0707, 167.2100
141.5528, 172.3359
142.0350, 178.8808
142.5171, 186.9873
142.9992, 196.5183
143.4813, 208.5409
143.9634, 220.9279
144.4455, 233.6199
144.9277, 246.1288
145.4098, 256.3847
145.8919, 260.9591
146.3740, 258.3450
146.8561, 251.7063
147.3382, 238.6362
147.8204, 222.3452
148.3025, 206.2336
148.7846, 191.2279
149.2667, 177.7812
149.7488, 167.0444
150.2309, 158.8568
150.7131, 152.1838
151.1952, 147.0578
151.6773, 143.2319
152.1594, 140.0382
152.6415, 137.3015
153.1236, 135.0764
153.6058, 133.2465
154.0879, 131.8242
154.5700, 130.7811
155.0521, 130.2292
155.5342, 130.1914
156.0163, 130.1514
156.4985, 129.8922
156.9806, 129.5607
157.4627, 129.2564
157.9448, 128.9962
158.4269, 128.7937
158.9090, 128.6258
159.3912, 128.3900
159.8733, 128.4785
160.3554, 129.1963
160.8375, 130.1332
161.3196, 130.9104
161.8017, 131.3477
162.2839, 131.6076
162.7660, 132.1667
163.2481, 133.1651
163.7302, 134.3257
164.2123, 135.6932
164.6944, 137.1644
165.1766, 138.5768
165.6587, 139.8340
166.1408, 140.9954
166.6229, 142.5018
167.1050, 144.9434
167.5871, 147.0934
168.0693, 148.4515
168.5514, 149.3355
169.0335, 150.3926
169.5156, 152.0575
169.9977, 154.3032
170.4798, 156.4135
170.9620, 158.0363
171.4441, 159.8779
171.9262, 162.0756
172.4083, 164.6994
172.8904, 168.0175
173.3725, 172.2932
173.8547, 177.5408
174.3368, 183.0422
174.8189, 188.8367
175.3010, 194.8866
175.7831, 201.2400
176.2652, 207.9213
176.7474, 214.6222
177.2295, 221.4312
177.7116, 228.0780
178.1937, 233.6412
178.6758, 237.2237
179.1579, 239.8763
179.6401, 242.9277
180.1222, 246.1364
180.6043, 250.4862
181.0864, 256.4106
181.5685, 263.7828
182.0506, 272.6524
182.5328, 283.2618
183.0149, 295.3402
183.4970, 308.3676
183.9791, 323.1987
184.4612, 337.5745
184.9433, 352.4141
185.4255, 366.1088
185.9076, 376.0551
186.3897, 380.6034
186.8718, 379.8488
187.3539, 374.7594
187.8360, 361.4399
188.3182, 347.4303
188.8003, 333.4055
189.2824, 320.3594
189.7645, 309.6472
190.2466, 302.3452
190.7287, 298.4518
191.2109, 297.5623
191.6930, 300.7335
192.1751, 305.8293
192.6572, 312.4697
193.1393, 320.5176
193.6214, 329.9415
194.1036, 340.6367
194.5857, 352.6207
195.0678, 366.3719
195.5499, 381.4453
196.0320, 398.1787
196.5141, 416.4057
196.9963, 436.2792
197.4784, 458.5061
197.9605, 483.6623
198.4426, 512.0980
198.9247, 542.7131
199.4068, 577.9277
199.8890, 613.2487
200.3711, 647.6577
200.8532, 680.5166
201.3353, 708.4406
201.8174, 729.6313
202.2995, 742.9378
202.7817, 743.3728
203.2638, 727.8987
203.7459, 701.0152
204.2280, 664.3135
204.7101, 617.4427
205.1922, 567.8774
205.6744, 520.5203
206.1565, 475.4099
206.6386, 434.1502
207.1207, 396.3334
207.6028, 362.8260
208.0849, 335.1832
208.5671, 313.8140
209.0492, 296.8297
209.5313, 283.6375
210.0134, 273.5525
210.4955, 266.0091
210.9776, 261.1496
211.4598, 258.6270
211.9419, 257.6300
212.4240, 258.0578
212.9061, 260.3942
213.3882, 266.0447
213.8703, 273.5414
214.3525, 280.2642
214.8346, 285.1526
215.3167, 288.2272
215.7988, 289.4305
216.2809, 288.4740
216.7630, 285.8165
217.2451, 281.4724
217.7273, 275.8969
218.2094, 269.8246
218.6915, 263.6320
219.1736, 257.3124
219.6557, 250.8344
220.1378, 243.6756
220.6200, 237.0849
221.1021, 231.1170
221.5842, 225.9713
222.0663, 221.9228
222.5484, 219.2354
223.0305, 217.8286
223.5127, 216.9225
223.9948, 216.3431
224.4769, 216.5683
224.9590, 217.8768
225.4411, 220.0466
225.9232, 222.6465
226.4054, 225.3630
226.8875, 228.2525
227.3696, 232.2795
227.8517, 238.0857
228.3338, 244.3840
228.8159, 250.7650
229.2981, 257.4653
229.7802, 264.8881
230.2623, 273.3483
230.7444, 282.8018
231.2265, 292.5534
231.7086, 302.7467
232.1908, 313.0449
232.6729, 323.8783
233.1550, 334.7699
233.6371, 345.0550
234.1192, 354.4395
234.6013, 362.7806
235.0835, 368.7342
235.5656, 372.9621
236.0477, 374.7307
236.5298, 373.8370
237.0119, 370.3104
237.4940, 364.1668
237.9762, 355.3439
238.4583, 343.9312
238.9404, 330.2564
239.4225, 313.1111
239.9046, 295.6241
240.3867, 278.4521
240.8689, 261.7393
241.3510, 245.8085
241.8331, 230.6155
242.3152, 216.5973
242.7973, 204.7777
243.2794, 195.4701
243.7616, 187.3814
244.2437, 180.1836
244.7258, 173.8644
245.2079, 168.4019
245.6900, 163.8197
246.1721, 160.1342
246.6543, 157.1927
247.1364, 154.9686
247.6185, 153.4063
248.1006, 152.6250
248.5827, 152.5217
249.0648, 152.7471
249.5470, 153.2782
250.0291, 154.0008
250.5112, 154.8464
250.9933, 155.9128
251.4754, 156.5807
251.9576, 156.5175
252.4397, 155.7705
252.9218, 154.5528
253.4039, 152.9337
253.8860, 150.7771
254.3681, 147.9072
254.8503, 144.3246
255.3324, 140.7342
255.8145, 137.5698
256.2966, 134.7750
256.7787, 132.0572
257.2608, 129.3323
257.7430, 126.7427
258.2251, 124.3756
258.7072, 122.2233
259.1893, 120.2302
259.6714, 118.4029
260.1535, 116.7247
260.6357, 115.0550
261.1178, 113.2728
261.5999, 111.6765
262.0820, 110.4053
262.5641, 109.4294
263.0462, 108.6557
263.5284, 108.0576
264.0105, 107.6251
264.4926, 107.3070
264.9747, 107.2355
265.4568, 107.0868
265.9389, 106.5821
266.4211, 105.8952
266.9032, 105.3974
267.3853, 105.4109
267.8674, 105.7816
268.3495, 105.7853
268.8316, 105.0223
269.3138, 104.5075
269.7959, 104.7120
270.2780, 105.3457
270.7601, 106.0100
271.2422, 106.5420
271.7243, 106.9113
272.2065, 106.9320
272.6886, 106.1584
273.1707, 105.8158
273.6528, 106.3871
274.1349, 107.4386
274.6170, 108.5080
275.0992, 109.4051
275.5813, 110.1514
276.0634, 110.7528
276.5455, 111.0147
277.0276, 111.5159
277.5097, 112.4313
277.9919, 113.5503
278.4740, 114.6317
278.9561, 115.5965
279.4382, 116.6321
279.9203, 118.1530
280.4024, 120.4501
280.8846, 122.6129
281.3667, 124.5019
281.8488, 126.2730
282.3309, 128.0422
282.8130, 129.8347
283.2951, 131.5751
283.7773, 133.1401
284.2594, 134.4615
284.7415, 135.7688
285.2236, 137.4187
285.7057, 138.8015
286.1878, 139.6090
286.6700, 139.7720
287.1521, 139.3436
287.6342, 138.2708
288.1163, 136.3192
288.5984, 134.6679
289.0805, 133.6699
289.5627, 132.6382
290.0448, 131.1232
290.5269, 129.2370
291.0090, 127.4598
291.4911, 126.2317
291.9732, 125.5875
292.4554, 125.0789
292.9375, 124.6967
293.4196, 124.4537
293.9017, 124.4386
294.3838, 124.5708
294.8659, 124.6549
295.3481, 124.5162
295.8302, 124.2022
296.3123, 124.3682
296.7944, 125.4541
297.2765, 126.5790
297.7586, 127.5057
298.2408, 128.3794
298.7229, 129.4188
299.2050, 130.7400
299.6871, 132.3120
300.1692, 134.0057
300.6513, 135.5331
301.1335, 137.5769
301.6156, 140.2800
302.0977, 143.4679
302.5798, 147.0070
303.0619, 150.8293
303.5440, 154.8813
304.0262, 159.0715
304.5083, 162.7535
304.9904, 167.6433
305.4725, 174.2031
305.9546, 181.5770
306.4367, 189.2413
306.9189, 197.0012
307.4010, 204.8723
307.8831, 212.9923
308.3652, 221.9743
308.8473, 229.4406
309.3294, 235.6308
309.8116, 240.4650
310.2937, 244.2875
310.7758, 246.8680
311.2579, 247.2875
311.7400, 244.5781
312.2221, 238.4803
312.7043, 230.6714
313.1864, 219.9173
313.6685, 208.9026
314.1506, 198.3896
314.6327, 188.4515
315.1148, 178.8858
315.5970, 169.5373
316.0791, 160.4591
316.5612, 152.4339
317.0433, 145.8134
317.5254, 139.8038
318.0075, 134.2790
318.4897, 129.2849
318.9718, 124.9486
319.4539, 121.3439
319.9360, 118.3645
320.4181, 115.6395
320.9002, 113.2974
321.3824, 111.1183
321.8645, 109.0420
322.3466, 107.1460
322.8287, 105.4881
323.3108, 104.1021
323.7929, 102.9707
324.2751, 102.1097
324.7572, 101.7848
325.2393, 101.2105
325.7214, 100.1365
326.2035, 99.02908
326.6856, 98.22900
327.1678, 97.75828
327.6499, 97.37596
328.1320, 96.79727
328.6141, 95.93287
329.0962, 95.32034
329.5783, 94.98877
330.0605, 94.83980
330.5426, 94.93082
331.0247, 95.18089
331.5068, 95.43312
331.9889, 95.58330
332.4710, 95.62706
332.9532, 95.48991
333.4353, 94.73498
333.9174, 94.27103
334.3995, 94.44882
334.8816, 94.98486
335.3637, 95.46984
335.8459, 95.69265
336.3280, 95.76048
336.8101, 95.98783
337.2922, 96.50056
337.7743, 96.99854
338.2564, 97.37361
338.7386, 97.77357
339.2206, 98.37049
339.7028, 99.19798
340.1849, 100.0905
340.6670, 100.7897
341.1491, 101.1954
341.6312, 101.6501
342.1133, 102.0405
342.5955, 102.5606
343.0776, 103.3312
343.5597, 104.3451
344.0418, 105.5242
344.5239, 106.8354
345.0060, 108.2958
345.4882, 109.5848
345.9703, 110.5063
346.4524, 111.4379
346.9345, 112.4169
347.4166, 113.4851
347.8987, 114.7064
348.3809, 116.1242
348.8630, 117.7054
349.3451, 119.2808
349.8272, 120.8144
350.3093, 122.4298
350.7914, 124.0245
351.2736, 125.7587
351.7557, 127.8454
352.2378, 130.3594
352.7199, 133.0500
353.2020, 135.4335
353.6841, 137.3115
354.1663, 139.4908
354.6484, 142.3126
355.1305, 145.2605
355.6126, 148.0051
356.0947, 150.5384
356.5768, 153.0936
357.0590, 155.9301
357.5411, 159.0445
358.0232, 162.1089
358.5053, 165.0847
358.9874, 168.0437
359.4695, 171.1057
359.9517, 174.1645
360.4338, 177.0074
360.9159, 179.5454
361.3980, 181.7560
361.8801, 183.6085
362.3622, 185.0977
362.8444, 186.1929
363.3265, 186.8564
363.8086, 187.1736
364.2907, 187.2636
364.7728, 187.1934
365.2549, 186.7272
365.7371, 185.4748
366.2192, 183.3631
366.7013, 181.0796
367.1834, 178.6977
367.6655, 176.2474
368.1476, 173.7557
368.6298, 171.2151
369.1119, 168.6278
369.5940, 166.0516
370.0761, 163.4494
370.5582, 160.5878
371.0403, 157.1971
371.5225, 154.0159
372.0046, 151.5345
372.4867, 149.6185
372.9688, 147.9847
373.4509, 146.6284
373.9330, 145.4442
374.4152, 144.3308
374.8973, 143.3120
375.3794, 142.1810
375.8615, 140.6462
376.3436, 139.0363
376.8257, 137.8700
377.3079, 137.3246
377.7900, 136.8918
378.2721, 136.1255
378.7542, 135.1332
379.2363, 134.3979
379.7184, 134.0866
380.2006, 134.0241
380.6827, 134.0239
381.1648, 134.0844
381.6469, 134.1330
382.1290, 134.1491
382.6111, 134.1391
383.0933, 134.1016
383.5754, 134.0347
384.0575, 133.9465
384.5396, 133.6485
385.0217, 133.3009
385.5038, 133.8060
385.9860, 136.1287
386.4681, 138.4604
386.9502, 139.5889
387.4323, 139.7677
387.9144, 139.8919
388.3965, 140.3353
388.8787, 141.0605
389.3608, 141.9976
389.8429, 143.1361
390.3250, 144.4560
390.8071, 145.9800
391.2892, 147.6726
391.7714, 149.4817
392.2535, 151.3933
392.7356, 153.4672
393.2177, 155.7872
393.6998, 158.4285
394.1819, 160.9732
394.6641, 163.0926
395.1462, 165.4278
395.6283, 168.2748
396.1104, 171.6353
396.5925, 175.4364
397.0746, 179.7048
397.5568, 184.3011
398.0389, 188.6061
398.5210, 191.9814
399.0031, 195.7996
399.4852, 200.0421
399.9673, 204.8857
400.4495, 210.7373
400.9316, 217.6499
401.4137, 225.0344
401.8958, 231.9348
402.3779, 237.9251
402.8600, 244.5988
403.3422, 251.9672
403.8243, 259.9393
404.3064, 268.4740
404.7885, 277.5819
405.2706, 287.3582
405.7527, 297.8668
406.2349, 309.0844
406.7170, 320.3440
407.1991, 331.3230
407.6812, 342.7580
408.1633, 354.5865
408.6454, 366.9902
409.1276, 380.2255
409.6097, 394.3573
410.0918, 409.1551
410.5739, 424.2854
411.0560, 439.5617
411.5381, 455.8501
412.0203, 472.9622
412.5024, 491.4612
412.9845, 511.8987
413.4666, 534.0365
413.9487, 556.9822
414.4308, 579.6910
414.9130, 602.5878
415.3951, 627.3669
415.8772, 654.3364
416.3593, 682.4495
416.8414, 711.5706
417.3235, 741.3665
417.8057, 771.5398
418.2878, 802.2267
418.7699, 832.9037
419.2520, 863.5792
419.7341, 894.1461
420.2162, 923.7839
420.6984, 952.6246
421.1805, 979.6379
421.6626, 1003.624
422.1447, 1024.937
422.6268, 1043.394
423.1089, 1059.936
423.5911, 1073.168
424.0732, 1080.909
424.5553, 1082.880
425.0374, 1081.135
425.5195, 1077.100
426.0016, 1070.364
426.4838, 1060.310
426.9659, 1045.133
427.4480, 1028.694
427.9301, 1012.341
428.4122, 996.0450
428.8943, 979.6314
429.3765, 962.9024
429.8586, 946.5417
430.3407, 931.7167
430.8228, 918.6862
431.3049, 906.9512
431.7870, 896.2185
432.2692, 887.0597
432.7513, 880.0587
433.2334, 875.1413
433.7155, 871.6700
434.1976, 869.1793
434.6797, 867.6814
435.1619, 867.3877
435.6440, 868.8480
436.1261, 870.9389
436.6082, 874.2076
437.0903, 877.7059
437.5724, 880.7273
438.0546, 882.9333
438.5367, 883.7680
439.0188, 882.5588
439.5009, 879.6509
439.9830, 873.4980
440.4651, 863.2604
440.9473, 850.3646
441.4294, 835.4740
441.9115, 818.4308
442.3936, 798.6394
442.8757, 775.7012
443.3578, 749.7936
443.8400, 721.9574
444.3221, 691.4456
444.8042, 660.5540
445.2863, 629.4041
445.7684, 598.5294
446.2505, 568.7012
446.7327, 540.0877
447.2148, 512.6278
447.6969, 486.3850
448.1790, 461.4194
448.6611, 437.6600
449.1432, 414.9933
449.6254, 393.9465
450.1075, 375.1877
450.5896, 358.3989
451.0717, 342.8661
451.5538, 328.8813
452.0359, 315.7795
452.5181, 302.9281
453.0002, 290.3740
453.4823, 278.6710
453.9644, 268.1215
454.4465, 258.5205
454.9286, 249.4451
455.4108, 240.8755
455.8929, 232.8036
456.3750, 225.0478
456.8571, 217.8967
457.3392, 211.7726
457.8214, 206.6831
458.3035, 202.0300
458.7856, 197.2974
459.2677, 192.4746
459.7498, 187.7403
460.2319, 182.8626
460.7141, 178.3137
461.1962, 174.3382
461.6783, 170.7319
462.1604, 167.2137
462.6425, 163.6771
463.1246, 160.2708
463.6068, 157.2724
464.0889, 154.8643
464.5710, 152.4337
465.0531, 149.9735
465.5352, 147.5058
466.0173, 144.9407
466.4995, 142.3634
466.9816, 139.9901
467.4637, 137.9997
467.9458, 136.2637
468.4279, 134.3017
468.9100, 131.8941
469.3922, 129.8166
469.8743, 128.5917
470.3564, 127.5965
470.8385, 126.3125
471.3206, 124.6654
471.8027, 123.0297
472.2849, 121.7607
472.7670, 120.7480
473.2491, 119.5770
473.7312, 118.1661
474.2133, 116.7216
474.6954, 115.3408
475.1776, 114.0370
475.6597, 112.8768
476.1418, 111.9258
476.6239, 111.0604
477.1060, 110.1974
477.5881, 109.3551
478.0703, 108.5844
478.5524, 107.9224
479.0345, 107.2882
479.5166, 106.5679
479.9987, 105.7373
480.4808, 104.9222
480.9630, 104.2534
481.4451, 103.5021
481.9272, 102.3036
482.4093, 100.8536
482.8914, 99.83257
483.3735, 99.69771
483.8557, 100.1335
484.3378, 99.99629
484.8199, 98.64090
485.3020, 97.61857
485.7841, 97.13944
486.2662, 96.88869
486.7484, 96.67748
487.2305, 96.44939
487.7126, 96.19247
488.1947, 95.91581
488.6768, 95.60844
489.1589, 95.08558
489.6411, 94.13398
490.1232, 93.30375
490.6053, 92.63966
491.0874, 92.22390
491.5695, 92.30550
492.0516, 93.00024
492.5338, 93.59779
493.0159, 93.22836
493.4980, 92.00445
493.9801, 90.92519
494.4622, 90.10727
494.9443, 89.50615
495.4265, 89.23840
495.9086, 89.17473
496.3907, 88.94697
496.8728, 88.27980
497.3549, 87.58109
497.8370, 87.19802
498.3192, 87.07545
498.8013, 87.04623
499.2834, 87.08564
499.7655, 87.07849
500.2476, 86.79292
500.7297, 86.09243
501.2119, 85.60793
501.6940, 85.52901
502.1761, 85.55324
502.6582, 85.45232
503.1403, 85.25741
503.6224, 85.17308
504.1045, 85.35545
504.5866, 85.65275
505.0688, 85.49377
505.5509, 84.36186
506.0330, 83.58540
506.5151, 83.41642
506.9972, 83.46302
507.4793, 83.46432
507.9615, 83.38814
508.4436, 83.33090
508.9257, 83.40596
509.4078, 83.57095
509.8899, 83.53306
510.3720, 83.15842
510.8542, 82.87346
511.3363, 82.95481
511.8184, 83.14185
512.3005, 83.14529
512.7827, 82.89448
513.2648, 82.67732
513.7469, 82.68627
514.2290, 82.89731
514.7111, 83.31184
515.1932, 83.99393
515.6754, 84.57891
516.1575, 84.78968
516.6396, 84.65528
517.1217, 84.39889
517.6038, 83.80005
518.0859, 83.34396
518.5681, 83.36691
519.0502, 83.64838
519.5323, 83.77074
520.0144, 83.62112
520.4965, 83.48959
520.9786, 83.76794
521.4608, 84.57610
521.9429, 85.05907
522.4250, 84.91621
522.9071, 84.83456
523.3892, 85.15492
523.8713, 85.66721
524.3535, 85.98238
524.8356, 85.94332
525.3177, 85.84103
525.7998, 86.21755
526.2819, 87.20993
526.7640, 87.97629
527.2462, 88.07328
527.7283, 88.35378
528.2104, 89.55058
528.6925, 91.22425
529.1746, 92.29720
529.6567, 92.00501
530.1389, 91.39698
530.6210, 91.94755
531.1031, 93.59507
531.5852, 95.29011
532.0673, 96.81471
532.5494, 98.14767
533.0316, 99.14687
533.5137, 99.83162
533.9958, 100.7341
534.4779, 102.0110
534.9600, 103.4996
535.4421, 105.2118
535.9243, 107.0489
536.4064, 108.7453
536.8885, 110.1561
537.3706, 111.3992
537.8527, 112.6815
538.3348, 113.8315
538.8170, 115.4306
539.2991, 117.7218
539.7812, 120.1978
540.2633, 122.6789
540.7454, 125.1050
541.2275, 127.3963
541.7097, 129.4579
542.1918, 131.5036
542.6739, 134.1078
543.1560, 137.3896
543.6381, 140.8966
544.1202, 144.7622
544.6024, 148.6400
545.0845, 152.1453
545.5666, 155.4060
546.0487, 158.9940
546.5308, 163.4822
547.0129, 168.3696
547.4951, 172.8303
547.9772, 176.8827
548.4593, 180.9595
548.9414, 185.3902
549.4235, 189.7373
549.9056, 193.2184
550.3878, 195.9297
550.8699, 197.7202
551.3520, 198.8889
551.8341, 198.8474
552.3162, 196.9075
552.7983, 193.2652
553.2805, 188.6601
553.7626, 183.4688
554.2447, 177.7217
554.7268, 171.4348
555.2089, 164.1081
555.6910, 157.1402
556.1732, 150.4821
556.6553, 144.1893
557.1374, 138.1592
557.6195, 132.4695
558.1016, 127.3829
558.5837, 123.0661
559.0659, 119.4016
559.5480, 116.1358
560.0301, 113.2903
560.5122, 110.7864
560.9943, 108.6181
561.4764, 106.8187
561.9586, 105.3541
562.4407, 104.2312
562.9228, 103.4890
563.4049, 103.0763
563.8870, 103.0959
564.3691, 103.8314
564.8513, 105.1684
565.3334, 106.4493
565.8155, 107.3055
566.2976, 108.1629
566.7797, 109.8777
567.2618, 112.9334
567.7440, 115.7723
568.2261, 118.0058
568.7082, 120.3594
569.1903, 123.3373
569.6724, 126.7775
570.1545, 130.2957
570.6367, 133.6716
571.1188, 136.9745
571.6009, 140.2322
572.0830, 143.3417
572.5651, 146.9101
573.0472, 151.1690
573.5294, 155.7591
574.0115, 160.3008
574.4936, 165.0147
574.9757, 170.4724
575.4578, 176.9479
575.9399, 184.2168
576.4221, 191.8250
576.9042, 199.8980
577.3863, 209.2395
577.8684, 219.9950
578.3505, 232.2601
578.8326, 246.0789
579.3148, 261.5607
579.7969, 278.5985
580.2790, 296.8605
580.7611, 316.9768
581.2432, 340.1858
581.7253, 365.1991
582.2075, 390.8465
582.6896, 416.3933
583.1717, 440.9965
583.6538, 463.8408
584.1359, 485.4989
584.6180, 501.3882
585.1002, 513.5181
585.5823, 516.8632
586.0643, 508.3553
586.5464, 491.1509
587.0286, 468.4435
587.5107, 440.7962
587.9928, 411.0876
588.4749, 380.7250
588.9570, 350.3794
589.4391, 322.5479
589.9213, 297.2333
590.4034, 274.9885
590.8855, 256.2466
591.3676, 240.9183
591.8497, 227.8989
592.3318, 217.3083
592.8140, 208.5468
593.2961, 201.5245
593.7782, 196.2029
594.2603, 192.8259
594.7424, 191.2681
595.2245, 190.7825
595.7067, 190.7214
596.1888, 191.3110
596.6709, 193.8780
597.1530, 198.9854
597.6351, 205.2313
598.1172, 211.7678
598.5994, 219.6991
599.0815, 229.9182
599.5636, 242.3417
600.0457, 256.3087
600.5278, 271.6374
601.0099, 287.9995
601.4921, 305.5706
601.9742, 324.3896
602.4563, 341.9249
602.9384, 358.5956
603.4205, 371.8368
603.9026, 377.8754
604.3848, 377.2049
604.8669, 370.2141
605.3490, 354.8056
605.8311, 335.0785
606.3132, 311.7130
606.7953, 286.2589
607.2775, 260.9513
607.7596, 236.8007
608.2417, 214.3021
608.7238, 194.6027
609.2059, 177.8653
609.6880, 163.1248
610.1702, 150.7784
610.6523, 140.1499
611.1344, 131.4412
611.6165, 124.1684
612.0986, 117.8179
612.5807, 112.2486
613.0629, 107.3304
613.5450, 103.1295
614.0271, 99.52218
614.5092, 95.98702
614.9913, 92.42117
615.4734, 89.30891
615.9556, 87.04988
616.4377, 85.43261
616.9198, 83.64669
617.4019, 81.40845
617.8840, 79.53789
618.3661, 78.42871
618.8483, 77.58123
619.3304, 76.53797
619.8125, 75.31248
620.2946, 74.19669
620.7767, 73.39490
621.2589, 72.79256
621.7410, 72.03244
622.2231, 70.98577
622.7052, 70.16723
623.1873, 69.90854
623.6694, 69.65531
624.1516, 69.02396
624.6337, 68.13618
625.1158, 67.37849
625.5979, 66.91442
626.0800, 66.62312
626.5621, 66.48450
627.0443, 66.43226
627.5264, 66.23577
628.0085, 65.83402
628.4906, 65.30331
628.9727, 64.66509
629.4548, 63.92140
629.9370, 63.41181
630.4191, 63.23430
630.9012, 63.13002
631.3833, 63.19905
631.8654, 63.21863
632.3475, 62.84146
632.8297, 62.10208
633.3118, 61.47813
633.7939, 61.44057
634.2760, 61.82661
634.7581, 61.94663
635.2402, 61.72630
635.7224, 61.53417
636.2045, 61.51947
636.6866, 61.55023
637.1687, 61.42951
637.6508, 61.17423
638.1329, 61.10857
638.6151, 61.70447
639.0972, 62.20982
639.5793, 61.82422
640.0614, 60.84312
640.5435, 60.04375
641.0256, 59.70345
641.5078, 59.62693
641.9899, 59.57133
642.4720, 59.53735
642.9541, 59.51764
643.4362, 59.51850
643.9183, 59.52693
644.4005, 59.55798
644.8826, 59.58553
645.3647, 59.60517
645.8468, 59.60834
646.3289, 59.52280
646.8110, 59.22465
647.2932, 58.80711
647.7753, 58.50147
648.2574, 58.31648
648.7395, 58.18187
649.2216, 58.05492
649.7037, 57.97847
650.1859, 58.08223
650.6680, 58.46474
651.1501, 58.57652
651.6322, 58.09368
652.1143, 57.60473
652.5964, 57.46899
653.0786, 57.57303
653.5607, 57.65681
654.0428, 57.62514
654.5249, 57.61067
655.0070, 57.87991
655.4891, 58.45609
655.9713, 58.63536
656.4534, 58.21413
656.9355, 57.79135
657.4176, 57.47544
657.8997, 57.39806
658.3818, 57.92125
658.8640, 59.21952
659.3461, 60.06728
659.8282, 59.55988
660.3103, 58.55235
660.7924, 57.90998
661.2745, 57.66605
661.7567, 57.66084
662.2388, 57.83511
662.7209, 58.07991
663.2030, 58.18976
663.6851, 58.13488
664.1672, 58.04246
664.6494, 57.94828
665.1315, 57.77484
665.6136, 57.37300
666.0957, 56.92265
666.5778, 56.67265
667.0599, 56.69299
667.5421, 56.86472
668.0242, 57.20015
668.5063, 57.58852
668.9884, 57.71419
669.4705, 57.55375
669.9526, 57.41233
670.4348, 57.46094
670.9169, 57.61689
671.3990, 57.70344
671.8811, 57.70218
672.3632, 57.67199
672.8453, 57.45419
673.3275, 57.36572
673.8096, 57.82056
674.2917, 58.46251
674.7738, 58.58537
675.2559, 57.92303
675.7380, 57.10193
676.2202, 56.99547
676.7023, 57.51276
677.1844, 57.70132
677.6665, 57.44587
678.1486, 57.13239
678.6307, 56.90057
679.1129, 56.76453
679.5950, 56.76210
680.0771, 56.93403
680.5592, 57.05415
681.0413, 57.00714
681.5234, 56.94047
682.0056, 56.99459
682.4877, 57.12006
682.9698, 57.18628
683.4519, 57.13732
683.9340, 57.01276
684.4161, 56.84000
684.8983, 56.60408
685.3804, 56.52890
685.8625, 56.77353
686.3446, 56.89919
686.8267, 56.36830
687.3088, 55.79601
687.7910, 56.08044
688.2731, 57.41544
688.7552, 58.34079
689.2373, 57.86133
689.7194, 56.91601
690.2015, 56.38465
690.6837, 56.26701
691.1658, 56.42706
691.6479, 56.81751
692.1300, 57.23988
692.6121, 57.38026
693.0942, 57.17923
693.5764, 57.12014
694.0585, 57.36340
694.5406, 57.53380
695.0227, 57.47682
695.5048, 57.32872
695.9869, 57.23437
696.4691, 57.21445
696.9512, 57.19156
697.4333, 57.07394
697.9154, 56.95563
698.3975, 56.97500
698.8796, 57.11482
699.3618, 57.29955
699.8439, 57.51170
700.3260, 57.67094
700.8081, 57.66568
701.2902, 57.48363
701.7723, 57.25269
702.2545, 56.86911
702.7366, 56.56524
703.2187, 56.32865
703.7008, 56.22998
704.1829, 56.36052
704.6650, 56.71173
705.1472, 57.16273
705.6293, 57.64983
706.1114, 58.17498
706.5935, 58.92994
707.0756, 59.80546
707.5577, 59.96977
708.0399, 59.07540
708.5220, 57.92013
709.0041, 57.33710
709.4862, 57.32765
709.9683, 57.38317
710.4504, 57.55575
710.9326, 57.72154
711.4147, 57.87334
711.8968, 58.00129
712.3789, 58.09473
712.8610, 58.15594
713.3431, 58.19905
713.8253, 58.24583
714.3074, 58.25715
714.7895, 58.11901
715.2716, 57.86523
715.7537, 57.75080
716.2358, 57.84561
716.7180, 58.00154
717.2001, 58.09028
717.6822, 58.13120
718.1643, 58.25992
718.6464, 58.65281
719.1285, 58.87777
719.6107, 58.74916
720.0928, 58.56145
720.5749, 58.52739
721.0570, 58.61997
721.5391, 58.68793
722.0212, 58.64050
722.5034, 58.62872
722.9855, 58.93715
723.4676, 59.49298
723.9497, 59.83581
724.4318, 59.89784
724.9139, 59.84880
725.3961, 59.73111
725.8782, 59.61816
726.3603, 59.74622
726.8424, 60.33800
727.3245, 60.65223
727.8066, 60.39433
728.2888, 60.10481
728.7709, 60.10780
729.2530, 60.29173
729.7351, 60.41297
730.2172, 60.38950
730.6993, 60.37071
731.1815, 60.53977
731.6636, 60.84671
732.1457, 61.10478
732.6278, 61.30619
733.1099, 61.49415
733.5920, 61.68659
734.0742, 61.87778
734.5563, 62.06523
735.0384, 62.25837
735.5205, 62.39079
736.0026, 62.33624
736.4847, 62.36939
736.9669, 62.66833
737.4490, 63.06233
737.9311, 63.35094
738.4132, 63.50488
738.8953, 63.64212
739.3774, 63.86158
739.8596, 64.11749
740.3417, 64.33537
740.8238, 64.51246
741.3059, 64.57047
741.7880, 64.45362
742.2701, 64.33649
742.7523, 64.37356
743.2344, 64.56174
743.7165, 64.85586
744.1986, 65.41433
744.6807, 65.84937
745.1628, 65.99022
745.6450, 66.09239
746.1271, 66.37309
746.6092, 66.78843
747.0913, 67.15134
747.5734, 67.35388
748.0555, 67.53239
748.5377, 67.87679
749.0198, 68.33924
749.5019, 68.77375
749.9840, 69.17183
750.4661, 69.34962
750.9482, 69.10976
751.4304, 68.70171
751.9125, 68.75746
752.3946, 69.55711
752.8767, 70.16586
753.3588, 70.43076
753.8409, 70.69231
754.3231, 71.13242
754.8052, 71.63805
755.2873, 72.04473
755.7694, 72.31333
756.2515, 72.52272
756.7336, 72.73360
757.2158, 72.92236
757.6979, 73.05102
758.1800, 73.12016
758.6621, 73.12891
759.1442, 73.07307
759.6263, 72.99032
760.1085, 72.92587
760.5906, 72.88026
761.0727, 72.80140
761.5548, 72.53806
762.0369, 72.47453
762.5190, 72.95255
763.0012, 73.40365
763.4833, 73.35793
763.9654, 72.89384
764.4475, 72.42674
764.9296, 72.13411
765.4117, 71.86426
765.8939, 71.42922
766.3760, 70.94909
766.8581, 70.66113
767.3402, 70.58308
767.8223, 70.57983
768.3044, 70.57173
768.7866, 70.55202
769.2687, 70.52622
769.7508, 70.54627
770.2329, 70.35760
770.7150, 69.82407
771.1971, 69.25752
771.6793, 68.74563
772.1614, 68.31008
772.6435, 68.03677
773.1256, 67.96432
773.6077, 67.75826
774.0898, 67.01816
774.5720, 66.34052
775.0541, 66.42989
775.5362, 66.90801
776.0183, 66.93690
776.5004, 66.29905
776.9825, 65.47480
777.4647, 64.90937
777.9468, 64.59256
778.4289, 64.53831
778.9110, 64.82319
779.3931, 64.94914
779.8752, 64.72508
780.3574, 64.42094
780.8395, 64.27950
781.3216, 64.26869
781.8037, 64.22940
782.2858, 64.24062
782.7679, 64.09806
783.2501, 63.49200
783.7322, 62.92639
784.2143, 62.99762
784.6964, 63.46490
785.1785, 63.58866
785.6606, 63.01899
786.1428, 62.25134
786.6249, 61.92591
787.1070, 61.93099
787.5891, 61.75040
788.0712, 61.34341
788.5533, 61.13877
789.0355, 61.39627
789.5176, 61.80336
789.9997, 61.85458
790.4818, 61.46467
790.9639, 61.25569
791.4460, 61.32650
791.9282, 61.44409
792.4103, 61.64355
792.8924, 61.80565
793.3745, 61.80878
793.8566, 61.66307
794.3387, 61.47825
794.8209, 61.25837
795.3030, 61.09747
795.7851, 61.18212
796.2672, 61.37143
796.7493, 61.29705
797.2314, 60.93751
797.7136, 60.65554
798.1957, 60.70034
798.6778, 60.91932
799.1599, 60.92528
799.6420, 60.64686
800.1241, 60.43751
800.6063, 60.24793
801.0884, 60.21433
801.5705, 60.58502
802.0526, 61.05442
802.5347, 61.23297
803.0168, 61.08056
803.4990, 60.88738
803.9811, 60.68238
804.4632, 60.51651
804.9453, 60.38194
805.4274, 60.32672
805.9095, 60.49379
806.3917, 60.85525
806.8738, 61.12822
807.3559, 61.06747
807.8380, 60.81335
808.3201, 60.61555
808.8022, 60.48096
809.2844, 60.68422
809.7665, 61.36845
810.2486, 61.94610
810.7307, 61.96373
811.2128, 61.60056
811.6949, 61.40673
812.1771, 61.49208
812.6592, 61.52724
813.1413, 61.45226
813.6234, 61.39387
814.1055, 61.38517
814.5876, 61.43682
815.0698, 61.61838
815.5519, 61.92446
816.0340, 62.09631
816.5161, 61.78215
816.9982, 61.39635
817.4803, 61.55099
817.9625, 62.01930
818.4446, 62.13231
818.9267, 61.75883
819.4088, 61.35188
819.8909, 61.29108
820.3730, 61.51015
820.8552, 61.79512
821.3373, 62.16691
821.8194, 62.54272
822.3015, 63.05720
822.7836, 63.33656
823.2657, 62.97655
823.7479, 62.28355
824.2300, 61.85865
824.7121, 61.75588
825.1942, 61.77166
825.6763, 62.00842
826.1584, 62.20525
826.6406, 62.16106
827.1227, 62.00521
827.6048, 61.90266
828.0869, 61.90343
828.5690, 62.02508
829.0511, 62.34150
829.5333, 62.71997
830.0154, 63.01666
830.4975, 63.18753
830.9796, 62.86182
831.4617, 61.94660
831.9438, 61.28548
832.4260, 61.56283
832.9081, 62.43092
833.3902, 62.81757
833.8723, 62.45719
834.3544, 62.30607
834.8365, 62.44287
835.3187, 62.70037
835.8008, 63.20503
836.2829, 63.68220
836.7650, 63.69849
837.2471, 63.20449
837.7292, 62.89651
838.2114, 63.23631
838.6935, 63.57682
839.1756, 63.36301
839.6577, 62.97132
840.1398, 63.02406
840.6219, 63.51914
841.1041, 63.90554
841.5862, 63.79065
842.0683, 63.45775
842.5504, 63.36901
843.0325, 63.50697
843.5146, 63.82758
843.9968, 64.35188
844.4789, 64.71716
844.9610, 64.71250
845.4431, 64.46638
845.9252, 64.18043
846.4073, 63.80598
846.8895, 63.63977
847.3716, 63.81001
847.8537, 64.02124
848.3358, 64.33016
848.8179, 64.56133
849.3000, 64.45389
849.7822, 64.09394
850.2643, 63.94447
850.7464, 64.16769
851.2285, 64.60609
851.7106, 65.46529
852.1927, 66.29278
852.6749, 66.45661
853.1570, 66.08985
853.6391, 65.75161
854.1212, 65.70047
854.6033, 65.81574
855.0854, 66.00954
855.5676, 66.24378
856.0497, 66.28090
856.5318, 66.10983
857.0139, 66.07492
857.4960, 66.30367
857.9781, 66.64739
858.4603, 66.96892
858.9424, 67.26385
859.4245, 67.49529
859.9066, 67.73957
860.3887, 67.78492
860.8708, 67.35238
861.3530, 66.99166
861.8351, 67.03853
862.3172, 67.34200
862.7993, 67.63431
863.2814, 67.87997
863.7635, 68.04963
864.2457, 68.06022
864.7278, 68.05949
865.2099, 68.16013
865.6920, 68.33506
866.1741, 68.51685
866.6563, 68.69939
867.1384, 68.95026
867.6205, 69.34671
868.1026, 69.79250
868.5847, 70.06431
869.0668, 70.20090
869.5490, 70.51019
870.0311, 71.04736
870.5132, 71.42059
870.9953, 71.34492
871.4774, 71.11330
871.9595, 71.33971
872.4417, 72.13326
872.9238, 72.80103
873.4059, 73.37326
873.8880, 73.77628
874.3701, 73.77938
874.8522, 73.76160
875.3344, 74.10246
875.8165, 74.73745
876.2986, 75.24273
876.7807, 75.39126
877.2628, 75.61236
877.7449, 76.14083
878.2271, 76.73311
878.7092, 77.16576
879.1913, 77.48279
879.6734, 77.81570
880.1555, 78.21092
880.6376, 78.66715
881.1198, 79.16781
881.6019, 79.73168
882.0840, 80.43882
882.5661, 81.24876
883.0482, 81.95268
883.5303, 82.50278
884.0125, 83.12282
884.4946, 84.01774
884.9767, 85.09447
885.4588, 86.04509
885.9409, 86.85059
886.4230, 87.62729
886.9052, 88.33697
887.3873, 89.13276
887.8694, 90.15268
888.3515, 91.26378
888.8336, 92.22227
889.3157, 92.97845
889.7979, 93.95334
890.2800, 95.20012
890.7621, 96.61770
891.2442, 98.16497
891.7263, 99.88416
892.2084, 101.9469
892.6906, 104.2124
893.1727, 106.2092
893.6548, 107.6995
894.1369, 109.1963
894.6190, 110.9632
895.1011, 112.9882
895.5833, 115.3312
896.0654, 117.8910
896.5475, 120.3553
897.0296, 122.6532
897.5117, 125.1607
897.9938, 128.2068
898.4760, 131.7476
898.9581, 135.7298
899.4402, 140.1166
899.9223, 144.5353
900.4044, 148.9151
900.8865, 153.4397
901.3687, 158.1479
901.8508, 163.2543
902.3329, 169.2583
902.8150, 175.6214
903.2971, 182.4038
903.7792, 190.3037
904.2614, 197.9324
904.7435, 206.8438
905.2256, 216.6754
905.7077, 226.9263
906.1898, 237.6887
906.6719, 249.3998
907.1541, 261.6215
907.6362, 275.5060
908.1183, 291.9073
908.6004, 309.4169
909.0825, 327.0042
909.5646, 344.8500
910.0468, 363.5463
910.5289, 383.1780
911.0110, 403.9147
911.4931, 425.6949
911.9752, 448.7060
912.4573, 473.4594
912.9395, 499.7324
913.4216, 527.2039
913.9037, 555.7829
914.3858, 585.8551
914.8679, 617.5517
915.3500, 651.0408
915.8321, 686.1710
916.3142, 724.1947
916.7963, 762.8840
917.2784, 806.0313
917.7606, 850.8856
918.2427, 897.0078
918.7248, 944.6086
919.2069, 994.4596
919.6890, 1046.129
920.1711, 1097.966
920.6533, 1151.473
921.1354, 1201.884
921.6175, 1250.254
922.0996, 1293.540
922.5817, 1332.252
923.0638, 1364.058
923.5460, 1385.064
924.0281, 1394.824
924.5102, 1396.985
924.9923, 1393.035
925.4744, 1380.329
925.9565, 1356.058
926.4387, 1324.035
926.9208, 1286.102
927.4029, 1243.646
927.8850, 1199.479
928.3671, 1153.991
928.8492, 1109.256
929.3314, 1066.430
929.8135, 1025.332
930.2956, 984.7861
930.7777, 945.7692
931.2598, 910.1225
931.7419, 878.1153
932.2241, 849.8605
932.7062, 825.4816
933.1883, 804.5150
933.6704, 786.3108
934.1525, 770.8172
934.6346, 757.6062
935.1168, 746.6771
935.5989, 738.4099
936.0810, 733.1106
936.5631, 729.8166
937.0452, 727.0984
937.5273, 725.0809
938.0095, 725.7786
938.4916, 729.5295
938.9737, 734.6479
939.4558, 740.9725
939.9379, 748.4051
940.4200, 757.0047
940.9022, 766.6537
941.3843, 777.0847
941.8664, 788.3542
942.3485, 800.3243
942.8306, 812.8627
943.3127, 826.1780
943.7949, 840.4614
944.2770, 855.4371
944.7591, 870.6868
945.2412, 886.3265
945.7233, 902.8546
946.2054, 920.2310
946.6876, 938.8303
947.1697, 959.3461
947.6518, 980.6223
948.1339, 1001.489
948.6160, 1022.527
949.0981, 1045.110
949.5803, 1069.229
950.0624, 1093.343
950.5445, 1116.809
951.0266, 1139.574
951.5087, 1162.984
951.9908, 1185.272
952.4730, 1204.501
952.9551, 1219.881
953.4372, 1230.175
953.9193, 1234.830
954.4014, 1233.677
954.8835, 1227.046
955.3657, 1214.139
955.8478, 1192.370
956.3299, 1162.079
956.8120, 1124.761
957.2941, 1080.680
957.7762, 1031.521
958.2584, 977.8404
958.7405, 921.0730
959.2226, 863.3552
959.7047, 804.3047
960.1868, 749.3367
960.6689, 698.7443
961.1511, 650.2089
961.6332, 602.5172
962.1153, 557.3531
962.5974, 516.1473
963.0795, 478.9198
963.5616, 445.9213
964.0438, 418.4446
964.5259, 392.1232
965.0080, 365.7810
965.4901, 342.1545
965.9722, 323.0008
966.4543, 306.3333
966.9365, 290.2240
967.4186, 274.7104
967.9007, 261.0338
968.3828, 249.8386
968.8649, 239.6972
969.3470, 230.6215
969.8292, 222.2854
970.3113, 214.7032
970.7934, 207.6682
971.2755, 200.8997
971.7576, 194.3808
972.2397, 188.2710
972.7219, 182.5468
973.2040, 177.4207
973.6861, 173.4641
974.1682, 169.8392
974.6503, 165.6192
975.1324, 160.8401
975.6146, 155.8691
976.0967, 150.8261
976.5788, 145.7939
977.0609, 140.6478
977.5430, 135.7002
978.0251, 131.4745
978.5073, 127.7558
978.9894, 123.8947
979.4715, 119.8764
979.9536, 116.3166
980.4357, 113.5516
980.9178, 111.1222
981.4000, 108.2678
981.8821, 105.2180
982.3642, 103.0056
982.8463, 101.5560
983.3284, 100.0608
983.8105, 98.33083
984.2927, 96.59100
984.7748, 94.98534
985.2569, 93.56680
985.7390, 92.59990
986.2211, 92.14220
986.7032, 90.79346
987.1854, 88.26798
987.6675, 86.43117
988.1496, 86.00459
988.6317, 85.99738
989.1138, 85.47846
989.5959, 84.60892
990.0781, 84.14409
990.5602, 84.42216
991.0423, 84.06518
991.5244, 82.56003
992.0065, 81.34805
992.4886, 81.18102
992.9708, 81.32702
993.4529, 80.91787
993.9350, 80.02237
994.4171, 79.46024
994.8992, 79.53431
995.3813, 79.47095
995.8635, 79.03438
996.3456, 78.69980
996.8277, 78.75349
997.3098, 78.98007
997.7919, 79.17669
998.2740, 79.31457
998.7562, 79.24776
999.2383, 78.68295
999.7204, 78.28614
1000.203, 78.35312
1000.685, 78.52338
1001.167, 78.50090
1001.649, 78.43538
1002.131, 78.58684
1002.613, 78.99693
1003.095, 79.52242
1003.577, 80.21114
1004.059, 80.86217
1004.542, 81.30317
1005.024, 81.70110
1005.506, 82.27107
1005.988, 82.92135
1006.470, 83.28522
1006.952, 83.30628
1007.434, 83.76562
1007.916, 85.59603
1008.398, 87.69345
1008.881, 88.87739
1009.363, 89.70517
1009.845, 90.88260
1010.327, 92.50347
1010.809, 94.53088
1011.291, 96.93510
1011.773, 99.61217
1012.255, 102.5381
1012.738, 105.6132
1013.220, 108.6769
1013.702, 111.7899
1014.184, 115.0656
1014.666, 118.5419
1015.148, 122.3326
1015.630, 126.4812
1016.112, 130.8844
1016.594, 135.3275
1017.077, 139.9656
1017.559, 145.3832
1018.041, 151.4358
1018.523, 157.2943
1019.005, 162.8691
1019.487, 169.0752
1019.969, 176.4530
1020.451, 184.8806
1020.934, 194.2633
1021.416, 204.5769
1021.898, 216.0638
1022.380, 228.7187
1022.862, 241.6177
1023.344, 254.6551
1023.826, 267.6281
1024.308, 280.5702
1024.791, 293.0841
1025.273, 304.8691
1025.755, 315.8841
1026.237, 323.3242
1026.719, 327.2643
1027.201, 326.9500
1027.683, 322.0820
1028.165, 313.3736
1028.647, 300.9533
1029.130, 285.6513
1029.612, 269.1676
1030.094, 251.3101
1030.576, 233.9234
1031.058, 216.7745
1031.540, 200.7092
1032.022, 185.7349
1032.504, 172.2808
1032.986, 160.7366
1033.469, 150.7223
1033.951, 141.2108
1034.433, 132.0698
1034.915, 124.4614
1035.397, 118.9291
1035.879, 113.6975
1036.361, 108.2515
1036.843, 103.1770
1037.326, 98.90271
1037.808, 95.29992
1038.290, 92.12879
1038.772, 89.44564
1039.254, 86.88754
1039.736, 84.43694
1040.218, 82.15121
1040.700, 79.91822
1041.182, 77.99465
1041.665, 76.67751
1042.147, 75.78585
1042.629, 74.95972
1043.111, 74.25658
1043.593, 73.35712
1044.075, 71.85927
1044.557, 70.71449
1045.039, 70.49200
1045.521, 70.31596
1046.004, 69.11482
1046.486, 67.65541
1046.968, 67.89155
1047.450, 70.46174
1047.932, 71.74179
1048.414, 70.32619
1048.896, 68.98073
1049.378, 68.44370
1049.861, 68.20647
1050.343, 67.77888
1050.825, 67.40745
1051.307, 67.85998
1051.789, 69.41889
1052.271, 69.96438
1052.753, 68.40800
1053.235, 66.69736
1053.718, 65.25832
1054.200, 64.06422
1054.682, 63.12272
1055.164, 62.38817
1055.646, 61.78063
1056.128, 61.28940
1056.610, 60.93919
1057.092, 60.84637
1057.574, 60.74779
1058.057, 60.50643
1058.539, 60.26638
1059.021, 60.10036
1059.503, 60.03236
1059.985, 60.13460
1060.467, 60.41500
1060.949, 60.58697
1061.431, 60.56637
1061.913, 60.41038
1062.396, 59.93008
1062.878, 59.52671
1063.360, 59.52802
1063.842, 59.82088
1064.324, 60.25335
1064.806, 60.77523
1065.288, 61.15929
1065.770, 61.15913
1066.253, 61.22475
1066.735, 61.75096
1067.217, 62.20643
1067.699, 61.93562
1068.181, 61.43763
1068.663, 61.59550
1069.145, 62.47303
1069.627, 63.30148
1070.109, 63.84103
1070.592, 64.20406
1071.074, 64.28385
1071.556, 64.36890
1072.038, 64.77840
1072.520, 65.28093
1073.002, 65.36687
1073.484, 65.11121
1073.966, 65.37508
1074.448, 66.74893
1074.931, 68.06763
1075.413, 68.72195
1075.895, 69.17744
1076.377, 69.52900
1076.859, 70.03974
1077.341, 71.15446
1077.823, 72.76801
1078.305, 74.17400
1078.788, 74.98727
1079.270, 76.04781
1079.752, 77.83362
1080.234, 79.90416
1080.716, 81.96244
1081.198, 84.13966
1081.680, 86.54778
1082.162, 89.25780
1082.644, 92.48434
1083.127, 96.34529
1083.609, 100.4045
1084.091, 104.4848
1084.573, 108.7381
1085.055, 113.0690
1085.537, 117.7787
1086.019, 123.3641
1086.501, 129.5781
1086.984, 135.6230
1087.466, 141.2545
1087.948, 147.1965
1088.430, 153.5153
1088.912, 160.5176
1089.394, 168.4635
1089.876, 177.0923
1090.358, 185.9203
1090.840, 195.2776
1091.323, 205.7854
1091.805, 217.5933
1092.287, 230.5395
1092.769, 244.3119
1093.251, 259.6230
1093.733, 277.1448
1094.215, 296.0583
1094.697, 315.8266
1095.179, 336.4182
1095.662, 358.4924
1096.144, 381.9209
1096.626, 403.6901
1097.108, 424.8954
1097.590, 441.1577
1098.072, 452.2789
1098.554, 456.6875
1099.036, 452.8865
1099.519, 442.1004
1100.001, 424.7967
1100.483, 401.8658
1100.965, 376.3490
1101.447, 347.7086
1101.929, 319.6273
1102.411, 291.8735
1102.893, 266.5200
1103.375, 244.8003
1103.858, 225.5047
1104.340, 207.2630
1104.822, 190.2365
1105.304, 175.4555
1105.786, 163.2511
1106.268, 152.1927
1106.750, 141.8473
1107.232, 132.8326
1107.714, 125.8222
1108.197, 119.7293
1108.679, 113.6970
1109.161, 107.9692
1109.643, 103.3009
1110.125, 99.87572
1110.607, 96.54482
1111.089, 93.19495
1111.571, 89.98460
1112.054, 86.84126
1112.536, 83.97921
1113.018, 81.46947
1113.500, 79.31711
1113.982, 77.64531
1114.464, 76.46935
1114.946, 74.96038
1115.428, 72.55251
1115.911, 70.76077
1116.393, 70.05350
1116.875, 69.43261
1117.357, 68.53716
1117.839, 67.49674
1118.321, 66.36528
1118.803, 65.19707
1119.285, 64.32217
1119.767, 63.88449
1120.250, 63.37815
1120.732, 62.75029
1121.214, 62.16465
1121.696, 61.69305
1122.178, 61.21335
1122.660, 60.51639
1123.142, 59.84111
1123.624, 59.94175
1124.106, 61.04972
1124.589, 61.03405
1125.071, 59.44470
1125.553, 58.25475
1126.035, 57.78959
1126.517, 58.06498
1126.999, 59.42553
1127.481, 60.76131
1127.963, 60.15078
1128.446, 57.82167
1128.928, 56.50157
1129.410, 56.32508
1129.892, 55.90864
1130.374, 55.05877
1130.856, 54.31927
1131.338, 53.92511
1131.820, 53.71562
1132.302, 53.55385
1132.785, 53.39296
1133.267, 53.01208
1133.749, 52.44403
1134.231, 52.31630
1134.713, 52.63494
1135.195, 52.62772
1135.677, 52.08288
1136.159, 51.56757
1136.641, 51.50622
1137.124, 51.02006
1137.606, 51.21428
1138.088, 50.54939
1138.570, 50.30328
1139.052, 50.36964
1139.534, 50.20730
1140.016, 49.77232
1140.498, 49.46009
1140.981, 49.45265
1141.463, 49.47760
1141.945, 49.22197
1142.427, 48.84605
1142.909, 48.62371
1143.391, 48.49773
1143.873, 48.32881
1144.355, 48.14461
1144.838, 48.10134
1145.320, 48.21863
1145.802, 48.31381
1146.284, 48.27669
1146.766, 48.13579
1147.248, 47.85457
1147.730, 47.54161
1148.212, 47.31478
1148.694, 47.15960
1149.177, 47.07935
1149.659, 47.03033
1150.141, 46.86563
1150.623, 46.51165
1151.105, 46.19905
1151.587, 46.12615
1152.069, 46.07524
1152.551, 45.79751
1153.033, 45.55021
1153.516, 45.71020
1153.998, 46.07199
1154.480, 46.19156
1154.962, 45.99374
1155.444, 45.71971
1155.926, 45.15410
1156.408, 44.96526
1156.890, 45.86143
1157.373, 46.61011
1157.855, 46.32785
1158.337, 45.64899
1158.819, 45.24586
1159.301, 45.14552
1159.783, 45.25863
1160.265, 45.73839
1160.747, 45.99486
1161.229, 45.72779
1161.712, 45.61096
1162.194, 45.92223
1162.676, 46.27089
1163.158, 46.34908
1163.640, 46.34011
1164.122, 46.62132
1164.604, 47.21127
1165.086, 47.45356
1165.568, 47.13977
1166.051, 47.16304
1166.533, 47.79563
1167.015, 48.17403
1167.497, 47.86351
1167.979, 47.35805
1168.461, 47.12414
1168.943, 47.15553
1169.425, 47.51812
1169.908, 48.22681
1170.390, 48.61546
1170.872, 48.66662
1171.354, 48.56263
1171.836, 48.34245
1172.318, 48.10460
1172.800, 47.90146
1173.282, 47.78044
1173.765, 47.84196
1174.247, 48.00953
1174.729, 48.07291
1175.211, 48.04267
1175.693, 47.93908
1176.175, 47.77842
1176.657, 47.58141
1177.139, 47.37060
1177.621, 47.26563
1178.104, 47.36892
1178.586, 47.56322
1179.068, 47.84020
1179.550, 48.01807
1180.032, 47.70913
1180.514, 47.17774
1180.996, 46.90260
1181.478, 46.90295
1181.960, 46.92973
1182.443, 46.88937
1182.925, 46.95066
1183.407, 47.42299
1183.889, 47.76312
1184.371, 47.49360
1184.853, 47.09033
1185.335, 46.95907
1185.817, 46.99157
1186.300, 46.96043
1186.782, 46.85259
1187.264, 46.82825
1187.746, 47.04490
1188.228, 47.08248
1188.710, 46.65141
1189.192, 46.31404
1189.674, 46.47487
1190.156, 46.60735
1190.639, 46.11924
1191.121, 46.23504
1191.603, 46.20030
1192.085, 45.92249
1192.567, 46.17202
1193.049, 45.91516
1193.531, 45.64734
1194.013, 45.39417
1194.495, 45.24392
1194.978, 45.28854
1195.460, 45.25317
1195.942, 44.79245
1196.424, 44.14832
1196.906, 44.11149
1197.388, 44.64480
1197.870, 44.97561
1198.352, 45.09337
1198.835, 45.06170
1199.317, 44.90617
1199.799, 44.79881
1200.281, 44.83173
1200.763, 44.84315
1201.245, 44.55556
1201.727, 44.25146
1202.209, 44.63049
1202.692, 45.28968
1203.174, 45.34908
1203.656, 44.94243
1204.138, 44.55573
1204.620, 44.33183
1205.102, 44.29942
1205.584, 44.50983
1206.066, 44.71263
1206.548, 44.62278
1207.031, 44.57232
1207.513, 44.97536
1207.995, 45.41876
1208.477, 45.38967
1208.959, 45.07178
1209.441, 44.91620
1209.923, 44.99143
1210.405, 45.06181
1210.887, 45.09028
1211.370, 45.08230
1211.852, 45.11366
1212.334, 45.01299
1212.816, 44.41586
1213.298, 43.95202
1213.780, 44.31397
1214.262, 45.11803
1214.744, 45.39882
1215.227, 45.11947
1215.709, 44.65657
1216.191, 43.87449
1216.673, 43.51913
1217.155, 43.78099
1217.637, 43.96855
1218.119, 43.76414
1218.601, 43.49535
1219.083, 43.51054
1219.566, 43.65801
1220.048, 43.57252
1220.530, 43.29342
1221.012, 42.89982
1221.494, 42.47385
1221.976, 42.47319
1222.458, 42.86874
1222.940, 43.01509
1223.422, 42.63161
1223.905, 42.20209
1224.387, 42.17225
1224.869, 42.26415
1225.351, 42.24465
1225.833, 42.11798
1226.315, 41.80894
1226.797, 41.44099
1227.279, 41.16427
1227.762, 41.02710
1228.244, 41.11625
1228.726, 41.51393
1229.208, 41.81754
1229.690, 41.96791
1230.172, 41.89338
1230.654, 41.30779
1231.136, 40.76841
1231.619, 40.65902
1232.101, 40.79875
1232.583, 41.01101
1233.065, 41.25141
1233.547, 41.19553
1234.029, 41.27830
1234.511, 41.39196
1234.993, 41.11513
1235.475, 41.40827
1235.958, 41.16542
1236.440, 40.80500
1236.922, 40.55017
1237.404, 40.41333
1237.886, 40.43324
1238.368, 40.55296
1238.850, 40.59528
1239.332, 40.58041
1239.814, 40.66296
1240.297, 40.77315
1240.779, 40.34745
1241.261, 39.47737
1241.743, 39.48497
1242.225, 41.11564
1242.707, 42.71789
1243.189, 42.85756
1243.671, 42.28020
1244.154, 41.18159
1244.636, 40.15166
1245.118, 39.95759
1245.600, 40.21692
1246.082, 40.20072
1246.564, 39.87979
1247.046, 39.73235
1247.528, 39.92683
1248.010, 40.11591
1248.493, 40.20565
1248.975, 40.34000
1249.457, 40.76344
1249.939, 40.94987
1250.421, 40.45069
1250.903, 39.75134
1251.385, 39.53203
1251.867, 39.67997
1252.349, 39.51566
1252.832, 38.99997
1253.314, 38.68341
1253.796, 38.58474
1254.278, 38.66261
1254.760, 38.90434
1255.242, 39.21626
1255.724, 39.55133
1256.206, 39.76105
1256.689, 39.61411
1257.171, 39.34397
1257.653, 39.33512
1258.135, 39.47379
1258.617, 39.55135
1259.099, 39.62201
1259.581, 39.89804
1260.063, 40.32103
1260.546, 40.55030
1261.028, 40.45802
1261.510, 40.27732
1261.992, 40.13613
1262.474, 39.89318
1262.956, 39.23413
1263.438, 38.74807
1263.920, 38.97089
1264.402, 39.44127
1264.885, 39.57723
1265.367, 39.48820
1265.849, 39.59337
1266.331, 39.94633
1266.813, 40.14103
1267.295, 40.14820
1267.777, 40.12688
1268.259, 40.09314
1268.741, 40.10014
1269.224, 40.17395
1269.706, 40.25686
1270.188, 40.30301
1270.670, 40.29278
1271.152, 40.14821
1271.634, 39.94183
1272.116, 39.83511
1272.598, 39.80885
1273.081, 39.82683
1273.563, 39.86703
1274.045, 39.87621
1274.527, 39.84861
1275.009, 39.88774
1275.491, 40.08703
1275.973, 40.26888
1276.455, 40.41337
1276.938, 40.43633
1277.420, 40.19533
1277.902, 39.90148
1278.384, 39.70311
1278.866, 39.60909
1279.348, 39.64833
1279.830, 39.81147
1280.312, 39.86326
1280.794, 39.75161
1281.276, 39.76442
1281.759, 39.96179
1282.241, 39.95420
1282.723, 39.61565
1283.205, 39.34745
1283.687, 39.39516
1284.169, 39.59049
1284.651, 39.75546
1285.133, 39.86567
1285.616, 39.87280
1286.098, 39.77329
##END=



