##NAMES=Faizievite
##RRUFFID=R070221
##IDEAL CHEMISTRY=Li_6_K_2_Na(Ca_6_Na)Ti^4+^_4_(Si_6_O_18_)_2_(Si_12_O_30_)F_2_
##LOCALITY=Dara-i-Pioz Glacier, Alayskiy (Alai) Range, Tien Shan Mts, Districts of the Republican Subordination, Tajikistan
##OWNER=RRUFF
##SOURCE=Michael Scott
##DESCRIPTION=Pale brownish yellow massive associated with quartz
##STATUS=The identification of this mineral is confirmed by single-crystal X-ray diffraction and chemical analysis.
##URL=rruff.info/R070221
##MEASURED CHEMISTRY=Li_6.00_(K_1.78_[box]_0.20_Ba_0.02_)_Σ=2_(Na_0.80_K_0.20_)_Σ=1_(Ca_6.12_Na_0.74_Sr_0.11_Mn_0.03_)_Σ=7_(Ti_3.88_Al_0.10_Nb^5+^_0.02_)_Σ=4_(Si_6.00_O_18_)_2_(Si_12.00_O_30_)(F_1.72_(OH)_0.28_)_Σ=2_; Li assumed by stoichiometry; OH by charge balance
165.3741, 9208.905
165.8563, 9352.662
166.3384, 9444.063
166.8205, 9504.894
167.3026, 9570.792
167.7847, 9662.801
168.2668, 9767.171
168.7490, 9854.760
169.2311, 9923.911
169.7132, 9979.690
170.1953, 10018.06
170.6774, 10047.17
171.1595, 10080.27
171.6417, 10128.24
172.1238, 10182.05
172.6059, 10215.90
173.0880, 10217.01
173.5701, 10223.93
174.0522, 10256.66
174.5344, 10304.90
175.0165, 10353.67
175.4986, 10394.50
175.9807, 10432.12
176.4628, 10481.87
176.9449, 10552.63
177.4271, 10619.22
177.9092, 10671.17
178.3913, 10713.90
178.8734, 10753.99
179.3555, 10794.34
179.8376, 10834.99
180.3197, 10876.98
180.8019, 10922.37
181.2840, 10965.24
181.7661, 11003.45
182.2482, 11038.74
182.7303, 11070.59
183.2124, 11095.72
183.6946, 11122.17
184.1767, 11178.37
184.6588, 11295.01
185.1409, 11386.06
185.6230, 11415.25
186.1051, 11415.36
186.5873, 11423.52
187.0694, 11457.23
187.5515, 11507.98
188.0336, 11554.19
188.5157, 11592.22
188.9978, 11631.28
189.4800, 11675.06
189.9621, 11719.74
190.4442, 11760.32
190.9263, 11793.69
191.4084, 11825.32
191.8905, 11869.50
192.3727, 11936.07
192.8548, 11998.33
193.3369, 12052.17
193.8190, 12100.33
194.3011, 12145.29
194.7832, 12188.02
195.2654, 12228.43
195.7475, 12264.55
196.2296, 12288.83
196.7117, 12324.36
197.1938, 12381.55
197.6759, 12445.21
198.1581, 12501.20
198.6402, 12545.04
199.1223, 12583.56
199.6044, 12631.86
200.0865, 12705.42
200.5686, 12756.51
201.0508, 12749.21
201.5329, 12741.40
202.0150, 12788.80
202.4971, 12903.42
202.9792, 13037.96
203.4613, 13112.59
203.9435, 13091.89
204.4256, 13089.41
204.9077, 13113.37
205.3898, 13152.07
205.8719, 13202.26
206.3540, 13261.33
206.8362, 13322.29
207.3183, 13375.98
207.8004, 13419.67
208.2825, 13461.58
208.7646, 13496.43
209.2467, 13533.79
209.7289, 13581.39
210.2110, 13638.66
210.6931, 13697.94
211.1752, 13750.90
211.6573, 13796.95
212.1395, 13837.31
212.6216, 13861.91
213.1037, 13889.51
213.5858, 13933.21
214.0679, 13990.27
214.5500, 14046.33
215.0322, 14084.94
215.5143, 14101.27
215.9964, 14131.96
216.4785, 14183.64
216.9606, 14243.40
217.4427, 14314.06
217.9249, 14390.14
218.4070, 14460.38
218.8891, 14515.23
219.3712, 14554.41
219.8533, 14588.09
220.3354, 14609.55
220.8176, 14631.82
221.2997, 14655.21
221.7818, 14682.17
222.2639, 14719.39
222.7460, 14775.10
223.2281, 14845.32
223.7103, 14881.78
224.1924, 14840.65
224.6745, 14811.91
225.1566, 14819.84
225.6387, 14850.73
226.1208, 14885.14
226.6030, 14913.16
227.0851, 14933.21
227.5672, 14937.70
228.0493, 14911.83
228.5314, 14889.52
229.0135, 14874.62
229.4957, 14866.82
229.9778, 14866.31
230.4599, 14873.30
230.9420, 14885.68
231.4241, 14898.90
231.9062, 14915.82
232.3884, 14928.23
232.8705, 14939.41
233.3526, 14944.19
233.8347, 14936.15
234.3168, 14913.52
234.7989, 14883.31
235.2811, 14856.76
235.7632, 14832.98
236.2453, 14815.34
236.7274, 14799.15
237.2095, 14791.39
237.6916, 14802.52
238.1738, 14832.08
238.6559, 14863.43
239.1380, 14876.27
239.6201, 14867.45
240.1022, 14851.11
240.5843, 14812.94
241.0665, 14779.47
241.5486, 14765.06
242.0307, 14769.07
242.5128, 14780.83
242.9949, 14793.07
243.4770, 14806.60
243.9592, 14810.31
244.4413, 14788.92
244.9234, 14771.98
245.4055, 14773.82
245.8876, 14789.65
246.3697, 14805.48
246.8519, 14810.35
247.3340, 14805.94
247.8161, 14808.42
248.2982, 14830.40
248.7803, 14841.70
249.2624, 14826.37
249.7446, 14795.52
250.2267, 14767.04
250.7088, 14750.47
251.1909, 14742.34
251.6730, 14729.99
252.1551, 14702.74
252.6373, 14694.20
253.1194, 14725.46
253.6015, 14774.33
254.0836, 14822.45
254.5657, 14866.83
255.0478, 14894.29
255.5300, 14871.35
256.0121, 14777.29
256.4942, 14712.10
256.9763, 14725.44
257.4584, 14767.15
257.9406, 14805.95
258.4227, 14835.52
258.9048, 14860.29
259.3869, 14886.15
259.8690, 14913.48
260.3511, 14932.98
260.8333, 14933.86
261.3154, 14934.54
261.7975, 14949.61
262.2796, 14978.86
262.7617, 15010.04
263.2438, 15040.00
263.7260, 15066.60
264.2081, 15072.94
264.6902, 15039.97
265.1723, 15013.70
265.6544, 15030.94
266.1365, 15082.10
266.6187, 15136.65
267.1008, 15193.58
267.5829, 15241.82
268.0650, 15247.83
268.5471, 15195.63
269.0292, 15151.00
269.5114, 15175.35
269.9935, 15237.20
270.4756, 15284.24
270.9577, 15288.36
271.4398, 15284.21
271.9219, 15314.55
272.4041, 15380.49
272.8862, 15446.70
273.3683, 15498.41
273.8504, 15537.54
274.3325, 15569.64
274.8146, 15593.80
275.2968, 15613.00
275.7789, 15627.26
276.2610, 15637.63
276.7431, 15647.34
277.2252, 15654.78
277.7073, 15666.10
278.1895, 15695.32
278.6716, 15747.81
279.1537, 15790.07
279.6358, 15801.57
280.1179, 15796.81
280.6000, 15799.06
281.0822, 15813.05
281.5643, 15836.75
282.0464, 15871.44
282.5285, 15918.23
283.0106, 15959.38
283.4927, 15995.14
283.9749, 16022.95
284.4570, 16034.63
284.9391, 16031.58
285.4212, 16032.92
285.9033, 16054.46
286.3854, 16096.51
286.8676, 16140.19
287.3497, 16205.44
287.8318, 16253.21
288.3139, 16249.30
288.7960, 16211.00
289.2781, 16186.24
289.7603, 16203.61
290.2424, 16251.12
290.7245, 16278.05
291.2066, 16263.92
291.6887, 16256.05
292.1708, 16267.14
292.6530, 16286.30
293.1351, 16301.44
293.6172, 16308.18
294.0993, 16306.68
294.5814, 16296.06
295.0635, 16263.56
295.5457, 16246.88
296.0278, 16257.88
296.5099, 16274.94
296.9920, 16283.80
297.4741, 16282.54
297.9562, 16275.61
298.4384, 16264.39
298.9205, 16244.28
299.4026, 16253.28
299.8847, 16339.76
300.3668, 16406.26
300.8489, 16401.77
301.3311, 16350.97
301.8131, 16309.79
302.2953, 16316.06
302.7774, 16360.45
303.2595, 16395.73
303.7416, 16420.31
304.2237, 16436.85
304.7058, 16439.12
305.1880, 16437.57
305.6701, 16444.81
306.1522, 16465.77
306.6343, 16491.36
307.1164, 16506.30
307.5985, 16507.96
308.0807, 16508.54
308.5628, 16508.51
309.0449, 16509.18
309.5270, 16510.77
310.0091, 16513.56
310.4912, 16518.96
310.9734, 16530.17
311.4555, 16546.38
311.9376, 16557.97
312.4197, 16560.98
312.9018, 16564.02
313.3839, 16576.65
313.8661, 16593.98
314.3482, 16602.78
314.8303, 16591.51
315.3124, 16570.51
315.7945, 16557.51
316.2766, 16553.24
316.7588, 16552.94
317.2409, 16554.93
317.7230, 16559.30
318.2051, 16567.47
318.6872, 16584.67
319.1693, 16596.67
319.6515, 16588.66
320.1336, 16564.91
320.6157, 16543.15
321.0978, 16527.24
321.5799, 16519.48
322.0620, 16530.02
322.5442, 16564.74
323.0263, 16580.76
323.5084, 16536.53
323.9905, 16479.37
324.4726, 16477.75
324.9547, 16542.92
325.4369, 16626.27
325.9190, 16685.11
326.4011, 16716.69
326.8832, 16734.55
327.3653, 16720.90
327.8474, 16710.41
328.3296, 16724.42
328.8117, 16758.41
329.2938, 16796.68
329.7759, 16830.73
330.2580, 16861.11
330.7401, 16889.24
331.2223, 16912.05
331.7044, 16936.57
332.1865, 16964.86
332.6686, 16994.67
333.1507, 17024.37
333.6328, 17053.19
334.1150, 17079.88
334.5971, 17100.25
335.0792, 17103.33
335.5613, 17130.92
336.0434, 17203.11
336.5255, 17278.88
337.0077, 17338.34
337.4898, 17382.03
337.9719, 17419.82
338.4540, 17457.39
338.9361, 17495.54
339.4182, 17541.38
339.9004, 17594.56
340.3825, 17656.55
340.8646, 17729.65
341.3467, 17810.14
341.8288, 17893.84
342.3109, 17979.92
342.7931, 18066.69
343.2752, 18151.45
343.7573, 18233.99
344.2394, 18317.11
344.7215, 18406.34
345.2036, 18492.53
345.6858, 18563.08
346.1679, 18618.51
346.6500, 18684.30
347.1321, 18787.89
347.6142, 18913.86
348.0963, 19016.47
348.5785, 19084.43
349.0606, 19150.82
349.5427, 19244.47
350.0248, 19357.94
350.5069, 19469.91
350.9890, 19590.66
351.4712, 19698.02
351.9533, 19762.18
352.4354, 19792.17
352.9175, 19836.48
353.3996, 19921.05
353.8817, 20030.40
354.3639, 20124.86
354.8460, 20201.65
355.3281, 20272.99
355.8102, 20340.30
356.2923, 20404.00
356.7744, 20463.39
357.2566, 20518.69
357.7387, 20570.52
358.2208, 20619.80
358.7029, 20667.03
359.1850, 20708.69
359.6671, 20744.18
360.1493, 20775.53
360.6314, 20805.23
361.1135, 20831.43
361.5956, 20849.28
362.0777, 20855.40
362.5598, 20853.09
363.0420, 20853.13
363.5241, 20845.14
364.0062, 20858.00
364.4883, 20921.31
364.9704, 20988.15
365.4525, 21016.59
365.9347, 20998.94
366.4168, 20962.17
366.8989, 20932.94
367.3810, 20911.13
367.8631, 20895.72
368.3452, 20889.89
368.8274, 20886.97
369.3095, 20885.74
369.7916, 20884.54
370.2737, 20880.17
370.7558, 20873.82
371.2379, 20861.25
371.7201, 20830.02
372.2022, 20777.33
372.6843, 20733.49
373.1664, 20714.81
373.6485, 20710.94
374.1306, 20704.30
374.6128, 20692.37
375.0949, 20685.06
375.5770, 20700.26
376.0591, 20721.64
376.5412, 20712.03
377.0233, 20661.39
377.5055, 20599.14
377.9876, 20555.72
378.4697, 20533.82
378.9518, 20502.09
379.4339, 20451.71
379.9160, 20399.14
380.3982, 20355.71
380.8803, 20318.60
381.3624, 20281.19
381.8445, 20240.99
382.3266, 20194.33
382.8087, 20128.24
383.2909, 20007.06
383.7730, 19914.46
384.2551, 19870.19
384.7372, 19843.16
385.2193, 19813.36
385.7014, 19774.68
386.1836, 19724.41
386.6657, 19655.25
387.1478, 19565.56
387.6299, 19493.85
388.1120, 19445.11
388.5941, 19410.09
389.0763, 19396.11
389.5584, 19390.92
390.0405, 19374.55
390.5226, 19335.61
391.0047, 19289.82
391.4868, 19264.62
391.9690, 19262.93
392.4511, 19253.93
392.9332, 19220.44
393.4153, 19185.02
393.8974, 19172.29
394.3795, 19182.12
394.8617, 19188.19
395.3438, 19177.86
395.8259, 19155.54
396.3080, 19124.84
396.7901, 19085.41
397.2722, 19049.51
397.7544, 19024.10
398.2365, 19010.05
398.7186, 19006.15
399.2007, 19029.13
399.6828, 19043.43
400.1649, 19027.21
400.6471, 18995.15
401.1292, 18970.53
401.6113, 18960.88
402.0934, 18962.08
402.5755, 18968.71
403.0576, 18983.48
403.5398, 18995.51
404.0219, 19004.07
404.5040, 19011.06
404.9861, 19012.22
405.4682, 19012.53
405.9503, 19024.47
406.4325, 19057.63
406.9146, 19104.31
407.3967, 19135.73
407.8788, 19143.04
408.3609, 19153.04
408.8430, 19179.38
409.3252, 19204.81
409.8073, 19208.50
410.2894, 19189.63
410.7715, 19179.26
411.2536, 19216.57
411.7357, 19289.25
412.2179, 19326.61
412.7000, 19307.22
413.1821, 19292.86
413.6642, 19334.26
414.1463, 19410.80
414.6284, 19484.78
415.1106, 19559.40
415.5927, 19617.70
416.0748, 19636.96
416.5569, 19628.62
417.0390, 19626.56
417.5211, 19641.48
418.0033, 19669.92
418.4854, 19708.26
418.9675, 19759.72
419.4496, 19810.59
419.9317, 19863.10
420.4138, 19912.36
420.8960, 19948.09
421.3781, 19976.71
421.8602, 20019.07
422.3423, 20090.64
422.8244, 20182.89
423.3065, 20258.51
423.7887, 20307.69
424.2708, 20354.92
424.7529, 20396.04
425.2350, 20440.95
425.7171, 20499.89
426.1992, 20573.20
426.6814, 20649.40
427.1635, 20720.50
427.6456, 20786.56
428.1277, 20838.06
428.6098, 20861.17
429.0919, 20896.49
429.5741, 20973.87
430.0562, 21074.28
430.5383, 21170.89
431.0204, 21257.68
431.5025, 21339.02
431.9846, 21419.38
432.4668, 21497.46
432.9489, 21570.23
433.4310, 21638.55
433.9131, 21695.29
434.3952, 21725.94
434.8773, 21726.28
435.3595, 21745.67
435.8416, 21794.27
436.3237, 21855.75
436.8058, 21937.80
437.2879, 22024.80
437.7701, 22076.10
438.2522, 22068.26
438.7343, 22029.18
439.2164, 22031.60
439.6985, 22112.33
440.1806, 22169.30
440.6628, 22205.35
441.1449, 22216.80
441.6270, 22181.13
442.1091, 22113.95
442.5912, 22068.69
443.0733, 22097.72
443.5555, 22175.47
444.0376, 22199.37
444.5197, 22153.50
445.0018, 22098.26
445.4839, 22048.31
445.9660, 22004.13
446.4482, 21969.49
446.9303, 21946.81
447.4124, 21919.36
447.8945, 21861.19
448.3766, 21794.05
448.8587, 21775.49
449.3409, 21816.99
449.8230, 21850.67
450.3051, 21820.13
450.7872, 21731.06
451.2693, 21654.73
451.7514, 21594.01
452.2336, 21541.60
452.7157, 21498.16
453.1978, 21460.68
453.6799, 21427.64
454.1620, 21397.92
454.6441, 21366.30
455.1263, 21325.04
455.6084, 21271.55
456.0905, 21223.37
456.5726, 21192.37
457.0547, 21154.84
457.5368, 21093.81
458.0190, 21023.79
458.5011, 20968.40
458.9832, 20938.30
459.4653, 20922.59
459.9474, 20909.36
460.4295, 20898.79
460.9117, 20880.33
461.3938, 20849.86
461.8759, 20813.51
462.3580, 20779.22
462.8401, 20745.25
463.3222, 20700.11
463.8044, 20625.15
464.2865, 20549.62
464.7686, 20507.28
465.2507, 20489.31
465.7328, 20458.76
466.2149, 20398.67
466.6971, 20321.18
467.1792, 20251.33
467.6613, 20198.79
468.1434, 20132.28
468.6255, 20030.89
469.1076, 19933.78
469.5898, 19871.25
470.0719, 19835.45
470.5540, 19799.66
471.0361, 19746.51
471.5182, 19682.56
472.0003, 19625.43
472.4825, 19576.89
472.9646, 19531.38
473.4467, 19482.10
473.9288, 19440.19
474.4109, 19420.78
474.8930, 19420.92
475.3752, 19411.90
475.8573, 19373.71
476.3394, 19317.41
476.8215, 19261.76
477.3036, 19207.34
477.7857, 19145.01
478.2679, 19067.16
478.7500, 18981.14
479.2321, 18905.01
479.7142, 18845.06
480.1963, 18779.11
480.6784, 18680.97
481.1606, 18589.79
481.6427, 18552.73
482.1248, 18563.78
482.6069, 18573.21
483.0890, 18542.75
483.5711, 18480.65
484.0533, 18433.38
484.5354, 18420.24
485.0175, 18389.60
485.4996, 18313.21
485.9817, 18233.28
486.4638, 18184.64
486.9460, 18169.91
487.4281, 18167.75
487.9102, 18170.17
488.3923, 18171.91
488.8744, 18149.72
489.3565, 18096.75
489.8387, 18061.04
490.3208, 18084.53
490.8029, 18131.30
491.2850, 18122.88
491.7671, 18035.40
492.2492, 17962.73
492.7314, 17942.44
493.2135, 17950.54
493.6956, 17969.49
494.1777, 17992.71
494.6598, 18004.11
495.1419, 17990.04
495.6241, 17954.54
496.1062, 17923.71
496.5883, 17911.78
497.0704, 17884.02
497.5525, 17808.97
498.0346, 17736.56
498.5168, 17713.94
498.9989, 17742.19
499.4810, 17782.37
499.9631, 17812.25
500.4452, 17828.09
500.9273, 17804.47
501.4095, 17726.73
501.8916, 17672.86
502.3737, 17693.96
502.8558, 17749.03
503.3379, 17772.34
503.8200, 17756.85
504.3022, 17734.19
504.7843, 17708.38
505.2664, 17686.07
505.7485, 17677.63
506.2306, 17682.21
506.7127, 17689.36
507.1949, 17692.50
507.6770, 17692.07
508.1591, 17690.22
508.6412, 17694.33
509.1233, 17685.32
509.6054, 17642.53
510.0876, 17602.00
510.5697, 17593.45
511.0518, 17614.80
511.5339, 17641.87
512.0161, 17657.06
512.4982, 17665.66
512.9803, 17687.45
513.4624, 17727.55
513.9445, 17747.52
514.4266, 17722.77
514.9088, 17680.50
515.3909, 17654.48
515.8730, 17644.94
516.3551, 17645.65
516.8372, 17671.33
517.3193, 17694.19
517.8015, 17679.73
518.2836, 17636.35
518.7657, 17601.61
519.2478, 17595.42
519.7299, 17610.28
520.2120, 17630.89
520.6942, 17677.19
521.1763, 17689.93
521.6584, 17640.11
522.1405, 17588.05
522.6226, 17574.08
523.1047, 17584.71
523.5869, 17577.01
524.0690, 17519.98
524.5511, 17452.16
525.0332, 17442.69
525.5153, 17491.17
525.9974, 17537.05
526.4796, 17572.93
526.9617, 17590.63
527.4438, 17568.10
527.9259, 17511.34
528.4080, 17475.37
528.8901, 17475.88
529.3723, 17491.24
529.8544, 17523.38
530.3365, 17558.32
530.8186, 17566.13
531.3007, 17537.31
531.7828, 17495.35
532.2650, 17472.06
532.7471, 17469.51
533.2292, 17472.11
533.7113, 17477.21
534.1934, 17491.24
534.6755, 17538.53
535.1577, 17587.13
535.6398, 17585.37
536.1219, 17513.50
536.6040, 17437.88
537.0861, 17430.24
537.5682, 17468.90
538.0504, 17480.19
538.5325, 17452.25
539.0146, 17422.70
539.4967, 17419.03
539.9788, 17435.74
540.4609, 17445.09
540.9431, 17454.62
541.4252, 17447.69
541.9073, 17406.64
542.3894, 17356.91
542.8715, 17320.67
543.3536, 17300.94
543.8358, 17291.54
544.3179, 17288.96
544.8000, 17291.28
545.2821, 17289.55
545.7642, 17281.87
546.2463, 17275.47
546.7285, 17273.65
547.2106, 17272.75
547.6927, 17271.87
548.1748, 17270.34
548.6569, 17262.74
549.1390, 17235.13
549.6211, 17208.51
550.1032, 17214.57
550.5853, 17244.77
551.0674, 17258.38
551.5496, 17237.27
552.0317, 17202.25
552.5138, 17186.07
552.9959, 17191.07
553.4780, 17208.04
553.9601, 17249.55
554.4423, 17287.93
554.9244, 17313.57
555.4065, 17328.31
555.8886, 17332.95
556.3707, 17327.38
556.8528, 17323.92
557.3350, 17341.26
557.8171, 17376.24
558.2992, 17403.76
558.7813, 17421.99
559.2634, 17430.75
559.7455, 17424.30
560.2277, 17408.75
560.7098, 17405.05
561.1919, 17428.76
561.6740, 17437.37
562.1561, 17395.41
562.6382, 17345.33
563.1204, 17335.68
563.6025, 17367.17
564.0846, 17410.19
564.5667, 17446.60
565.0488, 17472.07
565.5309, 17469.72
566.0131, 17435.38
566.4952, 17383.69
566.9773, 17294.11
567.4594, 17205.93
567.9415, 17145.88
568.4236, 17110.42
568.9058, 17077.99
569.3879, 17040.47
569.8700, 17000.93
570.3521, 16970.44
570.8342, 16941.35
571.3163, 16879.11
571.7985, 16769.88
572.2806, 16658.15
572.7627, 16600.49
573.2448, 16603.98
573.7269, 16593.09
574.2090, 16564.07
574.6912, 16525.76
575.1733, 16465.31
575.6554, 16404.56
576.1375, 16371.39
576.6196, 16370.06
577.1017, 16374.03
577.5839, 16356.32
578.0660, 16324.65
578.5481, 16309.06
579.0302, 16312.92
579.5123, 16306.74
579.9944, 16275.96
580.4766, 16228.37
580.9587, 16170.33
581.4408, 16087.43
581.9229, 16050.76
582.4050, 16128.17
582.8871, 16202.57
583.3693, 16181.41
583.8514, 16096.96
584.3335, 16030.36
584.8156, 16019.08
585.2977, 16032.58
585.7798, 16020.00
586.2620, 15977.78
586.7441, 15953.14
587.2262, 15959.61
587.7083, 15964.86
588.1904, 15942.71
588.6725, 15909.27
589.1547, 15892.87
589.6368, 15904.91
590.1189, 15913.50
590.6010, 15902.33
591.0831, 15879.56
591.5652, 15848.66
592.0474, 15814.26
592.5295, 15794.86
593.0116, 15805.00
593.4937, 15832.63
593.9758, 15840.99
594.4579, 15826.76
594.9401, 15801.02
595.4222, 15731.49
595.9043, 15681.41
596.3864, 15705.58
596.8685, 15774.38
597.3506, 15809.05
597.8328, 15766.20
598.3149, 15708.27
598.7970, 15693.16
599.2791, 15706.79
599.7612, 15713.22
600.2433, 15705.51
600.7255, 15693.12
601.2076, 15682.99
601.6897, 15675.37
602.1718, 15672.13
602.6539, 15679.27
603.1360, 15682.61
603.6182, 15677.07
604.1003, 15670.55
604.5824, 15669.71
605.0645, 15673.75
605.5466, 15678.35
606.0287, 15687.08
606.5109, 15686.85
606.9930, 15646.10
607.4751, 15571.84
607.9572, 15519.73
608.4393, 15503.18
608.9214, 15514.38
609.4036, 15556.43
609.8857, 15629.41
610.3678, 15654.63
610.8499, 15586.51
611.3320, 15533.14
611.8141, 15541.77
612.2963, 15562.96
612.7784, 15536.10
613.2605, 15462.85
613.7426, 15402.84
614.2247, 15409.94
614.7068, 15454.82
615.1890, 15464.66
615.6711, 15438.14
616.1532, 15402.99
616.6353, 15359.43
617.1174, 15323.98
617.5995, 15316.88
618.0817, 15338.86
618.5638, 15368.03
619.0459, 15418.19
619.5280, 15458.48
620.0101, 15467.55
620.4922, 15464.71
620.9744, 15479.26
621.4565, 15513.50
621.9386, 15539.89
622.4207, 15530.92
622.9028, 15495.49
623.3849, 15468.89
623.8671, 15452.96
624.3492, 15434.30
624.8313, 15404.16
625.3134, 15374.99
625.7955, 15365.84
626.2776, 15375.34
626.7598, 15377.48
627.2419, 15358.03
627.7240, 15341.99
628.2061, 15346.49
628.6882, 15360.62
629.1703, 15364.78
629.6525, 15356.35
630.1346, 15354.18
630.6167, 15382.87
631.0988, 15432.69
631.5809, 15444.76
632.0630, 15408.34
632.5452, 15375.13
633.0273, 15352.42
633.5094, 15347.72
633.9915, 15380.87
634.4736, 15448.92
634.9557, 15489.93
635.4379, 15466.61
635.9200, 15439.23
636.4021, 15443.16
636.8842, 15464.57
637.3663, 15479.92
637.8484, 15484.03
638.3306, 15488.73
638.8127, 15506.50
639.2948, 15534.95
639.7769, 15559.58
640.2590, 15581.02
640.7411, 15595.90
641.2233, 15595.19
641.7054, 15595.28
642.1875, 15613.21
642.6696, 15647.94
643.1517, 15688.04
643.6339, 15747.86
644.1160, 15794.67
644.5981, 15796.56
645.0802, 15779.36
645.5623, 15782.09
646.0444, 15812.79
646.5266, 15854.88
647.0087, 15893.94
647.4908, 15930.70
647.9729, 15967.88
648.4550, 16003.72
648.9371, 16048.78
649.4193, 16128.02
649.9014, 16192.76
650.3835, 16177.69
650.8656, 16097.16
651.3477, 16053.89
651.8298, 16116.96
652.3120, 16161.70
652.7941, 16103.06
653.2762, 16004.21
653.7583, 15947.68
654.2404, 15946.68
654.7225, 15972.66
655.2047, 16012.37
655.6868, 16048.16
656.1689, 16007.64
656.6510, 15873.75
657.1331, 15768.54
657.6152, 15720.05
658.0974, 15703.69
658.5795, 15710.78
659.0616, 15734.96
659.5437, 15747.37
660.0258, 15732.64
660.5079, 15721.75
660.9901, 15741.28
661.4722, 15759.61
661.9543, 15736.05
662.4364, 15674.79
662.9185, 15612.57
663.4006, 15572.72
663.8828, 15549.85
664.3649, 15532.86
664.8470, 15521.70
665.3291, 15520.09
665.8112, 15533.79
666.2933, 15544.74
666.7755, 15537.72
667.2576, 15516.69
667.7397, 15500.11
668.2218, 15490.62
668.7039, 15481.29
669.1860, 15471.26
669.6682, 15460.58
670.1503, 15447.86
670.6324, 15434.45
671.1145, 15423.79
671.5966, 15417.58
672.0787, 15414.22
672.5609, 15413.37
673.0430, 15414.04
673.5251, 15409.10
674.0072, 15397.51
674.4893, 15382.11
674.9714, 15364.27
675.4536, 15343.95
675.9357, 15320.58
676.4178, 15288.47
676.8999, 15265.75
677.3820, 15257.96
677.8641, 15254.48
678.3463, 15250.41
678.8284, 15246.70
679.3105, 15246.81
679.7926, 15251.84
680.2747, 15255.68
680.7568, 15253.18
681.2390, 15245.12
681.7211, 15232.87
682.2032, 15216.59
682.6853, 15194.91
683.1674, 15164.17
683.6495, 15138.42
684.1317, 15144.29
684.6138, 15194.88
685.0959, 15207.35
685.5780, 15145.49
686.0601, 15088.65
686.5422, 15056.53
687.0244, 15038.19
687.5065, 15025.51
687.9886, 15015.82
688.4707, 15001.08
688.9528, 14969.35
689.4349, 14935.85
689.9171, 14919.69
690.3992, 14916.21
690.8813, 14910.46
691.3634, 14898.51
691.8455, 14889.53
692.3276, 14893.91
692.8098, 14909.55
693.2919, 14918.49
693.7740, 14922.03
694.2561, 14915.69
694.7382, 14887.06
695.2203, 14858.63
695.7025, 14843.99
696.1846, 14842.31
696.6667, 14849.86
697.1488, 14876.02
697.6309, 14895.75
698.1130, 14881.53
698.5952, 14861.37
699.0773, 14882.23
699.5594, 14936.87
700.0415, 14971.12
700.5236, 14950.05
701.0057, 14897.82
701.4879, 14847.08
701.9700, 14793.84
702.4521, 14842.71
702.9342, 15062.21
703.4163, 15230.34
703.8984, 15191.04
704.3806, 15020.01
704.8627, 14896.90
705.3448, 14827.94
705.8269, 14784.13
706.3090, 14765.10
706.7911, 14766.27
707.2733, 14793.46
707.7554, 14836.00
708.2375, 14883.51
708.7196, 14931.43
709.2017, 14962.51
709.6838, 14946.72
710.1660, 14905.04
710.6481, 14893.46
711.1302, 14911.03
711.6123, 14927.42
712.0944, 14931.39
712.5765, 14933.05
713.0587, 14947.57
713.5408, 14976.57
714.0229, 14983.24
714.5050, 14938.12
714.9871, 14911.03
715.4692, 14930.83
715.9514, 14958.29
716.4335, 14952.93
716.9156, 14922.88
717.3977, 14916.84
717.8798, 14972.49
718.3619, 15032.52
718.8441, 15046.08
719.3262, 15035.08
719.8083, 15037.97
720.2904, 15058.13
720.7725, 15074.53
721.2546, 15072.05
721.7368, 15060.67
722.2189, 15066.79
722.7010, 15094.36
723.1831, 15111.70
723.6652, 15113.29
724.1473, 15110.69
724.6295, 15108.03
725.1116, 15106.37
725.5937, 15109.24
726.0758, 15120.55
726.5579, 15122.51
727.0400, 15107.83
727.5222, 15087.10
728.0043, 15059.67
728.4864, 15033.05
728.9685, 15019.86
729.4506, 15022.60
729.9327, 15029.39
730.4149, 15030.86
730.8970, 15028.18
731.3791, 15023.26
731.8612, 15016.30
732.3433, 15010.21
732.8254, 15006.51
733.3076, 14997.80
733.7897, 14971.91
734.2718, 14932.40
734.7539, 14927.92
735.2360, 14998.56
735.7181, 15036.83
736.2003, 14999.47
736.6824, 14956.50
737.1645, 14960.11
737.6466, 14992.76
738.1287, 14999.98
738.6108, 14955.80
739.0930, 14912.51
739.5751, 14900.19
740.0572, 14903.96
740.5393, 14911.24
741.0214, 14918.59
741.5035, 14921.45
741.9857, 14917.62
742.4678, 14911.58
742.9499, 14909.79
743.4320, 14911.95
743.9141, 14914.97
744.3962, 14920.15
744.8784, 14918.36
745.3605, 14903.70
745.8426, 14883.89
746.3247, 14869.81
746.8068, 14862.50
747.2889, 14850.59
747.7711, 14818.33
748.2532, 14801.92
748.7353, 14827.66
749.2174, 14859.51
749.6995, 14861.39
750.1816, 14837.24
750.6638, 14818.64
751.1459, 14825.00
751.6280, 14833.48
752.1101, 14815.48
752.5922, 14787.24
753.0743, 14788.09
753.5565, 14816.12
754.0386, 14824.30
754.5207, 14782.71
755.0028, 14723.13
755.4849, 14711.32
755.9670, 14753.55
756.4492, 14787.82
756.9313, 14818.91
757.4134, 14825.54
757.8955, 14781.21
758.3776, 14720.22
758.8597, 14700.57
759.3419, 14727.53
759.8240, 14734.20
760.3061, 14688.67
760.7882, 14653.84
761.2703, 14663.46
761.7524, 14689.02
762.2346, 14703.11
762.7167, 14701.48
763.1988, 14689.47
763.6809, 14665.04
764.1630, 14640.61
764.6451, 14628.89
765.1273, 14628.61
765.6094, 14645.09
766.0915, 14675.18
766.5736, 14682.91
767.0557, 14642.51
767.5378, 14582.71
768.0200, 14570.46
768.5021, 14616.57
768.9842, 14644.50
769.4663, 14646.75
769.9484, 14644.29
770.4305, 14643.28
770.9127, 14644.35
771.3948, 14649.88
771.8769, 14660.61
772.3590, 14665.89
772.8411, 14669.10
773.3232, 14661.10
773.8054, 14623.29
774.2875, 14582.47
774.7696, 14565.22
775.2517, 14573.77
775.7338, 14600.30
776.2159, 14651.91
776.6981, 14695.46
777.1802, 14686.38
777.6623, 14642.66
778.1444, 14599.54
778.6265, 14563.55
779.1086, 14541.05
779.5908, 14535.74
780.0729, 14545.95
780.5550, 14575.01
781.0371, 14627.45
781.5192, 14648.26
782.0013, 14621.97
782.4835, 14606.49
782.9656, 14634.95
783.4477, 14674.18
783.9298, 14679.61
784.4119, 14650.54
784.8940, 14624.91
785.3762, 14595.10
785.8583, 14580.86
786.3404, 14593.02
786.8225, 14618.51
787.3046, 14659.12
787.7867, 14703.04
788.2689, 14715.34
788.7510, 14669.44
789.2331, 14627.92
789.7152, 14664.28
790.1973, 14728.52
790.6794, 14732.62
791.1616, 14684.71
791.6437, 14650.65
792.1258, 14658.66
792.6079, 14681.86
793.0900, 14680.48
793.5721, 14659.16
794.0543, 14669.31
794.5364, 14717.56
795.0185, 14754.90
795.5006, 14764.02
795.9827, 14764.99
796.4648, 14778.21
796.9470, 14801.87
797.4291, 14815.86
797.9112, 14814.05
798.3933, 14811.11
798.8754, 14812.39
799.3575, 14807.99
799.8397, 14778.70
800.3218, 14743.54
800.8039, 14741.49
801.2860, 14786.05
801.7681, 14830.78
802.2502, 14857.21
802.7324, 14869.36
803.2145, 14865.80
803.6966, 14852.38
804.1787, 14834.33
804.6608, 14815.71
805.1429, 14810.37
805.6251, 14833.71
806.1072, 14872.93
806.5893, 14903.76
807.0714, 14926.05
807.5535, 14937.97
808.0356, 14939.19
808.5178, 14926.94
808.9999, 14894.85
809.4820, 14857.58
809.9641, 14857.82
810.4462, 14916.80
810.9283, 14932.50
811.4105, 14868.34
811.8926, 14820.52
812.3747, 14830.82
812.8568, 14873.31
813.3389, 14930.68
813.8210, 15001.96
814.3032, 15039.07
814.7853, 15005.78
815.2674, 14974.25
815.7495, 14967.36
816.2316, 14974.15
816.7137, 14992.77
817.1959, 15015.18
817.6780, 15022.58
818.1601, 15004.78
818.6422, 14981.36
819.1243, 14955.52
819.6064, 14942.19
820.0886, 14974.70
820.5707, 15042.02
821.0528, 15106.08
821.5349, 15152.68
822.0170, 15174.53
822.4991, 15156.31
822.9813, 15110.94
823.4634, 15101.99
823.9455, 15132.56
824.4276, 15126.96
824.9097, 15059.84
825.3918, 14992.60
825.8740, 14970.77
826.3561, 14984.69
826.8382, 15003.80
827.3203, 15036.97
827.8024, 15054.57
828.2845, 15043.29
828.7667, 15032.64
829.2488, 15033.89
829.7309, 15041.05
830.2130, 15050.75
830.6951, 15062.44
831.1772, 15060.76
831.6594, 15030.24
832.1415, 15000.04
832.6236, 14976.93
833.1057, 14964.48
833.5878, 14973.63
834.0699, 14996.50
834.5521, 15006.93
835.0342, 14990.30
835.5163, 14975.32
835.9984, 14998.16
836.4805, 15034.79
836.9626, 15043.02
837.4448, 15027.92
837.9269, 15014.97
838.4090, 15013.20
838.8911, 15021.11
839.3732, 15041.53
839.8553, 15066.62
840.3375, 15060.79
840.8196, 15023.09
841.3017, 15006.15
841.7838, 15021.87
842.2659, 15046.64
842.7480, 15065.85
843.2302, 15081.48
843.7123, 15099.04
844.1944, 15120.57
844.6765, 15137.41
845.1586, 15150.69
845.6407, 15157.54
846.1229, 15152.96
846.6050, 15144.24
847.0871, 15137.41
847.5692, 15132.66
848.0513, 15130.20
848.5334, 15098.65
849.0156, 15111.92
849.4977, 15263.80
849.9798, 15402.02
850.4619, 15380.15
850.9440, 15257.28
851.4261, 15175.90
851.9083, 15180.56
852.3904, 15207.52
852.8725, 15219.96
853.3546, 15229.47
853.8367, 15262.20
854.3188, 15297.50
854.8010, 15276.52
855.2831, 15200.26
855.7652, 15152.50
856.2473, 15203.50
856.7294, 15291.82
857.2115, 15300.77
857.6937, 15250.53
858.1758, 15232.61
858.6579, 15255.11
859.1400, 15281.58
859.6221, 15293.94
860.1042, 15312.43
860.5864, 15376.05
861.0685, 15480.45
861.5506, 15506.07
862.0327, 15429.32
862.5148, 15363.89
862.9969, 15328.61
863.4791, 15322.19
863.9612, 15356.21
864.4433, 15414.95
864.9254, 15439.48
865.4075, 15401.21
865.8896, 15388.64
866.3718, 15423.49
866.8539, 15456.97
867.3360, 15465.73
867.8181, 15468.36
868.3002, 15490.99
868.7823, 15532.76
869.2645, 15559.39
869.7466, 15540.23
870.2287, 15532.72
870.7108, 15581.07
871.1929, 15631.79
871.6750, 15621.33
872.1572, 15576.32
872.6393, 15571.44
873.1214, 15633.23
873.6035, 15693.31
874.0856, 15685.21
874.5677, 15663.84
875.0499, 15704.01
875.5320, 15775.37
876.0141, 15806.44
876.4962, 15789.49
876.9783, 15773.06
877.4604, 15789.75
877.9426, 15824.84
878.4247, 15860.22
878.9068, 15893.66
879.3889, 15911.61
879.8710, 15915.39
880.3531, 15932.32
880.8353, 15973.92
881.3174, 16021.90
881.7995, 16054.39
882.2816, 16073.93
882.7637, 16095.71
883.2458, 16119.34
883.7280, 16149.41
884.2101, 16190.16
884.6922, 16225.28
885.1743, 16243.05
885.6564, 16249.05
886.1385, 16253.44
886.6207, 16251.53
887.1028, 16270.32
887.5849, 16328.53
888.0670, 16377.12
888.5491, 16401.03
889.0313, 16412.16
889.5134, 16415.25
889.9955, 16413.56
890.4776, 16421.80
890.9597, 16439.79
891.4418, 16469.72
891.9240, 16534.62
892.4061, 16586.97
892.8882, 16589.77
893.3703, 16571.47
893.8524, 16571.09
894.3345, 16593.25
894.8167, 16617.96
895.2988, 16641.84
895.7809, 16660.62
896.2630, 16665.54
896.7451, 16669.25
897.2272, 16683.93
897.7094, 16709.17
898.1915, 16743.81
898.6736, 16787.54
899.1557, 16822.67
899.6378, 16826.74
900.1199, 16820.83
900.6021, 16829.25
901.0842, 16848.57
901.5663, 16872.76
902.0484, 16899.10
902.5305, 16921.69
903.0126, 16935.91
903.4948, 16949.66
903.9769, 16979.04
904.4590, 17016.62
904.9411, 17034.46
905.4232, 17034.82
905.9053, 17043.83
906.3875, 17069.94
906.8696, 17099.08
907.3517, 17117.14
907.8338, 17128.91
908.3159, 17154.87
908.7980, 17195.25
909.2802, 17211.37
909.7623, 17196.79
910.2444, 17171.93
910.7265, 17140.11
911.2086, 17124.41
911.6907, 17166.51
912.1729, 17265.07
912.6550, 17308.53
913.1371, 17273.64
913.6192, 17258.29
914.1013, 17285.01
914.5834, 17323.84
915.0656, 17361.20
915.5477, 17393.42
916.0298, 17413.05
916.5119, 17421.48
916.9940, 17411.31
917.4761, 17354.73
917.9583, 17319.02
918.4404, 17335.23
918.9225, 17364.49
919.4046, 17369.53
919.8867, 17361.40
920.3688, 17384.23
920.8510, 17460.73
921.3331, 17525.14
921.8152, 17566.36
922.2973, 17595.58
922.7794, 17612.64
923.2615, 17624.25
923.7437, 17639.25
924.2258, 17656.84
924.7079, 17665.25
925.1900, 17649.76
925.6721, 17643.17
926.1542, 17668.48
926.6364, 17698.86
927.1185, 17716.93
927.6006, 17722.77
928.0827, 17710.30
928.5648, 17682.33
929.0469, 17679.23
929.5291, 17744.21
930.0112, 17818.21
930.4933, 17860.35
930.9754, 17884.08
931.4575, 17905.35
931.9396, 17923.97
932.4218, 17928.36
932.9039, 17914.92
933.3860, 17910.72
933.8681, 17949.58
934.3502, 18002.23
934.8323, 18028.17
935.3145, 18039.71
935.7966, 18066.97
936.2787, 18108.52
936.7608, 18132.71
937.2429, 18121.56
937.7250, 18105.19
938.2072, 18126.17
938.6893, 18166.92
939.1714, 18177.85
939.6535, 18170.77
940.1356, 18205.43
940.6177, 18289.75
941.0999, 18358.00
941.5820, 18361.28
942.0641, 18336.24
942.5462, 18352.31
943.0283, 18399.66
943.5104, 18419.92
943.9926, 18414.27
944.4747, 18439.49
944.9568, 18514.06
945.4389, 18581.57
945.9210, 18588.03
946.4031, 18557.29
946.8853, 18556.70
947.3674, 18586.13
947.8495, 18613.74
948.3316, 18637.69
948.8137, 18657.89
949.2958, 18674.16
949.7780, 18685.89
950.2601, 18688.73
950.7422, 18688.80
951.2243, 18726.48
951.7064, 18812.79
952.1885, 18859.42
952.6707, 18845.30
953.1528, 18840.79
953.6349, 18884.60
954.1170, 18940.52
954.5991, 18955.45
955.0812, 18932.61
955.5634, 18950.09
956.0455, 19031.06
956.5276, 19076.53
957.0097, 19050.50
957.4918, 19039.97
957.9739, 19103.12
958.4561, 19197.39
958.9382, 19254.65
959.4203, 19273.17
959.9024, 19279.04
960.3845, 19251.61
960.8666, 19253.51
961.3488, 19305.79
961.8309, 19373.64
962.3130, 19448.00
962.7951, 19517.31
963.2772, 19555.13
963.7593, 19552.21
964.2415, 19567.24
964.7236, 19609.79
965.2057, 19656.40
965.6878, 19723.88
966.1699, 19774.27
966.6520, 19763.79
967.1342, 19722.98
967.6163, 19723.80
968.0984, 19779.48
968.5805, 19830.11
969.0626, 19873.96
969.5447, 19911.19
970.0269, 19945.35
970.5090, 19969.72
970.9911, 19971.31
971.4732, 19960.14
971.9553, 19960.94
972.4374, 19974.38
972.9196, 20005.66
973.4017, 20079.53
973.8838, 20141.00
974.3659, 20159.27
974.8480, 20166.49
975.3301, 20191.84
975.8123, 20230.57
976.2944, 20261.54
976.7765, 20278.42
977.2586, 20297.57
977.7407, 20313.61
978.2228, 20343.54
978.7050, 20409.54
979.1871, 20481.46
979.6692, 20530.78
980.1513, 20559.03
980.6334, 20579.58
981.1155, 20590.57
981.5977, 20608.53
982.0798, 20637.10
982.5619, 20675.25
983.0440, 20722.94
983.5261, 20780.01
984.0082, 20865.46
984.4904, 20961.51
984.9725, 20996.85
985.4546, 20920.71
985.9367, 20879.06
986.4188, 20967.85
986.9009, 21056.86
987.3831, 21053.77
987.8652, 21019.60
988.3473, 21033.63
988.8294, 21090.35
989.3115, 21125.79
989.7936, 21108.49
990.2758, 21104.89
990.7579, 21155.07
991.2400, 21213.62
991.7221, 21258.09
992.2042, 21289.47
992.6863, 21306.01
993.1685, 21312.43
993.6506, 21324.15
994.1327, 21342.71
994.6148, 21377.29
995.0969, 21469.03
995.5790, 21538.39
996.0612, 21494.89
996.5433, 21420.08
997.0254, 21421.28
997.5075, 21497.04
997.9896, 21579.31
998.4717, 21656.85
998.9539, 21701.86
999.4360, 21669.11
999.9181, 21634.26
1000.400, 21661.46
1000.882, 21710.71
1001.364, 21722.04
1001.847, 21700.61
1002.329, 21703.10
1002.811, 21762.63
1003.293, 21804.93
1003.775, 21771.88
1004.257, 21735.02
1004.739, 21742.51
1005.221, 21776.02
1005.703, 21816.58
1006.186, 21857.70
1006.668, 21891.64
1007.150, 21915.79
1007.632, 21931.69
1008.114, 21925.16
1008.596, 21926.97
1009.078, 21965.24
1009.560, 22017.88
1010.043, 22057.23
1010.525, 22084.25
1011.007, 22117.55
1011.489, 22166.95
1011.971, 22208.22
1012.453, 22218.00
1012.935, 22231.61
1013.417, 22291.19
1013.899, 22351.17
1014.382, 22340.48
1014.864, 22282.02
1015.346, 22271.05
1015.828, 22344.44
1016.310, 22418.85
1016.792, 22468.79
1017.274, 22503.94
1017.756, 22507.23
1018.239, 22515.98
1018.721, 22586.52
1019.203, 22694.20
1019.685, 22752.68
1020.167, 22727.96
1020.649, 22726.41
1021.131, 22809.10
1021.613, 22889.88
1022.095, 22908.18
1022.578, 22924.39
1023.060, 23010.22
1023.542, 23138.13
1024.024, 23231.66
1024.506, 23275.08
1024.988, 23293.80
1025.470, 23270.37
1025.952, 23254.47
1026.435, 23255.51
1026.917, 23279.67
1027.399, 23353.90
1027.881, 23447.97
1028.363, 23491.90
1028.845, 23467.79
1029.327, 23471.41
1029.809, 23544.79
1030.292, 23613.57
1030.774, 23647.51
1031.256, 23681.12
1031.738, 23747.85
1032.220, 23826.73
1032.702, 23876.19
1033.184, 23890.71
1033.666, 23913.33
1034.148, 23943.62
1034.630, 23988.98
1035.113, 24067.75
1035.595, 24143.38
1036.077, 24195.82
1036.559, 24232.56
1037.041, 24255.52
1037.523, 24263.70
1038.005, 24308.60
1038.487, 24432.03
1038.970, 24524.32
1039.452, 24550.15
1039.934, 24582.53
1040.416, 24663.47
1040.898, 24758.21
1041.380, 24828.07
1041.862, 24873.68
1042.344, 24899.34
1042.826, 24867.32
1043.309, 24902.71
1043.791, 25058.75
1044.273, 25188.37
1044.755, 25215.57
1045.237, 25227.63
1045.719, 25319.16
1046.201, 25470.28
1046.683, 25589.14
1047.166, 25669.60
1047.648, 25743.35
1048.130, 25817.76
1048.612, 25858.64
1049.094, 25838.55
1049.576, 25826.18
1050.058, 25882.14
1050.540, 25985.10
1051.022, 26078.74
1051.505, 26161.91
1051.987, 26249.06
1052.469, 26343.87
1052.951, 26407.94
1053.433, 26422.53
1053.915, 26464.38
1054.397, 26594.19
1054.879, 26754.02
1055.361, 26830.97
1055.844, 26834.73
1056.326, 26886.46
1056.808, 26986.29
1057.290, 27075.43
1057.772, 27143.74
1058.254, 27217.68
1058.736, 27311.78
1059.218, 27408.59
1059.701, 27483.66
1060.183, 27543.22
1060.665, 27606.19
1061.147, 27672.93
1061.629, 27743.46
1062.111, 27818.36
1062.593, 27904.35
1063.075, 28003.30
1063.557, 28092.69
1064.040, 28141.07
1064.522, 28184.43
1065.004, 28297.34
1065.486, 28453.15
1065.968, 28596.65
1066.450, 28720.27
1066.932, 28812.83
1067.414, 28876.12
1067.896, 28939.17
1068.379, 29020.70
1068.861, 29112.99
1069.343, 29218.69
1069.825, 29321.05
1070.307, 29383.34
1070.789, 29429.86
1071.271, 29513.63
1071.753, 29635.49
1072.236, 29756.78
1072.718, 29860.18
1073.200, 29964.47
1073.682, 30109.21
1074.164, 30233.84
1074.646, 30241.53
1075.128, 30233.94
1075.610, 30359.34
1076.093, 30576.90
1076.575, 30743.95
1077.057, 30821.96
1077.539, 30891.39
1078.021, 30971.28
1078.503, 31070.57
1078.985, 31205.05
1079.467, 31348.69
1079.949, 31483.18
1080.432, 31612.61
1080.914, 31749.36
1081.396, 31893.34
1081.878, 32025.23
1082.360, 32144.79
1082.842, 32248.16
1083.324, 32305.67
1083.806, 32381.28
1084.288, 32523.38
1084.771, 32682.99
1085.253, 32796.86
1085.735, 32878.32
1086.217, 32998.48
1086.699, 33189.60
1087.181, 33329.20
1087.663, 33378.21
1088.145, 33455.93
1088.628, 33606.35
1089.110, 33768.36
1089.592, 33897.62
1090.074, 34008.60
1090.556, 34131.64
1091.038, 34266.49
1091.520, 34417.22
1092.002, 34586.53
1092.484, 34753.21
1092.967, 34917.89
1093.449, 35050.28
1093.931, 35132.73
1094.413, 35194.15
1094.895, 35267.83
1095.377, 35355.86
1095.859, 35470.52
1096.341, 35607.86
1096.823, 35725.75
1097.306, 35826.79
1097.788, 35984.03
1098.270, 36215.43
1098.752, 36423.40
1099.234, 36524.60
1099.716, 36581.68
1100.198, 36693.92
1100.680, 36830.26
1101.163, 36930.95
1101.645, 37000.29
1102.127, 37025.64
1102.609, 37033.29
1103.091, 37142.41
1103.573, 37413.99
1104.055, 37686.32
1104.537, 37811.45
1105.020, 37890.71
1105.502, 38011.05
1105.984, 38144.16
1106.466, 38243.11
1106.948, 38327.97
1107.430, 38455.14
1107.912, 38634.16
1108.394, 38802.21
1108.876, 38925.54
1109.359, 39046.24
1109.841, 39180.02
1110.323, 39315.00
1110.805, 39452.77
1111.287, 39580.88
1111.769, 39665.25
1112.251, 39721.85
1112.733, 39840.41
1113.215, 40075.13
1113.698, 40253.48
1114.180, 40306.66
1114.662, 40405.55
1115.144, 40630.10
1115.626, 40850.74
1116.108, 40963.55
1116.590, 41033.87
1117.072, 41189.70
1117.555, 41431.90
1118.037, 41641.11
1118.519, 41816.22
1119.001, 41959.04
1119.483, 42064.07
1119.965, 42168.44
1120.447, 42283.29
1120.929, 42440.26
1121.411, 42684.54
1121.894, 42961.61
1122.376, 43103.14
1122.858, 43143.52
1123.340, 43278.56
1123.822, 43494.28
1124.304, 43663.23
1124.786, 43764.02
1125.268, 43887.61
1125.750, 44086.92
1126.233, 44298.77
1126.715, 44443.81
1127.197, 44563.43
1127.679, 44701.40
1128.161, 44861.83
1128.643, 45071.64
1129.125, 45305.38
1129.607, 45484.66
1130.090, 45597.99
1130.572, 45745.76
1131.054, 45995.35
1131.536, 46262.86
1132.018, 46535.81
1132.500, 46779.03
1132.982, 46957.23
1133.464, 47101.61
1133.947, 47227.54
1134.429, 47353.91
1134.911, 47548.96
1135.393, 47862.53
1135.875, 48099.64
1136.357, 48176.27
1136.839, 48275.16
1137.321, 48436.06
1137.803, 48610.80
1138.286, 48759.83
1138.768, 48925.76
1139.250, 49190.23
1139.732, 49532.66
1140.214, 49752.61
1140.696, 49829.87
1141.178, 49945.25
1141.660, 50111.00
1142.142, 50317.92
1142.625, 50564.70
1143.107, 50812.91
1143.589, 51033.63
1144.071, 51233.89
1144.553, 51422.07
1145.035, 51601.81
1145.517, 51775.19
1145.999, 51950.30
1146.482, 52162.60
1146.964, 52404.07
1147.446, 52624.01
1147.928, 52804.22
1148.410, 52981.80
1148.892, 53181.79
1149.374, 53394.33
1149.856, 53630.37
1150.339, 53853.35
1150.821, 54010.06
1151.303, 54138.10
1151.785, 54293.24
1152.267, 54479.30
1152.749, 54679.99
1153.231, 54896.01
1153.713, 55105.12
1154.195, 55318.68
1154.677, 55504.52
1155.160, 55628.35
1155.642, 55748.81
1156.124, 55900.67
1156.606, 56073.21
1157.088, 56266.16
1157.570, 56470.52
1158.052, 56565.43
1158.534, 56509.21
1159.017, 56541.63
1159.499, 56688.98
1159.981, 56840.51
1160.463, 56966.85
1160.945, 57061.70
1161.427, 57120.45
1161.909, 57150.56
1162.391, 57155.91
1162.874, 57147.13
1163.356, 57145.93
1163.838, 57163.99
1164.320, 57266.93
1164.802, 57429.33
1165.284, 57527.20
1165.766, 57526.03
1166.248, 57506.34
1166.730, 57527.04
1167.213, 57533.18
1167.695, 57448.29
1168.177, 57361.00
1168.659, 57335.61
1169.141, 57366.63
1169.623, 57483.24
1170.105, 57637.93
1170.587, 57702.74
1171.069, 57645.91
1171.552, 57578.93
1172.034, 57502.66
1172.516, 57444.49
1172.998, 57391.29
1173.480, 57383.75
1173.962, 57472.71
1174.444, 57566.25
1174.926, 57553.64
1175.409, 57479.80
1175.891, 57510.50
1176.373, 57656.38
1176.855, 57752.18
1177.337, 57797.10
1177.819, 57844.36
1178.301, 57903.57
1178.783, 57942.05
1179.266, 57943.76
1179.748, 57954.53
1180.230, 58025.60
1180.712, 58128.77
1181.194, 58220.26
1181.676, 58310.20
1182.158, 58424.55
1182.640, 58546.14
1183.122, 58618.61
1183.604, 58657.08
1184.087, 58760.15
1184.569, 58973.71
1185.051, 59173.54
1185.533, 59304.68
1186.015, 59407.57
1186.497, 59481.21
1186.979, 59552.41
1187.461, 59637.39
1187.944, 59732.45
1188.426, 59829.56
1188.908, 59931.08
1189.390, 60049.22
1189.872, 60188.77
1190.354, 60328.18
1190.836, 60464.38
1191.318, 60618.00
1191.801, 60795.59
1192.283, 60978.03
1192.765, 61157.09
1193.247, 61307.37
1193.729, 61384.11
1194.211, 61430.02
1194.693, 61564.34
1195.175, 61748.52
1195.657, 61886.26
1196.140, 61979.37
1196.622, 62043.39
1197.104, 62092.10
1197.586, 62164.63
1198.068, 62281.31
1198.550, 62390.06
1199.032, 62458.24
1199.514, 62509.16
1199.996, 62525.28
1200.479, 62561.60
1200.961, 62689.14
1201.443, 62847.29
1201.925, 62952.16
1202.407, 63000.66
1202.889, 63015.09
1203.371, 62969.75
1203.853, 62974.07
1204.336, 63038.35
1204.818, 63123.54
1205.300, 63229.62
1205.782, 63314.53
1206.264, 63348.26
1206.746, 63404.04
1207.228, 63595.03
1207.710, 63821.16
1208.193, 63793.00
1208.675, 63607.09
1209.157, 63528.78
1209.639, 63547.54
1210.121, 63616.38
1210.603, 63701.12
1211.085, 63708.97
1211.567, 63600.91
1212.049, 63533.25
1212.531, 63645.02
1213.014, 63764.40
1213.496, 63801.73
1213.978, 63813.58
1214.460, 63829.33
1214.942, 63849.61
1215.424, 63855.68
1215.906, 63866.18
1216.388, 63961.48
1216.871, 64174.90
1217.353, 64251.71
1217.835, 64144.87
1218.317, 64103.49
1218.799, 64167.11
1219.281, 64267.28
1219.763, 64379.07
1220.245, 64478.19
1220.728, 64541.63
1221.210, 64585.09
1221.692, 64638.82
1222.174, 64690.90
1222.656, 64704.14
1223.138, 64702.55
1223.620, 64738.04
1224.102, 64805.34
1224.584, 64871.52
1225.067, 64927.53
1225.549, 64980.61
1226.031, 65020.18
1226.513, 65083.34
1226.995, 65198.07
1227.477, 65318.61
1227.959, 65436.93
1228.441, 65542.00
1228.923, 65630.54
1229.406, 65697.54
1229.888, 65725.62
1230.370, 65722.66
1230.852, 65776.53
1231.334, 65889.21
1231.816, 66020.99
##END=



