##NAMES=Famatinite
##RRUFFID=R110022
##IDEAL CHEMISTRY=Cu^1+^Cu^2+^_2_Sb^3+^S^2-^_4_
##LOCALITY=Quiruvilca, La Libertad Department, Peru
##OWNER=RRUFF
##SOURCE=William Pinch
##DESCRIPTION=Pinkish grey metallic massive associated with black metallic tetrahedral tennantite R110024 on pyrite
##STATUS=The identification of this mineral is confirmed by single-crystal X-ray diffraction and chemical analysis.
##URL=rruff.info/R110022
##MEASURED CHEMISTRY=Cu_2.99_(Sb_0.61_As_0.40_)_Î£=1.01_S_4_
179.7447, 25.77252
180.2268, 24.70209
180.7090, 23.70083
181.1911, 22.84382
181.6732, 22.39378
182.1553, 22.93583
182.6374, 23.90586
183.1195, 23.89396
183.6017, 22.71741
184.0838, 21.43708
184.5659, 21.11921
185.0480, 21.70583
185.5301, 22.92908
186.0123, 25.33080
186.4944, 28.33594
186.9765, 29.85533
187.4586, 29.62106
187.9407, 28.71899
188.4228, 28.86764
188.9050, 29.93323
189.3871, 30.47652
189.8692, 29.08817
190.3513, 26.32424
190.8334, 25.12297
191.3155, 25.85140
191.7977, 27.56915
192.2798, 29.28206
192.7619, 30.99574
193.2440, 31.65612
193.7261, 29.76999
194.2082, 25.70694
194.6904, 24.02579
195.1725, 25.46141
195.6546, 28.35091
196.1367, 29.55966
196.6188, 28.99763
197.1009, 28.14817
197.5831, 27.81285
198.0652, 27.98530
198.5473, 27.95652
199.0294, 27.59373
199.5115, 27.14298
199.9937, 27.04720
200.4758, 27.29037
200.9579, 27.95421
201.4400, 29.48190
201.9221, 32.02488
202.4042, 33.13619
202.8864, 32.19398
203.3685, 30.23857
203.8506, 30.11175
204.3327, 32.42025
204.8148, 34.10920
205.2969, 32.86597
205.7791, 28.02058
206.2612, 25.30576
206.7433, 25.64613
207.2254, 27.83949
207.7075, 28.84100
208.1896, 28.41836
208.6718, 27.49266
209.1539, 26.31286
209.6360, 24.65623
210.1181, 23.99208
210.6002, 24.68101
211.0823, 26.24969
211.5645, 27.38299
212.0466, 27.98977
212.5287, 28.38941
213.0108, 28.79111
213.4929, 29.29032
213.9750, 29.44034
214.4572, 29.20986
214.9393, 28.62113
215.4214, 27.51136
215.9035, 25.30662
216.3856, 23.74147
216.8678, 24.16035
217.3499, 27.66331
217.8320, 29.38589
218.3141, 28.22470
218.7962, 25.38644
219.2783, 24.98346
219.7605, 28.46698
220.2426, 31.74823
220.7247, 32.25737
221.2068, 28.37393
221.6889, 26.50952
222.1710, 27.89627
222.6532, 31.25359
223.1353, 32.38719
223.6174, 30.23606
224.0995, 27.65708
224.5816, 26.04144
225.0637, 25.58097
225.5459, 25.56147
226.0280, 25.97729
226.5101, 26.81386
226.9922, 28.16279
227.4743, 30.71751
227.9564, 32.71753
228.4386, 33.09242
228.9207, 30.65645
229.4028, 29.50533
229.8849, 30.16075
230.3670, 32.02023
230.8492, 33.52996
231.3313, 34.98990
231.8134, 35.63169
232.2955, 34.80442
232.7776, 31.09208
233.2597, 29.35516
233.7419, 30.56043
234.2240, 33.49646
234.7061, 34.89470
235.1882, 33.89888
235.6703, 32.67757
236.1524, 32.16928
236.6346, 32.78587
237.1167, 33.16068
237.5988, 33.11311
238.0809, 32.88938
238.5630, 33.04246
239.0451, 33.52860
239.5273, 34.46497
240.0094, 36.13237
240.4915, 39.42453
240.9736, 40.98410
241.4557, 39.83899
241.9378, 37.40367
242.4200, 36.71233
242.9021, 38.77135
243.3842, 40.99988
243.8663, 42.40107
244.3484, 42.62375
244.8306, 43.05009
245.3127, 43.61277
245.7948, 44.40801
246.2769, 45.74570
246.7590, 48.25215
247.2411, 50.20794
247.7233, 50.85596
248.2054, 49.70295
248.6875, 49.12082
249.1696, 49.42078
249.6517, 50.08755
250.1338, 50.31968
250.6160, 50.12237
251.0981, 49.47570
251.5802, 48.31302
252.0623, 46.52967
252.5444, 44.69796
253.0265, 42.64720
253.5087, 40.70073
253.9908, 39.35525
254.4729, 38.69491
254.9550, 38.45367
255.4371, 38.70771
255.9192, 39.57224
256.4014, 39.95188
256.8835, 39.66549
257.3656, 39.07300
257.8477, 38.56290
258.3298, 38.07148
258.8120, 37.82446
259.2941, 38.03046
259.7762, 38.75190
260.2583, 38.75770
260.7404, 37.65266
261.2225, 36.32115
261.7047, 35.76482
262.1868, 36.34829
262.6689, 36.73696
263.1510, 36.55251
263.6331, 35.81974
264.1152, 35.48616
264.5974, 35.81923
265.0795, 36.14046
265.5616, 35.62089
266.0437, 33.79420
266.5258, 32.69651
267.0079, 32.98115
267.4901, 34.42568
267.9722, 34.93221
268.4543, 34.17488
268.9364, 33.14426
269.4185, 32.62167
269.9006, 32.67665
270.3828, 32.93359
270.8649, 33.33436
271.3470, 33.89558
271.8291, 34.76921
272.3112, 36.09180
272.7933, 37.39407
273.2755, 38.31977
273.7576, 38.83384
274.2397, 39.25328
274.7218, 39.66376
275.2039, 39.96938
275.6860, 39.86675
276.1682, 39.32112
276.6503, 38.49501
277.1324, 37.23433
277.6145, 35.45647
278.0966, 34.53945
278.5787, 34.72743
279.0609, 35.66467
279.5430, 36.88491
280.0251, 38.54309
280.5072, 39.48794
280.9893, 38.67388
281.4715, 36.12133
281.9536, 34.34797
282.4357, 33.50842
282.9178, 33.37975
283.3999, 33.84852
283.8820, 34.96362
284.3642, 35.78582
284.8463, 35.88662
285.3284, 35.28852
285.8105, 34.06653
286.2926, 31.98843
286.7747, 30.01574
287.2569, 29.75934
287.7390, 31.15126
288.2211, 32.39541
288.7032, 32.79356
289.1853, 32.45331
289.6674, 31.70943
290.1496, 30.48609
290.6317, 29.33191
291.1138, 28.95240
291.5959, 29.25280
292.0780, 29.55868
292.5602, 29.47393
293.0423, 29.30887
293.5244, 30.17036
294.0065, 32.10936
294.4886, 33.79422
294.9707, 33.53690
295.4529, 31.91191
295.9350, 31.04995
296.4171, 31.80211
296.8992, 33.32793
297.3813, 34.25107
297.8634, 34.59166
298.3456, 34.59194
298.8277, 34.30477
299.3098, 33.81659
299.7919, 33.27553
300.2740, 32.62949
300.7561, 32.09867
301.2383, 31.92346
301.7204, 32.10246
302.2025, 32.65117
302.6846, 34.08962
303.1667, 35.75946
303.6488, 36.48481
304.1310, 35.76171
304.6131, 35.07990
305.0952, 36.46739
305.5773, 39.17088
306.0594, 41.14698
306.5415, 40.46046
307.0237, 38.93648
307.5058, 38.59504
307.9879, 39.74952
308.4700, 41.23768
308.9521, 42.30298
309.4343, 43.08442
309.9164, 43.85394
310.3985, 44.26760
310.8806, 45.03642
311.3627, 47.10971
311.8448, 50.56279
312.3270, 53.49260
312.8091, 53.99462
313.2912, 53.58108
313.7733, 54.03837
314.2554, 56.85200
314.7375, 59.95862
315.2197, 62.30229
315.7018, 63.96395
316.1839, 65.52633
316.6660, 66.91069
317.1481, 68.49585
317.6302, 70.56778
318.1124, 73.21756
318.5945, 76.33913
319.0766, 80.26383
319.5587, 84.72862
320.0408, 88.87811
320.5229, 92.14959
321.0051, 95.23847
321.4872, 98.65627
321.9693, 103.1354
322.4514, 106.6356
322.9335, 108.4297
323.4156, 108.9931
323.8978, 109.2418
324.3799, 110.0344
324.8620, 109.9304
325.3441, 108.4547
325.8262, 105.5663
326.3083, 101.3705
326.7905, 94.78362
327.2726, 87.22093
327.7547, 80.51411
328.2368, 75.37122
328.7189, 70.35224
329.2010, 64.95636
329.6832, 59.09902
330.1653, 54.33408
330.6474, 51.44274
331.1295, 49.08596
331.6116, 46.07013
332.0938, 41.30352
332.5759, 37.59497
333.0580, 35.33616
333.5401, 34.44363
334.0222, 34.58954
334.5043, 36.59787
334.9865, 38.51002
335.4686, 39.10995
335.9507, 37.93042
336.4328, 36.61896
336.9149, 34.95906
337.3970, 33.35210
337.8792, 33.11389
338.3613, 34.77563
338.8434, 36.29226
339.3255, 36.58443
339.8076, 35.41872
340.2898, 34.86330
340.7719, 35.03299
341.2540, 35.60547
341.7361, 36.04100
342.2182, 36.27553
342.7003, 36.93800
343.1825, 38.53401
343.6646, 40.83249
344.1467, 42.05297
344.6288, 42.06137
345.1109, 41.72334
345.5930, 41.88170
346.0752, 42.49723
346.5573, 43.19904
347.0394, 43.94988
347.5215, 44.69133
348.0036, 45.29505
348.4857, 45.76034
348.9679, 46.18690
349.4500, 46.59411
349.9321, 47.02193
350.4142, 47.68751
350.8963, 48.79076
351.3784, 49.72197
351.8606, 49.42244
352.3427, 48.17882
352.8248, 47.03870
353.3069, 46.63506
353.7890, 46.68030
354.2711, 46.75283
354.7533, 46.79971
355.2354, 47.05556
355.7175, 47.84974
356.1996, 48.97604
356.6817, 50.07475
357.1638, 51.41523
357.6460, 52.36406
358.1281, 51.90420
358.6102, 50.20200
359.0923, 49.32035
359.5744, 51.99044
360.0565, 55.36546
360.5387, 56.58357
361.0208, 53.05877
361.5029, 49.47698
361.9850, 47.92329
362.4671, 47.96666
362.9492, 48.32127
363.4314, 49.37349
363.9135, 50.01189
364.3956, 49.48587
364.8777, 47.11479
365.3598, 44.96280
365.8419, 43.11160
366.3241, 41.81300
366.8062, 41.46541
367.2883, 43.99480
367.7704, 45.67660
368.2526, 44.98053
368.7347, 41.20864
369.2168, 38.98725
369.6989, 40.08734
370.1810, 41.69895
370.6631, 41.40452
371.1453, 36.76234
371.6274, 33.88450
372.1095, 34.10110
372.5916, 36.88396
373.0737, 38.77096
373.5558, 39.83545
374.0380, 39.92398
374.5201, 38.55351
375.0022, 34.75618
375.4843, 32.92590
375.9664, 33.91059
376.4485, 36.31040
376.9307, 37.36144
377.4128, 36.83353
377.8949, 35.87973
378.3770, 34.73974
378.8591, 33.45475
379.3412, 32.95919
379.8234, 33.42960
380.3055, 34.08159
380.7876, 33.73528
381.2697, 32.48291
381.7518, 32.13086
382.2339, 33.64075
382.7161, 35.97222
383.1982, 36.51570
383.6803, 35.31938
384.1624, 33.90054
384.6445, 33.34039
385.1266, 33.42341
385.6088, 33.67769
386.0909, 34.09523
386.5730, 34.46992
387.0551, 34.78075
387.5372, 34.88818
388.0193, 34.38500
388.5015, 32.00311
388.9836, 29.46666
389.4657, 29.09656
389.9478, 31.08821
390.4299, 32.75106
390.9120, 31.62022
391.3942, 29.29093
391.8763, 27.74678
392.3584, 28.25907
392.8405, 29.15872
393.3226, 29.63268
393.8047, 29.77433
394.2869, 30.01073
394.7690, 30.39563
395.2511, 31.00351
395.7332, 32.03885
396.2154, 34.24004
396.6975, 35.38147
397.1796, 34.18160
397.6617, 31.75976
398.1438, 30.05111
398.6259, 29.46666
399.1081, 29.45035
399.5902, 30.19013
400.0723, 31.93616
400.5544, 32.63218
401.0365, 31.46626
401.5186, 29.84986
402.0008, 28.95984
402.4829, 29.18317
402.9650, 29.38288
403.4471, 29.39533
403.9292, 29.29129
404.4113, 29.37651
404.8935, 29.70177
405.3756, 30.09869
405.8577, 30.49252
406.3398, 30.88053
406.8219, 31.33821
407.3040, 32.00676
407.7862, 32.47906
408.2683, 31.84953
408.7504, 30.06716
409.2325, 28.90079
409.7146, 29.13148
410.1967, 30.39209
410.6789, 31.82154
411.1610, 33.45753
411.6431, 34.32935
412.1252, 32.59333
412.6073, 29.34937
413.0894, 28.05468
413.5716, 30.06828
414.0537, 32.76974
414.5358, 32.77225
415.0179, 30.71550
415.5000, 28.68715
415.9821, 27.57528
416.4643, 27.22015
416.9464, 27.67627
417.4285, 28.99371
417.9106, 30.34458
418.3927, 31.14250
418.8748, 31.68887
419.3570, 32.32716
419.8391, 33.90378
420.3212, 34.89831
420.8033, 34.30465
421.2854, 32.44935
421.7675, 30.86897
422.2497, 30.11494
422.7318, 29.69633
423.2139, 29.38745
423.6960, 29.21444
424.1781, 29.03692
424.6602, 28.71166
425.1424, 28.41018
425.6245, 28.38314
426.1066, 28.62021
426.5887, 29.15784
427.0709, 30.23551
427.5530, 31.85235
428.0351, 32.62194
428.5172, 32.13388
428.9993, 31.36961
429.4814, 30.95240
429.9636, 30.83900
430.4457, 31.39775
430.9278, 33.10299
431.4099, 35.05676
431.8920, 34.92651
432.3741, 32.40283
432.8563, 30.19523
433.3384, 29.81903
433.8205, 30.94492
434.3026, 31.30268
434.7847, 30.83755
435.2668, 30.07401
435.7490, 29.36004
436.2311, 28.75373
436.7132, 28.52320
437.1953, 28.87558
437.6774, 29.44075
438.1595, 29.62575
438.6417, 29.54957
439.1238, 29.70514
439.6059, 30.89217
440.0880, 32.20562
440.5701, 32.60374
441.0522, 31.88383
441.5344, 30.88600
442.0165, 29.84576
442.4986, 28.92786
442.9807, 28.34146
443.4628, 28.35217
443.9449, 28.51420
444.4271, 28.75348
444.9092, 29.03477
445.3913, 29.17881
445.8734, 28.94961
446.3555, 28.71557
446.8376, 28.64990
447.3198, 28.76133
447.8019, 29.05986
448.2840, 29.71528
448.7661, 30.48038
449.2482, 30.99959
449.7303, 31.10877
450.2125, 31.24835
450.6946, 31.55794
451.1767, 32.01448
451.6588, 32.32435
452.1409, 32.61185
452.6230, 32.47416
453.1052, 31.22623
453.5873, 28.67615
454.0694, 27.59586
454.5515, 28.48254
455.0337, 30.32450
455.5158, 31.78623
455.9979, 32.84573
456.4800, 32.95420
456.9621, 30.98742
457.4442, 28.17016
457.9264, 27.70353
458.4085, 29.50913
458.8906, 31.54556
459.3727, 32.13478
459.8548, 31.85927
460.3369, 31.65363
460.8191, 31.80559
461.3012, 31.86035
461.7833, 31.11957
462.2654, 30.01996
462.7475, 29.47060
463.2296, 30.54521
463.7118, 31.71475
464.1939, 32.17231
464.6760, 31.86762
465.1581, 31.17711
465.6402, 29.27912
466.1223, 27.60734
466.6045, 27.20273
467.0866, 30.66437
467.5687, 32.33968
468.0508, 30.43993
468.5329, 26.70667
469.0150, 25.11472
469.4972, 27.43775
469.9793, 29.20090
470.4614, 28.54403
470.9435, 25.24357
471.4256, 24.27779
471.9077, 26.43900
472.3899, 29.35319
472.8720, 31.01711
473.3541, 31.38823
473.8362, 31.04220
474.3183, 29.76383
474.8004, 28.27793
475.2826, 28.21295
475.7647, 29.47281
476.2468, 30.69625
476.7289, 31.28382
477.2110, 31.32696
477.6931, 30.78827
478.1753, 29.67232
478.6574, 28.77666
479.1395, 29.15137
479.6216, 30.05666
480.1037, 30.34923
480.5858, 29.45745
481.0680, 28.41271
481.5501, 27.65425
482.0322, 27.26675
482.5143, 27.44096
482.9964, 29.15949
483.4786, 30.67337
483.9607, 30.87980
484.4428, 29.59152
484.9249, 28.85959
485.4070, 30.04299
485.8892, 31.32051
486.3713, 31.33440
486.8534, 27.97211
487.3355, 26.51783
487.8176, 28.28900
488.2997, 31.64013
488.7819, 32.92664
489.2640, 31.11877
489.7461, 29.59030
490.2282, 29.58840
490.7103, 30.99639
491.1924, 31.72266
491.6746, 31.63406
492.1567, 31.43142
492.6388, 32.15820
493.1209, 33.57768
493.6030, 33.15168
494.0851, 29.94174
494.5673, 26.45691
495.0494, 27.16536
495.5315, 30.93880
496.0136, 33.67985
496.4957, 32.45307
496.9778, 29.81973
497.4600, 28.53767
497.9421, 28.53580
498.4242, 28.83798
498.9063, 28.95698
499.3884, 29.06591
499.8705, 29.34979
500.3527, 29.95387
500.8348, 30.45467
501.3169, 30.70423
501.7990, 30.75328
502.2811, 30.67179
502.7632, 30.37626
503.2454, 30.05187
503.7275, 29.49726
504.2096, 28.79828
504.6917, 29.02779
505.1738, 31.13663
505.6559, 32.88173
506.1381, 32.79107
506.6202, 30.08316
507.1023, 28.85650
507.5844, 29.53790
508.0665, 30.93035
508.5486, 31.22527
509.0308, 30.38445
509.5129, 30.30837
509.9950, 31.85282
510.4771, 34.09574
510.9592, 35.13391
511.4413, 35.01613
511.9235, 34.30018
512.4056, 32.91929
512.8877, 31.31962
513.3698, 30.24899
513.8519, 29.79990
514.3340, 29.29714
514.8162, 27.46564
515.2983, 25.58250
515.7804, 25.26184
516.2625, 28.60987
516.7446, 31.53080
517.2267, 31.87576
517.7089, 30.55248
518.1910, 29.77854
518.6731, 30.83847
519.1552, 31.76176
519.6373, 31.73925
520.1194, 30.65993
520.6016, 29.81755
521.0837, 29.11854
521.5658, 28.76812
522.0479, 29.08996
522.5300, 30.47776
523.0121, 30.99360
523.4943, 30.21810
523.9764, 28.90546
524.4585, 28.38185
524.9406, 28.66625
525.4227, 29.21853
525.9048, 29.93097
526.3870, 30.73679
526.8691, 31.59043
527.3513, 32.47446
527.8334, 33.08437
528.3155, 33.08146
528.7976, 32.71901
529.2797, 32.33749
529.7618, 31.96839
530.2440, 31.63909
530.7261, 31.26138
531.2082, 30.97047
531.6903, 30.94576
532.1724, 31.66239
532.6545, 32.21101
533.1367, 31.89202
533.6188, 31.09141
534.1009, 31.17675
534.5830, 34.12723
535.0651, 36.25415
535.5472, 35.87636
536.0294, 32.39336
536.5115, 30.92697
536.9936, 32.72280
537.4757, 34.79518
537.9578, 34.23652
538.4399, 30.38276
538.9221, 28.16525
539.4042, 28.30484
539.8863, 29.86167
540.3684, 31.65297
540.8505, 33.59494
541.3326, 34.64671
541.8148, 33.92105
542.2969, 32.32666
542.7790, 31.41608
543.2611, 31.13708
543.7432, 31.03075
544.2253, 30.87603
544.7075, 30.68859
545.1896, 30.38441
545.6717, 29.86572
546.1538, 29.72925
546.6359, 30.66860
547.1180, 31.97482
547.6002, 32.88265
548.0823, 33.47774
548.5644, 33.35849
549.0465, 31.68717
549.5286, 29.21089
550.0107, 28.16050
550.4929, 29.59774
550.9750, 30.85047
551.4571, 30.88657
551.9392, 29.69609
552.4213, 29.54118
552.9034, 30.76872
553.3856, 31.94336
553.8677, 31.48995
554.3498, 29.62021
554.8319, 29.08059
555.3140, 30.35849
555.7961, 32.21069
556.2783, 33.11098
556.7604, 33.27222
557.2425, 33.25974
557.7246, 33.12280
558.2067, 33.07023
558.6888, 33.54752
559.1710, 34.33797
559.6531, 34.69439
560.1352, 33.66594
560.6173, 32.55570
561.0994, 32.23570
561.5815, 32.88253
562.0637, 33.35096
562.5458, 33.21358
563.0279, 32.95115
563.5100, 32.93612
563.9921, 33.55761
564.4742, 33.68710
564.9564, 32.96041
565.4385, 31.99614
565.9206, 32.06219
566.4027, 33.48838
566.8848, 34.21865
567.3669, 33.35866
567.8491, 31.54262
568.3312, 30.92829
568.8133, 31.47558
569.2954, 32.10941
569.7775, 32.24004
570.2596, 31.95692
570.7418, 31.11033
571.2239, 29.64982
571.7060, 28.81102
572.1881, 30.43933
572.6702, 32.79324
573.1523, 33.88356
573.6345, 32.54816
574.1166, 31.08742
574.5987, 30.13594
575.0808, 29.66054
575.5629, 29.59733
576.0450, 30.44452
576.5272, 31.14422
577.0093, 31.52160
577.4914, 31.59152
577.9735, 31.31751
578.4556, 30.26540
578.9377, 29.78037
579.4199, 30.94576
579.9020, 33.80006
580.3841, 35.06476
580.8662, 34.54397
581.3483, 33.48750
581.8304, 33.20133
582.3126, 33.42811
582.7947, 33.22602
583.2768, 32.33201
583.7589, 31.23933
584.2410, 30.24672
584.7231, 29.45905
585.2053, 29.08423
585.6874, 29.45629
586.1696, 30.03540
586.6517, 30.78065
587.1338, 31.56214
587.6159, 31.82985
588.0980, 30.84053
588.5801, 29.83983
589.0623, 29.27614
589.5444, 29.12312
590.0265, 29.63260
590.5086, 31.26113
590.9907, 32.96829
591.4728, 33.99281
591.9550, 34.29352
592.4371, 33.98208
592.9192, 32.83326
593.4013, 31.63674
593.8834, 32.05669
594.3655, 33.72401
594.8477, 34.15742
595.3298, 31.79642
595.8119, 28.78284
596.2940, 28.28657
596.7761, 29.67604
597.2582, 30.81411
597.7404, 30.10329
598.2225, 29.09846
598.7046, 29.02041
599.1867, 29.92448
599.6688, 30.51993
600.1509, 30.12991
600.6331, 29.52454
601.1152, 29.15020
601.5973, 28.96607
602.0794, 29.18542
602.5615, 30.14321
603.0436, 31.18159
603.5258, 31.57920
604.0079, 31.30598
604.4900, 30.39589
604.9721, 28.46787
605.4542, 26.48446
605.9363, 26.89905
606.4185, 29.41350
606.9006, 31.39804
607.3827, 31.10528
607.8648, 29.90825
608.3469, 29.82536
608.8290, 30.69095
609.3112, 31.57824
609.7933, 32.06384
610.2754, 32.27643
610.7575, 32.32153
611.2396, 32.21566
611.7217, 31.88201
612.2039, 30.48894
612.6860, 29.37235
613.1681, 29.63524
613.6502, 32.84512
614.1323, 34.66027
614.6144, 34.41199
615.0966, 33.28927
615.5787, 33.14064
616.0608, 34.20229
616.5429, 34.69254
617.0250, 34.05650
617.5071, 32.77134
617.9893, 31.61046
618.4714, 30.65145
618.9535, 30.51041
619.4356, 32.56826
619.9177, 35.03914
620.3998, 35.35707
620.8820, 33.71122
621.3641, 32.05942
621.8462, 31.52420
622.3283, 31.36220
622.8104, 30.89015
623.2925, 29.72640
623.7747, 29.44332
624.2568, 31.13110
624.7389, 33.31107
625.2210, 34.86414
625.7031, 35.91850
626.1852, 35.95723
626.6674, 34.57780
627.1495, 32.60437
627.6316, 31.16811
628.1137, 30.24851
628.5958, 30.52217
629.0779, 32.77561
629.5601, 35.65471
630.0422, 36.35041
630.5243, 35.19398
631.0064, 33.77948
631.4885, 32.64195
631.9706, 31.89403
632.4528, 31.63262
632.9349, 31.86219
633.4170, 32.55521
633.8991, 34.56349
634.3812, 36.37907
634.8633, 36.96991
635.3455, 35.68827
635.8276, 34.90908
636.3097, 35.02578
636.7918, 35.35896
637.2739, 35.30772
637.7560, 34.73249
638.2382, 34.27430
638.7203, 33.87975
639.2024, 33.82298
639.6845, 34.69017
640.1666, 36.38426
640.6487, 38.16339
641.1309, 40.18422
641.6130, 41.66698
642.0951, 41.04796
642.5772, 38.92454
643.0594, 37.00264
643.5415, 36.05707
644.0236, 35.59983
644.5057, 35.39095
644.9879, 35.41614
645.4700, 35.65115
645.9521, 36.59774
646.4342, 37.28517
646.9163, 37.26421
647.3984, 36.43138
647.8806, 35.55259
648.3627, 34.52222
648.8448, 33.63120
649.3269, 33.14138
649.8090, 33.05450
650.2911, 33.03202
650.7733, 33.05945
651.2554, 33.09468
651.7375, 32.86112
652.2196, 32.60366
652.7017, 33.09989
653.1838, 35.25286
653.6660, 36.85694
654.1481, 35.09135
654.6302, 31.77279
655.1123, 30.09182
655.5944, 33.09798
656.0765, 35.80732
656.5587, 36.69572
657.0408, 35.98342
657.5229, 34.84894
658.0050, 32.94203
658.4871, 31.22440
658.9692, 29.92536
659.4514, 29.07309
659.9335, 29.18172
660.4156, 30.36287
660.8977, 31.57402
661.3798, 32.12342
661.8619, 32.11407
662.3441, 31.78186
662.8262, 31.13661
663.3083, 30.32719
663.7904, 29.73811
664.2725, 28.92194
664.7546, 27.13171
665.2368, 23.46976
665.7189, 20.89161
666.2010, 20.45093
666.6831, 21.54704
667.1652, 23.61670
667.6473, 27.83999
668.1295, 30.96413
668.6116, 32.61834
669.0937, 33.19535
669.5758, 33.24432
670.0579, 32.68472
670.5400, 32.41227
671.0222, 32.83002
671.5043, 33.54251
671.9864, 33.80499
672.4685, 33.64157
672.9506, 33.17194
673.4327, 32.13399
673.9149, 31.06247
674.3970, 30.41329
674.8791, 30.16962
675.3612, 30.13870
675.8433, 30.47210
676.3254, 30.80306
676.8076, 30.83838
677.2897, 30.44644
677.7718, 30.61605
678.2539, 31.83440
678.7360, 32.93363
679.2181, 33.02020
679.7003, 31.97315
680.1824, 31.12198
680.6645, 30.46602
681.1466, 30.18186
681.6287, 30.86960
682.1108, 32.08692
682.5930, 32.39230
683.0751, 31.17669
683.5572, 30.14786
684.0393, 31.37467
684.5214, 33.51807
685.0035, 34.66809
685.4857, 33.07428
685.9678, 31.73809
686.4499, 31.15219
686.9320, 31.38549
687.4141, 32.72388
687.8962, 36.73530
688.3784, 38.71678
688.8605, 36.85553
689.3426, 32.55782
689.8247, 30.76923
690.3068, 31.55279
690.7889, 32.80358
691.2711, 33.77100
691.7532, 34.39097
692.2353, 34.39708
692.7174, 33.85668
693.1995, 33.19359
693.6816, 32.56749
694.1638, 31.99018
694.6459, 31.51969
695.1280, 31.16639
695.6101, 30.71048
696.0922, 29.81610
696.5743, 29.04710
697.0565, 28.73182
697.5386, 28.99936
698.0207, 29.08576
698.5028, 28.75985
698.9849, 28.74328
699.4670, 30.34144
699.9492, 33.25378
700.4313, 33.95112
700.9135, 31.71549
701.3956, 28.99983
701.8777, 28.82244
702.3598, 29.90851
702.8419, 29.85015
703.3240, 26.85931
703.8062, 24.92680
704.2883, 27.52095
704.7704, 32.06093
705.2525, 34.73227
705.7346, 33.02769
706.2167, 31.85981
706.6989, 32.10260
707.1810, 32.97816
707.6631, 32.41935
708.1452, 30.01764
708.6273, 28.74557
709.1094, 29.84763
709.5916, 32.29237
710.0737, 34.16075
710.5558, 35.36383
711.0379, 35.52466
711.5200, 33.06121
712.0021, 30.49935
712.4843, 30.52588
712.9664, 32.65089
713.4485, 34.15852
713.9306, 33.51889
714.4127, 32.49068
714.8948, 31.70002
715.3770, 31.14799
715.8591, 31.24377
716.3412, 32.33991
716.8233, 33.38786
717.3054, 33.77294
717.7875, 33.51964
718.2697, 33.17708
718.7518, 32.74632
719.2339, 32.17665
719.7160, 31.11000
720.1981, 29.99050
720.6802, 29.66893
721.1624, 30.32412
721.6445, 30.91041
722.1266, 30.71374
722.6087, 30.23037
723.0908, 29.83490
723.5729, 29.33854
724.0551, 29.52065
724.5372, 30.98129
725.0193, 32.59510
725.5014, 33.08764
725.9835, 32.21317
726.4656, 31.78156
726.9478, 32.09742
727.4299, 32.57255
727.9120, 32.04037
728.3941, 30.93328
728.8762, 30.79783
729.3583, 32.57211
729.8405, 34.33077
730.3226, 34.27178
730.8047, 33.15033
731.2868, 32.21693
731.7689, 32.54494
732.2510, 32.28303
732.7332, 29.99698
733.2153, 27.06645
733.6974, 26.44812
734.1795, 29.06184
734.6616, 31.55995
735.1437, 33.26991
735.6259, 34.18474
736.1080, 33.96726
736.5901, 32.73604
737.0722, 31.53424
737.5543, 30.64257
738.0364, 30.20807
738.5186, 30.67599
739.0007, 31.80726
739.4828, 32.76212
739.9649, 33.62249
740.4470, 33.79991
740.9291, 32.51611
741.4113, 29.94507
741.8934, 28.56264
742.3755, 28.75845
742.8576, 29.49298
743.3397, 30.74488
743.8218, 32.28688
744.3040, 31.74659
744.7861, 29.06832
745.2682, 26.71962
745.7503, 26.75731
746.2324, 28.05103
746.7145, 28.68893
747.1967, 28.66659
747.6788, 29.04922
748.1609, 31.32424
748.6430, 33.51223
749.1251, 34.16786
749.6072, 32.78247
750.0894, 31.80523
750.5715, 31.47524
751.0536, 31.37243
751.5357, 31.30207
752.0178, 31.28198
752.4999, 30.96231
752.9821, 30.27033
753.4642, 29.74275
753.9463, 30.18698
754.4284, 31.09537
754.9105, 31.30911
755.3926, 30.60153
755.8748, 30.05214
756.3569, 30.54836
756.8390, 31.40168
757.3211, 31.99013
757.8032, 32.03433
758.2853, 32.23872
758.7675, 33.12762
759.2496, 33.71297
759.7318, 32.63505
760.2139, 29.42983
760.6960, 28.54956
761.1781, 30.83743
761.6602, 33.75695
762.1423, 33.93077
762.6245, 32.35117
763.1066, 31.50239
763.5887, 32.14481
764.0708, 32.84798
764.5529, 32.57449
765.0350, 31.81239
765.5172, 31.13929
765.9993, 30.14064
766.4814, 30.03234
766.9635, 31.39213
767.4456, 33.24235
767.9277, 34.42632
768.4099, 34.97776
768.8920, 34.57681
769.3741, 32.97801
769.8562, 30.88884
770.3383, 28.73694
770.8204, 26.91382
771.3026, 26.66143
771.7847, 29.24632
772.2668, 31.83389
772.7489, 32.47630
773.2310, 31.87078
773.7131, 31.10961
774.1953, 29.72088
774.6774, 29.19217
775.1595, 30.40025
775.6416, 32.10611
776.1237, 31.74334
776.6058, 28.96571
777.0880, 26.71999
777.5701, 25.62949
778.0522, 25.57582
778.5343, 27.26509
779.0164, 29.91283
779.4985, 31.17026
779.9807, 28.55046
780.4628, 26.12426
780.9449, 26.99948
781.4270, 29.79847
781.9091, 31.66672
782.3912, 31.51323
782.8734, 30.97402
783.3555, 30.03451
783.8376, 28.94985
784.3197, 28.29510
784.8018, 28.05552
785.2839, 28.43680
785.7661, 29.72537
786.2482, 31.33499
786.7303, 32.61184
787.2124, 33.41023
787.6945, 33.35197
788.1766, 31.43056
788.6588, 29.43721
789.1409, 27.85589
789.6230, 26.88482
790.1051, 27.12204
790.5872, 29.90023
791.0693, 31.81855
791.5515, 31.94350
792.0336, 30.90364
792.5157, 30.52062
792.9978, 30.79814
793.4799, 31.00214
793.9620, 30.95560
794.4442, 30.57948
794.9263, 29.29043
795.4084, 27.54015
795.8905, 26.56816
796.3726, 27.64067
796.8547, 28.86237
797.3369, 29.47208
797.8190, 29.59186
798.3011, 29.75615
798.7832, 30.09410
799.2653, 30.22072
799.7474, 29.94493
800.2296, 29.46830
800.7117, 29.38540
801.1938, 29.66617
801.6759, 29.96077
802.1580, 29.86675
802.6401, 29.98857
803.1223, 31.63450
803.6044, 34.07896
804.0865, 35.40699
804.5686, 33.90056
805.0507, 32.30318
805.5328, 31.44376
806.0150, 31.13852
806.4971, 30.97633
806.9792, 31.08721
807.4613, 30.85707
807.9434, 29.87190
808.4255, 28.71231
808.9077, 28.90406
809.3898, 30.17403
809.8719, 31.30056
810.3540, 31.77938
810.8361, 31.86804
811.3182, 31.62796
811.8004, 31.15784
812.2825, 30.68736
812.7646, 29.73608
813.2467, 29.52370
813.7288, 30.85137
814.2109, 32.82255
814.6931, 32.86033
815.1752, 30.69623
815.6573, 29.08226
816.1394, 28.87827
816.6215, 29.50019
817.1037, 30.44603
817.5858, 31.43250
818.0679, 31.72905
818.5500, 30.19429
819.0322, 28.80192
819.5143, 28.47997
819.9964, 28.99257
820.4785, 29.96819
820.9606, 31.99301
821.4427, 33.25740
821.9249, 33.36721
822.4070, 32.70143
822.8891, 31.80713
823.3712, 30.73902
823.8533, 30.14176
824.3354, 30.32139
824.8176, 30.76954
825.2997, 30.88958
825.7818, 30.87872
826.2639, 31.07163
826.7460, 32.10598
827.2281, 32.72068
827.7103, 31.90058
828.1924, 30.84950
828.6745, 31.50176
829.1566, 34.69264
829.6387, 35.98695
830.1208, 34.26079
830.6030, 31.53546
831.0851, 31.06622
831.5672, 32.14454
832.0493, 32.84621
832.5314, 32.62631
833.0135, 31.99961
833.4957, 30.90153
833.9778, 29.78080
834.4599, 29.15068
834.9420, 29.59701
835.4241, 29.86377
835.9063, 29.81515
836.3884, 29.74630
836.8705, 30.24280
837.3526, 31.26623
837.8347, 31.16903
838.3168, 29.55271
838.7990, 27.87554
839.2811, 27.72387
839.7632, 28.42875
840.2453, 29.05537
840.7274, 29.33274
841.2095, 29.84021
841.6917, 31.29616
842.1738, 32.67533
842.6559, 33.06643
843.1380, 31.90228
843.6201, 32.04057
844.1022, 33.92900
844.5844, 35.57771
845.0665, 34.45827
845.5486, 31.68580
846.0307, 30.48271
846.5128, 31.15890
846.9949, 32.09941
847.4771, 32.59545
847.9592, 32.65711
848.4413, 32.10775
848.9234, 30.70512
849.4055, 29.99999
849.8876, 30.27919
850.3698, 30.86328
850.8519, 31.37768
851.3340, 31.83895
851.8161, 32.55629
852.2982, 33.52558
852.7803, 34.23394
853.2625, 34.29153
853.7446, 33.90043
854.2267, 32.99249
854.7088, 31.67033
855.1909, 30.92801
855.6730, 31.60926
856.1552, 32.41806
856.6373, 32.96156
857.1194, 33.22547
857.6015, 32.97775
858.0836, 32.11516
858.5657, 31.52536
859.0479, 31.88315
859.5300, 32.60051
860.0121, 32.42111
860.4942, 31.58035
860.9763, 30.89998
861.4584, 30.84799
861.9406, 31.00574
862.4227, 31.34857
862.9048, 31.75866
863.3869, 31.84895
863.8690, 31.48289
864.3511, 31.10170
864.8333, 30.70230
865.3154, 30.47341
865.7975, 31.13450
866.2796, 32.39754
866.7617, 32.95163
867.2438, 31.86606
867.7260, 30.73928
868.2081, 31.06491
868.6902, 32.06013
869.1723, 32.50370
869.6544, 31.65372
870.1365, 30.94767
870.6187, 30.62564
871.1008, 30.28840
871.5829, 28.92155
872.0650, 26.65279
872.5471, 26.45812
873.0292, 29.14038
873.5114, 32.09663
873.9935, 32.69024
874.4756, 31.94379
874.9577, 31.03338
875.4399, 30.00151
875.9220, 29.41572
876.4041, 30.07479
876.8862, 30.67767
877.3683, 30.18892
877.8505, 28.28707
878.3326, 27.58996
878.8147, 28.20227
879.2968, 29.24576
879.7789, 30.05695
880.2610, 30.75146
880.7432, 31.71590
881.2253, 32.93630
881.7074, 33.56359
882.1895, 32.66755
882.6716, 31.54492
883.1537, 30.71400
883.6359, 30.20326
884.1180, 30.70011
884.6001, 32.53745
885.0822, 33.98523
885.5643, 34.02785
886.0464, 33.21458
886.5286, 32.88148
887.0107, 32.88988
887.4928, 32.66493
887.9749, 31.38129
888.4570, 30.32381
888.9391, 30.09706
889.4213, 30.63792
889.9034, 31.74198
890.3855, 33.96382
890.8676, 35.37781
891.3497, 35.57580
891.8318, 34.80082
892.3140, 33.04671
892.7961, 30.63992
893.2782, 28.87143
893.7603, 28.21750
894.2424, 28.12728
894.7245, 28.28554
895.2067, 28.74075
895.6888, 29.57576
896.1709, 31.45833
896.6530, 32.62442
897.1351, 32.92060
897.6172, 32.72488
898.0994, 32.22282
898.5815, 31.50001
899.0636, 31.31285
899.5457, 31.76570
900.0278, 32.17511
900.5099, 31.90427
900.9921, 31.38221
901.4742, 30.96717
901.9563, 30.70522
902.4384, 30.56381
902.9205, 30.48021
903.4026, 30.60369
903.8848, 31.17797
904.3669, 32.07622
904.8490, 32.07640
905.3311, 31.21482
905.8132, 30.49080
906.2953, 30.89756
906.7775, 31.43101
907.2596, 30.58098
907.7417, 28.91925
908.2238, 28.46426
908.7059, 31.63378
909.1880, 33.69967
909.6702, 33.13372
910.1523, 31.23399
910.6344, 31.36685
911.1165, 33.47729
911.5986, 34.89630
912.0807, 34.81498
912.5629, 33.97013
913.0450, 32.76181
913.5271, 31.49477
914.0092, 30.58997
914.4913, 30.07207
914.9734, 30.18062
915.4556, 31.65409
915.9377, 33.08291
916.4198, 32.85990
916.9019, 30.81589
917.3840, 30.34144
917.8661, 31.74306
918.3483, 33.46120
918.8304, 34.59969
919.3125, 34.96345
919.7946, 33.81939
920.2767, 31.09165
920.7589, 29.31935
921.2410, 29.98412
921.7231, 31.07092
922.2052, 31.98202
922.6873, 32.66667
923.1694, 32.40960
923.6516, 31.17422
924.1337, 30.37854
924.6158, 31.27051
925.0979, 32.52296
925.5800, 31.96465
926.0621, 30.36366
926.5443, 29.63297
927.0264, 31.44147
927.5085, 32.90837
927.9906, 33.16869
928.4727, 32.98186
928.9548, 33.99260
929.4370, 36.30037
929.9191, 36.64040
930.4012, 34.07933
930.8833, 31.03377
931.3654, 29.92947
931.8475, 30.15728
932.3297, 31.07528
932.8118, 32.89528
933.2939, 34.10256
933.7761, 34.25784
934.2582, 33.76450
934.7403, 32.53887
935.2224, 30.52872
935.7045, 30.05983
936.1866, 31.19135
936.6688, 32.09383
937.1509, 30.81701
937.6330, 29.07352
938.1151, 28.90147
938.5972, 30.09923
939.0793, 31.34937
939.5615, 33.09360
940.0436, 33.74272
940.5257, 32.44311
941.0078, 30.07586
941.4899, 29.03397
941.9720, 29.28068
942.4542, 29.93285
942.9363, 30.93517
943.4184, 31.77676
943.9005, 31.77532
944.3826, 31.31399
944.8647, 30.86569
945.3469, 30.01922
945.8290, 30.36111
946.3111, 32.99059
946.7932, 35.51754
947.2753, 35.54867
947.7574, 33.23568
948.2396, 31.77675
948.7217, 31.27799
949.2038, 31.38939
949.6859, 32.27591
950.1680, 33.32248
950.6501, 34.32964
951.1323, 35.19465
951.6144, 34.52215
952.0965, 30.40564
952.5786, 27.89865
953.0607, 29.17578
953.5428, 32.68781
954.0250, 33.57756
954.5071, 32.28677
954.9892, 31.46387
955.4713, 32.53032
955.9534, 33.71569
956.4355, 33.59269
956.9177, 32.79137
957.3998, 32.22451
957.8819, 32.18842
958.3640, 31.97080
958.8461, 31.33270
959.3282, 30.96888
959.8104, 31.98328
960.2925, 33.88554
960.7746, 34.94721
961.2567, 35.03067
961.7388, 34.77695
962.2209, 34.25264
962.7031, 33.83084
963.1852, 33.97966
963.6673, 33.41657
964.1494, 34.42878
964.6315, 32.95327
965.1136, 31.95886
965.5958, 32.11685
966.0779, 33.15404
966.5600, 35.13385
967.0421, 37.53233
967.5242, 38.86922
968.0063, 38.36476
968.4885, 37.00047
968.9706, 33.74883
969.4527, 30.61450
969.9348, 30.28228
970.4169, 33.60681
970.8990, 35.46338
971.3812, 35.42009
971.8633, 34.67842
972.3454, 34.26402
972.8275, 33.99068
973.3096, 33.41897
973.7917, 32.52934
974.2739, 32.19117
974.7560, 33.84606
975.2381, 34.81810
975.7202, 33.69270
976.2023, 31.07324
976.6844, 30.13276
977.1666, 30.84396
977.6487, 31.53804
978.1308, 31.46592
978.6129, 31.19117
979.0950, 31.25749
979.5771, 31.54240
980.0593, 31.84376
980.5414, 32.53471
981.0235, 32.51093
981.5056, 31.21908
981.9877, 29.95167
982.4698, 30.32712
982.9520, 31.99694
983.4341, 32.68220
983.9162, 32.24507
984.3983, 31.60785
984.8804, 31.27908
985.3625, 31.12494
985.8447, 31.05436
986.3268, 31.07139
986.8089, 31.18953
987.2910, 31.29347
987.7731, 31.91763
988.2552, 33.57460
988.7374, 35.39500
989.2195, 35.38171
989.7016, 34.07539
990.1837, 32.82676
990.6658, 31.95537
991.1479, 31.47322
991.6301, 31.48461
992.1122, 31.84263
992.5944, 32.61610
993.0765, 34.15169
993.5586, 33.69316
994.0407, 30.91731
994.5228, 28.53366
995.0049, 29.26065
995.4871, 31.40262
995.9692, 33.02706
996.4513, 34.02402
996.9334, 34.41550
997.4155, 33.59927
997.8976, 32.93498
998.3798, 32.86101
998.8619, 33.05904
999.3440, 32.56215
999.8261, 31.49085
1000.308, 31.16589
1000.790, 32.24263
1001.272, 33.08986
1001.755, 31.59296
1002.237, 29.55955
1002.719, 29.07788
1003.201, 31.12695
1003.683, 32.38949
1004.165, 32.71893
1004.647, 32.65954
1005.129, 32.22160
1005.612, 31.74599
1006.094, 32.66455
1006.576, 34.59789
1007.058, 35.79802
1007.540, 34.65158
1008.022, 33.37259
1008.504, 32.82547
1008.986, 32.74609
1009.468, 32.76159
1009.951, 32.91412
1010.433, 32.73204
1010.915, 32.05623
1011.397, 31.43603
1011.879, 31.57126
1012.361, 32.08283
1012.843, 32.47438
1013.325, 32.62999
1013.807, 33.08513
1014.290, 34.49032
1014.772, 35.36834
1015.254, 34.93155
1015.736, 33.49353
1016.218, 31.95526
1016.700, 30.47005
1017.182, 29.96924
1017.664, 31.74600
1018.147, 33.48113
1018.629, 33.25359
1019.111, 32.22459
1019.593, 32.25782
1020.075, 33.97486
1020.557, 35.04848
1021.039, 35.35524
1021.521, 35.12910
1022.003, 34.27674
1022.486, 33.17366
1022.968, 32.60761
1023.450, 32.55633
1023.932, 32.28604
1024.414, 30.46495
1024.896, 29.70378
1025.378, 31.41394
1025.860, 34.44036
1026.343, 35.39979
1026.825, 34.40095
1027.307, 32.99474
1027.789, 31.34669
1028.271, 30.23440
1028.753, 30.84565
1029.235, 32.10455
1029.717, 32.79298
1030.199, 32.56109
1030.682, 32.51793
1031.164, 32.90197
1031.646, 32.79767
1032.128, 31.09159
1032.610, 28.67076
1033.092, 27.74137
1033.574, 28.13130
1034.056, 29.24243
1034.539, 31.35029
1035.021, 33.48001
1035.503, 35.87443
1035.985, 37.77147
1036.467, 37.83516
1036.949, 36.00556
1037.431, 34.78323
1037.913, 34.48548
1038.396, 34.41924
1038.878, 33.60615
1039.360, 32.98373
1039.842, 33.67790
1040.324, 35.76829
1040.806, 37.43391
1041.288, 39.01506
1041.770, 39.10221
1042.252, 36.84564
1042.734, 33.39535
1043.217, 30.61670
1043.699, 28.58674
1044.181, 27.42806
1044.663, 26.99964
1045.145, 27.84829
1045.627, 31.82823
1046.109, 35.80695
1046.591, 37.33790
1047.074, 36.32521
1047.556, 35.14315
1048.038, 33.78089
1048.520, 32.84166
1049.002, 32.93470
1049.484, 33.44489
1049.966, 34.44416
1050.448, 35.41575
1050.931, 34.71912
1051.413, 30.44358
1051.895, 28.75675
1052.377, 31.03882
1052.859, 34.32962
1053.341, 34.99931
1053.823, 33.96160
1054.305, 33.20520
1054.787, 32.96230
1055.270, 32.68127
1055.752, 31.67039
1056.234, 31.08537
1056.716, 31.50625
1057.198, 32.67962
1057.680, 33.86203
1058.162, 35.00549
1058.644, 35.24257
1059.126, 33.94665
1059.609, 32.54568
1060.091, 32.61665
1060.573, 33.13028
1061.055, 32.80842
1061.537, 31.13217
1062.019, 30.27864
1062.501, 30.36182
1062.983, 30.85325
1063.466, 31.70511
1063.948, 32.57051
1064.430, 32.48196
1064.912, 31.83690
1065.394, 31.82737
1065.876, 34.23989
1066.358, 35.42217
1066.840, 34.10751
1067.323, 32.15841
1067.805, 32.23877
1068.287, 33.93044
1068.769, 33.77858
1069.251, 31.52396
1069.733, 30.11481
1070.215, 33.11434
1070.697, 36.29665
1071.179, 36.39143
1071.661, 34.15428
1072.144, 33.03443
1072.626, 33.23990
1073.108, 33.09366
1073.590, 31.95196
1074.072, 30.96747
1074.554, 32.18755
1075.036, 34.17089
1075.518, 34.89636
1076.001, 33.64839
1076.483, 32.85585
1076.965, 32.96326
1077.447, 32.99547
1077.929, 32.21773
1078.411, 32.62851
1078.893, 31.51687
1079.375, 32.91739
1079.858, 34.00634
1080.340, 34.27649
1080.822, 34.09824
1081.304, 33.25605
1081.786, 32.26274
1082.268, 31.56841
1082.750, 31.18217
1083.232, 30.77798
1083.714, 30.35012
1084.197, 30.31091
1084.679, 31.69330
1085.161, 32.89746
1085.643, 32.21292
1086.125, 30.35177
1086.607, 29.81932
1087.089, 31.21597
1087.571, 31.87016
1088.054, 31.19777
1088.536, 30.43904
1089.018, 31.37759
1089.500, 33.00555
1089.982, 33.82121
1090.464, 33.65162
1090.946, 33.46138
1091.428, 33.56742
1091.911, 33.45095
1092.393, 32.82517
1092.875, 32.00849
1093.357, 31.76817
1093.839, 31.98682
1094.321, 32.26757
1094.803, 32.43461
1095.285, 32.87190
1095.767, 34.24206
1096.250, 35.50277
1096.732, 35.99228
1097.214, 35.72799
1097.696, 35.03932
1098.178, 33.93362
1098.660, 32.62790
1099.142, 30.68285
1099.624, 29.21873
1100.106, 29.25196
1100.589, 30.27898
1101.071, 31.58215
1101.553, 33.45166
1102.035, 34.32775
1102.517, 34.01521
1102.999, 33.67914
1103.481, 34.90823
1103.963, 36.28961
1104.446, 35.41604
1104.928, 32.88433
1105.410, 31.39004
1105.892, 32.15139
1106.374, 33.01042
1106.856, 33.82061
1107.338, 34.38680
1107.820, 34.30569
1108.302, 33.81266
1108.785, 33.35304
1109.267, 32.98591
1109.749, 33.08141
1110.231, 35.01529
1110.713, 35.92130
1111.195, 34.24251
1111.677, 31.18891
1112.159, 30.31781
1112.641, 31.26986
1113.124, 31.62333
1113.606, 30.46117
1114.088, 29.96767
1114.570, 32.83501
1115.052, 35.96211
1115.534, 36.58889
1116.016, 34.85136
1116.498, 34.49547
1116.981, 35.58132
1117.463, 36.03961
1117.945, 34.43538
1118.427, 32.66196
1118.909, 32.71076
1119.391, 33.74839
1119.873, 34.62450
1120.355, 35.19558
1120.838, 35.66756
1121.320, 36.09663
1121.802, 36.18181
1122.284, 35.51190
1122.766, 34.49955
1123.248, 33.66127
1123.730, 32.99379
1124.212, 32.46826
1124.694, 31.81771
1125.177, 31.75922
1125.659, 32.44695
1126.141, 33.52257
1126.623, 35.03498
1127.105, 36.54340
1127.587, 36.76692
1128.069, 35.76375
1128.551, 34.45842
1129.033, 32.57360
1129.516, 31.34604
1129.998, 31.22505
1130.480, 31.75587
1130.962, 32.21327
1131.444, 32.63338
1131.926, 33.37254
1132.408, 34.51115
1132.890, 35.21682
1133.373, 34.47807
1133.855, 33.64174
1134.337, 33.52233
1134.819, 33.90744
1135.301, 34.13996
1135.783, 34.21348
1136.265, 33.90960
1136.747, 33.07837
1137.229, 32.23372
1137.712, 31.24732
1138.194, 30.85509
1138.676, 32.14701
1139.158, 35.08936
1139.640, 37.01375
1140.122, 37.89637
1140.604, 38.06175
1141.086, 37.36165
1141.569, 36.53186
1142.051, 36.94781
1142.533, 37.48423
1143.015, 36.30826
1143.497, 32.05499
1143.979, 30.33178
1144.461, 31.78666
1144.943, 33.26089
1145.426, 32.54993
1145.908, 30.91448
1146.390, 30.03782
1146.872, 29.85873
1147.354, 30.24436
1147.836, 31.96067
1148.318, 32.90727
1148.800, 32.69801
1149.282, 32.50786
1149.765, 34.04512
1150.247, 36.06057
1150.729, 34.97073
1151.211, 31.59438
1151.693, 29.55228
1152.175, 31.73686
1152.657, 33.30069
1153.139, 33.36368
1153.621, 32.69200
1154.104, 31.95084
1154.586, 31.24587
1155.068, 30.82410
1155.550, 30.73492
1156.032, 31.29884
1156.514, 34.01934
1156.996, 35.65015
1157.478, 34.62445
1157.961, 32.58063
1158.443, 32.76836
1158.925, 34.68823
1159.407, 35.30701
1159.889, 34.16160
1160.371, 33.27108
1160.853, 34.46509
1161.335, 35.59520
1161.818, 35.53595
1162.300, 34.60231
1162.782, 33.45391
1163.264, 32.15902
1163.746, 31.54648
1164.228, 31.86529
1164.710, 32.43139
1165.192, 32.97560
1165.674, 33.37616
1166.156, 33.43268
1166.639, 33.24308
1167.121, 33.61136
1167.603, 34.52707
1168.085, 34.49435
1168.567, 32.50746
1169.049, 31.01968
1169.531, 33.43156
1170.013, 36.50471
1170.496, 36.39362
1170.978, 32.97142
1171.460, 32.32587
1171.942, 34.63170
1172.424, 36.44413
1172.906, 35.95754
1173.388, 34.81149
1173.870, 34.43294
1174.353, 34.49164
1174.835, 34.62360
1175.317, 34.86488
1175.799, 34.73671
1176.281, 34.19820
1176.763, 33.61026
1177.245, 33.15114
1177.727, 32.76723
1178.209, 32.49772
1178.692, 32.22654
1179.174, 31.64093
1179.656, 29.98842
1180.138, 30.30822
1180.620, 33.02129
1181.102, 35.55902
1181.584, 36.06105
1182.066, 35.34411
1182.548, 33.44960
1183.031, 31.30042
1183.513, 31.23942
1183.995, 35.71003
1184.477, 37.04813
1184.959, 34.28355
1185.441, 30.96984
1185.923, 29.90904
1186.405, 30.42401
1186.888, 32.33969
1187.370, 35.08313
1187.852, 36.70653
1188.334, 36.42773
1188.816, 35.83152
1189.298, 34.85906
1189.780, 34.25063
1190.262, 35.43163
1190.745, 37.09311
1191.227, 37.16534
1191.709, 35.78027
1192.191, 34.17463
1192.673, 31.59952
1193.155, 31.07204
1193.637, 33.59830
1194.119, 36.61330
1194.601, 37.04266
1195.084, 35.94505
1195.566, 34.46573
1196.048, 32.88028
1196.530, 32.93893
1197.012, 36.97678
1197.494, 38.28254
1197.976, 34.72762
1198.458, 30.05216
1198.941, 29.74295
1199.423, 31.87517
1199.905, 33.33463
1200.387, 33.79145
1200.869, 34.19210
1201.351, 35.05559
1201.833, 35.05806
1202.315, 33.41463
1202.797, 31.71591
1203.280, 33.00828
1203.762, 35.86086
1204.244, 38.05075
1204.726, 39.25175
1205.208, 39.09581
1205.690, 36.62473
1206.172, 34.74718
1206.654, 34.42276
1207.136, 34.93713
1207.619, 35.63234
1208.101, 36.03689
1208.583, 34.84608
1209.065, 31.40414
1209.547, 30.09877
1210.029, 32.80663
1210.511, 34.65875
1210.993, 33.41840
1211.476, 31.19833
1211.958, 32.37887
1212.440, 35.22039
1212.922, 36.35939
1213.404, 34.64346
1213.886, 34.03637
1214.368, 35.45512
1214.850, 36.78764
1215.333, 37.10052
1215.815, 36.91286
1216.297, 37.38150
1216.779, 37.98016
1217.261, 37.63192
1217.743, 35.72668
1218.225, 34.41744
1218.707, 34.04354
1219.189, 33.80803
1219.672, 33.20578
1220.154, 32.69315
1220.636, 33.36040
1221.118, 34.64477
1221.600, 35.54493
1222.082, 35.70267
1222.564, 35.85030
1223.046, 36.14494
1223.528, 36.02075
1224.011, 34.74195
1224.493, 33.40084
1224.975, 34.30639
1225.457, 36.35270
1225.939, 37.65049
1226.421, 37.65639
1226.903, 36.95803
1227.385, 35.27506
1227.868, 33.94609
1228.350, 34.04745
1228.832, 34.55836
1229.314, 33.47293
1229.796, 34.03620
1230.278, 34.32168
1230.760, 33.96643
1231.242, 34.99582
1231.724, 34.39314
1232.207, 33.77782
1232.689, 34.27837
1233.171, 35.11288
1233.653, 35.20234
1234.135, 34.94220
1234.617, 35.07468
1235.099, 36.04268
1235.581, 36.06323
1236.063, 34.97606
1236.546, 34.06771
1237.028, 34.57373
1237.510, 35.20699
1237.992, 34.10646
1238.474, 32.39362
1238.956, 32.05495
1239.438, 33.54979
1239.920, 34.74847
1240.403, 35.62290
1240.885, 36.34122
1241.367, 37.24926
1241.849, 37.77927
1242.331, 37.19691
1242.813, 36.00612
1243.295, 34.85893
1243.777, 33.58454
1244.260, 33.51863
1244.742, 34.65825
1245.224, 36.18755
1245.706, 38.60913
1246.188, 40.16753
1246.670, 38.87467
1247.152, 36.43900
1247.634, 35.17720
1248.116, 35.12402
1248.599, 35.79878
1249.081, 37.11819
1249.563, 37.98497
1250.045, 37.27734
1250.527, 36.47150
1251.009, 36.27017
1251.491, 36.43314
1251.973, 37.02227
1252.455, 37.96545
1252.938, 36.92676
1253.420, 34.19844
1253.902, 32.20732
1254.384, 32.91880
1254.866, 33.79506
1255.348, 33.76768
1255.830, 33.65914
1256.313, 34.31131
1256.795, 35.55704
1257.277, 36.34648
1257.759, 36.73238
1258.241, 37.02597
1258.723, 37.68501
1259.205, 37.78178
1259.687, 36.97480
1260.169, 35.88327
1260.651, 34.72711
1261.134, 33.78416
1261.616, 34.39108
1262.098, 36.05684
1262.580, 37.07024
1263.062, 36.17069
1263.544, 35.45051
1264.026, 34.95268
1264.508, 34.98024
1264.991, 36.25050
1265.473, 37.96695
1265.955, 38.52697
1266.437, 38.25737
1266.919, 38.05167
1267.401, 38.29540
1267.883, 38.32140
1268.365, 38.11384
1268.848, 37.71257
1269.330, 36.74986
1269.812, 35.92745
1270.294, 36.55276
1270.776, 37.92809
1271.258, 38.47964
1271.740, 37.95756
1272.222, 36.88641
1272.704, 35.16253
1273.187, 33.96012
1273.669, 34.33614
1274.151, 35.34321
1274.633, 36.76469
1275.115, 37.96289
1275.597, 37.79048
1276.079, 35.85141
1276.561, 35.52546
1277.043, 36.78035
1277.526, 38.08849
1278.008, 38.46394
1278.490, 38.67209
1278.972, 39.35114
1279.454, 39.92333
1279.936, 39.67958
1280.418, 38.66461
1280.900, 38.13726
1281.383, 38.04189
1281.865, 38.01012
1282.347, 38.17548
1282.829, 37.89087
1283.311, 36.24168
1283.793, 34.90192
1284.275, 35.36165
1284.757, 37.16999
1285.240, 38.97544
1285.722, 40.50114
1286.204, 40.75985
1286.686, 38.49061
1287.168, 36.39228
1287.650, 34.49470
1288.132, 33.48825
1288.614, 34.57795
1289.096, 36.37602
1289.578, 35.43445
1290.061, 36.17841
1290.543, 36.48818
1291.025, 35.36824
1291.507, 36.40748
1291.989, 35.08507
1292.471, 33.98004
1292.953, 34.87271
1293.435, 36.35755
1293.918, 36.73702
1294.400, 36.62237
1294.882, 37.04231
1295.364, 38.19407
1295.846, 38.33181
1296.328, 37.43682
1296.810, 36.65667
1297.292, 36.53450
1297.775, 36.69468
1298.257, 36.87775
1298.739, 37.21826
1299.221, 37.89492
1299.703, 38.84482
1300.185, 39.32513
1300.667, 39.42471
1301.149, 39.80003
1301.631, 41.20140
1302.114, 41.54073
1302.596, 40.11690
##END=



