##NAMES=Faujasite-Ca
##RRUFFID=R070462
##IDEAL CHEMISTRY=(Ca,Na,Mg)_2_(Si,Al)_12_O_24_&#183;15H_2_O
##LOCALITY=Table Mountain, San Bernardino County, California, USA
##OWNER=RRUFF
##SOURCE=Michael Scott
##DESCRIPTION=Isolated colorless octahedra in basalt vesicules, associated with spherical aggregates of colorless phillipsite-Ca
##STATUS=The identification of this mineral is confirmed by single-crystal X-ray diffraction and chemical analysis.
##URL=rruff.info/R070462
##MEASURED CHEMISTRY=(Ca_1.04_Na_0.44_Mg_0.23_K_0.04_Fe_0.03_)_Σ=1.78_(Si_8.92_Al_3.08_)_12_O_24_·4.5H_2_O ; H_2_O estimated by difference
144.5410, 10691.63
145.0231, 11057.34
145.5052, 11451.62
145.9873, 11858.12
146.4694, 12266.20
146.9515, 12675.68
147.4337, 13069.00
147.9158, 13422.59
148.3979, 13770.85
148.8800, 14141.32
149.3621, 14535.04
149.8442, 14928.17
150.3264, 15296.00
150.8085, 15636.40
151.2906, 15953.18
151.7727, 16274.32
152.2548, 16554.12
152.7369, 16751.53
153.2191, 16860.77
153.7012, 16921.80
154.1833, 16990.62
154.6654, 17085.90
155.1475, 17129.67
155.6296, 17086.91
156.1118, 17012.58
156.5939, 16939.40
157.0760, 16875.09
157.5581, 16807.93
158.0402, 16712.60
158.5223, 16557.50
159.0045, 16450.60
159.4866, 16402.80
159.9687, 16393.48
160.4508, 16413.43
160.9329, 16411.45
161.4150, 16353.51
161.8972, 16264.97
162.3793, 16119.27
162.8614, 15996.25
163.3435, 15903.64
163.8256, 15828.02
164.3077, 15769.07
164.7899, 15723.86
165.2720, 15677.54
165.7541, 15601.31
166.2362, 15454.71
166.7183, 15354.67
167.2004, 15328.23
167.6826, 15326.19
168.1647, 15311.24
168.6468, 15273.66
169.1289, 15229.21
169.6110, 15205.65
170.0931, 15235.79
170.5753, 15233.14
171.0574, 15179.78
171.5395, 15108.76
172.0216, 15045.63
172.5037, 14997.52
172.9858, 14958.31
173.4680, 14918.75
173.9501, 14889.93
174.4322, 14838.81
174.9143, 14754.11
175.3964, 14654.28
175.8785, 14544.87
176.3607, 14430.02
176.8428, 14324.89
177.3249, 14256.56
177.8070, 14257.36
178.2891, 14236.13
178.7712, 14185.10
179.2534, 14116.57
179.7355, 14038.62
180.2176, 13953.97
180.6997, 13863.79
181.1818, 13767.49
181.6639, 13643.46
182.1461, 13562.51
182.6282, 13563.54
183.1103, 13586.41
183.5924, 13576.46
184.0745, 13521.48
184.5566, 13443.33
185.0388, 13369.68
185.5209, 13294.63
186.0030, 13243.66
186.4851, 13246.15
186.9672, 13257.00
187.4493, 13234.59
187.9315, 13170.72
188.4136, 13083.26
188.8957, 12988.23
189.3778, 12872.12
189.8599, 12802.33
190.3420, 12824.53
190.8242, 12868.42
191.3063, 12866.55
191.7884, 12808.29
192.2705, 12734.31
192.7526, 12690.01
193.2347, 12684.30
193.7169, 12667.80
194.1990, 12629.59
194.6811, 12586.15
195.1632, 12554.38
195.6453, 12535.94
196.1274, 12516.86
196.6096, 12483.77
197.0917, 12434.54
197.5738, 12379.01
198.0559, 12298.09
198.5380, 12223.76
199.0201, 12186.96
199.5023, 12189.26
199.9844, 12204.28
200.4665, 12213.10
200.9486, 12214.59
201.4307, 12201.73
201.9128, 12166.05
202.3950, 12122.30
202.8771, 12081.00
203.3592, 12042.51
203.8413, 12002.01
204.3234, 11955.30
204.8055, 11902.14
205.2877, 11849.29
205.7698, 11779.11
206.2519, 11722.22
206.7340, 11711.53
207.2161, 11741.39
207.6982, 11764.89
208.1804, 11748.83
208.6625, 11696.35
209.1446, 11650.05
209.6267, 11607.58
210.1088, 11572.54
210.5909, 11550.08
211.0730, 11538.15
211.5552, 11528.43
212.0373, 11517.83
212.5194, 11504.62
213.0015, 11483.51
213.4836, 11433.71
213.9657, 11396.90
214.4479, 11413.03
214.9300, 11464.03
215.4121, 11483.28
215.8942, 11426.21
216.3763, 11324.68
216.8584, 11280.00
217.3406, 11327.18
217.8227, 11372.30
218.3048, 11374.50
218.7869, 11345.92
219.2690, 11313.26
219.7511, 11283.54
220.2333, 11262.25
220.7154, 11267.31
221.1975, 11315.88
221.6796, 11348.78
222.1617, 11330.81
222.6438, 11286.63
223.1260, 11266.95
223.6081, 11293.55
224.0902, 11337.35
224.5723, 11339.16
225.0544, 11283.35
225.5365, 11247.52
226.0187, 11270.38
226.5008, 11317.65
226.9829, 11337.83
227.4650, 11316.08
227.9471, 11276.85
228.4292, 11252.02
228.9114, 11242.17
229.3935, 11242.20
229.8756, 11263.55
230.3577, 11288.70
230.8398, 11295.11
231.3219, 11278.53
231.8041, 11257.32
232.2862, 11252.59
232.7683, 11268.00
233.2504, 11274.75
233.7325, 11258.70
234.2146, 11241.65
234.6968, 11244.24
235.1789, 11267.24
235.6610, 11294.24
236.1431, 11311.43
236.6252, 11317.72
237.1073, 11325.74
237.5895, 11330.09
238.0716, 11340.46
238.5537, 11368.35
239.0358, 11410.18
239.5179, 11448.51
240.0000, 11470.36
240.4822, 11477.01
240.9643, 11486.83
241.4464, 11503.43
241.9285, 11519.31
242.4106, 11533.18
242.8927, 11544.19
243.3749, 11548.75
243.8570, 11542.92
244.3391, 11531.47
244.8212, 11536.98
245.3033, 11577.86
245.7854, 11610.84
246.2676, 11625.28
246.7497, 11625.67
247.2318, 11615.51
247.7139, 11594.86
248.1960, 11573.07
248.6781, 11573.73
249.1603, 11631.67
249.6424, 11660.61
250.1245, 11628.22
250.6066, 11574.84
251.0887, 11547.23
251.5708, 11558.67
252.0530, 11583.48
252.5351, 11580.28
253.0172, 11522.94
253.4993, 11491.79
253.9814, 11510.78
254.4635, 11538.54
254.9457, 11537.55
255.4278, 11505.82
255.9099, 11474.37
256.3920, 11479.47
256.8741, 11532.48
257.3563, 11572.99
257.8384, 11600.26
258.3205, 11617.90
258.8026, 11622.49
259.2847, 11617.85
259.7668, 11613.17
260.2490, 11614.74
260.7311, 11622.38
261.2132, 11645.86
261.6953, 11708.26
262.1774, 11761.17
262.6595, 11786.30
263.1417, 11792.92
263.6238, 11798.68
264.1059, 11813.92
264.5880, 11837.38
265.0701, 11863.14
265.5522, 11904.14
266.0344, 11931.07
266.5165, 11931.44
266.9986, 11919.97
267.4807, 11912.61
267.9628, 11915.90
268.4449, 11925.89
268.9271, 11933.98
269.4092, 11937.58
269.8913, 11944.43
270.3734, 11959.04
270.8555, 11973.85
271.3376, 11980.99
271.8198, 11979.60
272.3019, 11977.82
272.7840, 11986.40
273.2661, 12007.51
273.7482, 12029.95
274.2303, 12055.17
274.7125, 12079.93
275.1946, 12101.23
275.6767, 12120.08
276.1588, 12140.74
276.6409, 12169.25
277.1230, 12205.16
277.6052, 12230.63
278.0873, 12234.15
278.5694, 12240.90
279.0515, 12261.82
279.5336, 12293.01
280.0157, 12327.08
280.4979, 12361.99
280.9800, 12395.54
281.4621, 12418.83
281.9442, 12424.85
282.4263, 12437.28
282.9084, 12471.77
283.3906, 12514.66
283.8727, 12550.33
284.3548, 12572.34
284.8369, 12590.02
285.3190, 12617.73
285.8011, 12657.42
286.2833, 12690.07
286.7654, 12698.00
287.2475, 12704.78
287.7296, 12714.57
288.2117, 12769.43
288.6938, 12809.66
289.1760, 12836.05
289.6581, 12807.12
290.1402, 12849.61
290.6223, 12863.48
291.1044, 12876.18
291.5865, 12928.73
292.0687, 12907.85
292.5508, 12959.77
293.0329, 12982.62
293.5150, 13018.78
293.9971, 13026.13
294.4792, 13042.38
294.9614, 13087.45
295.4435, 13116.56
295.9256, 13131.95
296.4077, 13158.90
296.8898, 13142.52
297.3719, 13113.55
297.8541, 13098.01
298.3362, 13093.95
298.8183, 13083.96
299.3004, 13055.06
299.7825, 13015.26
300.2646, 12960.98
300.7468, 12967.71
301.2289, 12959.82
301.7110, 12938.08
302.1931, 12861.02
302.6752, 12855.40
303.1573, 12821.14
303.6395, 12785.71
304.1216, 12790.14
304.6037, 12721.13
305.0858, 12722.90
305.5679, 12699.12
306.0500, 12664.27
306.5322, 12593.25
307.0143, 12487.48
307.4964, 12386.31
307.9785, 12335.07
308.4606, 12346.63
308.9427, 12323.70
309.4249, 12238.76
309.9070, 12152.65
310.3891, 12100.24
310.8712, 12069.53
311.3533, 12025.08
311.8354, 11940.72
312.3176, 11826.61
312.7997, 11748.35
313.2818, 11755.87
313.7639, 11741.21
314.2460, 11684.87
314.7281, 11602.59
315.2103, 11508.03
315.6924, 11406.82
316.1745, 11305.53
316.6566, 11212.71
317.1387, 11123.28
317.6208, 11058.24
318.1030, 11050.89
318.5851, 11041.80
319.0672, 10988.00
319.5493, 10891.06
320.0314, 10790.80
320.5135, 10724.96
320.9957, 10693.54
321.4778, 10661.41
321.9599, 10639.60
322.4420, 10601.21
322.9241, 10524.16
323.4063, 10424.42
323.8884, 10332.23
324.3705, 10259.01
324.8526, 10204.96
325.3347, 10177.16
325.8168, 10184.05
326.2990, 10181.08
326.7811, 10135.66
327.2632, 10076.35
327.7453, 10035.14
328.2274, 10019.84
328.7095, 10012.90
329.1917, 10005.84
329.6738, 9996.983
330.1559, 9976.229
330.6380, 9937.369
331.1201, 9891.493
331.6022, 9847.199
332.0844, 9803.795
332.5665, 9775.680
333.0486, 9779.152
333.5307, 9795.226
334.0128, 9798.535
334.4949, 9786.442
334.9770, 9772.614
335.4591, 9767.634
335.9413, 9771.510
336.4234, 9775.989
336.9055, 9780.401
337.3876, 9786.054
337.8697, 9793.666
338.3518, 9802.959
338.8340, 9813.282
339.3161, 9824.318
339.7982, 9835.991
340.2803, 9848.509
340.7624, 9865.733
341.2445, 9877.949
341.7267, 9868.472
342.2088, 9862.872
342.6909, 9890.026
343.1730, 9953.023
343.6551, 10026.61
344.1372, 10082.07
344.6194, 10116.04
345.1015, 10146.86
345.5836, 10176.27
346.0657, 10201.04
346.5478, 10213.62
347.0299, 10220.84
347.5121, 10238.57
347.9942, 10279.31
348.4763, 10333.79
348.9584, 10365.97
349.4405, 10365.27
349.9226, 10361.34
350.4048, 10360.26
350.8869, 10360.26
351.3690, 10364.64
351.8511, 10374.42
352.3332, 10372.74
352.8153, 10333.34
353.2975, 10255.97
353.7796, 10188.86
354.2617, 10140.08
354.7438, 10102.82
355.2259, 10082.82
355.7080, 10073.02
356.1902, 10040.19
356.6723, 9943.711
357.1544, 9822.941
357.6365, 9752.280
358.1186, 9739.796
358.6007, 9724.723
359.0829, 9670.667
359.5650, 9586.216
360.0471, 9499.833
360.5292, 9406.123
361.0113, 9319.573
361.4934, 9241.048
361.9756, 9175.387
362.4577, 9143.666
362.9398, 9159.521
363.4219, 9181.127
363.9040, 9136.980
364.3861, 8991.864
364.8683, 8887.938
365.3504, 8866.426
365.8325, 8863.582
366.3146, 8830.960
366.7967, 8767.481
367.2788, 8697.792
367.7610, 8640.942
368.2431, 8596.440
368.7252, 8551.380
369.2073, 8496.864
369.6894, 8452.040
370.1715, 8423.044
370.6537, 8405.108
371.1358, 8394.662
371.6179, 8390.051
372.1000, 8385.979
372.5821, 8372.923
373.0642, 8348.520
373.5464, 8322.763
374.0285, 8286.966
374.5106, 8257.966
374.9927, 8252.157
375.4748, 8263.977
375.9569, 8269.231
376.4391, 8246.188
376.9212, 8203.020
377.4033, 8172.250
377.8854, 8159.520
378.3675, 8144.646
378.8496, 8106.345
379.3318, 8063.337
379.8139, 8042.156
380.2960, 8055.460
380.7781, 8074.815
381.2602, 8078.386
381.7423, 8068.172
382.2245, 8052.122
382.7066, 8030.917
383.1887, 8007.488
383.6708, 7981.504
384.1529, 7951.377
384.6350, 7937.812
385.1172, 7964.868
385.5993, 7996.068
386.0814, 7996.112
386.5635, 7965.934
387.0456, 7927.716
387.5277, 7893.764
388.0099, 7865.486
388.4920, 7854.877
388.9741, 7878.119
389.4562, 7897.601
389.9383, 7912.146
390.4204, 7917.374
390.9026, 7904.283
391.3847, 7871.809
391.8668, 7833.711
392.3489, 7808.710
392.8310, 7798.233
393.3131, 7795.242
393.7953, 7810.299
394.2774, 7822.936
394.7595, 7822.870
395.2416, 7814.176
395.7237, 7806.699
396.2058, 7805.692
396.6880, 7810.374
397.1701, 7822.408
397.6522, 7847.491
398.1343, 7859.183
398.6164, 7831.481
399.0985, 7796.518
399.5807, 7787.409
400.0628, 7809.901
400.5449, 7829.518
401.0270, 7814.939
401.5091, 7781.106
401.9912, 7771.016
402.4734, 7795.519
402.9555, 7819.034
403.4376, 7804.801
403.9197, 7758.996
404.4018, 7736.170
404.8839, 7758.281
405.3661, 7785.540
405.8482, 7801.045
406.3303, 7804.481
406.8124, 7792.493
407.2945, 7762.033
407.7766, 7726.531
408.2588, 7713.423
408.7409, 7743.248
409.2230, 7756.523
409.7051, 7737.775
410.1872, 7715.775
410.6693, 7711.220
411.1515, 7722.253
411.6336, 7734.239
412.1157, 7736.641
412.5978, 7729.870
413.0799, 7714.646
413.5620, 7675.960
414.0442, 7654.575
414.5263, 7673.279
415.0084, 7704.373
415.4905, 7719.604
415.9726, 7711.747
416.4547, 7697.136
416.9369, 7687.195
417.4190, 7682.886
417.9011, 7696.633
418.3832, 7742.049
418.8653, 7782.813
419.3474, 7783.492
419.8296, 7755.693
420.3117, 7731.521
420.7938, 7721.275
421.2759, 7715.401
421.7580, 7702.851
422.2401, 7686.921
422.7223, 7682.948
423.2044, 7699.708
423.6865, 7726.072
424.1686, 7740.805
424.6507, 7741.157
425.1328, 7736.217
425.6150, 7712.592
426.0971, 7694.211
426.5792, 7709.392
427.0613, 7751.151
427.5434, 7782.398
428.0255, 7772.397
428.5077, 7728.419
428.9898, 7705.146
429.4719, 7714.690
429.9540, 7728.413
430.4361, 7747.021
430.9182, 7763.991
431.4004, 7773.422
431.8825, 7773.929
432.3646, 7768.083
432.8467, 7753.793
433.3288, 7732.493
433.8109, 7724.978
434.2931, 7739.935
434.7752, 7755.244
435.2573, 7747.659
435.7394, 7730.708
436.2215, 7734.346
436.7036, 7781.834
437.1858, 7832.214
437.6679, 7846.160
438.1500, 7833.729
438.6321, 7832.510
439.1142, 7856.433
439.5963, 7890.331
440.0785, 7914.280
440.5606, 7929.084
441.0427, 7928.302
441.5248, 7884.232
442.0069, 7848.298
442.4890, 7866.310
442.9712, 7921.995
443.4533, 7963.946
443.9354, 7960.322
444.4175, 7925.815
444.8996, 7906.147
445.3817, 7898.291
445.8639, 7912.552
446.3460, 7966.305
446.8281, 8026.832
447.3102, 8074.512
447.7923, 8106.443
448.2744, 8125.819
448.7566, 8123.417
449.2387, 8110.184
449.7208, 8135.379
450.2029, 8212.862
450.6850, 8280.743
451.1671, 8299.373
451.6493, 8293.694
452.1314, 8300.094
452.6135, 8322.842
453.0956, 8354.046
453.5777, 8388.550
454.0598, 8428.917
454.5420, 8483.911
455.0241, 8555.158
455.5062, 8624.841
455.9883, 8675.803
456.4704, 8707.223
456.9525, 8745.419
457.4347, 8781.453
457.9168, 8832.989
458.3989, 8919.700
458.8810, 9019.728
459.3631, 9101.800
459.8452, 9155.717
460.3274, 9199.733
460.8095, 9260.266
461.2916, 9342.237
461.7737, 9417.922
462.2558, 9480.397
462.7379, 9543.969
463.2201, 9607.992
463.7022, 9678.127
464.1843, 9766.275
464.6664, 9883.450
465.1485, 10008.35
465.6306, 10111.28
466.1128, 10194.57
466.5949, 10285.83
467.0770, 10395.99
467.5591, 10509.21
468.0412, 10602.53
468.5233, 10676.19
469.0055, 10757.37
469.4876, 10854.65
469.9697, 10956.29
470.4518, 11053.21
470.9339, 11147.04
471.4160, 11246.05
471.8982, 11354.79
472.3803, 11467.98
472.8624, 11571.23
473.3445, 11650.48
473.8266, 11746.94
474.3087, 11875.49
474.7909, 12005.93
475.2730, 12123.14
475.7551, 12226.93
476.2372, 12322.93
476.7193, 12411.42
477.2014, 12497.98
477.6836, 12593.53
478.1657, 12696.89
478.6478, 12817.38
479.1299, 12980.54
479.6120, 13143.29
480.0941, 13247.17
480.5763, 13288.47
481.0584, 13346.09
481.5405, 13460.98
482.0226, 13601.82
482.5047, 13732.75
482.9868, 13852.39
483.4690, 13975.42
483.9511, 14110.07
484.4332, 14253.30
484.9153, 14398.12
485.3974, 14537.05
485.8795, 14686.93
486.3617, 14851.37
486.8438, 15024.84
487.3259, 15202.94
487.8080, 15386.24
488.2901, 15580.61
488.7722, 15791.77
489.2544, 16016.85
489.7365, 16239.73
490.2186, 16450.83
490.7007, 16687.93
491.1828, 16981.32
491.6649, 17295.21
492.1471, 17605.75
492.6292, 17910.50
493.1113, 18210.74
493.5934, 18504.10
494.0755, 18796.71
494.5576, 19102.16
495.0398, 19420.71
495.5219, 19727.68
496.0040, 20007.48
496.4861, 20263.94
496.9682, 20504.70
497.4503, 20722.42
497.9325, 20938.26
498.4146, 21174.11
498.8967, 21396.03
499.3788, 21574.84
499.8609, 21710.26
500.3430, 21818.06
500.8252, 21910.26
501.3073, 21985.88
501.7894, 22042.89
502.2715, 22088.68
502.7536, 22097.30
503.2357, 22043.90
503.7179, 21960.56
504.2000, 21867.51
504.6821, 21767.16
505.1642, 21663.27
505.6463, 21571.89
506.1284, 21472.65
506.6106, 21334.72
507.0927, 21156.88
507.5748, 20936.64
508.0569, 20665.40
508.5390, 20357.56
509.0211, 20051.93
509.5033, 19740.90
509.9854, 19443.41
510.4675, 19193.37
510.9496, 18932.02
511.4317, 18597.19
511.9138, 18202.46
512.3960, 17815.87
512.8781, 17489.29
513.3602, 17199.11
513.8423, 16868.28
514.3245, 16482.43
514.8066, 16094.42
515.2887, 15702.91
515.7708, 15323.64
516.2529, 14978.67
516.7350, 14665.07
517.2172, 14336.71
517.6993, 13948.80
518.1814, 13547.98
518.6635, 13202.54
519.1456, 12909.24
519.6277, 12628.52
520.1099, 12344.48
520.5920, 12062.69
521.0741, 11791.15
521.5562, 11528.84
522.0383, 11284.16
522.5204, 11077.04
523.0026, 10870.78
523.4847, 10634.05
523.9668, 10380.46
524.4489, 10141.11
524.9310, 9932.880
525.4131, 9747.188
525.8953, 9568.257
526.3774, 9396.027
526.8595, 9230.395
527.3416, 9067.606
527.8237, 8916.608
528.3058, 8782.907
528.7880, 8664.518
529.2701, 8554.332
529.7522, 8461.838
530.2343, 8366.403
530.7164, 8239.514
531.1985, 8096.466
531.6807, 7979.498
532.1628, 7903.032
532.6449, 7842.474
533.1270, 7765.250
533.6091, 7663.340
534.0912, 7591.126
534.5734, 7580.002
535.0555, 7560.030
535.5376, 7506.138
536.0197, 7431.987
536.5018, 7353.708
536.9839, 7276.734
537.4661, 7206.587
537.9482, 7152.147
538.4303, 7111.429
538.9124, 7068.058
539.3945, 7021.918
539.8766, 6969.785
540.3588, 6898.502
540.8409, 6822.515
541.3230, 6776.842
541.8051, 6783.229
542.2872, 6781.904
542.7693, 6744.538
543.2515, 6690.263
543.7336, 6636.983
544.2157, 6589.516
544.6978, 6553.448
545.1799, 6535.482
545.6620, 6530.396
546.1442, 6506.813
546.6263, 6444.540
547.1084, 6399.776
547.5905, 6391.933
548.0726, 6394.072
548.5547, 6387.218
549.0369, 6370.868
549.5190, 6355.481
550.0011, 6353.868
550.4832, 6353.246
550.9653, 6328.653
551.4474, 6282.487
551.9296, 6241.573
552.4117, 6217.055
552.8938, 6201.139
553.3759, 6183.058
553.8580, 6163.559
554.3401, 6138.008
554.8223, 6097.942
555.3044, 6060.326
555.7865, 6029.222
556.2686, 6007.838
556.7507, 6006.038
557.2328, 6027.678
557.7150, 6049.783
558.1971, 6028.846
558.6792, 5961.956
559.1613, 5936.053
559.6434, 5979.537
560.1255, 6022.415
560.6077, 6018.988
561.0898, 5987.297
561.5719, 5955.877
562.0540, 5928.025
562.5361, 5902.168
563.0182, 5878.448
563.5004, 5855.916
563.9825, 5829.100
564.4646, 5799.557
564.9467, 5783.240
565.4288, 5795.629
565.9109, 5828.976
566.3931, 5841.412
566.8752, 5823.191
567.3573, 5799.972
567.8394, 5759.111
568.3215, 5727.098
568.8036, 5730.801
569.2858, 5763.456
569.7679, 5789.920
570.2500, 5788.651
570.7321, 5771.575
571.2142, 5751.506
571.6964, 5729.552
572.1785, 5715.365
572.6606, 5714.004
573.1427, 5714.776
573.6248, 5702.786
574.1069, 5674.757
574.5891, 5657.099
575.0712, 5663.492
575.5533, 5664.320
576.0354, 5640.530
576.5175, 5607.952
576.9996, 5588.836
577.4818, 5589.177
577.9639, 5596.646
578.4460, 5601.603
578.9281, 5603.157
579.4102, 5590.091
579.8923, 5556.323
580.3745, 5527.449
580.8566, 5513.563
581.3386, 5513.579
581.8207, 5527.995
582.3029, 5564.628
582.7850, 5584.339
583.2671, 5569.742
583.7492, 5538.387
584.2313, 5493.218
584.7134, 5444.211
585.1956, 5419.058
585.6777, 5433.070
586.1598, 5468.161
586.6419, 5487.171
587.1240, 5485.588
587.6061, 5486.908
588.0883, 5505.081
588.5704, 5510.578
589.0525, 5474.046
589.5346, 5418.193
590.0167, 5389.012
590.4988, 5407.427
590.9810, 5432.458
591.4631, 5438.037
591.9452, 5430.187
592.4273, 5416.122
592.9094, 5397.959
593.3915, 5385.015
593.8737, 5385.180
594.3558, 5395.588
594.8379, 5402.291
595.3200, 5407.289
595.8021, 5404.757
596.2842, 5386.690
596.7664, 5368.130
597.2485, 5356.957
597.7306, 5353.863
598.2127, 5358.667
598.6948, 5376.644
599.1769, 5394.563
599.6591, 5392.382
600.1412, 5374.274
600.6233, 5360.352
601.1054, 5355.580
601.5875, 5356.386
602.0696, 5361.967
602.5518, 5372.269
603.0339, 5367.512
603.5160, 5326.423
603.9981, 5298.951
604.4802, 5306.867
604.9623, 5325.135
605.4445, 5330.144
605.9266, 5319.373
606.4087, 5305.232
606.8908, 5297.783
607.3729, 5293.013
607.8550, 5279.932
608.3372, 5258.253
608.8193, 5238.317
609.3014, 5219.451
609.7835, 5211.245
610.2656, 5233.758
610.7477, 5292.412
611.2299, 5317.857
611.7120, 5280.483
612.1941, 5240.431
612.6762, 5223.502
613.1583, 5218.259
613.6404, 5209.225
614.1226, 5192.408
614.6047, 5172.597
615.0868, 5152.780
615.5689, 5133.940
616.0510, 5120.819
616.5331, 5113.153
617.0153, 5113.492
617.4974, 5128.896
617.9795, 5147.160
618.4616, 5149.095
618.9437, 5133.498
619.4258, 5121.440
619.9080, 5121.762
620.3901, 5121.225
620.8722, 5104.842
621.3543, 5083.745
621.8364, 5081.749
622.3185, 5105.297
622.8007, 5132.987
623.2828, 5138.643
623.7649, 5123.268
624.2470, 5107.260
624.7291, 5087.702
625.2112, 5076.291
625.6934, 5088.577
626.1755, 5104.643
626.6576, 5093.077
627.1397, 5048.489
627.6218, 5016.583
628.1039, 5014.244
628.5861, 5024.435
629.0682, 5044.366
629.5503, 5065.117
630.0324, 5065.276
630.5145, 5037.639
630.9966, 5005.600
631.4788, 5005.240
631.9609, 5037.897
632.4430, 5054.473
632.9251, 5051.548
633.4072, 5039.433
633.8893, 5012.005
634.3715, 4983.387
634.8536, 4972.596
635.3357, 4982.550
635.8178, 4995.229
636.2999, 5010.180
636.7820, 5020.916
637.2642, 5019.876
637.7463, 5010.214
638.2284, 4997.280
638.7105, 4983.468
639.1926, 4976.583
639.6747, 4995.201
640.1569, 5042.650
640.6390, 5051.359
641.1211, 4996.246
641.6032, 4951.909
642.0853, 4962.174
642.5674, 4994.496
643.0496, 5010.904
643.5317, 5008.168
644.0138, 4998.383
644.4959, 4976.157
644.9780, 4956.590
645.4601, 4957.147
645.9423, 4970.393
646.4244, 4975.339
646.9065, 4964.048
647.3886, 4950.313
647.8707, 4954.983
648.3528, 4978.877
648.8350, 4993.951
649.3171, 4997.372
649.7992, 4998.169
650.2813, 5000.886
650.7634, 5002.308
651.2455, 4997.868
651.7277, 4986.871
652.2098, 4975.369
652.6919, 4964.421
653.1740, 4954.302
653.6561, 4942.640
654.1382, 4932.475
654.6204, 4933.096
655.1025, 4946.881
655.5846, 4960.286
656.0667, 4954.806
656.5488, 4931.489
657.0309, 4914.328
657.5131, 4904.274
657.9952, 4897.890
658.4773, 4896.461
658.9594, 4896.139
659.4415, 4890.105
659.9236, 4877.624
660.4058, 4871.934
660.8879, 4888.621
661.3700, 4899.911
661.8521, 4880.920
662.3342, 4847.529
662.8163, 4828.669
663.2985, 4831.019
663.7806, 4836.424
664.2627, 4824.825
664.7448, 4799.938
665.2269, 4781.250
665.7090, 4768.543
666.1912, 4764.094
666.6733, 4773.821
667.1554, 4786.013
667.6375, 4784.818
668.1196, 4770.410
668.6017, 4759.142
669.0839, 4755.235
669.5660, 4751.392
670.0481, 4745.362
670.5302, 4737.344
671.0123, 4725.550
671.4944, 4711.162
671.9766, 4701.313
672.4587, 4705.594
672.9408, 4715.139
673.4229, 4703.752
673.9050, 4671.236
674.3871, 4646.346
674.8693, 4637.196
675.3514, 4636.095
675.8335, 4637.062
676.3156, 4640.019
676.7977, 4640.984
677.2798, 4638.789
677.7620, 4636.442
678.2441, 4636.671
678.7262, 4635.441
679.2083, 4629.060
679.6904, 4617.786
680.1725, 4603.357
680.6547, 4584.131
681.1368, 4567.475
681.6189, 4569.112
682.1010, 4583.534
682.5831, 4579.985
683.0652, 4550.645
683.5474, 4560.007
684.0295, 4553.666
684.5116, 4547.023
684.9937, 4540.257
685.4758, 4524.163
685.9579, 4526.872
686.4401, 4526.176
686.9222, 4528.169
687.4043, 4541.956
687.8864, 4542.393
688.3685, 4516.559
688.8506, 4520.276
689.3328, 4523.220
689.8149, 4520.477
690.2970, 4515.736
690.7791, 4517.735
691.2612, 4525.618
691.7433, 4527.957
692.2255, 4517.898
692.7076, 4501.596
693.1897, 4492.700
693.6718, 4495.876
694.1539, 4486.846
694.6360, 4447.066
695.1182, 4421.644
695.6003, 4443.973
696.0824, 4483.957
696.5645, 4502.083
697.0466, 4491.512
697.5287, 4478.842
698.0109, 4476.745
698.4930, 4474.448
698.9751, 4460.464
699.4572, 4439.436
699.9393, 4421.552
700.4214, 4410.388
700.9036, 4404.498
701.3857, 4403.178
701.8678, 4405.835
702.3499, 4409.414
702.8320, 4415.888
703.3141, 4412.474
703.7963, 4387.624
704.2784, 4360.644
704.7605, 4358.106
705.2426, 4380.150
705.7247, 4390.418
706.2068, 4374.125
706.6890, 4362.242
707.1711, 4369.822
707.6532, 4383.432
708.1353, 4391.150
708.6174, 4390.776
709.0995, 4383.208
709.5817, 4366.609
710.0638, 4347.268
710.5459, 4335.013
711.0280, 4328.789
711.5101, 4324.101
711.9922, 4320.428
712.4744, 4313.171
712.9565, 4296.037
713.4386, 4274.771
713.9207, 4274.217
714.4028, 4319.879
714.8849, 4339.513
715.3671, 4302.458
715.8492, 4269.300
716.3313, 4272.417
716.8134, 4299.317
717.2955, 4327.143
717.7776, 4353.213
718.2598, 4365.791
718.7419, 4345.251
719.2240, 4315.691
719.7061, 4307.879
720.1882, 4318.573
720.6703, 4330.689
721.1525, 4336.894
721.6346, 4336.654
722.1167, 4327.815
722.5988, 4310.448
723.0809, 4293.831
723.5630, 4276.230
724.0452, 4265.758
724.5273, 4271.374
725.0094, 4280.125
725.4915, 4270.638
725.9736, 4242.729
726.4557, 4230.807
726.9379, 4258.807
727.4200, 4278.740
727.9021, 4264.470
728.3842, 4237.860
728.8663, 4218.728
729.3484, 4211.780
729.8306, 4218.420
730.3127, 4247.406
730.7948, 4277.033
731.2769, 4269.510
731.7590, 4232.965
732.2411, 4199.239
732.7233, 4173.615
733.2054, 4164.637
733.6875, 4182.985
734.1696, 4216.869
734.6517, 4223.354
735.1339, 4177.483
735.6160, 4160.689
736.0981, 4214.746
736.5802, 4255.569
737.0623, 4227.513
737.5444, 4169.614
738.0266, 4150.800
738.5087, 4190.696
738.9908, 4219.734
739.4729, 4191.159
739.9550, 4152.438
740.4371, 4150.833
740.9193, 4171.957
741.4014, 4178.123
741.8835, 4157.866
742.3656, 4131.391
742.8477, 4120.436
743.3298, 4121.364
743.8120, 4118.179
744.2941, 4110.466
744.7762, 4104.855
745.2583, 4103.490
745.7404, 4104.210
746.2225, 4104.637
746.7047, 4104.923
747.1868, 4108.242
747.6689, 4120.791
748.1510, 4127.687
748.6331, 4128.305
749.1152, 4122.075
749.5974, 4099.308
750.0795, 4069.989
750.5616, 4061.750
751.0437, 4091.701
751.5258, 4120.046
752.0079, 4112.604
752.4901, 4087.412
752.9722, 4064.307
753.4543, 4048.135
753.9364, 4049.293
754.4185, 4073.079
754.9006, 4104.824
755.3828, 4124.846
755.8649, 4133.108
756.3470, 4124.422
756.8291, 4092.187
757.3112, 4066.958
757.7933, 4060.600
758.2755, 4065.507
758.7576, 4077.577
759.2397, 4098.319
759.7218, 4097.652
760.2039, 4043.174
760.6860, 4008.634
761.1682, 4029.055
761.6503, 4064.706
762.1324, 4078.430
762.6145, 4072.502
763.0966, 4072.309
763.5787, 4092.373
764.0609, 4115.885
764.5430, 4131.018
765.0251, 4136.749
765.5072, 4126.554
765.9893, 4103.000
766.4714, 4081.553
766.9536, 4070.447
767.4357, 4068.518
767.9178, 4077.546
768.3999, 4099.715
768.8820, 4104.109
769.3641, 4083.037
769.8463, 4065.508
770.3284, 4062.861
770.8105, 4069.683
771.2926, 4080.838
771.7747, 4096.969
772.2568, 4108.108
772.7390, 4116.662
773.2211, 4116.548
773.7032, 4094.180
774.1853, 4070.539
774.6674, 4071.959
775.1495, 4092.826
775.6317, 4100.385
776.1138, 4071.719
776.5959, 4039.026
777.0780, 4037.055
777.5601, 4051.449
778.0422, 4053.965
778.5244, 4043.842
779.0065, 4038.320
779.4886, 4047.146
779.9707, 4061.788
780.4528, 4067.311
780.9349, 4063.415
781.4171, 4060.152
781.8992, 4058.980
782.3813, 4053.557
782.8634, 4040.583
783.3455, 4023.149
783.8276, 4002.906
784.3098, 3978.695
784.7919, 3966.920
785.2740, 3973.867
785.7561, 3984.593
786.2382, 4004.261
786.7203, 4019.601
787.2025, 4017.938
787.6846, 4001.783
788.1667, 3980.617
788.6488, 3951.063
789.1309, 3935.271
789.6130, 3968.368
790.0952, 4014.640
790.5773, 4018.159
791.0594, 3985.651
791.5415, 3961.560
792.0236, 3966.135
792.5057, 3980.946
792.9879, 3977.508
793.4700, 3959.738
793.9521, 3965.410
794.4342, 3998.103
794.9163, 4014.665
795.3984, 3996.771
795.8806, 3969.028
796.3627, 3958.539
796.8448, 3964.607
797.3269, 3968.797
797.8090, 3976.428
798.2911, 3973.531
798.7733, 3943.536
799.2554, 3917.652
799.7375, 3919.137
800.2196, 3938.601
800.7017, 3953.783
801.1838, 3961.165
801.6660, 3959.998
802.1481, 3941.549
802.6302, 3921.800
803.1123, 3917.076
803.5944, 3920.962
804.0765, 3917.822
804.5587, 3903.692
805.0408, 3889.792
805.5229, 3886.630
806.0050, 3890.427
806.4871, 3895.405
806.9692, 3900.702
807.4514, 3901.467
807.9335, 3896.581
808.4156, 3887.431
808.8977, 3873.949
809.3798, 3859.288
809.8619, 3855.411
810.3441, 3865.876
810.8262, 3873.416
811.3083, 3877.863
811.7904, 3877.764
812.2725, 3873.593
812.7546, 3863.754
813.2368, 3840.252
813.7189, 3796.006
814.2010, 3777.839
814.6831, 3815.256
815.1652, 3848.674
815.6473, 3856.678
816.1295, 3849.110
816.6116, 3830.207
817.0937, 3805.422
817.5758, 3791.707
818.0579, 3803.615
818.5400, 3817.408
819.0222, 3806.809
819.5043, 3789.466
819.9864, 3796.614
820.4685, 3823.766
820.9506, 3840.636
821.4327, 3832.447
821.9149, 3815.160
822.3970, 3811.652
822.8791, 3818.558
823.3612, 3815.607
823.8433, 3802.431
824.3254, 3795.948
824.8076, 3802.220
825.2897, 3813.990
825.7718, 3823.441
826.2539, 3831.263
826.7360, 3845.371
827.2181, 3874.847
827.7003, 3888.801
828.1824, 3865.685
828.6645, 3847.385
829.1466, 3868.866
829.6287, 3909.854
830.1108, 3928.026
830.5930, 3910.131
831.0751, 3907.139
831.5572, 3950.125
832.0393, 3986.105
832.5214, 3977.091
833.0035, 3951.362
833.4857, 3947.007
833.9678, 3967.694
834.4499, 3989.675
834.9320, 3999.889
835.4141, 4006.188
835.8962, 4025.693
836.3784, 4041.864
836.8605, 4018.560
837.3426, 3961.174
837.8247, 3910.996
838.3068, 3889.955
838.7889, 3881.261
839.2711, 3860.578
839.7532, 3830.831
840.2353, 3807.227
840.7174, 3790.178
841.1995, 3770.809
841.6816, 3745.685
842.1638, 3719.008
842.6459, 3694.283
843.1280, 3672.211
843.6101, 3659.229
844.0922, 3659.226
844.5743, 3657.829
845.0565, 3655.130
845.5386, 3647.890
846.0207, 3633.253
846.5028, 3612.736
846.9849, 3588.167
847.4670, 3554.205
847.9492, 3533.926
848.4313, 3541.740
848.9134, 3549.096
849.3955, 3541.315
849.8776, 3529.330
850.3597, 3529.302
850.8419, 3539.505
851.3240, 3539.292
851.8061, 3510.703
852.2882, 3483.978
852.7703, 3484.780
853.2524, 3494.624
853.7346, 3489.608
854.2167, 3473.278
854.6988, 3462.647
855.1809, 3464.824
855.6630, 3472.917
856.1451, 3484.382
856.6273, 3494.570
857.1094, 3486.729
857.5915, 3466.461
858.0736, 3467.625
858.5557, 3497.974
859.0378, 3520.639
859.5200, 3502.562
860.0021, 3458.096
860.4842, 3425.971
860.9663, 3405.379
861.4484, 3414.566
861.9305, 3466.447
862.4127, 3502.456
862.8948, 3489.407
863.3769, 3450.889
863.8590, 3422.451
864.3411, 3403.858
864.8232, 3397.894
865.3054, 3415.955
865.7875, 3428.552
866.2696, 3429.215
866.7517, 3423.049
867.2338, 3409.851
867.7159, 3392.565
868.1981, 3380.139
868.6802, 3373.794
869.1623, 3371.816
869.6444, 3378.107
870.1265, 3384.269
870.6086, 3389.657
871.0908, 3389.746
871.5729, 3372.804
872.0550, 3340.024
872.5371, 3319.220
873.0192, 3334.227
873.5013, 3356.400
873.9835, 3365.587
874.4656, 3367.511
874.9477, 3369.158
875.4298, 3371.254
875.9119, 3372.458
876.3940, 3372.172
876.8762, 3369.644
877.3583, 3360.408
877.8404, 3349.717
878.3225, 3352.712
878.8046, 3365.847
879.2867, 3370.514
879.7689, 3361.901
880.2510, 3352.398
880.7331, 3353.896
881.2152, 3359.719
881.6973, 3346.361
882.1794, 3313.629
882.6616, 3303.359
883.1437, 3322.471
883.6258, 3344.289
884.1079, 3358.412
884.5900, 3362.217
885.0721, 3349.009
885.5543, 3317.604
886.0364, 3302.176
886.5185, 3310.349
887.0006, 3316.500
887.4827, 3315.000
887.9648, 3310.890
888.4470, 3304.278
888.9291, 3298.256
889.4112, 3304.347
889.8933, 3331.684
890.3754, 3348.726
890.8575, 3351.885
891.3397, 3347.653
891.8218, 3329.514
892.3039, 3311.269
892.7860, 3310.626
893.2681, 3326.179
893.7502, 3337.365
894.2324, 3338.837
894.7145, 3334.704
895.1966, 3319.154
895.6787, 3305.218
896.1608, 3309.117
896.6429, 3321.692
897.1251, 3321.303
897.6072, 3302.223
898.0893, 3285.687
898.5714, 3294.992
899.0535, 3304.284
899.5356, 3275.266
900.0178, 3235.421
900.4999, 3237.192
900.9820, 3278.274
901.4641, 3313.209
901.9462, 3316.878
902.4283, 3306.576
902.9105, 3300.350
903.3926, 3296.719
903.8747, 3293.018
904.3568, 3288.895
904.8389, 3282.498
905.3210, 3273.620
905.8032, 3267.317
906.2853, 3269.196
906.7674, 3274.626
907.2495, 3271.142
907.7316, 3259.464
908.2137, 3244.754
908.6959, 3227.074
909.1780, 3220.956
909.6601, 3235.082
910.1422, 3255.626
910.6243, 3262.730
911.1064, 3257.155
911.5886, 3252.586
912.0707, 3248.350
912.5528, 3248.314
913.0349, 3253.782
913.5170, 3262.842
913.9991, 3277.691
914.4813, 3291.963
914.9634, 3287.943
915.4455, 3257.184
915.9276, 3240.423
916.4097, 3245.967
916.8918, 3251.598
917.3740, 3252.395
917.8561, 3249.616
918.3382, 3240.867
918.8203, 3228.583
919.3024, 3226.188
919.7845, 3243.283
920.2667, 3254.248
920.7488, 3258.277
921.2309, 3254.947
921.7130, 3232.614
922.1951, 3209.558
922.6772, 3212.326
923.1594, 3241.343
923.6415, 3264.291
924.1236, 3273.411
924.6057, 3274.862
925.0878, 3266.681
925.5699, 3255.141
926.0521, 3239.082
926.5342, 3225.405
927.0163, 3230.566
927.4984, 3259.212
927.9805, 3277.503
928.4626, 3253.960
928.9448, 3230.080
929.4269, 3238.713
929.9090, 3260.963
930.3911, 3276.232
930.8732, 3281.448
931.3553, 3276.823
931.8375, 3260.618
932.3196, 3249.334
932.8017, 3264.003
933.2838, 3284.870
933.7659, 3284.086
934.2480, 3272.254
934.7302, 3273.124
935.2123, 3290.009
935.6944, 3311.762
936.1765, 3334.540
936.6586, 3347.319
937.1407, 3325.119
937.6229, 3287.040
938.1050, 3275.516
938.5871, 3286.509
939.0692, 3293.336
939.5513, 3288.012
940.0334, 3283.289
940.5156, 3292.695
940.9977, 3306.172
941.4798, 3300.066
941.9619, 3279.039
942.4440, 3262.466
942.9261, 3252.541
943.4083, 3249.483
943.8904, 3253.505
944.3725, 3260.657
944.8546, 3266.971
945.3367, 3271.785
945.8188, 3270.948
946.3010, 3264.772
946.7831, 3262.919
947.2652, 3267.198
947.7473, 3270.002
948.2294, 3266.076
948.7115, 3262.374
949.1937, 3272.936
949.6758, 3296.879
950.1579, 3307.348
950.6400, 3303.831
951.1221, 3289.120
951.6042, 3261.020
952.0864, 3232.802
952.5685, 3213.391
953.0506, 3201.427
953.5327, 3192.900
954.0148, 3186.705
954.4969, 3191.922
954.9791, 3211.685
955.4612, 3234.437
955.9433, 3262.367
956.4254, 3280.972
956.9075, 3275.507
957.3896, 3251.150
957.8718, 3227.109
958.3539, 3198.778
958.8360, 3183.500
959.3181, 3180.142
959.8002, 3194.289
960.2823, 3247.616
960.7645, 3295.175
961.2466, 3280.730
961.7287, 3214.668
962.2108, 3182.434
962.6929, 3207.732
963.1750, 3222.138
963.6572, 3218.915
964.1393, 3211.412
964.6214, 3202.243
965.1035, 3193.532
965.5856, 3187.533
966.0677, 3184.247
966.5499, 3184.147
967.0320, 3184.392
967.5141, 3192.064
967.9962, 3224.018
968.4783, 3245.417
968.9604, 3227.155
969.4426, 3194.482
969.9247, 3183.100
970.4068, 3194.910
970.8889, 3212.312
971.3710, 3250.100
971.8531, 3269.911
972.3353, 3249.525
972.8174, 3224.745
973.2995, 3214.392
973.7816, 3216.001
974.2637, 3227.318
974.7458, 3249.510
975.2280, 3261.158
975.7101, 3248.199
976.1922, 3237.855
976.6743, 3242.823
977.1564, 3248.643
977.6385, 3240.453
978.1207, 3226.231
978.6028, 3223.202
979.0849, 3234.656
979.5670, 3251.517
980.0491, 3283.625
980.5313, 3305.292
981.0134, 3301.285
981.4955, 3287.308
981.9776, 3273.970
982.4597, 3262.414
982.9418, 3250.815
983.4240, 3237.053
983.9061, 3234.245
984.3882, 3254.618
984.8703, 3277.163
985.3524, 3299.170
985.8345, 3312.588
986.3167, 3303.285
986.7988, 3279.617
987.2809, 3265.257
987.7630, 3266.983
988.2451, 3273.808
988.7272, 3281.518
989.2094, 3293.267
989.6915, 3321.792
990.1736, 3347.140
990.6557, 3343.326
991.1378, 3316.985
991.6199, 3295.166
992.1021, 3285.539
992.5842, 3280.566
993.0663, 3273.391
993.5484, 3273.945
994.0305, 3300.057
994.5126, 3329.021
994.9948, 3329.866
995.4769, 3308.417
995.9590, 3296.444
996.4411, 3305.812
996.9232, 3318.255
997.4053, 3324.708
997.8875, 3332.406
998.3696, 3357.050
998.8517, 3378.286
999.3338, 3361.044
999.8159, 3315.643
1000.298, 3293.396
1000.780, 3317.333
1001.262, 3344.256
1001.744, 3358.818
1002.227, 3364.096
1002.709, 3353.269
1003.191, 3340.192
1003.673, 3344.988
1004.155, 3364.615
1004.637, 3377.626
1005.119, 3375.905
1005.601, 3369.813
1006.083, 3361.471
1006.566, 3353.233
1007.048, 3342.447
1007.530, 3335.420
1008.012, 3342.875
1008.494, 3361.963
1008.976, 3378.143
1009.458, 3387.451
1009.940, 3390.531
1010.422, 3382.973
1010.905, 3374.485
1011.387, 3368.936
1011.869, 3367.964
1012.351, 3377.815
1012.833, 3394.219
1013.315, 3399.625
1013.797, 3385.438
1014.279, 3369.307
1014.762, 3347.977
1015.244, 3338.723
1015.726, 3370.041
1016.208, 3406.929
1016.690, 3398.685
1017.172, 3355.238
1017.654, 3335.371
1018.136, 3364.688
1018.618, 3389.611
1019.101, 3387.426
1019.583, 3379.270
1020.065, 3373.789
1020.547, 3371.061
1021.029, 3372.165
1021.511, 3375.554
1021.993, 3375.912
1022.475, 3371.121
1022.958, 3366.138
1023.440, 3363.084
1023.922, 3359.489
1024.404, 3349.138
1024.886, 3341.576
1025.368, 3351.514
1025.850, 3372.784
1026.332, 3380.961
1026.814, 3365.104
1027.297, 3357.784
1027.779, 3380.776
1028.261, 3395.513
1028.743, 3373.741
1029.225, 3347.120
1029.707, 3348.659
1030.189, 3369.864
1030.671, 3379.628
1031.154, 3369.561
1031.636, 3364.269
1032.118, 3370.086
1032.600, 3377.588
1033.082, 3385.535
1033.564, 3392.390
1034.046, 3393.947
1034.528, 3393.953
1035.010, 3404.105
1035.493, 3430.513
1035.975, 3445.581
1036.457, 3439.564
1036.939, 3433.097
1037.421, 3431.293
1037.903, 3429.818
1038.385, 3423.238
1038.867, 3415.466
1039.349, 3416.004
1039.832, 3427.370
1040.314, 3434.141
1040.796, 3435.660
1041.278, 3433.477
1041.760, 3423.995
1042.242, 3416.005
1042.724, 3416.546
1043.206, 3420.786
1043.689, 3419.326
1044.171, 3411.308
1044.653, 3407.283
1045.135, 3404.658
1045.617, 3413.459
1046.099, 3443.410
1046.581, 3467.957
1047.063, 3470.158
1047.546, 3462.248
1048.028, 3462.395
1048.510, 3470.316
1048.992, 3479.034
1049.474, 3490.682
1049.956, 3493.899
1050.438, 3485.474
1050.920, 3474.041
1051.402, 3460.475
1051.885, 3454.787
1052.367, 3472.928
1052.849, 3508.581
1053.331, 3521.538
1053.813, 3509.048
1054.295, 3505.801
1054.777, 3516.354
1055.259, 3519.409
1055.741, 3505.523
1056.224, 3489.685
1056.706, 3487.760
1057.188, 3494.863
1057.670, 3493.688
1058.152, 3485.672
1058.634, 3494.617
1059.116, 3520.802
1059.598, 3537.668
1060.081, 3537.060
1060.563, 3530.704
1061.045, 3526.704
1061.527, 3528.495
1062.009, 3550.524
1062.491, 3583.296
1062.973, 3587.163
1063.455, 3566.293
1063.938, 3541.251
1064.420, 3520.124
1064.902, 3524.479
1065.384, 3570.771
1065.866, 3623.994
1066.348, 3638.668
1066.830, 3627.491
1067.312, 3602.138
1067.794, 3575.051
1068.276, 3583.362
1068.759, 3623.029
1069.241, 3651.294
1069.723, 3648.304
1070.205, 3635.027
1070.687, 3630.135
1071.169, 3625.432
1071.651, 3600.210
1072.133, 3576.151
1072.616, 3593.759
1073.098, 3640.847
1073.580, 3674.628
1074.062, 3682.150
1074.544, 3682.196
1075.026, 3682.430
1075.508, 3683.680
1075.990, 3687.990
1076.472, 3692.233
1076.955, 3691.859
1077.437, 3689.890
1077.919, 3693.277
1078.401, 3702.391
1078.883, 3708.026
1079.365, 3706.311
1079.847, 3701.877
1080.329, 3693.448
1080.812, 3686.001
1081.294, 3677.369
1081.776, 3674.919
1082.258, 3694.123
1082.740, 3729.990
1083.222, 3748.384
1083.704, 3732.761
1084.186, 3726.775
1084.668, 3755.403
1085.151, 3766.350
1085.633, 3718.666
1086.115, 3671.108
1086.597, 3677.161
1087.079, 3717.539
1087.561, 3736.522
1088.043, 3728.614
1088.525, 3724.332
1089.007, 3720.187
1089.490, 3730.220
1089.972, 3765.501
1090.454, 3795.271
1090.936, 3799.024
1091.418, 3789.352
1091.900, 3788.751
1092.382, 3795.832
1092.864, 3784.064
1093.347, 3750.788
1093.829, 3731.519
1094.311, 3731.156
1094.793, 3743.330
1095.275, 3766.851
1095.757, 3784.163
1096.239, 3770.648
1096.721, 3746.056
1097.203, 3782.201
1097.686, 3858.623
1098.168, 3858.479
1098.650, 3788.751
1099.132, 3740.225
1099.614, 3738.371
1100.096, 3754.967
1100.578, 3772.279
1101.060, 3786.238
1101.542, 3796.424
1102.025, 3796.261
1102.507, 3759.557
1102.989, 3708.952
1103.471, 3699.631
1103.953, 3729.119
1104.435, 3748.337
1104.917, 3735.448
1105.399, 3722.917
1105.882, 3737.916
1106.364, 3758.878
1106.846, 3773.882
1107.328, 3781.193
1107.810, 3777.757
1108.292, 3766.024
1108.774, 3747.861
1109.256, 3724.381
1109.739, 3711.124
1110.221, 3714.656
1110.703, 3727.365
1111.185, 3764.165
1111.667, 3790.204
1112.149, 3773.958
1112.631, 3743.023
1113.113, 3732.191
1113.595, 3740.286
1114.078, 3745.493
1114.560, 3743.512
1115.042, 3747.202
1115.524, 3763.479
1116.006, 3772.854
1116.488, 3770.110
1116.970, 3758.199
1117.452, 3734.954
1117.934, 3709.076
1118.417, 3700.901
1118.899, 3710.935
1119.381, 3718.660
1119.863, 3724.376
1120.345, 3725.202
1120.827, 3720.949
1121.309, 3704.692
1121.791, 3670.835
1122.274, 3646.035
1122.756, 3666.262
1123.238, 3712.130
1123.720, 3732.585
1124.202, 3732.398
1124.684, 3730.031
1125.166, 3725.479
1125.648, 3706.450
1126.130, 3672.814
1126.613, 3651.214
1127.095, 3662.383
1127.577, 3676.524
1128.059, 3655.417
1128.541, 3623.655
1129.023, 3611.763
1129.505, 3611.123
1129.987, 3605.908
1130.469, 3596.551
1130.952, 3593.242
1131.434, 3599.674
1131.916, 3602.293
1132.398, 3596.128
1132.880, 3582.621
1133.362, 3554.379
1133.844, 3527.044
1134.326, 3509.949
1134.809, 3502.587
1135.291, 3509.800
1135.773, 3529.413
1136.255, 3527.505
1136.737, 3476.037
1137.219, 3446.278
1137.701, 3447.292
1138.183, 3455.671
1138.666, 3470.494
1139.148, 3480.265
1139.630, 3475.056
1140.112, 3458.700
1140.594, 3439.022
1141.076, 3415.848
1141.558, 3396.185
1142.040, 3379.727
1142.522, 3373.293
1143.005, 3378.357
1143.487, 3377.787
1143.969, 3363.055
1144.451, 3344.724
1144.933, 3334.579
1145.415, 3328.814
1145.897, 3316.321
1146.379, 3302.849
1146.861, 3312.461
1147.344, 3333.678
1147.826, 3318.966
1148.308, 3267.104
1148.790, 3240.347
1149.272, 3279.831
1149.754, 3308.398
1150.236, 3239.760
1150.718, 3162.377
1151.201, 3156.611
1151.683, 3178.397
1152.165, 3177.112
1152.647, 3158.996
1153.129, 3154.264
1153.611, 3168.883
1154.093, 3169.689
1154.575, 3134.097
1155.057, 3107.038
1155.540, 3101.514
1156.022, 3100.274
1156.504, 3095.926
1156.986, 3092.547
1157.468, 3098.683
1157.950, 3107.535
1158.432, 3090.360
1158.914, 3038.552
1159.396, 3011.957
1159.879, 3013.240
1160.361, 3025.678
1160.843, 3047.452
1161.325, 3066.092
1161.807, 3075.347
1162.289, 3070.468
1162.771, 3038.715
1163.253, 2996.389
1163.736, 2990.829
1164.218, 3008.868
1164.700, 3012.354
1165.182, 3001.823
1165.664, 2991.580
1166.146, 2985.046
1166.628, 2976.251
1167.110, 2960.961
1167.593, 2946.589
1168.075, 2935.534
1168.557, 2931.484
1169.039, 2945.035
1169.521, 2961.080
1170.003, 2958.855
1170.485, 2946.455
1170.967, 2948.246
1171.449, 2968.875
1171.932, 2977.908
1172.414, 2959.116
1172.896, 2946.245
1173.378, 2946.895
1173.860, 2948.603
1174.342, 2949.129
1174.824, 2945.223
1175.306, 2931.772
1175.788, 2913.510
1176.271, 2904.306
1176.753, 2904.519
1177.235, 2904.927
1177.717, 2905.456
1178.199, 2913.852
1178.681, 2931.016
1179.163, 2941.888
1179.645, 2939.492
1180.128, 2924.901
1180.610, 2893.174
1181.092, 2861.764
1181.574, 2868.518
1182.056, 2888.722
1182.538, 2870.683
1183.020, 2836.088
1183.502, 2844.745
1183.984, 2891.857
1184.467, 2911.277
1184.949, 2872.605
1185.431, 2842.241
1185.913, 2857.890
1186.395, 2878.880
1186.877, 2889.896
1187.359, 2897.155
1187.841, 2907.514
1188.323, 2915.907
1188.806, 2913.027
1189.288, 2900.193
1189.770, 2889.447
1190.252, 2881.860
1190.734, 2870.366
1191.216, 2849.154
1191.698, 2851.830
1192.180, 2891.404
1192.663, 2925.669
1193.145, 2926.204
1193.627, 2915.032
1194.109, 2927.992
1194.591, 2951.169
1195.073, 2938.033
1195.555, 2904.684
1196.037, 2901.083
1196.520, 2919.376
1197.002, 2915.336
1197.484, 2883.534
1197.966, 2864.075
1198.448, 2880.660
1198.930, 2903.036
1199.412, 2918.100
1199.894, 2924.469
1200.376, 2913.510
1200.859, 2900.664
1201.341, 2901.560
1201.823, 2910.696
1202.305, 2918.475
1202.787, 2924.052
1203.269, 2914.698
1203.751, 2873.383
1204.233, 2859.989
1204.715, 2886.154
1205.198, 2912.834
1205.680, 2931.001
1206.162, 2934.897
1206.644, 2917.927
1207.126, 2895.029
1207.608, 2892.046
1208.090, 2903.363
1208.572, 2911.645
1209.055, 2916.231
1209.537, 2911.607
1210.019, 2901.209
1210.501, 2899.500
1210.983, 2908.735
1211.465, 2915.622
1211.947, 2912.097
1212.429, 2907.546
1212.911, 2907.365
1213.394, 2909.343
1213.876, 2912.456
1214.358, 2916.646
1214.840, 2923.745
1215.322, 2931.165
1215.804, 2933.196
1216.286, 2929.657
1216.768, 2928.183
1217.250, 2929.223
1217.733, 2932.264
1218.215, 2940.309
1218.697, 2935.842
1219.179, 2909.635
1219.661, 2898.814
1220.143, 2932.288
1220.625, 2971.034
1221.107, 2949.793
1221.590, 2895.315
1222.072, 2875.578
1222.554, 2882.044
1223.036, 2904.518
1223.518, 2931.623
1224.000, 2933.606
1224.482, 2910.235
1224.964, 2899.132
1225.447, 2921.583
1225.929, 2936.703
1226.411, 2912.319
1226.893, 2890.749
1227.375, 2895.319
1227.857, 2906.583
1228.339, 2915.059
1228.821, 2917.084
1229.303, 2902.714
1229.786, 2877.594
1230.268, 2883.607
1230.750, 2932.988
1231.232, 2936.853
1231.714, 2888.610
1232.196, 2864.335
1232.678, 2880.008
1233.160, 2894.377
1233.642, 2885.824
1234.125, 2870.597
1234.607, 2860.784
1235.089, 2863.062
1235.571, 2901.031
1236.053, 2946.053
1236.535, 2963.358
1237.017, 2955.347
1237.499, 2916.206
1237.982, 2860.991
1238.464, 2839.041
1238.946, 2867.411
1239.428, 2886.533
1239.910, 2875.264
1240.392, 2866.112
1240.874, 2860.379
1241.356, 2865.282
1241.839, 2894.473
1242.321, 2912.106
1242.803, 2879.636
1243.285, 2823.371
1243.767, 2806.010
1244.249, 2821.855
1244.731, 2831.204
1245.213, 2835.200
1245.695, 2839.329
1246.177, 2843.576
1246.660, 2844.112
1247.142, 2840.176
1247.624, 2835.559
1248.106, 2832.048
1248.588, 2829.844
1249.070, 2826.808
1249.552, 2827.937
1250.034, 2843.732
1250.517, 2858.064
1250.999, 2854.420
1251.481, 2840.317
1251.963, 2829.870
1252.445, 2822.926
1252.927, 2814.945
1253.409, 2801.900
1253.891, 2810.908
1254.374, 2845.875
1254.856, 2867.784
1255.338, 2868.085
1255.820, 2857.501
1256.302, 2841.322
1256.784, 2833.837
1257.266, 2854.507
1257.748, 2883.004
1258.230, 2899.170
1258.713, 2900.372
1259.195, 2866.434
1259.677, 2826.318
1260.159, 2825.919
1260.641, 2859.258
1261.123, 2895.765
1261.605, 2932.767
1262.087, 2942.835
1262.569, 2895.420
1263.052, 2872.240
1263.534, 2888.063
##END=



