##NAMES=Faujasite-Mg
##RRUFFID=R080141
##IDEAL CHEMISTRY=(Mg,Na,K,Ca)_2_(Si,Al)_12_O_24_&#183;15H_2_O
##LOCALITY=Limburg Quarries, Sasbach, Kaiserstuhl, Baden-Wurttemberg, Germany
##OWNER=RRUFF
##SOURCE=James Shigley
##DESCRIPTION=Colorless octahedra in basalt vesicles
##STATUS=The identification of this mineral has been confirmed only by single crystal X-ray diffraction.
##URL=rruff.info/R080141
93.78320, 476.8255
94.26532, 474.6434
94.74744, 476.4996
95.22955, 481.2289
95.71167, 487.7596
96.19379, 491.8778
96.67590, 494.6005
97.15802, 495.7476
97.64014, 494.6588
98.12225, 492.1272
98.60437, 489.5273
99.08649, 487.4268
99.56860, 485.6680
100.0507, 483.8319
100.5328, 481.0431
101.0150, 478.2668
101.4971, 476.5075
101.9792, 475.8374
102.4613, 474.9277
102.9434, 472.8370
103.4255, 470.3759
103.9077, 468.0003
104.3898, 465.7570
104.8719, 463.8344
105.3540, 462.6750
105.8361, 462.6320
106.3182, 462.7145
106.8004, 462.7928
107.2825, 462.7916
107.7646, 462.5235
108.2467, 461.8097
108.7288, 460.7075
109.2109, 460.1810
109.6931, 460.8580
110.1752, 461.4413
110.6573, 461.5820
111.1394, 461.3192
111.6215, 460.8595
112.1036, 460.3758
112.5858, 459.8575
113.0679, 459.2627
113.5500, 458.4983
114.0321, 457.7231
114.5142, 457.0028
114.9964, 456.3470
115.4785, 455.8463
115.9606, 455.8033
116.4427, 456.1886
116.9248, 456.1212
117.4069, 454.6997
117.8891, 452.7263
118.3712, 452.0433
118.8533, 453.6491
119.3354, 455.6310
119.8175, 456.0945
120.2996, 455.1640
120.7818, 454.0179
121.2639, 453.5891
121.7460, 453.9120
122.2281, 453.9594
122.7102, 452.9884
123.1923, 452.0636
123.6745, 452.0356
124.1566, 452.9696
124.6387, 453.9121
125.1208, 453.2639
125.6029, 449.7019
126.0850, 447.3658
126.5672, 447.1412
127.0493, 447.7118
127.5314, 448.2005
128.0135, 448.2353
128.4956, 447.7898
128.9777, 446.7649
129.4599, 443.8976
129.9420, 441.8658
130.4241, 441.4373
130.9062, 441.8756
131.3883, 442.1402
131.8705, 441.6840
132.3526, 440.5686
132.8347, 439.1443
133.3168, 437.0038
133.7989, 435.0287
134.2810, 433.6137
134.7632, 432.7040
135.2453, 432.0085
135.7274, 431.4622
136.2095, 430.9630
136.6916, 430.2021
137.1737, 429.1060
137.6559, 427.7724
138.1380, 426.0232
138.6201, 423.6420
139.1022, 421.8724
139.5843, 422.4080
140.0664, 423.9644
140.5486, 424.6827
141.0307, 423.5119
141.5128, 421.0066
141.9949, 418.7783
142.4770, 416.8512
142.9591, 415.2021
143.4413, 413.9055
143.9234, 412.8398
144.4055, 411.7887
144.8876, 410.6337
145.3697, 409.3778
145.8518, 407.9478
146.3340, 406.0704
146.8161, 404.2544
147.2982, 402.6289
147.7803, 401.2007
148.2624, 399.9227
148.7445, 398.7357
149.2267, 397.6275
149.7088, 396.7250
150.1909, 396.3365
150.6730, 395.8663
151.1551, 394.9278
151.6372, 393.4932
152.1194, 391.8465
152.6015, 390.2985
153.0836, 388.8372
153.5657, 387.6129
154.0478, 386.6153
154.5299, 385.8541
155.0121, 385.5456
155.4942, 385.7935
155.9763, 385.9788
156.4584, 385.0659
156.9405, 383.0765
157.4227, 380.7059
157.9048, 377.4342
158.3869, 373.9331
158.8690, 371.8423
159.3511, 372.1384
159.8332, 373.1162
160.3154, 372.6637
160.7975, 370.7799
161.2796, 368.5760
161.7617, 366.6057
162.2438, 364.8582
162.7259, 363.3588
163.2081, 362.2953
163.6902, 361.3454
164.1723, 360.2409
164.6544, 358.9502
165.1365, 357.6996
165.6186, 356.7895
166.1008, 356.3399
166.5829, 355.7092
167.0650, 354.3460
167.5471, 353.0607
168.0292, 352.5317
168.5113, 352.8896
168.9935, 353.5344
169.4756, 353.4386
169.9577, 352.1530
170.4398, 350.9383
170.9219, 350.0327
171.4040, 349.1584
171.8862, 348.0168
172.3683, 346.5098
172.8504, 344.8551
173.3325, 343.5533
173.8146, 342.6070
174.2967, 342.1097
174.7789, 342.6103
175.2610, 343.3804
175.7431, 343.5110
176.2252, 342.5721
176.7073, 340.9027
177.1894, 339.6195
177.6716, 338.8316
178.1537, 338.2294
178.6358, 337.9342
179.1179, 337.7784
179.6000, 337.4486
180.0821, 336.8051
180.5643, 335.8603
181.0464, 334.6387
181.5285, 332.7230
182.0106, 331.1492
182.4927, 330.7370
182.9749, 331.2181
183.4570, 331.3185
183.9391, 330.1550
184.4212, 328.3946
184.9033, 327.5502
185.3854, 328.1505
185.8676, 328.8305
186.3497, 328.3081
186.8318, 326.5450
187.3139, 324.9341
187.7960, 324.2547
188.2781, 324.0001
188.7603, 323.6657
189.2424, 323.1723
189.7245, 322.5349
190.2066, 321.6436
190.6887, 320.3193
191.1708, 319.4051
191.6530, 319.6548
192.1351, 320.2231
192.6172, 320.4001
193.0993, 319.9233
193.5814, 318.9970
194.0635, 317.9488
194.5457, 316.5215
195.0278, 315.5249
195.5099, 315.5602
195.9920, 315.8452
196.4741, 315.5443
196.9562, 314.2617
197.4384, 312.3834
197.9205, 310.9824
198.4026, 310.0322
198.8847, 309.7252
199.3668, 310.7936
199.8489, 312.2259
200.3311, 312.8142
200.8132, 311.9300
201.2953, 309.9777
201.7774, 308.5701
202.2595, 308.1468
202.7416, 307.8246
203.2238, 307.5637
203.7059, 307.3415
204.1880, 307.1245
204.6701, 306.8912
205.1522, 306.6670
205.6344, 306.5739
206.1165, 307.2754
206.5986, 307.3490
207.0807, 305.8315
207.5628, 303.5070
208.0449, 301.8987
208.5271, 301.8888
209.0092, 303.0492
209.4913, 303.6165
209.9734, 303.2207
210.4555, 302.8183
210.9376, 303.0151
211.4198, 303.5139
211.9019, 303.3922
212.3840, 301.9748
212.8661, 299.8173
213.3482, 298.4671
213.8303, 298.0322
214.3125, 298.1243
214.7946, 298.9292
215.2767, 300.2652
215.7588, 301.1124
216.2409, 300.9351
216.7230, 300.0039
217.2052, 298.8574
217.6873, 297.2115
218.1694, 295.9904
218.6515, 296.2348
219.1336, 297.8811
219.6157, 299.2163
220.0979, 299.6050
220.5800, 299.3091
221.0621, 298.4543
221.5442, 296.8703
222.0263, 295.4744
222.5084, 295.4117
222.9906, 296.8344
223.4727, 297.9135
223.9548, 297.8216
224.4369, 297.2987
224.9190, 296.6965
225.4011, 296.0534
225.8833, 295.7223
226.3654, 296.4122
226.8475, 298.4960
227.3296, 299.7733
227.8117, 299.3258
228.2938, 298.2072
228.7760, 296.6590
229.2581, 294.8065
229.7402, 293.3356
230.2223, 293.3468
230.7044, 295.4145
231.1866, 297.1462
231.6687, 298.3102
232.1508, 299.0840
232.6329, 299.3372
233.1150, 299.1399
233.5971, 298.9631
234.0793, 299.6251
234.5614, 301.8538
235.0435, 303.0807
235.5256, 302.5216
236.0077, 301.6415
236.4898, 301.3037
236.9720, 301.6709
237.4541, 302.3833
237.9362, 303.0138
238.4183, 303.7204
238.9004, 303.8901
239.3825, 302.8834
239.8647, 301.9106
240.3468, 301.8585
240.8289, 302.7822
241.3110, 304.0232
241.7931, 304.7777
242.2752, 304.8478
242.7574, 304.9326
243.2395, 305.0873
243.7216, 305.2117
244.2037, 305.1795
244.6858, 305.0073
245.1679, 304.8883
245.6501, 305.0762
246.1322, 305.7310
246.6143, 305.9927
247.0964, 305.7287
247.5785, 305.2216
248.0606, 304.4514
248.5428, 303.5147
249.0249, 302.8539
249.5070, 302.9905
249.9891, 304.1059
250.4712, 304.6796
250.9533, 304.3507
251.4355, 303.8026
251.9176, 303.5182
252.3997, 303.5041
252.8818, 303.4155
253.3639, 302.8956
253.8460, 301.9473
254.3282, 301.4128
254.8103, 301.5070
255.2924, 301.8306
255.7745, 302.0832
256.2566, 302.2761
256.7387, 302.6877
257.2209, 303.6822
257.7030, 305.0814
258.1851, 305.8235
258.6672, 305.3812
259.1493, 304.7060
259.6314, 304.3846
260.1136, 304.4049
260.5957, 304.5929
261.0778, 304.8733
261.5599, 305.2554
262.0420, 305.7224
262.5241, 306.3062
263.0063, 306.9356
263.4884, 307.7264
263.9705, 308.6224
264.4526, 309.0753
264.9347, 308.5400
265.4168, 307.5775
265.8990, 307.2884
266.3811, 307.9098
266.8632, 308.7168
267.3453, 309.2007
267.8275, 309.4018
268.3096, 309.6130
268.7917, 309.8210
269.2738, 310.2178
269.7559, 311.1058
270.2380, 312.6037
270.7202, 313.9778
271.2023, 314.6218
271.6844, 314.6383
272.1665, 314.7900
272.6486, 315.6227
273.1307, 316.2202
273.6129, 315.3298
274.0950, 312.9713
274.5771, 311.2622
275.0592, 312.0543
275.5413, 314.8971
276.0234, 317.1961
276.5056, 318.6216
276.9877, 319.2812
277.4698, 318.9910
277.9519, 317.9764
278.4340, 317.3766
278.9161, 318.3426
279.3983, 320.4171
279.8804, 321.4247
280.3625, 320.5156
280.8446, 319.6563
281.3267, 320.2115
281.8088, 321.7191
282.2910, 323.1082
282.7731, 323.7171
283.2552, 323.7656
283.7373, 323.9557
284.2194, 324.2666
284.7015, 324.7755
285.1837, 325.6284
285.6658, 326.6549
286.1479, 327.6032
286.6300, 328.3336
287.1121, 328.9353
287.5942, 329.6226
288.0764, 330.4641
288.5585, 331.2270
289.0406, 331.6889
289.5227, 332.0904
290.0048, 332.7803
290.4869, 333.9804
290.9691, 335.1943
291.4512, 335.3871
291.9333, 334.0748
292.4154, 333.3003
292.8975, 334.0399
293.3796, 335.2562
293.8618, 336.2608
294.3439, 336.8778
294.8260, 337.2071
295.3081, 337.3066
295.7902, 337.1077
296.2723, 337.0040
296.7545, 337.0602
297.2366, 337.2315
297.7187, 337.5670
298.2008, 338.0395
298.6829, 338.4849
299.1650, 338.7818
299.6472, 338.9458
300.1293, 338.7923
300.6114, 337.8356
301.0935, 336.9680
301.5756, 336.7354
302.0577, 336.9851
302.5399, 337.1364
303.0220, 336.6992
303.5041, 335.7000
303.9862, 334.6779
304.4683, 333.5147
304.9504, 332.4809
305.4326, 331.8409
305.9147, 331.3840
306.3968, 330.7485
306.8789, 329.7522
307.3610, 328.3905
307.8431, 326.5745
308.3253, 323.7610
308.8074, 321.3731
309.2895, 319.9892
309.7716, 319.1158
310.2537, 318.1933
310.7358, 316.9684
311.2180, 315.5733
311.7001, 314.3412
312.1822, 313.4164
312.6643, 312.2956
313.1464, 310.7565
313.6285, 309.0751
314.1107, 307.4257
314.5928, 305.8618
315.0749, 304.3909
315.5570, 303.0563
316.0392, 301.9047
316.5213, 300.7182
317.0034, 299.1811
317.4855, 297.8199
317.9676, 297.1390
318.4497, 297.0625
318.9319, 296.9337
319.4140, 296.0679
319.8961, 294.4033
320.3782, 292.6410
320.8603, 290.3798
321.3424, 288.4293
321.8246, 287.3683
322.3067, 286.8958
322.7888, 286.2221
323.2709, 284.6623
323.7530, 282.3895
324.2351, 280.7547
324.7173, 280.0968
325.1994, 279.6507
325.6815, 279.4971
326.1636, 279.2947
326.6457, 278.4738
327.1278, 276.6444
327.6100, 274.3393
328.0921, 272.8795
328.5742, 272.6035
329.0563, 272.4719
329.5384, 272.5023
330.0205, 272.4096
330.5027, 271.8566
330.9848, 270.7478
331.4669, 269.4650
331.9490, 268.4712
332.4311, 267.7448
332.9132, 267.4095
333.3954, 267.9862
333.8775, 268.6020
334.3596, 268.7787
334.8417, 268.4966
335.3238, 268.0355
335.8059, 267.6379
336.2881, 267.3053
336.7702, 266.8838
337.2523, 265.9307
337.7344, 265.4235
338.2165, 265.9499
338.6986, 267.2392
339.1808, 268.6780
339.6629, 270.0282
340.1450, 271.2052
340.6271, 271.8531
341.1092, 271.7353
341.5913, 271.5229
342.0735, 271.1506
342.5556, 270.9478
343.0377, 271.3920
343.5198, 272.7423
344.0019, 274.5591
344.4840, 276.3038
344.9662, 278.1309
345.4483, 279.2638
345.9304, 278.6759
346.4125, 277.7446
346.8946, 277.3555
347.3767, 277.6508
347.8589, 278.3906
348.3410, 279.6115
348.8231, 281.2925
349.3052, 282.3640
349.7873, 282.3305
350.2694, 282.0172
350.7516, 282.1418
351.2337, 282.5562
351.7158, 282.6026
352.1979, 281.6475
352.6800, 280.0021
353.1621, 278.6854
353.6443, 277.7496
354.1264, 277.0682
354.6085, 276.8462
355.0906, 276.7699
355.5727, 276.3243
356.0548, 275.2784
356.5370, 273.8691
357.0191, 272.3396
357.5012, 270.6853
357.9833, 269.0666
358.4654, 267.5229
358.9475, 266.0810
359.4297, 264.7615
359.9118, 263.5546
360.3939, 262.5110
360.8760, 261.9003
361.3581, 261.5722
361.8402, 260.6809
362.3224, 258.8273
362.8045, 256.6752
363.2866, 254.7935
363.7687, 253.1756
364.2508, 251.9397
364.7329, 251.3964
365.2151, 251.1774
365.6972, 250.6169
366.1793, 249.6027
366.6614, 248.5800
367.1436, 247.9534
367.6257, 247.5874
368.1078, 247.0613
368.5899, 246.2164
369.0720, 245.2775
369.5541, 244.5384
370.0363, 243.9331
370.5184, 242.9344
371.0005, 241.0346
371.4826, 238.8379
371.9647, 237.7604
372.4468, 238.2382
372.9290, 238.5974
373.4111, 237.9723
373.8932, 236.8308
374.3753, 236.0764
374.8574, 235.9755
375.3395, 236.0933
375.8217, 235.8961
376.3038, 235.3522
376.7859, 234.7592
377.2680, 234.0302
377.7501, 233.3373
378.2322, 232.8833
378.7144, 232.6492
379.1965, 232.3900
379.6786, 231.9119
380.1607, 231.2368
380.6428, 230.6301
381.1249, 230.0069
381.6071, 229.5359
382.0892, 229.4187
382.5713, 229.4784
383.0534, 229.3603
383.5355, 228.9011
384.0176, 228.2605
384.4998, 227.7644
384.9819, 227.2634
385.4640, 227.2024
385.9461, 228.3808
386.4282, 229.5153
386.9103, 229.2270
387.3925, 227.4742
387.8746, 225.4814
388.3567, 224.5760
388.8388, 224.9163
389.3209, 225.2349
389.8030, 225.6333
390.2852, 225.9148
390.7673, 226.0685
391.2494, 226.0427
391.7315, 225.6077
392.2136, 224.5637
392.6957, 223.2754
393.1779, 223.2388
393.6600, 226.1513
394.1421, 227.9030
394.6242, 227.5234
395.1063, 226.2586
395.5884, 225.0779
396.0706, 224.2792
396.5527, 223.7822
397.0348, 223.5186
397.5169, 223.5539
397.9990, 223.5637
398.4811, 223.4824
398.9633, 223.4339
399.4454, 223.5173
399.9275, 223.6789
400.4096, 223.7895
400.8917, 223.7733
401.3738, 223.6308
401.8560, 223.3456
402.3381, 222.8415
402.8202, 222.3399
403.3023, 221.7317
403.7844, 221.2398
404.2665, 221.2277
404.7487, 221.8422
405.2308, 222.4683
405.7129, 222.2453
406.1950, 221.1182
406.6771, 220.1405
407.1592, 219.3472
407.6414, 218.9462
408.1235, 219.3199
408.6056, 220.2983
409.0877, 220.9890
409.5698, 220.5172
410.0519, 219.4462
410.5341, 219.2460
411.0162, 220.1968
411.4983, 221.0627
411.9804, 220.9017
412.4625, 220.1991
412.9446, 219.7395
413.4268, 219.6792
413.9089, 219.8271
414.3910, 220.1708
414.8731, 220.6400
415.3553, 220.8442
415.8374, 220.5422
416.3195, 220.1194
416.8016, 220.2710
417.2837, 221.0463
417.7658, 221.4892
418.2480, 221.0061
418.7301, 220.2395
419.2122, 219.9404
419.6943, 220.1798
420.1764, 220.6149
420.6585, 221.0851
421.1407, 221.5317
421.6228, 221.4617
422.1049, 219.9912
422.5870, 219.0138
423.0691, 219.7639
423.5512, 221.4418
424.0334, 222.5825
424.5155, 222.5909
424.9976, 221.9210
425.4797, 221.4097
425.9618, 221.2231
426.4439, 220.8602
426.9261, 219.9238
427.4082, 219.1226
427.8903, 219.0804
428.3724, 219.7189
428.8545, 220.4827
429.3366, 220.9551
429.8188, 221.1344
430.3009, 220.9305
430.7830, 219.4380
431.2651, 218.5778
431.7472, 219.0987
432.2293, 220.2480
432.7115, 221.1890
433.1936, 221.6006
433.6757, 221.6046
434.1578, 221.2238
434.6399, 220.1334
435.1220, 219.8051
435.6042, 221.2885
436.0863, 222.7662
436.5684, 223.3958
437.0505, 223.2414
437.5326, 222.7517
438.0147, 222.0365
438.4969, 221.2753
438.9790, 221.2427
439.4611, 222.3386
439.9432, 223.1501
440.4253, 222.6079
440.9074, 221.7024
441.3896, 221.5710
441.8717, 222.5665
442.3538, 223.6654
442.8359, 223.8400
443.3180, 223.2617
443.8001, 222.9224
444.2823, 223.0013
444.7644, 223.3854
445.2465, 224.0843
445.7286, 225.0315
446.2107, 225.9175
446.6928, 226.5699
447.1750, 227.1833
447.6571, 228.1083
448.1392, 229.2771
448.6213, 230.0137
449.1034, 229.8068
449.5855, 229.0606
450.0677, 228.9333
450.5498, 229.6521
451.0319, 230.3706
451.5140, 230.7255
451.9961, 231.0332
452.4782, 231.7295
452.9604, 232.8800
453.4425, 234.1632
453.9246, 235.2575
454.4067, 236.1437
454.8888, 237.0324
455.3709, 237.7995
455.8531, 238.6955
456.3352, 239.8860
456.8173, 241.2503
457.2994, 242.6038
457.7815, 243.8571
458.2636, 245.0439
458.7458, 246.2165
459.2279, 247.2444
459.7100, 248.5549
460.1921, 250.5002
460.6742, 252.4099
461.1563, 253.7167
461.6385, 254.5771
462.1206, 255.6501
462.6027, 257.5027
463.0848, 259.9766
463.5669, 262.2714
464.0491, 264.3576
464.5312, 266.2822
465.0133, 268.1217
465.4954, 269.7783
465.9775, 271.0238
466.4597, 271.7737
466.9418, 272.6306
467.4239, 274.1945
467.9060, 276.3925
468.3881, 278.8173
468.8702, 281.5959
469.3524, 284.2478
469.8345, 286.1023
470.3166, 287.4673
470.7987, 289.2343
471.2808, 291.9864
471.7629, 294.9563
472.2451, 297.4757
472.7272, 299.6012
473.2093, 301.5457
473.6914, 303.2883
474.1735, 305.0953
474.6556, 307.6538
475.1378, 311.3248
475.6199, 314.4164
476.1020, 316.3736
476.5841, 317.8615
477.0662, 319.2270
477.5483, 320.6251
478.0305, 322.5217
478.5126, 325.3620
478.9947, 328.9825
479.4768, 331.8416
479.9589, 333.1071
480.4410, 334.6506
480.9232, 337.0370
481.4053, 339.6453
481.8874, 341.7375
482.3695, 343.1826
482.8516, 344.4706
483.3337, 346.1030
483.8159, 348.0416
484.2980, 350.6785
484.7801, 354.6241
485.2622, 358.6105
485.7443, 362.3945
486.2264, 365.8690
486.7086, 368.7494
487.1907, 370.7593
487.6728, 372.7160
488.1549, 375.8741
488.6370, 380.2874
489.1191, 385.0867
489.6013, 390.1428
490.0834, 395.5161
490.5655, 401.5032
491.0476, 407.9701
491.5297, 413.9035
492.0118, 418.5411
492.4940, 422.6380
492.9761, 426.8235
493.4582, 431.1779
493.9403, 436.5015
494.4224, 443.6351
494.9045, 451.6187
495.3867, 457.7837
495.8688, 461.4450
496.3509, 465.4373
496.8330, 470.4940
497.3151, 476.1653
497.7972, 482.5503
498.2794, 489.3474
498.7615, 494.9520
499.2436, 497.7586
499.7257, 497.9515
500.2078, 499.1227
500.6899, 502.8715
501.1721, 505.6569
501.6542, 506.6311
502.1363, 506.4969
502.6184, 506.0889
503.1005, 505.6068
503.5826, 504.5875
504.0648, 502.2443
504.5469, 498.3940
505.0290, 495.1237
505.5111, 493.0617
505.9932, 490.7918
506.4753, 488.1054
506.9575, 484.7945
507.4396, 480.4482
507.9217, 474.7770
508.4038, 468.5190
508.8859, 462.5775
509.3680, 456.9178
509.8502, 451.1311
510.3323, 445.0328
510.8144, 438.9091
511.2965, 433.3362
511.7786, 428.1430
512.2607, 421.9689
512.7429, 413.6845
513.2250, 404.9328
513.7071, 397.1030
514.1892, 390.0247
514.6713, 382.6261
515.1534, 374.2852
515.6356, 365.6925
516.1177, 358.2460
516.5998, 352.4737
517.0819, 346.5638
517.5640, 340.5895
518.0461, 334.3691
518.5283, 327.5070
519.0104, 320.2340
519.4925, 313.3079
519.9746, 307.2242
520.4567, 301.8388
520.9388, 296.6375
521.4210, 291.6775
521.9031, 286.8023
522.3852, 281.9664
522.8673, 277.1985
523.3494, 272.4239
523.8315, 267.7119
524.3137, 263.3536
524.7958, 259.7741
525.2779, 256.7278
525.7600, 253.3290
526.2421, 249.4130
526.7242, 245.7881
527.2064, 242.9660
527.6885, 240.5677
528.1706, 238.0646
528.6527, 235.3791
529.1348, 232.8750
529.6169, 231.0321
530.0991, 229.3780
530.5812, 226.9395
531.0633, 223.6167
531.5454, 220.4417
532.0275, 218.1814
532.5096, 216.7218
532.9918, 215.3280
533.4739, 214.0997
533.9560, 212.8088
534.4381, 211.4504
534.9202, 209.9847
535.4023, 208.2110
535.8845, 206.1853
536.3666, 204.3707
536.8487, 203.2947
537.3308, 202.9517
537.8129, 202.4469
538.2951, 201.6436
538.7772, 200.8476
539.2593, 200.2625
539.7415, 199.6531
540.2236, 198.7003
540.7057, 197.3357
541.1878, 195.9251
541.6699, 194.7739
542.1520, 193.8832
542.6342, 193.3794
543.1163, 193.5716
543.5984, 193.4095
544.0805, 191.5815
544.5626, 189.0566
545.0447, 187.7518
545.5269, 188.5266
546.0090, 189.3899
546.4911, 189.1619
546.9732, 188.2214
547.4553, 187.1574
547.9374, 186.0867
548.4196, 185.3267
548.9017, 185.2439
549.3838, 185.8569
549.8659, 186.2615
550.3480, 186.8441
550.8301, 186.8093
551.3123, 185.3366
551.7944, 183.3940
552.2765, 182.1889
552.7586, 182.0235
553.2407, 182.2988
553.7228, 182.3565
554.2050, 182.1922
554.6871, 181.8839
555.1692, 181.3945
555.6513, 180.8031
556.1334, 179.9385
556.6155, 179.0840
557.0977, 178.6451
557.5798, 178.7646
558.0619, 179.0304
558.5440, 179.1998
559.0261, 179.2235
559.5082, 178.7443
559.9904, 177.5356
560.4725, 176.6678
560.9546, 177.3487
561.4367, 179.1193
561.9188, 179.6393
562.4009, 177.9586
562.8831, 176.1932
563.3652, 174.7009
563.8473, 173.7617
564.3294, 174.1634
564.8115, 175.9017
565.2936, 177.5247
565.7758, 177.4951
566.2579, 175.8057
566.7400, 174.6751
567.2221, 174.7134
567.7042, 174.5961
568.1863, 173.9212
568.6685, 173.0896
569.1506, 172.4599
569.6327, 172.1325
570.1148, 172.0846
570.5969, 172.5218
571.0790, 173.3021
571.5612, 173.4265
572.0433, 172.6446
572.5254, 171.8941
573.0075, 171.7272
573.4896, 171.8527
573.9717, 171.8604
574.4539, 171.7317
574.9360, 171.4447
575.4181, 170.7980
575.9002, 170.0755
576.3823, 169.7315
576.8644, 169.7876
577.3466, 169.8712
577.8287, 169.6982
578.3108, 169.3514
578.7929, 169.2387
579.2750, 169.6228
579.7571, 169.9018
580.2393, 170.2419
580.7214, 170.3210
581.2035, 169.6440
581.6856, 168.3837
582.1677, 167.3017
582.6498, 166.9824
583.1320, 167.2672
583.6141, 167.6978
584.0962, 168.3967
584.5783, 168.8184
585.0604, 168.6167
585.5425, 168.2257
586.0247, 167.9984
586.5068, 167.9375
586.9889, 167.8983
587.4710, 167.8270
587.9531, 167.7403
588.4352, 167.7854
588.9174, 167.8866
589.3995, 167.5066
589.8816, 166.2895
590.3637, 164.8484
590.8458, 164.2614
591.3279, 164.8940
591.8101, 165.4064
592.2922, 165.8456
592.7743, 166.1214
593.2564, 166.1200
593.7385, 165.9293
594.2206, 165.7243
594.7028, 165.5864
595.1849, 165.4198
595.6670, 164.9785
596.1491, 164.1755
596.6312, 163.7661
597.1133, 164.0332
597.5955, 164.4019
598.0776, 164.5568
598.5597, 164.5854
599.0418, 164.6775
599.5239, 164.9610
600.0060, 165.1421
600.4882, 164.9079
600.9703, 164.4026
601.4524, 163.9391
601.9345, 163.5729
602.4166, 163.3521
602.8987, 163.3274
603.3809, 163.4921
603.8630, 163.7637
604.3451, 164.5584
604.8272, 164.9123
605.3093, 164.3917
605.7914, 163.5042
606.2736, 162.5849
606.7557, 161.7816
607.2378, 161.3105
607.7199, 161.4415
608.2020, 162.0186
608.6841, 162.2344
609.1663, 161.9378
609.6484, 161.7167
610.1305, 161.7990
610.6126, 161.9952
611.0947, 162.1680
611.5768, 162.3096
612.0590, 162.4151
612.5411, 162.3386
613.0232, 162.3265
613.5053, 162.9856
613.9874, 164.0663
614.4695, 164.2620
614.9517, 162.9114
615.4338, 160.9430
615.9159, 159.8693
616.3980, 159.9895
616.8801, 160.0322
617.3622, 159.9635
617.8444, 159.8615
618.3265, 159.7013
618.8086, 159.5466
619.2907, 159.5066
619.7728, 159.6182
620.2549, 159.7776
620.7371, 159.9689
621.2192, 160.1720
621.7013, 159.7855
622.1834, 158.4680
622.6655, 157.2700
623.1476, 156.9222
623.6298, 157.0520
624.1119, 157.0500
624.5940, 156.7751
625.0761, 156.6399
625.5582, 157.0449
626.0403, 157.5789
626.5225, 157.7098
627.0046, 157.4187
627.4867, 156.9368
627.9688, 156.3577
628.4509, 155.8214
628.9330, 155.8163
629.4152, 156.8696
629.8973, 157.4927
630.3794, 157.4350
630.8615, 157.1902
631.3436, 156.9572
631.8257, 156.7720
632.3079, 156.6599
632.7900, 156.6607
633.2721, 156.6624
633.7542, 156.4105
634.2363, 155.9577
634.7184, 155.8593
635.2006, 156.3386
635.6827, 156.8375
636.1648, 156.8212
636.6469, 156.3590
637.1291, 156.0795
637.6112, 156.0866
638.0933, 156.1563
638.5754, 156.0194
639.0576, 156.0158
639.5397, 156.8113
640.0218, 158.3065
640.5039, 159.4893
640.9860, 159.4863
641.4681, 158.5300
641.9503, 157.7384
642.4324, 157.0735
642.9145, 156.6677
643.3966, 156.6910
643.8787, 156.8797
644.3608, 157.1910
644.8430, 157.5504
645.3251, 157.6625
645.8072, 157.2715
646.2893, 156.7011
646.7714, 156.1657
647.2535, 155.7168
647.7357, 155.6381
648.2178, 156.0459
648.6999, 156.3838
649.1820, 155.9243
649.6641, 154.5922
650.1462, 154.0335
650.6284, 155.2707
651.1105, 155.9661
651.5926, 155.1641
652.0747, 153.8967
652.5568, 153.2349
653.0389, 153.2942
653.5211, 153.4150
654.0032, 152.9110
654.4853, 152.1407
654.9674, 152.2996
655.4495, 153.5018
655.9316, 154.3124
656.4138, 154.1196
656.8959, 153.4849
657.3780, 153.0830
657.8601, 152.9031
658.3422, 152.7894
658.8243, 152.7861
659.3065, 152.7789
659.7886, 152.6540
660.2707, 152.4996
660.7528, 152.5599
661.2349, 152.8648
661.7170, 153.0063
662.1992, 152.4016
662.6813, 151.1073
663.1634, 150.5533
663.6455, 151.1994
664.1276, 151.6702
664.6097, 151.3614
665.0919, 150.7881
665.5740, 150.3912
666.0561, 150.1935
666.5382, 149.9432
667.0203, 149.3756
667.5024, 148.8110
667.9846, 148.5987
668.4667, 148.6898
668.9488, 148.9348
669.4309, 149.2928
669.9130, 149.6125
670.3951, 149.6897
670.8773, 149.5036
671.3594, 149.2530
671.8415, 148.7819
672.3236, 148.4345
672.8057, 148.3652
673.2878, 148.4098
673.7700, 148.4896
674.2521, 148.5507
674.7342, 148.3640
675.2163, 147.4117
675.6984, 146.2155
676.1805, 145.9757
676.6627, 146.6587
677.1448, 147.3333
677.6269, 147.7171
678.1090, 147.7922
678.5911, 147.4697
679.0732, 146.6414
679.5554, 146.0108
680.0375, 145.5242
680.5196, 145.2853
681.0017, 145.4675
681.4838, 145.8553
681.9659, 146.2827
682.4481, 146.6600
682.9302, 146.7847
683.4123, 146.3409
683.8944, 145.5121
684.3765, 145.1032
684.8586, 145.2187
685.3408, 145.1170
685.8229, 144.4048
686.3050, 143.5244
686.7871, 142.9852
687.2692, 142.7705
687.7513, 142.8293
688.2335, 143.5220
688.7156, 144.0966
689.1977, 144.1152
689.6798, 143.7621
690.1619, 143.2883
690.6440, 142.7807
691.1262, 142.2598
691.6083, 141.6739
692.0904, 141.1002
692.5725, 141.2097
693.0546, 142.3615
693.5367, 143.1306
694.0189, 142.7474
694.5010, 142.1521
694.9831, 142.2992
695.4652, 143.0853
695.9473, 143.5984
696.4294, 143.5169
696.9116, 143.1360
697.3937, 142.2544
697.8758, 141.3298
698.3579, 141.4311
698.8400, 142.6950
699.3221, 143.9713
699.8043, 144.1505
700.2864, 143.3631
700.7685, 142.5514
701.2506, 141.5157
701.7327, 140.8785
702.2148, 141.0962
702.6970, 141.4825
703.1791, 141.7366
703.6612, 141.7965
704.1433, 141.5167
704.6254, 140.5706
705.1075, 139.6306
705.5897, 139.2234
706.0718, 139.2341
706.5539, 139.5972
707.0360, 140.2503
707.5181, 140.5976
708.0002, 140.0598
708.4824, 138.9095
708.9645, 138.5556
709.4466, 139.5477
709.9287, 140.2907
710.4108, 140.6082
710.8929, 140.6898
711.3751, 140.4864
711.8572, 140.1388
712.3393, 139.9797
712.8214, 140.1859
713.3035, 140.4564
713.7856, 140.6115
714.2678, 140.6203
714.7499, 140.3252
715.2320, 139.7329
715.7141, 139.2209
716.1962, 139.0429
716.6783, 139.1178
717.1605, 139.2167
717.6426, 139.4019
718.1247, 139.4870
718.6068, 139.4608
719.0889, 139.3521
719.5710, 139.0219
720.0532, 138.6619
720.5353, 138.6766
721.0174, 139.2438
721.4995, 139.6877
721.9816, 139.3216
722.4637, 138.4994
722.9459, 137.8377
723.4280, 137.3928
723.9101, 137.2257
724.3922, 137.3904
724.8743, 137.7668
725.3564, 138.1611
725.8386, 138.6674
726.3207, 138.8489
726.8028, 138.6105
727.2849, 138.1662
727.7670, 137.2196
728.2491, 136.2859
728.7313, 136.0375
729.2134, 136.5735
729.6955, 137.2927
730.1776, 137.9844
730.6597, 138.4854
731.1418, 138.4045
731.6240, 137.8427
732.1061, 137.4227
732.5882, 137.3837
733.0703, 137.3721
733.5524, 136.8968
734.0345, 135.9183
734.5167, 135.4430
734.9988, 135.8579
735.4809, 136.2914
735.9631, 136.7016
736.4452, 137.0130
736.9273, 137.1712
737.4094, 137.1731
737.8915, 137.0530
738.3737, 136.8774
738.8558, 136.5228
739.3379, 135.5316
739.8200, 134.2463
740.3021, 133.8277
740.7842, 134.5029
741.2664, 135.3990
741.7485, 135.8518
742.2306, 135.9190
742.7127, 135.8624
743.1948, 135.5020
743.6769, 135.3480
744.1591, 135.6692
744.6412, 135.9517
745.1233, 135.7584
745.6054, 135.3565
746.0875, 135.3896
746.5696, 136.1853
747.0518, 136.8865
747.5339, 136.6413
748.0160, 135.9474
748.4981, 135.7399
748.9802, 135.9997
749.4623, 135.9706
749.9445, 135.2167
750.4266, 134.2547
750.9087, 134.0963
751.3908, 134.9901
751.8729, 135.5072
752.3550, 135.4153
752.8372, 135.2493
753.3193, 135.1284
753.8014, 135.0543
754.2835, 135.0186
754.7656, 135.0216
755.2477, 135.0995
755.7299, 135.4686
756.2120, 135.7510
756.6941, 135.4610
757.1762, 134.8118
757.6583, 134.2901
758.1404, 134.0384
758.6226, 134.0272
759.1047, 134.2871
759.5868, 134.7351
760.0689, 134.7814
760.5510, 134.2944
761.0331, 133.7373
761.5153, 132.8459
761.9974, 132.2749
762.4795, 132.7192
762.9616, 133.8637
763.4437, 134.6952
763.9258, 134.9680
764.4080, 134.9723
764.8901, 134.6908
765.3722, 134.3109
765.8543, 134.0290
766.3364, 133.8581
766.8185, 133.7110
767.3007, 133.5326
767.7828, 133.4469
768.2649, 133.7914
768.7470, 134.5943
769.2291, 134.9428
769.7112, 134.6632
770.1934, 134.2788
770.6755, 133.9152
771.1576, 133.6758
771.6397, 133.8385
772.1218, 134.5141
772.6039, 134.7873
773.0861, 134.0281
773.5682, 133.3547
774.0503, 133.4979
774.5324, 134.0332
775.0145, 134.4287
775.4966, 134.5238
775.9788, 134.2864
776.4609, 133.5625
776.9430, 132.6113
777.4251, 131.9520
777.9072, 131.5932
778.3893, 131.9025
778.8715, 133.1719
779.3536, 134.3634
779.8357, 134.5367
780.3178, 133.8324
780.7999, 133.2138
781.2820, 132.4317
781.7642, 132.0907
782.2463, 132.5889
782.7284, 133.1868
783.2105, 133.4827
783.6926, 133.5041
784.1747, 133.3600
784.6569, 133.0686
785.1390, 132.7861
785.6211, 132.6744
786.1032, 132.6580
786.5853, 132.5832
787.0674, 132.4519
787.5496, 132.3693
788.0317, 132.3919
788.5138, 132.3923
788.9959, 132.1460
789.4780, 131.6123
789.9601, 131.4473
790.4423, 132.0503
790.9244, 132.3785
791.4065, 131.7894
791.8886, 131.1518
792.3707, 131.3213
792.8528, 132.1534
793.3350, 132.6438
793.8171, 132.2482
794.2992, 131.7256
794.7813, 131.4601
795.2634, 131.3988
795.7455, 131.5900
796.2277, 131.9418
796.7098, 132.0750
797.1919, 131.7389
797.6740, 131.2044
798.1561, 131.0362
798.6382, 131.2532
799.1204, 131.2720
799.6025, 130.9396
800.0846, 130.7836
800.5667, 131.3078
801.0488, 131.9926
801.5309, 131.6779
802.0131, 130.0878
802.4952, 129.3643
802.9773, 130.6449
803.4594, 131.7314
803.9415, 131.3867
804.4236, 130.4977
804.9058, 130.1484
805.3879, 130.4758
805.8700, 130.9357
806.3521, 131.1619
806.8342, 131.3257
807.3163, 131.8074
807.7985, 132.4751
808.2806, 132.7161
808.7627, 132.4157
809.2448, 131.9917
809.7269, 131.7349
810.2090, 131.5798
810.6912, 131.3286
811.1733, 130.9787
811.6554, 130.5372
812.1375, 129.8654
812.6196, 129.2609
813.1017, 128.6703
813.5839, 128.2912
814.0660, 128.5867
814.5481, 129.6492
815.0302, 130.2513
815.5123, 129.4467
815.9944, 128.3836
816.4766, 127.9527
816.9587, 127.9363
817.4408, 127.9058
817.9229, 127.7650
818.4050, 127.6796
818.8871, 127.8205
819.3693, 128.0532
819.8514, 127.8986
820.3335, 127.3228
820.8156, 127.2942
821.2977, 128.1859
821.7798, 128.9409
822.2620, 128.7870
822.7441, 128.0101
823.2262, 127.4234
823.7083, 126.9518
824.1904, 126.8423
824.6725, 127.4730
825.1547, 128.0557
825.6368, 128.1415
826.1189, 128.0102
826.6010, 127.9980
827.0831, 128.1875
827.5652, 128.5882
828.0474, 129.5259
828.5295, 130.4292
829.0116, 130.3727
829.4937, 129.7562
829.9758, 129.7065
830.4579, 130.4216
830.9401, 131.1462
831.4222, 131.2822
831.9043, 131.0426
832.3864, 131.0973
832.8685, 131.5384
833.3506, 131.8107
833.8328, 131.8595
834.3149, 131.7530
834.7971, 131.3812
835.2792, 130.9444
835.7613, 130.8636
836.2434, 131.2484
836.7255, 131.3675
837.2076, 131.0359
837.6898, 130.4907
838.1719, 129.5671
838.6540, 128.6560
839.1361, 128.3312
839.6182, 128.5690
840.1003, 128.7299
840.5825, 128.3522
841.0646, 127.7881
841.5467, 127.6390
842.0288, 127.7020
842.5109, 127.2341
842.9930, 126.1606
843.4752, 125.1124
843.9573, 124.4722
844.4394, 124.1168
844.9215, 123.7863
845.4036, 123.4359
845.8857, 123.3672
846.3679, 123.8585
846.8500, 124.1349
847.3321, 123.7258
847.8142, 123.0968
848.2963, 122.7248
848.7784, 122.6079
849.2606, 122.5217
849.7427, 122.4734
850.2248, 122.3897
850.7069, 122.1993
851.1890, 121.9909
851.6711, 121.7523
852.1533, 121.5793
852.6354, 121.7764
853.1175, 122.5455
853.5996, 123.3316
854.0817, 123.4838
854.5638, 123.1669
855.0460, 122.7337
855.5281, 122.2273
856.0102, 121.8458
856.4923, 121.6797
856.9744, 121.5475
857.4565, 121.1981
857.9387, 120.6432
858.4208, 120.2565
858.9029, 120.0544
859.3850, 119.9933
859.8671, 120.2883
860.3492, 120.4760
860.8314, 119.9639
861.3135, 119.0947
861.7956, 118.8740
862.2777, 119.8217
862.7598, 120.4207
863.2419, 119.9816
863.7241, 119.3638
864.2062, 119.0886
864.6883, 119.0687
865.1704, 119.0965
865.6525, 119.1127
866.1346, 119.1501
866.6168, 119.2697
867.0989, 119.3985
867.5810, 119.4272
868.0631, 119.3658
868.5452, 119.2322
869.0273, 119.0333
869.5095, 118.8448
869.9916, 118.7432
870.4737, 118.6203
870.9558, 118.1145
871.4379, 117.0860
871.9200, 116.4913
872.4022, 116.5477
872.8843, 116.6183
873.3664, 116.3465
873.8485, 115.9981
874.3306, 116.0511
874.8127, 116.5293
875.2949, 116.7012
875.7770, 116.1420
876.2591, 115.7616
876.7412, 116.0024
877.2233, 116.3845
877.7054, 116.4798
878.1876, 116.3379
878.6697, 116.2343
879.1518, 116.2884
879.6339, 116.3516
880.1160, 116.3551
880.5981, 116.2662
881.0803, 115.9794
881.5624, 115.5548
882.0445, 115.1516
882.5266, 114.8356
883.0087, 114.7035
883.4908, 114.9382
883.9730, 115.3739
884.4551, 115.2040
884.9372, 114.3667
885.4193, 114.1404
885.9014, 114.9845
886.3835, 115.6014
886.8657, 114.8681
887.3478, 113.4329
887.8299, 113.1313
888.3120, 114.5799
888.7941, 115.5138
889.2762, 115.8167
889.7584, 115.7511
890.2405, 115.1358
890.7226, 114.3650
891.2047, 113.7588
891.6868, 113.3646
892.1689, 113.2415
892.6511, 113.7000
893.1332, 114.0471
893.6153, 113.8448
894.0974, 113.4189
894.5795, 113.0683
895.0616, 112.8180
895.5438, 112.6303
896.0259, 112.4878
896.5080, 112.3102
896.9901, 111.9049
897.4722, 111.4383
897.9543, 111.3402
898.4365, 111.5635
898.9186, 111.8849
899.4007, 112.2432
899.8828, 112.3181
900.3649, 111.7387
900.8470, 110.8042
901.3292, 110.6880
901.8113, 111.6223
902.2934, 112.2055
902.7755, 112.2024
903.2576, 112.1405
903.7397, 112.2933
904.2219, 112.5328
904.7040, 112.7309
905.1861, 112.9444
905.6682, 112.6535
906.1503, 111.2124
906.6324, 110.1104
907.1146, 109.8968
907.5967, 109.9960
908.0788, 109.9016
908.5609, 109.7128
909.0430, 109.8992
909.5251, 110.7567
910.0073, 111.3896
910.4894, 110.9640
910.9715, 110.3258
911.4536, 110.5053
911.9357, 111.0926
912.4178, 111.0710
912.9000, 110.2494
913.3821, 109.3477
913.8642, 108.8823
914.3463, 108.8135
914.8284, 109.3081
915.3105, 110.1700
915.7927, 110.3931
916.2748, 109.8631
916.7569, 109.4071
917.2390, 109.4813
917.7211, 109.8508
918.2032, 110.1060
918.6854, 110.2310
919.1675, 110.7417
919.6496, 111.9097
920.1317, 112.6151
920.6138, 112.5098
921.0959, 111.9318
921.5781, 110.9105
922.0602, 109.6377
922.5423, 109.0919
923.0244, 109.8690
923.5065, 110.2240
923.9886, 109.7554
924.4708, 109.2309
924.9529, 108.8358
925.4350, 108.6643
925.9171, 108.9850
926.3992, 109.7450
926.8813, 110.1619
927.3635, 109.6026
927.8456, 109.0101
928.3277, 108.9541
928.8098, 109.1275
929.2919, 109.3128
929.7740, 109.3992
930.2562, 109.1059
930.7383, 108.3227
931.2204, 107.7379
931.7025, 108.3602
932.1846, 109.4671
932.6667, 109.5551
933.1489, 108.9083
933.6310, 108.6887
934.1132, 109.1361
934.5953, 109.6656
935.0774, 109.8481
935.5595, 109.7925
936.0416, 109.7410
936.5237, 109.6941
937.0059, 109.5660
937.4880, 109.3402
937.9701, 109.0809
938.4522, 108.7541
938.9343, 108.5679
939.4164, 108.8878
939.8986, 109.6479
940.3807, 109.6178
940.8628, 108.0123
941.3449, 107.1828
941.8270, 108.0437
942.3091, 108.9046
942.7913, 108.7509
943.2734, 108.0872
943.7555, 107.6897
944.2376, 107.6167
944.7197, 107.6503
945.2018, 108.0799
945.6840, 108.2028
946.1661, 107.2522
946.6482, 106.2816
947.1303, 106.4459
947.6124, 107.4437
948.0945, 108.1387
948.5767, 108.1227
949.0588, 107.9064
949.5409, 107.6794
950.0230, 107.5165
950.5051, 107.5655
950.9872, 107.7076
951.4694, 107.7107
951.9515, 107.5402
952.4336, 107.3196
952.9157, 107.1151
953.3978, 106.9601
953.8799, 106.9858
954.3621, 107.0829
954.8442, 106.9274
955.3263, 106.5251
955.8084, 106.0718
956.2905, 105.6457
956.7726, 105.2787
957.2548, 104.9571
957.7369, 104.7636
958.2190, 105.2189
958.7011, 106.3783
959.1832, 106.9337
959.6653, 106.5544
960.1475, 106.3211
960.6296, 106.9743
961.1117, 107.9247
961.5938, 108.0358
962.0759, 107.1833
962.5580, 106.7117
963.0402, 106.8113
963.5223, 106.8891
964.0044, 106.7401
964.4865, 106.6322
964.9686, 107.0325
965.4507, 107.6100
965.9329, 107.2061
966.4150, 105.0346
966.8971, 104.0143
967.3792, 105.3962
967.8613, 106.6680
968.3434, 106.8866
968.8256, 106.5833
969.3077, 106.1433
969.7898, 105.6863
970.2719, 105.4774
970.7540, 105.6482
971.2361, 105.9422
971.7183, 106.5407
972.2004, 106.9458
972.6825, 106.5133
973.1646, 105.7303
973.6467, 105.4098
974.1288, 105.6789
974.6110, 106.0399
975.0931, 106.1474
975.5752, 106.3223
976.0573, 107.0968
976.5394, 107.9951
977.0215, 108.2807
977.5037, 108.0191
977.9858, 107.5809
978.4679, 107.1231
978.9500, 106.7894
979.4321, 106.7927
979.9142, 106.9436
980.3964, 106.8352
980.8785, 106.5443
981.3606, 106.3317
981.8427, 106.2399
982.3248, 106.2599
982.8069, 106.3899
983.2891, 106.5798
983.7712, 106.7395
984.2533, 106.8915
984.7354, 107.3123
985.2175, 108.0215
985.6996, 108.2158
986.1818, 107.6431
986.6639, 107.0794
987.1460, 107.0940
987.6281, 107.4294
988.1102, 107.4906
988.5923, 107.2242
989.0745, 107.0871
989.5566, 107.1118
990.0387, 107.1859
990.5208, 107.3649
991.0029, 107.4147
991.4850, 106.9792
991.9672, 106.2858
992.4493, 106.2678
992.9314, 107.4895
993.4135, 108.0212
993.8956, 107.2537
994.3777, 106.6125
994.8599, 106.6268
995.3420, 106.8956
995.8241, 107.0971
996.3062, 107.2293
996.7883, 107.3320
997.2704, 107.5075
997.7526, 107.4755
998.2347, 106.7891
998.7168, 106.3479
999.1989, 106.9600
999.6810, 107.8451
1000.163, 107.9580
1000.645, 107.2995
1001.127, 106.7412
1001.609, 106.4620
1002.092, 106.4559
1002.574, 107.1007
1003.056, 107.6534
1003.538, 107.3880
1004.020, 106.6726
1004.502, 106.0685
1004.984, 105.7300
1005.466, 105.7468
1005.949, 106.3162
1006.431, 107.0454
1006.913, 107.9492
1007.395, 108.6315
1007.877, 108.3855
1008.359, 107.5541
1008.841, 107.0339
1009.323, 107.0857
1009.805, 107.2803
1010.288, 107.2256
1010.770, 107.2159
1011.252, 107.7900
1011.734, 108.5826
1012.216, 108.9241
1012.698, 108.8095
1013.180, 108.4972
1013.662, 108.1082
1014.145, 107.8132
1014.627, 107.8248
1015.109, 108.0148
1015.591, 108.1441
1016.073, 108.2300
1016.555, 108.3865
1017.037, 108.5899
1017.519, 108.5447
1018.001, 108.0980
1018.484, 107.5471
1018.966, 107.2081
1019.448, 107.1150
1019.930, 107.6256
1020.412, 108.6164
1020.894, 108.8179
1021.376, 108.0262
1021.858, 107.4291
1022.341, 107.7440
1022.823, 108.3670
1023.305, 108.3296
1023.787, 107.6987
1024.269, 107.0563
1024.751, 106.3826
1025.233, 106.0785
1025.715, 106.2450
1026.198, 106.6736
1026.680, 107.2950
1027.162, 107.9194
1027.644, 108.1856
1028.126, 108.0902
1028.608, 107.7729
1029.090, 107.1630
1029.572, 106.6930
1030.054, 106.4986
1030.536, 106.3117
1031.019, 105.8741
1031.501, 105.4297
1031.983, 105.5799
1032.465, 106.4732
1032.947, 106.7241
1033.429, 105.9742
1033.911, 105.5526
1034.393, 105.9825
1034.876, 106.3622
1035.358, 105.8815
1035.840, 105.0101
1036.322, 104.8962
1036.804, 105.7100
1037.286, 106.4816
1037.768, 107.3808
1038.250, 107.9181
1038.733, 107.7444
1039.215, 107.4762
1039.697, 107.6434
1040.179, 108.0176
1040.661, 107.9893
1041.143, 107.4074
1041.625, 106.9856
1042.107, 106.6080
1042.589, 106.5535
1043.072, 107.1563
1043.554, 107.8328
1044.036, 108.2841
1044.518, 108.4808
1045.000, 108.3399
1045.482, 107.7986
1045.964, 107.1708
1046.446, 105.9482
1046.928, 105.3574
1047.411, 106.2129
1047.893, 107.3371
1048.375, 108.1986
1048.857, 108.5860
1049.339, 107.8172
1049.821, 105.3523
1050.303, 104.2167
1050.785, 106.2953
1051.268, 107.8844
1051.750, 107.2028
1052.232, 106.1374
1052.714, 106.2536
1053.196, 107.1480
1053.678, 107.7440
1054.160, 107.8556
1054.642, 107.8735
1055.125, 107.7517
1055.607, 107.7289
1056.089, 108.1301
1056.571, 108.4513
1057.053, 108.0531
1057.535, 107.3179
1058.017, 107.2445
1058.499, 108.1154
1058.981, 108.4291
1059.464, 106.8566
1059.946, 105.7767
1060.428, 106.6099
1060.910, 107.9268
1061.392, 108.6160
1061.874, 108.8008
1062.356, 108.9645
1062.838, 109.2063
1063.320, 109.2761
1063.803, 109.0586
1064.285, 108.6853
1064.767, 107.9327
1065.249, 107.3041
1065.731, 107.4443
1066.213, 107.9611
1066.695, 107.9422
1067.177, 107.2240
1067.660, 106.8531
1068.142, 107.4928
1068.624, 108.2498
1069.106, 108.8763
1069.588, 109.2882
1070.070, 109.1587
1070.552, 108.8715
1071.034, 109.2737
1071.516, 110.4478
1071.999, 111.1741
1072.481, 110.3900
1072.963, 109.7809
1073.445, 110.5844
1073.927, 111.4435
1074.409, 110.9646
1074.891, 109.8762
1075.373, 109.5294
1075.855, 110.0859
1076.338, 110.5923
1076.820, 110.4406
1077.302, 110.5401
1077.784, 112.0413
1078.266, 113.2554
1078.748, 112.2604
1079.230, 110.4100
1079.712, 110.0654
1080.195, 111.2691
1080.677, 111.8656
1081.159, 110.6083
1081.641, 109.5612
1082.123, 109.8024
1082.605, 110.4979
1083.087, 111.3293
1083.569, 112.0602
1084.052, 112.3381
1084.534, 112.2422
1085.016, 112.3523
1085.498, 113.0649
1085.980, 113.4018
1086.462, 112.4676
1086.944, 111.5334
1087.426, 111.5303
1087.908, 111.9246
1088.391, 112.1398
1088.873, 112.1063
1089.355, 111.8729
1089.837, 111.3963
1090.319, 110.9786
1090.801, 110.6578
1091.283, 110.5281
1091.765, 110.8135
1092.248, 111.1810
1092.730, 111.3424
1093.212, 111.2846
1093.694, 111.0353
1094.176, 110.5689
1094.658, 110.1758
1095.140, 109.7794
1095.622, 109.7075
1096.104, 110.3733
1096.587, 111.1875
1097.069, 111.7651
1097.551, 112.0512
1098.033, 111.9445
1098.515, 111.4098
1098.997, 111.0398
1099.479, 111.2005
1099.961, 111.2844
1100.443, 110.9074
1100.926, 110.5640
1101.408, 110.8323
1101.890, 111.2614
1102.372, 110.9692
1102.854, 109.9188
1103.336, 109.2940
1103.818, 109.7258
1104.300, 110.0633
1104.783, 109.8328
1105.265, 109.6988
1105.747, 110.3090
1106.229, 111.0327
1106.711, 110.9461
1107.193, 110.1400
1107.675, 109.6681
1108.157, 109.8698
1108.640, 110.0027
1109.122, 109.7983
1109.604, 109.7264
1110.086, 110.2778
1110.568, 110.7953
1111.050, 110.5100
1111.532, 109.6415
1112.014, 109.0764
1112.496, 108.9126
1112.979, 108.8922
1113.461, 109.1275
1113.943, 109.3428
1114.425, 109.6887
1114.907, 109.7738
1115.389, 108.9028
1115.871, 107.7128
1116.353, 107.8229
1116.835, 109.6353
1117.318, 110.3199
1117.800, 108.9022
1118.282, 108.1860
1118.764, 109.1378
1119.246, 110.0181
1119.728, 109.7484
1120.210, 108.9686
1120.692, 108.6661
1121.175, 108.8272
1121.657, 108.8042
1122.139, 108.6447
1122.621, 108.0860
1123.103, 106.7353
1123.585, 105.9225
1124.067, 106.3674
1124.549, 107.3097
1125.031, 108.0288
1125.514, 108.4577
1125.996, 108.1475
1126.478, 106.8285
1126.960, 106.3044
1127.442, 106.8058
1127.924, 107.2705
1128.406, 107.3810
1128.888, 107.3822
1129.370, 107.4975
1129.853, 107.5758
1130.335, 107.1884
1130.817, 106.3360
1131.299, 105.8849
1131.781, 105.8501
1132.263, 105.8571
1132.745, 105.8347
1133.227, 105.8483
1133.710, 105.9637
1134.192, 105.9172
1134.674, 105.2179
1135.156, 104.1061
1135.638, 103.6188
1136.120, 103.6783
1136.602, 103.6806
1137.084, 103.5611
1137.567, 103.4801
1138.049, 103.4977
1138.531, 103.4453
1139.013, 103.1168
1139.495, 102.7278
1139.977, 102.7725
1140.459, 103.0803
1140.941, 103.2784
1141.423, 103.2783
1141.906, 102.7553
1142.388, 101.7229
1142.870, 100.7927
1143.352, 100.3401
1143.834, 100.1473
1144.316, 100.0170
1144.798, 99.93300
1145.280, 99.95479
1145.762, 99.96662
1146.245, 99.61916
1146.727, 99.02824
1147.209, 98.73355
1147.691, 98.94335
1148.173, 99.33717
1148.655, 99.93470
1149.137, 100.3216
1149.619, 100.0620
1150.102, 99.45079
1150.584, 98.66468
1151.066, 97.86375
1151.548, 97.28189
1152.030, 96.95154
1152.512, 96.71201
1152.994, 96.48335
1153.476, 96.35420
1153.958, 96.39986
1154.441, 96.52428
1154.923, 96.85342
1155.405, 97.08761
1155.887, 96.67455
1156.369, 95.84070
1156.851, 95.57292
1157.333, 96.29111
1157.815, 96.64693
1158.297, 96.04232
1158.780, 95.45459
1159.262, 95.23242
1159.744, 95.09486
1160.226, 94.90606
1160.708, 94.63149
1161.190, 94.09026
1161.672, 93.23323
1162.154, 93.01717
1162.637, 94.19498
1163.119, 94.57628
1163.601, 93.64269
1164.083, 92.49691
1164.565, 91.30005
1165.047, 90.50524
1165.529, 90.69348
1166.011, 91.62627
1166.494, 92.38871
1166.976, 93.03741
1167.458, 93.12409
1167.940, 92.44072
1168.422, 92.40291
1168.904, 93.57265
1169.386, 94.13881
1169.868, 92.74532
1170.350, 90.69123
1170.833, 90.24155
1171.315, 91.03791
1171.797, 90.81559
1172.279, 89.71676
1172.761, 89.48475
1173.243, 90.24454
1173.725, 90.78618
1174.207, 90.64720
1174.689, 90.38730
1175.172, 90.54502
1175.654, 90.79235
1176.136, 90.54234
1176.618, 89.96168
1177.100, 89.18880
1177.582, 88.47607
1178.064, 88.69038
1178.546, 89.72999
1179.029, 90.28533
1179.511, 89.69585
1179.993, 88.85394
1180.475, 88.22079
1180.957, 88.01592
1181.439, 88.95439
1181.921, 90.06693
1182.403, 90.03152
1182.885, 89.18881
1183.368, 88.38734
1183.850, 87.86067
1184.332, 87.72325
1184.814, 88.26922
1185.296, 88.75740
1185.778, 88.97018
1186.260, 88.93655
1186.742, 88.40746
1187.225, 87.84835
1187.707, 87.74351
1188.189, 88.04797
1188.671, 88.57175
1189.153, 89.52175
1189.635, 89.81364
1190.117, 88.74551
1190.599, 87.98116
1191.082, 87.92435
1191.564, 88.00275
1192.046, 87.94162
1192.528, 87.81434
1193.010, 87.71685
1193.492, 87.64603
1193.974, 87.57441
1194.456, 87.50837
1194.938, 87.39880
1195.421, 87.22726
1195.903, 87.08019
1196.385, 86.96074
1196.867, 87.06213
1197.349, 87.56795
1197.831, 88.21306
1198.313, 88.52009
1198.795, 88.53954
1199.277, 88.37654
1199.760, 88.12978
1200.242, 88.53953
1200.724, 89.51221
1201.206, 89.81203
1201.688, 89.02583
1202.170, 88.15632
1202.652, 88.02943
1203.134, 88.22565
1203.617, 88.33753
1204.099, 88.34367
1204.581, 88.05509
1205.063, 87.71298
1205.545, 87.88612
1206.027, 88.45949
1206.509, 88.73740
1206.991, 88.45855
1207.474, 88.02106
1207.956, 87.26402
1208.438, 86.89110
1208.920, 87.73753
1209.402, 88.63987
1209.884, 88.42924
1210.366, 89.02534
1210.848, 89.29147
1211.330, 89.06036
1211.813, 89.50551
1212.295, 88.91859
1212.777, 88.32480
1213.259, 87.68808
1213.741, 87.13892
1214.223, 86.57742
1214.705, 86.34517
1215.187, 86.81666
1215.669, 87.59793
1216.152, 88.00114
1216.634, 88.02901
1217.116, 87.57982
1217.598, 86.58156
1218.080, 86.07205
1218.562, 86.17107
1219.044, 86.34978
1219.526, 86.42261
1220.009, 86.62128
1220.491, 87.18153
1220.973, 87.73690
1221.455, 87.48074
1221.937, 86.80196
1222.419, 86.74648
1222.901, 87.10600
1223.383, 87.35068
1223.865, 87.39145
1224.348, 87.20490
1224.830, 86.81194
1225.312, 86.53475
1225.794, 86.60332
1226.276, 86.83808
1226.758, 87.47660
1227.240, 87.83686
1227.722, 86.72856
1228.204, 85.36819
1228.687, 85.62918
1229.169, 87.11733
1229.651, 87.97728
1230.133, 87.77312
1230.615, 87.48107
1231.097, 87.38176
1231.579, 87.04269
1232.061, 85.80784
1232.544, 85.07372
1233.026, 85.91223
1233.508, 87.04173
1233.990, 86.96091
1234.472, 85.98760
1234.954, 85.42520
1235.436, 85.30058
1235.918, 85.49714
1236.401, 86.07726
1236.883, 86.22277
1237.365, 85.74095
1237.847, 85.43262
1238.329, 85.73042
1238.811, 86.19448
1239.293, 86.34032
1239.775, 86.26623
1240.257, 86.05038
1240.740, 85.83346
1241.222, 86.02602
1241.704, 86.48969
1242.186, 86.83103
1242.668, 86.97417
1243.150, 87.00920
1243.632, 86.97167
1244.114, 86.88647
1244.596, 86.77490
1245.079, 86.61491
1245.561, 86.44637
1246.043, 86.16929
1246.525, 85.38957
1247.007, 84.63004
1247.489, 84.77161
1247.971, 85.73679
1248.453, 86.57175
1248.936, 87.46689
1249.418, 87.43143
1249.900, 85.44780
1250.382, 84.59855
1250.864, 86.17677
1251.346, 87.49721
1251.828, 86.91965
1252.310, 85.60921
1252.792, 85.03699
1253.275, 85.12690
1253.757, 85.83211
1254.239, 87.03016
1254.721, 86.82340
1255.203, 85.38667
1255.685, 85.09940
1256.167, 86.30222
1256.649, 87.04756
1257.131, 86.31926
1257.614, 85.13872
1258.096, 84.22438
1258.578, 83.75635
1259.060, 84.14651
1259.542, 84.93215
1260.024, 85.85999
1260.506, 86.57997
1260.988, 86.38229
1261.471, 85.45670
1261.953, 84.94055
1262.435, 85.23470
1262.917, 85.45982
1263.399, 85.29911
1263.881, 85.18290
1264.363, 85.12117
1264.845, 85.27515
1265.328, 85.93845
1265.810, 86.61048
1266.292, 86.69628
1266.774, 86.32886
1267.256, 86.00358
1267.738, 85.70554
1268.220, 85.62447
1268.702, 85.76343
1269.184, 86.07795
1269.667, 86.54985
1270.149, 86.92937
1270.631, 87.10022
1271.113, 86.89397
1271.595, 86.01241
1272.077, 85.01707
1272.559, 84.57759
1273.041, 84.69569
1273.523, 85.96037
1274.006, 87.46311
1274.488, 87.46609
1274.970, 86.23520
1275.452, 85.14901
1275.934, 84.58043
1276.416, 84.50097
1276.898, 85.41184
1277.380, 86.03651
1277.863, 85.53089
1278.345, 85.28625
1278.827, 86.68181
1279.309, 87.86131
1279.791, 86.96107
1280.273, 85.03217
1280.755, 84.46263
1281.237, 85.23330
1281.719, 85.67118
1282.202, 85.74931
1282.684, 85.87512
1283.166, 86.08831
1283.648, 86.16899
1284.130, 86.05059
1284.612, 85.91395
1285.094, 85.88520
1285.576, 85.86953
1286.059, 85.65672
1286.541, 85.45688
1287.023, 85.53068
1287.505, 85.89735
##END=



