##NAMES=Fayalite
##RRUFFID=R100104
##IDEAL CHEMISTRY=Fe^2+^_2_SiO_4_
##LOCALITY=Dannemora, Uppsala Province, Sweden
##OWNER=RRUFF
##SOURCE=American Museum of Natural History
##DESCRIPTION=Dark brown fragment, variety knebelite
##STATUS=The identification of this mineral is confirmed by single-crystal X-ray diffraction and chemical analysis.
##URL=rruff.info/R100104
##MEASURED CHEMISTRY=(Fe^+2^_1.020_Mn^+2^_0.931_Mg_0.052_Ca_0.002_Zn_0.001_)_Î£=2.006_Si_0.997_O_4_
91.53320, 104.4147
92.01532, 106.4516
92.49744, 106.9564
92.97955, 106.8596
93.46167, 105.4313
93.94379, 102.9672
94.42590, 100.0117
94.90802, 97.08406
95.39014, 94.47983
95.87225, 92.20689
96.35437, 90.17992
96.83649, 88.68526
97.31860, 87.35310
97.80072, 85.73602
98.28284, 83.42411
98.76495, 80.54375
99.24707, 78.13864
99.72919, 76.45422
100.2113, 74.98835
100.6934, 73.61560
101.1755, 72.32712
101.6577, 71.16606
102.1398, 70.15752
102.6219, 69.31046
103.1040, 68.56330
103.5861, 67.93416
104.0682, 67.34247
104.5504, 66.68294
105.0325, 65.96214
105.5146, 65.33189
105.9967, 65.05141
106.4788, 65.39124
106.9609, 65.33870
107.4431, 64.48176
107.9252, 63.28959
108.4073, 62.45165
108.8894, 62.26719
109.3715, 62.33381
109.8536, 61.89700
110.3358, 60.84848
110.8179, 59.86487
111.3000, 59.34882
111.7821, 59.25907
112.2642, 59.20501
112.7463, 59.08863
113.2285, 58.90757
113.7106, 58.66399
114.1927, 58.35957
114.6748, 57.98856
115.1569, 57.54652
115.6390, 57.02668
116.1212, 56.43223
116.6033, 55.63642
117.0854, 54.81968
117.5675, 54.18557
118.0496, 53.85405
118.5317, 53.74433
119.0139, 53.47000
119.4960, 52.72484
119.9781, 52.13689
120.4602, 51.95361
120.9423, 52.00325
121.4244, 51.98006
121.9066, 51.63950
122.3887, 50.95261
122.8708, 50.33240
123.3529, 49.80184
123.8350, 49.29625
124.3171, 48.73313
124.7993, 48.13451
125.2814, 47.64950
125.7635, 47.45165
126.2456, 47.62263
126.7277, 47.71017
127.2098, 47.77520
127.6920, 47.72362
128.1741, 47.36592
128.6562, 46.60870
129.1383, 45.82344
129.6204, 45.48710
130.1025, 45.53731
130.5847, 45.76542
131.0668, 46.29952
131.5489, 46.99259
132.0310, 47.28688
132.5131, 46.80190
132.9952, 46.15992
133.4774, 45.96774
133.9595, 46.23110
134.4416, 46.49983
134.9237, 46.29319
135.4058, 45.51430
135.8879, 44.93264
136.3701, 44.86640
136.8522, 44.93547
137.3343, 44.94647
137.8164, 44.84904
138.2985, 44.70131
138.7806, 44.59210
139.2628, 44.49995
139.7449, 44.50059
140.2270, 44.66256
140.7091, 44.87429
141.1912, 45.02087
141.6733, 45.05013
142.1555, 45.01608
142.6376, 45.10466
143.1197, 45.21708
143.6018, 45.57876
144.0839, 46.58206
144.5660, 47.81346
145.0482, 48.58661
145.5303, 48.45276
146.0124, 47.55622
146.4945, 46.99318
146.9766, 46.71788
147.4587, 46.72673
147.9409, 47.25228
148.4230, 48.16156
148.9051, 48.87859
149.3872, 48.98507
149.8693, 48.51381
150.3514, 48.02250
150.8336, 47.41816
151.3157, 46.85853
151.7978, 46.52037
152.2799, 46.43159
152.7620, 46.37453
153.2441, 46.12450
153.7263, 45.79309
154.2084, 45.57863
154.6905, 45.69400
155.1726, 45.95193
155.6547, 45.87975
156.1368, 45.24084
156.6190, 44.70359
157.1011, 44.71162
157.5832, 45.06665
158.0653, 45.37905
158.5474, 45.29060
159.0295, 44.85830
159.5117, 44.85111
159.9938, 45.58722
160.4759, 46.48682
160.9580, 47.39375
161.4401, 48.29119
161.9222, 49.19409
162.4044, 50.14020
162.8865, 51.17548
163.3686, 51.99995
163.8507, 52.76929
164.3328, 53.22775
164.8149, 53.31284
165.2971, 52.98631
165.7792, 52.18060
166.2613, 50.77398
166.7434, 48.53589
167.2255, 46.30746
167.7076, 43.84537
168.1898, 41.53847
168.6719, 39.68733
169.1540, 38.33732
169.6361, 37.32731
170.1182, 36.45738
170.6003, 35.80211
171.0825, 35.10923
171.5646, 34.17104
172.0467, 33.26818
172.5288, 32.81460
173.0109, 32.97291
173.4930, 33.32695
173.9752, 33.09396
174.4573, 32.17813
174.9394, 31.49298
175.4215, 31.50432
175.9036, 31.93460
176.3857, 32.14296
176.8679, 31.87744
177.3500, 31.43393
177.8321, 31.18038
178.3142, 31.10810
178.7963, 31.18635
179.2784, 31.60587
179.7606, 32.28474
180.2427, 32.48707
180.7248, 31.63638
181.2069, 30.54963
181.6890, 29.91097
182.1711, 29.77375
182.6533, 29.93783
183.1354, 30.37237
183.6175, 31.15715
184.0996, 31.57953
184.5817, 31.08557
185.0638, 30.40329
185.5460, 29.92354
186.0281, 29.73262
186.5102, 29.69542
186.9923, 29.65777
187.4744, 29.67188
187.9565, 29.53378
188.4387, 28.99850
188.9208, 28.45338
189.4029, 28.23035
189.8850, 28.41691
190.3671, 28.78430
190.8492, 28.87940
191.3314, 28.40845
191.8135, 28.14036
192.2956, 28.19570
192.7777, 28.41014
193.2598, 28.66934
193.7419, 28.92385
194.2241, 29.15539
194.7062, 29.31912
195.1883, 29.24942
195.6704, 29.30805
196.1525, 29.77818
196.6346, 30.29140
197.1168, 30.33272
197.5989, 29.66029
198.0810, 28.57995
198.5631, 27.98814
199.0452, 28.27492
199.5273, 28.49514
200.0095, 28.46457
200.4916, 28.27775
200.9737, 28.07159
201.4558, 27.89215
201.9379, 27.75825
202.4200, 27.74090
202.9022, 27.93754
203.3843, 28.06141
203.8664, 27.92716
204.3485, 27.62988
204.8306, 27.42151
205.3127, 27.39174
205.7949, 27.54717
206.2770, 27.92321
206.7591, 28.72706
207.2412, 29.30749
207.7233, 29.08415
208.2054, 28.19821
208.6876, 27.56188
209.1697, 27.74792
209.6518, 28.21972
210.1339, 28.09604
210.6160, 27.12607
211.0981, 26.19416
211.5803, 26.14280
212.0624, 26.97412
212.5445, 27.70517
213.0266, 27.89955
213.5087, 27.88137
213.9908, 27.96401
214.4730, 28.21025
214.9551, 28.45200
215.4372, 28.46118
215.9193, 28.18789
216.4014, 27.99411
216.8836, 28.05371
217.3657, 28.19368
217.8478, 28.27301
218.3299, 28.25463
218.8120, 28.28674
219.2941, 28.62845
219.7763, 29.41917
220.2584, 30.05504
220.7405, 30.33063
221.2226, 30.48699
221.7047, 30.70273
222.1868, 31.02233
222.6690, 31.33140
223.1511, 31.43188
223.6332, 31.21964
224.1153, 31.02845
224.5974, 30.72093
225.0795, 30.54379
225.5617, 30.81327
226.0438, 31.57490
226.5259, 32.44490
227.0080, 32.69912
227.4901, 31.75717
227.9722, 31.25729
228.4544, 31.47489
228.9365, 31.95130
229.4186, 32.30871
229.9007, 32.44966
230.3828, 32.57383
230.8649, 33.05601
231.3471, 34.41780
231.8292, 35.28421
232.3113, 35.26115
232.7934, 35.01704
233.2755, 35.16426
233.7576, 35.85039
234.2398, 36.69962
234.7219, 37.06071
235.2040, 36.38464
235.6861, 36.21014
236.1682, 36.99300
236.6503, 38.01904
237.1325, 38.56873
237.6146, 38.46608
238.0967, 38.17035
238.5788, 38.39300
239.0609, 39.50408
239.5430, 40.27960
240.0252, 40.59634
240.5073, 40.59932
240.9894, 40.35516
241.4715, 39.88097
241.9536, 39.33977
242.4357, 38.96359
242.9179, 38.81622
243.4000, 38.54999
243.8821, 38.04934
244.3642, 37.45367
244.8463, 36.94519
245.3284, 36.56458
245.8106, 36.14557
246.2927, 35.40766
246.7748, 34.32727
247.2569, 33.50593
247.7390, 33.22438
248.2211, 33.16259
248.7033, 32.96663
249.1854, 32.58595
249.6675, 32.04989
250.1496, 31.23698
250.6317, 30.20726
251.1138, 29.48085
251.5960, 29.44403
252.0781, 29.64917
252.5602, 29.43693
253.0423, 28.67586
253.5244, 27.92535
254.0065, 27.72145
254.4887, 27.92245
254.9708, 28.19500
255.4529, 28.61689
255.9350, 29.00092
256.4171, 28.95564
256.8992, 28.34358
257.3813, 27.88421
257.8635, 28.44692
258.3456, 29.49445
258.8277, 30.11127
259.3098, 29.84628
259.7919, 29.12245
260.2740, 28.41206
260.7562, 27.63301
261.2383, 27.22302
261.7204, 27.78231
262.2025, 28.78194
262.6846, 29.61699
263.1667, 30.11926
263.6489, 30.37813
264.1310, 30.45878
264.6131, 30.30343
265.0952, 30.22182
265.5773, 30.51328
266.0594, 30.88516
266.5416, 31.03682
267.0237, 30.84599
267.5058, 30.52482
267.9879, 30.29836
268.4700, 30.13434
268.9521, 30.22266
269.4343, 30.98388
269.9164, 31.84420
270.3985, 32.32619
270.8806, 32.29609
271.3627, 32.08129
271.8448, 32.09004
272.3270, 32.37002
272.8091, 32.62438
273.2912, 32.72466
273.7733, 32.81455
274.2554, 33.01377
274.7375, 33.33788
275.2197, 33.65008
275.7018, 33.77900
276.1839, 33.69224
276.6660, 33.62907
277.1481, 33.58847
277.6302, 33.60765
278.1124, 33.81170
278.5945, 34.15953
279.0766, 34.38386
279.5587, 34.10952
280.0408, 33.24802
280.5229, 32.68524
281.0051, 32.62984
281.4872, 32.76113
281.9693, 33.08422
282.4514, 33.51278
282.9335, 33.83926
283.4156, 33.87216
283.8978, 33.60658
284.3799, 33.27988
284.8620, 32.80980
285.3441, 32.35871
285.8262, 31.92142
286.3083, 31.54437
286.7905, 31.32337
287.2726, 31.36469
287.7547, 31.63218
288.2368, 31.77388
288.7189, 31.66281
289.2010, 31.56941
289.6832, 31.63641
290.1653, 31.75548
290.6474, 31.74593
291.1295, 31.48620
291.6116, 31.05196
292.0938, 30.74955
292.5759, 30.62588
293.0580, 30.58721
293.5401, 30.65799
294.0222, 30.77737
294.5043, 30.87761
294.9865, 30.92800
295.4686, 30.95212
295.9507, 31.01491
296.4328, 31.17849
296.9149, 31.26488
297.3970, 31.20001
297.8792, 31.09048
298.3613, 31.02362
298.8434, 31.02679
299.3255, 31.07483
299.8076, 31.12958
300.2897, 31.19614
300.7719, 31.25752
301.2540, 31.26699
301.7361, 31.30405
302.2182, 31.49968
302.7003, 31.83159
303.1824, 32.08624
303.6646, 31.97515
304.1467, 31.37872
304.6288, 30.84476
305.1109, 30.48630
305.5930, 30.08524
306.0751, 29.48658
306.5573, 28.73323
307.0394, 27.98700
307.5215, 27.35857
308.0036, 26.83021
308.4857, 26.65261
308.9678, 27.53780
309.4500, 28.08028
309.9321, 27.60332
310.4142, 26.46846
310.8963, 25.47721
311.3784, 25.21142
311.8605, 25.53707
312.3427, 25.39291
312.8248, 24.12961
313.3069, 23.13604
313.7890, 22.72043
314.2711, 22.69674
314.7532, 22.84081
315.2354, 23.04969
315.7175, 23.29337
316.1996, 23.50703
316.6817, 23.88803
317.1638, 23.88811
317.6459, 23.07133
318.1281, 22.09635
318.6102, 21.61823
319.0923, 21.82361
319.5744, 22.31672
320.0565, 22.42241
320.5386, 21.90828
321.0208, 21.53805
321.5029, 21.54283
321.9850, 21.52781
322.4671, 21.14246
322.9492, 20.40860
323.4313, 19.70939
323.9135, 19.51496
324.3956, 19.97308
324.8777, 20.18584
325.3598, 19.79336
325.8419, 19.48882
326.3240, 19.63145
326.8062, 20.10784
327.2883, 20.55437
327.7704, 20.67870
328.2525, 20.50156
328.7346, 20.40334
329.2167, 20.49408
329.6989, 20.54095
330.1810, 20.51427
330.6631, 20.40352
331.1452, 20.17379
331.6273, 19.79033
332.1094, 19.32947
332.5916, 19.03814
333.0737, 19.02615
333.5558, 19.00431
334.0379, 18.87061
334.5200, 18.73090
335.0021, 18.70614
335.4843, 18.83188
335.9664, 19.00941
336.4485, 19.10138
336.9306, 19.13395
337.4127, 18.99533
337.8948, 18.38879
338.3770, 17.83183
338.8591, 17.65494
339.3412, 17.86965
339.8233, 18.24862
340.3055, 18.65881
340.7876, 19.13589
341.2697, 19.25633
341.7518, 18.54361
342.2339, 17.92915
342.7160, 17.89843
343.1982, 18.26351
343.6803, 18.52186
344.1624, 18.27204
344.6445, 17.65215
345.1266, 17.37270
345.6087, 17.62030
346.0909, 17.92294
346.5730, 18.11558
347.0551, 18.26479
347.5372, 18.44487
348.0193, 18.68328
348.5014, 18.98244
348.9836, 19.42702
349.4657, 20.15414
349.9478, 20.55428
350.4299, 20.11855
350.9120, 19.50896
351.3941, 19.22761
351.8763, 19.36430
352.3584, 19.59376
352.8405, 19.55485
353.3226, 19.23728
353.8047, 19.02630
354.2868, 19.06412
354.7690, 19.12687
355.2511, 19.02604
355.7332, 18.80679
356.2153, 18.67329
356.6974, 18.79447
357.1795, 19.11380
357.6617, 19.44764
358.1438, 19.88047
358.6259, 20.13613
359.1080, 19.86674
359.5901, 19.36237
360.0722, 19.09650
360.5544, 19.30353
361.0365, 19.74489
361.5186, 20.10532
362.0007, 20.37464
362.4828, 20.62878
362.9649, 20.90070
363.4471, 21.17144
363.9292, 21.44700
364.4113, 21.75182
364.8934, 21.95267
365.3755, 21.83157
365.8576, 21.47034
366.3398, 21.33995
366.8219, 21.62319
367.3040, 22.06305
367.7861, 22.47864
368.2682, 22.86134
368.7503, 22.99387
369.2325, 22.52940
369.7146, 21.83582
370.1967, 21.61618
370.6788, 21.99828
371.1609, 22.42357
371.6430, 22.37246
372.1252, 22.01253
372.6073, 21.90906
373.0894, 22.42540
373.5715, 22.99101
374.0536, 23.07764
374.5357, 22.76576
375.0179, 22.54482
375.5000, 22.67318
375.9821, 23.02221
376.4642, 23.29102
376.9463, 23.48525
377.4284, 23.60261
377.9106, 23.52613
378.3927, 23.39624
378.8748, 23.51197
379.3569, 23.97798
379.8390, 24.50524
380.3211, 24.74173
380.8033, 24.65940
381.2854, 24.38697
381.7675, 23.66297
382.2496, 22.94535
382.7317, 22.64998
383.2138, 22.76175
383.6960, 22.94270
384.1781, 22.95594
384.6602, 22.80717
385.1423, 22.59372
385.6244, 22.18884
386.1065, 21.87115
386.5887, 21.72140
387.0708, 21.72289
387.5529, 21.91517
388.0350, 22.33105
388.5171, 22.76789
388.9992, 22.75999
389.4814, 21.55341
389.9635, 21.08749
390.4456, 22.20044
390.9277, 23.48873
391.4098, 23.66093
391.8919, 22.64274
392.3741, 21.39927
392.8562, 20.94432
393.3383, 21.38787
393.8204, 21.78050
394.3025, 22.17296
394.7846, 22.46788
395.2668, 22.60430
395.7489, 22.62184
396.2310, 22.61317
396.7131, 22.64208
397.1952, 22.64526
397.6773, 22.38672
398.1595, 21.66709
398.6416, 21.00442
399.1237, 20.43694
399.6058, 19.96300
400.0879, 19.55617
400.5700, 19.21912
401.0522, 19.01696
401.5343, 19.11072
402.0164, 19.59299
402.4985, 19.81147
402.9806, 19.52540
403.4627, 19.16352
403.9449, 18.81664
404.4270, 18.53763
404.9091, 18.43870
405.3912, 18.69178
405.8733, 19.12417
406.3554, 19.15201
406.8376, 18.60833
407.3197, 18.07458
407.8018, 17.71300
408.2839, 17.50955
408.7660, 17.52229
409.2481, 17.80519
409.7303, 18.08334
410.2124, 18.00816
410.6945, 17.61038
411.1766, 17.40149
411.6587, 17.65849
412.1408, 17.91231
412.6230, 17.64549
413.1051, 16.93366
413.5872, 16.33404
414.0693, 16.21969
414.5514, 16.30926
415.0335, 16.06601
415.5157, 15.41554
415.9978, 14.93369
416.4799, 15.04515
416.9620, 15.61857
417.4441, 16.18782
417.9262, 16.89891
418.4084, 17.38800
418.8905, 17.34388
419.3726, 16.91366
419.8547, 16.45606
420.3368, 16.08030
420.8189, 15.76568
421.3011, 15.47365
421.7832, 15.18051
422.2653, 15.00783
422.7474, 15.04043
423.2295, 15.15096
423.7116, 15.22652
424.1938, 15.26335
424.6759, 15.33049
425.1580, 15.48814
425.6401, 15.72993
426.1222, 15.94278
426.6043, 16.41963
427.0865, 16.53625
427.5686, 15.78253
428.0507, 14.68537
428.5328, 14.00527
429.0149, 14.02758
429.4970, 14.41731
429.9792, 14.58793
430.4613, 14.42056
430.9434, 14.28595
431.4255, 14.14259
431.9076, 14.05992
432.3897, 14.14991
432.8719, 14.35030
433.3540, 14.45879
433.8361, 14.28782
434.3182, 13.89289
434.8003, 13.66949
435.2824, 13.62608
435.7646, 13.76538
436.2467, 14.24609
436.7288, 14.80908
437.2109, 15.21683
437.6930, 15.39700
438.1751, 15.33175
438.6573, 14.84065
439.1394, 13.86534
439.6215, 13.31645
440.1036, 13.57004
440.5857, 14.01206
441.0678, 14.31969
441.5500, 14.48069
442.0321, 14.48641
442.5142, 14.25217
442.9963, 13.89235
443.4784, 13.56784
443.9605, 13.26096
444.4427, 13.13652
444.9248, 13.38057
445.4069, 13.81566
445.8890, 14.15337
446.3711, 14.42042
446.8532, 14.48593
447.3354, 14.01857
447.8175, 13.32620
448.2996, 13.20106
448.7817, 13.89503
449.2638, 14.67225
449.7459, 14.67238
450.2281, 13.83481
450.7102, 13.27876
451.1923, 13.29099
451.6744, 13.37641
452.1565, 13.14009
452.6386, 12.70374
453.1208, 12.47499
453.6029, 12.67408
454.0850, 13.18589
454.5671, 13.69499
455.0492, 14.36015
455.5313, 14.79155
456.0135, 14.85652
456.4956, 14.77363
456.9777, 14.74855
457.4598, 14.78595
457.9419, 14.70954
458.4240, 14.31406
458.9062, 13.59288
459.3883, 13.08899
459.8704, 12.93101
460.3525, 12.86278
460.8346, 12.96728
461.3167, 13.07919
461.7989, 12.91667
462.2810, 12.36436
462.7631, 11.78459
463.2452, 11.83456
463.7273, 12.66398
464.2094, 13.22607
464.6916, 13.15626
465.1737, 13.00071
465.6558, 13.06835
466.1379, 13.32640
466.6200, 13.60517
467.1021, 13.82004
467.5843, 13.99265
468.0664, 14.18352
468.5485, 14.40731
469.0306, 14.53869
469.5127, 14.42916
469.9948, 14.24880
470.4770, 14.32911
470.9591, 14.81196
471.4412, 15.05869
471.9233, 14.46657
472.4054, 13.49110
472.8875, 13.01677
473.3697, 13.21871
473.8518, 13.62366
474.3339, 13.84968
474.8160, 13.88607
475.2981, 13.82715
475.7802, 13.56656
476.2624, 13.32542
476.7445, 13.20407
477.2266, 13.17142
477.7087, 13.17708
478.1908, 13.20181
478.6729, 13.22166
479.1551, 13.18806
479.6372, 13.04822
480.1193, 12.98096
480.6014, 13.10352
481.0835, 13.18382
481.5656, 12.98563
482.0478, 12.62525
482.5299, 12.44306
483.0120, 12.68917
483.4941, 13.23057
483.9762, 13.54316
484.4583, 13.48161
484.9405, 13.48683
485.4226, 13.86310
485.9047, 14.18880
486.3868, 13.99227
486.8689, 13.27291
487.3510, 12.65156
487.8332, 12.75100
488.3153, 13.42104
488.7974, 13.95993
489.2795, 14.37315
489.7616, 14.57602
490.2437, 14.25323
490.7259, 13.74526
491.2080, 13.60728
491.6901, 14.07728
492.1722, 14.65558
492.6543, 15.12530
493.1364, 15.42364
493.6186, 15.25259
494.1007, 14.43441
494.5828, 13.57467
495.0649, 13.44293
495.5470, 14.13269
496.0291, 14.49229
496.5113, 14.18522
496.9934, 13.81922
497.4755, 13.82392
497.9576, 14.05530
498.4397, 14.06477
498.9218, 13.61879
499.4040, 13.01302
499.8861, 12.94166
500.3682, 13.90952
500.8503, 14.48557
501.3324, 14.49973
501.8145, 14.31889
502.2967, 14.03166
502.7788, 13.73954
503.2609, 13.64414
503.7430, 13.92706
504.2251, 14.46506
504.7072, 14.76515
505.1894, 14.73054
505.6715, 14.67996
506.1536, 14.74707
506.6357, 14.79665
507.1178, 14.65364
507.5999, 14.31584
508.0821, 14.08025
508.5642, 14.30448
509.0463, 14.79703
509.5284, 14.92588
510.0105, 14.56220
510.4926, 14.25620
510.9748, 14.45064
511.4569, 14.91678
511.9390, 15.11851
512.4211, 14.98535
512.9032, 14.66041
513.3853, 14.00759
513.8674, 13.26404
514.3495, 12.84207
514.8317, 12.83061
515.3138, 13.11737
515.7959, 13.67696
516.2780, 14.56025
516.7601, 14.88610
517.2422, 14.21832
517.7244, 13.57859
518.2065, 13.34196
518.6886, 13.33727
519.1707, 13.29503
519.6528, 13.11993
520.1349, 12.90707
520.6171, 12.79862
521.0992, 12.80829
521.5813, 12.86745
522.0634, 13.07000
522.5455, 13.22845
523.0276, 13.19047
523.5098, 13.07213
523.9919, 13.12879
524.4740, 13.53564
524.9561, 13.98477
525.4382, 13.92871
525.9203, 13.35490
526.4025, 13.05449
526.8846, 13.42630
527.3667, 13.83837
527.8488, 13.53265
528.3309, 12.64344
528.8130, 12.04945
529.2952, 12.15623
529.7773, 12.55203
530.2594, 12.98817
530.7415, 13.41044
531.2236, 13.58911
531.7057, 13.37203
532.1879, 13.00731
532.6700, 12.99209
533.1521, 13.58701
533.6342, 13.93920
534.1163, 13.97034
534.5984, 13.80808
535.0806, 13.36213
535.5627, 12.78447
536.0448, 12.43345
536.5269, 12.53885
537.0090, 12.99107
537.4911, 13.52079
537.9733, 14.39484
538.4554, 14.75050
538.9375, 13.90765
539.4196, 13.01980
539.9017, 12.85761
540.3839, 13.34720
540.8660, 13.88541
541.3481, 14.13848
541.8302, 14.15073
542.3123, 13.93484
542.7944, 13.44678
543.2766, 13.12760
543.7587, 13.21859
544.2408, 13.51879
544.7229, 13.75631
545.2050, 13.93854
545.6871, 14.01247
546.1693, 13.87321
546.6514, 13.66933
547.1335, 13.49209
547.6156, 13.38091
548.0977, 13.51068
548.5798, 14.03578
549.0620, 14.80315
549.5441, 15.29254
550.0262, 15.39103
550.5083, 15.33466
550.9904, 14.90233
551.4725, 14.48258
551.9547, 14.45796
552.4368, 14.75355
552.9189, 14.96502
553.4010, 14.76967
553.8831, 14.28138
554.3652, 13.96865
554.8474, 13.90714
555.3295, 13.83396
555.8116, 13.59556
556.2937, 13.38330
556.7758, 13.40319
557.2579, 13.63988
557.7401, 13.78661
558.2222, 13.49673
558.7043, 13.06716
559.1864, 13.03389
559.6685, 13.41255
560.1506, 13.95551
560.6328, 14.68346
561.1149, 15.36577
561.5970, 15.41413
562.0791, 14.63512
562.5612, 13.98571
563.0433, 13.72818
563.5255, 13.60407
564.0076, 13.36453
564.4897, 13.03886
564.9718, 12.82991
565.4539, 12.87228
565.9360, 13.10958
566.4182, 13.38439
566.9003, 13.94281
567.3824, 14.05832
567.8645, 13.23679
568.3466, 12.38810
568.8287, 12.10379
569.3109, 12.32734
569.7930, 12.67775
570.2751, 12.98172
570.7572, 13.19860
571.2393, 13.19698
571.7214, 12.95577
572.2036, 12.75511
572.6857, 12.69388
573.1678, 12.70120
573.6499, 12.70254
574.1320, 12.69813
574.6141, 12.67660
575.0963, 12.61902
575.5784, 12.55562
576.0605, 12.46699
576.5426, 12.38897
577.0247, 12.46137
577.5068, 12.76275
577.9890, 13.15118
578.4711, 13.36866
578.9532, 13.40820
579.4353, 13.27593
579.9174, 12.78325
580.3995, 12.32886
580.8817, 12.16083
581.3638, 12.16527
581.8459, 12.08177
582.3280, 11.77556
582.8101, 11.42790
583.2922, 11.38485
583.7744, 11.67755
584.2565, 11.79767
584.7386, 11.53738
585.2207, 11.29621
585.7029, 11.43319
586.1850, 11.80567
586.6671, 12.05200
587.1492, 12.07558
587.6313, 11.96382
588.1135, 11.63803
588.5956, 11.23894
589.0777, 11.14117
589.5598, 11.44482
590.0419, 11.86266
590.5240, 12.07647
591.0062, 12.06855
591.4883, 12.25260
591.9704, 12.86271
592.4525, 13.35802
592.9346, 13.72394
593.4167, 13.84393
593.8989, 13.48891
594.3810, 12.66619
594.8631, 11.75887
595.3452, 11.10427
595.8273, 10.70724
596.3094, 10.66996
596.7916, 11.20992
597.2737, 11.61241
597.7558, 11.27991
598.2379, 10.79929
598.7200, 10.90501
599.2021, 11.75341
599.6843, 12.40785
600.1664, 12.18508
600.6485, 11.58664
601.1306, 11.31965
601.6127, 11.41579
602.0948, 11.59541
602.5770, 11.71939
603.0591, 11.78023
603.5412, 11.75014
604.0233, 11.44402
604.5054, 11.36053
604.9875, 11.69283
605.4697, 12.07448
605.9518, 12.29776
606.4339, 12.37020
606.9160, 12.33696
607.3981, 12.19528
607.8802, 12.09155
608.3624, 12.45770
608.8445, 13.41565
609.3266, 13.82342
609.8087, 13.13254
610.2908, 12.32939
610.7729, 12.20696
611.2551, 12.56257
611.7372, 12.79774
612.2193, 12.73120
612.7014, 12.53790
613.1835, 12.18660
613.6656, 11.82347
614.1478, 11.85999
614.6299, 12.39320
615.1120, 12.96085
615.5941, 13.07501
616.0762, 12.73297
616.5583, 12.54456
617.0405, 12.55371
617.5226, 12.66136
618.0047, 13.11661
618.4868, 13.50212
618.9689, 13.28751
619.4510, 12.47908
619.9332, 11.66792
620.4153, 11.33084
620.8974, 11.39093
621.3795, 11.65385
621.8616, 12.18771
622.3438, 12.54899
622.8259, 12.46092
623.3080, 12.21698
623.7901, 12.25019
624.2722, 12.58095
624.7543, 12.78048
625.2365, 12.59223
625.7186, 12.34848
626.2007, 12.28791
626.6828, 12.40254
627.1649, 12.70119
627.6470, 13.19640
628.1292, 13.63261
628.6113, 13.54198
629.0934, 12.71211
629.5755, 12.24290
630.0576, 12.53298
630.5397, 12.77013
631.0219, 12.59311
631.5040, 12.27070
631.9861, 12.22602
632.4682, 12.58964
632.9503, 12.98518
633.4324, 13.05489
633.9146, 12.88014
634.3967, 12.68491
634.8788, 12.47581
635.3609, 12.35567
635.8430, 12.39256
636.3251, 12.55717
636.8073, 12.77432
637.2894, 13.06544
637.7715, 13.34999
638.2536, 13.79840
638.7357, 14.08842
639.2178, 13.74564
639.7000, 13.01512
640.1821, 12.65920
640.6642, 13.11751
641.1463, 13.94502
641.6284, 14.18023
642.1105, 13.66426
642.5927, 13.41132
643.0748, 13.68376
643.5569, 14.00966
644.0390, 14.14933
644.5211, 14.14656
645.0032, 14.09833
645.4854, 14.05887
645.9675, 13.90267
646.4496, 13.32423
646.9317, 12.63652
647.4138, 12.51589
647.8959, 13.02592
648.3781, 13.59306
648.8602, 13.80107
649.3423, 13.70763
649.8244, 13.57207
650.3065, 13.28258
650.7886, 13.12255
651.2708, 13.11672
651.7529, 13.22264
652.2350, 13.47818
652.7171, 13.82255
653.1992, 14.10481
653.6813, 14.23137
654.1635, 14.29619
654.6456, 14.46731
655.1277, 14.73028
655.6098, 14.90610
656.0919, 14.96137
656.5740, 14.91544
657.0562, 14.70417
657.5383, 14.38187
658.0204, 14.30587
658.5025, 14.89131
658.9846, 15.20395
659.4667, 14.66433
659.9489, 13.90761
660.4310, 13.61220
660.9131, 13.82617
661.3952, 14.18990
661.8773, 14.44552
662.3594, 14.64322
662.8416, 15.02668
663.3237, 15.76483
663.8058, 16.04722
664.2879, 15.29380
664.7700, 14.49408
665.2521, 14.50048
665.7343, 15.06401
666.2164, 15.29961
666.6985, 14.63702
667.1806, 14.00762
667.6627, 14.24483
668.1448, 14.93613
668.6270, 15.29728
669.1091, 15.17461
669.5912, 14.82862
670.0733, 14.43886
670.5554, 14.04670
671.0375, 13.95886
671.5197, 14.43720
672.0018, 14.79357
672.4839, 14.90105
672.9660, 14.92073
673.4481, 14.91451
673.9302, 14.91410
674.4124, 14.98506
674.8945, 15.19961
675.3766, 15.43568
675.8587, 15.60273
676.3408, 15.67164
676.8229, 15.42442
677.3051, 14.75671
677.7872, 14.14477
678.2693, 14.04050
678.7514, 14.39436
679.2335, 14.63667
679.7156, 14.77172
680.1978, 14.80394
680.6799, 14.63005
681.1620, 14.43172
681.6441, 14.39973
682.1262, 14.49798
682.6083, 14.52247
683.0905, 14.31797
683.5726, 14.03186
684.0547, 14.03637
684.5368, 14.33037
685.0189, 14.22059
685.5010, 13.37868
685.9832, 12.56085
686.4653, 12.46498
686.9474, 12.96002
687.4295, 13.31673
687.9116, 13.46030
688.3937, 13.54237
688.8759, 13.50434
689.3580, 13.49341
689.8401, 13.75302
690.3222, 14.21459
690.8043, 14.53106
691.2864, 14.46840
691.7686, 14.15010
692.2507, 13.85945
692.7328, 13.60127
693.2149, 13.32067
693.6970, 12.88903
694.1791, 12.61233
694.6613, 12.88664
695.1434, 13.45016
695.6255, 13.69453
696.1076, 13.35608
696.5897, 13.04396
697.0718, 13.08864
697.5540, 13.27979
698.0361, 13.34051
698.5182, 13.27856
699.0003, 13.32657
699.4824, 13.64845
699.9645, 14.05172
700.4467, 14.00150
700.9288, 13.30022
701.4109, 12.88575
701.8930, 12.93927
702.3751, 13.13751
702.8572, 13.46580
703.3394, 13.77938
703.8215, 13.76611
704.3036, 13.24936
704.7857, 12.87486
705.2678, 13.16208
705.7499, 13.73423
706.2321, 14.11156
706.7142, 14.26828
707.1963, 14.34297
707.6784, 14.40878
708.1605, 14.43403
708.6426, 14.35643
709.1248, 14.16705
709.6069, 13.90277
710.0890, 13.39338
710.5711, 13.01215
711.0532, 12.90894
711.5353, 12.99273
712.0175, 13.19039
712.4996, 13.49558
712.9817, 13.72435
713.4638, 13.70762
713.9459, 13.58078
714.4280, 13.47993
714.9102, 13.43338
715.3923, 13.57249
715.8744, 13.97209
716.3565, 14.41507
716.8386, 14.58326
717.3207, 14.44914
717.8029, 14.23512
718.2850, 13.81503
718.7671, 13.47467
719.2492, 13.22949
719.7313, 13.12353
720.2134, 13.28292
720.6956, 13.68089
721.1777, 13.98628
721.6598, 13.92132
722.1419, 13.71413
722.6240, 13.68519
723.1061, 13.77801
723.5883, 13.69503
724.0704, 13.32979
724.5525, 13.09291
725.0346, 13.51007
725.5167, 14.54648
725.9988, 14.91720
726.4810, 14.01853
726.9631, 13.31253
727.4452, 12.84511
727.9273, 12.72403
728.4094, 13.26358
728.8915, 14.25561
729.3737, 14.96819
729.8558, 15.00284
730.3379, 14.73036
730.8200, 14.47578
731.3021, 14.23540
731.7842, 13.94186
732.2664, 13.58925
732.7485, 13.45147
733.2306, 13.79558
733.7127, 14.44985
734.1948, 14.72837
734.6769, 14.42609
735.1591, 14.11385
735.6412, 13.58864
736.1233, 13.27537
736.6054, 13.58642
737.0875, 14.21798
737.5696, 14.59048
738.0518, 14.49951
738.5339, 14.27342
739.0160, 14.08712
739.4981, 13.97756
739.9802, 14.10700
740.4623, 14.43590
740.9445, 14.53747
741.4266, 14.15837
741.9087, 13.62616
742.3908, 13.55474
742.8729, 14.08708
743.3550, 14.46282
743.8372, 14.66380
744.3193, 14.71918
744.8014, 14.45719
745.2835, 14.15847
745.7656, 14.21511
746.2477, 14.64993
746.7299, 14.93652
747.2120, 14.52935
747.6941, 14.01720
748.1762, 14.27355
748.6583, 15.00993
749.1404, 15.20114
749.6226, 14.56508
750.1047, 13.85061
750.5868, 13.83767
751.0689, 14.46020
751.5510, 15.00826
752.0331, 15.49891
752.5153, 15.87665
752.9974, 16.19452
753.4795, 16.34305
753.9616, 16.09515
754.4437, 15.60791
754.9258, 15.37334
755.4080, 15.62592
755.8901, 15.99677
756.3722, 16.31754
756.8543, 16.55849
757.3364, 16.66273
757.8185, 16.63398
758.3007, 16.51990
758.7828, 16.34422
759.2649, 16.12820
759.7470, 15.89792
760.2291, 15.62235
760.7112, 15.47876
761.1934, 15.51097
761.6755, 15.61371
762.1576, 15.82339
762.6397, 16.03491
763.1218, 16.13455
763.6039, 16.12105
764.0861, 15.92393
764.5682, 15.03929
765.0503, 14.40348
765.5324, 15.29139
766.0145, 16.84674
766.4966, 17.18819
766.9788, 15.88092
767.4609, 14.27921
767.9430, 13.70703
768.4251, 14.03291
768.9072, 14.73923
769.3893, 15.98051
769.8715, 16.74208
770.3536, 16.52231
770.8357, 16.11010
771.3178, 16.33771
771.7999, 17.04408
772.2820, 17.38768
772.7642, 16.97081
773.2463, 16.66045
773.7284, 16.73156
774.2105, 16.97414
774.6926, 17.26418
775.1747, 17.55445
775.6569, 17.79424
776.1390, 17.95928
776.6211, 18.05894
777.1032, 18.06576
777.5853, 18.00796
778.0674, 18.09553
778.5496, 18.37395
779.0317, 18.48214
779.5138, 18.12327
779.9959, 17.68027
780.4780, 17.89748
780.9601, 19.06030
781.4423, 19.71979
781.9244, 19.31531
782.4065, 19.10991
782.8886, 19.79519
783.3707, 20.70386
783.8528, 21.01687
784.3350, 20.71205
784.8171, 20.51049
785.2992, 20.97312
785.7813, 21.62889
786.2634, 21.77354
786.7455, 21.59138
787.2277, 21.69445
787.7098, 22.20325
788.1919, 22.90416
788.6740, 23.66781
789.1561, 24.42562
789.6382, 24.85415
790.1204, 24.55481
790.6025, 24.89328
791.0846, 26.65698
791.5667, 28.27595
792.0488, 28.86742
792.5309, 28.95428
793.0131, 29.35768
793.4952, 30.23304
793.9773, 31.28283
794.4594, 32.31267
794.9415, 33.50035
795.4236, 35.14345
795.9058, 37.05908
796.3879, 38.81988
796.8700, 40.29909
797.3521, 41.68375
797.8342, 43.18183
798.3163, 44.75711
798.7985, 46.14574
799.2806, 47.26007
799.7627, 48.73330
800.2448, 50.85339
800.7269, 53.14606
801.2090, 55.21754
801.6912, 57.11489
802.1733, 59.14210
802.6554, 61.39451
803.1375, 63.62831
803.6196, 65.86119
804.1017, 67.99615
804.5839, 69.89226
805.0660, 71.64192
805.5481, 73.42578
806.0302, 75.32028
806.5123, 77.21444
806.9944, 79.07751
807.4766, 80.83700
807.9587, 82.38454
808.4408, 83.69775
808.9229, 84.53712
809.4050, 84.76257
809.8871, 84.83017
810.3693, 85.40405
810.8514, 86.46676
811.3335, 86.36946
811.8156, 84.42948
812.2977, 82.45960
812.7798, 80.84555
813.2620, 79.17583
813.7441, 76.96254
814.2262, 74.48341
814.7083, 72.56117
815.1904, 71.60800
815.6725, 70.74657
816.1547, 69.65931
816.6368, 68.27536
817.1189, 66.18595
817.6010, 63.71370
818.0831, 61.90912
818.5652, 61.20719
819.0474, 60.90151
819.5295, 60.03057
820.0116, 58.68306
820.4937, 57.66373
820.9758, 56.98377
821.4579, 56.57570
821.9401, 56.45310
822.4222, 56.54417
822.9043, 56.88116
823.3864, 57.43798
823.8685, 57.62252
824.3506, 56.87940
824.8328, 56.55811
825.3149, 57.03713
825.7970, 57.84764
826.2791, 58.87839
826.7612, 59.92658
827.2433, 60.57491
827.7255, 60.62227
828.2076, 60.67662
828.6897, 61.51073
829.1718, 62.55668
829.6539, 62.58842
830.1360, 61.85742
830.6182, 61.76795
831.1003, 62.85373
831.5824, 64.54039
832.0645, 66.21395
832.5466, 67.85659
833.0287, 69.11829
833.5109, 69.93063
833.9930, 70.53950
834.4751, 70.87814
834.9572, 71.16294
835.4393, 71.64642
835.9214, 72.21322
836.4036, 72.48476
836.8857, 72.14639
837.3678, 72.09145
837.8499, 72.87582
838.3320, 73.70214
838.8141, 74.03775
839.2963, 73.96919
839.7784, 73.68038
840.2605, 73.24698
840.7426, 72.83382
841.2247, 72.69250
841.7068, 72.62267
842.1890, 72.32002
842.6711, 71.74917
843.1532, 70.60399
843.6353, 68.78342
844.1174, 66.98994
844.5995, 65.91903
845.0817, 65.31877
845.5638, 64.02760
846.0459, 61.65088
846.5280, 59.70717
847.0101, 58.69202
847.4922, 57.63081
847.9744, 55.88848
848.4565, 53.84440
848.9386, 52.05332
849.4207, 50.57585
849.9028, 49.23681
850.3849, 48.16727
850.8671, 47.04065
851.3492, 45.50277
851.8313, 43.87605
852.3134, 42.55777
852.7955, 41.63020
853.2776, 41.01084
853.7598, 40.75969
854.2419, 40.53497
854.7240, 39.75422
855.2061, 38.53562
855.6882, 37.31880
856.1703, 36.16587
856.6525, 35.18308
857.1346, 34.45320
857.6167, 33.86610
858.0988, 33.22136
858.5809, 32.49435
859.0630, 31.87874
859.5452, 31.43976
860.0273, 30.99781
860.5094, 30.54331
860.9915, 30.03025
861.4736, 29.31174
861.9557, 28.46032
862.4379, 27.90363
862.9200, 27.95111
863.4021, 27.97662
863.8842, 27.70116
864.3663, 27.36717
864.8484, 27.32687
865.3306, 27.38584
865.8127, 26.96428
866.2948, 25.84910
866.7769, 24.70393
867.2590, 24.20857
867.7411, 24.14681
868.2233, 24.09365
868.7054, 24.05705
869.1875, 24.22002
869.6696, 24.64013
870.1517, 24.88180
870.6339, 24.48596
871.1160, 23.62673
871.5981, 23.10339
872.0802, 23.00810
872.5623, 22.90331
873.0444, 22.68852
873.5266, 22.56073
874.0087, 22.68405
874.4908, 22.94308
874.9729, 23.16960
875.4550, 23.40619
875.9371, 23.36270
876.4193, 22.73947
876.9014, 22.13976
877.3835, 21.80784
877.8656, 21.63600
878.3477, 21.56797
878.8298, 21.54285
879.3120, 21.37423
879.7941, 20.85830
880.2762, 20.46649
880.7583, 20.88353
881.2404, 21.63625
881.7225, 21.80173
882.2047, 21.44173
882.6868, 21.31132
883.1689, 21.73475
883.6510, 22.08458
884.1331, 21.42760
884.6152, 19.96372
885.0974, 19.29171
885.5795, 19.51761
886.0616, 19.78630
886.5437, 19.89882
887.0258, 20.01400
887.5079, 20.27449
887.9901, 20.63953
888.4722, 20.95157
888.9543, 21.26451
889.4364, 21.41912
889.9185, 21.30281
890.4006, 21.16239
890.8828, 21.14699
891.3649, 21.13123
891.8470, 20.82136
892.3291, 20.24297
892.8112, 20.07207
893.2933, 21.09437
893.7755, 22.02053
894.2576, 21.80542
894.7397, 21.18253
895.2218, 21.11124
895.7039, 21.54603
896.1860, 21.91450
896.6682, 21.94835
897.1503, 21.72147
897.6324, 21.06562
898.1145, 20.26933
898.5966, 20.38070
899.0787, 21.30564
899.5609, 21.84165
900.0430, 21.59099
900.5251, 21.19172
901.0072, 21.29333
901.4893, 21.05374
901.9714, 20.82218
902.4536, 20.94260
902.9357, 20.48533
903.4178, 20.51805
903.8999, 20.64868
904.3820, 20.82609
904.8641, 20.88974
905.3463, 20.45252
905.8284, 19.41322
906.3105, 18.74971
906.7926, 18.79954
907.2747, 18.89117
907.7568, 18.90470
908.2390, 18.80647
908.7211, 18.41957
909.2032, 17.90646
909.6853, 17.78946
910.1674, 18.39551
910.6495, 18.83637
911.1317, 18.21128
911.6138, 17.35256
912.0959, 17.26493
912.5780, 17.72189
913.0601, 18.16285
913.5422, 18.38628
914.0244, 18.24872
914.5065, 17.48198
914.9886, 16.52209
915.4707, 16.35823
915.9528, 16.87475
916.4349, 17.41521
916.9171, 17.89320
917.3992, 18.10165
917.8813, 17.88816
918.3634, 17.49138
918.8455, 17.29447
919.3276, 17.30062
919.8098, 17.48392
920.2919, 17.96694
920.7740, 18.31962
921.2561, 18.46012
921.7382, 18.41634
922.2203, 18.14131
922.7025, 17.69580
923.1846, 17.31028
923.6667, 16.92496
924.1488, 16.72650
924.6309, 16.90786
925.1130, 17.07945
925.5952, 17.08764
926.0773, 16.97256
926.5594, 16.78092
927.0415, 16.52456
927.5236, 16.21134
928.0057, 15.76379
928.4879, 15.38050
928.9700, 15.16978
929.4521, 15.10922
929.9342, 15.25156
930.4163, 15.51057
930.8984, 15.70114
931.3806, 15.74956
931.8627, 15.66259
932.3448, 15.40294
932.8269, 15.03829
933.3090, 14.73118
933.7911, 14.44782
934.2733, 13.93039
934.7554, 13.16175
935.2375, 12.78220
935.7196, 13.28043
936.2017, 14.15044
936.6838, 14.22598
937.1660, 13.44695
937.6481, 13.18603
938.1302, 13.60530
938.6123, 13.81659
939.0944, 13.43271
939.5765, 12.93283
940.0587, 12.80224
940.5408, 12.99100
941.0229, 13.15132
941.5050, 13.39940
941.9871, 13.40590
942.4692, 12.83055
942.9514, 12.38906
943.4335, 12.59256
943.9156, 12.96040
944.3977, 12.74233
944.8798, 11.91652
945.3619, 11.54178
945.8441, 12.32241
946.3262, 12.95877
946.8083, 12.79393
947.2904, 12.46682
947.7725, 12.63112
948.2546, 13.05668
948.7368, 13.05013
949.2189, 12.39028
949.7010, 11.85077
950.1831, 12.13974
950.6652, 12.60629
951.1473, 12.52360
951.6295, 12.16686
952.1116, 12.18197
952.5937, 12.52512
953.0758, 12.41256
953.5579, 11.33578
954.0400, 10.14385
954.5222, 10.08878
955.0043, 10.82523
955.4864, 11.43282
955.9685, 11.86252
956.4506, 12.06653
956.9327, 12.03070
957.4149, 11.86258
957.8970, 11.64662
958.3791, 11.39181
958.8612, 11.07219
959.3433, 10.66560
959.8254, 10.56704
960.3076, 10.86954
960.7897, 11.18920
961.2718, 11.38233
961.7539, 11.47556
962.2360, 11.49405
962.7181, 11.43958
963.2003, 11.35636
963.6824, 11.27952
964.1645, 11.09143
964.6466, 10.54482
965.1287, 10.17863
965.6108, 10.52537
966.0930, 11.11853
966.5751, 11.23456
967.0572, 10.81363
967.5393, 10.42431
968.0214, 9.994651
968.5035, 9.778331
968.9857, 10.01896
969.4678, 10.33784
969.9499, 10.45926
970.4320, 10.42565
970.9141, 10.38091
971.3962, 10.35862
971.8784, 10.32408
972.3605, 10.16378
972.8426, 10.09189
973.3247, 10.28508
973.8068, 10.63525
974.2889, 11.16591
974.7711, 11.72352
975.2532, 11.80589
975.7353, 11.10600
976.2174, 10.41290
976.6995, 10.47493
977.1816, 10.95125
977.6638, 11.54125
978.1459, 12.10730
978.6280, 12.35597
979.1101, 12.24449
979.5922, 11.91795
980.0743, 11.43546
980.5565, 10.99552
981.0386, 11.04312
981.5207, 10.80709
982.0028, 10.72077
982.4849, 10.90789
982.9670, 10.73622
983.4492, 11.05623
983.9313, 11.32363
984.4134, 10.96754
984.8955, 10.26097
985.3776, 10.12653
985.8597, 10.58475
986.3419, 10.94062
986.8240, 11.12947
987.3061, 11.33388
987.7882, 11.70713
988.2703, 11.88316
988.7524, 11.32243
989.2346, 10.13473
989.7167, 9.536738
990.1988, 9.716605
990.6809, 9.924066
991.1630, 10.14553
991.6451, 10.27601
992.1273, 10.20874
992.6094, 10.06941
993.0915, 10.06802
993.5736, 10.21931
994.0557, 10.23373
994.5378, 9.787305
995.0200, 9.685090
995.5021, 10.41536
995.9842, 11.06855
996.4663, 11.01423
996.9484, 10.62496
997.4305, 10.54501
997.9127, 10.84910
998.3948, 11.08636
998.8769, 11.23699
999.3590, 11.24035
999.8411, 10.93327
1000.323, 10.60522
1000.805, 10.47446
1001.287, 10.49771
1001.770, 10.59802
1002.252, 10.77042
1002.734, 10.79996
1003.216, 10.40471
1003.698, 10.06628
1004.180, 10.14911
1004.662, 10.37620
1005.144, 10.44934
1005.627, 10.38669
1006.109, 10.32509
1006.591, 10.30878
1007.073, 10.36768
1007.555, 10.64692
1008.037, 10.89154
1008.519, 10.82706
1009.001, 10.57220
1009.483, 10.22717
1009.966, 9.887067
1010.448, 9.787713
1010.930, 10.05047
1011.412, 10.37713
1011.894, 10.41733
1012.376, 10.36534
1012.858, 10.63853
1013.340, 11.04720
1013.823, 10.97022
1014.305, 10.42323
1014.787, 10.16009
1015.269, 10.63445
1015.751, 11.25419
1016.233, 11.14679
1016.715, 10.56952
1017.197, 10.21774
1017.679, 10.07236
1018.162, 9.984115
1018.644, 9.919281
1019.126, 9.888332
1019.608, 9.894180
1020.090, 9.968311
1020.572, 10.27944
1021.054, 10.74223
1021.536, 10.60812
1022.018, 9.905544
1022.501, 9.671103
1022.983, 10.18174
1023.465, 10.69108
1023.947, 10.64517
1024.429, 10.28140
1024.911, 10.05603
1025.393, 9.967482
1025.875, 10.19085
1026.358, 10.79591
1026.840, 11.07949
1027.322, 10.77997
1027.804, 10.50315
1028.286, 10.76264
1028.768, 11.29538
1029.250, 11.40605
1029.732, 11.01398
1030.214, 10.83092
1030.697, 10.91171
1031.179, 11.04187
1031.661, 11.25345
1032.143, 11.29050
1032.625, 10.91539
1033.107, 10.24104
1033.589, 9.543488
1034.071, 8.705737
1034.553, 8.412014
1035.036, 8.970422
1035.518, 9.387704
1036.000, 9.276126
1036.482, 9.158779
1036.964, 9.573815
1037.446, 9.392687
1037.928, 9.311974
1038.410, 9.513196
1038.893, 9.130696
1039.375, 9.391009
1039.857, 9.749058
1040.339, 10.30117
1040.821, 10.67582
1041.303, 10.40621
1041.785, 9.766757
1042.267, 9.588144
1042.750, 10.10465
1043.232, 10.29854
1043.714, 9.706323
1044.196, 9.404904
1044.678, 9.993657
1045.160, 10.62344
1045.642, 10.60663
1046.124, 10.16706
1046.606, 9.839829
1047.089, 9.632126
1047.571, 9.648820
1048.053, 10.24861
1048.535, 10.60588
1049.017, 10.23619
1049.499, 9.786287
1049.981, 9.765395
1050.463, 10.03729
1050.945, 10.27839
1051.428, 10.46356
1051.910, 10.54534
1052.392, 10.45525
1052.874, 10.33983
1053.356, 10.20306
1053.838, 10.09796
1054.320, 10.14096
1054.802, 10.22104
1055.285, 10.06236
1055.767, 9.592921
1056.249, 9.311831
1056.731, 9.560666
1057.213, 9.739520
1057.695, 9.543044
1058.177, 9.276487
1058.659, 9.245962
1059.141, 9.296099
1059.624, 8.984045
1060.106, 8.235480
1060.588, 7.953418
1061.070, 8.883691
1061.552, 9.720448
1062.034, 10.01191
1062.516, 9.952844
1062.998, 9.380090
1063.480, 8.707758
1063.963, 8.701960
1064.445, 9.441865
1064.927, 9.998601
1065.409, 9.968185
1065.891, 9.778178
1066.373, 9.287593
1066.855, 9.011085
1067.337, 9.607683
1067.820, 10.55730
1068.302, 11.09756
1068.784, 11.10226
1069.266, 10.74323
1069.748, 9.658830
1070.230, 8.968591
1070.712, 9.665656
1071.194, 10.43355
1071.677, 10.12397
1072.159, 9.333515
1072.641, 9.034093
1073.123, 9.262246
1073.605, 9.311294
1074.087, 8.667365
1074.569, 8.428675
1075.051, 9.791970
1075.533, 11.01876
1076.016, 10.65484
1076.498, 9.533927
1076.980, 8.650110
1077.462, 8.156856
1077.944, 7.962393
1078.426, 8.092707
1078.908, 8.311846
1079.390, 8.422999
1079.873, 8.684251
1080.355, 9.576211
1080.837, 10.48784
1081.319, 10.60815
1081.801, 10.09497
1082.283, 9.675520
1082.765, 9.580751
1083.247, 9.453829
1083.729, 8.913457
1084.212, 8.556222
1084.694, 9.051620
1085.176, 9.643757
1085.658, 9.455842
1086.140, 8.728247
1086.622, 8.159049
1087.104, 7.910966
1087.586, 7.889735
1088.068, 8.329182
1088.551, 8.636398
1089.033, 8.317605
1089.515, 7.920890
1089.997, 7.924695
1090.479, 8.217695
1090.961, 8.548425
1091.443, 8.864659
1091.925, 9.150279
1092.408, 9.582096
1092.890, 9.732054
1093.372, 9.168750
1093.854, 8.530271
1094.336, 8.139249
1094.818, 8.051133
1095.300, 8.412202
1095.782, 9.153707
1096.265, 9.754776
1096.747, 10.19891
1097.229, 10.22567
1097.711, 9.220628
1098.193, 8.370832
1098.675, 8.554541
1099.157, 9.148198
1099.639, 9.520935
1100.121, 9.594894
1100.604, 9.366206
1101.086, 8.698455
1101.568, 8.154880
1102.050, 7.778047
1102.532, 7.685223
1103.014, 8.075561
1103.496, 8.643810
1103.978, 9.403247
1104.460, 10.06156
1104.943, 9.784108
1105.425, 8.190817
1105.907, 7.250421
1106.389, 7.884679
1106.871, 8.431395
1107.353, 8.272296
1107.835, 8.007491
1108.317, 8.059557
1108.800, 8.290322
1109.282, 8.466767
1109.764, 8.574812
1110.246, 8.552990
1110.728, 8.218929
1111.210, 8.022012
1111.692, 8.063769
1112.174, 8.206621
1112.656, 8.568527
1113.139, 8.875175
1113.621, 8.705751
1114.103, 8.114015
1114.585, 7.714472
1115.067, 7.594088
1115.549, 7.519056
1116.031, 7.482229
1116.513, 7.498599
1116.995, 7.494490
1117.478, 7.631762
1117.960, 8.147964
1118.442, 8.898188
1118.924, 9.441586
1119.406, 9.789897
1119.888, 9.870398
1120.370, 9.549208
1120.852, 9.230849
1121.335, 8.953822
1121.817, 8.779799
1122.299, 8.752080
1122.781, 8.857282
1123.263, 9.124866
1123.745, 9.564100
1124.227, 9.579619
1124.709, 8.937961
1125.192, 8.758001
1125.674, 9.364285
1126.156, 9.853156
1126.638, 9.774358
1127.120, 9.475691
1127.602, 9.360491
1128.084, 9.388073
1128.566, 9.361511
1129.048, 9.276708
1129.531, 9.144171
1130.013, 8.936916
1130.495, 8.959897
1130.977, 8.850569
1131.459, 8.938377
1131.941, 8.758729
1132.423, 9.062572
1132.905, 9.005633
1133.387, 8.788205
1133.870, 9.192114
1134.352, 8.958654
1134.834, 8.887673
1135.316, 9.129455
1135.798, 9.247158
1136.280, 8.994218
1136.762, 8.648000
1137.244, 8.578622
1137.727, 8.682609
1138.209, 8.569186
1138.691, 8.345135
1139.173, 8.648404
1139.655, 9.386037
1140.137, 9.536558
1140.619, 8.797413
1141.101, 8.067738
1141.583, 8.096899
1142.066, 8.483177
1142.548, 8.690923
1143.030, 8.763098
1143.512, 8.795141
1143.994, 8.765057
1144.476, 8.526997
1144.958, 8.125175
1145.440, 7.897819
1145.922, 8.026319
1146.405, 8.189588
1146.887, 7.962729
1147.369, 7.729760
1147.851, 7.990368
1148.333, 8.493224
1148.815, 8.965603
1149.297, 9.308309
1149.779, 9.385753
1150.262, 9.175534
1150.744, 8.857179
1151.226, 8.356013
1151.708, 8.072407
1152.190, 8.510365
1152.672, 9.030450
1153.154, 9.103287
1153.636, 8.894685
1154.119, 8.582136
1154.601, 8.270533
1155.083, 8.233125
1155.565, 8.642833
1156.047, 8.977579
1156.529, 9.104342
1157.011, 9.072274
1157.493, 8.796217
1157.975, 8.469074
1158.458, 8.171054
1158.940, 7.970471
1159.422, 8.033329
1159.904, 8.399570
1160.386, 8.620775
1160.868, 8.591184
1161.350, 8.517262
1161.832, 8.254692
1162.314, 8.173678
1162.797, 8.642545
1163.279, 9.153512
1163.761, 9.134929
1164.243, 8.693797
1164.725, 8.310498
1165.207, 7.910713
1165.689, 7.862345
1166.171, 8.326779
1166.654, 8.633689
1167.136, 8.538309
1167.618, 8.544185
1168.100, 9.067165
1168.582, 9.677129
1169.064, 9.591300
1169.546, 8.907266
1170.028, 8.518264
1170.510, 8.429683
1170.993, 8.395973
1171.475, 8.390584
1171.957, 8.465900
1172.439, 8.644513
1172.921, 8.855957
1173.403, 9.058532
1173.885, 9.171735
1174.367, 8.908643
1174.849, 9.107093
1175.332, 8.528539
1175.814, 8.977753
1176.296, 8.968333
1176.778, 8.450312
1177.260, 8.111514
1177.742, 8.281015
1178.224, 8.471622
1178.706, 8.110271
1179.189, 7.629158
1179.671, 7.566212
1180.153, 7.760569
1180.635, 8.082213
1181.117, 8.424082
1181.599, 8.642046
1182.081, 8.691352
1182.563, 8.510343
1183.046, 7.949280
1183.528, 7.563105
1184.010, 7.851919
1184.492, 8.229021
1184.974, 8.503663
1185.456, 8.489446
1185.938, 7.591157
1186.420, 6.377807
1186.902, 6.345142
1187.385, 7.809097
1187.867, 8.713906
1188.349, 8.126181
1188.831, 7.756295
1189.313, 8.237257
1189.795, 8.623857
1190.277, 8.164810
1190.759, 7.646877
1191.241, 8.026035
1191.724, 8.995215
1192.206, 9.318044
1192.688, 8.805572
1193.170, 8.422647
1193.652, 8.096715
1194.134, 8.205117
1194.616, 9.019202
1195.098, 9.611578
1195.581, 9.442420
1196.063, 8.808780
1196.545, 7.997369
1197.027, 7.194113
1197.509, 7.391984
1197.991, 8.500523
1198.473, 9.055160
1198.955, 8.985467
1199.438, 8.528033
1199.920, 7.802034
1200.402, 7.489908
1200.884, 8.090994
1201.366, 8.848619
1201.848, 8.595974
1202.330, 7.913733
1202.812, 7.990057
1203.294, 8.449198
1203.776, 8.556781
1204.259, 8.300797
1204.741, 7.820364
1205.223, 7.231634
1205.705, 7.009546
1206.187, 7.648872
1206.669, 8.130727
1207.151, 7.305562
1207.633, 6.529583
1208.116, 7.153748
1208.598, 8.210871
1209.080, 8.603366
1209.562, 8.396571
1210.044, 8.006069
1210.526, 7.473694
1211.008, 7.188327
1211.490, 7.286519
1211.973, 7.540225
1212.455, 8.114045
1212.937, 8.579701
1213.419, 8.791822
1213.901, 8.766505
1214.383, 8.380395
1214.865, 7.823404
1215.347, 7.800635
1215.829, 7.637591
1216.312, 7.600241
1216.794, 7.996358
1217.276, 7.948096
1217.758, 8.771346
1218.240, 9.379807
1218.722, 9.230273
1219.204, 8.731088
1219.686, 8.282930
1220.168, 7.952405
1220.651, 7.998661
1221.133, 8.300300
1221.615, 8.396434
1222.097, 8.278949
1222.579, 7.890760
1223.061, 7.327761
1223.543, 7.127013
1224.025, 7.540666
1224.508, 8.069613
1224.990, 8.296286
1225.472, 8.403673
1225.954, 8.546012
1226.436, 8.692910
1226.918, 8.962994
1227.400, 9.128061
1227.882, 8.605223
1228.365, 7.571860
1228.847, 7.091617
1229.329, 7.570508
1229.811, 8.141446
1230.293, 8.892111
1230.775, 9.243176
1231.257, 8.642851
1231.739, 7.980478
1232.221, 7.857483
1232.703, 7.968987
1233.186, 7.880747
1233.668, 7.661538
1234.150, 7.844506
1234.632, 8.715466
1235.114, 8.719977
1235.596, 7.533447
1236.078, 7.069100
1236.560, 7.867129
1237.043, 8.741792
1237.525, 9.022131
1238.007, 8.967762
1238.489, 8.910644
1238.971, 8.793843
1239.453, 8.398531
1239.935, 7.822119
1240.417, 7.346367
1240.900, 7.013122
1241.382, 6.864486
1241.864, 6.914671
1242.346, 7.239385
1242.828, 7.888964
1243.310, 8.469377
1243.792, 8.599994
1244.274, 8.616455
1244.756, 8.809031
1245.239, 8.999091
1245.721, 9.072315
1246.203, 8.987716
1246.685, 8.565234
1247.167, 7.919999
1247.649, 7.679171
1248.131, 8.140263
1248.613, 8.364682
1249.095, 7.939774
1249.578, 7.739443
1250.060, 8.100555
1250.542, 8.413074
1251.024, 8.352372
1251.506, 8.117082
1251.988, 7.918892
1252.470, 7.767407
1252.952, 7.713689
1253.435, 7.760491
1253.917, 7.757050
1254.399, 7.707077
1254.881, 7.865012
1255.363, 8.246079
1255.845, 8.380095
1256.327, 8.052684
1256.809, 7.523880
1257.292, 6.922705
1257.774, 6.536768
1258.256, 7.024111
1258.738, 6.828156
1259.220, 7.778919
1259.702, 7.465581
1260.184, 7.786623
1260.666, 8.523535
1261.148, 8.492001
1261.630, 7.361809
1262.113, 6.765439
1262.595, 7.891479
1263.077, 8.744156
1263.559, 8.492974
1264.041, 8.170617
1264.523, 8.324641
1265.005, 8.582930
1265.487, 8.602924
1265.970, 8.493127
1266.452, 8.531692
1266.934, 8.725366
1267.416, 8.557972
1267.898, 7.928393
1268.380, 7.771365
1268.862, 8.202904
1269.344, 8.612241
1269.827, 8.803212
1270.309, 8.881583
1270.791, 8.928327
1271.273, 8.874323
1271.755, 8.540403
1272.237, 8.098810
1272.719, 7.839619
1273.201, 7.724222
1273.683, 7.654169
1274.166, 7.678072
1274.648, 8.082566
1275.130, 8.767553
1275.612, 8.959865
1276.094, 8.218767
1276.576, 7.646929
1277.058, 7.774743
1277.540, 8.025274
1278.022, 8.291407
1278.505, 8.483152
1278.987, 8.505963
1279.469, 8.452403
1279.951, 8.447936
1280.433, 8.270405
1280.915, 8.271289
1281.397, 7.867691
1281.879, 7.566735
1282.362, 7.353254
1282.844, 7.485724
1283.326, 8.012430
1283.808, 8.410141
1284.290, 8.461255
1284.772, 8.460316
1285.254, 8.636598
1285.736, 8.989880
##END=



