##NAMES=Fayalite
##RRUFFID=R100102
##IDEAL CHEMISTRY=Fe^2+^_2_SiO_4_
##LOCALITY=Bushveld Intrusive, 7 km east of Olepane, Limpopo Province, South Africa
##OWNER=RRUFF
##SOURCE=American Museum of Natural History
##DESCRIPTION=Pale brown fragments, variety hortonolite
##STATUS=The identification of this mineral is confirmed by single-crystal X-ray diffraction and chemical analysis.
##URL=rruff.info/R100102
##MEASURED CHEMISTRY=(Fe^+2^_1.100_Mg_0.883_Mn^+2^_0.014_Ca_0.002_Zn_0.001_Al_0.001_)_Î£=2.001_Si_0.999_O_4_
121.9066, 90.57491
122.3887, 90.66562
122.8708, 90.45484
123.3529, 89.67245
123.8350, 88.90065
124.3171, 88.49326
124.7993, 88.42259
125.2814, 88.34483
125.7635, 87.89990
126.2456, 86.98647
126.7277, 86.12514
127.2098, 85.28921
127.6920, 84.52377
128.1741, 83.87431
128.6562, 83.35670
129.1383, 82.93711
129.6204, 82.65833
130.1025, 82.50577
130.5847, 82.22100
131.0668, 81.63933
131.5489, 80.82954
132.0310, 80.02122
132.5131, 79.20425
132.9952, 78.46612
133.4774, 77.89212
133.9595, 77.48148
134.4416, 77.09861
134.9237, 76.63399
135.4058, 76.08096
135.8879, 75.48098
136.3701, 74.91833
136.8522, 74.26437
137.3343, 73.31269
137.8164, 72.02848
138.2985, 70.75613
138.7806, 70.11914
139.2628, 70.57321
139.7449, 70.86620
140.2270, 70.81571
140.7091, 70.60629
141.1912, 70.42905
141.6733, 70.37025
142.1555, 70.34113
142.6376, 70.03537
143.1197, 69.09760
143.6018, 68.25908
144.0839, 67.68328
144.5660, 67.24582
145.0482, 66.73769
145.5303, 66.03011
146.0124, 65.15459
146.4945, 64.33645
146.9766, 63.32849
147.4587, 62.59518
147.9409, 62.62247
148.4230, 63.22328
148.9051, 63.52253
149.3872, 62.75695
149.8693, 61.12950
150.3514, 60.05206
150.8336, 59.76184
151.3157, 59.89753
151.7978, 60.26209
152.2799, 60.89801
152.7620, 61.43620
153.2441, 61.51036
153.7263, 61.29601
154.2084, 61.05037
154.6905, 60.85299
155.1726, 60.68241
155.6547, 60.50588
156.1368, 60.36970
156.6190, 60.13308
157.1011, 59.64453
157.5832, 59.01512
158.0653, 58.45284
158.5474, 58.07457
159.0295, 57.87717
159.5117, 57.83026
159.9938, 58.14704
160.4759, 58.40928
160.9580, 58.41633
161.4401, 58.23195
161.9222, 58.03837
162.4044, 57.99473
162.8865, 58.11728
163.3686, 58.30324
163.8507, 58.90918
164.3328, 59.27851
164.8149, 59.02767
165.2971, 58.19245
165.7792, 57.10201
166.2613, 56.09275
166.7434, 55.07174
167.2255, 54.50100
167.7076, 54.69749
168.1898, 55.05618
168.6719, 55.15356
169.1540, 54.90596
169.6361, 54.51415
170.1182, 54.25975
170.6003, 54.22532
171.0825, 54.12479
171.5646, 53.74353
172.0467, 53.36878
172.5288, 53.42281
173.0109, 54.07110
173.4930, 54.89158
173.9752, 55.10932
174.4573, 54.65465
174.9394, 54.31742
175.4215, 54.40703
175.9036, 54.77837
176.3857, 55.12993
176.8679, 55.41985
177.3500, 55.58813
177.8321, 55.53546
178.3142, 55.24422
178.7963, 54.96288
179.2784, 54.91591
179.7606, 55.05821
180.2427, 55.00360
180.7248, 54.44528
181.2069, 53.83018
181.6890, 53.54374
182.1711, 53.61914
182.6533, 53.87632
183.1354, 54.26847
183.6175, 54.85575
184.0996, 55.10086
184.5817, 54.43999
185.0638, 53.65666
185.5460, 53.22535
186.0281, 53.24363
186.5102, 53.44135
186.9923, 53.43394
187.4744, 53.12313
187.9565, 52.86487
188.4387, 52.72902
188.9208, 52.63802
189.4029, 52.56252
189.8850, 52.48740
190.3671, 52.37976
190.8492, 52.16146
191.3314, 51.70768
191.8135, 51.34988
192.2956, 51.02468
192.7777, 50.83049
193.2598, 50.91945
193.7419, 51.34185
194.2241, 51.93333
194.7062, 52.29834
195.1883, 52.42854
195.6704, 52.29245
196.1525, 51.68870
196.6346, 50.88295
197.1168, 50.15948
197.5989, 49.63894
198.0810, 49.29274
198.5631, 49.05328
199.0452, 49.00376
199.5273, 48.94209
200.0095, 48.82690
200.4916, 48.68080
200.9737, 48.50771
201.4558, 48.28019
201.9379, 48.08612
202.4200, 48.23143
202.9022, 49.01652
203.3843, 49.56260
203.8664, 49.37614
204.3485, 48.68515
204.8306, 48.11995
205.3127, 47.96636
205.7949, 48.08802
206.2770, 48.18026
206.7591, 48.29161
207.2412, 48.28454
207.7233, 48.02325
208.2054, 47.54345
208.6876, 47.06953
209.1697, 46.68312
209.6518, 46.35832
210.1339, 46.02629
210.6160, 45.65119
211.0981, 45.37019
211.5803, 45.40449
212.0624, 45.75574
212.5445, 45.89727
213.0266, 45.36507
213.5087, 44.70935
213.9908, 44.51818
214.4730, 44.94794
214.9551, 45.45464
215.4372, 45.33362
215.9193, 44.44470
216.4014, 43.80079
216.8835, 44.03717
217.3657, 44.43377
217.8478, 44.37985
218.3299, 43.71662
218.8120, 43.07876
219.2941, 43.56105
219.7762, 45.72650
220.2584, 47.12980
220.7405, 46.82243
221.2226, 45.97290
221.7047, 45.34431
222.1868, 45.14402
222.6689, 45.08364
223.1511, 44.64190
223.6332, 43.46944
224.1153, 42.72698
224.5974, 42.63459
225.0795, 42.86224
225.5616, 43.30114
226.0438, 43.88229
226.5259, 44.41908
227.0080, 44.57052
227.4901, 44.12452
227.9722, 43.64583
228.4543, 42.93531
228.9365, 42.33407
229.4186, 42.18107
229.9007, 42.54487
230.3828, 43.16425
230.8649, 43.58773
231.3470, 43.71064
231.8292, 43.78185
232.3113, 43.73165
232.7934, 43.67406
233.2755, 43.81960
233.7576, 44.19083
234.2397, 44.46459
234.7219, 44.06083
235.2040, 42.15150
235.6861, 41.07071
236.1682, 41.31519
236.6503, 42.09455
237.1324, 42.69409
237.6146, 42.92549
238.0967, 43.10369
238.5788, 43.75020
239.0609, 45.30425
239.5430, 46.25712
240.0251, 46.28343
240.5073, 45.81776
240.9894, 45.13713
241.4715, 44.30894
241.9536, 43.61187
242.4357, 43.48803
242.9178, 44.10830
243.4000, 44.55148
243.8821, 44.66463
244.3642, 44.59081
244.8463, 44.50391
245.3284, 44.44282
245.8106, 44.27072
246.2927, 43.66434
246.7748, 42.58214
247.2569, 42.04516
247.7390, 42.64138
248.2211, 43.67254
248.7033, 44.34626
249.1854, 44.54182
249.6675, 44.41203
250.1496, 43.91465
250.6317, 43.12274
251.1138, 42.61061
251.5960, 42.84087
252.0781, 43.26898
252.5602, 43.11166
253.0423, 42.22117
253.5244, 41.20156
254.0065, 40.40802
254.4887, 39.87267
254.9708, 39.80834
255.4529, 40.84212
255.9350, 42.14959
256.4171, 42.37810
256.8992, 41.24413
257.3813, 40.15827
257.8635, 40.48237
258.3456, 41.52319
258.8277, 42.12296
259.3098, 41.70022
259.7919, 40.80982
260.2740, 40.20055
260.7562, 39.89300
261.2383, 39.77783
261.7204, 39.88477
262.2025, 40.12782
262.6846, 40.44054
263.1667, 40.87269
263.6489, 41.28241
264.1310, 41.45009
264.6131, 41.33273
265.0952, 41.15946
265.5773, 41.08000
266.0594, 40.97615
266.5416, 40.69680
267.0237, 40.15721
267.5058, 39.54980
267.9879, 39.04679
268.4700, 38.58882
268.9521, 38.52421
269.4343, 39.50502
269.9164, 40.65852
270.3985, 41.28857
270.8806, 41.20745
271.3627, 40.81309
271.8448, 40.59286
272.3270, 40.59454
272.8091, 40.51481
273.2912, 40.00686
273.7733, 39.57155
274.2554, 39.60577
274.7375, 40.16242
275.2197, 40.84686
275.7018, 41.18826
276.1839, 41.11541
276.6660, 41.15445
277.1481, 41.58757
277.6302, 41.99653
278.1124, 42.25227
278.5945, 42.30822
279.0766, 42.07148
279.5587, 41.30968
280.0408, 39.92938
280.5229, 38.85373
281.0051, 38.09436
281.4872, 37.71516
281.9693, 37.94216
282.4514, 38.63554
282.9335, 39.37405
283.4156, 39.81364
283.8978, 39.95000
284.3799, 39.99601
284.8620, 39.91022
285.3441, 39.76394
285.8262, 39.55822
286.3083, 39.31105
286.7905, 39.05130
287.2726, 38.79532
287.7547, 38.54457
288.2368, 38.30429
288.7189, 37.84135
289.2010, 37.69889
289.6832, 38.28403
290.1653, 39.21852
290.6474, 39.96991
291.1295, 40.24343
291.6116, 40.08494
292.0938, 39.62916
292.5759, 38.48078
293.0580, 37.61295
293.5401, 37.31394
294.0222, 37.32823
294.5043, 37.34875
294.9865, 37.23321
295.4686, 37.12178
295.9507, 37.42387
296.4328, 38.65410
296.9149, 39.35347
297.3970, 38.93756
297.8792, 38.22627
298.3613, 37.98186
298.8434, 38.41884
299.3255, 39.11578
299.8076, 39.33401
300.2897, 38.74714
300.7719, 38.41859
301.2540, 38.49420
301.7361, 38.72864
302.2182, 39.08845
302.7003, 39.50475
303.1824, 39.76895
303.6646, 39.54711
304.1467, 38.60160
304.6288, 38.04251
305.1109, 38.26060
305.5930, 38.49649
306.0751, 38.32555
306.5573, 37.81471
307.0394, 37.33324
307.5215, 37.22576
308.0036, 37.51826
308.4857, 37.80445
308.9678, 38.26367
309.4500, 38.53595
309.9321, 38.32030
310.4142, 37.83698
310.8963, 37.57862
311.3784, 37.94637
311.8605, 38.79461
312.3427, 38.95234
312.8248, 37.37712
313.3069, 36.31555
313.7890, 36.45937
314.2711, 37.25683
314.7532, 38.01585
315.2354, 38.39740
315.7175, 38.48717
316.1996, 38.52208
316.6817, 38.51826
317.1638, 38.42138
317.6459, 38.07856
318.1281, 37.72980
318.6102, 37.63231
319.0923, 37.85473
319.5744, 38.20583
320.0565, 38.34309
320.5386, 38.08661
321.0208, 38.03748
321.5029, 38.63721
321.9850, 39.10804
322.4671, 38.73653
322.9492, 37.57772
323.4313, 36.44442
323.9135, 36.35286
324.3956, 37.63944
324.8777, 38.25016
325.3598, 37.31025
325.8419, 36.50483
326.3240, 36.63865
326.8062, 37.49333
327.2883, 38.32660
327.7704, 38.55200
328.2525, 38.20646
328.7346, 37.96857
329.2167, 38.02443
329.6989, 37.97525
330.1810, 37.71702
330.6631, 37.29699
331.1452, 36.77683
331.6273, 36.17993
332.1094, 35.53655
332.5916, 34.90584
333.0737, 34.07568
333.5558, 33.66043
334.0379, 34.18458
334.5200, 34.88724
335.0021, 34.93437
335.4843, 34.07605
335.9664, 32.94068
336.4485, 32.68991
336.9306, 33.87057
337.4127, 34.28536
337.8948, 32.94259
338.3770, 31.40409
338.8591, 30.47815
339.3412, 30.27929
339.8233, 30.56233
340.3054, 31.37290
340.7875, 32.85637
341.2697, 33.33819
341.7518, 31.56497
342.2339, 29.97586
342.7160, 29.70815
343.1981, 30.39632
343.6802, 31.02449
344.1624, 30.82428
344.6445, 30.02471
345.1266, 29.83928
345.6087, 30.78276
346.0908, 31.50579
346.5729, 31.37931
347.0551, 30.87576
347.5372, 30.58401
348.0193, 30.75115
348.5014, 31.19911
348.9835, 31.71052
349.4656, 32.43303
349.9478, 32.70775
350.4299, 31.84183
350.9120, 30.78029
351.3941, 30.27188
351.8762, 30.44730
352.3583, 30.75091
352.8405, 30.51864
353.3226, 29.72606
353.8047, 29.28517
354.2868, 29.68920
354.7689, 30.08539
355.2510, 29.82224
355.7332, 29.03549
356.2153, 28.35640
356.6974, 28.30627
357.1795, 28.71127
357.6616, 28.88960
358.1437, 28.77871
358.6259, 28.54911
359.1080, 28.07931
359.5901, 27.59759
360.0722, 27.50616
360.5543, 28.05300
361.0364, 28.92965
361.5186, 29.84919
362.0007, 30.86183
362.4828, 31.46286
362.9649, 31.20198
363.4470, 30.53798
363.9291, 29.97269
364.4113, 29.56010
364.8934, 29.22357
365.3755, 28.85095
365.8576, 28.48073
366.3397, 28.35751
366.8218, 28.64383
367.3040, 29.03866
367.7861, 29.28332
368.2682, 29.38376
368.7503, 29.28250
369.2325, 28.67095
369.7146, 27.92582
370.1967, 27.84448
370.6788, 28.61328
371.1609, 29.28951
371.6430, 28.88796
372.1252, 27.78705
372.6073, 27.26950
373.0894, 28.11662
373.5715, 29.11229
374.0536, 29.18321
374.5357, 28.47544
375.0179, 27.82789
375.5000, 27.57122
375.9821, 27.71162
376.4642, 28.30355
376.9463, 29.62751
377.4284, 30.69634
377.9106, 30.97626
378.3927, 30.79761
378.8748, 30.74006
379.3569, 30.96829
379.8390, 31.25163
380.3211, 31.27468
380.8033, 30.97742
381.2854, 30.76494
381.7675, 30.66468
382.2496, 30.66009
382.7317, 30.78036
383.2138, 31.00603
383.6960, 31.23938
384.1781, 31.42941
384.6602, 31.56565
385.1423, 31.51406
385.6244, 30.93665
386.1065, 30.58095
386.5887, 30.73501
387.0708, 31.26795
387.5529, 32.10238
388.0350, 33.23632
388.5171, 34.28984
388.9992, 34.39216
389.4814, 32.12636
389.9635, 31.11270
390.4456, 32.61423
390.9277, 34.51241
391.4098, 34.88542
391.8919, 33.60844
392.3741, 32.07775
392.8562, 31.77876
393.3383, 32.90306
393.8204, 33.80089
394.3025, 34.51049
394.7846, 34.97614
395.2668, 34.97911
395.7489, 34.74479
396.2310, 34.74329
396.7131, 35.29325
397.1952, 36.10362
397.6773, 36.11304
398.1595, 34.65189
398.6416, 33.47709
399.1237, 32.83332
399.6058, 32.51876
400.0879, 32.38186
400.5700, 32.37849
401.0522, 32.51951
401.5343, 32.88403
402.0164, 33.53678
402.4985, 34.01897
402.9806, 34.35232
403.4627, 34.45276
403.9449, 34.02864
404.4270, 33.32228
404.9091, 32.96790
405.3912, 33.59486
405.8733, 34.73956
406.3554, 34.83055
406.8376, 33.40954
407.3197, 32.07506
407.8018, 31.47318
408.2839, 31.27366
408.7660, 31.22930
409.2481, 31.31081
409.7303, 31.37925
410.2124, 31.30562
410.6945, 31.09299
411.1766, 30.77974
411.6587, 30.32535
412.1408, 29.82979
412.6230, 29.30752
413.1051, 28.78457
413.5872, 28.48907
414.0693, 28.92113
414.5514, 29.48990
415.0335, 29.00096
415.5157, 27.27218
415.9978, 25.77433
416.4799, 25.47690
416.9620, 26.17090
417.4441, 27.04958
417.9262, 28.44213
418.4084, 29.54133
418.8905, 29.75824
419.3726, 29.32166
419.8547, 28.81111
420.3368, 28.42484
420.8189, 28.02863
421.3011, 27.29402
421.7832, 25.98370
422.2653, 25.35757
422.7474, 26.24310
423.2295, 27.40106
423.7116, 27.67779
424.1938, 27.06369
424.6759, 26.35917
425.1580, 26.19118
425.6401, 26.52469
426.1222, 26.70157
426.6043, 26.92385
427.0865, 26.78518
427.5686, 25.72718
428.0507, 24.38847
428.5328, 23.72695
429.0149, 24.09723
429.4970, 24.97290
429.9792, 25.44947
430.4613, 25.43598
430.9434, 25.18782
431.4255, 24.38492
431.9076, 23.66638
432.3897, 23.45771
432.8719, 23.68028
433.3540, 23.95859
433.8361, 23.99042
434.3182, 23.82302
434.8003, 23.80371
435.2824, 24.00636
435.7646, 24.25439
436.2467, 24.53795
436.7288, 24.82133
437.2109, 25.17848
437.6930, 25.63925
438.1751, 25.81385
438.6573, 24.88717
439.1394, 22.71907
439.6215, 21.48596
440.1036, 22.05890
440.5857, 23.02203
441.0678, 23.55132
441.5500, 23.68101
442.0321, 23.61822
442.5142, 23.38964
442.9963, 23.06639
443.4784, 22.70670
443.9605, 22.27583
444.4427, 22.09167
444.9248, 22.45521
445.4069, 23.10533
445.8890, 23.60265
446.3711, 23.95492
446.8532, 24.08788
447.3354, 23.74640
447.8175, 23.17929
448.2996, 23.02289
448.7817, 23.47799
449.2638, 23.96373
449.7459, 23.77994
450.2281, 22.87408
450.7102, 22.27288
451.1923, 22.26682
451.6744, 22.35000
452.1565, 22.11260
452.6386, 21.68459
453.1208, 21.52172
453.6029, 21.88530
454.0850, 22.58269
454.5671, 23.08091
455.0492, 23.25315
455.5313, 23.38306
456.0135, 23.47991
456.4956, 23.53243
456.9777, 23.55022
457.4598, 23.52281
457.9419, 23.40456
458.4240, 23.13864
458.9062, 22.72313
459.3883, 22.33109
459.8704, 21.86989
460.3525, 21.54537
460.8346, 21.51837
461.3167, 21.60995
461.7989, 21.54879
462.2810, 21.22674
462.7631, 20.89061
463.2452, 20.99273
463.7273, 21.63956
464.2094, 22.08595
464.6916, 22.06500
465.1737, 21.97910
465.6558, 22.04657
466.1379, 22.25032
466.6200, 22.49187
467.1021, 22.76812
467.5843, 23.02506
468.0664, 23.13058
468.5485, 23.06514
469.0306, 22.97913
469.5127, 22.82018
469.9948, 22.76232
470.4770, 23.18517
470.9591, 24.33782
471.4412, 25.07390
471.9233, 24.39691
472.4054, 23.01897
472.8875, 22.28459
473.3697, 22.45254
473.8518, 22.92896
474.3339, 23.25390
474.8160, 23.41173
475.2981, 23.38725
475.7802, 23.00775
476.2624, 22.63314
476.7445, 22.41157
477.2266, 22.31012
477.7087, 22.29577
478.1908, 22.35780
478.6729, 22.39286
479.1551, 22.18221
479.6372, 21.43542
480.1193, 21.14548
480.6014, 21.86701
481.0835, 22.48547
481.5656, 22.14652
482.0478, 21.14575
482.5299, 20.39734
483.0120, 20.52322
483.4941, 21.31347
483.9762, 21.99322
484.4583, 22.54888
484.9405, 23.01515
485.4226, 23.71125
485.9047, 24.12518
486.3868, 23.55048
486.8689, 22.02062
487.3510, 20.68649
487.8332, 20.67331
488.3153, 21.72475
488.7974, 22.65472
489.2795, 23.50852
489.7616, 24.01894
490.2437, 23.61843
490.7259, 22.85840
491.2080, 22.62092
491.6901, 23.25704
492.1722, 24.05280
492.6543, 24.66825
493.1364, 25.04219
493.6186, 24.92904
494.1007, 24.20390
494.5828, 23.23068
495.0649, 22.32580
495.5470, 21.47860
496.0291, 21.05714
496.5113, 21.25676
496.9934, 21.71261
497.4755, 22.49580
497.9576, 23.35985
498.4397, 23.66124
498.9218, 23.05695
499.4040, 22.04355
499.8861, 21.75684
500.3682, 22.74600
500.8503, 23.47624
501.3324, 24.02999
501.8145, 24.29254
502.2967, 23.98464
502.7788, 23.29489
503.2609, 22.76950
503.7430, 22.81215
504.2251, 23.27998
504.7072, 23.63345
505.1894, 23.87269
505.6715, 23.99615
506.1536, 23.87450
506.6357, 23.72494
507.1178, 23.70651
507.5999, 23.84098
508.0821, 24.07393
508.5642, 24.51746
509.0463, 25.02548
509.5284, 25.03621
510.0105, 24.36148
510.4926, 23.89939
510.9748, 24.41017
511.4569, 25.47933
511.9390, 26.13224
512.4211, 26.27064
512.9032, 26.06731
513.3853, 25.26275
513.8674, 24.26264
514.3495, 23.76611
514.8317, 23.92588
515.3138, 24.54961
515.7959, 25.56189
516.2780, 27.03101
516.7601, 27.80033
517.2422, 27.47031
517.7244, 27.01283
518.2065, 26.68529
518.6886, 26.45765
519.1707, 26.23054
519.6528, 25.97527
520.1349, 25.79601
520.6171, 25.89851
521.0992, 26.39710
521.5813, 26.71151
522.0634, 26.72515
522.5455, 26.65791
523.0276, 26.41288
523.5098, 26.17033
523.9919, 26.32091
524.4740, 27.15907
524.9561, 28.11068
525.4382, 28.21442
525.9203, 27.45036
526.4025, 26.99048
526.8846, 27.40125
527.3667, 27.79940
527.8488, 27.05369
528.3309, 25.38963
528.8130, 24.29575
529.2952, 24.63536
529.7773, 25.40056
530.2594, 25.81632
530.7415, 25.86445
531.2236, 25.51157
531.7057, 24.66110
532.1879, 23.64044
532.6700, 23.09516
533.1521, 23.29186
533.6342, 23.37512
534.1163, 23.34749
534.5984, 23.18859
535.0806, 22.71106
535.5627, 22.07841
536.0448, 21.73369
536.5269, 21.97287
537.0090, 22.59767
537.4911, 23.03940
537.9733, 23.37766
538.4554, 23.34821
538.9375, 22.30179
539.4196, 21.40426
539.9017, 21.57915
540.3839, 22.65257
540.8660, 23.63979
541.3481, 23.96656
541.8302, 23.75173
542.3123, 23.03284
542.7944, 21.69355
543.2766, 20.92480
543.7587, 21.55859
544.2408, 22.71439
544.7229, 23.02453
545.2050, 22.37724
545.6871, 21.93609
546.1693, 22.35472
546.6514, 23.01815
547.1335, 23.13976
547.6156, 22.77032
548.0977, 22.61203
548.5798, 23.11941
549.0620, 24.10294
549.5441, 24.91830
550.0262, 25.85601
550.5083, 26.19123
550.9904, 25.27509
551.4725, 24.24314
551.9547, 24.08704
552.4368, 24.68746
552.9189, 25.18974
553.4010, 24.92182
553.8831, 24.10297
554.3652, 23.65235
554.8474, 23.77328
555.3295, 23.75393
555.8116, 23.04448
556.2937, 22.38804
556.7758, 22.46337
557.2579, 23.25016
557.7401, 23.96378
558.2222, 24.02614
558.7043, 23.76693
559.1864, 23.73822
559.6685, 23.95559
560.1506, 24.33768
560.6328, 24.98092
561.1149, 25.63340
561.5970, 25.67470
562.0791, 24.93983
562.5612, 24.26649
563.0433, 23.81930
563.5255, 23.48577
564.0076, 23.12701
564.4897, 22.77829
564.9718, 22.60037
565.4539, 22.69871
565.9360, 23.03433
566.4182, 23.51809
566.9003, 24.50222
567.3824, 24.95610
567.8645, 24.41747
568.3466, 23.72710
568.8287, 23.34000
569.3109, 23.27857
569.7930, 23.42842
570.2751, 23.81074
570.7572, 24.26231
571.2393, 24.42933
571.7214, 24.29766
572.2036, 24.04022
572.6857, 23.61003
573.1678, 23.18820
573.6499, 23.03625
574.1320, 23.14609
574.6141, 23.14991
575.0963, 22.87344
575.5784, 22.50978
576.0605, 22.11433
576.5426, 21.76286
577.0247, 21.71149
577.5068, 22.10093
577.9890, 22.70184
578.4711, 23.10804
578.9532, 23.37680
579.4353, 23.27235
579.9174, 22.42279
580.3995, 21.61947
580.8817, 21.24722
581.3638, 21.20547
581.8459, 21.26494
582.3280, 21.32370
582.8101, 21.38967
583.2922, 21.51627
583.7744, 21.71855
584.2565, 21.74302
584.7386, 21.48577
585.2207, 21.14054
585.7028, 20.69649
586.1849, 20.27024
586.6671, 20.21378
587.1492, 20.96097
587.6313, 21.62852
588.1134, 21.42972
588.5955, 20.67704
589.0776, 20.03454
589.5598, 19.66426
590.0419, 19.60567
590.5240, 19.96018
591.0061, 20.75188
591.4882, 21.36241
591.9703, 21.78359
592.4525, 22.05961
592.9346, 22.26600
593.4167, 22.29947
593.8988, 21.96846
594.3809, 21.27134
594.8630, 20.48627
595.3452, 19.82697
595.8273, 19.31257
596.3094, 19.21544
596.7915, 19.77759
597.2736, 20.20331
597.7557, 19.83534
598.2379, 19.31561
598.7200, 19.48475
599.2021, 20.53608
599.6842, 21.24312
600.1663, 20.55944
600.6484, 19.36739
601.1306, 18.99351
601.6127, 19.46237
602.0948, 19.97799
602.5769, 20.09659
603.0590, 19.92773
603.5411, 19.76541
604.0233, 19.49757
604.5054, 19.43546
604.9875, 19.85079
605.4696, 20.23028
605.9517, 20.15549
606.4338, 19.76624
606.9160, 19.46618
607.3981, 19.47582
607.8802, 19.71504
608.3623, 20.15578
608.8444, 20.88362
609.3265, 21.05777
609.8087, 20.04823
610.2908, 19.10658
610.7729, 19.43770
611.2550, 20.58965
611.7371, 21.19962
612.2192, 20.65445
612.7014, 19.80348
613.1835, 18.99154
613.6656, 18.36049
614.1477, 18.34870
614.6298, 19.05832
615.1119, 19.89937
615.5941, 20.26592
616.0762, 20.15563
616.5583, 20.16999
617.0405, 20.40383
617.5226, 20.64377
618.0047, 21.15981
618.4868, 21.48120
618.9689, 20.92018
619.4510, 19.52644
619.9332, 18.23641
620.4153, 17.83426
620.8974, 18.16319
621.3795, 18.81182
621.8616, 19.90748
622.3438, 20.62067
622.8259, 20.42968
623.3080, 19.88760
623.7901, 19.79402
624.2722, 20.18103
624.7543, 20.36618
625.2365, 19.87486
625.7186, 19.35655
626.2007, 19.41405
626.6828, 19.89871
627.1649, 20.40054
627.6470, 20.75501
628.1292, 20.85841
628.6113, 20.46486
629.0934, 19.33322
629.5755, 18.71206
630.0576, 19.20462
630.5397, 19.57854
631.0219, 19.17420
631.5040, 18.55352
631.9861, 18.62898
632.4682, 19.68729
632.9503, 20.76784
633.4324, 20.94557
633.9146, 20.44022
634.3967, 19.83955
634.8788, 19.15180
635.3609, 18.75544
635.8430, 18.93952
636.3251, 19.53499
636.8073, 20.10266
637.2894, 20.81549
637.7715, 21.12125
638.2536, 20.67934
638.7357, 20.01365
639.2178, 19.28881
639.7000, 18.69416
640.1821, 18.66739
640.6642, 19.48336
641.1463, 20.66299
641.6284, 21.17753
642.1105, 20.85900
642.5927, 20.77352
643.0748, 21.18826
643.5569, 21.62273
644.0390, 21.84738
644.5211, 21.89444
645.0032, 21.84354
645.4854, 21.76225
645.9675, 21.47005
646.4496, 20.44766
646.9317, 19.24869
647.4138, 19.09283
647.8959, 20.08907
648.3781, 21.13453
648.8602, 21.42307
649.3423, 21.07694
649.8244, 20.64459
650.3065, 19.67017
650.7886, 19.31843
651.2708, 20.15034
651.7529, 21.13570
652.2350, 21.61225
652.7171, 21.63987
653.1992, 21.57648
653.6813, 21.57667
654.1635, 21.66501
654.6456, 21.97090
655.1277, 22.46081
655.6098, 22.69320
656.0919, 22.54041
656.5740, 22.23648
657.0562, 21.91075
657.5383, 21.59236
658.0204, 21.44157
658.5025, 21.76818
658.9846, 21.87539
659.4667, 21.24352
659.9489, 20.48808
660.4310, 20.36985
660.9131, 20.86822
661.3952, 21.29571
661.8773, 21.08545
662.3594, 20.54971
662.8416, 20.87893
663.3237, 22.49109
663.8058, 23.40567
664.2879, 22.69185
664.7700, 21.77800
665.2521, 21.91485
665.7343, 22.73555
666.2164, 22.92171
666.6985, 21.43620
667.1806, 20.10306
667.6627, 20.57077
668.1448, 22.01064
668.6270, 22.88131
669.1091, 22.86927
669.5912, 22.37717
670.0733, 21.65436
670.5554, 20.80267
671.0375, 20.57382
671.5197, 21.49523
672.0018, 22.18215
672.4839, 22.35936
672.9660, 22.38641
673.4481, 22.49644
673.9302, 22.67637
674.4124, 22.79598
674.8945, 22.76188
675.3766, 22.68151
675.8587, 22.73240
676.3408, 22.86678
676.8229, 22.83357
677.3051, 22.55570
677.7872, 22.24920
678.2693, 22.09102
678.7514, 22.07582
679.2335, 22.14711
679.7156, 22.40202
680.1978, 22.60471
680.6799, 22.68405
681.1620, 22.72781
681.6441, 22.86681
682.1262, 23.05186
682.6083, 23.06274
683.0905, 22.71454
683.5726, 22.22588
684.0547, 22.13095
684.5368, 22.42865
685.0189, 22.17091
685.5010, 20.86810
685.9832, 19.69408
686.4653, 19.81815
686.9474, 20.96733
687.4295, 21.65765
687.9116, 21.44751
688.3937, 21.33256
688.8759, 21.71366
689.3580, 22.25195
689.8401, 22.65891
690.3222, 22.88435
690.8043, 22.95395
691.2864, 22.87948
691.7686, 22.68449
692.2507, 22.38119
692.7328, 21.92748
693.2149, 21.63862
693.6970, 21.60202
694.1791, 21.67480
694.6613, 21.92075
695.1434, 22.18565
695.6255, 22.05681
696.1076, 21.16854
696.5897, 20.50369
697.0718, 20.67252
697.5540, 21.21254
698.0361, 21.61935
698.5182, 21.83734
699.0003, 21.99667
699.4824, 22.18367
699.9645, 22.32606
700.4467, 22.20617
700.9288, 21.71345
701.4109, 21.37192
701.8930, 21.24964
702.3751, 21.24134
702.8572, 21.42673
703.3394, 21.64487
703.8215, 21.54388
704.3036, 20.92058
704.7857, 20.52543
705.2678, 20.96725
705.7499, 21.80078
706.2321, 22.49494
706.7142, 22.99545
707.1963, 23.35035
707.6784, 23.58691
708.1605, 23.70047
708.6426, 23.70969
709.1248, 23.69172
709.6069, 23.28126
710.0890, 21.89294
710.5711, 20.80289
711.0532, 20.49965
711.5353, 20.71160
712.0175, 21.22245
712.4996, 22.01376
712.9817, 22.51975
713.4638, 22.07418
713.9459, 21.32281
714.4280, 21.18113
714.9102, 21.60138
715.3923, 22.20929
715.8744, 22.87797
716.3565, 23.39372
716.8386, 23.40556
717.3207, 22.82752
717.8029, 22.37116
718.2850, 22.10090
718.7671, 21.88306
719.2492, 21.57192
719.7313, 21.37119
720.2134, 21.60682
720.6956, 22.25368
721.1777, 22.74765
721.6598, 22.63866
722.1419, 22.27648
722.6240, 22.12742
723.1061, 22.12535
723.5883, 21.90833
724.0704, 21.34454
724.5525, 20.96793
725.0346, 21.44940
725.5167, 22.74743
725.9988, 23.31724
726.4810, 22.58563
726.9631, 21.93436
727.4452, 21.23085
727.9273, 20.90044
728.4094, 21.58140
728.8915, 22.97680
729.3737, 23.96171
729.8558, 23.92813
730.3379, 23.43242
730.8200, 22.87259
731.3021, 22.33868
731.7842, 22.09946
732.2664, 22.19961
732.7485, 22.51210
733.2306, 23.00746
733.7127, 23.56451
734.1948, 23.68863
734.6769, 23.10582
735.1591, 22.58253
735.6412, 21.83272
736.1233, 21.44688
736.6054, 22.10180
737.0875, 23.24661
737.5696, 23.78809
738.0518, 23.29644
738.5339, 22.70374
739.0160, 22.79279
739.4981, 23.27066
739.9802, 23.73933
740.4623, 24.11770
740.9445, 23.99632
741.4266, 23.08086
741.9087, 21.97912
742.3908, 21.85208
742.8729, 23.02873
743.3550, 23.75572
743.8372, 23.73068
744.3193, 23.60122
744.8014, 23.46784
745.2835, 23.36005
745.7656, 23.34370
746.2477, 23.41464
746.7299, 23.39607
747.2120, 23.03000
747.6941, 22.64430
748.1762, 22.74308
748.6583, 23.14971
749.1404, 23.19461
749.6226, 22.69687
750.1047, 22.31509
750.5868, 22.79108
751.0689, 24.01371
751.5510, 24.75520
752.0331, 24.67837
752.5153, 24.76384
752.9974, 25.54865
753.4795, 26.20984
753.9616, 26.03199
754.4437, 25.28081
754.9258, 24.85907
755.4080, 25.18694
755.8901, 25.61690
756.3722, 25.68093
756.8543, 25.58236
757.3364, 25.70505
757.8185, 26.01809
758.3007, 26.09739
758.7828, 25.66773
759.2649, 24.96355
759.7470, 24.45039
760.2291, 24.10525
760.7112, 24.06566
761.1934, 24.48989
761.6755, 24.98007
762.1576, 25.43023
762.6397, 25.80295
763.1218, 26.08117
763.6039, 26.28545
764.0861, 26.19891
764.5682, 25.22372
765.0503, 24.41179
765.5324, 25.14493
766.0145, 26.52417
766.4966, 26.51082
766.9788, 24.65574
767.4609, 22.56918
767.9430, 21.81019
768.4251, 22.24373
768.9072, 23.45791
769.3893, 25.76196
769.8715, 27.13465
770.3536, 26.60162
770.8357, 25.67316
771.3178, 25.89291
771.7999, 26.98847
772.2820, 27.53995
772.7642, 27.00619
773.2463, 26.54418
773.7284, 26.39653
774.2105, 26.50332
774.6926, 26.95656
775.1747, 27.61615
775.6569, 28.17180
776.1390, 28.47974
776.6211, 28.52229
777.1032, 28.11057
777.5853, 27.36695
778.0674, 27.04368
778.5496, 27.23788
779.0317, 27.43939
779.5138, 27.33571
779.9959, 27.19992
780.4780, 27.59177
780.9601, 28.78860
781.4423, 29.36606
781.9244, 28.54370
782.4065, 28.07547
782.8886, 29.02036
783.3707, 30.29284
783.8528, 30.58895
784.3350, 29.86038
784.8171, 29.18651
785.2992, 29.29695
785.7813, 29.71783
786.2634, 29.77819
786.7455, 29.62596
787.2277, 29.77829
787.7098, 30.33429
788.1919, 31.01285
788.6740, 31.62232
789.1561, 32.13050
789.6382, 32.33471
790.1204, 31.78300
790.6025, 32.03204
791.0846, 34.25536
791.5667, 36.07698
792.0488, 36.12206
792.5309, 35.23841
793.0131, 34.70536
793.4952, 34.73220
793.9773, 35.12746
794.4594, 35.90812
794.9415, 36.92596
795.4236, 38.12059
795.9058, 39.42717
796.3879, 40.73883
796.8700, 42.01911
797.3521, 43.27498
797.8342, 44.52771
798.3163, 45.76532
798.7985, 46.90321
799.2806, 47.91807
799.7627, 48.94745
800.2448, 49.89510
800.7269, 51.09218
801.2090, 52.97063
801.6912, 55.38838
802.1733, 57.54502
802.6554, 59.03311
803.1375, 60.90772
803.6196, 63.67992
804.1017, 66.60828
804.5839, 69.20690
805.0660, 71.51572
805.5481, 73.56532
806.0302, 75.37382
806.5123, 77.51130
806.9944, 80.82836
807.4766, 84.82197
807.9587, 88.34988
808.4408, 91.38577
808.9229, 94.04741
809.4050, 96.27713
809.8871, 98.70827
810.3693, 102.1804
810.8514, 106.6833
811.3335, 110.9538
811.8156, 115.1417
812.2977, 118.8588
812.7798, 122.0244
813.2620, 124.7568
813.7441, 127.0457
814.2262, 128.9513
814.7083, 130.6467
815.1904, 132.2159
815.6725, 133.4807
816.1547, 134.5562
816.6368, 135.1338
817.1189, 134.6344
817.6010, 133.3055
818.0831, 132.1003
818.5652, 131.4078
819.0474, 130.3781
819.5295, 127.5592
820.0116, 123.2396
820.4937, 120.2979
820.9758, 119.0437
821.4579, 117.1912
821.9401, 113.5534
822.4222, 109.8883
822.9043, 108.3191
823.3864, 108.7404
823.8685, 108.0004
824.3506, 104.9104
824.8328, 102.3899
825.3149, 101.0859
825.7970, 100.3089
826.2791, 99.79592
826.7612, 99.35207
827.2433, 98.60792
827.7255, 97.37027
828.2076, 96.26769
828.6897, 95.99300
829.1718, 95.29552
829.6539, 95.76733
830.1360, 95.09244
830.6182, 94.95953
831.1003, 95.69935
831.5824, 96.94537
832.0645, 98.30305
832.5466, 99.76293
833.0287, 101.1479
833.5109, 102.5259
833.9930, 103.5813
834.4751, 103.9807
834.9572, 104.3547
835.4393, 105.2361
835.9214, 106.4913
836.4036, 107.7687
836.8857, 109.0779
837.3678, 110.3275
837.8499, 111.2847
838.3320, 112.3652
838.8141, 113.8331
839.2963, 115.6523
839.7784, 117.8616
840.2605, 120.4302
840.7426, 122.8231
841.2247, 124.4338
841.7068, 125.6157
842.1890, 127.2635
842.6711, 129.1993
843.1532, 130.2466
843.6353, 130.0832
844.1174, 129.6740
844.5995, 129.9577
845.0817, 130.6087
845.5638, 130.0239
846.0459, 127.4943
846.5280, 125.7562
847.0101, 125.8976
847.4922, 125.6973
847.9744, 123.7170
848.4565, 120.8172
848.9386, 118.3856
849.4207, 116.6756
849.9028, 114.3762
850.3849, 110.7190
850.8671, 106.8348
851.3492, 103.0709
851.8313, 99.66429
852.3134, 97.01215
852.7955, 95.06454
853.2776, 93.21837
853.7598, 91.15979
854.2419, 88.79292
854.7240, 85.78392
855.2061, 82.29888
855.6882, 78.98073
856.1703, 75.92353
856.6525, 73.39098
857.1346, 71.60719
857.6167, 70.21719
858.0988, 68.58515
858.5809, 66.66502
859.0630, 64.80550
859.5452, 63.01844
860.0273, 61.27616
860.5094, 59.72983
860.9915, 58.10558
861.4736, 55.91379
861.9557, 53.33672
862.4379, 51.45658
862.9200, 50.89278
863.4021, 50.45671
863.8842, 49.78334
864.3663, 49.03531
864.8484, 48.43400
865.3306, 47.86557
865.8127, 46.98075
866.2948, 45.65511
866.7769, 44.26013
867.2590, 43.09189
867.7411, 42.15614
868.2233, 41.53513
868.7054, 41.18684
869.1875, 40.94941
869.6696, 40.77909
870.1517, 40.42693
870.6339, 39.62195
871.1160, 38.48544
871.5981, 37.53957
872.0802, 36.75365
872.5623, 36.26388
873.0444, 36.13213
873.5266, 36.22538
874.0087, 36.60863
874.4908, 37.11294
874.9729, 37.52565
875.4550, 37.94586
875.9371, 37.70132
876.4193, 35.99015
876.9014, 34.44633
877.3835, 33.86704
877.8656, 33.73413
878.3477, 33.62062
878.8298, 33.38814
879.3120, 32.80395
879.7941, 31.50906
880.2762, 30.47799
880.7583, 31.02687
881.2404, 32.32325
881.7225, 32.80660
882.2047, 32.53772
882.6868, 32.63528
883.1689, 33.57949
883.6510, 34.34082
884.1331, 33.41755
884.6152, 31.11165
885.0974, 29.78207
885.5795, 29.54124
886.0616, 29.49798
886.5437, 29.44415
887.0258, 29.55676
887.5079, 30.04320
887.9901, 30.79885
888.4722, 31.41651
888.9543, 31.99330
889.4364, 32.24059
889.9185, 31.82587
890.4006, 31.47417
890.8828, 31.69757
891.3649, 32.01046
891.8470, 31.62327
892.3291, 30.53593
892.8112, 29.91297
893.2933, 30.62993
893.7755, 31.48572
894.2576, 31.67749
894.7397, 31.61130
895.2218, 31.84632
895.7039, 32.33306
896.1860, 32.63513
896.6682, 32.53915
897.1503, 32.32259
897.6324, 32.24270
898.1145, 32.32734
898.5966, 32.77267
899.0787, 33.52660
899.5609, 34.01056
900.0430, 34.02057
900.5251, 34.09331
901.0072, 34.83717
901.4893, 34.64837
901.9714, 36.18681
902.4536, 34.97429
902.9357, 34.42983
903.4178, 35.03792
903.8999, 35.78873
904.3820, 36.27125
904.8641, 36.50476
905.3463, 36.41808
905.8284, 35.92748
906.3105, 35.81549
906.7926, 36.62249
907.2747, 37.19326
907.7568, 37.06134
908.2390, 36.64239
908.7211, 36.10670
909.2032, 35.62739
909.6853, 35.63294
910.1674, 36.44442
910.6495, 37.06284
911.1317, 36.65932
911.6138, 35.84469
912.0959, 35.18653
912.5780, 34.72249
913.0601, 34.56271
913.5422, 34.65538
914.0244, 34.41152
914.5065, 33.13794
914.9886, 31.51381
915.4707, 31.10346
915.9528, 31.71096
916.4349, 32.19148
916.9171, 32.39466
917.3992, 32.07790
917.8813, 31.00798
918.3634, 29.73754
918.8455, 29.23291
919.3276, 29.55070
919.8098, 29.59944
920.2919, 29.20156
920.7740, 29.01424
921.2561, 29.44856
921.7382, 29.80647
922.2203, 29.32615
922.7025, 28.28812
923.1846, 27.82372
923.6667, 28.34397
924.1488, 28.53288
924.6309, 27.88025
925.1130, 27.31541
925.5952, 27.32342
926.0773, 27.61735
926.5594, 27.92375
927.0415, 28.16474
927.5236, 28.19522
928.0057, 27.86228
928.4879, 27.43785
928.9700, 26.91590
929.4521, 26.52798
929.9342, 26.64021
930.4163, 27.12284
930.8984, 27.60206
931.3806, 27.92995
931.8627, 28.12521
932.3448, 28.16246
932.8269, 28.10640
933.3090, 28.22649
933.7911, 28.39298
934.2733, 27.79006
934.7554, 26.33276
935.2375, 25.48662
935.7196, 26.34286
936.2017, 25.50303
936.6838, 25.48405
937.1660, 25.97650
937.6481, 25.47336
938.1302, 26.70483
938.6123, 27.60984
939.0944, 27.44513
939.5765, 26.82527
940.0587, 26.24244
940.5408, 25.74657
941.0229, 25.75437
941.5050, 26.83524
941.9871, 27.37579
942.4692, 26.87020
942.9514, 26.33690
943.4335, 26.40910
943.9156, 26.54647
944.3977, 25.81763
944.8798, 24.20549
945.3619, 23.33881
945.8441, 24.16639
946.3262, 25.00175
946.8083, 25.28233
947.2904, 25.29655
947.7725, 25.37660
948.2546, 25.38169
948.7368, 24.75900
949.2189, 23.31590
949.7010, 22.34480
950.1831, 23.25693
950.6652, 24.52744
951.1473, 24.51282
951.6295, 23.77565
952.1116, 23.48149
952.5937, 23.65880
953.0758, 23.31410
953.5579, 21.79867
954.0400, 20.21818
954.5222, 20.29212
955.0043, 21.46383
955.4864, 22.15182
955.9685, 22.33356
956.4506, 22.33256
956.9327, 22.24576
957.4149, 22.10610
957.8970, 21.95819
958.3791, 21.74253
958.8612, 21.14604
959.3433, 20.10416
959.8254, 19.72748
960.3076, 20.24500
960.7897, 20.72274
961.2718, 20.73578
961.7539, 20.59459
962.2360, 20.74631
962.7181, 20.52528
963.2003, 20.17109
963.6824, 20.10728
964.1645, 19.39293
964.6466, 18.98910
965.1287, 18.90197
965.6108, 19.45551
966.0930, 20.18447
966.5751, 20.36535
967.0572, 19.93829
967.5393, 19.47192
968.0214, 18.71121
968.5035, 18.33805
968.9857, 19.01331
969.4678, 19.70981
969.9499, 19.53443
970.4320, 18.78191
970.9141, 18.17664
971.3962, 17.87745
971.8784, 17.83484
972.3605, 18.20777
972.8426, 18.63922
973.3247, 18.81485
973.8068, 18.94427
974.2889, 19.51808
974.7711, 20.34355
975.2532, 20.50126
975.7353, 19.45995
976.2174, 18.41637
976.6995, 18.51860
977.1816, 19.22757
977.6638, 20.03369
978.1459, 20.75984
978.6280, 21.04402
979.1101, 20.83589
979.5922, 20.31576
980.0743, 19.54701
980.5565, 18.83482
981.0386, 18.88743
981.5207, 19.40711
982.0028, 19.10176
982.4849, 18.05164
982.9670, 17.73966
983.4492, 18.67352
983.9313, 19.61486
984.4134, 19.32234
984.8955, 18.25190
985.3776, 17.90993
985.8597, 18.32331
986.3419, 18.54186
986.8240, 18.43636
987.3061, 18.57505
987.7882, 19.34517
988.2703, 20.01927
988.7524, 19.62981
989.2346, 18.30717
989.7167, 17.46163
990.1988, 17.20108
990.6809, 17.10783
991.1630, 17.27945
991.6451, 17.33955
992.1273, 16.94226
992.6094, 16.47230
993.0915, 16.62659
993.5736, 17.47144
994.0557, 17.69528
994.5378, 16.28232
995.0200, 15.74964
995.5021, 17.21338
995.9842, 18.67582
996.4663, 18.93503
996.9484, 18.54916
997.4305, 18.48893
997.9127, 18.86187
998.3948, 19.05836
998.8769, 18.87502
999.3590, 18.64186
999.8411, 18.30748
1000.323, 18.10047
1000.805, 18.34527
1001.287, 18.80860
1001.770, 19.01971
1002.252, 18.87474
1002.734, 18.55047
1003.216, 17.83723
1003.698, 17.29766
1004.180, 17.34961
1004.662, 17.68479
1005.144, 18.04782
1005.627, 18.37305
1006.109, 18.62057
1006.591, 18.77650
1007.073, 18.85991
1007.555, 18.93798
1008.037, 18.89775
1008.519, 18.54146
1009.001, 18.03647
1009.483, 17.59521
1009.966, 17.27696
1010.448, 17.13121
1010.930, 17.18653
1011.412, 17.34336
1011.894, 17.49636
1012.376, 17.69047
1012.858, 18.17653
1013.340, 18.72540
1013.823, 18.58598
1014.305, 17.79308
1014.787, 17.32340
1015.269, 17.76322
1015.751, 18.37662
1016.233, 18.03757
1016.715, 17.12007
1017.197, 16.62773
1017.679, 16.53830
1018.162, 16.74747
1018.644, 17.19824
1019.126, 17.52540
1019.608, 17.47517
1020.090, 17.24594
1020.572, 17.24610
1021.054, 17.40135
1021.536, 16.99682
1022.018, 16.06741
1022.501, 15.85970
1022.983, 16.71760
1023.465, 17.52033
1023.947, 17.42714
1024.429, 16.83770
1024.911, 16.56172
1025.393, 16.60262
1025.875, 16.85822
1026.358, 17.36880
1026.840, 17.73102
1027.322, 17.79811
1027.804, 17.91742
1028.286, 18.42297
1028.768, 18.32725
1029.250, 18.31605
1029.732, 18.41557
1030.214, 18.05288
1030.697, 18.09223
1031.179, 18.14432
1031.661, 18.15373
1032.143, 18.04789
1032.625, 17.78867
1033.107, 17.34806
1033.589, 16.56465
1034.071, 15.17667
1034.553, 14.68598
1035.036, 15.58838
1035.518, 16.29452
1036.000, 16.25925
1036.482, 16.12750
1036.964, 16.53171
1037.446, 17.17750
1037.928, 17.12222
1038.410, 15.98079
1038.893, 15.49759
1039.375, 15.99042
1039.857, 16.64573
1040.339, 17.59720
1040.821, 18.31287
1041.303, 18.22388
1041.785, 17.61019
1042.267, 17.27677
1042.750, 17.33584
1043.232, 17.29962
1043.714, 16.96285
1044.196, 16.80268
1044.678, 17.13707
1045.160, 17.48889
1045.642, 17.43292
1046.124, 17.14153
1046.606, 17.04672
1047.089, 17.21064
1047.571, 17.41515
1048.053, 17.97477
1048.535, 18.11855
1049.017, 17.16270
1049.499, 16.15566
1049.981, 15.89634
1050.463, 16.19424
1050.945, 16.64048
1051.428, 17.26402
1051.910, 17.54060
1052.392, 16.96226
1052.874, 16.57036
1053.356, 16.94521
1053.838, 17.39643
1054.320, 17.42616
1054.802, 17.11521
1055.285, 16.60652
1055.767, 15.88640
1056.249, 15.46751
1056.731, 15.79380
1057.213, 16.03367
1057.695, 15.83156
1058.177, 15.47894
1058.659, 15.17355
1059.141, 14.89891
1059.624, 14.46917
1060.106, 13.85457
1060.588, 13.76083
1061.070, 14.90012
1061.552, 15.95066
1062.034, 16.51992
1062.516, 16.67749
1062.998, 16.13125
1063.480, 15.36741
1063.963, 15.26410
1064.445, 15.92385
1064.927, 16.43691
1065.409, 16.50898
1065.891, 16.32022
1066.373, 15.41309
1066.855, 14.79242
1067.337, 15.66979
1067.820, 17.14319
1068.302, 17.77238
1068.784, 17.38468
1069.266, 16.75711
1069.748, 15.86334
1070.230, 15.33969
1070.712, 15.88881
1071.194, 16.48397
1071.677, 16.21344
1072.159, 15.56783
1072.641, 15.38335
1073.123, 15.66141
1073.605, 15.64447
1074.087, 14.72524
1074.569, 14.27460
1075.051, 15.62267
1075.533, 16.93607
1076.016, 16.81710
1076.498, 15.92197
1076.980, 14.89290
1077.462, 14.00044
1077.944, 13.79461
1078.426, 14.69295
1078.908, 15.44514
1079.390, 15.08628
1079.872, 14.82007
1080.355, 15.86221
1080.837, 17.13358
1081.319, 17.18250
1081.801, 16.28009
1082.283, 15.74541
1082.765, 16.04048
1083.247, 16.19447
1083.729, 15.41916
1084.212, 14.79209
1084.694, 15.32739
1085.176, 16.01124
1085.658, 15.63047
1086.140, 14.54618
1086.622, 13.81245
1087.104, 13.68315
1087.586, 13.79413
1088.068, 14.19733
1088.551, 14.54152
1089.033, 14.53734
1089.515, 14.50351
1089.997, 14.76028
1090.479, 15.18480
1090.961, 15.53352
1091.443, 15.75848
1091.925, 15.87590
1092.407, 15.98090
1092.890, 15.85719
1093.372, 15.19362
1093.854, 14.50209
1094.336, 13.93523
1094.818, 13.70045
1095.300, 14.25252
1095.782, 15.49302
1096.264, 16.42154
1096.747, 16.81137
1097.229, 16.73747
1097.711, 15.76271
1098.193, 14.85458
1098.675, 14.55305
1099.157, 14.64970
1099.639, 15.12548
1100.121, 15.76352
1100.604, 15.78419
1101.086, 14.77773
1101.568, 13.92398
1102.050, 13.52136
1102.532, 13.34388
1103.014, 13.16089
1103.496, 13.27048
1103.978, 14.43142
1104.460, 16.01736
1104.943, 16.27620
1105.425, 14.66481
1105.907, 13.53028
1106.389, 13.72682
1106.871, 13.85440
1107.353, 13.24050
1107.835, 12.69448
1108.317, 12.84829
1108.799, 13.42233
1109.282, 13.97031
1109.764, 14.46649
1110.246, 14.76644
1110.728, 14.90071
1111.210, 14.77602
1111.692, 13.97518
1112.174, 13.38116
1112.656, 13.56795
1113.139, 14.09034
1113.621, 14.50150
1114.103, 14.77676
1114.585, 14.74863
1115.067, 14.23174
1115.549, 13.74214
1116.031, 13.11558
1116.513, 12.75144
1116.995, 12.75342
1117.478, 13.09414
1117.960, 13.92563
1118.442, 15.03929
1118.924, 15.77755
1119.406, 16.07141
1119.888, 16.27776
1120.370, 16.55700
1120.852, 16.36894
1121.335, 15.26714
1121.817, 14.25351
1122.299, 13.95945
1122.781, 14.19864
1123.263, 14.74294
1123.745, 15.60822
1124.227, 15.80110
1124.709, 15.01697
1125.192, 14.70506
1125.674, 15.25514
1126.156, 15.59668
1126.638, 15.13271
1127.120, 14.50476
1127.602, 14.49684
1128.084, 14.96619
1128.566, 15.22596
1129.048, 15.26602
1129.531, 15.12554
1130.013, 14.74994
1130.495, 14.71036
1130.977, 14.66741
1131.459, 15.55600
1131.941, 14.71951
1132.423, 15.15404
1132.905, 15.13124
1133.387, 14.90864
1133.870, 15.36509
1134.352, 14.99147
1134.834, 14.80052
1135.316, 14.98310
1135.798, 14.99703
1136.280, 14.53244
1136.762, 13.99859
1137.244, 13.95014
1137.727, 14.21795
1138.209, 14.21735
1138.691, 14.07003
1139.173, 14.50236
1139.655, 15.40805
1140.137, 15.61452
1140.619, 14.77690
1141.101, 13.96963
1141.583, 14.11781
1142.066, 14.61267
1142.548, 14.50164
1143.030, 14.06470
1143.512, 13.87514
1143.994, 13.85908
1144.476, 13.65992
1144.958, 13.29000
1145.440, 13.21305
1145.922, 13.68774
1146.405, 14.11921
1146.887, 13.72587
1147.369, 13.20918
1147.851, 13.44389
1148.333, 14.03278
1148.815, 14.42311
1149.297, 14.60485
1149.779, 14.78199
1150.262, 14.99711
1150.744, 15.03783
1151.226, 14.58255
1151.708, 14.25195
1152.190, 14.64419
1152.672, 15.13191
1153.154, 15.17250
1153.636, 14.96566
1154.119, 14.83334
1154.601, 14.79650
1155.083, 14.69054
1155.565, 14.39500
1156.047, 14.29685
1156.529, 14.77304
1157.011, 15.15112
1157.493, 15.08148
1157.975, 14.84340
1158.458, 14.55710
1158.940, 14.32523
1159.422, 14.35008
1159.904, 14.66730
1160.386, 14.94788
1160.868, 15.26968
1161.350, 15.38687
1161.832, 14.90041
1162.314, 14.70185
1162.797, 15.53937
1163.279, 16.46539
1163.761, 16.44128
1164.243, 15.63603
1164.725, 14.77799
1165.207, 13.60454
1165.689, 13.37963
1166.171, 14.51258
1166.654, 15.33038
1167.136, 15.29350
1167.618, 15.32558
1168.100, 16.12777
1168.582, 17.13134
1169.064, 17.36084
1169.546, 16.88461
1170.028, 16.20865
1170.510, 15.31873
1170.993, 14.85516
1171.475, 14.88909
1171.957, 15.02049
1172.439, 15.09907
1172.921, 15.27245
1173.403, 15.72069
1173.885, 16.17683
1174.367, 15.94046
1174.849, 15.30055
1175.332, 15.46349
1175.814, 16.13865
1176.296, 15.86711
1176.778, 14.61833
1177.260, 13.89665
1177.742, 14.42121
1178.224, 15.07861
1178.706, 14.67153
1179.189, 13.94982
1179.671, 13.74783
1180.153, 13.95358
1180.635, 14.60511
1181.117, 15.45798
1181.599, 16.11915
1182.081, 16.45794
1182.563, 16.33391
1183.046, 15.51737
1183.528, 14.77996
1184.010, 14.68825
1184.492, 14.70360
1184.974, 14.52811
1185.456, 14.21518
1185.938, 13.51371
1186.420, 12.82493
1186.902, 13.28454
1187.385, 15.16154
1187.867, 16.15433
1188.349, 14.84150
1188.831, 14.08295
1189.313, 15.07616
1189.795, 15.93390
1190.277, 15.42207
1190.759, 14.61561
1191.241, 14.66989
1191.724, 15.33035
1192.206, 15.58019
1192.688, 15.30041
1193.170, 15.08812
1193.652, 14.85524
1194.134, 15.05820
1194.616, 16.02798
1195.098, 16.60104
1195.581, 16.04262
1196.063, 14.97442
1196.545, 14.14591
1197.027, 13.64384
1197.509, 14.01132
1197.991, 15.17543
1198.473, 16.05574
1198.955, 16.55198
1199.438, 16.09628
1199.920, 14.63297
1200.402, 13.62795
1200.884, 14.10325
1201.366, 15.03721
1201.848, 15.04319
1202.330, 14.58928
1202.812, 14.59249
1203.294, 14.80890
1203.776, 14.65081
1204.259, 14.23595
1204.741, 14.11786
1205.223, 14.41495
1205.705, 14.73499
1206.187, 14.96800
1206.669, 14.86331
1207.151, 13.65218
1207.633, 12.68443
1208.116, 13.35511
1208.598, 14.61249
1209.080, 15.37371
1209.562, 15.58208
1210.044, 15.36321
1210.526, 14.69084
1211.008, 14.26444
1211.490, 14.24151
1211.973, 14.43547
1212.455, 15.06151
1212.937, 15.59213
1213.419, 15.94553
1213.901, 15.93161
1214.383, 15.03917
1214.865, 13.75472
1215.347, 13.91467
1215.829, 13.62226
1216.312, 13.35638
1216.794, 14.47594
1217.276, 13.76773
1217.758, 14.92788
1218.240, 16.13719
1218.722, 16.56031
1219.204, 16.24469
1219.686, 15.05341
1220.168, 13.60131
1220.651, 13.69589
1221.133, 14.87957
1221.615, 15.38189
1222.097, 15.20492
1222.579, 14.51326
1223.061, 13.52538
1223.543, 13.11291
1224.025, 13.68467
1224.508, 14.38972
1224.990, 14.45454
1225.472, 14.32932
1225.954, 14.28424
1226.436, 14.45260
1226.918, 15.45376
1227.400, 16.52502
1227.882, 16.07249
1228.365, 14.35055
1228.847, 13.44538
1229.329, 14.09916
1229.811, 14.89230
1230.293, 15.92178
1230.775, 16.34885
1231.257, 15.34159
1231.739, 14.25653
1232.221, 13.94331
1232.703, 14.05751
1233.186, 14.17194
1233.668, 14.31114
1234.150, 14.72672
1234.632, 15.73104
1235.114, 15.54551
1235.596, 13.66502
1236.078, 13.15448
1236.560, 14.93795
1237.043, 16.60973
1237.525, 16.76836
1238.007, 16.24658
1238.489, 16.11830
1238.971, 16.16289
1239.453, 15.79664
1239.935, 15.07982
1240.417, 13.95831
1240.900, 12.70541
1241.382, 12.22893
1241.864, 12.64145
1242.346, 13.52274
1242.828, 14.69560
1243.310, 15.61279
1243.792, 15.63563
1244.274, 15.47253
1244.756, 15.71427
1245.239, 16.02392
1245.721, 16.21303
1246.203, 16.16039
1246.685, 15.51342
1247.167, 14.44722
1247.649, 13.95442
1248.131, 14.45116
1248.613, 14.68906
1249.095, 14.11326
1249.578, 13.90753
1250.060, 14.57922
1250.542, 15.15922
1251.024, 15.07473
1251.506, 14.81140
1251.988, 15.00316
1252.470, 15.45294
1252.952, 15.26044
1253.435, 15.42401
1253.917, 15.62175
1254.399, 15.28838
1254.881, 15.73342
1255.363, 15.51894
1255.845, 15.07605
1256.327, 14.60949
1256.809, 14.07907
1257.292, 13.28532
1257.774, 12.79989
1258.256, 13.84681
1258.738, 15.35275
1259.220, 15.69522
1259.702, 15.41908
1260.184, 15.75666
1260.666, 16.49802
1261.148, 16.24610
1261.630, 14.60886
1262.113, 13.87323
1262.595, 15.93396
1263.077, 17.41953
1263.559, 16.89147
1264.041, 16.17377
1264.523, 16.16040
1265.005, 16.33735
1265.487, 16.24500
1265.970, 16.00397
1266.452, 15.92227
1266.934, 16.00685
1267.416, 15.66918
1267.898, 15.88545
1268.380, 14.78344
1268.862, 15.97313
1269.344, 16.69129
1269.827, 16.40647
1270.309, 15.91936
1270.791, 15.80478
1271.273, 15.85527
1271.755, 15.83294
1272.237, 15.73392
1272.719, 15.44271
1273.201, 15.13446
1273.683, 15.09874
1274.166, 15.32633
1274.648, 15.89387
1275.130, 16.66130
1275.612, 16.93077
1276.094, 16.30044
1276.576, 15.78654
1277.058, 15.70964
1277.540, 15.93936
1278.022, 16.78473
1278.505, 17.52684
1278.987, 17.61936
1279.469, 17.40454
1279.951, 17.28113
1280.433, 17.18707
1280.915, 16.82711
1281.397, 16.13812
1281.879, 15.64555
1282.362, 15.32075
1282.844, 15.65253
1283.326, 16.73267
1283.808, 17.61535
1284.290, 17.90496
1284.772, 17.90394
1285.254, 17.84423
1285.736, 17.72543
##END=



