##NAMES=Fayalite
##RRUFFID=R070374
##IDEAL CHEMISTRY=Fe^2+^_2_SiO_4_
##LOCALITY=Little Lake, Lake County, California, USA
##OWNER=RRUFF
##SOURCE=Michael Scott
##DESCRIPTION=Large dark brown crystal fragment
##STATUS=The identification of this mineral has been confirmed by X-ray diffraction and chemical analysis
##URL=rruff.info/R070374
##MEASURED CHEMISTRY=(Fe^2+^_1.89_Mn^2+^_0.11_)_Î£=2_Si_1.00_O_4_ ; trace amounts of Mg
110.4128, 55.51604
110.8950, 52.76110
111.3771, 48.55785
111.8592, 48.67970
112.3413, 53.50124
112.8234, 60.87418
113.3055, 69.85812
113.7877, 80.41480
114.2698, 91.95569
114.7519, 103.5246
115.2340, 116.7491
115.7161, 134.4909
116.1982, 158.8047
116.6804, 182.4891
117.1625, 198.2905
117.6446, 205.7331
118.1267, 209.5905
118.6088, 209.2717
119.0909, 207.0682
119.5731, 204.9909
120.0552, 203.9962
120.5373, 202.0777
121.0194, 195.3355
121.5015, 181.5154
121.9836, 169.2934
122.4658, 159.9582
122.9479, 153.7822
123.4300, 150.9495
123.9121, 151.2444
124.3942, 155.6335
124.8763, 166.4640
125.3585, 185.1624
125.8406, 209.0476
126.3227, 236.8916
126.8048, 268.6874
127.2869, 304.6395
127.7690, 344.5433
128.2512, 388.7772
128.7333, 436.7347
129.2154, 478.2219
129.6975, 538.2859
130.1796, 626.7390
130.6617, 734.3954
131.1439, 853.6232
131.6260, 983.2983
132.1081, 1117.135
132.5902, 1205.205
133.0723, 1222.947
133.5544, 1215.997
134.0366, 1187.048
134.5187, 1138.933
135.0008, 1071.802
135.4829, 984.0350
135.9650, 877.1905
136.4471, 785.1810
136.9293, 706.5526
137.4114, 642.5109
137.8935, 594.7858
138.3756, 562.1823
138.8577, 541.8133
139.3398, 532.0057
139.8220, 532.8883
140.3041, 543.2308
140.7862, 568.1445
141.2683, 595.2429
141.7504, 615.5489
142.2325, 632.0021
142.7147, 655.8450
143.1968, 696.5100
143.6789, 754.6389
144.1610, 814.1667
144.6431, 874.2432
145.1252, 935.9701
145.6074, 1000.493
146.0895, 1067.566
146.5716, 1135.723
147.0537, 1204.448
147.5358, 1273.487
148.0179, 1339.457
148.5001, 1401.124
148.9822, 1460.647
149.4643, 1517.949
149.9464, 1573.734
150.4285, 1632.186
150.9106, 1697.576
151.3928, 1769.680
151.8749, 1843.408
152.3570, 1926.036
152.8391, 2005.543
153.3212, 2076.117
153.8033, 2137.555
154.2855, 2179.211
154.7676, 2194.735
155.2497, 2182.425
155.7318, 2135.351
156.2139, 2039.070
156.6960, 1913.717
157.1782, 1773.776
157.6603, 1616.712
158.1424, 1467.829
158.6245, 1348.141
159.1066, 1252.451
159.5887, 1173.262
160.0709, 1106.903
160.5530, 1056.976
161.0351, 1035.625
161.5172, 1050.169
161.9993, 1067.140
162.4814, 1063.326
162.9636, 1045.037
163.4457, 1021.077
163.9278, 986.9684
164.4099, 951.1390
164.8920, 931.2037
165.3741, 932.0573
165.8563, 935.3112
166.3384, 924.3393
166.8205, 908.1077
167.3026, 902.9175
167.7847, 921.7887
168.2668, 953.8365
168.7490, 975.2797
169.2311, 983.3255
169.7132, 986.8300
170.1953, 990.6296
170.6774, 993.4848
171.1595, 993.0267
171.6417, 987.0500
172.1238, 977.5309
172.6059, 970.6877
173.0880, 971.0208
173.5701, 964.4083
174.0522, 937.2236
174.5344, 901.2354
175.0165, 874.0686
175.4986, 865.9042
175.9807, 870.9155
176.4628, 873.8781
176.9449, 876.2440
177.4271, 873.2756
177.9092, 858.7505
178.3913, 839.7139
178.8734, 826.1164
179.3555, 823.8324
179.8376, 829.0129
180.3197, 830.0090
180.8019, 824.1013
181.2840, 818.6908
181.7661, 816.2186
182.2482, 815.4769
182.7303, 814.8995
183.2124, 813.5499
183.6946, 812.1631
184.1767, 812.3469
184.6588, 811.9310
185.1409, 817.5497
185.6230, 836.7005
186.1051, 859.7141
186.5873, 874.9834
187.0694, 876.3835
187.5515, 869.0245
188.0336, 865.9016
188.5157, 866.4410
188.9978, 873.1677
189.4800, 888.4077
189.9621, 908.0853
190.4442, 928.9003
190.9263, 949.4793
191.4084, 969.0781
191.8905, 984.8651
192.3727, 990.8163
192.8548, 1004.316
193.3369, 1033.756
193.8190, 1068.279
194.3011, 1098.717
194.7832, 1121.499
195.2654, 1136.928
195.7475, 1146.392
196.2296, 1154.568
196.7117, 1146.202
197.1938, 1113.252
197.6759, 1069.496
198.1581, 1025.099
198.6402, 983.6279
199.1223, 945.4503
199.6044, 911.2222
200.0865, 880.9291
200.5686, 855.1723
201.0508, 834.5422
201.5329, 817.0453
202.0150, 801.3874
202.4971, 787.1255
202.9792, 774.9427
203.4613, 765.9299
203.9435, 760.5521
204.4256, 757.6746
204.9077, 760.4545
205.3898, 763.0875
205.8719, 761.4070
206.3540, 754.7079
206.8362, 745.4422
207.3183, 736.2354
207.8004, 725.6784
208.2825, 719.2607
208.7646, 722.2542
209.2467, 724.8442
209.7289, 718.9130
210.2110, 704.9717
210.6931, 691.5628
211.1752, 689.5881
211.6573, 703.0975
212.1395, 713.2935
212.6216, 720.4862
213.1037, 724.3911
213.5858, 722.7480
214.0679, 716.8524
214.5500, 711.0204
215.0322, 709.4158
215.5143, 712.4071
215.9964, 717.3992
216.4785, 728.9297
216.9606, 738.2672
217.4427, 741.2308
217.9249, 738.8826
218.4070, 734.8662
218.8891, 731.8212
219.3712, 729.7150
219.8533, 729.8168
220.3354, 733.9133
220.8176, 738.6294
221.2997, 744.4734
221.7818, 750.2407
222.2639, 753.8453
222.7460, 753.6707
223.2281, 750.0012
223.7103, 745.8959
224.1924, 739.2263
224.6745, 734.5521
225.1566, 733.5521
225.6387, 734.9708
226.1208, 737.1538
226.6030, 739.2866
227.0851, 741.1473
227.5672, 741.6561
228.0493, 738.5665
228.5314, 737.2225
229.0135, 739.5525
229.4957, 743.6094
229.9778, 747.0967
230.4599, 748.9595
230.9420, 750.0040
231.4241, 752.3470
231.9062, 757.1785
232.3884, 761.2595
232.8705, 762.9677
233.3526, 764.4930
233.8347, 767.5419
234.3168, 772.7055
234.7989, 779.8504
235.2811, 789.5913
235.7632, 805.1935
236.2453, 815.4390
236.7274, 817.2584
237.2095, 815.7386
237.6916, 812.1584
238.1738, 807.6400
238.6559, 805.7408
239.1380, 813.0471
239.6201, 834.2742
240.1022, 847.0789
240.5843, 844.1379
241.0665, 837.9849
241.5486, 834.4944
242.0307, 833.7455
242.5128, 832.2296
242.9949, 825.4594
243.4770, 812.6309
243.9592, 804.2186
244.4413, 805.7366
244.9234, 806.5877
245.4055, 801.0272
245.8876, 791.3052
246.3697, 783.8811
246.8519, 784.5778
247.3340, 792.1155
247.8161, 794.5847
248.2982, 787.2269
248.7803, 781.0164
249.2624, 779.2389
249.7446, 781.0793
250.2267, 785.5579
250.7088, 793.1216
251.1909, 801.9476
251.6730, 806.7926
252.1551, 806.8384
252.6373, 804.3051
253.1194, 796.2141
253.6015, 787.7103
254.0836, 785.4250
254.5657, 792.7275
255.0478, 803.2955
255.5300, 806.1247
256.0121, 798.5935
256.4942, 793.2585
256.9763, 797.6504
257.4584, 803.3370
257.9406, 803.3501
258.4227, 796.0695
258.9048, 787.5629
259.3869, 783.6716
259.8690, 784.4913
260.3511, 788.0242
260.8333, 796.6575
261.3154, 805.5823
261.7975, 811.6504
262.2796, 814.7363
262.7617, 816.0579
263.2438, 815.6548
263.7260, 813.9141
264.2081, 812.8033
264.6902, 811.4964
265.1723, 812.6367
265.6544, 819.6570
266.1365, 830.8260
266.6187, 840.2791
267.1008, 843.8725
267.5829, 844.1359
268.0650, 846.1553
268.5471, 850.0428
269.0292, 855.6880
269.5114, 865.9849
269.9935, 877.7597
270.4756, 885.0325
270.9577, 882.6859
271.4398, 878.1370
271.9219, 879.9427
272.4041, 888.2626
272.8862, 897.8358
273.3683, 905.6102
273.8504, 913.3948
274.3325, 924.8577
274.8146, 942.9173
275.2968, 959.6912
275.7789, 968.4895
276.2610, 971.1167
276.7431, 974.6671
277.2252, 980.8287
277.7073, 990.2664
278.1895, 1005.102
278.6716, 1026.617
279.1537, 1046.285
279.6358, 1059.045
280.1179, 1068.382
280.6000, 1080.082
281.0822, 1095.507
281.5643, 1112.952
282.0464, 1130.050
282.5285, 1146.337
283.0106, 1167.079
283.4927, 1197.577
283.9749, 1229.797
284.4570, 1256.542
284.9391, 1277.346
285.4212, 1295.727
285.9033, 1313.488
286.3854, 1330.845
286.8676, 1352.798
287.3497, 1386.147
287.8318, 1417.119
288.3139, 1437.831
288.7960, 1450.678
289.2781, 1463.149
289.7603, 1480.100
290.2424, 1498.692
290.7245, 1506.253
291.2066, 1489.133
291.6887, 1478.618
292.1708, 1489.124
292.6530, 1505.309
293.1351, 1505.991
293.6172, 1483.972
294.0993, 1451.296
294.5814, 1430.021
295.0635, 1433.242
295.5457, 1422.556
296.0278, 1384.986
296.5099, 1344.037
296.9920, 1316.075
297.4741, 1302.784
297.9562, 1296.659
298.4384, 1290.202
298.9205, 1283.157
299.4026, 1277.576
299.8847, 1273.923
300.3668, 1271.215
300.8489, 1270.197
301.3311, 1269.847
301.8131, 1267.557
302.2953, 1260.765
302.7774, 1251.555
303.2595, 1250.960
303.7416, 1264.455
304.2237, 1279.096
304.7058, 1292.404
305.1880, 1305.228
305.6701, 1318.310
306.1522, 1331.896
306.6343, 1346.395
307.1164, 1364.421
307.5985, 1389.192
308.0807, 1405.143
308.5628, 1399.444
309.0449, 1390.903
309.5270, 1390.632
310.0091, 1399.534
310.4912, 1411.082
310.9734, 1423.648
311.4555, 1436.171
311.9376, 1434.759
312.4197, 1409.295
312.9018, 1382.748
313.3839, 1373.561
313.8661, 1374.966
314.3482, 1369.139
314.8303, 1341.711
315.3124, 1304.919
315.7945, 1280.682
316.2766, 1270.520
316.7588, 1264.417
317.2409, 1261.949
317.7230, 1258.529
318.2051, 1246.278
318.6872, 1221.820
319.1693, 1192.832
319.6515, 1161.130
320.1336, 1128.650
320.6157, 1104.874
321.0978, 1096.183
321.5799, 1092.876
322.0620, 1077.910
322.5442, 1049.534
323.0263, 1024.055
323.5084, 1007.307
323.9905, 995.3994
324.4726, 982.7538
324.9547, 968.4004
325.4369, 956.2502
325.9190, 950.5097
326.4011, 951.9660
326.8832, 952.4846
327.3653, 952.9284
327.8474, 951.7108
328.3296, 947.1459
328.8117, 940.0407
329.2938, 932.6417
329.7759, 926.1276
330.2580, 920.4985
330.7401, 915.9760
331.2223, 914.2351
331.7044, 911.4980
332.1865, 905.8312
332.6686, 899.6715
333.1507, 895.8088
333.6328, 895.0380
334.1150, 895.8429
334.5971, 895.6899
335.0792, 892.9526
335.5613, 893.8552
336.0434, 901.3444
336.5255, 909.4044
337.0077, 916.2792
337.4898, 921.1193
337.9719, 922.6460
338.4540, 919.0150
338.9361, 911.0190
339.4182, 905.7901
339.9004, 904.1698
340.3825, 904.3871
340.8646, 907.4349
341.3467, 911.2292
341.8288, 912.7404
342.3109, 910.4797
342.7931, 907.2971
343.2752, 907.8707
343.7573, 912.8336
344.2394, 916.8760
344.7215, 915.3288
345.2036, 915.3682
345.6858, 924.3050
346.1679, 942.2043
346.6500, 959.3699
347.1321, 968.7664
347.6142, 972.7745
348.0963, 978.4056
348.5785, 987.1265
349.0606, 994.9821
349.5427, 996.4071
350.0248, 994.1560
350.5069, 996.7559
350.9890, 1007.768
351.4712, 1022.558
351.9533, 1040.566
352.4354, 1060.322
352.9175, 1073.380
353.3996, 1073.784
353.8817, 1067.314
354.3639, 1069.466
354.8460, 1082.342
355.3281, 1096.995
355.8102, 1112.920
356.2923, 1128.928
356.7744, 1142.523
357.2566, 1153.482
357.7387, 1165.236
358.2208, 1182.343
358.7029, 1206.918
359.1850, 1224.843
359.6671, 1228.722
360.1493, 1234.232
360.6314, 1248.160
361.1135, 1269.242
361.5956, 1294.500
362.0777, 1322.863
362.5598, 1352.233
363.0420, 1374.528
363.5241, 1381.941
364.0062, 1394.875
364.4883, 1421.889
364.9704, 1450.949
365.4525, 1471.528
365.9347, 1481.561
366.4168, 1487.370
366.8989, 1494.708
367.3810, 1503.539
367.8631, 1515.714
368.3452, 1533.137
368.8274, 1552.007
369.3095, 1571.565
369.7916, 1591.047
370.2737, 1608.598
370.7558, 1622.853
371.2379, 1635.126
371.7201, 1647.295
372.2022, 1659.323
372.6843, 1671.379
373.1664, 1683.242
373.6485, 1695.327
374.1306, 1709.412
374.6128, 1727.523
375.0949, 1740.474
375.5770, 1740.965
376.0591, 1733.266
376.5412, 1725.213
377.0233, 1718.230
377.5055, 1712.140
377.9876, 1706.588
378.4697, 1701.625
378.9518, 1698.593
379.4339, 1696.206
379.9160, 1696.945
380.3982, 1706.055
380.8803, 1719.892
381.3624, 1728.619
381.8445, 1726.778
382.3266, 1716.760
382.8087, 1705.585
383.2909, 1691.240
383.7730, 1678.509
384.2551, 1668.292
384.7372, 1659.208
385.2193, 1650.357
385.7014, 1641.467
386.1836, 1632.498
386.6657, 1624.104
387.1478, 1616.614
387.6299, 1603.957
388.1120, 1583.276
388.5941, 1560.159
389.0763, 1534.327
389.5584, 1507.881
390.0405, 1484.939
390.5226, 1468.072
391.0047, 1452.272
391.4868, 1427.217
391.9690, 1391.446
392.4511, 1361.693
392.9332, 1347.351
393.4153, 1336.445
393.8974, 1317.115
394.3795, 1289.223
394.8617, 1261.571
395.3438, 1238.924
395.8259, 1219.122
396.3080, 1197.554
396.7901, 1173.640
397.2722, 1152.421
397.7544, 1137.877
398.2365, 1129.267
398.7186, 1120.769
399.2007, 1114.470
399.6828, 1106.073
400.1649, 1093.264
400.6471, 1077.434
401.1292, 1060.508
401.6113, 1043.013
402.0934, 1025.211
402.5755, 1006.664
403.0576, 984.7144
403.5398, 971.1130
404.0219, 973.3450
404.5040, 975.6459
404.9861, 968.5676
405.4682, 954.6414
405.9503, 942.0262
406.4325, 936.1910
406.9146, 934.7733
407.3967, 929.0837
407.8788, 915.9588
408.3609, 905.0969
408.8430, 900.2869
409.3252, 896.9619
409.8073, 891.6780
410.2894, 883.8870
410.7715, 875.0544
411.2536, 864.9559
411.7357, 854.4378
412.2179, 848.9170
412.7000, 850.5449
413.1821, 852.8839
413.6642, 851.4370
414.1463, 847.5291
414.6284, 843.5266
415.1106, 839.3990
415.5927, 835.8380
416.0748, 834.0811
416.5569, 833.3904
417.0390, 831.1457
417.5211, 826.1558
418.0033, 820.5059
418.4854, 817.9370
418.9675, 820.7742
419.4496, 818.2897
419.9317, 802.0703
420.4138, 787.0568
420.8960, 785.0334
421.3781, 793.5848
421.8602, 802.9616
422.3423, 807.1146
422.8244, 806.7128
423.3065, 804.5256
423.7887, 798.6078
424.2708, 793.9251
424.7529, 793.4058
425.2350, 792.6056
425.7171, 786.1219
426.1992, 774.1356
426.6814, 763.7270
427.1635, 763.2204
427.6456, 771.5760
428.1277, 775.9658
428.6098, 774.1672
429.0919, 772.6541
429.5741, 777.6539
430.0562, 784.3290
430.5383, 784.3494
431.0204, 772.5691
431.5025, 760.6874
431.9846, 760.1314
432.4668, 767.8234
432.9489, 772.9211
433.4310, 772.6808
433.9131, 768.9757
434.3952, 762.6733
434.8773, 753.2424
435.3595, 748.1040
435.8416, 751.7003
436.3237, 756.0847
436.8058, 756.7893
437.2879, 754.2596
437.7701, 749.7521
438.2522, 743.6569
438.7343, 737.6567
439.2164, 736.2045
439.6985, 742.0421
440.1806, 747.7381
440.6628, 757.2426
441.1449, 763.3027
441.6270, 758.1479
442.1091, 744.3209
442.5912, 732.3721
443.0733, 730.8663
443.5555, 737.2186
444.0376, 741.8197
444.5197, 744.7847
445.0018, 745.6686
445.4839, 743.4199
445.9660, 739.3678
446.4482, 734.0247
446.9303, 727.1285
447.4124, 721.6913
447.8945, 720.3367
448.3766, 721.6006
448.8587, 722.6771
449.3409, 723.2279
449.8230, 723.1622
450.3051, 722.0148
450.7872, 720.0547
451.2693, 719.7552
451.7514, 723.4198
452.2336, 725.9412
452.7157, 724.0996
453.1978, 720.6613
453.6799, 720.4059
454.1620, 724.4218
454.6441, 728.3232
455.1263, 725.6155
455.6084, 714.1475
456.0905, 708.2954
456.5726, 713.5948
457.0547, 719.1310
457.5368, 722.6542
458.0190, 724.0045
458.5011, 722.8338
458.9832, 718.6068
459.4653, 713.6918
459.9474, 711.1150
460.4295, 710.8900
460.9117, 713.0102
461.3938, 719.0651
461.8759, 725.3179
462.3580, 727.9193
462.8401, 727.5878
463.3222, 728.0859
463.8044, 733.6042
464.2865, 737.8979
464.7686, 732.7654
465.2507, 720.8605
465.7328, 713.7031
466.2149, 717.1003
466.6971, 724.9244
467.1792, 724.8583
467.6613, 709.8769
468.1434, 701.8702
468.6255, 705.0135
469.1076, 711.3347
469.5898, 717.4465
470.0719, 722.4420
470.5540, 725.3857
471.0361, 725.3998
471.5182, 723.8116
472.0003, 725.4744
472.4825, 733.5217
472.9646, 736.2031
473.4467, 723.2272
473.9288, 709.6522
474.4109, 705.5398
474.8930, 710.9645
475.3752, 719.1166
475.8573, 729.6374
476.3394, 739.0056
476.8215, 739.1595
477.3036, 729.8452
477.7857, 722.6211
478.2679, 724.7487
478.7500, 731.3843
479.2321, 730.0273
479.7142, 717.0339
480.1963, 706.5715
480.6784, 701.3342
481.1606, 699.7670
481.6427, 702.3875
482.1248, 707.9158
482.6069, 711.4105
483.0890, 708.5700
483.5711, 701.2922
484.0533, 700.4055
484.5354, 710.7198
485.0175, 719.6925
485.4996, 725.7367
485.9817, 729.7757
486.4638, 731.1804
486.9460, 730.5779
487.4281, 731.6198
487.9102, 739.9758
488.3923, 752.0474
488.8744, 755.7178
489.3565, 749.4903
489.8387, 742.8510
490.3208, 739.4108
490.8029, 739.2844
491.2850, 742.3254
491.7671, 749.4360
492.2492, 757.0242
492.7314, 763.2750
493.2135, 769.6618
493.6956, 778.4189
494.1777, 789.3841
494.6598, 799.9955
495.1419, 808.1072
495.6241, 814.2968
496.1062, 822.7940
496.5883, 840.5461
497.0704, 850.4182
497.5525, 839.9389
498.0346, 828.7307
498.5168, 836.1780
498.9989, 862.2546
499.4810, 888.8069
499.9631, 899.7764
500.4452, 899.3210
500.9273, 902.8337
501.4095, 910.9382
501.8916, 920.4200
502.3737, 929.7212
502.8558, 939.8570
503.3379, 953.7079
503.8200, 973.6620
504.3022, 987.1214
504.7843, 984.2633
505.2664, 975.3114
505.7485, 972.5207
506.2306, 976.1890
506.7127, 979.2008
507.1949, 976.6236
507.6770, 969.8517
508.1591, 965.1123
508.6412, 966.2256
509.1233, 963.6274
509.6054, 956.7184
510.0876, 946.2240
510.5697, 930.9701
511.0518, 912.1893
511.5339, 894.0580
512.0161, 879.3317
512.4982, 867.5827
512.9803, 858.2307
513.4624, 851.8922
513.9445, 844.4872
514.4266, 833.9193
514.9088, 822.1777
515.3909, 811.3527
515.8730, 801.2980
516.3551, 793.5443
516.8372, 790.3229
517.3193, 788.2712
517.8015, 783.8432
518.2836, 777.5467
518.7657, 772.5978
519.2478, 771.0281
519.7299, 770.4235
520.2120, 764.2555
520.6942, 743.9299
521.1763, 734.7476
521.6584, 745.5213
522.1405, 757.8102
522.6226, 761.8339
523.1047, 759.1327
523.5869, 755.6693
524.0690, 754.5109
524.5511, 754.2977
525.0332, 752.8296
525.5153, 750.1134
525.9974, 746.7816
526.4796, 741.5638
526.9617, 738.0988
527.4438, 742.6594
527.9259, 754.0153
528.4080, 760.6885
528.8901, 756.7993
529.3723, 752.0389
529.8544, 753.3268
530.3365, 757.6635
530.8186, 757.9872
531.3007, 752.0381
531.7828, 745.3992
532.2650, 746.3919
532.7471, 756.8264
533.2292, 763.6099
533.7113, 763.4674
534.1934, 763.3266
534.6755, 765.4356
535.1577, 768.7349
535.6398, 771.5283
536.1219, 773.2392
536.6040, 775.4072
537.0861, 781.2594
537.5682, 788.7839
538.0504, 789.5673
538.5325, 781.4454
539.0146, 776.0333
539.4967, 783.5828
539.9788, 800.5372
540.4609, 808.9612
540.9431, 805.0169
541.4252, 798.9845
541.9073, 788.7516
542.3894, 780.0466
542.8715, 779.2685
543.3536, 786.2394
543.8358, 795.5565
544.3179, 802.8743
544.8000, 809.1070
545.2821, 819.2121
545.7642, 836.2479
546.2463, 848.7517
546.7285, 852.4298
547.2106, 851.2486
547.6927, 845.1244
548.1748, 835.1865
548.6569, 831.0140
549.1390, 841.9579
549.6211, 857.1424
550.1032, 862.6019
550.5853, 860.9970
551.0674, 865.7933
551.5496, 883.2911
552.0317, 905.1525
552.5138, 917.8234
552.9959, 918.4007
553.4780, 919.4986
553.9601, 917.3152
554.4423, 919.5993
554.9244, 933.4163
555.4065, 952.5297
555.8886, 966.5211
556.3707, 971.4927
556.8528, 974.4880
557.3350, 985.9659
557.8171, 1004.260
558.2992, 1014.091
558.7813, 1010.876
559.2634, 1009.490
559.7455, 1022.204
560.2277, 1044.026
560.7098, 1058.548
561.1919, 1064.134
561.6740, 1065.164
562.1561, 1057.819
562.6382, 1049.736
563.1204, 1050.408
563.6025, 1059.482
564.0846, 1069.188
564.5667, 1074.099
565.0488, 1074.918
565.5309, 1074.992
566.0131, 1076.309
566.4952, 1071.833
566.9773, 1051.207
567.4594, 1031.772
567.9415, 1028.605
568.4236, 1037.841
568.9058, 1039.921
569.3879, 1020.055
569.8700, 995.3220
570.3521, 982.4550
570.8342, 979.2086
571.3163, 979.6590
571.7985, 982.5529
572.2806, 983.0437
572.7627, 974.8707
573.2448, 957.0166
573.7269, 939.7387
574.2090, 917.4911
574.6912, 902.1639
575.1733, 901.5881
575.6554, 906.9423
576.1375, 908.8572
576.6196, 905.1382
577.1017, 898.9507
577.5839, 893.5404
578.0660, 887.9568
578.5481, 876.5427
579.0302, 857.7866
579.5123, 846.9737
579.9944, 855.2510
580.4766, 871.9072
580.9587, 875.1907
581.4408, 862.0099
581.9229, 851.4993
582.4050, 846.0462
582.8871, 844.2749
583.3693, 849.6646
583.8514, 857.4788
584.3335, 857.0113
584.8156, 843.2702
585.2977, 824.6564
585.7798, 815.5164
586.2620, 817.0792
586.7441, 813.0479
587.2262, 797.2228
587.7083, 784.6621
588.1904, 789.5359
588.6725, 801.8022
589.1547, 804.3729
589.6368, 791.6711
590.1189, 778.0499
590.6010, 770.0087
591.0831, 765.1308
591.5652, 760.8013
592.0474, 756.6177
592.5295, 752.6966
593.0116, 749.0891
593.4937, 745.9331
593.9758, 743.6021
594.4579, 742.1406
594.9401, 741.4261
595.4222, 741.1254
595.9043, 741.9202
596.3864, 745.4735
596.8685, 750.3843
597.3506, 753.3569
597.8328, 753.4700
598.3149, 750.6675
598.7970, 743.1562
599.2791, 732.8215
599.7612, 724.2482
600.2433, 718.2863
600.7255, 714.6014
601.2076, 713.2929
601.6897, 713.9747
602.1718, 713.4810
602.6539, 710.4953
603.1360, 708.1088
603.6182, 706.4159
604.1003, 705.4988
604.5824, 706.5751
605.0645, 708.7155
605.5466, 708.4642
606.0287, 702.5856
606.5109, 694.9499
606.9930, 691.2206
607.4751, 691.1032
607.9572, 692.8221
608.4393, 696.5490
608.9214, 699.5106
609.4036, 698.0605
609.8857, 692.1838
610.3678, 691.0327
610.8499, 702.8633
611.3320, 708.5388
611.8141, 696.0325
612.2963, 680.0320
612.7784, 677.0502
613.2605, 687.4370
613.7426, 698.2968
614.2247, 699.9277
614.7068, 695.1111
615.1890, 690.1427
615.6711, 685.0078
616.1532, 680.0114
616.6353, 675.1572
617.1174, 670.6374
617.5995, 666.1765
618.0817, 661.7689
618.5638, 660.3010
619.0459, 663.7874
619.5280, 668.0257
620.0101, 672.3624
620.4922, 676.0630
620.9744, 678.0645
621.4565, 678.3340
621.9386, 677.9116
622.4207, 676.9662
622.9028, 676.4011
623.3849, 681.3132
623.8671, 693.4348
624.3492, 700.7594
624.8313, 698.5220
625.3134, 691.2580
625.7955, 681.7350
626.2776, 670.1348
626.7598, 665.6269
627.2419, 677.0901
627.7240, 687.7173
628.2061, 687.1584
628.6882, 681.1382
629.1703, 678.7914
629.6525, 681.9011
630.1346, 685.0598
630.6167, 682.5810
631.0988, 675.6577
631.5809, 670.6202
632.0630, 667.2166
632.5452, 666.8964
633.0273, 672.5953
633.5094, 679.1811
633.9915, 680.6854
634.4736, 677.3822
634.9557, 673.9185
635.4379, 670.5306
635.9200, 667.9313
636.4021, 666.1649
636.8842, 665.5857
637.3663, 667.3949
637.8484, 671.5275
638.3306, 675.5895
638.8127, 677.2721
639.2948, 676.7889
639.7769, 674.5456
640.2590, 668.8722
640.7411, 667.7490
641.2233, 677.9189
641.7054, 689.2645
642.1875, 689.7554
642.6696, 680.4525
643.1517, 674.5891
643.6339, 678.5554
644.1160, 682.7108
644.5981, 681.8995
645.0802, 677.8003
645.5623, 672.0527
646.0444, 665.5858
646.5266, 660.7447
647.0087, 660.0746
647.4908, 662.6544
647.9729, 664.3666
648.4550, 665.3010
648.9371, 664.6343
649.4193, 659.4622
649.9014, 655.5745
650.3835, 661.2313
650.8656, 674.5091
651.3477, 681.4947
651.8298, 675.1088
652.3120, 667.3875
652.7941, 661.1710
653.2762, 658.3342
653.7583, 663.7272
654.2404, 676.4068
654.7225, 687.6713
655.2047, 690.4022
655.6868, 686.4868
656.1689, 681.3008
656.6510, 674.3256
657.1331, 669.1152
657.6152, 665.7371
658.0974, 665.3289
658.5795, 672.4549
659.0616, 684.4435
659.5437, 688.6539
660.0258, 674.5489
660.5079, 664.2330
660.9901, 667.9890
661.4722, 677.4612
661.9543, 685.7329
662.4364, 690.9734
662.9185, 692.0141
663.4006, 687.4086
663.8828, 680.0162
664.3649, 675.9156
664.8470, 675.1846
665.3291, 675.1476
665.8112, 675.2141
666.2933, 676.5239
666.7755, 681.8185
667.2576, 689.0724
667.7397, 689.5925
668.2218, 676.0397
668.7039, 667.7238
669.1860, 672.6122
669.6682, 680.5977
670.1503, 685.0545
670.6324, 685.4879
671.1145, 681.9629
671.5966, 673.7299
672.0787, 667.3670
672.5609, 677.0494
673.0430, 699.1122
673.5251, 704.6631
674.0072, 688.2393
674.4893, 671.4208
674.9714, 666.7054
675.4536, 670.4689
675.9357, 673.5827
676.4178, 675.8405
676.8999, 677.9163
677.3820, 679.7242
677.8641, 681.4610
678.3463, 685.1169
678.8284, 688.1415
679.3105, 685.9563
679.7926, 677.1176
680.2747, 666.0046
680.7568, 652.2660
681.2390, 640.4577
681.7211, 644.7910
682.2032, 664.8494
682.6853, 683.9865
683.1674, 695.8479
683.6495, 700.5441
684.1317, 696.9427
684.6138, 682.0997
685.0959, 674.6524
685.5780, 683.4382
686.0601, 688.9708
686.5422, 682.7039
687.0244, 673.2664
687.5065, 669.9211
687.9886, 673.5974
688.4707, 678.5726
688.9528, 683.6108
689.4349, 686.7622
689.9171, 684.4042
690.3992, 678.3104
690.8813, 673.3604
691.3634, 670.9230
691.8455, 670.6481
692.3276, 672.6266
692.8098, 676.3880
693.2919, 677.3517
693.7740, 673.2076
694.2561, 671.3823
694.7382, 673.6641
695.2203, 678.3892
695.7025, 687.3966
696.1846, 698.3262
696.6667, 702.3130
697.1488, 691.6880
697.6309, 681.9277
698.1130, 683.0748
698.5952, 688.7235
699.0773, 690.3078
699.5594, 687.8865
700.0415, 687.8109
700.5236, 694.5254
701.0057, 702.9938
701.4879, 701.2451
701.9700, 688.5665
702.4521, 680.8726
702.9342, 680.5767
703.4163, 682.7862
703.8984, 685.5595
704.3806, 688.5253
704.8627, 690.7573
705.3448, 691.9097
705.8269, 693.3792
706.3090, 696.9235
706.7911, 699.2826
707.2733, 697.6257
707.7554, 693.7321
708.2375, 690.5904
708.7196, 689.1146
709.2017, 688.3124
709.6838, 686.4823
710.1660, 684.7891
710.6481, 687.3793
711.1302, 693.9394
711.6123, 697.1649
712.0944, 693.2786
712.5765, 690.6368
713.0587, 701.8359
713.5408, 728.2589
714.0229, 738.7703
714.5050, 718.8483
714.9871, 702.5491
715.4692, 695.8513
715.9514, 694.1503
716.4335, 695.6909
716.9156, 699.1190
717.3977, 700.2901
717.8798, 694.4340
718.3619, 690.2568
718.8441, 698.1492
719.3262, 711.0857
719.8083, 716.8937
720.2904, 714.4015
720.7725, 709.2614
721.2546, 705.1412
721.7368, 701.3474
722.2189, 695.1981
722.7010, 685.5503
723.1831, 681.9249
723.6652, 687.4178
724.1473, 694.3979
724.6295, 700.4302
725.1116, 704.3217
725.5937, 702.4594
726.0758, 690.9445
726.5579, 687.4536
727.0400, 703.5471
727.5222, 720.0286
728.0043, 725.6183
728.4864, 723.7990
728.9685, 721.3716
729.4506, 720.0928
729.9327, 716.4286
730.4149, 702.3025
730.8970, 685.5289
731.3791, 687.6547
731.8612, 706.3273
732.3433, 718.6993
732.8254, 717.7194
733.3076, 711.3859
733.7897, 707.0240
734.2718, 704.7527
734.7539, 706.1722
735.2360, 714.4692
735.7181, 721.1555
736.2003, 724.9236
736.6824, 727.2289
737.1645, 729.6981
737.6466, 731.4114
738.1287, 729.0773
738.6108, 718.8919
739.0930, 711.7466
739.5751, 717.4349
740.0572, 726.9791
740.5393, 728.7435
741.0214, 724.3964
741.5035, 723.3229
741.9857, 729.9518
742.4678, 738.5073
742.9499, 740.3546
743.4320, 736.0110
743.9141, 731.7867
744.3962, 726.7527
744.8784, 728.2502
745.3605, 742.6234
745.8426, 759.6488
746.3247, 764.8586
746.8068, 756.7012
747.2889, 750.9717
747.7711, 748.4861
748.2532, 747.1561
748.7353, 746.2021
749.2174, 746.3978
749.6995, 749.6194
750.1816, 754.8855
750.6638, 758.1190
751.1459, 756.5613
751.6280, 753.8796
752.1101, 753.3127
752.5922, 754.0752
753.0743, 754.3534
753.5565, 754.2040
754.0386, 755.8274
754.5207, 760.7076
755.0028, 766.6246
755.4849, 769.2696
755.9670, 768.4070
756.4492, 765.5735
756.9313, 758.3486
757.4134, 755.6118
757.8955, 764.2247
758.3776, 777.1934
758.8597, 783.7338
759.3419, 783.3820
759.8240, 782.8839
760.3061, 783.1757
760.7882, 782.9180
761.2703, 779.0215
761.7524, 776.0084
762.2346, 780.4193
762.7167, 791.2339
763.1988, 799.9916
763.6809, 800.7169
764.1630, 799.4210
764.6451, 803.9138
765.1273, 811.6591
765.6094, 816.4673
766.0915, 817.5334
766.5736, 816.6235
767.0557, 814.6308
767.5378, 812.2098
768.0200, 810.7116
768.5021, 810.1583
768.9842, 810.1716
769.4663, 809.6194
769.9484, 812.2115
770.4305, 822.4822
770.9127, 834.8155
771.3948, 840.4053
771.8769, 838.6313
772.3590, 838.7783
772.8411, 844.4682
773.3232, 849.1378
773.8054, 847.9722
774.2875, 846.0284
774.7696, 850.0906
775.2517, 859.2939
775.7338, 865.9597
776.2159, 864.2850
776.6981, 861.7664
777.1802, 869.3818
777.6623, 881.9483
778.1444, 885.5047
778.6265, 879.8193
779.1086, 877.3889
779.5908, 885.3801
780.0729, 899.2467
780.5550, 910.5408
781.0371, 918.7574
781.5192, 930.2658
782.0013, 948.5685
782.4835, 960.4480
782.9656, 956.1406
783.4477, 947.4338
783.9298, 949.7653
784.4119, 963.3172
784.8940, 976.9845
785.3762, 990.2646
785.8583, 1003.639
786.3404, 1015.738
786.8225, 1029.135
787.3046, 1048.122
787.7867, 1070.636
788.2689, 1088.984
788.7510, 1098.275
789.2331, 1108.371
789.7152, 1130.423
790.1973, 1157.380
790.6794, 1176.296
791.1616, 1188.880
791.6437, 1206.956
792.1258, 1235.801
792.6079, 1269.414
793.0900, 1300.681
793.5721, 1329.569
794.0543, 1354.941
794.5364, 1376.082
795.0185, 1397.959
795.5006, 1419.648
795.9827, 1447.554
796.4648, 1488.516
796.9470, 1541.866
797.4291, 1598.749
797.9112, 1654.102
798.3933, 1720.258
798.8754, 1802.334
799.3575, 1890.818
799.8397, 1982.080
800.3218, 2075.194
800.8039, 2170.210
801.2860, 2266.801
801.7681, 2364.636
802.2502, 2458.849
802.7324, 2558.458
803.2145, 2671.159
803.6966, 2795.522
804.1787, 2927.229
804.6608, 3065.861
805.1429, 3218.969
805.6251, 3395.359
806.1072, 3587.095
806.5893, 3777.631
807.0714, 3968.165
807.5535, 4160.998
808.0356, 4356.569
808.5178, 4561.431
808.9999, 4782.520
809.4820, 5012.862
809.9641, 5232.273
810.4462, 5443.838
810.9283, 5637.148
811.4105, 5822.681
811.8926, 5973.907
812.3747, 6066.532
812.8568, 6127.843
813.3389, 6192.717
813.8210, 6261.156
814.3032, 6294.835
814.7853, 6279.135
815.2674, 6239.041
815.7495, 6181.453
816.2316, 6104.537
816.7137, 6000.368
817.1959, 5875.006
817.6780, 5744.652
818.1601, 5615.771
818.6422, 5484.217
819.1243, 5342.956
819.6064, 5196.913
820.0886, 5048.894
820.5707, 4902.833
821.0528, 4773.071
821.5349, 4663.346
822.0170, 4566.446
822.4991, 4475.722
822.9813, 4389.194
823.4634, 4293.068
823.9455, 4185.151
824.4276, 4102.052
824.9097, 4055.603
825.3918, 4017.778
825.8740, 3967.506
826.3561, 3909.679
826.8382, 3862.003
827.3203, 3831.689
827.8024, 3794.693
828.2845, 3739.285
828.7667, 3691.711
829.2488, 3665.496
829.7309, 3649.512
830.2130, 3632.478
830.6951, 3613.491
831.1772, 3590.875
831.6594, 3553.413
832.1415, 3525.470
832.6236, 3529.593
833.1057, 3539.443
833.5878, 3526.183
834.0699, 3493.214
834.5521, 3461.833
835.0342, 3441.744
835.5163, 3424.139
835.9984, 3399.826
836.4805, 3373.116
836.9626, 3353.910
837.4448, 3339.115
837.9269, 3315.587
838.4090, 3279.175
838.8911, 3237.025
839.3732, 3195.963
839.8553, 3156.087
840.3375, 3119.196
840.8196, 3085.515
841.3017, 3042.317
841.7838, 2986.209
842.2659, 2925.159
842.7480, 2862.798
843.2302, 2801.052
843.7123, 2745.519
844.1944, 2702.404
844.6765, 2643.657
845.1586, 2556.743
845.6407, 2472.998
846.1229, 2399.291
846.6050, 2335.810
847.0871, 2288.451
847.5692, 2255.097
848.0513, 2211.011
848.5334, 2145.664
849.0156, 2078.595
849.4977, 2010.351
849.9798, 1946.546
850.4619, 1893.010
850.9440, 1846.494
851.4261, 1799.854
851.9083, 1750.367
852.3904, 1705.269
852.8725, 1675.093
853.3546, 1646.262
853.8367, 1599.862
854.3188, 1544.674
854.8010, 1498.860
855.2831, 1465.800
855.7652, 1439.179
856.2473, 1415.939
856.7294, 1392.333
857.2115, 1359.525
857.6937, 1320.314
858.1758, 1286.941
858.6579, 1260.526
859.1400, 1237.272
859.6221, 1215.574
860.1042, 1194.417
860.5864, 1171.817
861.0685, 1148.052
861.5506, 1127.687
862.0327, 1111.353
862.5148, 1062.527
862.9969, 1060.229
863.4791, 1053.794
863.9612, 1043.450
864.4433, 1017.473
864.9254, 1011.680
865.4075, 997.7999
865.8896, 983.5860
866.3718, 980.6310
866.8539, 987.0020
867.3360, 969.5229
867.8181, 953.8528
868.3002, 948.7250
868.7823, 953.5095
869.2645, 953.2479
869.7466, 939.2625
870.2287, 925.9281
870.7108, 918.7096
871.1929, 914.5195
871.6750, 912.8292
872.1572, 911.4092
872.6393, 905.2488
873.1214, 892.4264
873.6035, 880.8580
874.0856, 878.9911
874.5677, 879.0529
875.0499, 869.8450
875.5320, 856.4266
876.0141, 850.9216
876.4962, 854.4330
876.9783, 858.0479
877.4604, 856.0176
877.9426, 849.8503
878.4247, 840.3143
878.9068, 828.7351
879.3889, 819.8978
879.8710, 814.1246
880.3531, 811.2120
880.8353, 811.2994
881.3174, 811.2115
881.7995, 806.6616
882.2816, 798.7847
882.7637, 794.7684
883.2458, 794.8670
883.7280, 797.2266
884.2101, 801.8993
884.6922, 808.2541
885.1743, 818.1923
885.6564, 826.7096
886.1385, 821.2230
886.6207, 796.1291
887.1028, 782.8188
887.5849, 789.4222
888.0670, 794.6990
888.5491, 789.1768
889.0313, 783.6546
889.5134, 789.4492
889.9955, 803.6664
890.4776, 813.1573
890.9597, 817.2772
891.4418, 816.1833
891.9240, 801.2431
892.4061, 790.5020
892.8882, 798.2585
893.3703, 813.4132
893.8524, 820.3862
894.3345, 817.4803
894.8167, 813.9935
895.2988, 815.2350
895.7809, 814.8747
896.2630, 806.3513
896.7451, 796.9453
897.2272, 795.0680
897.7094, 798.9360
898.1915, 802.5288
898.6736, 803.7109
899.1557, 803.0068
899.6378, 798.9011
900.1199, 794.6673
900.6021, 795.7873
901.0842, 799.4992
901.5663, 798.3935
902.0484, 792.5336
902.5305, 790.2241
903.0126, 797.0949
903.4948, 807.1288
903.9769, 812.0710
904.4590, 812.8970
904.9411, 812.4267
905.4232, 810.7318
905.9053, 805.4512
906.3875, 795.9180
906.8696, 791.1771
907.3517, 801.7329
907.8338, 820.7672
908.3159, 824.9518
908.7980, 814.1732
909.2802, 804.4248
909.7623, 796.7875
910.2444, 795.3416
910.7265, 803.5985
911.2086, 814.2670
911.6907, 816.2880
912.1729, 809.8094
912.6550, 807.3378
913.1371, 809.8928
913.6192, 813.3484
914.1013, 817.6948
914.5834, 821.4122
915.0656, 822.5114
915.5477, 822.9529
916.0298, 827.8109
916.5119, 839.3658
916.9940, 846.8132
917.4761, 849.5252
917.9583, 848.9922
918.4404, 840.0842
918.9225, 832.7795
919.4046, 834.6608
919.8867, 844.7294
920.3688, 860.0900
920.8510, 889.3295
921.3331, 904.2975
921.8152, 886.6203
922.2973, 870.4345
922.7794, 873.5716
923.2615, 885.3635
923.7437, 894.2554
924.2258, 898.9621
924.7079, 901.1401
925.1900, 898.8515
925.6721, 898.1779
926.1542, 906.1264
926.6364, 912.4026
927.1185, 904.5919
927.6006, 890.8301
928.0827, 886.2681
928.5648, 893.7349
929.0469, 902.8480
929.5291, 907.7756
930.0112, 912.2893
930.4933, 920.4929
930.9754, 929.0714
931.4575, 933.7302
931.9396, 934.9734
932.4218, 934.7723
932.9039, 933.9368
933.3860, 934.9313
933.8681, 945.3495
934.3502, 954.3802
934.8323, 943.6148
935.3145, 922.2329
935.7966, 908.4063
936.2787, 904.4432
936.7608, 904.9673
937.2429, 907.2965
937.7250, 910.8746
938.2072, 916.6797
938.6893, 922.5779
939.1714, 923.5152
939.6535, 920.0513
940.1356, 914.0781
940.6177, 906.3121
941.0999, 898.6752
941.5820, 892.4603
942.0641, 887.4296
942.5462, 882.7958
943.0283, 878.9092
943.5104, 878.3200
943.9926, 880.8326
944.4747, 882.8243
944.9568, 883.2137
945.4389, 881.3593
945.9210, 876.3353
946.4031, 869.4797
946.8853, 863.3729
947.3674, 858.0440
947.8495, 860.6191
948.3316, 872.4328
948.8137, 881.8706
949.2958, 884.4823
949.7780, 882.7520
950.2601, 878.8284
950.7422, 873.3659
951.2243, 870.6492
951.7064, 871.8268
952.1885, 867.2595
952.6707, 853.7840
953.1528, 843.3430
953.6349, 842.0587
954.1170, 845.4731
954.5991, 848.1923
955.0812, 850.1107
955.5634, 848.5140
956.0455, 840.5727
956.5276, 838.3267
957.0097, 846.0029
957.4918, 853.8666
957.9739, 857.2393
958.4561, 857.0949
958.9382, 854.6531
959.4203, 849.7202
959.9024, 845.0659
960.3845, 840.4074
960.8666, 836.4641
961.3488, 831.6282
961.8309, 829.9182
962.3130, 834.9185
962.7951, 844.1752
963.2772, 854.2515
963.7593, 867.0640
964.2415, 870.3333
964.7236, 854.9667
965.2057, 843.2766
965.6878, 845.8519
966.1699, 846.4917
966.6520, 828.4982
967.1342, 802.3386
967.6163, 792.7940
968.0984, 804.4516
968.5805, 816.5177
969.0626, 836.0696
969.5447, 845.1450
970.0269, 829.3412
970.5090, 810.4420
970.9911, 807.0987
971.4732, 813.5712
971.9553, 812.5636
972.4374, 798.7832
972.9196, 790.8520
973.4017, 794.3699
973.8838, 800.1539
974.3659, 806.7490
974.8480, 812.7726
975.3301, 817.9603
975.8123, 821.5859
976.2944, 820.5198
976.7765, 810.8535
977.2586, 807.9865
977.7407, 825.4045
978.2228, 838.0772
978.7050, 831.6038
979.1871, 817.7945
979.6692, 807.4446
980.1513, 800.6498
980.6334, 793.1107
981.1155, 781.9327
981.5977, 776.3312
982.0798, 784.8282
982.5619, 792.7917
983.0440, 789.6053
983.5261, 784.2682
984.0082, 788.4696
984.4904, 800.1997
984.9725, 808.3112
985.4546, 810.1390
985.9367, 807.3975
986.4188, 797.7377
986.9009, 787.0230
987.3831, 775.1373
987.8652, 766.5173
988.3473, 768.7587
988.8294, 779.4575
989.3115, 786.7282
989.7936, 786.0338
990.2758, 784.5158
990.7579, 785.0715
991.2400, 785.7568
991.7221, 786.0113
992.2042, 785.2192
992.6863, 782.2703
993.1685, 777.5641
993.6506, 772.6965
994.1327, 767.0680
994.6148, 764.7043
995.0969, 771.1079
995.5790, 777.4057
996.0612, 776.4570
996.5433, 772.5187
997.0254, 772.9248
997.5075, 776.3601
997.9896, 772.6753
998.4717, 754.1999
998.9539, 741.0890
999.4360, 749.1849
999.9181, 758.8365
1000.400, 752.7628
1000.882, 742.3738
1001.364, 744.5969
1001.847, 758.0173
1002.329, 768.1950
1002.811, 770.7599
1003.293, 767.7300
1003.775, 753.5025
1004.257, 741.0884
1004.739, 740.6693
1005.221, 746.6434
1005.703, 753.8611
1006.186, 760.2161
1006.668, 761.6052
1007.150, 754.3158
1007.632, 749.8727
1008.114, 757.9861
1008.596, 765.7437
1009.078, 762.4495
1009.560, 755.5340
1010.043, 755.1974
1010.525, 760.3919
1011.007, 762.9162
1011.489, 760.2749
1011.971, 754.7546
1012.453, 742.7396
1012.935, 733.3591
1013.417, 732.8735
1013.899, 737.5608
1014.382, 746.2245
1014.864, 755.8954
1015.346, 758.7540
1015.828, 751.0601
1016.310, 743.4254
1016.792, 740.0665
1017.274, 737.6377
1017.756, 734.9197
1018.239, 731.7441
1018.721, 726.3831
1019.203, 720.6494
1019.685, 720.2275
1020.167, 727.7673
1020.649, 733.7216
1021.131, 736.6723
1021.613, 735.2737
1022.095, 723.8571
1022.578, 712.1205
1023.060, 709.4214
1023.542, 713.6857
1024.024, 718.2108
1024.506, 721.7734
1024.988, 725.5719
1025.470, 730.2816
1025.952, 734.7747
1026.435, 741.1592
1026.917, 744.7995
1027.399, 740.7170
1027.881, 731.4111
1028.363, 721.8235
1028.845, 712.3038
1029.327, 705.1851
1029.809, 697.6741
1030.292, 697.0721
1030.774, 715.7266
1031.256, 731.4882
1031.738, 723.3061
1032.220, 704.2991
1032.702, 700.4349
1033.184, 715.1354
1033.666, 721.8574
1034.148, 710.9907
1034.630, 702.1497
1035.113, 696.2828
1035.595, 695.6085
1036.077, 707.5078
1036.559, 722.1351
1037.041, 723.6406
1037.523, 711.4005
1038.005, 701.7289
1038.487, 691.9397
1038.970, 689.4412
1039.452, 701.9830
1039.934, 712.3102
1040.416, 710.8385
1040.898, 705.0400
1041.380, 704.0944
1041.862, 707.3975
1042.344, 708.0500
1042.826, 703.9597
1043.309, 701.8590
1043.791, 702.7173
1044.273, 704.2661
1044.755, 706.3151
1045.237, 707.6992
1045.719, 706.2850
1046.201, 703.4380
1046.683, 706.6115
1047.166, 720.9600
1047.648, 722.7484
1048.130, 707.1714
1048.612, 692.1036
1049.094, 681.0524
1049.576, 677.2891
1050.058, 685.5876
1050.540, 700.6779
1051.022, 708.2853
1051.505, 707.8178
1051.987, 704.1562
1052.469, 695.5629
1052.951, 696.9545
1053.433, 714.3495
1053.915, 727.7769
1054.397, 722.9311
1054.879, 709.2314
1055.361, 704.3339
1055.844, 707.2143
1056.326, 704.4141
1056.808, 695.9575
1057.290, 692.7496
1057.772, 696.6941
1058.254, 701.4973
1058.736, 703.8663
1059.218, 705.7020
1059.701, 710.9195
1060.183, 716.4180
1060.665, 708.7313
1061.147, 691.0449
1061.629, 680.9346
1062.111, 679.9071
1062.593, 682.5106
1063.075, 686.4812
1063.557, 691.3940
1064.040, 697.6744
1064.522, 702.8242
1065.004, 699.8726
1065.486, 693.0020
1065.968, 693.7864
1066.450, 700.4088
1066.932, 704.4044
1067.414, 703.2327
1067.896, 696.8056
1068.379, 683.0953
1068.861, 671.6455
1069.343, 674.4171
1069.825, 685.2200
1070.307, 700.5311
1070.789, 714.9902
1071.271, 718.7390
1071.753, 711.6115
1072.236, 699.4324
1072.718, 683.5181
1073.200, 672.1229
1073.682, 672.6658
1074.164, 678.5791
1074.646, 688.5812
1075.128, 697.6487
1075.610, 699.0261
1076.093, 694.4462
1076.575, 689.4323
1077.057, 685.3597
1077.539, 683.3681
1078.021, 684.9702
1078.503, 687.4356
1078.985, 690.4142
1079.467, 692.9067
1079.949, 693.7468
1080.432, 693.7899
1080.914, 695.5573
1081.396, 698.9729
1081.878, 697.7188
1082.360, 683.2123
1082.842, 675.3934
1083.324, 682.4631
1083.806, 690.5997
1084.288, 694.6387
1084.771, 695.8608
1085.253, 695.7379
1085.735, 694.1081
1086.217, 689.6693
1086.699, 679.8700
1087.181, 674.2247
1087.663, 674.5583
1088.145, 675.2241
1088.628, 673.6497
1089.110, 674.4482
1089.592, 682.6414
1090.074, 693.5173
1090.556, 696.1745
1091.038, 690.1735
1091.520, 689.7140
1092.002, 696.6600
1092.484, 695.3687
1092.967, 681.3898
1093.449, 673.1714
1093.931, 681.1759
1094.413, 692.8127
1094.895, 691.4467
1095.377, 681.2890
1095.859, 677.3763
1096.341, 679.1714
1096.823, 684.4733
1097.306, 692.1798
1097.788, 693.1208
1098.270, 684.9725
1098.752, 680.0242
1099.234, 689.3062
1099.716, 701.6586
1100.198, 696.9360
1100.680, 684.4517
1101.163, 685.6475
1101.645, 694.7828
1102.127, 694.2101
1102.609, 683.2444
1103.091, 674.2205
1103.573, 672.9857
1104.055, 674.0572
1104.537, 673.1111
1105.020, 672.2410
1105.502, 673.3519
1105.984, 675.6801
1106.466, 677.9551
1106.948, 680.7305
1107.430, 686.9857
1107.912, 696.7778
1108.394, 701.1940
1108.876, 693.5739
1109.359, 684.5352
1109.841, 675.5975
1110.323, 669.1760
1110.805, 667.9029
1111.287, 669.2456
1111.769, 671.1179
1112.251, 672.8763
1112.733, 672.0328
1113.215, 665.0005
1113.698, 663.9170
1114.180, 676.0062
1114.662, 682.9144
1115.144, 677.0867
1115.626, 669.9593
1116.108, 669.3102
1116.590, 672.2952
1117.072, 674.0347
1117.555, 674.5317
1118.037, 670.9886
1118.519, 661.4136
1119.001, 660.3893
1119.483, 671.2627
1119.965, 679.5734
1120.447, 678.9680
1120.929, 675.6838
1121.411, 676.4661
1121.894, 678.5394
1122.376, 672.7358
1122.858, 661.5142
1123.340, 657.9821
1123.822, 661.6458
1124.304, 667.7484
1124.786, 674.5028
1125.268, 678.1083
1125.750, 676.1728
1126.233, 674.1163
1126.715, 679.7191
1127.197, 687.3633
1127.679, 688.6420
1128.161, 686.9377
1128.643, 688.2249
1129.125, 691.4481
1129.607, 691.4151
1130.090, 687.2527
1130.572, 685.1623
1131.054, 692.0917
1131.536, 694.9479
1132.018, 680.5505
1132.500, 666.8185
1132.982, 667.3410
1133.464, 674.5467
1133.947, 679.5249
1134.429, 682.1866
1134.911, 686.5673
1135.393, 695.9073
1135.875, 697.4630
1136.357, 682.0098
1136.839, 670.8846
1137.321, 669.0692
1137.803, 670.4361
1138.286, 672.4923
1138.768, 674.6065
1139.250, 675.9041
1139.732, 676.3947
1140.214, 676.1469
1140.696, 675.0934
1141.178, 673.7657
1141.660, 672.1840
1142.142, 669.9486
1142.625, 666.7683
1143.107, 666.4280
1143.589, 672.5757
1144.071, 679.6271
1144.553, 675.7602
1145.035, 665.6031
1145.517, 664.0995
1145.999, 668.4402
1146.482, 669.6341
1146.964, 667.0470
1147.446, 663.9185
1147.928, 661.6010
1148.410, 660.6107
1148.892, 661.3817
1149.374, 663.5457
1149.856, 668.1527
1150.339, 672.6813
1150.821, 675.5255
1151.303, 676.0156
1151.785, 672.8717
1152.267, 666.6702
1152.749, 659.2957
1153.231, 649.5184
1153.713, 645.4623
1154.195, 654.7955
1154.677, 661.9509
1155.160, 660.4868
1155.642, 657.3256
1156.124, 654.2227
1156.606, 654.2749
1157.088, 665.0016
1157.570, 684.3572
1158.052, 686.1352
1158.534, 664.2007
1159.017, 653.1263
1159.499, 655.7732
1159.981, 664.6707
1160.463, 679.3008
1160.945, 683.7787
1161.427, 664.5582
1161.909, 639.2525
1162.391, 640.9604
1162.874, 659.5964
1163.356, 659.7400
1163.838, 647.6007
1164.320, 642.2990
1164.802, 645.0931
1165.284, 650.2000
1165.766, 655.6326
1166.248, 662.8047
1166.730, 674.8959
1167.213, 683.2522
1167.695, 679.3736
1168.177, 670.0092
1168.659, 656.8915
1169.141, 645.0533
1169.623, 640.1368
1170.105, 641.5298
1170.587, 646.6245
1171.069, 655.6633
1171.552, 662.4402
1172.034, 668.0948
1172.516, 667.9106
1172.998, 654.9800
1173.480, 645.1728
1173.962, 646.7347
1174.444, 652.3951
1174.926, 655.4240
1175.409, 655.7593
1175.891, 652.0876
1176.373, 643.7396
1176.855, 641.5637
1177.337, 645.6908
1177.819, 650.1175
1178.301, 653.6973
1178.783, 656.6808
1179.266, 659.2012
1179.748, 660.8536
1180.230, 661.3397
1180.712, 660.4082
1181.194, 657.3698
1181.676, 652.8095
1182.158, 647.2261
1182.640, 641.1983
1183.122, 634.1987
1183.604, 627.6395
1184.087, 627.1926
1184.569, 635.7960
1185.051, 643.8174
1185.533, 648.0405
1186.015, 649.1357
1186.497, 645.5193
1186.979, 640.8729
1187.461, 636.7743
1187.944, 633.8171
1188.426, 633.0074
1188.908, 633.9557
1189.390, 634.0756
1189.872, 631.8111
1190.354, 634.9036
1190.836, 645.0505
1191.318, 653.3745
1191.801, 658.1374
1192.283, 659.3405
1192.765, 656.8901
1193.247, 651.0405
1193.729, 640.1263
1194.211, 629.0927
1194.693, 632.1633
1195.175, 644.0789
1195.657, 653.3342
1196.140, 658.1162
1196.622, 654.0568
1197.104, 642.9636
1197.586, 635.8726
1198.068, 637.8625
1198.550, 642.0140
1199.032, 645.8740
1199.514, 648.2142
1199.996, 646.8187
1200.479, 645.2109
1200.961, 648.0714
1201.443, 651.3246
1201.925, 647.0949
1202.407, 636.6968
1202.889, 632.6438
1203.371, 637.9703
1203.853, 639.8651
1204.336, 636.9922
1204.818, 635.0172
1205.300, 635.1436
1205.782, 635.5892
1206.264, 635.1039
1206.746, 636.7372
1207.228, 645.3950
1207.710, 656.3451
1208.193, 656.5632
1208.675, 649.7278
1209.157, 646.2891
1209.639, 645.4174
1210.121, 643.1738
1210.603, 638.9743
1211.085, 633.3029
1211.567, 626.2363
1212.049, 622.6078
1212.531, 625.1998
1213.014, 632.2571
1213.496, 653.3714
1213.978, 666.9935
1214.460, 648.2414
1214.942, 620.5508
1215.424, 612.6262
1215.906, 621.6487
1216.388, 634.2673
1216.871, 652.8397
1217.353, 659.4500
1217.835, 651.3226
1218.317, 642.0945
1218.799, 632.7836
1219.281, 629.2838
1219.763, 634.4474
1220.245, 640.3148
1220.728, 639.2166
1221.210, 636.2130
1221.692, 643.2963
1222.174, 653.0834
1222.656, 648.4041
1223.138, 635.3414
1223.620, 624.8077
1224.102, 618.8221
1224.584, 618.0123
1225.067, 622.1463
1225.549, 627.3209
1226.031, 633.1870
1226.513, 637.2089
1226.995, 637.2128
1227.477, 636.9064
1227.959, 636.3416
1228.441, 638.0523
1228.923, 647.8984
1229.406, 657.2548
1229.888, 648.9493
1230.370, 625.6180
1230.852, 618.5497
1231.334, 628.6027
1231.816, 632.5190
1232.298, 629.2314
1232.780, 628.5072
1233.263, 632.5832
##END=



