##NAMES=Fayalite
##RRUFFID=R070157
##IDEAL CHEMISTRY=Fe^2+^_2_SiO_4_
##LOCALITY=Coso Hot Springs, Inyo County, California, USA
##OWNER=RRUFF
##SOURCE=James Shigley
##DESCRIPTION=Brown transparent tabular crystals associated with fine grained quartz
##STATUS=The identification of this mineral is confirmed by single-crystal X-ray diffraction and chemical analysis.
##URL=rruff.info/R070157
##MEASURED CHEMISTRY=(Fe^2+^_1.88_Mn_0.11_Zn_0.01_)_Î£=2_Si_1.00_O_4_ ; trace amounts of Mg
129.5057, 786.7835
129.9878, 836.4691
130.4699, 890.3206
130.9521, 947.9086
131.4342, 1012.906
131.9163, 1096.146
132.3984, 1204.498
132.8805, 1294.112
133.3626, 1340.542
133.8448, 1369.730
134.3269, 1397.325
134.8090, 1427.436
135.2911, 1456.896
135.7732, 1480.907
136.2553, 1499.039
136.7375, 1512.603
137.2196, 1520.269
137.7017, 1524.968
138.1838, 1527.705
138.6659, 1528.702
139.1480, 1530.634
139.6302, 1540.324
140.1123, 1567.293
140.5944, 1583.815
141.0765, 1572.065
141.5586, 1556.365
142.0407, 1562.219
142.5229, 1600.173
143.0050, 1655.799
143.4871, 1692.548
143.9692, 1699.583
144.4513, 1700.663
144.9334, 1682.081
145.4156, 1665.661
145.8977, 1674.588
146.3798, 1719.605
146.8619, 1793.217
147.3440, 1871.750
147.8261, 1965.217
148.3083, 2051.947
148.7904, 2123.469
149.2725, 2189.131
149.7546, 2261.595
150.2367, 2347.177
150.7188, 2441.414
151.2010, 2528.010
151.6831, 2661.110
152.1652, 2722.084
152.6473, 2656.083
153.1294, 2518.067
153.6115, 2377.574
154.0937, 2268.517
154.5758, 2188.984
155.0579, 2133.065
155.5400, 2121.985
156.0221, 2108.129
156.5042, 2076.296
156.9864, 2036.909
157.4685, 2007.684
157.9506, 1997.812
158.4327, 2003.709
158.9148, 2012.084
159.3969, 2021.287
159.8791, 2034.182
160.3612, 2056.842
160.8433, 2083.596
161.3254, 2103.759
161.8075, 2112.451
162.2896, 2110.203
162.7718, 2098.242
163.2539, 2075.094
163.7360, 2046.867
164.2181, 2012.888
164.7002, 1975.022
165.1823, 1937.530
165.6645, 1901.633
166.1466, 1868.410
166.6287, 1840.351
167.1108, 1810.491
167.5929, 1794.016
168.0750, 1800.840
168.5572, 1826.802
169.0393, 1861.362
169.5214, 1904.444
170.0035, 1948.451
170.4856, 1976.330
170.9677, 1987.481
171.4499, 1986.533
171.9320, 1973.892
172.4141, 1950.589
172.8962, 1918.938
173.3783, 1876.621
173.8604, 1829.436
174.3426, 1788.364
174.8247, 1754.791
175.3068, 1723.456
175.7889, 1693.217
176.2710, 1663.443
176.7531, 1629.944
177.2353, 1589.232
177.7174, 1546.135
178.1995, 1509.315
178.6816, 1481.349
179.1637, 1451.515
179.6458, 1406.143
180.1279, 1349.845
180.6101, 1310.291
181.0922, 1305.331
181.5743, 1312.809
182.0564, 1300.641
182.5385, 1264.849
183.0206, 1229.643
183.5028, 1211.264
183.9849, 1207.790
184.4670, 1206.642
184.9491, 1202.192
185.4312, 1201.907
185.9133, 1215.717
186.3955, 1245.153
186.8776, 1271.929
187.3597, 1282.897
187.8418, 1279.645
188.3239, 1273.857
188.8060, 1269.338
189.2882, 1261.005
189.7703, 1241.421
190.2524, 1210.730
190.7345, 1184.776
191.2166, 1178.024
191.6987, 1187.577
192.1809, 1192.539
192.6630, 1185.465
193.1451, 1177.537
193.6272, 1178.960
194.1093, 1188.894
194.5914, 1198.229
195.0736, 1201.135
195.5557, 1198.162
196.0378, 1193.152
196.5199, 1187.491
197.0020, 1178.116
197.4841, 1161.209
197.9663, 1138.341
198.4484, 1117.426
198.9305, 1103.897
199.4126, 1096.796
199.8947, 1089.954
200.3768, 1079.937
200.8590, 1075.067
201.3411, 1084.298
201.8232, 1102.872
202.3053, 1116.516
202.7874, 1113.068
203.2695, 1096.551
203.7517, 1085.658
204.2338, 1082.292
204.7159, 1082.215
205.1980, 1085.048
205.6801, 1089.027
206.1622, 1090.247
206.6444, 1085.813
207.1265, 1077.078
207.6086, 1067.770
208.0907, 1055.612
208.5728, 1047.396
209.0549, 1049.854
209.5371, 1057.373
210.0192, 1060.367
210.5013, 1051.353
210.9834, 1036.660
211.4655, 1032.682
211.9476, 1043.249
212.4298, 1056.455
212.9119, 1070.480
213.3940, 1083.078
213.8761, 1089.924
214.3582, 1086.830
214.8403, 1080.748
215.3225, 1087.184
215.8046, 1112.284
216.2867, 1132.005
216.7688, 1133.613
217.2509, 1127.326
217.7330, 1121.071
218.2152, 1115.954
218.6973, 1116.222
219.1794, 1131.760
219.6615, 1168.018
220.1436, 1197.797
220.6257, 1205.927
221.1079, 1207.431
221.5900, 1213.970
222.0721, 1228.713
222.5542, 1244.711
223.0363, 1255.062
223.5184, 1260.136
224.0006, 1256.962
224.4827, 1233.010
224.9648, 1208.088
225.4469, 1197.397
225.9290, 1202.904
226.4111, 1211.354
226.8933, 1209.758
227.3754, 1197.808
227.8575, 1185.700
228.3396, 1176.308
228.8217, 1165.800
229.3038, 1149.762
229.7859, 1128.889
230.2681, 1110.250
230.7502, 1097.961
231.2323, 1092.134
231.7144, 1095.339
232.1965, 1116.901
232.6786, 1136.647
233.1608, 1140.115
233.6429, 1130.642
234.1250, 1121.359
234.6071, 1121.718
235.0892, 1129.365
235.5714, 1133.311
236.0535, 1131.846
236.5356, 1129.100
237.0177, 1126.970
237.4998, 1125.436
237.9819, 1124.435
238.4641, 1123.212
238.9462, 1122.750
239.4283, 1126.226
239.9104, 1135.625
240.3925, 1143.663
240.8746, 1143.768
241.3568, 1140.796
241.8389, 1141.978
242.3210, 1152.388
242.8031, 1164.866
243.2852, 1168.977
243.7673, 1163.764
244.2495, 1154.980
244.7316, 1141.496
245.2137, 1127.216
245.6958, 1115.517
246.1779, 1106.002
246.6600, 1102.062
247.1422, 1109.954
247.6243, 1129.788
248.1064, 1147.160
248.5885, 1157.535
249.0706, 1163.044
249.5527, 1166.506
250.0349, 1168.052
250.5170, 1167.410
250.9991, 1161.018
251.4812, 1150.851
251.9633, 1149.016
252.4454, 1162.084
252.9276, 1179.387
253.4097, 1189.420
253.8918, 1192.566
254.3739, 1195.468
254.8560, 1203.221
255.3381, 1212.970
255.8203, 1217.640
256.3024, 1215.566
256.7845, 1210.183
257.2666, 1200.993
257.7487, 1189.830
258.2308, 1185.763
258.7130, 1195.996
259.1951, 1212.833
259.6772, 1226.347
260.1593, 1235.809
260.6414, 1243.513
261.1235, 1249.804
261.6057, 1255.601
262.0878, 1264.022
262.5699, 1278.571
263.0520, 1293.457
263.5341, 1303.002
264.0162, 1307.754
264.4984, 1313.203
264.9805, 1321.005
265.4626, 1332.494
265.9447, 1350.139
266.4268, 1376.500
266.9089, 1404.796
267.3911, 1432.536
267.8732, 1459.616
268.3553, 1485.191
268.8374, 1508.185
269.3195, 1530.869
269.8016, 1558.217
270.2838, 1589.527
270.7659, 1624.784
271.2480, 1668.172
271.7301, 1714.099
272.2122, 1754.116
272.6943, 1786.068
273.1765, 1815.148
273.6586, 1847.002
274.1407, 1881.066
274.6228, 1922.988
275.1049, 1975.302
275.5870, 2034.516
276.0692, 2103.885
276.5513, 2181.136
277.0334, 2249.914
277.5155, 2293.597
277.9976, 2309.984
278.4797, 2341.133
278.9619, 2388.833
279.4440, 2447.294
279.9261, 2519.016
280.4082, 2600.107
280.8903, 2679.656
281.3724, 2750.955
281.8546, 2816.117
282.3367, 2887.656
282.8188, 2979.577
283.3009, 3060.560
283.7830, 3114.654
284.2651, 3157.656
284.7473, 3210.833
285.2294, 3282.473
285.7115, 3366.475
286.1936, 3451.093
286.6757, 3548.774
287.1578, 3625.863
287.6400, 3675.407
288.1221, 3710.355
288.6042, 3741.983
289.0863, 3771.583
289.5684, 3790.824
290.0505, 3787.021
290.5327, 3751.628
291.0148, 3729.100
291.4969, 3751.305
291.9790, 3755.960
292.4611, 3709.430
292.9432, 3620.827
293.4254, 3519.371
293.9075, 3425.646
294.3896, 3338.667
294.8717, 3253.861
295.3538, 3173.810
295.8359, 3092.178
296.3181, 3007.761
296.8002, 2920.875
297.2823, 2831.702
297.7644, 2738.811
298.2465, 2647.706
298.7286, 2571.441
299.2108, 2515.631
299.6929, 2459.553
300.1750, 2390.888
300.6571, 2325.157
301.1392, 2276.179
301.6213, 2246.076
302.1035, 2223.800
302.5855, 2195.843
303.0677, 2161.717
303.5498, 2137.999
304.0319, 2134.412
304.5140, 2134.227
304.9961, 2129.323
305.4782, 2118.975
305.9604, 2101.602
306.4425, 2069.598
306.9246, 2029.986
307.4067, 2005.922
307.8888, 2005.308
308.3709, 2001.462
308.8531, 1971.812
309.3352, 1927.761
309.8173, 1887.902
310.2994, 1858.638
310.7815, 1833.906
311.2636, 1807.089
311.7458, 1778.371
312.2279, 1751.674
312.7100, 1730.267
313.1921, 1710.825
313.6742, 1687.865
314.1563, 1662.564
314.6385, 1630.970
315.1206, 1583.985
315.6027, 1529.735
316.0848, 1487.056
316.5669, 1462.047
317.0490, 1445.054
317.5312, 1423.736
318.0133, 1397.044
318.4954, 1374.083
318.9775, 1362.292
319.4596, 1350.747
319.9417, 1327.170
320.4239, 1292.081
320.9060, 1257.066
321.3881, 1231.243
321.8702, 1214.632
322.3523, 1201.924
322.8344, 1199.957
323.3166, 1194.028
323.7987, 1174.837
324.2808, 1148.321
324.7629, 1126.189
325.2450, 1114.231
325.7271, 1108.409
326.2093, 1098.023
326.6914, 1074.749
327.1735, 1058.343
327.6556, 1053.635
328.1377, 1052.819
328.6198, 1049.591
329.1020, 1042.700
329.5841, 1034.817
330.0662, 1029.216
330.5483, 1026.628
331.0304, 1022.593
331.5125, 1017.053
331.9947, 1010.073
332.4768, 999.2982
332.9589, 987.0772
333.4410, 978.4808
333.9231, 977.6721
334.4052, 982.1622
334.8874, 981.9585
335.3695, 974.4445
335.8516, 967.0477
336.3337, 958.4055
336.8158, 952.4222
337.2979, 954.4606
337.7801, 966.5035
338.2622, 981.4428
338.7443, 991.2183
339.2264, 995.7249
339.7085, 998.5546
340.1906, 1001.119
340.6728, 1001.060
341.1549, 993.4424
341.6370, 979.8052
342.1191, 972.5281
342.6012, 984.8943
343.0833, 1006.845
343.5655, 1014.750
344.0476, 1004.510
344.5297, 994.3957
345.0118, 999.2679
345.4939, 1013.715
345.9760, 1022.809
346.4582, 1019.571
346.9403, 1016.207
347.4224, 1021.483
347.9045, 1033.832
348.3866, 1048.434
348.8687, 1064.313
349.3509, 1079.518
349.8330, 1089.762
350.3151, 1094.258
350.7972, 1097.211
351.2793, 1095.242
351.7614, 1094.305
352.2436, 1101.170
352.7257, 1116.602
353.2078, 1136.390
353.6899, 1157.372
354.1720, 1180.112
354.6541, 1196.698
355.1363, 1201.460
355.6184, 1207.267
356.1005, 1219.059
356.5826, 1235.435
357.0647, 1253.213
357.5468, 1270.815
358.0290, 1288.646
358.5111, 1308.080
358.9932, 1332.901
359.4753, 1352.697
359.9574, 1361.731
360.4395, 1369.516
360.9217, 1383.900
361.4038, 1405.608
361.8859, 1428.977
362.3680, 1446.994
362.8501, 1459.206
363.3322, 1477.473
363.8144, 1507.896
364.2965, 1536.818
364.7786, 1558.477
365.2607, 1574.393
365.7428, 1587.364
366.2249, 1597.595
366.7071, 1606.662
367.1892, 1617.509
367.6713, 1630.541
368.1534, 1641.805
368.6355, 1648.352
369.1176, 1653.565
369.5998, 1662.297
370.0819, 1675.486
370.5640, 1687.302
371.0461, 1694.801
371.5282, 1698.748
372.0103, 1701.367
372.4925, 1703.430
372.9746, 1701.375
373.4567, 1689.808
373.9388, 1669.068
374.4209, 1653.168
374.9030, 1646.151
375.3852, 1640.964
375.8673, 1637.113
376.3494, 1631.953
376.8315, 1616.921
377.3136, 1586.254
377.7957, 1547.733
378.2779, 1521.638
378.7600, 1521.101
379.2421, 1515.735
379.7242, 1503.610
380.2063, 1487.495
380.6884, 1467.544
381.1706, 1444.960
381.6527, 1424.502
382.1348, 1411.157
382.6169, 1405.267
383.0990, 1400.311
383.5811, 1405.768
384.0633, 1401.331
384.5454, 1371.165
385.0275, 1330.598
385.5096, 1302.732
385.9917, 1298.508
386.4738, 1306.887
386.9560, 1309.268
387.4381, 1304.336
387.9202, 1300.574
388.4023, 1304.296
388.8844, 1305.783
389.3665, 1296.036
389.8487, 1275.709
390.3308, 1255.914
390.8129, 1241.172
391.2950, 1231.802
391.7771, 1230.112
392.2592, 1237.487
392.7414, 1244.801
393.2235, 1246.111
393.7056, 1242.717
394.1877, 1239.141
394.6698, 1233.380
395.1519, 1230.274
395.6341, 1233.711
396.1162, 1241.473
396.5983, 1249.830
397.0804, 1257.862
397.5625, 1263.606
398.0446, 1263.594
398.5268, 1254.789
399.0089, 1249.942
399.4910, 1254.979
399.9731, 1258.683
400.4552, 1251.590
400.9373, 1237.023
401.4194, 1225.594
401.9016, 1224.463
402.3837, 1231.132
402.8658, 1235.312
403.3479, 1236.683
403.8300, 1235.694
404.3121, 1229.248
404.7943, 1222.772
405.2764, 1222.191
405.7585, 1227.877
406.2406, 1233.247
406.7227, 1231.402
407.2048, 1222.578
407.6870, 1212.488
408.1691, 1199.928
408.6512, 1188.174
409.1333, 1181.311
409.6154, 1176.047
410.0975, 1165.607
410.5797, 1144.167
411.0618, 1122.582
411.5439, 1115.559
412.0260, 1120.461
412.5081, 1117.827
412.9902, 1098.410
413.4724, 1073.918
413.9545, 1063.857
414.4366, 1069.334
414.9187, 1069.887
415.4008, 1059.875
415.8829, 1044.563
416.3651, 1025.870
416.8472, 1005.393
417.3293, 989.0377
417.8114, 981.3660
418.2935, 980.4246
418.7756, 975.8586
419.2578, 960.7376
419.7399, 950.6622
420.2220, 950.9479
420.7041, 954.7045
421.1862, 956.7499
421.6683, 955.3478
422.1505, 949.5760
422.6326, 936.6644
423.1147, 915.7949
423.5968, 901.3538
424.0789, 896.1279
424.5610, 894.3279
425.0432, 897.1743
425.5253, 900.9117
426.0074, 899.0242
426.4895, 887.5662
426.9716, 874.2770
427.4537, 870.8732
427.9359, 876.7006
428.4180, 875.8953
428.9001, 859.4037
429.3822, 842.6020
429.8643, 844.3357
430.3464, 862.8469
430.8286, 879.7593
431.3107, 895.1466
431.7928, 903.3776
432.2749, 893.5693
432.7570, 869.1595
433.2391, 850.0898
433.7213, 847.9203
434.2034, 857.0220
434.6855, 860.3101
435.1676, 851.0640
435.6497, 845.8326
436.1318, 851.7871
436.6140, 857.8442
437.0961, 851.7855
437.5782, 834.5682
438.0603, 818.9169
438.5424, 817.2897
439.0245, 828.3618
439.5067, 832.2153
439.9888, 821.5273
440.4709, 814.4324
440.9530, 820.0510
441.4351, 828.9521
441.9172, 830.1711
442.3994, 820.6126
442.8815, 808.6791
443.3636, 804.2003
443.8457, 805.5970
444.3278, 800.4686
444.8099, 783.5767
445.2921, 768.1498
445.7742, 766.1241
446.2563, 773.9918
446.7384, 782.9203
447.2205, 792.6873
447.7026, 801.8177
448.1848, 810.2133
448.6669, 817.1999
449.1490, 820.9132
449.6311, 820.7004
450.1132, 817.1682
450.5953, 810.9462
451.0775, 800.9945
451.5596, 791.4481
452.0417, 780.1022
452.5238, 771.1327
453.0059, 766.8989
453.4880, 766.8607
453.9702, 770.5867
454.4523, 778.4086
454.9344, 786.7635
455.4165, 785.4831
455.8986, 770.1837
456.3807, 757.4973
456.8629, 748.3192
457.3450, 744.0228
457.8271, 749.0107
458.3092, 761.3118
458.7913, 770.8091
459.2734, 768.9757
459.7556, 761.2108
460.2377, 757.4135
460.7198, 757.7106
461.2019, 761.1966
461.6840, 770.8726
462.1661, 780.8237
462.6483, 776.8572
463.1304, 750.9003
463.6125, 736.5060
464.0946, 755.6014
464.5767, 783.5182
465.0588, 793.1170
465.5410, 782.7391
466.0231, 767.3496
466.5052, 758.0759
466.9873, 754.2928
467.4694, 750.9477
467.9515, 746.1618
468.4337, 744.3757
468.9158, 749.0535
469.3979, 755.0745
469.8800, 759.0977
470.3621, 759.9053
470.8442, 755.7835
471.3264, 739.7971
471.8085, 714.6993
472.2906, 708.8895
472.7727, 732.3462
473.2548, 752.9353
473.7369, 748.0626
474.2191, 732.4248
474.7012, 725.4468
475.1833, 733.2681
475.6654, 740.4561
476.1475, 732.4709
476.6296, 717.9388
477.1118, 715.8093
477.5939, 729.7662
478.0760, 748.1439
478.5581, 761.6081
479.0402, 770.0864
479.5223, 774.8221
480.0045, 777.1473
480.4866, 774.7863
480.9687, 762.2440
481.4508, 746.7277
481.9329, 736.4613
482.4150, 733.9064
482.8972, 737.5425
483.3793, 747.6284
483.8614, 765.1741
484.3435, 775.3851
484.8256, 776.1685
485.3077, 771.8833
485.7899, 759.6014
486.2720, 745.4503
486.7541, 737.8364
487.2362, 738.8598
487.7183, 747.9232
488.2004, 773.5472
488.6826, 808.1110
489.1647, 819.8932
489.6468, 799.0949
490.1289, 773.4267
490.6110, 769.1628
491.0931, 785.5535
491.5753, 791.3861
492.0574, 771.9144
492.5395, 758.4810
493.0216, 771.7972
493.5037, 796.0844
493.9858, 805.5410
494.4680, 793.3021
494.9501, 775.9356
495.4322, 775.6461
495.9143, 795.2589
496.3964, 808.1541
496.8785, 810.7369
497.3607, 810.2116
497.8428, 806.4896
498.3249, 801.9718
498.8070, 800.0375
499.2891, 802.0030
499.7712, 805.1591
500.2533, 806.5114
500.7354, 806.5706
501.2176, 808.6622
501.6997, 814.4552
502.1818, 818.0948
502.6639, 812.2574
503.1460, 799.2478
503.6281, 794.4303
504.1103, 807.3202
504.5924, 818.1247
505.0745, 818.4182
505.5566, 811.9422
506.0387, 803.0370
506.5208, 793.1526
507.0030, 783.3126
507.4851, 773.9884
507.9672, 764.8839
508.4493, 762.6671
508.9314, 773.9700
509.4135, 784.0486
509.8957, 788.8760
510.3778, 790.7175
510.8599, 792.2805
511.3420, 794.2743
511.8241, 795.5609
512.3063, 795.2822
512.7884, 793.4379
513.2705, 788.8162
513.7526, 780.1683
514.2347, 774.7513
514.7169, 780.0831
515.1990, 792.1644
515.6811, 795.7035
516.1632, 784.3472
516.6453, 774.6026
517.1274, 771.6157
517.6096, 772.8475
518.0917, 776.5252
518.5738, 781.7454
519.0559, 786.6647
519.5380, 789.8351
520.0201, 791.2171
520.5023, 790.4055
520.9844, 786.0743
521.4665, 781.7018
521.9486, 774.6044
522.4307, 769.9538
522.9128, 773.9955
523.3950, 786.6465
523.8771, 798.9713
524.3592, 804.0192
524.8413, 804.7413
525.3234, 808.8665
525.8055, 816.8394
526.2877, 818.7499
526.7698, 805.8106
527.2519, 787.7247
527.7340, 788.6175
528.2161, 816.3702
528.6982, 836.3224
529.1804, 841.5184
529.6625, 839.0604
530.1446, 828.4005
530.6267, 814.4714
531.1088, 810.1684
531.5909, 823.9367
532.0731, 847.5004
532.5552, 858.8904
533.0373, 851.9890
533.5194, 852.3431
534.0015, 871.2121
534.4836, 890.6066
534.9658, 899.3138
535.4479, 899.7623
535.9300, 901.3137
536.4121, 908.2003
536.8942, 917.2453
537.3763, 925.9437
537.8585, 934.0958
538.3406, 938.8241
538.8227, 937.9699
539.3048, 940.9837
539.7869, 961.7262
540.2690, 1004.795
540.7512, 1030.806
541.2333, 1025.338
541.7154, 1021.069
542.1975, 1031.141
542.6796, 1048.610
543.1617, 1062.629
543.6439, 1070.162
544.1260, 1078.235
544.6081, 1096.874
545.0902, 1125.443
545.5723, 1148.699
546.0544, 1163.900
546.5366, 1179.413
547.0187, 1201.266
547.5008, 1225.366
547.9829, 1245.918
548.4650, 1261.714
548.9471, 1276.075
549.4292, 1290.740
549.9113, 1304.629
550.3934, 1314.766
550.8755, 1321.846
551.3577, 1332.041
551.8398, 1350.297
552.3219, 1373.461
552.8040, 1389.754
553.2861, 1394.747
553.7682, 1400.385
554.2504, 1407.970
554.7325, 1415.817
555.2146, 1422.443
555.6967, 1428.341
556.1788, 1435.529
556.6609, 1445.810
557.1431, 1456.953
557.6252, 1464.688
558.1073, 1469.490
558.5894, 1477.595
559.0715, 1492.363
559.5536, 1506.661
560.0358, 1511.425
560.5179, 1505.789
561.0000, 1505.127
561.4821, 1515.732
561.9642, 1524.555
562.4464, 1529.075
562.9285, 1527.433
563.4106, 1514.149
563.8927, 1489.174
564.3748, 1463.945
564.8569, 1451.935
565.3391, 1452.566
565.8212, 1451.734
566.3033, 1450.635
566.7854, 1445.522
567.2675, 1432.271
567.7496, 1415.442
568.2318, 1399.429
568.7139, 1384.712
569.1960, 1370.430
569.6781, 1358.747
570.1602, 1345.726
570.6423, 1324.832
571.1245, 1297.392
571.6066, 1271.346
572.0887, 1251.127
572.5708, 1234.129
573.0529, 1214.976
573.5350, 1193.324
574.0172, 1169.851
574.4993, 1139.535
574.9814, 1112.385
575.4635, 1091.872
575.9456, 1077.942
576.4277, 1071.796
576.9099, 1076.069
577.3920, 1079.423
577.8741, 1068.004
578.3562, 1045.069
578.8383, 1021.087
579.3204, 996.5652
579.8026, 979.5959
580.2847, 980.0005
580.7668, 993.6071
581.2489, 992.8888
581.7310, 966.7816
582.2131, 943.4828
582.6953, 926.2979
583.1774, 914.2611
583.6595, 908.5984
584.1416, 907.7147
584.6237, 906.6208
585.1058, 902.0504
585.5880, 894.7022
586.0701, 885.4377
586.5522, 873.7687
587.0343, 863.9774
587.5164, 856.3066
587.9985, 851.7396
588.4807, 855.1069
588.9628, 864.0876
589.4449, 864.0565
589.9270, 842.1597
590.4091, 821.9981
590.8912, 818.2326
591.3734, 823.3400
591.8555, 826.5427
592.3376, 824.8011
592.8197, 818.4883
593.3018, 806.8883
593.7839, 790.7869
594.2661, 779.9329
594.7482, 775.6072
595.2303, 774.0267
595.7124, 773.8698
596.1945, 776.3026
596.6766, 784.9500
597.1588, 799.2328
597.6409, 808.5140
598.1230, 807.1791
598.6051, 799.4419
599.0872, 783.8499
599.5693, 764.9377
600.0515, 759.2599
600.5336, 773.3456
601.0157, 793.0798
601.4978, 799.1360
601.9799, 789.4949
602.4620, 780.1166
602.9442, 767.8231
603.4263, 759.8888
603.9084, 758.4227
604.3905, 761.9522
604.8726, 771.4552
605.3547, 786.6591
605.8369, 797.2374
606.3190, 792.9285
606.8011, 780.4788
607.2832, 770.0369
607.7653, 762.3461
608.2474, 760.8817
608.7296, 768.0797
609.2117, 779.9547
609.6938, 790.1551
610.1759, 800.3058
610.6580, 803.0205
611.1401, 795.3814
611.6223, 784.2556
612.1044, 768.7576
612.5865, 752.8502
613.0686, 741.2449
613.5507, 735.3782
614.0328, 735.2283
614.5150, 743.5804
614.9971, 757.6725
615.4792, 769.3961
615.9613, 778.6251
616.4434, 781.0840
616.9255, 771.8524
617.4077, 757.5269
617.8898, 752.4484
618.3719, 760.3722
618.8540, 767.5964
619.3361, 775.3056
619.8182, 780.5731
620.3004, 780.5234
620.7825, 777.1437
621.2646, 773.8155
621.7467, 771.8204
622.2288, 770.6692
622.7109, 768.7177
623.1931, 766.6797
623.6752, 771.4379
624.1573, 785.9898
624.6394, 794.3950
625.1215, 784.2990
625.6036, 764.6682
626.0858, 756.7513
626.5679, 762.9241
627.0500, 771.3963
627.5321, 782.5159
628.0142, 793.6312
628.4963, 805.9694
628.9785, 816.4207
629.4606, 817.3351
629.9427, 805.4377
630.4248, 789.9360
630.9069, 784.3448
631.3890, 787.8691
631.8712, 787.9038
632.3533, 781.9309
632.8354, 778.9067
633.3175, 786.9168
633.7996, 799.4392
634.2817, 800.6944
634.7639, 784.4983
635.2460, 776.9722
635.7281, 795.1522
636.2102, 813.0855
636.6923, 809.7516
637.1744, 791.5243
637.6566, 774.7535
638.1387, 766.4235
638.6208, 764.0107
639.1029, 765.0396
639.5850, 769.4042
640.0671, 773.7968
640.5493, 778.3278
641.0314, 782.0765
641.5135, 783.6990
641.9956, 784.6716
642.4777, 788.4130
642.9598, 796.3701
643.4420, 801.6763
643.9241, 798.4955
644.4062, 796.2219
644.8883, 804.3817
645.3704, 818.1741
645.8525, 827.5731
646.3347, 828.5193
646.8168, 822.9212
647.2989, 809.8504
647.7810, 790.1918
648.2631, 781.6408
648.7452, 788.0287
649.2274, 793.5624
649.7095, 789.2011
650.1916, 780.7596
650.6737, 778.5580
651.1558, 783.4907
651.6379, 789.4774
652.1201, 797.6516
652.6022, 804.5645
653.0843, 808.2239
653.5664, 809.0311
654.0485, 807.3860
654.5306, 803.5765
655.0128, 799.1605
655.4949, 795.7446
655.9770, 793.2908
656.4591, 792.2419
656.9412, 793.4451
657.4233, 791.2374
657.9055, 780.2001
658.3876, 767.7487
658.8697, 767.2061
659.3518, 780.3058
659.8339, 787.8336
660.3160, 784.3770
660.7982, 778.9329
661.2803, 776.3699
661.7624, 774.2734
662.2445, 768.1957
662.7266, 757.4897
663.2087, 746.3145
663.6909, 736.4917
664.1730, 729.7628
664.6551, 734.8582
665.1372, 752.9197
665.6193, 765.0573
666.1014, 764.1351
666.5836, 756.7630
667.0657, 748.9387
667.5478, 740.3058
668.0299, 738.6314
668.5120, 751.4250
668.9941, 761.7833
669.4763, 764.6387
669.9584, 762.7024
670.4405, 757.9623
670.9226, 751.3621
671.4047, 744.3105
671.8868, 736.2245
672.3690, 729.9492
672.8511, 733.4261
673.3332, 745.1718
673.8153, 750.7035
674.2974, 746.0719
674.7795, 736.9109
675.2617, 726.7529
675.7438, 716.2687
676.2259, 713.5770
676.7080, 728.5551
677.1901, 737.8735
677.6722, 736.7985
678.1544, 731.5988
678.6365, 725.7374
679.1186, 719.8849
679.6007, 713.4827
680.0828, 704.4587
680.5649, 699.3128
681.0471, 708.5784
681.5292, 727.0135
682.0113, 742.8500
682.4934, 754.0587
682.9755, 752.6453
683.4576, 729.6241
683.9398, 696.1187
684.4219, 687.9429
684.9040, 723.4482
685.3861, 745.6669
685.8682, 744.0817
686.3503, 738.7130
686.8325, 736.8822
687.3146, 737.3624
687.7967, 737.9230
688.2788, 738.4642
688.7609, 736.6549
689.2430, 728.7606
689.7252, 719.0975
690.2073, 713.2256
690.6894, 710.9991
691.1715, 709.4475
691.6536, 707.1457
692.1357, 706.8795
692.6179, 714.6478
693.1000, 731.9490
693.5821, 740.5811
694.0642, 736.8357
694.5463, 731.6708
695.0284, 729.9672
695.5106, 728.4631
695.9927, 721.1354
696.4748, 707.3245
696.9569, 701.9709
697.4390, 719.9571
697.9211, 736.5618
698.4033, 730.8347
698.8854, 715.3481
699.3675, 712.6682
699.8496, 726.4843
700.3317, 740.2131
700.8138, 738.1794
701.2960, 725.1290
701.7781, 715.5307
702.2602, 709.1291
702.7423, 709.5850
703.2244, 720.3306
703.7065, 732.7812
704.1887, 740.2591
704.6708, 742.5805
705.1529, 739.2165
705.6350, 725.3038
706.1171, 712.6834
706.5992, 697.1227
707.0814, 688.5469
707.5635, 700.9465
708.0456, 727.2310
708.5277, 746.1025
709.0098, 746.4550
709.4919, 741.1641
709.9741, 746.2703
710.4562, 757.4962
710.9383, 760.9625
711.4204, 755.5132
711.9025, 751.1262
712.3846, 753.8302
712.8668, 760.1872
713.3489, 762.4119
713.8310, 758.8176
714.3131, 756.4602
714.7952, 755.5356
715.2773, 755.6820
715.7595, 759.6434
716.2416, 763.1270
716.7237, 757.5887
717.2058, 741.5283
717.6879, 734.5789
718.1700, 756.3089
718.6522, 781.8964
719.1343, 787.1669
719.6164, 779.2960
720.0985, 775.1928
720.5806, 779.3923
721.0627, 785.0606
721.5449, 785.3428
722.0270, 781.4506
722.5091, 779.7094
722.9912, 781.1157
723.4733, 778.3087
723.9554, 765.7844
724.4376, 754.9460
724.9197, 757.7527
725.4018, 772.1825
725.8839, 782.3400
726.3660, 788.0691
726.8481, 789.5214
727.3303, 780.7125
727.8124, 772.6537
728.2945, 775.0529
728.7766, 785.5309
729.2587, 796.9442
729.7408, 806.5604
730.2230, 813.1972
730.7051, 812.6171
731.1872, 808.6183
731.6693, 813.0217
732.1514, 825.9297
732.6335, 834.9690
733.1157, 833.6052
733.5978, 827.7910
734.0799, 827.8522
734.5620, 835.2762
735.0441, 839.0960
735.5262, 834.9184
736.0084, 833.6649
736.4905, 840.2914
736.9726, 849.8887
737.4547, 860.1362
737.9368, 870.1644
738.4189, 873.1220
738.9011, 856.7415
739.3832, 843.5585
739.8653, 854.3610
740.3474, 873.6044
740.8295, 876.5140
741.3116, 862.4214
741.7938, 850.8201
742.2759, 856.1549
742.7580, 870.0510
743.2401, 874.2829
743.7222, 869.4862
744.2043, 870.8032
744.6865, 881.9445
745.1686, 890.8542
745.6507, 888.6243
746.1328, 879.9899
746.6149, 877.6030
747.0970, 884.8237
747.5791, 890.8314
748.0612, 899.0739
748.5433, 902.3277
749.0255, 892.7535
749.5076, 878.9550
749.9897, 872.6795
750.4718, 875.9551
750.9539, 880.6375
751.4360, 884.0583
751.9182, 885.0581
752.4003, 880.2376
752.8824, 872.4095
753.3645, 867.6655
753.8466, 867.5641
754.3287, 870.9157
754.8109, 877.0239
755.2930, 885.2563
755.7751, 894.5357
756.2572, 905.7884
756.7393, 910.3154
757.2214, 903.8928
757.7036, 896.7579
758.1857, 895.8453
758.6678, 899.8498
759.1499, 904.5539
759.6320, 911.8972
760.1141, 915.9003
760.5963, 912.1617
761.0784, 909.0493
761.5605, 913.5394
762.0426, 920.7017
762.5247, 920.1897
763.0068, 909.7994
763.4890, 904.3823
763.9711, 922.3785
764.4532, 945.7529
764.9353, 947.1146
765.4174, 933.2256
765.8995, 925.3142
766.3817, 929.3007
766.8638, 941.0793
767.3459, 958.2262
767.8280, 978.4286
768.3101, 991.7944
768.7922, 997.7068
769.2744, 998.7521
769.7565, 991.2778
770.2386, 986.3995
770.7207, 994.1083
771.2028, 1010.213
771.6849, 1020.774
772.1671, 1021.963
772.6492, 1026.133
773.1313, 1038.351
773.6134, 1050.043
774.0955, 1055.803
774.5776, 1058.244
775.0598, 1060.349
775.5419, 1063.198
776.0240, 1070.754
776.5061, 1091.217
776.9882, 1114.086
777.4703, 1124.028
777.9525, 1125.076
778.4346, 1127.751
778.9167, 1134.880
779.3988, 1146.491
779.8809, 1162.986
780.3630, 1183.084
780.8452, 1203.347
781.3273, 1224.182
781.8094, 1241.590
782.2915, 1254.568
782.7736, 1264.997
783.2557, 1271.991
783.7379, 1278.112
784.2200, 1289.478
784.7021, 1304.163
785.1842, 1329.003
785.6663, 1373.159
786.1484, 1417.415
786.6306, 1453.015
787.1127, 1484.528
787.5948, 1518.492
788.0769, 1555.834
788.5590, 1592.673
789.0411, 1627.860
789.5233, 1661.111
790.0054, 1688.991
790.4875, 1716.059
790.9696, 1750.723
791.4517, 1794.198
791.9338, 1844.798
792.4160, 1902.091
792.8981, 1962.852
793.3802, 2020.257
793.8623, 2074.362
794.3444, 2129.133
794.8265, 2182.677
795.3087, 2248.393
795.7908, 2334.730
796.2729, 2433.910
796.7550, 2531.023
797.2371, 2622.607
797.7192, 2731.300
798.2014, 2870.084
798.6835, 3009.110
799.1656, 3137.291
799.6477, 3266.858
800.1298, 3406.473
800.6119, 3556.941
801.0941, 3722.081
801.5762, 3905.735
802.0583, 4097.739
802.5404, 4293.146
803.0225, 4494.523
803.5046, 4704.579
803.9868, 4924.287
804.4689, 5154.590
804.9510, 5395.869
805.4331, 5652.763
805.9152, 5941.645
806.3973, 6248.781
806.8795, 6527.831
807.3616, 6780.182
807.8437, 7035.555
808.3258, 7305.106
808.8079, 7564.556
809.2900, 7787.187
809.7722, 7977.272
810.2543, 8173.998
810.7364, 8413.229
811.2185, 8549.455
811.7006, 8487.629
812.1827, 8422.529
812.6649, 8517.452
813.1470, 8691.605
813.6291, 8755.555
814.1112, 8674.182
814.5933, 8573.470
815.0754, 8488.482
815.5576, 8370.128
816.0397, 8165.546
816.5218, 7927.899
817.0039, 7730.490
817.4860, 7580.386
817.9681, 7422.132
818.4503, 7207.346
818.9324, 6989.013
819.4145, 6822.978
819.8966, 6685.988
820.3787, 6534.919
820.8608, 6367.653
821.3430, 6211.472
821.8251, 6082.535
822.3072, 5967.679
822.7893, 5836.298
823.2714, 5694.558
823.7535, 5598.444
824.2357, 5553.047
824.7178, 5514.419
825.1999, 5466.980
825.6820, 5414.787
826.1641, 5359.387
826.6462, 5301.342
827.1284, 5268.726
827.6105, 5282.745
828.0926, 5281.562
828.5747, 5233.874
829.0568, 5191.190
829.5389, 5188.966
830.0211, 5214.549
830.5032, 5238.303
830.9853, 5257.049
831.4674, 5274.499
831.9495, 5301.143
832.4316, 5316.757
832.9138, 5292.950
833.3959, 5258.563
833.8780, 5258.242
834.3601, 5297.153
834.8422, 5340.559
835.3243, 5371.240
835.8065, 5391.563
836.2886, 5404.180
836.7707, 5408.327
837.2528, 5401.172
837.7349, 5383.525
838.2170, 5360.725
838.6992, 5335.914
839.1813, 5306.550
839.6634, 5271.674
840.1455, 5229.862
840.6276, 5162.887
841.1097, 5068.600
841.5919, 4981.673
842.0740, 4915.764
842.5561, 4853.743
843.0382, 4776.573
843.5203, 4685.202
844.0024, 4587.622
844.4846, 4482.868
844.9667, 4373.148
845.4488, 4255.212
845.9309, 4135.926
846.4130, 4017.620
846.8951, 3901.144
847.3773, 3788.501
847.8594, 3679.349
848.3415, 3573.823
848.8236, 3474.849
849.3057, 3376.047
849.7878, 3275.590
850.2700, 3173.281
850.7521, 3066.244
851.2342, 2956.339
851.7163, 2853.494
852.1984, 2762.954
852.6805, 2678.094
853.1627, 2591.522
853.6448, 2509.610
854.1269, 2442.646
854.6090, 2387.293
855.0911, 2330.527
855.5732, 2267.704
856.0554, 2206.566
856.5375, 2159.657
857.0196, 2119.396
857.5017, 2063.740
857.9838, 1995.989
858.4659, 1936.743
858.9481, 1890.581
859.4302, 1850.379
859.9123, 1811.283
860.3944, 1772.095
860.8765, 1728.514
861.3586, 1679.390
861.8408, 1638.766
862.3229, 1609.591
862.8050, 1580.453
863.2871, 1545.523
863.7692, 1509.383
864.2513, 1478.013
864.7335, 1451.298
865.2156, 1426.694
865.6977, 1407.652
866.1798, 1385.464
866.6619, 1354.813
867.1440, 1324.900
867.6262, 1304.248
868.1083, 1287.905
868.5904, 1263.698
869.0725, 1226.950
869.5546, 1195.133
870.0367, 1176.002
870.5189, 1159.820
871.0010, 1142.939
871.4831, 1124.966
871.9652, 1101.985
872.4473, 1076.592
872.9294, 1063.074
873.4116, 1074.959
873.8937, 1087.566
874.3758, 1080.704
874.8579, 1062.697
875.3400, 1043.337
875.8221, 1023.435
876.3043, 999.8558
876.7864, 971.8346
877.2685, 948.0557
877.7506, 939.2443
878.2327, 939.8333
878.7148, 938.1381
879.1970, 934.5977
879.6791, 931.7372
880.1612, 929.9194
880.6433, 926.1326
881.1254, 918.3734
881.6075, 907.3860
882.0897, 892.3376
882.5718, 872.9687
883.0539, 865.7711
883.5360, 873.4239
884.0181, 879.8648
884.5002, 880.3326
884.9824, 875.0591
885.4645, 862.2947
885.9466, 843.8182
886.4287, 834.9385
886.9108, 837.9938
887.3929, 846.1159
887.8751, 868.9623
888.3572, 882.7529
888.8393, 868.3321
889.3214, 840.5970
889.8035, 823.5687
890.2856, 818.3065
890.7678, 815.9661
891.2499, 818.9453
891.7320, 820.8260
892.2141, 819.3631
892.6962, 816.6226
893.1783, 815.5449
893.6605, 814.4998
894.1426, 807.4724
894.6247, 789.8193
895.1068, 778.6093
895.5889, 789.0439
896.0710, 800.2537
896.5532, 793.3420
897.0353, 779.6116
897.5174, 778.6604
897.9995, 790.9396
898.4816, 798.9511
898.9637, 791.1924
899.4459, 779.5197
899.9280, 772.6964
900.4101, 770.2211
900.8922, 775.2365
901.3743, 783.7794
901.8564, 782.4059
902.3386, 767.2572
902.8207, 752.8138
903.3028, 754.4415
903.7849, 765.1852
904.2670, 771.2953
904.7491, 773.9849
905.2313, 779.9880
905.7134, 789.3284
906.1955, 789.1882
906.6776, 771.1998
907.1597, 748.7856
907.6418, 747.0522
908.1240, 763.0995
908.6061, 760.2906
909.0882, 737.0472
909.5703, 731.3777
910.0524, 756.6755
910.5345, 782.2464
911.0167, 780.8337
911.4988, 762.0073
911.9809, 758.1588
912.4630, 774.3008
912.9451, 781.1732
913.4272, 774.4552
913.9094, 767.9308
914.3915, 765.8201
914.8736, 767.8240
915.3557, 774.9465
915.8378, 786.6688
916.3199, 793.8257
916.8021, 793.3944
917.2842, 793.9498
917.7663, 798.0220
918.2484, 800.8889
918.7305, 797.5368
919.2126, 792.8626
919.6948, 795.2671
920.1769, 805.8963
920.6590, 812.7051
921.1411, 813.8148
921.6232, 812.0592
922.1053, 800.2042
922.5875, 793.0391
923.0696, 810.0588
923.5517, 838.2323
924.0338, 844.4189
924.5159, 817.0413
924.9980, 799.5277
925.4802, 815.1108
925.9623, 834.1366
926.4444, 840.0686
926.9265, 840.7094
927.4086, 846.5761
927.8907, 856.4600
928.3729, 860.7609
928.8550, 854.1260
929.3371, 847.5844
929.8192, 850.1864
930.3013, 854.0795
930.7834, 850.5093
931.2656, 843.3184
931.7477, 839.8051
932.2298, 841.0540
932.7119, 843.5042
933.1940, 845.7104
933.6761, 846.5810
934.1583, 844.7156
934.6404, 840.9351
935.1225, 835.3100
935.6046, 829.0493
936.0867, 825.8004
936.5688, 826.3808
937.0510, 826.6970
937.5331, 821.8102
938.0152, 816.5723
938.4973, 823.1906
938.9794, 835.3582
939.4615, 832.2119
939.9437, 814.9509
940.4258, 805.0308
940.9079, 811.9532
941.3900, 823.2622
941.8721, 823.8387
942.3542, 817.4260
942.8364, 815.3113
943.3185, 817.1365
943.8006, 821.8602
944.2827, 829.0332
944.7648, 832.8920
945.2469, 829.9140
945.7290, 822.8164
946.2111, 815.6189
946.6932, 808.3466
947.1754, 799.7715
947.6575, 789.7064
948.1396, 786.6682
948.6217, 793.4608
949.1038, 800.2389
949.5859, 800.3139
950.0681, 794.9161
950.5502, 785.6339
951.0323, 771.7684
951.5144, 763.3904
951.9965, 761.5232
952.4786, 759.6865
952.9608, 755.4603
953.4429, 752.8428
953.9250, 755.9679
954.4071, 762.7592
954.8892, 766.5032
955.3713, 767.7988
955.8535, 762.8020
956.3356, 747.9842
956.8177, 735.6052
957.2998, 727.8942
957.7819, 727.9520
958.2640, 743.5409
958.7462, 769.4999
959.2283, 774.4912
959.7104, 743.4893
960.1925, 727.8304
960.6746, 738.8768
961.1567, 747.8804
961.6389, 740.9089
962.1210, 729.4691
962.6031, 728.9777
963.0852, 738.0514
963.5673, 735.7672
964.0494, 706.6245
964.5316, 692.4741
965.0137, 708.3861
965.4958, 723.2859
965.9779, 719.9995
966.4600, 710.8384
966.9421, 712.8584
967.4243, 726.0339
967.9064, 732.7533
968.3885, 727.9266
968.8706, 723.4429
969.3527, 718.7789
969.8348, 716.6614
970.3170, 721.3273
970.7991, 727.9474
971.2812, 730.3052
971.7633, 728.0401
972.2454, 720.5691
972.7275, 695.4042
973.2097, 682.7092
973.6918, 702.3428
974.1739, 722.1815
974.6560, 718.1750
975.1381, 702.3623
975.6202, 696.1225
976.1024, 702.1777
976.5845, 707.8931
977.0666, 710.9108
977.5487, 712.9654
978.0308, 716.2856
978.5129, 717.1663
978.9951, 711.9377
979.4772, 702.6464
979.9593, 691.7653
980.4414, 679.1909
980.9235, 673.1400
981.4056, 680.2462
981.8878, 688.5444
982.3699, 695.9307
982.8520, 700.5053
983.3341, 694.8134
983.8162, 686.9466
984.2983, 697.5132
984.7805, 732.5880
985.2626, 754.7126
985.7447, 745.9351
986.2268, 727.7121
986.7089, 697.1011
987.1910, 672.0876
987.6732, 673.7618
988.1553, 692.3969
988.6374, 704.5263
989.1195, 704.7122
989.6016, 699.8959
990.0837, 687.2741
990.5659, 677.0285
991.0480, 677.8129
991.5301, 680.5687
992.0122, 675.4259
992.4943, 665.1068
992.9764, 657.9003
993.4586, 655.9833
993.9407, 655.8087
994.4228, 654.6227
994.9049, 656.2663
995.3870, 668.3521
995.8691, 679.9014
996.3513, 676.3870
996.8334, 663.5948
997.3155, 658.7706
997.7976, 667.3000
998.2797, 674.4196
998.7618, 669.5437
999.2440, 666.1231
999.7261, 677.4373
1000.208, 689.6304
1000.690, 682.2913
1001.172, 664.5898
1001.655, 665.6294
1002.137, 695.4518
1002.619, 714.1534
1003.101, 694.2066
1003.583, 669.1604
1004.065, 653.4716
1004.547, 645.7902
1005.029, 647.8025
1005.511, 655.3628
1005.994, 659.9536
1006.476, 659.3513
1006.958, 656.2501
1007.440, 648.3652
1007.922, 642.5511
1008.404, 643.0386
1008.886, 647.0676
1009.368, 653.3362
1009.851, 660.4642
1010.333, 666.7347
1010.815, 671.8493
1011.297, 673.6002
1011.779, 672.1566
1012.261, 665.6906
1012.743, 644.8373
1013.225, 625.7562
1013.707, 628.0486
1014.190, 642.9017
1014.672, 648.0425
1015.154, 638.0928
1015.636, 630.4224
1016.118, 634.0518
1016.600, 638.3787
1017.082, 636.5648
1017.564, 635.1725
1018.047, 642.0253
1018.529, 652.9639
1019.011, 659.0787
1019.493, 658.6216
1019.975, 656.5605
1020.457, 652.5709
1020.939, 649.9213
1021.421, 654.2950
1021.903, 656.2572
1022.386, 646.9033
1022.868, 630.6865
1023.350, 612.2927
1023.832, 592.8457
1024.314, 587.9921
1024.796, 618.0623
1025.278, 640.8262
1025.760, 637.2983
1026.243, 628.8623
1026.725, 628.5509
1027.207, 633.5566
1027.689, 640.1039
1028.171, 647.4109
1028.653, 649.0173
1029.135, 640.5710
1029.617, 630.8488
1030.099, 620.8271
1030.582, 610.8736
1031.064, 597.2011
1031.546, 586.0757
1032.028, 587.5930
1032.510, 601.3283
1032.992, 613.0901
1033.474, 620.9286
1033.956, 627.2327
1034.438, 630.3120
1034.921, 634.1647
1035.403, 646.6467
1035.885, 656.5765
1036.367, 645.7818
1036.849, 617.8539
1037.331, 604.9196
1037.813, 619.5087
1038.295, 629.3580
1038.778, 634.9173
1039.260, 634.6069
1039.742, 621.8613
1040.224, 608.4232
1040.706, 605.3913
1041.188, 611.1596
1041.670, 619.1556
1042.152, 633.1622
1042.635, 639.4127
1043.117, 632.5949
1043.599, 627.8416
1044.081, 630.9336
1044.563, 635.1293
1045.045, 634.5790
1045.527, 631.0610
1046.009, 629.4690
1046.491, 629.5628
1046.974, 633.8006
1047.456, 646.5804
1047.938, 650.2476
1048.420, 636.7141
1048.902, 623.1258
1049.384, 621.6586
1049.866, 627.3126
1050.348, 630.1970
1050.830, 630.2645
1051.313, 628.6647
1051.795, 624.9838
1052.277, 622.1082
1052.759, 620.9254
1053.241, 617.9526
1053.723, 609.9893
1054.205, 603.4389
1054.687, 608.2797
1055.169, 623.3867
1055.652, 645.2026
1056.134, 674.0928
1056.616, 676.4128
1057.098, 646.7986
1057.580, 620.0412
1058.062, 611.6147
1058.544, 612.6351
1059.026, 613.8915
1059.509, 615.5220
1059.991, 618.5070
1060.473, 622.3937
1060.955, 623.6296
1061.437, 622.4008
1061.919, 623.3283
1062.401, 627.8925
1062.883, 633.4396
1063.365, 638.3742
1063.848, 640.9809
1064.330, 636.0510
1064.812, 627.0647
1065.294, 623.7025
1065.776, 624.9920
1066.258, 625.3989
1066.740, 623.9577
1067.222, 624.7869
1067.704, 631.1656
1068.187, 635.7173
1068.669, 624.2727
1069.151, 609.9003
1069.633, 616.5187
1070.115, 633.3375
1070.597, 637.3038
1071.079, 628.1118
1071.561, 619.2622
1072.044, 616.3651
1072.526, 617.2599
1073.008, 624.4145
1073.490, 630.2977
1073.972, 625.8476
1074.454, 618.1342
1074.936, 614.4886
1075.418, 615.4165
1075.901, 620.6853
1076.383, 629.9595
1076.865, 637.3456
1077.347, 640.0988
1077.829, 640.3679
1078.311, 637.6115
1078.793, 634.3644
1079.275, 632.8441
1079.757, 631.9869
1080.240, 629.5327
1080.722, 625.5944
1081.204, 623.5087
1081.686, 626.2876
1082.168, 626.8505
1082.650, 622.3369
1083.132, 617.1710
1083.614, 610.6274
1084.096, 606.4966
1084.579, 611.2425
1085.061, 621.9938
1085.543, 625.7908
1086.025, 619.5721
1086.507, 615.1141
1086.989, 612.4153
1087.471, 611.5526
1087.953, 613.2030
1088.436, 615.5767
1088.918, 616.9468
1089.400, 618.8746
1089.882, 625.3012
1090.364, 636.5649
1090.846, 640.6725
1091.328, 635.7109
1091.810, 633.3608
1092.292, 636.4745
1092.775, 635.2255
1093.257, 623.3232
1093.739, 611.9486
1094.221, 615.9064
1094.703, 630.3762
1095.185, 635.8752
1095.667, 633.2828
1096.149, 635.9360
1096.631, 644.1440
1097.114, 646.8769
1097.596, 640.8370
1098.078, 633.3939
1098.560, 630.2861
1099.042, 628.8562
1099.524, 624.6182
1100.006, 618.7250
1100.488, 612.0854
1100.971, 606.6062
1101.453, 609.2130
1101.935, 619.1292
1102.417, 626.7595
1102.899, 627.4695
1103.381, 628.5710
1103.863, 642.0359
1104.345, 653.7828
1104.828, 645.8883
1105.310, 629.1951
1105.792, 615.0187
1106.274, 605.6104
1106.756, 603.9388
1107.238, 609.6252
1107.720, 611.5016
1108.202, 599.4087
1108.684, 590.5968
1109.167, 595.2919
1109.649, 603.4922
1110.131, 610.2361
1110.613, 615.2805
1111.095, 619.3079
1111.577, 621.9634
1112.059, 620.8420
1112.541, 612.0124
1113.023, 609.1533
1113.506, 618.1207
1113.988, 627.1235
1114.470, 636.2309
1114.952, 640.8456
1115.434, 635.9795
1115.916, 625.7383
1116.398, 617.0018
1116.880, 609.5895
1117.363, 609.9224
1117.845, 620.0656
1118.327, 630.9839
1118.809, 642.9167
1119.291, 649.7916
1119.773, 648.2510
1120.255, 643.4766
1120.737, 640.6151
1121.219, 639.6674
1121.702, 642.0826
1122.184, 646.9996
1122.666, 643.4124
1123.148, 632.7737
1123.630, 634.5027
1124.112, 651.7515
1124.594, 665.3135
1125.076, 663.0719
1125.558, 653.0093
1126.041, 638.3458
1126.523, 627.3774
1127.005, 641.7022
1127.487, 666.9894
1127.969, 676.9366
1128.451, 671.1179
1128.933, 655.4189
1129.415, 633.4368
1129.898, 621.6909
1130.380, 638.5221
1130.862, 653.9747
1131.344, 644.0096
1131.826, 629.3675
1132.308, 626.6597
1132.790, 630.1044
1133.272, 629.5034
1133.755, 625.8645
1134.237, 629.3539
1134.719, 645.9232
1135.201, 656.5183
1135.683, 659.4838
1136.165, 654.3579
1136.647, 628.6426
1137.129, 608.6363
1137.611, 616.6142
1138.094, 635.1171
1138.576, 632.9008
1139.058, 610.8694
1139.540, 605.3574
1140.022, 621.6251
1140.504, 630.4104
1140.986, 627.9488
1141.468, 625.4343
1141.950, 627.0145
1142.433, 628.5339
1142.915, 625.9150
1143.397, 622.2026
1143.879, 624.9932
1144.361, 632.4432
1144.843, 634.9600
1145.325, 633.9233
1145.807, 636.2159
1146.290, 642.6638
1146.772, 651.6937
1147.254, 662.4207
1147.736, 668.3317
1148.218, 661.3232
1148.700, 649.7296
1149.182, 641.7305
1149.664, 635.3570
1150.146, 626.1146
1150.629, 617.6689
1151.111, 618.4407
1151.593, 627.8268
1152.075, 635.9633
1152.557, 640.0106
1153.039, 640.8794
1153.521, 633.7402
1154.003, 630.1668
1154.485, 644.5187
1154.968, 655.2499
1155.450, 634.7257
1155.932, 602.5059
1156.414, 601.1480
1156.896, 631.8624
1157.378, 644.8388
1157.860, 633.0718
1158.342, 623.4354
1158.825, 617.0210
1159.307, 616.7485
1159.789, 625.4899
1160.271, 633.0522
1160.753, 629.9860
1161.235, 620.9992
1161.717, 615.1473
1162.199, 612.8113
1162.682, 618.8137
1163.164, 630.8927
1163.646, 637.2450
1164.128, 636.4979
1164.610, 632.5054
1165.092, 627.0806
1165.574, 621.8976
1166.056, 617.7079
1166.538, 615.6816
1167.021, 619.1169
1167.503, 623.6285
1167.985, 624.7563
1168.467, 622.9679
1168.949, 617.1745
1169.431, 609.7117
1169.913, 610.0056
1170.395, 623.6630
1170.877, 630.2598
1171.360, 615.3940
1171.842, 604.7123
1172.324, 609.7875
1172.806, 617.3883
1173.288, 620.4084
1173.770, 620.3450
1174.252, 619.0013
1174.734, 616.3832
1175.217, 611.7205
1175.699, 603.3116
1176.181, 603.2107
1176.663, 613.8886
1177.145, 615.9183
1177.627, 603.5052
1178.109, 591.6657
1178.591, 589.8615
1179.073, 594.6208
1179.556, 602.2505
1180.038, 611.7206
1180.520, 623.3616
1181.002, 633.5420
1181.484, 631.3948
1181.966, 619.5704
1182.448, 606.0238
1182.930, 594.3494
1183.412, 590.6829
1183.895, 600.1321
1184.377, 610.6057
1184.859, 616.4341
1185.341, 618.3040
1185.823, 614.5883
1186.305, 609.0042
1186.787, 603.9818
1187.269, 600.0844
1187.752, 596.9257
1188.234, 594.4077
1188.716, 598.8862
1189.198, 619.5713
1189.680, 626.5458
1190.162, 612.8538
1190.644, 599.3871
1191.126, 590.9354
1191.609, 590.6996
1192.091, 603.1979
1192.573, 618.7607
1193.055, 617.3151
1193.537, 603.4371
1194.019, 600.5913
1194.501, 606.4493
1194.983, 611.3542
1195.465, 613.9052
1195.948, 613.9207
1196.430, 611.4562
1196.912, 606.6384
1197.394, 598.1501
1197.876, 592.7710
1198.358, 598.2405
1198.840, 607.4181
1199.322, 618.6344
1199.804, 626.4556
1200.287, 620.9514
1200.769, 608.9589
1201.251, 607.7886
1201.733, 619.9471
1202.215, 625.8420
1202.697, 616.1483
1203.179, 612.3799
1203.661, 619.0161
1204.144, 623.9444
1204.626, 622.1719
1205.108, 621.0023
1205.590, 627.0136
1206.072, 634.7372
1206.554, 633.2485
1207.036, 624.3889
1207.518, 617.8829
1208.000, 613.7426
1208.483, 613.8975
1208.965, 616.8223
1209.447, 612.0960
1209.929, 598.4849
1210.411, 591.7774
1210.893, 603.2755
1211.375, 615.9269
1211.857, 613.0636
1212.339, 607.2374
1212.822, 610.2933
1213.304, 614.8239
1213.786, 612.1496
1214.268, 604.9651
1214.750, 599.0109
1215.232, 594.9919
1215.714, 592.6902
1216.196, 592.2203
1216.679, 593.3002
1217.161, 596.9019
1217.643, 600.0098
1218.125, 602.3192
1218.607, 602.5636
1219.089, 599.7081
1219.571, 594.8776
1220.053, 588.2917
1220.536, 582.7130
1221.018, 590.9653
1221.500, 607.7958
1221.982, 611.8773
1222.464, 605.7576
1222.946, 603.6215
1223.428, 607.6367
1223.910, 610.7304
1224.392, 609.6455
1224.875, 607.4838
1225.357, 603.2573
1225.839, 602.5648
1226.321, 611.9306
1226.803, 622.6859
1227.285, 631.6203
1227.767, 635.6526
1228.249, 626.4756
1228.731, 608.8653
1229.214, 605.8820
1229.696, 622.7903
1230.178, 625.7293
1230.660, 610.5167
1231.142, 600.4623
1231.624, 599.3849
1232.106, 602.7381
1232.588, 608.8909
1233.071, 611.9349
1233.553, 605.1406
1234.035, 596.2864
1234.517, 601.1097
1234.999, 610.8942
1235.481, 606.5193
1235.963, 597.0904
1236.445, 602.6301
1236.927, 618.7639
1237.410, 627.7147
##END=



