##NAMES=Fayalite
##RRUFFID=R100103
##IDEAL CHEMISTRY=Fe^2+^_2_SiO_4_
##LOCALITY=Franklin, Sussex County, New Jersey, USA
##OWNER=RRUFF
##SOURCE=American Museum of Natural History
##DESCRIPTION=Dark brown fragment
##STATUS=The identification of this mineral is confirmed by single-crystal X-ray diffraction and chemical analysis.
##URL=rruff.info/R100103
##MEASURED CHEMISTRY=(Fe^+2^_1.908_Mg_0.046_Zn_0.028_Ca_0.009_Mn^+2^_0.006_Ni_0.001_Al_0.001_)_Î£=1.999_Si_1.000_O_4_
138.2217, 12.78370
138.7039, 13.27949
139.1860, 14.69550
139.6681, 16.64007
140.1502, 18.83701
140.6323, 21.62888
141.1144, 23.45133
141.5966, 23.15829
142.0787, 19.81959
142.5608, 18.71924
143.0429, 20.67556
143.5250, 24.40020
144.0071, 26.98876
144.4893, 28.09870
144.9714, 28.58983
145.4535, 28.71526
145.9356, 27.92232
146.4177, 27.89452
146.8998, 28.90454
147.3820, 30.72496
147.8641, 32.44239
148.3462, 33.64419
148.8283, 35.10860
149.3104, 37.30491
149.7925, 41.25989
150.2747, 44.58733
150.7568, 46.68713
151.2389, 47.70480
151.7210, 49.43494
152.2031, 52.81965
152.6852, 56.32448
153.1674, 59.03308
153.6495, 59.24516
154.1316, 60.37457
154.6137, 63.57607
155.0958, 68.91224
155.5779, 72.97280
156.0601, 75.42933
156.5422, 76.42566
157.0243, 76.04582
157.5064, 72.76977
157.9885, 69.54560
158.4706, 67.21368
158.9528, 65.89390
159.4349, 64.81644
159.9170, 63.91377
160.3991, 63.11122
160.8812, 62.32251
161.3633, 61.18703
161.8455, 60.32904
162.3276, 60.09607
162.8097, 60.62225
163.2918, 61.27230
163.7739, 61.59256
164.2560, 61.83343
164.7382, 62.10586
165.2203, 63.97552
165.7024, 65.67007
166.1845, 65.65273
166.6666, 63.05465
167.1487, 61.04216
167.6309, 61.78661
168.1130, 64.35646
168.5951, 66.77897
169.0772, 67.94423
169.5593, 68.68221
170.0414, 69.68006
170.5236, 71.08297
171.0057, 72.69780
171.4878, 74.51553
171.9699, 76.47695
172.4520, 78.36181
172.9341, 80.34883
173.4163, 82.10865
173.8984, 83.31361
174.3805, 84.06864
174.8626, 83.98692
175.3447, 82.40579
175.8268, 79.54722
176.3090, 76.40857
176.7911, 73.45524
177.2732, 70.72299
177.7553, 68.33260
178.2374, 66.47224
178.7195, 64.77103
179.2017, 62.53157
179.6838, 59.82072
180.1659, 57.50757
180.6480, 56.38316
181.1301, 56.14503
181.6122, 56.06188
182.0944, 55.87977
182.5765, 55.77077
183.0586, 56.34285
183.5407, 57.57544
184.0228, 58.38172
184.5049, 57.15942
184.9871, 54.51979
185.4692, 52.76396
185.9513, 53.16599
186.4334, 54.69929
186.9155, 54.67255
187.3976, 52.95525
187.8798, 51.20258
188.3619, 51.40688
188.8440, 53.26601
189.3261, 54.84190
189.8082, 55.52927
190.2903, 55.44179
190.7725, 54.71498
191.2546, 53.17585
191.7367, 51.85682
192.2188, 52.16532
192.7009, 54.01936
193.1830, 55.86667
193.6652, 57.24054
194.1473, 58.16078
194.6294, 58.53778
195.1115, 58.25915
195.5936, 57.81511
196.0757, 58.05092
196.5579, 59.00676
197.0400, 59.49206
197.5221, 58.76302
198.0042, 56.93342
198.4863, 55.80486
198.9684, 55.58870
199.4506, 55.61725
199.9327, 54.68281
200.4148, 52.62590
200.8969, 51.02116
201.3790, 50.78065
201.8611, 51.97534
202.3433, 52.38305
202.8254, 51.78921
203.3075, 50.75012
203.7896, 50.35897
204.2717, 50.81368
204.7538, 50.90032
205.2360, 49.78234
205.7181, 47.21339
206.2002, 45.79353
206.6823, 45.79714
207.1644, 46.61283
207.6465, 47.10140
208.1287, 47.13630
208.6108, 47.27235
209.0929, 47.91178
209.5750, 49.27886
210.0571, 49.88548
210.5392, 49.50260
211.0214, 48.57422
211.5035, 47.92907
211.9856, 47.50270
212.4677, 47.54435
212.9498, 48.40710
213.4319, 50.48523
213.9140, 51.66880
214.3962, 51.79073
214.8783, 51.10522
215.3604, 50.01282
215.8425, 48.08142
216.3246, 46.68713
216.8067, 46.63527
217.2889, 48.46798
217.7710, 49.76805
218.2531, 50.41500
218.7352, 50.55182
219.2173, 50.45234
219.6994, 49.89174
220.1816, 49.52318
220.6637, 49.64334
221.1458, 50.35407
221.6279, 51.32040
222.1100, 52.79356
222.5921, 54.42451
223.0743, 55.29078
223.5564, 55.10637
224.0385, 54.65306
224.5206, 54.21180
225.0027, 53.58410
225.4848, 53.52357
225.9670, 54.29826
226.4491, 55.56121
226.9312, 56.39021
227.4133, 56.53694
227.8954, 56.64345
228.3775, 57.05143
228.8597, 58.05554
229.3418, 58.58715
229.8239, 58.24141
230.3060, 57.51752
230.7881, 57.95424
231.2702, 60.49218
231.7524, 62.77096
232.2345, 63.59146
232.7166, 62.10473
233.1987, 61.16883
233.6808, 60.89745
234.1629, 61.15653
234.6451, 61.58493
235.1272, 62.07420
235.6093, 62.89257
236.0914, 64.31316
236.5735, 67.09769
237.0556, 68.66659
237.5378, 68.36607
238.0199, 67.04514
238.5020, 66.97822
238.9841, 69.19876
239.4662, 71.14620
239.9483, 71.55852
240.4305, 69.29899
240.9126, 68.23820
241.3947, 69.00068
241.8768, 70.76402
242.3589, 71.54144
242.8410, 71.19380
243.3232, 70.07601
243.8053, 68.09797
244.2874, 64.27516
244.7695, 62.03656
245.2516, 61.95495
245.7337, 63.21209
246.2159, 64.01555
246.6980, 64.24241
247.1801, 64.21080
247.6622, 64.04704
248.1443, 63.78582
248.6264, 63.28498
249.1086, 62.48815
249.5907, 61.47878
250.0728, 60.34778
250.5549, 58.75687
251.0370, 57.61745
251.5191, 57.41942
252.0013, 58.61269
252.4834, 59.21019
252.9655, 58.93237
253.4476, 58.22123
253.9297, 57.96520
254.4118, 58.57718
254.8940, 58.87288
255.3761, 58.32633
255.8582, 56.63534
256.3403, 55.25921
256.8224, 54.09097
257.3046, 53.31540
257.7867, 53.36779
258.2688, 54.66275
258.7509, 55.91517
259.2330, 56.68956
259.7151, 56.92170
260.1973, 57.09593
260.6794, 57.22332
261.1615, 57.28079
261.6436, 57.16533
262.1257, 56.69116
262.6078, 56.50737
263.0900, 56.95292
263.5721, 58.14935
264.0542, 58.74741
264.5363, 58.48784
265.0184, 57.94561
265.5005, 57.87281
265.9827, 58.40875
266.4648, 59.00221
266.9469, 59.45162
267.4290, 59.74412
267.9111, 60.46037
268.3932, 61.92085
268.8754, 63.29773
269.3575, 63.45452
269.8396, 61.95795
270.3217, 60.83650
270.8038, 60.60280
271.2859, 61.22356
271.7681, 62.14998
272.2502, 63.49974
272.7323, 64.91160
273.2144, 65.94140
273.6965, 66.51257
274.1786, 67.15323
274.6608, 68.02242
275.1429, 69.07070
275.6250, 69.87971
276.1071, 70.31329
276.5892, 70.89322
277.0714, 72.23808
277.5535, 74.47246
278.0356, 76.36703
278.5177, 77.63741
278.9998, 78.41221
279.4819, 79.26616
279.9641, 80.27991
280.4462, 81.07426
280.9283, 81.03450
281.4104, 80.10743
281.8925, 80.14452
282.3746, 81.74412
282.8568, 84.24710
283.3389, 85.74239
283.8210, 86.13938
284.3031, 86.22840
284.7852, 86.32727
285.2673, 86.46622
285.7495, 87.39632
286.2316, 89.52968
286.7137, 92.03340
287.1958, 92.90661
287.6779, 92.09383
288.1600, 91.32837
288.6422, 91.97773
289.1243, 93.79066
289.6064, 94.84959
290.0885, 94.89236
290.5706, 94.44270
291.0527, 94.30529
291.5349, 94.46159
292.0170, 94.62876
292.4991, 94.83301
292.9812, 94.95284
293.4633, 94.48634
293.9454, 93.35494
294.4276, 91.86194
294.9097, 90.06767
295.3918, 88.11425
295.8739, 86.80322
296.3560, 87.40709
296.8381, 88.84696
297.3203, 88.26254
297.8024, 85.43072
298.2845, 82.17110
298.7666, 80.22274
299.2487, 79.39851
299.7308, 79.07730
300.2130, 79.81474
300.6951, 80.59881
301.1772, 79.41561
301.6593, 76.28108
302.1414, 72.97784
302.6235, 70.62998
303.1057, 69.27536
303.5878, 69.13902
304.0699, 71.49345
304.5520, 74.13572
305.0341, 73.95402
305.5162, 71.28176
305.9984, 68.92290
306.4805, 69.32995
306.9626, 71.19935
307.4447, 72.73315
307.9268, 73.44814
308.4089, 73.69238
308.8911, 73.72818
309.3732, 73.54484
309.8553, 73.09986
310.3374, 72.20675
310.8195, 71.11226
311.3016, 70.02705
311.7838, 68.89245
312.2659, 67.99720
312.7480, 67.60973
313.2301, 67.62609
313.7122, 67.77539
314.1943, 68.33858
314.6765, 68.73125
315.1586, 68.46392
315.6407, 67.31239
316.1228, 66.06144
316.6049, 64.99947
317.0870, 64.09618
317.5692, 63.31623
318.0513, 62.89671
318.5334, 62.38309
319.0155, 61.46487
319.4976, 60.03213
319.9797, 58.75796
320.4619, 57.80871
320.9440, 57.14704
321.4261, 56.74086
321.9082, 57.11538
322.3903, 57.22271
322.8724, 56.43589
323.3546, 54.71845
323.8367, 53.68507
324.3188, 54.36533
324.8009, 55.45155
325.2830, 55.93808
325.7651, 55.54951
326.2473, 54.73824
326.7294, 53.14444
327.2115, 50.94958
327.6936, 49.55902
328.1757, 50.05025
328.6578, 50.65027
329.1400, 50.46734
329.6221, 48.35204
330.1042, 47.01217
330.5863, 46.67267
331.0684, 47.12590
331.5505, 47.81626
332.0327, 49.36251
332.5148, 50.42341
332.9969, 50.37216
333.4790, 48.70251
333.9611, 47.28408
334.4432, 45.95906
334.9254, 44.97460
335.4075, 44.85105
335.8896, 46.00963
336.3717, 47.19161
336.8538, 48.11246
337.3359, 48.81637
337.8180, 48.72759
338.3001, 47.47668
338.7823, 46.00051
339.2644, 45.46225
339.7465, 46.08349
340.2286, 46.66502
340.7107, 46.95825
341.1928, 46.97836
341.6750, 46.69388
342.1571, 45.96942
342.6392, 45.42392
343.1213, 45.82133
343.6034, 47.18014
344.0855, 47.92947
344.5677, 47.68077
345.0498, 46.80187
345.5319, 45.97471
346.0140, 45.18135
346.4961, 44.93513
346.9782, 46.02721
347.4604, 48.10088
347.9425, 49.32555
348.4246, 49.45576
348.9067, 48.97532
349.3888, 48.44571
349.8709, 47.87595
350.3531, 47.31350
350.8352, 46.68071
351.3173, 46.09569
351.7994, 45.80091
352.2815, 45.81680
352.7636, 46.00179
353.2458, 46.27244
353.7279, 46.61009
354.2100, 46.97559
354.6921, 47.38825
355.1742, 47.79595
355.6563, 48.17134
356.1385, 48.50744
356.6206, 48.75627
357.1027, 48.89077
357.5848, 48.91640
358.0669, 48.82260
358.5490, 48.49474
359.0312, 48.21358
359.5133, 48.22554
359.9954, 48.44239
360.4775, 48.59009
360.9596, 48.28698
361.4417, 48.03302
361.9239, 48.28733
362.4060, 49.41497
362.8881, 50.17989
363.3702, 49.45611
363.8523, 48.20297
364.3344, 47.89130
364.8166, 50.33398
365.2987, 52.54832
365.7808, 53.09742
366.2629, 51.67532
366.7450, 50.77586
367.2271, 51.16089
367.7093, 52.05292
368.1914, 52.76847
368.6735, 53.16357
369.1556, 53.47602
369.6377, 53.69455
370.1198, 53.83446
370.6020, 54.01960
371.0841, 54.50081
371.5662, 54.79443
372.0483, 54.60060
372.5304, 53.49354
373.0125, 52.69099
373.4947, 52.23619
373.9768, 52.09850
374.4589, 52.27446
374.9410, 52.99382
375.4231, 53.55817
375.9052, 53.72508
376.3874, 53.48111
376.8695, 52.77617
377.3516, 51.24040
377.8337, 49.85453
378.3158, 50.09566
378.7979, 52.23148
379.2801, 53.99862
379.7622, 54.76168
380.2443, 54.68218
380.7264, 54.42474
381.2085, 53.96432
381.6906, 53.50951
382.1728, 53.29017
382.6549, 53.25753
383.1370, 53.11474
383.6191, 52.80085
384.1012, 52.37105
384.5833, 51.78748
385.0655, 51.09602
385.5476, 50.63367
386.0297, 50.94591
386.5118, 51.52906
386.9939, 51.20403
387.4760, 49.71271
387.9582, 48.47998
388.4403, 49.35784
388.9224, 51.47340
389.4045, 53.00360
389.8866, 52.66609
390.3687, 51.80349
390.8509, 51.71428
391.3330, 52.31075
391.8151, 52.50909
392.2972, 51.08895
392.7793, 49.22506
393.2614, 48.05928
393.7436, 48.22587
394.2257, 48.66955
394.7078, 49.26490
395.1899, 49.83378
395.6720, 49.90808
396.1541, 48.79728
396.6363, 47.59135
397.1184, 46.82092
397.6005, 46.66421
398.0826, 46.55519
398.5647, 46.35608
399.0468, 46.17801
399.5290, 46.15570
400.0111, 46.56721
400.4932, 46.84403
400.9753, 46.85653
401.4574, 46.60486
401.9395, 46.33651
402.4217, 45.84857
402.9038, 45.55285
403.3859, 45.83645
403.8680, 47.24410
404.3501, 47.88556
404.8322, 47.36964
405.3144, 46.13018
405.7965, 45.44609
406.2786, 45.59291
406.7607, 45.35974
407.2428, 43.76783
407.7249, 40.72522
408.2071, 39.50937
408.6892, 40.45244
409.1713, 42.20958
409.6534, 43.20046
410.1355, 43.44736
410.6176, 43.50488
411.0998, 43.47821
411.5819, 43.40718
412.0640, 43.30726
412.5461, 43.18827
413.0282, 43.28456
413.5103, 44.18254
413.9925, 45.37495
414.4746, 45.74614
414.9567, 44.97211
415.4388, 43.76054
415.9209, 42.47960
416.4030, 41.30755
416.8852, 40.65275
417.3673, 41.41191
417.8494, 42.33099
418.3315, 42.09227
418.8136, 40.60610
419.2957, 39.51685
419.7779, 40.24207
420.2600, 41.61910
420.7421, 42.47115
421.2242, 41.83595
421.7063, 41.28519
422.1884, 41.65386
422.6706, 42.60135
423.1527, 42.85305
423.6348, 40.91373
424.1169, 39.17685
424.5990, 38.92412
425.0811, 41.42082
425.5633, 42.70200
426.0454, 41.52879
426.5275, 39.54235
427.0096, 38.88009
427.4917, 40.80402
427.9738, 42.13718
428.4560, 42.08418
428.9381, 40.71040
429.4202, 39.42729
429.9023, 37.97837
430.3844, 37.11153
430.8665, 37.70406
431.3487, 40.13100
431.8308, 41.66084
432.3129, 41.88781
432.7950, 41.33057
433.2771, 40.99441
433.7592, 40.89030
434.2414, 40.79232
434.7235, 40.64872
435.2056, 40.43312
435.6877, 39.86246
436.1698, 38.88583
436.6519, 38.19263
437.1341, 38.82615
437.6162, 40.30524
438.0983, 41.38704
438.5804, 41.67696
439.0625, 41.51214
439.5446, 41.09377
440.0268, 40.49994
440.5089, 40.01505
440.9910, 39.87137
441.4731, 39.87232
441.9552, 39.88151
442.4373, 39.90613
442.9195, 39.80281
443.4016, 39.27521
443.8837, 38.65123
444.3658, 38.32949
444.8479, 38.68340
445.3300, 39.09995
445.8122, 39.30681
446.2943, 39.34896
446.7764, 39.66835
447.2585, 41.21827
447.7406, 42.37768
448.2227, 42.20064
448.7049, 39.39206
449.1870, 37.76063
449.6691, 37.79317
450.1512, 38.77028
450.6333, 39.63551
451.1154, 40.53628
451.5976, 40.99535
452.0797, 40.69054
452.5618, 39.70777
453.0439, 39.35879
453.5260, 39.73770
454.0081, 40.47005
454.4903, 41.53735
454.9724, 42.91649
455.4545, 43.43473
455.9366, 42.77034
456.4187, 41.55565
456.9008, 40.74760
457.3830, 40.32549
457.8651, 40.19940
458.3472, 40.44336
458.8293, 40.90991
459.3114, 41.45668
459.7935, 42.07179
460.2757, 42.42640
460.7578, 42.18134
461.2399, 41.52832
461.7220, 40.67958
462.2041, 39.44062
462.6862, 38.43201
463.1684, 38.07726
463.6505, 38.25464
464.1326, 38.69379
464.6147, 39.73280
465.0968, 40.64085
465.5789, 41.00197
466.0611, 40.74096
466.5432, 40.31949
467.0253, 39.47532
467.5074, 38.69800
467.9895, 38.40107
468.4716, 38.90142
468.9538, 39.51954
469.4359, 40.40326
469.9180, 41.36890
470.4001, 41.78518
470.8822, 41.39739
471.3643, 40.91010
471.8465, 40.65769
472.3286, 40.69662
472.8107, 40.29433
473.2928, 39.29600
473.7749, 38.25045
474.2570, 37.68327
474.7392, 37.59452
475.2213, 38.20127
475.7034, 39.91383
476.1855, 41.90802
476.6676, 42.25457
477.1497, 41.10376
477.6319, 39.88437
478.1140, 39.21572
478.5961, 39.10027
479.0782, 39.77494
479.5603, 41.31713
480.0424, 42.74908
480.5246, 43.39613
481.0067, 43.39895
481.4888, 42.92452
481.9709, 41.23936
482.4530, 39.99652
482.9352, 40.49220
483.4173, 42.19983
483.8994, 43.45503
484.3815, 43.36759
484.8636, 42.96996
485.3457, 42.74546
485.8279, 42.78859
486.3100, 42.78866
486.7921, 42.64769
487.2742, 42.49260
487.7563, 42.44600
488.2384, 42.65425
488.7206, 42.70978
489.2027, 42.49916
489.6848, 42.11473
490.1669, 41.86537
490.6490, 41.73878
491.1311, 41.79369
491.6133, 42.16503
492.0954, 42.84541
492.5775, 43.10743
493.0596, 42.83280
493.5417, 42.63857
494.0238, 43.49835
494.5060, 45.12732
494.9881, 46.16351
495.4702, 46.16145
495.9523, 45.56675
496.4344, 44.68601
496.9165, 43.66541
497.3987, 43.05641
497.8808, 43.36468
498.3629, 44.10665
498.8450, 44.86188
499.3271, 45.60453
499.8092, 46.34616
500.2914, 47.39730
500.7735, 48.30734
501.2556, 48.66917
501.7377, 47.84151
502.2198, 47.09904
502.7019, 46.68938
503.1841, 46.56084
503.6662, 46.56712
504.1483, 46.90741
504.6304, 47.15459
505.1125, 47.12292
505.5946, 46.77076
506.0768, 46.67633
506.5589, 46.87621
507.0410, 47.28330
507.5231, 47.95536
508.0052, 49.00387
508.4873, 49.56338
508.9695, 49.48626
509.4516, 48.94787
509.9337, 48.07487
510.4158, 46.89836
510.8979, 46.02319
511.3800, 46.00375
511.8622, 46.36898
512.3443, 45.89618
512.8264, 44.63609
513.3085, 43.46536
513.7906, 43.48977
514.2728, 43.83817
514.7549, 43.09946
515.2370, 40.43837
515.7191, 38.41787
516.2012, 39.57052
516.6833, 42.20484
517.1655, 43.73896
517.6476, 42.41582
518.1297, 40.77588
518.6118, 39.49585
519.0939, 38.60687
519.5760, 38.14318
520.0582, 38.72997
520.5403, 39.21540
521.0224, 39.01416
521.5045, 37.65648
521.9866, 37.00933
522.4688, 37.30384
522.9509, 38.05411
523.4330, 38.79521
523.9151, 39.61394
524.3972, 39.87151
524.8793, 39.19569
525.3615, 38.06994
525.8436, 37.80436
526.3257, 38.39019
526.8078, 39.18005
527.2899, 40.18195
527.7720, 41.05781
528.2542, 40.77418
528.7363, 39.25482
529.2184, 37.73479
529.7005, 37.26526
530.1826, 37.44414
530.6647, 37.82270
531.1469, 38.71907
531.6290, 39.04279
532.1111, 37.40098
532.5932, 34.79643
533.0753, 33.27866
533.5574, 34.27484
534.0396, 35.63871
534.5217, 36.71998
535.0038, 37.46771
535.4859, 38.09540
535.9680, 38.41186
536.4501, 38.79736
536.9323, 39.57952
537.4144, 41.23450
537.8965, 41.86650
538.3786, 41.08094
538.8607, 39.75519
539.3428, 39.28887
539.8250, 39.75003
540.3071, 40.06847
540.7892, 39.83376
541.2713, 39.34369
541.7534, 39.35711
542.2355, 39.84050
542.7177, 40.43633
543.1998, 41.10262
543.6819, 41.67514
544.1640, 41.92517
544.6461, 41.84092
545.1282, 41.41029
545.6104, 39.97491
546.0925, 38.45421
546.5746, 37.92067
547.0567, 39.38877
547.5388, 40.87230
548.0209, 41.89138
548.5031, 42.43886
548.9852, 42.52606
549.4673, 41.26762
549.9494, 40.48551
550.4315, 40.70782
550.9136, 41.93056
551.3958, 43.37101
551.8779, 45.49865
552.3600, 47.05513
552.8421, 46.94878
553.3242, 44.92273
553.8063, 43.69067
554.2885, 43.42760
554.7706, 43.79327
555.2527, 44.60961
555.7348, 45.76561
556.2169, 46.57640
556.6990, 46.84200
557.1812, 46.64503
557.6633, 45.84927
558.1454, 44.61677
558.6275, 43.55377
559.1096, 42.92954
559.5917, 42.67950
560.0739, 43.01441
560.5560, 43.96049
561.0381, 44.41186
561.5202, 43.29530
562.0023, 41.88854
562.4844, 41.14881
562.9666, 41.72750
563.4487, 42.20749
563.9308, 42.52007
564.4129, 42.68456
564.8950, 42.66884
565.3771, 42.23629
565.8593, 42.19722
566.3414, 42.95512
566.8235, 44.21619
567.3056, 44.60891
567.7877, 44.04464
568.2698, 43.23087
568.7520, 42.49964
569.2341, 41.85516
569.7162, 41.18996
570.1983, 40.48429
570.6804, 40.11736
571.1625, 40.97820
571.6447, 42.28582
572.1268, 42.66694
572.6089, 41.35021
573.0910, 40.01879
573.5731, 39.99752
574.0552, 40.66010
574.5374, 40.91056
575.0195, 39.36639
575.5016, 38.39326
575.9837, 39.35109
576.4658, 42.00706
576.9479, 43.32690
577.4301, 42.51881
577.9122, 41.21761
578.3943, 39.95382
578.8764, 38.61274
579.3585, 38.10305
579.8406, 38.66557
580.3228, 39.52277
580.8049, 39.81281
581.2870, 39.57473
581.7691, 39.59021
582.2512, 40.09676
582.7333, 40.65618
583.2155, 40.38446
583.6975, 39.57660
584.1796, 39.15061
584.6617, 40.25971
585.1439, 41.41269
585.6260, 41.03455
586.1081, 39.39434
586.5902, 37.86701
587.0723, 36.69817
587.5544, 36.14098
588.0366, 36.59250
588.5187, 38.49969
589.0008, 39.61227
589.4829, 39.25208
589.9650, 38.27232
590.4471, 37.20869
590.9293, 35.76928
591.4114, 34.96688
591.8935, 35.04845
592.3756, 35.58826
592.8577, 35.82504
593.3398, 35.73932
593.8220, 35.64957
594.3041, 35.64138
594.7862, 35.70753
595.2683, 35.85736
595.7504, 36.07962
596.2325, 36.30155
596.7147, 36.66186
597.1968, 36.89730
597.6789, 36.56403
598.1610, 35.62064
598.6431, 34.83127
599.1252, 34.77476
599.6074, 34.97221
600.0895, 35.02306
600.5716, 34.71971
601.0537, 34.50530
601.5358, 34.66653
602.0179, 34.86511
602.5001, 34.61544
602.9822, 33.55191
603.4643, 32.77589
603.9464, 32.48957
604.4285, 32.60512
604.9106, 32.89406
605.3928, 33.37732
605.8749, 33.81873
606.3570, 34.11295
606.8391, 34.27309
607.3212, 34.19704
607.8033, 33.90531
608.2855, 33.91952
608.7676, 35.09922
609.2497, 36.62859
609.7318, 37.43375
610.2139, 37.29094
610.6960, 36.77222
611.1782, 35.70073
611.6603, 34.63688
612.1424, 34.16637
612.6245, 34.96133
613.1066, 35.71511
613.5887, 36.26299
614.0709, 36.66143
614.5530, 37.06386
615.0351, 37.61977
615.5172, 37.82441
615.9993, 37.40967
616.4814, 36.53339
616.9636, 36.01200
617.4457, 35.85138
617.9278, 35.97663
618.4099, 36.45304
618.8920, 37.17072
619.3741, 37.96215
619.8563, 38.83363
620.3384, 39.37252
620.8205, 38.75955
621.3026, 37.82876
621.7847, 37.72295
622.2668, 39.09618
622.7490, 40.15935
623.2311, 39.57615
623.7132, 38.43074
624.1953, 38.10929
624.6774, 39.87758
625.1595, 41.22743
625.6417, 41.91766
626.1238, 41.98473
626.6059, 41.33918
627.0880, 39.54402
627.5701, 38.37286
628.0522, 38.70266
628.5344, 40.16406
629.0165, 40.88355
629.4986, 40.84895
629.9807, 40.61803
630.4628, 40.48077
630.9449, 40.45112
631.4271, 40.62313
631.9092, 41.01382
632.3913, 41.31243
632.8734, 40.95001
633.3555, 40.54818
633.8376, 40.86806
634.3198, 42.81248
634.8019, 44.00997
635.2840, 43.01116
635.7661, 41.19385
636.2482, 40.51839
636.7303, 41.94601
637.2125, 42.97012
637.6946, 43.15627
638.1767, 42.76481
638.6588, 42.48843
639.1409, 42.32426
639.6230, 42.29574
640.1052, 42.53239
640.5873, 42.86961
641.0694, 42.69828
641.5515, 42.06612
642.0336, 41.52431
642.5157, 41.61605
642.9979, 41.91430
643.4800, 41.81832
643.9621, 41.25085
644.4442, 40.95601
644.9263, 41.87268
645.4084, 42.86906
645.8906, 42.96499
646.3727, 41.17873
646.8548, 40.02956
647.3369, 40.00377
647.8190, 40.41863
648.3011, 40.48116
648.7833, 40.10583
649.2654, 39.62438
649.7475, 38.98894
650.2296, 38.38534
650.7117, 38.32349
651.1938, 38.74479
651.6760, 38.94624
652.1581, 38.47112
652.6402, 37.74425
653.1223, 37.33516
653.6044, 37.22686
654.0865, 37.32547
654.5687, 37.66292
655.0508, 38.12614
655.5329, 38.75434
656.0150, 39.55652
656.4971, 40.05820
656.9792, 40.01207
657.4614, 39.74231
657.9435, 39.35033
658.4256, 38.64780
658.9077, 38.55790
659.3898, 39.34645
659.8719, 40.27883
660.3541, 40.56567
660.8362, 40.22544
661.3183, 39.85191
661.8004, 39.53801
662.2825, 39.20475
662.7646, 38.69860
663.2468, 38.09306
663.7289, 37.55788
664.2110, 37.05779
664.6931, 36.77096
665.1752, 37.14831
665.6573, 37.83198
666.1395, 37.98326
666.6216, 36.32128
667.1037, 35.14704
667.5858, 35.71416
668.0679, 37.66244
668.5500, 38.37844
669.0322, 37.28189
669.5143, 36.10793
669.9964, 35.63987
670.4785, 35.82891
670.9606, 35.89535
671.4427, 35.83072
671.9249, 35.72261
672.4070, 35.69186
672.8891, 35.65792
673.3712, 35.38478
673.8533, 34.82003
674.3354, 34.34038
674.8176, 34.49237
675.2997, 34.73427
675.7818, 34.41798
676.2639, 32.78143
676.7460, 31.74596
677.2281, 32.12656
677.7103, 33.19382
678.1924, 34.12920
678.6745, 35.13176
679.1566, 35.50243
679.6387, 34.95523
680.1208, 33.90489
680.6030, 33.16561
681.0851, 32.74828
681.5672, 32.62626
682.0493, 32.89599
682.5314, 33.35948
683.0135, 33.72678
683.4957, 33.99902
683.9778, 34.16727
684.4599, 34.10240
684.9420, 34.03584
685.4241, 34.32378
685.9063, 34.90382
686.3884, 34.91972
686.8705, 33.13191
687.3526, 31.67040
687.8347, 31.66479
688.3168, 33.44242
688.7990, 34.28210
689.2811, 33.83939
689.7632, 33.25984
690.2453, 33.63469
690.7274, 34.85006
691.2095, 35.31897
691.6917, 34.88611
692.1738, 34.10635
692.6559, 33.31239
693.1380, 32.64487
693.6201, 32.40098
694.1022, 32.77945
694.5844, 33.21757
695.0665, 33.40944
695.5486, 33.46377
696.0307, 33.52028
696.5128, 33.56967
696.9949, 33.68099
697.4771, 33.99973
697.9592, 34.32430
698.4413, 34.15427
698.9234, 33.29176
699.4055, 32.74481
699.8876, 32.85459
700.3698, 33.37707
700.8519, 33.75480
701.3340, 33.99503
701.8161, 34.12978
702.2982, 34.15982
702.7803, 34.10435
703.2625, 33.79714
703.7446, 33.35146
704.2267, 33.33289
704.7088, 34.46149
705.1909, 35.66925
705.6730, 36.39939
706.1552, 36.58505
706.6373, 36.74873
707.1194, 37.01955
707.6015, 37.08832
708.0836, 36.70346
708.5657, 35.83349
709.0479, 35.15423
709.5300, 34.65974
710.0121, 34.38985
710.4942, 34.49919
710.9763, 34.84460
711.4584, 35.13543
711.9406, 35.34794
712.4227, 35.37801
712.9048, 35.11134
713.3869, 34.64256
713.8690, 34.02220
714.3511, 32.92537
714.8333, 32.30214
715.3154, 32.81087
715.7975, 33.63342
716.2796, 33.80585
716.7617, 32.85430
717.2438, 32.75924
717.7260, 34.06201
718.2081, 35.84222
718.6902, 36.39199
719.1723, 35.85185
719.6544, 35.21186
720.1365, 34.55330
720.6187, 34.29158
721.1008, 35.45979
721.5829, 37.39964
722.0650, 38.59772
722.5471, 37.61939
723.0292, 36.53312
723.5114, 36.35162
723.9935, 36.84618
724.4756, 36.92582
724.9577, 36.15276
725.4398, 35.58533
725.9219, 35.54131
726.4041, 35.95972
726.8862, 36.60801
727.3683, 37.53429
727.8504, 38.21405
728.3325, 38.27017
728.8146, 37.90847
729.2968, 37.45320
729.7789, 36.93203
730.2610, 36.55515
730.7431, 36.51737
731.2252, 36.62761
731.7073, 36.82382
732.1895, 37.12102
732.6716, 37.18182
733.1537, 36.72931
733.6358, 36.21839
734.1179, 35.85276
734.6000, 35.64421
735.0822, 35.52387
735.5643, 35.49348
736.0464, 35.54032
736.5285, 35.66000
737.0106, 35.84814
737.4927, 36.17073
737.9749, 36.66866
738.4570, 36.95554
738.9391, 36.38776
739.4212, 35.56396
739.9033, 35.18890
740.3854, 35.56599
740.8676, 36.01305
741.3497, 36.51222
741.8318, 36.89280
742.3139, 36.98970
742.7960, 36.72612
743.2781, 36.31763
743.7603, 35.64338
744.2424, 35.05006
744.7245, 35.24451
745.2066, 36.09735
745.6887, 36.49908
746.1708, 36.08097
746.6530, 35.40634
747.1351, 34.98210
747.6172, 34.78786
748.0993, 34.79573
748.5814, 35.21067
749.0635, 35.57655
749.5457, 35.79875
750.0278, 35.85473
750.5099, 35.69109
750.9920, 35.17310
751.4741, 34.66727
751.9562, 34.10818
752.4384, 33.70351
752.9205, 34.21987
753.4026, 35.62598
753.8847, 36.69230
754.3668, 36.82129
754.8489, 36.48524
755.3311, 36.18224
755.8132, 35.96434
756.2953, 35.99293
756.7774, 36.85309
757.2595, 37.47716
757.7416, 37.05363
758.2238, 35.83662
758.7059, 35.30680
759.1880, 36.06890
759.6701, 36.65353
760.1522, 36.56161
760.6343, 35.94214
761.1165, 35.47210
761.5986, 35.14130
762.0807, 35.26148
762.5628, 36.56794
763.0449, 38.18887
763.5270, 38.35680
764.0092, 37.32764
764.4913, 36.48397
764.9734, 36.65258
765.4555, 37.19234
765.9376, 37.86257
766.4197, 38.64699
766.9019, 39.09287
767.3840, 38.90604
767.8661, 38.79256
768.3482, 39.20862
768.8303, 40.10742
769.3124, 39.96432
769.7946, 38.67042
770.2767, 37.68712
770.7588, 38.53482
771.2409, 40.21391
771.7230, 40.87830
772.2051, 40.49113
772.6873, 39.98641
773.1694, 39.53208
773.6515, 39.44441
774.1336, 40.11959
774.6157, 41.80154
775.0978, 42.87600
775.5800, 43.00466
776.0621, 42.91182
776.5442, 43.05067
777.0263, 43.44453
777.5084, 43.45254
777.9905, 43.03015
778.4727, 42.65391
778.9548, 42.76427
779.4369, 43.18761
779.9190, 43.62959
780.4011, 44.05427
780.8832, 44.56151
781.3654, 45.37827
781.8475, 46.17480
782.3296, 46.66669
782.8117, 46.65584
783.2938, 46.85874
783.7759, 47.35238
784.2581, 47.95583
784.7402, 48.52811
785.2223, 49.06701
785.7044, 49.77855
786.1865, 50.71206
786.6686, 51.38640
787.1508, 50.81123
787.6329, 49.87053
788.1150, 50.10107
788.5971, 51.92418
789.0792, 53.63729
789.5613, 54.10707
790.0435, 54.34875
790.5256, 55.21684
791.0077, 56.95791
791.4898, 58.83342
791.9719, 61.07912
792.4540, 63.04045
792.9362, 63.69518
793.4183, 63.23197
793.9004, 64.02171
794.3825, 66.38325
794.8646, 68.84583
795.3467, 69.54989
795.8289, 69.71436
796.3110, 71.13703
796.7931, 74.48230
797.2752, 77.61000
797.7573, 79.18876
798.2394, 80.64561
798.7216, 83.21459
799.2037, 87.50095
799.6858, 91.32120
800.1679, 94.50999
800.6500, 97.61105
801.1321, 101.1547
801.6143, 105.1291
802.0964, 109.6793
802.5785, 114.8644
803.0606, 120.0238
803.5427, 124.1934
804.0248, 128.1389
804.5070, 132.7166
804.9891, 138.0694
805.4712, 144.0707
805.9533, 151.4624
806.4354, 158.9944
806.9175, 165.6958
807.3997, 171.2600
807.8818, 177.3678
808.3639, 184.0616
808.8460, 191.0822
809.3281, 198.2343
809.8102, 205.4756
810.2924, 212.8313
810.7745, 220.3701
811.2566, 227.4369
811.7387, 232.9358
812.2208, 238.0580
812.7029, 244.1055
813.1851, 252.4048
813.6672, 258.4106
814.1493, 261.5568
814.6314, 262.8820
815.1135, 262.8699
815.5956, 261.4590
816.0778, 260.3419
816.5599, 259.6979
817.0420, 258.4027
817.5241, 254.7012
818.0062, 249.9053
818.4883, 246.2312
818.9705, 244.1623
819.4526, 241.4545
819.9347, 236.3337
820.4168, 230.7017
820.8989, 225.9345
821.3810, 222.2536
821.8632, 218.8220
822.3453, 215.6641
822.8274, 212.6806
823.3095, 209.8380
823.7916, 207.1232
824.2737, 204.6144
824.7559, 202.3000
825.2380, 200.3979
825.7201, 199.3591
826.2022, 198.6685
826.6843, 197.6740
827.1664, 196.1917
827.6486, 195.5017
828.1307, 196.8080
828.6128, 198.1274
829.0949, 198.4259
829.5770, 197.6083
830.0591, 197.1764
830.5413, 197.1398
831.0234, 197.4549
831.5055, 198.1475
831.9876, 199.1454
832.4697, 200.3665
832.9518, 201.7857
833.4340, 203.2937
833.9161, 205.0403
834.3982, 206.6566
834.8803, 207.9198
835.3624, 208.7889
835.8445, 209.4238
836.3267, 209.8215
836.8088, 209.9945
837.2909, 209.9836
837.7730, 209.7578
838.2551, 208.9697
838.7372, 207.6611
839.2194, 206.4730
839.7015, 206.0009
840.1836, 205.7193
840.6657, 205.3438
841.1478, 204.7708
841.6299, 203.5109
842.1121, 200.7666
842.5942, 198.0032
843.0763, 195.8769
843.5584, 194.1601
844.0405, 191.4697
844.5226, 187.6773
845.0048, 183.7962
845.4869, 180.2244
845.9690, 176.8582
846.4511, 173.5604
846.9332, 170.3311
847.4153, 167.2194
847.8975, 164.4056
848.3796, 161.5550
848.8617, 158.7693
849.3438, 155.8096
849.8259, 151.9202
850.3080, 146.3432
850.7902, 141.5084
851.2723, 138.2373
851.7544, 135.7466
852.2365, 132.0182
852.7186, 127.3653
853.2007, 123.6884
853.6829, 122.1793
854.1650, 121.1185
854.6471, 119.2260
855.1292, 116.6715
855.6113, 113.7286
856.0934, 109.3557
856.5756, 106.2127
857.0577, 105.4218
857.5398, 105.2977
858.0219, 102.9580
858.5040, 98.19846
858.9861, 94.88200
859.4683, 93.81924
859.9504, 93.64403
860.4325, 93.06590
860.9146, 92.09439
861.3967, 90.69764
861.8788, 88.70831
862.3610, 86.74522
862.8431, 85.09589
863.3252, 83.55943
863.8073, 81.94862
864.2894, 80.15578
864.7715, 78.50213
865.2537, 76.88161
865.7358, 75.75618
866.2179, 76.21793
866.7000, 77.47269
867.1821, 77.04237
867.6642, 74.60425
868.1464, 72.35935
868.6285, 72.17867
869.1106, 72.44677
869.5927, 71.79853
870.0748, 69.78500
870.5569, 68.60595
871.0391, 68.79940
871.5212, 68.83870
872.0033, 67.50741
872.4854, 65.10939
872.9675, 64.17434
873.4496, 64.60473
873.9318, 65.11270
874.4139, 64.98904
874.8960, 64.42116
875.3781, 63.37633
875.8602, 61.94035
876.3423, 60.75285
876.8245, 60.02029
877.3066, 59.50397
877.7887, 59.04882
878.2708, 58.78255
878.7529, 59.49619
879.2350, 61.18927
879.7172, 62.48624
880.1993, 62.72577
880.6814, 62.32116
881.1635, 61.72451
881.6456, 60.90747
882.1277, 59.80271
882.6099, 57.73881
883.0920, 56.15503
883.5741, 55.56679
884.0562, 55.63041
884.5383, 55.88040
885.0204, 56.35452
885.5026, 56.79651
885.9847, 57.18927
886.4668, 57.45139
886.9489, 57.45331
887.4310, 57.24329
887.9131, 56.83870
888.3953, 56.03638
888.8774, 55.64777
889.3595, 56.47235
889.8416, 57.61026
890.3237, 58.13996
890.8058, 57.61163
891.2880, 57.88377
891.7701, 59.24087
892.2522, 60.50507
892.7343, 60.33906
893.2164, 59.27723
893.6985, 58.83482
894.1807, 59.12592
894.6628, 59.32037
895.1449, 58.43655
895.6270, 57.63988
896.1091, 57.92337
896.5912, 59.44640
897.0734, 60.14698
897.5555, 59.53157
898.0376, 59.29453
898.5197, 60.62912
899.0018, 62.84525
899.4839, 63.18218
899.9661, 61.94579
900.4482, 60.92060
900.9303, 61.39464
901.4124, 62.11968
901.8945, 62.29825
902.3766, 62.05757
902.8588, 61.88851
903.3409, 62.16912
903.8230, 61.87368
904.3051, 60.55284
904.7872, 58.87225
905.2693, 58.29978
905.7515, 58.63736
906.2336, 58.62935
906.7157, 57.83052
907.1978, 56.87611
907.6799, 56.32063
908.1620, 55.92474
908.6442, 55.37847
909.1263, 54.37183
909.6084, 53.70167
910.0905, 53.61536
910.5726, 53.55059
911.0547, 52.90437
911.5369, 51.74135
912.0190, 50.90738
912.5011, 50.47059
912.9832, 49.80176
913.4653, 47.55207
913.9474, 45.38727
914.4296, 45.27203
914.9117, 47.48009
915.3938, 48.85944
915.8759, 48.55643
916.3580, 47.88068
916.8401, 47.17154
917.3223, 46.51665
917.8044, 46.64472
918.2865, 47.49313
918.7686, 48.04931
919.2507, 47.35996
919.7328, 46.48460
920.2150, 46.64936
920.6971, 47.44289
921.1792, 47.84586
921.6613, 47.28399
922.1434, 46.70262
922.6255, 46.26609
923.1077, 45.85069
923.5898, 45.09517
924.0719, 44.04916
924.5540, 43.53933
925.0361, 43.79922
925.5182, 44.34686
926.0004, 45.00654
926.4825, 45.52383
926.9646, 45.52401
927.4467, 44.64824
927.9288, 44.10127
928.4109, 44.20549
928.8931, 44.41504
929.3752, 44.38152
929.8573, 44.10879
930.3394, 43.56993
930.8215, 42.76945
931.3036, 42.38136
931.7858, 43.50891
932.2679, 44.84645
932.7500, 44.99316
933.2321, 44.05115
933.7142, 43.26175
934.1964, 42.66059
934.6785, 42.61610
935.1606, 43.50598
935.6427, 44.86769
936.1248, 45.27721
936.6069, 44.78578
937.0891, 43.93676
937.5712, 42.61691
938.0533, 41.56291
938.5354, 41.95547
939.0175, 42.91765
939.4996, 43.15470
939.9818, 41.26867
940.4639, 40.28693
940.9460, 40.56265
941.4281, 41.43083
941.9102, 42.52911
942.3923, 43.74757
942.8745, 43.85867
943.3566, 42.74467
943.8387, 41.51749
944.3208, 41.12145
944.8029, 40.99764
945.2850, 40.57300
945.7672, 39.78486
946.2493, 39.54548
946.7314, 40.31989
947.2135, 40.87156
947.6956, 40.58352
948.1777, 39.77570
948.6599, 39.60780
949.1420, 40.01006
949.6241, 40.62514
950.1062, 41.79154
950.5883, 42.51141
951.0704, 41.64910
951.5526, 39.95209
952.0347, 38.84343
952.5168, 38.42569
952.9989, 38.73852
953.4810, 40.16631
953.9631, 41.56809
954.4453, 41.19986
954.9274, 39.59185
955.4095, 38.56194
955.8916, 38.37234
956.3737, 38.60535
956.8558, 39.57004
957.3380, 40.40269
957.8201, 40.35087
958.3022, 39.32712
958.7843, 38.41028
959.2664, 37.51424
959.7485, 37.01355
960.2307, 37.30233
960.7128, 37.97050
961.1949, 37.80773
961.6770, 37.12864
962.1591, 37.03941
962.6412, 39.31915
963.1234, 40.86691
963.6055, 39.70107
964.0876, 37.27393
964.5697, 35.98808
965.0518, 36.03287
965.5339, 36.47454
966.0161, 37.31691
966.4982, 38.10429
966.9803, 38.34832
967.4624, 38.14974
967.9445, 37.47035
968.4266, 36.18132
968.9088, 35.48892
969.3909, 36.60249
969.8730, 37.69556
970.3551, 37.77380
970.8372, 36.89808
971.3193, 36.07354
971.8015, 35.29495
972.2836, 34.90281
972.7657, 35.25970
973.2478, 35.95766
973.7299, 36.73343
974.2120, 37.45827
974.6942, 37.82381
975.1763, 37.33303
975.6584, 37.03708
976.1405, 37.23005
976.6226, 37.50267
977.1047, 37.10573
977.5869, 36.13428
978.0690, 35.75571
978.5511, 36.19530
979.0332, 36.66872
979.5153, 36.70156
979.9974, 36.33712
980.4796, 35.38400
980.9617, 33.67088
981.4438, 32.94392
981.9259, 33.68651
982.4080, 34.47612
982.8901, 34.67119
983.3723, 34.43150
983.8544, 34.04964
984.3365, 33.63419
984.8186, 33.63587
985.3007, 34.65899
985.7828, 35.73010
986.2650, 36.55263
986.7471, 37.05205
987.2292, 37.17539
987.7113, 36.93980
988.1934, 36.12684
988.6755, 34.54488
989.1577, 33.05294
989.6398, 32.68872
990.1219, 33.04448
990.6040, 33.55117
991.0861, 34.14596
991.5682, 34.55703
992.0504, 34.62600
992.5325, 34.52073
993.0146, 34.23270
993.4967, 33.83921
993.9788, 33.79262
994.4609, 34.09215
994.9431, 34.41630
995.4252, 34.70117
995.9073, 34.85080
996.3894, 34.60966
996.8715, 34.20852
997.3536, 34.02179
997.8358, 34.53501
998.3179, 34.67278
998.8000, 34.30690
999.2821, 33.72418
999.7642, 33.07747
1000.246, 32.42519
1000.728, 32.21731
1001.211, 32.45083
1001.693, 32.59703
1002.175, 31.93622
1002.657, 31.40211
1003.139, 31.87415
1003.621, 33.15278
1004.103, 33.60134
1004.585, 32.95634
1005.068, 32.48968
1005.550, 32.60381
1006.032, 32.96019
1006.514, 32.93370
1006.996, 32.75489
1007.478, 32.95423
1007.960, 33.95825
1008.442, 34.62832
1008.924, 34.60660
1009.407, 34.12006
1009.889, 33.13280
1010.371, 31.61267
1010.853, 30.64980
1011.335, 30.23662
1011.817, 30.33910
1012.299, 31.60385
1012.781, 32.80384
1013.263, 32.34993
1013.746, 30.82561
1014.228, 30.40569
1014.710, 32.52710
1015.192, 33.57979
1015.674, 32.67163
1016.156, 31.09336
1016.638, 30.77715
1017.120, 31.41375
1017.603, 32.16179
1018.085, 32.93971
1018.567, 33.33124
1019.049, 32.52477
1019.531, 31.73904
1020.013, 32.09624
1020.495, 33.51733
1020.977, 33.39465
1021.459, 31.51631
1021.942, 29.97192
1022.424, 29.91182
1022.906, 30.51108
1023.388, 30.65628
1023.870, 30.59807
1024.352, 30.82690
1024.834, 31.74453
1025.316, 32.63532
1025.799, 33.60160
1026.281, 34.30675
1026.763, 34.29674
1027.245, 33.67597
1027.727, 33.17014
1028.209, 32.80774
1028.691, 32.24209
1029.173, 30.61103
1029.656, 29.25769
1030.138, 29.36645
1030.620, 30.65796
1031.102, 31.47162
1031.584, 31.73333
1032.066, 31.79235
1032.548, 31.69580
1033.030, 31.53520
1033.512, 31.38352
1033.995, 31.28365
1034.477, 31.37350
1034.959, 31.81442
1035.441, 31.93285
1035.923, 31.13842
1036.405, 30.47365
1036.887, 30.60888
1037.369, 31.41884
1037.851, 31.74833
1038.334, 31.63845
1038.816, 31.52384
1039.298, 31.85721
1039.780, 32.05769
1040.262, 31.55377
1040.744, 30.68714
1041.226, 30.16834
1041.708, 30.20684
1042.191, 29.92635
1042.673, 29.09979
1043.155, 28.55721
1043.637, 29.68430
1044.119, 31.46008
1044.601, 32.01694
1045.083, 31.26777
1045.565, 30.53623
1046.047, 30.18362
1046.530, 30.07572
1047.012, 30.22021
1047.494, 30.54584
1047.976, 31.04356
1048.458, 31.63016
1048.940, 31.49240
1049.422, 30.16527
1049.904, 28.86091
1050.386, 28.41847
1050.869, 28.49726
1051.351, 28.88571
1051.833, 29.68943
1052.315, 29.81784
1052.797, 29.06772
1053.279, 28.58520
1053.761, 29.52441
1054.243, 30.82987
1054.726, 30.31413
1055.208, 28.66661
1055.690, 27.71225
1056.172, 28.52856
1056.654, 29.56182
1057.136, 30.82745
1057.618, 31.90639
1058.100, 32.25272
1058.583, 31.94851
1059.065, 31.47753
1059.547, 30.87990
1060.029, 30.23456
1060.511, 29.21153
1060.993, 28.53438
1061.475, 28.97828
1061.957, 30.20525
1062.439, 30.81588
1062.922, 30.77467
1063.404, 30.22092
1063.886, 28.98559
1064.368, 27.87679
1064.850, 28.19795
1065.332, 29.11889
1065.814, 29.44129
1066.296, 28.72555
1066.778, 28.39599
1067.261, 28.60011
1067.743, 29.18566
1068.225, 30.35023
1068.707, 31.71254
1069.189, 31.71906
1069.671, 30.73242
1070.153, 30.05021
1070.635, 30.43708
1071.118, 30.98563
1071.600, 31.57305
1072.082, 31.97271
1072.564, 31.86752
1073.046, 31.19963
1073.528, 30.74925
1074.010, 30.54509
1074.492, 30.51043
1074.974, 31.05560
1075.457, 31.35312
1075.939, 30.21788
1076.421, 28.12813
1076.903, 27.11473
1077.385, 27.62372
1077.867, 28.33606
1078.349, 29.15109
1078.831, 29.78187
1079.313, 29.59987
1079.796, 29.05591
1080.278, 29.10509
1080.760, 29.92627
1081.242, 30.29447
1081.724, 29.21236
1082.206, 28.28580
1082.688, 28.11117
1083.170, 28.48644
1083.652, 28.91240
1084.135, 29.34171
1084.617, 29.46507
1085.099, 29.02014
1085.581, 28.67511
1086.063, 29.24818
1086.545, 29.80327
1087.027, 29.32851
1087.509, 27.62966
1087.992, 26.97350
1088.474, 27.40650
1088.956, 28.16864
1089.438, 29.02494
1089.920, 29.78186
1090.402, 30.26455
1090.884, 30.49807
1091.366, 30.52704
1091.849, 30.37308
1092.331, 29.95722
1092.813, 29.19215
1093.295, 28.38733
1093.777, 27.71355
1094.259, 27.27600
1094.741, 27.40705
1095.223, 28.04136
1095.705, 28.61804
1096.188, 28.86513
1096.670, 29.08011
1097.152, 29.38589
1097.634, 29.65959
1098.116, 29.61379
1098.598, 29.31697
1099.080, 29.12671
1099.562, 29.09647
1100.044, 29.22663
1100.527, 30.01284
1101.009, 30.49810
1101.491, 29.73047
1101.973, 28.02812
1102.455, 27.36755
1102.937, 27.77109
1103.419, 28.47397
1103.901, 29.40272
1104.384, 30.06083
1104.866, 29.60831
1105.348, 28.75100
1105.830, 28.39169
1106.312, 28.87713
1106.794, 28.75278
1107.276, 27.72339
1107.758, 27.15547
1108.240, 28.30116
1108.723, 30.00382
1109.205, 30.14065
1109.687, 29.23906
1110.169, 28.52130
1110.651, 28.54400
1111.133, 28.51214
1111.615, 28.25226
1112.097, 28.09858
1112.579, 28.54977
1113.062, 29.35325
1113.544, 29.51237
1114.026, 29.07942
1114.508, 28.57734
1114.990, 27.99564
1115.472, 27.74196
1115.954, 28.12556
1116.436, 28.79186
1116.919, 29.33778
1117.401, 29.74587
1117.883, 29.42975
1118.365, 28.28521
1118.847, 27.59533
1119.329, 28.98186
1119.811, 30.56504
1120.293, 31.00817
1120.776, 30.49550
1121.258, 29.75574
1121.740, 28.69934
1122.222, 28.40040
1122.704, 29.31804
1123.186, 30.21573
1123.668, 29.55990
1124.150, 28.33290
1124.632, 27.55663
1125.115, 27.40517
1125.597, 27.51780
1126.079, 27.96584
1126.561, 28.41296
1127.043, 28.70984
1127.525, 28.96718
1128.007, 29.58621
1128.489, 30.22924
1128.971, 30.22466
1129.454, 29.00943
1129.936, 28.30041
1130.418, 28.38753
1130.900, 28.72581
1131.382, 29.11561
1131.864, 29.45559
1132.346, 29.40556
1132.828, 29.05010
1133.311, 28.65366
1133.793, 28.08929
1134.275, 27.85119
1134.757, 28.23151
1135.239, 28.74360
1135.721, 28.97773
1136.203, 28.96160
1136.685, 28.95997
1137.167, 28.96026
1137.650, 28.81689
1138.132, 28.28564
1138.614, 27.77344
1139.096, 27.42654
1139.578, 27.23288
1140.060, 27.13924
1140.542, 27.14163
1141.024, 27.78554
1141.506, 29.13245
1141.989, 30.00987
1142.471, 28.79778
1142.953, 27.49597
1143.435, 27.78532
1143.917, 29.15899
1144.399, 29.78854
1144.881, 29.61793
1145.363, 29.03683
1145.846, 28.08036
1146.328, 26.97411
1146.810, 25.39443
1147.292, 24.19652
1147.774, 24.46774
1148.256, 26.25083
1148.738, 27.58120
1149.220, 28.44093
1149.703, 28.74650
1150.185, 28.35485
1150.667, 27.73966
1151.149, 27.21047
1151.631, 27.00414
1152.113, 27.71478
1152.595, 29.68582
1153.077, 30.42488
1153.559, 29.42223
1154.042, 28.13408
1154.524, 26.85140
1155.006, 26.04353
1155.488, 27.27974
1155.970, 29.46211
1156.452, 30.30289
1156.934, 28.65690
1157.416, 27.47560
1157.898, 27.16455
1158.381, 27.25154
1158.863, 27.59994
1159.345, 28.08492
1159.827, 28.51089
1160.309, 28.76535
1160.791, 28.47608
1161.273, 26.76953
1161.755, 25.88998
1162.238, 26.72813
1162.720, 27.88208
1163.202, 28.45089
1163.684, 28.46547
1164.166, 27.96522
1164.648, 27.04458
1165.130, 26.12769
1165.612, 24.99057
1166.094, 24.46176
1166.577, 25.16708
1167.059, 26.23271
1167.541, 26.81324
1168.023, 26.97093
1168.505, 27.35884
1168.987, 27.92734
1169.469, 28.06657
1169.951, 26.98019
1170.433, 25.88596
1170.916, 25.11243
1171.398, 24.78386
1171.880, 25.30359
1172.362, 26.60940
1172.844, 27.39185
1173.326, 27.55257
1173.808, 27.38239
1174.290, 26.68293
1174.773, 26.11801
1175.255, 26.22339
1175.737, 26.68353
1176.219, 27.00178
1176.701, 27.18196
1177.183, 26.76416
1177.665, 25.63425
1178.147, 24.85575
1178.630, 25.84377
1179.112, 26.95010
1179.594, 26.73277
1180.076, 25.68321
1180.558, 25.56927
1181.040, 26.45455
1181.522, 27.00178
1182.004, 26.94281
1182.486, 26.60501
1182.969, 26.21871
1183.451, 25.72828
1183.933, 24.80801
1184.415, 23.65138
1184.897, 23.72694
1185.379, 25.19818
1185.861, 26.04811
1186.343, 25.68045
1186.825, 24.86344
1187.308, 23.95872
1187.790, 23.24683
1188.272, 23.04371
1188.754, 23.35555
1189.236, 23.89794
1189.718, 24.66912
1190.200, 25.72703
1190.682, 27.27045
1191.165, 28.58379
1191.647, 28.77103
1192.129, 28.40464
1192.611, 28.18531
1193.093, 28.22485
1193.575, 27.22783
1194.057, 24.95029
1194.539, 23.44063
1195.021, 23.72788
1195.504, 24.63423
1195.986, 25.02084
1196.468, 25.12964
1196.950, 25.26411
1197.432, 25.48127
1197.914, 25.49980
1198.396, 25.25772
1198.878, 25.26515
1199.360, 25.96808
1199.843, 26.72143
1200.325, 26.59472
1200.807, 26.10764
1201.289, 26.05598
1201.771, 26.70913
1202.253, 26.90700
1202.735, 26.59878
1203.217, 26.15132
1203.700, 25.60389
1204.182, 25.22938
1204.664, 25.35047
1205.146, 25.85324
1205.628, 26.69212
1206.110, 28.33840
1206.592, 28.45813
1207.074, 26.81942
1207.557, 25.13621
1208.039, 24.67533
1208.521, 24.57450
1209.003, 23.62812
1209.485, 22.41797
1209.967, 22.08770
1210.449, 23.04079
1210.931, 23.96253
1211.413, 24.91123
1211.896, 25.47735
1212.378, 24.80282
1212.860, 24.11077
1213.342, 25.25785
1213.824, 27.23221
1214.306, 27.82959
1214.788, 26.46217
1215.270, 25.32245
1215.752, 24.44817
1216.235, 23.89971
1216.717, 23.78307
1217.199, 23.95363
1217.681, 24.55910
1218.163, 25.27233
1218.645, 25.31322
1219.127, 24.45908
1219.609, 23.72545
1220.092, 23.13241
1220.574, 22.83160
1221.056, 23.26247
1221.538, 23.74955
1222.020, 23.36273
1222.502, 24.00343
1222.984, 22.87288
1223.466, 24.48477
1223.948, 25.26957
1224.431, 25.05467
1224.913, 24.58208
1225.395, 24.22805
1225.877, 24.07096
1226.359, 24.49287
1226.841, 25.07247
1227.323, 24.74127
1227.805, 23.28410
1228.287, 22.36799
1228.770, 22.11524
1229.252, 22.33381
1229.734, 23.30186
1230.216, 24.26278
1230.698, 24.62982
1231.180, 24.56286
1231.662, 24.46005
1232.144, 24.31567
1232.627, 24.10582
1233.109, 23.81702
1233.591, 23.93358
1234.073, 25.69381
1234.555, 27.09353
1235.037, 26.34703
1235.519, 24.50201
1236.001, 23.47413
1236.484, 23.27041
1236.966, 23.30456
1237.448, 23.52287
1237.930, 23.71071
1238.412, 23.63395
1238.894, 23.58164
1239.376, 23.85961
1239.858, 24.18807
1240.340, 23.97416
1240.823, 23.29936
1241.305, 23.16493
1241.787, 23.64566
1242.269, 24.04901
1242.751, 23.65115
1243.233, 23.43842
1243.715, 24.02155
1244.197, 24.86301
1244.679, 25.10453
1245.162, 24.85143
1245.644, 24.60293
1246.126, 24.40993
1246.608, 24.32490
1247.090, 24.52650
1247.572, 24.64737
1248.054, 24.59690
1248.536, 24.39150
1249.019, 23.79689
1249.501, 23.09593
1249.983, 23.50750
1250.465, 24.99302
1250.947, 25.85357
1251.429, 24.30219
1251.911, 23.60780
1252.393, 24.78161
1252.875, 26.44497
1253.358, 26.86187
1253.840, 26.30892
1254.322, 24.93748
1254.804, 22.97911
1255.286, 22.22313
1255.768, 24.20618
1256.250, 25.64042
1256.732, 25.99224
1257.214, 25.74890
1257.697, 25.14722
1258.179, 24.54365
1258.661, 24.72717
1259.143, 25.56558
1259.625, 25.84980
1260.107, 25.21698
1260.589, 24.60660
1261.071, 24.11858
1261.554, 23.81607
1262.036, 23.92999
1262.518, 24.14773
1263.000, 24.13340
1263.482, 23.88391
1263.964, 23.43492
1264.446, 22.58829
1264.928, 22.58486
1265.411, 23.68522
1265.893, 24.79018
1266.375, 24.83999
1266.857, 24.53441
1267.339, 24.49712
1267.821, 24.58840
1268.303, 24.25742
1268.785, 23.44264
1269.267, 22.94720
1269.750, 22.85548
1270.232, 23.19014
1270.714, 24.46101
1271.196, 25.65916
1271.678, 26.15170
1272.160, 26.11424
1272.642, 25.65995
1273.124, 24.82910
1273.606, 24.09634
1274.089, 23.51816
1274.571, 23.31026
1275.053, 23.92488
1275.535, 24.54653
1276.017, 24.89353
1276.499, 25.07534
1276.981, 25.33663
1277.463, 25.55689
1277.946, 25.06021
1278.428, 23.94729
1278.910, 23.18305
1279.392, 23.33070
1279.874, 23.76715
1280.356, 24.54642
1280.838, 25.22462
1281.320, 25.43154
1281.802, 25.14416
1282.285, 23.81105
1282.767, 21.83550
1283.249, 21.06066
1283.731, 22.83392
1284.213, 24.10156
1284.695, 24.55230
1285.177, 24.77956
1285.659, 25.33138
1286.141, 25.97224
1286.624, 26.65884
1287.106, 27.14835
1287.588, 26.64664
1288.070, 24.69229
1288.552, 23.66550
1289.034, 23.73255
1289.516, 24.20776
1289.998, 25.17958
1290.481, 25.73706
1290.963, 24.42271
1291.445, 22.54803
1291.927, 22.36101
1292.409, 23.97282
1292.891, 25.48751
1293.373, 26.83003
1293.855, 27.64355
1294.338, 27.26309
1294.820, 26.84623
1295.302, 27.34734
1295.784, 27.69302
1296.266, 26.57364
1296.748, 24.34410
1297.230, 23.42883
1297.712, 23.68236
1298.194, 24.38255
1298.677, 25.86626
1299.159, 26.72696
1299.641, 26.64618
1300.123, 26.21315
1300.605, 25.82108
1301.087, 25.42077
1301.569, 24.69956
1302.051, 23.90457
1302.533, 23.56971
1303.016, 23.82585
##END=



