##NAMES=Fayalite
##RRUFFID=R070293
##IDEAL CHEMISTRY=Fe^2+^_2_SiO_4_
##LOCALITY=Pike's Peak, Teller County, Colorado, USA
##OWNER=RRUFF
##SOURCE=Michael Scott
##DESCRIPTION=Black single crystal fragment with internal hints of red and green
##STATUS=The identification of this mineral has been confirmed by X-ray diffraction and chemical analysis
##URL=rruff.info/R070293
##MEASURED CHEMISTRY=(Fe^2+^_1.87_Mn^2+^_0.13_)_Î£=2_Si_1.00_O_4_ ; trace amounts of Mg
120.2527, 49.58891
120.7348, 54.46294
121.2169, 60.15867
121.6990, 65.13551
122.1812, 69.69412
122.6633, 73.81004
123.1454, 77.07931
123.6275, 81.06725
124.1096, 87.87217
124.5917, 96.94815
125.0739, 106.0647
125.5560, 112.9461
126.0381, 118.8678
126.5202, 126.7922
127.0023, 138.4875
127.4844, 151.2190
127.9666, 159.5457
128.4487, 163.5300
128.9308, 168.2094
129.4129, 179.1050
129.8950, 195.1468
130.3772, 210.2989
130.8593, 222.9557
131.3414, 233.4294
131.8235, 242.4369
132.3056, 249.6493
132.7877, 256.4529
133.2699, 263.5109
133.7520, 270.7437
134.2341, 281.2086
134.7162, 297.1894
135.1983, 318.7535
135.6804, 339.3478
136.1626, 358.4905
136.6447, 376.9934
137.1268, 396.0236
137.6089, 415.1758
138.0910, 435.8053
138.5731, 458.5490
139.0553, 484.2503
139.5374, 509.4168
140.0195, 534.0168
140.5016, 557.8712
140.9837, 578.9749
141.4658, 596.2355
141.9480, 612.7891
142.4301, 629.7683
142.9122, 644.1931
143.3943, 665.3051
143.8764, 694.9868
144.3585, 732.8790
144.8407, 774.8867
145.3228, 819.0106
145.8049, 868.5317
146.2870, 926.6025
146.7691, 998.4278
147.2512, 1070.856
147.7334, 1137.999
148.2155, 1196.033
148.6976, 1269.040
149.1797, 1357.867
149.6618, 1461.770
150.1439, 1578.696
150.6261, 1708.256
151.1082, 1849.847
151.5903, 2002.989
152.0724, 2168.857
152.5545, 2342.670
153.0366, 2547.725
153.5188, 2758.853
154.0009, 2925.873
154.4830, 3085.254
154.9651, 3168.395
155.4472, 3144.265
155.9293, 2971.253
156.4115, 2747.229
156.8936, 2452.170
157.3757, 2110.408
157.8578, 1801.846
158.3399, 1543.056
158.8221, 1329.109
159.3042, 1154.127
159.7863, 1032.179
160.2684, 934.2102
160.7505, 855.6955
161.2326, 794.9267
161.7148, 744.5536
162.1969, 704.6353
162.6790, 672.1472
163.1611, 644.6088
163.6432, 622.7867
164.1253, 604.0687
164.6075, 586.2007
165.0896, 569.0715
165.5717, 556.8121
166.0538, 554.8577
166.5359, 558.7045
167.0180, 561.8666
167.5002, 559.3232
167.9823, 556.5561
168.4644, 557.8558
168.9465, 563.8156
169.4286, 571.8978
169.9107, 581.3478
170.3929, 591.5665
170.8750, 601.5424
171.3571, 614.1011
171.8392, 624.5967
172.3213, 627.9236
172.8034, 623.0654
173.2856, 612.1721
173.7677, 594.1761
174.2498, 570.7796
174.7319, 548.1759
175.2140, 529.3723
175.6961, 513.8458
176.1783, 500.8046
176.6604, 489.9781
177.1425, 482.1001
177.6246, 479.6375
178.1067, 481.9175
178.5888, 484.4129
179.0710, 482.9638
179.5531, 479.3068
180.0352, 477.3036
180.5173, 478.0760
180.9994, 480.7508
181.4815, 483.9432
181.9637, 487.6928
182.4458, 492.3417
182.9279, 497.6872
183.4100, 504.0695
183.8921, 512.9296
184.3742, 525.4619
184.8564, 540.4140
185.3385, 554.9554
185.8206, 569.2573
186.3027, 582.5853
186.7848, 592.4649
187.2669, 599.7285
187.7491, 611.0821
188.2312, 631.2557
188.7133, 657.3519
189.1954, 678.1341
189.6775, 692.4606
190.1596, 706.0087
190.6418, 724.2343
191.1239, 747.1495
191.6060, 776.9146
192.0881, 820.4260
192.5702, 874.8715
193.0524, 913.5340
193.5345, 933.2770
194.0166, 945.2068
194.4987, 969.5097
194.9808, 1007.655
195.4629, 1036.041
195.9451, 1045.458
196.4272, 1036.101
196.9093, 1004.578
197.3914, 945.2867
197.8735, 872.4628
198.3556, 812.7780
198.8378, 767.9787
199.3199, 726.3759
199.8020, 679.9745
200.2841, 628.1818
200.7662, 587.1204
201.2483, 559.6113
201.7305, 541.6160
202.2126, 523.1276
202.6947, 503.3075
203.1768, 486.1268
203.6589, 473.8307
204.1410, 466.6664
204.6232, 463.9807
205.1053, 467.4973
205.5874, 474.6916
206.0695, 477.2096
206.5516, 474.4636
207.0337, 468.5826
207.5159, 459.5544
207.9980, 446.0283
208.4801, 436.8664
208.9622, 434.4933
209.4443, 437.2936
209.9264, 437.1633
210.4086, 433.1344
210.8907, 428.1003
211.3728, 423.9926
211.8549, 420.5035
212.3370, 418.9921
212.8191, 420.2100
213.3013, 423.7658
213.7834, 426.2785
214.2655, 427.0360
214.7476, 427.9051
215.2297, 431.1508
215.7118, 438.7802
216.1940, 443.0223
216.6761, 440.9570
217.1582, 433.0485
217.6403, 430.3978
218.1224, 435.2411
218.6045, 442.3837
219.0867, 446.5440
219.5688, 445.7495
220.0509, 446.7253
220.5330, 451.9169
221.0151, 461.5695
221.4972, 466.3940
221.9794, 463.5590
222.4615, 459.1067
222.9436, 460.2377
223.4257, 471.1786
223.9078, 478.8359
224.3899, 478.5289
224.8721, 469.1755
225.3542, 466.6512
225.8363, 474.9808
226.3184, 486.2993
226.8005, 490.4231
227.2827, 481.3851
227.7648, 476.6860
228.2469, 482.6398
228.7290, 501.4895
229.2111, 512.7493
229.6932, 511.6689
230.1754, 506.7177
230.6575, 509.7807
231.1396, 526.8218
231.6217, 541.2116
232.1038, 547.2676
232.5859, 542.6451
233.0681, 542.4154
233.5502, 548.0755
234.0323, 557.0223
234.5144, 565.4807
234.9965, 572.0848
235.4786, 580.5033
235.9608, 592.8812
236.4429, 610.8720
236.9250, 624.3920
237.4071, 632.4124
237.8892, 636.4807
238.3713, 638.7831
238.8535, 638.4771
239.3356, 637.8206
239.8177, 637.6481
240.2998, 638.3650
240.7819, 637.9865
241.2640, 636.3308
241.7462, 633.6805
242.2283, 630.5955
242.7104, 627.5594
243.1925, 623.2774
243.6746, 617.0663
244.1567, 608.1620
244.6389, 599.6880
245.1210, 591.0757
245.6031, 583.2384
246.0852, 578.4164
246.5673, 579.4194
247.0494, 578.5847
247.5316, 571.9435
248.0137, 555.6844
248.4958, 547.1376
248.9779, 550.4850
249.4600, 559.2466
249.9421, 560.5396
250.4243, 549.0797
250.9064, 539.6692
251.3885, 538.8683
251.8706, 550.8884
252.3527, 557.2471
252.8348, 556.0674
253.3170, 550.4133
253.7991, 545.8412
254.2812, 542.4899
254.7633, 540.0181
255.2454, 537.8140
255.7275, 534.8314
256.2097, 536.8203
256.6918, 547.1818
257.1739, 560.1580
257.6560, 563.3884
258.1381, 549.8423
258.6202, 541.1705
259.1024, 548.2480
259.5845, 577.4716
260.0666, 594.7902
260.5487, 595.5962
261.0308, 587.9464
261.5129, 587.1658
261.9951, 596.2878
262.4772, 605.0303
262.9593, 608.5224
263.4414, 604.9047
263.9235, 605.2325
264.4056, 610.5383
264.8878, 618.8519
265.3699, 627.1526
265.8520, 635.8080
266.3341, 643.5732
266.8162, 649.1819
267.2983, 651.6421
267.7805, 658.6582
268.2626, 672.2098
268.7447, 688.0587
269.2268, 697.9344
269.7089, 699.7041
270.1910, 703.1379
270.6732, 713.0477
271.1553, 730.3306
271.6374, 744.6097
272.1195, 754.9589
272.6016, 763.6891
273.0837, 773.9077
273.5659, 785.6755
274.0480, 798.7676
274.5301, 812.9973
275.0122, 828.2671
275.4943, 846.1780
275.9764, 867.0493
276.4586, 889.9619
276.9407, 914.6266
277.4228, 941.1617
277.9049, 965.7243
278.3870, 984.7643
278.8691, 998.7466
279.3513, 1018.616
279.8334, 1044.980
280.3155, 1075.674
280.7976, 1109.229
281.2798, 1145.530
281.7619, 1180.657
282.2440, 1212.342
282.7261, 1241.191
283.2082, 1271.425
283.6903, 1302.826
284.1725, 1336.416
284.6546, 1374.163
285.1367, 1415.643
285.6188, 1458.405
286.1009, 1503.120
286.5830, 1548.523
287.0652, 1588.325
287.5473, 1621.480
288.0294, 1653.118
288.5115, 1692.244
288.9936, 1737.184
289.4757, 1772.748
289.9579, 1793.326
290.4400, 1801.257
290.9221, 1802.474
291.4042, 1796.815
291.8863, 1786.441
292.3684, 1774.601
292.8506, 1760.256
293.3327, 1738.430
293.8148, 1703.191
294.2969, 1661.899
294.7790, 1629.135
295.2611, 1604.789
295.7433, 1581.521
296.2254, 1553.066
296.7075, 1520.130
297.1896, 1485.246
297.6717, 1444.283
298.1538, 1405.051
298.6360, 1382.202
299.1181, 1374.494
299.6002, 1369.687
300.0823, 1356.714
300.5644, 1340.061
301.0465, 1327.993
301.5287, 1322.651
302.0108, 1322.783
302.4929, 1327.136
302.9750, 1335.818
303.4571, 1349.173
303.9392, 1373.147
304.4214, 1400.290
304.9035, 1420.037
305.3856, 1424.986
305.8677, 1429.088
306.3498, 1445.099
306.8319, 1470.567
307.3141, 1497.288
307.7962, 1524.241
308.2783, 1547.973
308.7604, 1564.228
309.2425, 1568.409
309.7246, 1572.461
310.2068, 1587.782
310.6889, 1609.435
311.1710, 1624.801
311.6531, 1627.577
312.1352, 1621.895
312.6173, 1610.019
313.0995, 1591.468
313.5816, 1569.672
314.0637, 1548.429
314.5458, 1524.809
315.0279, 1493.203
315.5100, 1438.993
315.9922, 1385.625
316.4743, 1348.294
316.9564, 1333.701
317.4385, 1314.549
317.9206, 1275.563
318.4027, 1228.051
318.8849, 1187.817
319.3670, 1165.582
319.8491, 1145.641
320.3312, 1122.664
320.8133, 1095.901
321.2954, 1067.613
321.7776, 1035.628
322.2597, 1003.135
322.7418, 973.5327
323.2239, 945.1729
323.7060, 921.8780
324.1881, 906.5719
324.6703, 900.1306
325.1524, 891.0662
325.6345, 875.7045
326.1166, 859.0649
326.5987, 845.0450
327.0808, 835.0905
327.5630, 826.0856
328.0451, 817.4543
328.5272, 809.2596
329.0093, 802.9155
329.4914, 799.8230
329.9735, 797.4491
330.4557, 794.2972
330.9378, 790.7440
331.4199, 785.5782
331.9020, 777.4246
332.3841, 767.3517
332.8662, 760.5020
333.3484, 757.1900
333.8305, 756.7266
334.3126, 759.7700
334.7947, 768.8776
335.2768, 773.0450
335.7589, 769.6107
336.2411, 762.1007
336.7232, 759.4927
337.2053, 762.8962
337.6874, 768.0335
338.1695, 773.7196
338.6516, 780.2567
339.1338, 783.6302
339.6159, 782.4064
340.0980, 780.1270
340.5801, 783.9931
341.0622, 794.9211
341.5443, 803.8732
342.0265, 804.7987
342.5086, 799.1678
342.9907, 802.1526
343.4728, 815.1291
343.9549, 831.2379
344.4370, 841.2805
344.9192, 845.9371
345.4013, 852.3046
345.8834, 863.7659
346.3655, 878.3750
346.8476, 890.6296
347.3297, 900.4390
347.8119, 909.2853
348.2940, 918.1327
348.7761, 927.0179
349.2582, 935.5600
349.7403, 942.3837
350.2225, 950.3396
350.7046, 963.3640
351.1867, 981.3708
351.6688, 1002.808
352.1509, 1030.228
352.6331, 1059.467
353.1152, 1083.919
353.5973, 1100.712
354.0794, 1115.033
354.5615, 1129.906
355.0436, 1145.772
355.5258, 1163.970
356.0079, 1187.038
356.4900, 1211.759
356.9721, 1234.421
357.4542, 1252.817
357.9363, 1274.710
358.4185, 1307.221
358.9006, 1345.885
359.3827, 1382.973
359.8648, 1414.053
360.3469, 1443.906
360.8290, 1473.711
361.3112, 1503.077
361.7933, 1537.145
362.2754, 1582.861
362.7575, 1632.383
363.2396, 1677.378
363.7217, 1713.367
364.2039, 1746.635
364.6860, 1775.949
365.1681, 1801.447
365.6502, 1833.760
366.1323, 1880.749
366.6144, 1931.116
367.0966, 1977.330
367.5787, 2024.911
368.0608, 2060.427
368.5429, 2075.755
369.0250, 2076.086
369.5071, 2088.003
369.9893, 2119.575
370.4714, 2153.224
370.9535, 2180.746
371.4356, 2200.237
371.9177, 2217.230
372.3998, 2231.445
372.8820, 2243.417
373.3641, 2253.915
373.8462, 2262.438
374.3283, 2270.789
374.8104, 2280.827
375.2925, 2293.352
375.7747, 2297.487
376.2568, 2290.217
376.7389, 2280.600
377.2210, 2282.080
377.7031, 2295.471
378.1852, 2308.380
378.6674, 2318.010
379.1495, 2324.102
379.6316, 2324.892
380.1137, 2319.963
380.5958, 2313.465
381.0779, 2308.500
381.5601, 2305.047
382.0422, 2303.905
382.5243, 2307.065
383.0064, 2310.209
383.4885, 2307.440
383.9706, 2298.659
384.4528, 2283.405
384.9349, 2258.641
385.4170, 2227.778
385.8991, 2195.593
386.3812, 2162.141
386.8633, 2128.543
387.3455, 2098.505
387.8276, 2069.319
388.3097, 2034.175
388.7918, 1982.875
389.2739, 1928.926
389.7560, 1884.525
390.2382, 1851.446
390.7203, 1817.698
391.2024, 1777.373
391.6845, 1732.813
392.1666, 1686.146
392.6487, 1631.871
393.1309, 1581.731
393.6130, 1543.331
394.0951, 1515.453
394.5772, 1485.598
395.0593, 1448.732
395.5414, 1410.011
396.0236, 1373.001
396.5057, 1340.331
396.9878, 1306.680
397.4699, 1270.616
397.9520, 1233.225
398.4341, 1198.213
398.9163, 1164.909
399.3984, 1134.734
399.8805, 1108.624
400.3626, 1088.064
400.8447, 1067.048
401.3268, 1044.407
401.8090, 1022.202
402.2911, 1003.205
402.7732, 988.7199
403.2553, 974.4346
403.7374, 958.6093
404.2195, 941.5087
404.7017, 928.6247
405.1838, 921.1257
405.6659, 914.5723
406.1480, 904.7984
406.6301, 891.7225
407.1122, 878.4973
407.5944, 865.5983
408.0765, 852.9138
408.5586, 840.7795
409.0407, 829.1237
409.5228, 816.6227
410.0049, 800.5870
410.4871, 783.1197
410.9692, 770.4194
411.4513, 763.6935
411.9334, 759.3015
412.4155, 754.8685
412.8976, 749.5256
413.3798, 741.0742
413.8619, 722.5486
414.3440, 703.7223
414.8261, 697.0067
415.3082, 702.5505
415.7903, 706.9621
416.2725, 699.9945
416.7546, 687.6133
417.2367, 676.3579
417.7188, 668.9758
418.2009, 662.6440
418.6830, 655.6572
419.1652, 648.5635
419.6473, 643.6518
420.1294, 643.9449
420.6115, 644.9004
421.0937, 644.2670
421.5758, 642.1629
422.0579, 637.5640
422.5400, 627.2198
423.0221, 614.9382
423.5042, 606.7812
423.9864, 605.7147
424.4685, 605.7695
424.9506, 606.3089
425.4327, 607.5333
425.9148, 606.3818
426.3969, 601.6869
426.8791, 595.9514
427.3612, 591.2486
427.8433, 587.6378
428.3254, 585.0027
428.8075, 583.7345
429.2896, 583.2924
429.7718, 581.8607
430.2539, 579.3445
430.7360, 576.3629
431.2181, 572.7303
431.7002, 568.5984
432.1823, 566.7066
432.6645, 567.7630
433.1466, 569.1467
433.6287, 566.9473
434.1108, 561.7516
434.5929, 556.3673
435.0750, 551.0735
435.5572, 546.7392
436.0393, 545.0596
436.5214, 545.9824
437.0035, 548.4022
437.4856, 553.0395
437.9677, 558.1531
438.4499, 561.2484
438.9320, 561.3183
439.4141, 559.8600
439.8962, 556.6866
440.3783, 552.7034
440.8604, 550.1508
441.3426, 552.1607
441.8247, 554.2952
442.3068, 553.0343
442.7889, 546.5858
443.2710, 543.5943
443.7531, 551.8804
444.2353, 562.6437
444.7174, 566.2935
445.1995, 553.3376
445.6816, 542.0261
446.1637, 535.3452
446.6458, 533.0677
447.1280, 532.5743
447.6101, 535.8231
448.0922, 538.6981
448.5743, 538.6644
449.0564, 534.1458
449.5385, 530.8727
450.0207, 529.0671
450.5028, 528.5042
450.9849, 529.1658
451.4670, 531.3935
451.9491, 533.0998
452.4312, 533.6006
452.9134, 532.9094
453.3955, 530.6927
453.8776, 526.7060
454.3597, 522.9893
454.8418, 520.5417
455.3239, 519.8141
455.8061, 523.8991
456.2882, 536.8795
456.7703, 549.7372
457.2524, 546.5898
457.7345, 530.9963
458.2166, 517.3781
458.6988, 516.7333
459.1809, 521.4402
459.6630, 523.3987
460.1451, 521.5113
460.6272, 518.9741
461.1093, 516.8678
461.5915, 515.5844
462.0736, 515.6687
462.5557, 520.0385
463.0378, 523.1200
463.5199, 522.0776
464.0020, 517.4456
464.4842, 513.3412
464.9663, 508.5493
465.4484, 506.0732
465.9305, 507.9842
466.4126, 520.3386
466.8947, 526.3583
467.3769, 521.8936
467.8590, 512.9160
468.3411, 509.4181
468.8232, 514.3798
469.3053, 518.9757
469.7874, 520.8740
470.2696, 520.2089
470.7517, 519.4761
471.2338, 518.7917
471.7159, 517.6962
472.1980, 515.1723
472.6801, 511.2868
473.1623, 509.1777
473.6444, 509.2617
474.1265, 511.3066
474.6086, 515.7322
475.0907, 522.1810
475.5728, 528.3399
476.0550, 534.3655
476.5371, 538.8525
477.0192, 538.0577
477.5013, 531.7832
477.9834, 526.2855
478.4655, 528.4832
478.9477, 533.7082
479.4298, 535.6016
479.9119, 528.6190
480.3940, 522.5222
480.8761, 523.6031
481.3582, 529.7625
481.8404, 534.9803
482.3225, 535.4969
482.8046, 536.1100
483.2867, 539.4551
483.7688, 547.0035
484.2509, 552.9330
484.7331, 556.0615
485.2152, 557.6837
485.6973, 559.0377
486.1794, 560.3659
486.6615, 560.8698
487.1436, 559.5294
487.6258, 557.2338
488.1079, 558.5929
488.5900, 564.6436
489.0721, 571.4814
489.5542, 576.5936
490.0363, 579.9712
490.5185, 585.1433
491.0006, 592.1968
491.4827, 600.9155
491.9648, 612.3745
492.4470, 625.7895
492.9291, 636.4884
493.4112, 641.3973
493.8933, 643.7819
494.3754, 646.9571
494.8575, 651.3412
495.3397, 659.3582
495.8218, 676.4017
496.3039, 696.2356
496.7860, 711.2296
497.2681, 719.1328
497.7502, 727.5811
498.2324, 740.1368
498.7145, 755.8799
499.1966, 773.8109
499.6787, 796.7579
500.1608, 818.5414
500.6429, 836.5577
501.1251, 851.0551
501.6072, 866.5043
502.0893, 884.0281
502.5714, 902.0604
503.0535, 920.2394
503.5356, 939.9512
504.0178, 956.4563
504.4999, 969.6747
504.9820, 979.5822
505.4641, 987.3416
505.9462, 994.0291
506.4283, 992.6639
506.9105, 979.3224
507.3926, 956.8032
507.8747, 935.3145
508.3568, 914.7457
508.8389, 895.9440
509.3210, 879.4940
509.8032, 864.9985
510.2853, 851.6415
510.7674, 839.7518
511.2495, 827.1435
511.7316, 810.6570
512.2137, 791.7713
512.6959, 773.7741
513.1780, 758.0891
513.6601, 743.5027
514.1422, 728.5454
514.6243, 713.6069
515.1064, 701.3509
515.5886, 696.9056
516.0707, 692.5649
516.5528, 682.9804
517.0349, 662.5018
517.5170, 647.0290
517.9991, 641.8272
518.4813, 641.0725
518.9634, 637.4612
519.4455, 628.6451
519.9276, 620.9944
520.4097, 615.8137
520.8918, 612.9238
521.3740, 610.4475
521.8561, 608.1120
522.3382, 607.0948
522.8203, 608.4688
523.3024, 612.1087
523.7845, 617.3112
524.2667, 625.2079
524.7488, 630.1984
525.2309, 621.6752
525.7130, 603.7573
526.1951, 590.9666
526.6772, 589.5417
527.1594, 594.3845
527.6415, 602.6287
528.1236, 612.9628
528.6057, 619.7691
529.0878, 616.5494
529.5699, 610.6486
530.0521, 607.8873
530.5342, 609.8558
531.0163, 611.0096
531.4984, 608.1924
531.9805, 604.2596
532.4626, 602.2352
532.9448, 601.8146
533.4269, 604.2765
533.9090, 610.8810
534.3911, 620.5925
534.8732, 629.5099
535.3553, 638.9418
535.8375, 645.2092
536.3196, 645.1334
536.8017, 638.1726
537.2838, 636.9336
537.7659, 642.4436
538.2480, 650.2658
538.7302, 655.6376
539.2123, 658.9960
539.6944, 663.5171
540.1765, 671.1316
540.6586, 677.9301
541.1407, 675.9212
541.6229, 667.8030
542.1050, 663.2303
542.5871, 671.3562
543.0692, 682.7463
543.5513, 688.1727
544.0334, 687.1606
544.5156, 687.2759
544.9977, 694.7189
545.4798, 703.2159
545.9619, 707.2289
546.4440, 696.5793
546.9261, 695.0372
547.4083, 714.0958
547.8904, 742.7429
548.3725, 760.5737
548.8546, 761.0876
549.3367, 761.5122
549.8188, 765.0651
550.3010, 771.8389
550.7831, 784.5823
551.2652, 805.6970
551.7473, 824.8182
552.2294, 831.4184
552.7115, 827.2951
553.1937, 831.3417
553.6758, 846.3824
554.1579, 864.0750
554.6400, 872.3578
555.1221, 874.7616
555.6042, 881.4208
556.0864, 899.5630
556.5685, 919.9826
557.0506, 933.8752
557.5327, 942.4493
558.0148, 949.9258
558.4969, 957.8889
558.9791, 965.7766
559.4612, 972.9579
559.9433, 979.0451
560.4254, 985.9905
560.9075, 996.1689
561.3896, 1006.174
561.8718, 1013.223
562.3539, 1016.694
562.8360, 1018.200
563.3181, 1017.562
563.8002, 1015.163
564.2823, 1011.352
564.7645, 1005.585
565.2466, 1001.152
565.7287, 1001.005
566.2108, 1003.409
566.6929, 999.4802
567.1750, 989.1228
567.6572, 975.3077
568.1393, 957.2448
568.6214, 938.2216
569.1035, 926.6638
569.5856, 925.4454
570.0677, 924.8376
570.5499, 915.8112
571.0320, 902.2057
571.5141, 890.0551
571.9962, 882.0342
572.4783, 875.4177
572.9604, 869.1369
573.4426, 863.3811
573.9247, 859.0560
574.4068, 858.9593
574.8889, 857.8942
575.3710, 853.0073
575.8531, 842.7476
576.3353, 837.9435
576.8174, 842.4046
577.2995, 846.7379
577.7816, 839.1937
578.2637, 817.9016
578.7458, 806.6684
579.2280, 811.9326
579.7101, 823.2139
580.1922, 821.4607
580.6743, 808.4738
581.1564, 794.4256
581.6385, 781.6548
582.1207, 771.7274
582.6028, 769.6567
583.0849, 774.1961
583.5670, 775.4695
584.0491, 764.0936
584.5313, 749.3975
585.0134, 738.6375
585.4955, 733.8458
585.9776, 730.0031
586.4597, 725.2510
586.9418, 721.1070
587.4240, 719.5724
587.9061, 725.1533
588.3882, 726.2934
588.8703, 720.7230
589.3524, 710.2047
589.8345, 699.5873
590.3167, 688.7384
590.7988, 678.1637
591.2809, 667.6190
591.7630, 657.5407
592.2451, 651.4506
592.7272, 649.4854
593.2094, 648.1660
593.6915, 643.0703
594.1736, 636.8705
594.6557, 636.2162
595.1378, 644.0877
595.6199, 649.3508
596.1021, 640.1843
596.5842, 624.0436
597.0663, 611.5125
597.5485, 609.9115
598.0306, 608.6536
598.5127, 604.5428
598.9948, 598.0489
599.4769, 591.2881
599.9590, 583.0641
600.4412, 576.0942
600.9233, 571.3522
601.4054, 568.8839
601.8875, 568.0160
602.3696, 569.7713
602.8517, 570.6168
603.3339, 566.7650
603.8160, 558.6148
604.2981, 551.7037
604.7802, 546.8085
605.2623, 542.8975
605.7444, 538.8999
606.2266, 534.8631
606.7087, 531.1511
607.1908, 528.6300
607.6729, 525.6270
608.1550, 519.0522
608.6371, 510.5702
609.1193, 505.3627
609.6014, 508.6214
610.0835, 513.0323
610.5656, 515.7981
611.0477, 516.9022
611.5298, 514.4975
612.0120, 503.4021
612.4941, 493.9583
612.9762, 494.6434
613.4583, 510.4232
613.9404, 517.6329
614.4225, 513.1215
614.9047, 503.6565
615.3868, 498.4706
615.8689, 497.2800
616.3510, 496.9583
616.8331, 496.7412
617.3152, 496.7206
617.7974, 497.3849
618.2795, 498.4655
618.7616, 498.9606
619.2437, 498.2699
619.7258, 496.8220
620.2079, 494.4615
620.6901, 491.2263
621.1722, 488.8822
621.6543, 486.1325
622.1364, 485.8169
622.6185, 490.5991
623.1006, 505.6371
623.5828, 514.4258
624.0649, 515.0086
624.5470, 511.1355
625.0291, 507.0232
625.5112, 502.7612
625.9933, 497.3029
626.4755, 489.3799
626.9576, 481.7074
627.4397, 481.5545
627.9218, 487.9113
628.4039, 493.0705
628.8860, 490.7661
629.3682, 486.3773
629.8503, 488.7321
630.3324, 496.7820
630.8145, 502.4184
631.2966, 497.7820
631.7787, 491.1711
632.2609, 488.8938
632.7430, 493.1732
633.2251, 496.1743
633.7072, 495.4122
634.1893, 493.3383
634.6714, 492.2585
635.1536, 494.2950
635.6357, 491.8844
636.1178, 481.7285
636.5999, 469.8096
637.0820, 467.7686
637.5641, 475.9531
638.0463, 486.7113
638.5284, 500.2162
639.0105, 512.5392
639.4926, 513.8246
639.9747, 505.7972
640.4568, 498.4740
640.9390, 501.0727
641.4211, 505.0641
641.9032, 500.1133
642.3853, 485.5493
642.8674, 476.2202
643.3495, 483.2920
643.8317, 494.1902
644.3138, 499.9858
644.7959, 494.8246
645.2780, 494.3003
645.7601, 502.5125
646.2422, 511.7644
646.7244, 512.0563
647.2065, 501.3290
647.6886, 492.0186
648.1707, 485.8481
648.6528, 482.8982
649.1349, 484.9674
649.6171, 491.2617
650.0992, 496.2166
650.5813, 495.7433
651.0634, 493.4409
651.5455, 493.2326
652.0276, 495.0144
652.5098, 498.2515
652.9919, 508.0691
653.4740, 515.0615
653.9561, 510.5771
654.4382, 490.5796
654.9203, 479.0992
655.4025, 485.2315
655.8846, 495.7180
656.3667, 502.0656
656.8488, 503.2875
657.3309, 503.2404
657.8130, 501.9272
658.2952, 499.6302
658.7773, 495.2478
659.2594, 489.2357
659.7415, 488.1608
660.2236, 495.9016
660.7057, 505.7440
661.1879, 506.8359
661.6700, 501.9619
662.1521, 498.8653
662.6342, 502.6385
663.1163, 508.2321
663.5984, 513.0341
664.0806, 516.9856
664.5627, 520.4260
665.0448, 524.0633
665.5269, 526.5443
666.0090, 527.2180
666.4911, 525.9003
666.9733, 523.5850
667.4554, 518.8149
667.9375, 515.9371
668.4196, 520.4494
668.9017, 531.9893
669.3839, 537.8928
669.8660, 536.2172
670.3481, 532.6459
670.8302, 535.3597
671.3123, 541.0248
671.7944, 541.7974
672.2766, 531.1030
672.7587, 521.6539
673.2408, 523.9645
673.7229, 533.1956
674.2050, 539.9011
674.6871, 540.7801
675.1693, 539.5130
675.6514, 534.4868
676.1335, 527.3989
676.6156, 528.1198
677.0977, 540.4956
677.5798, 551.9427
678.0620, 556.8904
678.5441, 555.8636
679.0262, 552.7200
679.5083, 547.2708
679.9904, 542.3738
680.4725, 539.3706
680.9547, 538.7371
681.4368, 542.7761
681.9189, 552.4135
682.4010, 560.0286
682.8831, 558.3203
683.3652, 552.9856
683.8474, 549.7787
684.3295, 551.4502
684.8116, 552.9509
685.2937, 552.3450
685.7758, 551.7243
686.2579, 554.3317
686.7401, 562.2303
687.2222, 567.3311
687.7043, 566.9295
688.1864, 564.0590
688.6685, 567.6000
689.1506, 576.9888
689.6328, 583.0740
690.1149, 579.5358
690.5970, 571.7984
691.0791, 567.0001
691.5612, 565.0280
692.0433, 565.3596
692.5255, 570.7768
693.0076, 575.9251
693.4897, 577.4750
693.9718, 575.0045
694.4539, 570.7444
694.9360, 558.8263
695.4182, 550.9727
695.9003, 555.0855
696.3824, 575.5155
696.8645, 589.1382
697.3466, 595.1549
697.8287, 596.4574
698.3109, 591.0889
698.7930, 582.0955
699.2751, 589.9382
699.7572, 623.6014
700.2393, 654.3161
700.7214, 646.5160
701.2036, 616.2396
701.6857, 590.1315
702.1678, 576.9564
702.6499, 570.3966
703.1320, 571.2241
703.6141, 576.9128
704.0963, 581.0844
704.5784, 582.0878
705.0605, 583.6345
705.5426, 587.3424
706.0247, 592.1423
706.5068, 592.4672
706.9890, 587.7369
707.4711, 583.4144
707.9532, 581.8365
708.4353, 582.8576
708.9174, 587.6576
709.3995, 595.7436
709.8817, 602.0684
710.3638, 600.3593
710.8459, 597.1240
711.3280, 598.9286
711.8101, 607.2323
712.2922, 613.5253
712.7744, 615.0452
713.2565, 613.9899
713.7386, 611.7931
714.2207, 607.6729
714.7028, 603.9782
715.1849, 599.5024
715.6671, 597.5035
716.1492, 604.0388
716.6313, 618.0132
717.1134, 626.5682
717.5955, 626.7737
718.0776, 623.1416
718.5598, 618.0760
719.0419, 613.5729
719.5240, 613.6988
720.0061, 625.3867
720.4882, 635.3163
720.9703, 634.9960
721.4525, 628.6648
721.9346, 625.9799
722.4167, 630.8491
722.8988, 636.1005
723.3809, 640.9232
723.8630, 645.0977
724.3452, 647.6800
724.8273, 648.5913
725.3094, 648.4525
725.7915, 647.4370
726.2736, 645.6091
726.7557, 641.6357
727.2379, 636.1360
727.7200, 633.9880
728.2021, 641.8093
728.6842, 651.8464
729.1663, 657.1043
729.6484, 656.8074
730.1306, 658.2469
730.6127, 667.9178
731.0948, 676.1229
731.5769, 676.8623
732.0590, 667.3354
732.5411, 662.2634
733.0233, 662.5752
733.5054, 665.2576
733.9875, 668.1824
734.4696, 671.2282
734.9517, 672.5947
735.4338, 671.5126
735.9160, 672.2386
736.3981, 681.5116
736.8802, 694.6262
737.3623, 704.4810
737.8444, 707.7222
738.3266, 710.3386
738.8087, 715.1891
739.2908, 720.6327
739.7729, 724.2042
740.2551, 725.2890
740.7372, 725.2241
741.2193, 722.5887
741.7014, 720.1973
742.1835, 726.5443
742.6656, 741.7460
743.1478, 750.4552
743.6299, 744.3124
744.1120, 733.4258
744.5941, 734.5782
745.0762, 744.5997
745.5583, 753.6859
746.0405, 754.5917
746.5226, 755.3992
747.0047, 761.5722
747.4868, 772.0313
747.9689, 779.9105
748.4510, 783.3634
748.9332, 785.3839
749.4153, 786.5903
749.8974, 787.0424
750.3795, 787.1430
750.8616, 786.6768
751.3438, 787.4697
751.8259, 792.6331
752.3080, 799.4957
752.7901, 801.2904
753.2722, 798.0457
753.7543, 793.7350
754.2365, 788.2137
754.7186, 784.6454
755.2007, 785.9727
755.6828, 793.1000
756.1649, 801.6849
756.6470, 813.5710
757.1292, 824.5554
757.6113, 831.7601
758.0934, 834.0573
758.5755, 837.7753
759.0576, 843.2946
759.5397, 849.0884
760.0219, 853.8587
760.5040, 857.6434
760.9861, 860.3582
761.4682, 861.9078
761.9503, 862.7197
762.4324, 860.0715
762.9146, 858.2023
763.3967, 862.5933
763.8788, 881.9141
764.3609, 895.5040
764.8430, 894.6022
765.3251, 889.2782
765.8073, 891.7276
766.2894, 905.0602
766.7715, 913.3705
767.2536, 913.0952
767.7357, 909.4102
768.2178, 910.8271
768.7000, 916.4345
769.1821, 922.3580
769.6642, 927.2396
770.1463, 932.2211
770.6284, 937.1116
771.1105, 942.9646
771.5927, 951.8165
772.0748, 968.9307
772.5569, 983.7563
773.0390, 993.0347
773.5211, 998.4550
774.0032, 1003.589
774.4854, 1007.921
774.9675, 1014.018
775.4496, 1023.151
775.9317, 1034.100
776.4138, 1042.625
776.8959, 1049.598
777.3781, 1060.152
777.8602, 1080.298
778.3423, 1102.466
778.8244, 1120.391
779.3065, 1134.914
779.7886, 1149.932
780.2708, 1173.861
780.7529, 1190.318
781.2350, 1189.602
781.7171, 1174.845
782.1992, 1176.215
782.6813, 1195.959
783.1635, 1222.947
783.6456, 1255.727
784.1277, 1290.674
784.6098, 1314.106
785.0919, 1327.264
785.5740, 1343.282
786.0562, 1372.759
786.5383, 1407.463
787.0204, 1439.951
787.5025, 1470.040
787.9846, 1503.076
788.4667, 1541.332
788.9489, 1581.882
789.4310, 1624.441
789.9131, 1668.822
790.3952, 1712.105
790.8773, 1753.680
791.3594, 1795.388
791.8416, 1835.666
792.3237, 1877.094
792.8058, 1926.659
793.2879, 1985.061
793.7700, 2048.541
794.2521, 2109.944
794.7343, 2178.589
795.2164, 2262.140
795.6985, 2364.836
796.1806, 2472.384
796.6627, 2583.010
797.1448, 2698.808
797.6270, 2819.787
798.1091, 2945.696
798.5912, 3074.299
799.0733, 3203.569
799.5554, 3353.520
800.0375, 3548.693
800.5197, 3775.002
801.0018, 4009.239
801.4839, 4247.446
801.9660, 4490.102
802.4481, 4721.402
802.9302, 4967.233
803.4124, 5250.114
803.8945, 5583.452
804.3766, 5934.340
804.8587, 6304.388
805.3408, 6689.500
805.8229, 7083.252
806.3051, 7485.754
806.7872, 7919.874
807.2693, 8393.568
807.7514, 8871.211
808.2335, 9313.519
808.7156, 9742.854
809.1978, 10202.44
809.6799, 10721.95
810.1620, 11201.68
810.6441, 11588.36
811.1262, 11922.74
811.6083, 12244.61
812.0905, 12586.57
812.5726, 12853.83
813.0547, 13042.45
813.5368, 13155.63
814.0189, 13194.80
814.5010, 13160.36
814.9832, 13046.47
815.4653, 12844.96
815.9474, 12601.44
816.4295, 12348.05
816.9116, 12079.79
817.3937, 11786.85
817.8759, 11453.10
818.3580, 11126.88
818.8401, 10822.28
819.3222, 10530.31
819.8043, 10237.89
820.2864, 9939.315
820.7686, 9668.760
821.2507, 9436.476
821.7328, 9217.652
822.2149, 8976.116
822.6970, 8726.966
823.1791, 8504.422
823.6613, 8319.909
824.1434, 8158.006
824.6255, 8019.943
825.1076, 7895.520
825.5897, 7775.708
826.0718, 7651.218
826.5540, 7541.302
827.0361, 7446.395
827.5182, 7363.608
828.0003, 7288.830
828.4824, 7222.624
828.9645, 7161.312
829.4467, 7103.584
829.9288, 7055.736
830.4109, 7036.837
830.8930, 7028.890
831.3751, 7002.417
831.8572, 6942.171
832.3394, 6880.982
832.8215, 6817.914
833.3036, 6766.344
833.7857, 6742.410
834.2678, 6762.957
834.7499, 6763.725
835.2321, 6741.167
835.7142, 6697.436
836.1963, 6624.873
836.6784, 6531.836
837.1605, 6454.643
837.6426, 6405.568
838.1248, 6351.362
838.6069, 6260.136
839.0890, 6152.605
839.5711, 6053.260
840.0532, 5977.347
840.5353, 5890.577
841.0175, 5789.326
841.4996, 5678.219
841.9817, 5561.922
842.4638, 5439.789
842.9459, 5319.239
843.4280, 5202.886
843.9102, 5078.142
844.3923, 4917.206
844.8744, 4742.577
845.3565, 4596.327
845.8386, 4494.565
846.3207, 4388.016
846.8029, 4250.995
847.2850, 4104.168
847.7671, 3965.273
848.2492, 3836.296
848.7313, 3710.531
849.2134, 3588.807
849.6956, 3470.476
850.1777, 3350.372
850.6598, 3232.003
851.1419, 3130.276
851.6240, 3047.900
852.1061, 2968.818
852.5883, 2885.321
853.0704, 2795.656
853.5525, 2693.112
854.0346, 2566.565
854.5167, 2463.951
854.9988, 2395.060
855.4810, 2340.377
855.9631, 2289.527
856.4452, 2242.490
856.9273, 2180.852
857.4094, 2103.166
857.8915, 2027.885
858.3737, 1975.813
858.8558, 1934.450
859.3379, 1887.104
859.8200, 1831.562
860.3021, 1780.374
860.7842, 1740.048
861.2664, 1705.364
861.7485, 1675.476
862.2306, 1651.334
862.7127, 1617.673
863.1948, 1571.371
863.6769, 1528.120
864.1591, 1504.328
864.6412, 1490.351
865.1233, 1458.427
865.6054, 1409.214
866.0875, 1366.299
866.5696, 1350.167
867.0518, 1338.906
867.5339, 1317.430
868.0160, 1283.877
868.4981, 1257.719
868.9802, 1242.524
869.4623, 1226.932
869.9445, 1203.319
870.4266, 1175.225
870.9087, 1161.854
871.3908, 1161.649
871.8729, 1159.865
872.3550, 1141.587
872.8372, 1122.608
873.3193, 1119.922
873.8014, 1130.103
874.2835, 1132.363
874.7656, 1114.460
875.2477, 1096.956
875.7299, 1085.171
876.2120, 1077.611
876.6941, 1066.787
877.1762, 1052.745
877.6583, 1043.494
878.1404, 1046.632
878.6226, 1052.231
879.1047, 1045.113
879.5869, 1029.830
880.0690, 1017.933
880.5511, 1017.797
881.0332, 1017.073
881.5153, 1012.735
881.9974, 1005.324
882.4796, 993.6755
882.9617, 975.5405
883.4438, 966.9132
883.9259, 974.1129
884.4080, 987.4200
884.8901, 993.4036
885.3723, 993.2841
885.8544, 989.7944
886.3365, 983.2281
886.8186, 974.5520
887.3007, 959.9951
887.7828, 945.4597
888.2650, 939.7797
888.7471, 947.9662
889.2292, 951.1591
889.7113, 946.1573
890.1934, 939.5907
890.6755, 941.5035
891.1577, 948.9846
891.6398, 951.6555
892.1219, 946.0454
892.6040, 943.5056
893.0861, 960.8421
893.5682, 979.7523
894.0504, 981.3329
894.5325, 952.2104
895.0146, 933.5360
895.4967, 928.4038
895.9788, 928.0161
896.4609, 924.3214
896.9431, 918.5791
897.4252, 920.4153
897.9073, 930.4366
898.3894, 939.6164
898.8715, 940.4722
899.3536, 938.1313
899.8358, 935.7770
900.3179, 933.4809
900.8000, 936.0460
901.2821, 949.3467
901.7642, 959.3173
902.2463, 958.5200
902.7285, 948.5352
903.2106, 940.3997
903.6927, 934.1682
904.1748, 930.1450
904.6569, 930.5837
905.1390, 931.7255
905.6212, 928.0975
906.1033, 921.3674
906.5854, 918.8047
907.0675, 927.0427
907.5496, 934.2125
908.0317, 936.8973
908.5139, 936.8203
908.9960, 939.9506
909.4781, 946.2950
909.9602, 950.3144
910.4423, 948.1512
910.9244, 945.7917
911.4066, 952.5002
911.8887, 963.8699
912.3708, 971.8772
912.8529, 969.7289
913.3350, 969.1083
913.8171, 972.2474
914.2993, 977.7513
914.7814, 983.6638
915.2635, 989.8401
915.7456, 999.4182
916.2277, 1013.970
916.7098, 1027.106
917.1920, 1027.177
917.6741, 1022.556
918.1562, 1026.776
918.6383, 1045.779
919.1204, 1061.838
919.6025, 1067.050
920.0847, 1069.511
920.5668, 1073.141
921.0489, 1076.909
921.5310, 1092.641
922.0131, 1122.051
922.4952, 1148.658
922.9774, 1157.123
923.4595, 1155.193
923.9416, 1152.562
924.4237, 1150.099
924.9058, 1149.848
925.3879, 1152.612
925.8701, 1157.931
926.3522, 1165.990
926.8343, 1176.484
927.3164, 1187.250
927.7985, 1198.619
928.2806, 1207.582
928.7628, 1210.993
929.2449, 1212.756
929.7270, 1219.598
930.2091, 1229.899
930.6912, 1239.473
931.1733, 1249.764
931.6555, 1255.205
932.1376, 1251.649
932.6197, 1243.216
933.1018, 1235.567
933.5839, 1228.205
934.0660, 1225.504
934.5482, 1229.129
935.0303, 1234.808
935.5124, 1238.860
935.9945, 1240.589
936.4766, 1238.243
936.9587, 1229.530
937.4409, 1222.011
937.9230, 1219.953
938.4051, 1218.546
938.8872, 1212.921
939.3693, 1200.870
939.8514, 1199.772
940.3336, 1211.375
940.8157, 1221.186
941.2978, 1212.129
941.7799, 1196.219
942.2620, 1192.541
942.7441, 1201.489
943.2263, 1208.121
943.7084, 1205.104
944.1905, 1200.053
944.6726, 1196.311
945.1547, 1193.322
945.6368, 1185.494
946.1190, 1172.089
946.6011, 1166.021
947.0832, 1179.092
947.5653, 1195.947
948.0474, 1193.943
948.5295, 1179.757
949.0117, 1168.924
949.4938, 1171.599
949.9759, 1171.931
950.4580, 1165.153
950.9401, 1155.864
951.4222, 1151.731
951.9044, 1152.857
952.3865, 1151.088
952.8686, 1144.356
953.3507, 1138.233
953.8328, 1140.779
954.3149, 1146.466
954.7971, 1148.367
955.2792, 1144.632
955.7613, 1138.796
956.2434, 1128.218
956.7255, 1119.640
957.2076, 1118.220
957.6898, 1123.680
958.1719, 1125.678
958.6540, 1124.272
959.1361, 1122.386
959.6182, 1121.909
960.1003, 1121.959
960.5825, 1122.334
961.0646, 1122.707
961.5467, 1121.297
962.0288, 1115.972
962.5109, 1111.548
962.9930, 1108.935
963.4752, 1108.170
963.9573, 1112.183
964.4394, 1119.317
964.9215, 1118.280
965.4036, 1100.000
965.8857, 1083.240
966.3679, 1088.667
966.8500, 1102.337
967.3321, 1105.695
967.8142, 1088.543
968.2963, 1074.151
968.7784, 1061.461
969.2606, 1054.090
969.7427, 1060.968
970.2248, 1076.511
970.7069, 1078.050
971.1890, 1064.059
971.6711, 1051.410
972.1533, 1053.113
972.6354, 1058.359
973.1175, 1060.360
973.5996, 1058.822
974.0817, 1056.852
974.5638, 1054.325
975.0460, 1051.682
975.5281, 1048.291
976.0102, 1045.627
976.4923, 1049.932
976.9744, 1057.816
977.4565, 1059.330
977.9387, 1041.369
978.4208, 1026.557
978.9029, 1027.249
979.3850, 1033.504
979.8671, 1030.791
980.3492, 1016.576
980.8314, 1008.846
981.3135, 1010.286
981.7956, 1015.068
982.2777, 1018.089
982.7598, 1019.758
983.2419, 1020.393
983.7241, 1019.890
984.2062, 1019.687
984.6883, 1018.882
985.1704, 1020.105
985.6525, 1026.699
986.1346, 1037.338
986.6168, 1035.608
987.0989, 1021.929
987.5810, 1009.418
988.0631, 1008.041
988.5452, 1009.224
989.0273, 1003.472
989.5095, 993.9123
989.9916, 988.8619
990.4737, 996.6658
990.9558, 997.5773
991.4379, 985.7944
991.9200, 971.2223
992.4022, 970.6855
992.8843, 981.2160
993.3664, 991.2888
993.8485, 999.5618
994.3306, 1001.709
994.8127, 988.5245
995.2949, 972.0673
995.7770, 963.3411
996.2591, 963.9220
996.7412, 964.4478
997.2233, 965.1283
997.7054, 964.9556
998.1876, 961.4534
998.6697, 957.4224
999.1518, 961.3645
999.6339, 970.8847
1000.116, 976.4715
1000.598, 969.7875
1001.080, 963.2211
1001.562, 962.6839
1002.044, 964.1981
1002.527, 959.4739
1003.009, 947.8912
1003.491, 939.6988
1003.973, 937.1670
1004.455, 937.2287
1004.937, 937.5513
1005.419, 938.0250
1005.901, 938.9000
1006.384, 940.9138
1006.866, 940.1942
1007.348, 935.8178
1007.830, 929.5552
1008.312, 920.8754
1008.794, 910.9786
1009.276, 906.5354
1009.758, 907.4794
1010.240, 912.8963
1010.723, 929.5021
1011.205, 943.2618
1011.687, 941.7313
1012.169, 930.7634
1012.651, 927.5583
1013.133, 937.7603
1013.615, 939.2453
1014.097, 926.7114
1014.580, 909.8007
1015.062, 900.1711
1015.544, 896.4645
1016.026, 897.5551
1016.508, 904.5312
1016.990, 908.4764
1017.472, 900.8956
1017.954, 893.9357
1018.436, 895.7748
1018.919, 905.7577
1019.401, 909.8152
1019.883, 907.9410
1020.365, 902.3351
1020.847, 888.7205
1021.329, 876.5872
1021.811, 880.2618
1022.293, 892.5454
1022.776, 895.3058
1023.258, 871.1583
1023.740, 861.7154
1024.222, 875.9843
1024.704, 897.9816
1025.186, 906.7008
1025.668, 904.6213
1026.150, 898.8365
1026.632, 890.0541
1027.115, 881.6505
1027.597, 873.9313
1028.079, 868.8282
1028.561, 868.3426
1029.043, 872.1588
1029.525, 875.4894
1030.007, 878.3235
1030.489, 880.4342
1030.972, 882.5204
1031.454, 882.8884
1031.936, 877.7157
1032.418, 869.1863
1032.900, 862.0701
1033.382, 859.0772
1033.864, 855.5490
1034.346, 849.2790
1034.828, 844.5220
1035.311, 848.4616
1035.793, 859.1435
1036.275, 861.9431
1036.757, 855.6655
1037.239, 850.4036
1037.721, 856.2406
1038.203, 863.1381
1038.685, 862.8391
1039.167, 856.1299
1039.650, 854.0054
1040.132, 857.7868
1040.614, 860.2790
1041.096, 858.3132
1041.578, 855.0479
1042.060, 857.4886
1042.542, 861.8915
1043.024, 860.5960
1043.507, 845.4725
1043.989, 836.4814
1044.471, 839.9780
1044.953, 847.2184
1045.435, 851.4954
1045.917, 853.1420
1046.399, 858.2466
1046.881, 866.5705
1047.364, 871.5414
1047.846, 865.1257
1048.328, 857.1523
1048.810, 855.2761
1049.292, 857.8183
1049.774, 855.9587
1050.256, 847.5732
1050.738, 842.3427
1051.220, 842.7631
1051.703, 845.5239
1052.185, 845.1166
1052.667, 843.9942
1053.149, 848.0823
1053.631, 861.3151
1054.113, 866.1311
1054.595, 847.5958
1055.077, 831.4849
1055.559, 833.2985
1056.042, 849.4065
1056.524, 853.9637
1057.006, 848.2208
1057.488, 842.4092
1057.970, 843.0980
1058.452, 844.4398
1058.934, 841.0640
1059.416, 836.3818
1059.899, 837.3064
1060.381, 846.4459
1060.863, 852.0481
1061.345, 852.8036
1061.827, 851.5222
1062.309, 850.0014
1062.791, 848.8826
1063.273, 850.0778
1063.755, 853.6027
1064.238, 854.4139
1064.720, 847.4431
1065.202, 842.4365
1065.684, 842.8582
1066.166, 846.7506
1066.648, 849.2211
1067.130, 850.3049
1067.612, 850.3036
1068.094, 849.1165
1068.577, 847.3173
1069.059, 843.7972
1069.541, 840.8489
1070.023, 841.4048
1070.505, 847.0110
1070.987, 845.6893
1071.469, 836.5662
1071.951, 828.9000
1072.434, 830.7544
1072.916, 836.3124
1073.398, 839.9757
1073.880, 841.5292
1074.362, 840.5955
1074.844, 833.2045
1075.326, 830.8202
1075.808, 838.1059
1076.291, 845.0529
1076.773, 830.7390
1077.255, 805.2419
1077.737, 801.2185
1078.219, 824.4375
1078.701, 844.8524
1079.183, 845.7903
1079.665, 840.7933
1080.147, 834.4639
1080.630, 828.3454
1081.112, 835.4633
1081.594, 855.0968
1082.076, 863.9825
1082.558, 847.6095
1083.040, 828.2903
1083.522, 827.6498
1084.004, 835.4445
1084.486, 837.5031
1084.969, 828.3845
1085.451, 825.2095
1085.933, 829.0750
1086.415, 834.8365
1086.897, 840.4651
1087.379, 844.4153
1087.861, 843.5575
1088.343, 838.4399
1088.826, 831.5910
1089.308, 819.4585
1089.790, 812.0387
1090.272, 812.1387
1090.754, 816.3069
1091.236, 819.8941
1091.718, 822.9001
1092.200, 825.6161
1092.682, 828.1606
1093.165, 828.9999
1093.647, 827.5104
1094.129, 823.5186
1094.611, 814.3593
1095.093, 801.8777
1095.575, 801.5190
1096.057, 813.9229
1096.539, 821.9400
1097.022, 816.3475
1097.504, 809.3090
1097.986, 816.5811
1098.468, 828.8212
1098.950, 832.3887
1099.432, 819.8372
1099.914, 813.5161
1100.396, 814.6884
1100.879, 818.3052
1101.361, 821.0096
1101.843, 823.5551
1102.325, 829.4492
1102.807, 836.9078
1103.289, 839.2133
1103.771, 828.2206
1104.253, 819.6089
1104.735, 817.3834
1105.218, 816.8454
1105.700, 807.3488
1106.182, 792.9973
1106.664, 798.4476
1107.146, 826.8194
1107.628, 848.8112
1108.110, 840.4163
1108.592, 826.7388
1109.074, 821.7283
1109.557, 823.2442
1110.039, 822.1269
1110.521, 818.3215
1111.003, 815.1613
1111.485, 812.9460
1111.967, 813.7826
1112.449, 824.9088
1112.931, 837.1465
1113.414, 838.8939
1113.896, 825.8090
1114.378, 819.6461
1114.860, 821.0311
1115.342, 826.8068
1115.824, 838.6377
1116.306, 850.8707
1116.788, 853.2913
1117.271, 849.1837
1117.753, 845.8895
1118.235, 850.2195
1118.717, 847.4379
1119.199, 832.6375
1119.681, 818.2485
1120.163, 818.6890
1120.645, 829.1220
1121.127, 836.7920
1121.609, 840.8956
1122.092, 840.5309
1122.574, 827.5870
1123.056, 819.6281
1123.538, 824.0994
1124.020, 835.2303
1124.502, 842.2000
1124.984, 845.3327
1125.466, 846.7272
1125.949, 846.3633
1126.431, 847.4708
1126.913, 855.4410
1127.395, 863.0214
1127.877, 864.1304
1128.359, 859.6685
1128.841, 856.4847
1129.323, 854.6021
1129.806, 853.4249
1130.288, 852.5833
1130.770, 852.6738
1131.252, 854.2245
1131.734, 857.1300
1132.216, 861.7618
1132.698, 869.6650
1133.180, 873.3837
1133.662, 872.2726
1134.145, 869.5856
1134.627, 867.6889
1135.109, 865.2757
1135.591, 859.1925
1136.073, 850.9761
1136.555, 844.6821
1137.037, 840.4317
1137.519, 840.9177
1138.001, 849.3182
1138.484, 856.0208
1138.966, 845.6664
1139.448, 827.2347
1139.930, 825.2612
1140.412, 839.1130
1140.894, 850.5236
1141.376, 849.5992
1141.858, 848.3724
1142.341, 850.5883
1142.823, 853.7645
1143.305, 852.8945
1143.787, 848.8652
1144.269, 845.3878
1144.751, 843.0038
1145.233, 842.0837
1145.715, 845.1826
1146.198, 847.3334
1146.680, 845.1899
1147.162, 839.9883
1147.644, 837.7582
1148.126, 838.3026
1148.608, 839.2610
1149.090, 840.5103
1149.572, 840.2793
1150.054, 835.8437
1150.536, 830.2389
1151.019, 825.0905
1151.501, 819.8609
1151.983, 827.2413
1152.465, 848.1267
1152.947, 860.3001
1153.429, 845.3082
1153.911, 823.5441
1154.393, 811.2570
1154.876, 806.7645
1155.358, 808.1948
1155.840, 817.4614
1156.322, 824.7759
1156.804, 829.8926
1157.286, 833.4335
1157.768, 837.6617
1158.250, 839.3674
1158.733, 831.8749
1159.215, 817.9747
1159.697, 808.2001
1160.179, 803.7629
1160.661, 804.9670
1161.143, 813.7722
1161.625, 822.7892
1162.107, 822.3692
1162.589, 816.9280
1163.072, 812.3333
1163.554, 809.3829
1164.036, 812.0292
1164.518, 831.6097
1165.000, 837.5916
1165.482, 816.2858
1165.964, 788.0777
1166.446, 796.8474
1166.928, 825.9622
1167.411, 836.6143
1167.893, 818.9968
1168.375, 802.4171
1168.857, 795.3583
1169.339, 792.6639
1169.821, 794.0614
1170.303, 797.4630
1170.785, 795.7236
1171.268, 790.6711
1171.750, 788.6169
1172.232, 793.1385
1172.714, 796.7370
1173.196, 795.4426
1173.678, 793.1279
1174.160, 791.1727
1174.642, 790.0747
1175.125, 796.6599
1175.607, 808.6262
1176.089, 812.8748
1176.571, 795.7827
1177.053, 779.5508
1177.535, 774.3850
1178.017, 774.3943
1178.499, 774.9191
1178.981, 775.9551
1179.464, 776.2759
1179.946, 776.0184
1180.428, 777.3172
1180.910, 784.2126
1181.392, 790.0701
1181.874, 790.8815
1182.356, 788.6353
1182.838, 786.1292
1183.320, 783.3289
1183.803, 780.2618
1184.285, 776.8682
1184.767, 775.2751
1185.249, 780.2759
1185.731, 784.5512
1186.213, 781.3005
1186.695, 773.4932
1187.177, 770.3096
1187.660, 772.2474
1188.142, 769.2185
1188.624, 758.3475
1189.106, 752.6476
1189.588, 772.6205
1190.070, 795.0938
1190.552, 797.7316
1191.034, 783.5323
1191.516, 781.0061
1191.999, 791.7312
1192.481, 798.4954
1192.963, 795.9147
1193.445, 792.2111
1193.927, 798.5478
1194.409, 805.9149
1194.891, 803.7166
1195.373, 791.0958
1195.855, 782.7913
1196.338, 779.1947
1196.820, 775.9697
1197.302, 770.7721
1197.784, 766.7178
1198.266, 770.7592
1198.748, 776.1263
1199.230, 772.0918
1199.712, 754.5450
1200.195, 750.4648
1200.677, 761.8970
1201.159, 772.4708
1201.641, 772.7717
1202.123, 768.6024
1202.605, 764.6338
1203.087, 761.4442
1203.569, 759.7271
1204.052, 758.3950
1204.534, 763.0453
1205.016, 775.0869
1205.498, 784.8791
1205.980, 785.9832
1206.462, 781.1694
1206.944, 770.0096
1207.426, 756.0297
1207.908, 747.5499
1208.391, 744.6494
1208.873, 749.5533
1209.355, 764.0734
1209.837, 777.4077
1210.319, 778.6493
1210.801, 774.9862
1211.283, 773.7127
1211.765, 774.5321
1212.247, 775.4053
1212.730, 775.6807
1213.212, 778.4676
1213.694, 785.3728
1214.176, 788.4818
1214.658, 773.5640
1215.140, 755.3699
1215.622, 753.0496
1216.104, 764.3032
1216.587, 769.4355
1217.069, 765.0430
1217.551, 762.3616
1218.033, 763.5782
1218.515, 765.3002
1218.997, 762.9349
1219.479, 759.5426
1219.961, 759.0085
1220.443, 761.3691
1220.926, 761.7345
1221.408, 758.4203
1221.890, 759.9506
1222.372, 769.8442
1222.854, 779.7938
1223.336, 778.7177
1223.818, 772.8458
1224.300, 768.9579
1224.782, 767.9546
1225.265, 767.0125
1225.747, 765.8426
1226.229, 765.8417
1226.711, 767.1473
1227.193, 770.5963
1227.675, 780.6724
1228.157, 791.4492
1228.639, 794.6716
1229.122, 788.6045
1229.604, 787.1139
1230.086, 791.4227
1230.568, 791.3325
1231.050, 779.7645
1231.532, 768.7823
1232.014, 777.2034
1232.496, 791.5828
1232.979, 793.8228
1233.461, 780.8395
1233.943, 773.1752
1234.425, 770.9845
1234.907, 773.4868
1235.389, 782.8706
1235.871, 792.6970
1236.353, 796.7128
1236.835, 797.4488
1237.318, 798.3205
1237.800, 799.9904
1238.282, 798.0059
1238.764, 792.1428
1239.246, 787.5989
1239.728, 788.6398
1240.210, 790.5255
1240.692, 787.6633
1241.175, 784.1819
1241.657, 786.4025
1242.139, 796.0587
1242.621, 800.7363
1243.103, 800.4529
1243.585, 796.0594
1244.067, 782.0721
1244.549, 770.6213
1245.031, 771.3762
1245.514, 779.0804
1245.996, 786.2585
1246.478, 793.0639
1246.960, 798.7897
1247.442, 803.3621
1247.924, 805.1251
1248.406, 802.2938
1248.888, 797.0986
1249.370, 787.6581
1249.853, 778.4657
1250.335, 775.3804
1250.817, 778.2808
1251.299, 785.1728
1251.781, 795.3677
1252.263, 800.8016
1252.745, 788.4230
1253.227, 779.8575
1253.710, 790.0222
1254.192, 804.9197
1254.674, 804.6152
1255.156, 792.1300
1255.638, 791.3346
1256.120, 802.4460
1256.602, 810.3726
1257.084, 801.7231
1257.567, 795.1719
1258.049, 798.1735
1258.531, 804.2512
1259.013, 804.1082
1259.495, 799.4007
1259.977, 796.1161
1260.459, 794.5977
1260.941, 792.9615
1261.423, 788.5490
1261.906, 786.6871
1262.388, 789.1725
1262.870, 793.5474
1263.352, 796.3439
1263.834, 798.2417
1264.316, 800.4954
1264.798, 803.2737
1265.280, 807.3605
1265.762, 818.1830
1266.245, 820.8984
1266.727, 810.6844
1267.209, 796.4962
1267.691, 788.2390
1268.173, 785.5416
1268.655, 790.2032
1269.137, 801.5984
1269.619, 807.0782
1270.102, 802.1321
1270.584, 800.9229
1271.066, 807.4906
1271.548, 814.8862
1272.030, 812.2391
1272.512, 806.7342
1272.994, 807.5615
1273.476, 815.0071
1273.958, 820.0394
1274.441, 822.2712
1274.923, 822.2469
1275.405, 819.5713
1275.887, 816.9868
1276.369, 819.9155
1276.851, 822.3189
1277.333, 815.1927
1277.815, 801.2252
1278.297, 800.4661
1278.780, 813.8791
1279.262, 818.6412
1279.744, 808.1048
1280.226, 797.1044
1280.708, 798.2552
1281.190, 802.9077
1281.672, 804.8231
1282.154, 804.9343
1282.637, 806.5225
1283.119, 809.7150
1283.601, 816.4309
1284.083, 827.8943
1284.565, 837.3099
1285.047, 842.9587
1285.529, 841.9273
1286.011, 830.0441
1286.494, 813.4325
1286.976, 812.0399
1287.458, 821.0734
1287.940, 823.1490
1288.422, 813.3896
1288.904, 808.0425
1289.386, 816.1600
1289.868, 826.3750
1290.350, 836.8817
1290.833, 844.7635
1291.315, 841.5314
1291.797, 832.0394
1292.279, 825.9713
1292.761, 825.5208
1293.243, 824.4151
1293.725, 821.4103
1294.207, 818.7133
1294.689, 816.5708
1295.172, 816.1374
1295.654, 819.8020
1296.136, 825.8222
1296.618, 833.3342
1297.100, 842.5092
1297.582, 843.2955
1298.064, 834.2614
1298.546, 825.6774
1299.029, 819.8375
1299.511, 818.4745
1299.993, 827.9001
1300.475, 839.3829
1300.957, 844.1152
##END=



