##NAMES=Fayalite
##RRUFFID=R100103
##IDEAL CHEMISTRY=Fe^2+^_2_SiO_4_
##LOCALITY=Franklin, Sussex County, New Jersey, USA
##OWNER=RRUFF
##SOURCE=American Museum of Natural History
##DESCRIPTION=Dark brown fragment
##STATUS=The identification of this mineral is confirmed by single-crystal X-ray diffraction and chemical analysis.
##URL=rruff.info/R100103
##MEASURED CHEMISTRY=(Fe^+2^_1.908_Mg_0.046_Zn_0.028_Ca_0.009_Mn^+2^_0.006_Ni_0.001_Al_0.001_)_Î£=1.999_Si_1.000_O_4_
152.2799, 69.44268
152.7620, 68.77940
153.2441, 68.50455
153.7263, 68.42413
154.2084, 68.20197
154.6905, 67.66250
155.1726, 66.91846
155.6547, 66.21085
156.1368, 65.56252
156.6190, 64.91585
157.1011, 64.35527
157.5832, 63.77959
158.0653, 62.95869
158.5474, 61.56191
159.0295, 59.66684
159.5117, 58.32147
159.9938, 57.93523
160.4759, 57.75105
160.9580, 57.63137
161.4401, 57.50332
161.9222, 57.25801
162.4044, 56.75666
162.8865, 55.91972
163.3686, 55.28203
163.8507, 54.82655
164.3328, 54.55815
164.8149, 54.50007
165.2971, 54.64483
165.7792, 54.99125
166.2613, 55.61840
166.7434, 56.90430
167.2255, 57.23966
167.7076, 55.78076
168.1898, 54.08937
168.6719, 53.33754
169.1540, 53.73174
169.6361, 54.58046
170.1182, 54.91761
170.6003, 54.48160
171.0825, 54.15586
171.5646, 54.00272
172.0467, 53.96873
172.5288, 54.04890
173.0109, 54.26457
173.4930, 54.46109
173.9752, 54.30230
174.4573, 53.73458
174.9394, 53.28812
175.4215, 53.35707
175.9036, 53.65548
176.3857, 53.46823
176.8679, 52.38878
177.3500, 51.06007
177.8321, 50.40648
178.3142, 50.47701
178.7963, 50.52789
179.2784, 50.02026
179.7606, 49.02999
180.2427, 48.20755
180.7248, 47.76078
181.2069, 47.53413
181.6890, 47.44070
182.1711, 47.48137
182.6533, 47.47715
183.1354, 47.09010
183.6175, 46.20727
184.0996, 45.83960
184.5817, 47.10766
185.0638, 48.42724
185.5460, 48.71841
186.0281, 47.77322
186.5102, 46.41687
186.9923, 45.87172
187.4744, 46.56503
187.9565, 46.93711
188.4387, 46.41526
188.9208, 45.77142
189.4029, 45.63024
189.8850, 46.16389
190.3671, 46.98737
190.8492, 47.39314
191.3314, 47.28931
191.8135, 46.82798
192.2956, 45.43559
192.7777, 44.02262
193.2598, 43.50285
193.7419, 44.21896
194.2241, 45.67976
194.7062, 46.70189
195.1883, 47.09237
195.6704, 47.19423
196.1525, 46.69679
196.6346, 46.01566
197.1168, 45.70655
197.5989, 46.02711
198.0810, 46.68402
198.5631, 46.80957
199.0452, 45.89285
199.5273, 45.15818
200.0095, 44.93962
200.4916, 45.00831
200.9737, 44.94453
201.4558, 44.51587
201.9379, 43.93553
202.4200, 43.88148
202.9022, 44.77870
203.3843, 45.36976
203.8664, 44.88312
204.3485, 43.70061
204.8306, 42.95430
205.3127, 43.32343
205.7949, 44.19993
206.2770, 44.18135
206.7591, 42.85344
207.2412, 41.60816
207.7233, 41.34184
208.2054, 41.91905
208.6876, 42.52014
209.1697, 42.84034
209.6518, 42.99280
210.1339, 43.19998
210.6160, 43.53015
211.0981, 43.73667
211.5803, 43.54850
212.0624, 42.96529
212.5445, 42.38513
213.0266, 41.74503
213.5087, 41.32484
213.9908, 41.51225
214.4730, 42.45882
214.9551, 43.49319
215.4372, 43.87207
215.9193, 43.52497
216.4014, 42.97039
216.8836, 41.92717
217.3657, 40.96711
217.8478, 40.52282
218.3299, 40.70500
218.8120, 41.22130
219.2941, 41.78655
219.7763, 42.54274
220.2584, 42.85399
220.7405, 42.10541
221.2226, 41.20932
221.7047, 40.74150
222.1868, 40.86519
222.6690, 41.44221
223.1511, 42.41097
223.6332, 44.31165
224.1153, 45.32093
224.5974, 44.79515
225.0795, 43.77445
225.5617, 42.88746
226.0438, 42.34499
226.5259, 42.10241
227.0080, 42.11097
227.4901, 42.54022
227.9722, 42.92704
228.4544, 43.35767
228.9365, 43.68773
229.4186, 43.79088
229.9007, 43.63691
230.3828, 43.29290
230.8649, 42.83028
231.3471, 41.71378
231.8292, 41.41849
232.3113, 42.74519
232.7934, 44.35321
233.2755, 45.11023
233.7576, 44.71465
234.2398, 43.69657
234.7219, 42.92525
235.2040, 42.55859
235.6861, 42.18357
236.1682, 41.39758
236.6503, 40.81287
237.1325, 41.27605
237.6146, 42.95156
238.0967, 44.86269
238.5788, 45.49417
239.0609, 44.05350
239.5430, 43.08855
240.0252, 43.12258
240.5073, 43.44967
240.9894, 43.21804
241.4715, 42.22807
241.9536, 41.23021
242.4357, 41.37304
242.9179, 43.04671
243.4000, 44.10816
243.8821, 44.14471
244.3642, 43.56929
244.8463, 42.59311
245.3284, 41.21703
245.8106, 40.05985
246.2927, 40.02097
246.7748, 41.14473
247.2569, 42.08073
247.7390, 42.53563
248.2211, 42.74575
248.7033, 43.05427
249.1854, 43.54414
249.6675, 43.87563
250.1496, 43.56487
250.6317, 42.71218
251.1138, 41.98363
251.5960, 41.46766
252.0781, 41.16632
252.5602, 41.15182
253.0423, 41.47602
253.5244, 41.82848
254.0065, 41.96447
254.4887, 41.92014
254.9708, 41.74907
255.4529, 41.42015
255.9350, 40.98887
256.4171, 40.50257
256.8992, 39.94036
257.3813, 39.42616
257.8635, 39.00307
258.3456, 38.69125
258.8277, 38.55592
259.3098, 38.54283
259.7919, 38.76107
260.2740, 39.54342
260.7562, 41.07770
261.2383, 42.36131
261.7204, 42.68235
262.2025, 42.43874
262.6846, 41.99002
263.1667, 41.22927
263.6489, 40.56134
264.1310, 40.73143
264.6131, 41.98555
265.0952, 43.00538
265.5773, 42.98073
266.0594, 42.50297
266.5416, 42.06355
267.0237, 41.77804
267.5058, 41.61152
267.9879, 41.48492
268.4700, 41.36206
268.9521, 41.45353
269.4343, 42.28970
269.9164, 43.13221
270.3985, 43.27258
270.8806, 42.48997
271.3627, 41.50951
271.8448, 41.26921
272.3270, 41.90717
272.8091, 42.55981
273.2912, 43.21908
273.7733, 43.70198
274.2554, 43.72952
274.7375, 43.28270
275.2197, 42.87654
275.7018, 43.24885
276.1839, 44.58665
276.6660, 45.47167
277.1481, 45.10928
277.6302, 44.66412
278.1124, 44.71795
278.5945, 45.29984
279.0766, 46.06863
279.5587, 46.80828
280.0408, 47.56611
280.5229, 47.88734
281.0051, 47.28457
281.4872, 46.61333
281.9693, 46.13271
282.4514, 45.88319
282.9335, 45.86636
283.4156, 46.20356
283.8978, 46.91039
284.3799, 47.23198
284.8620, 46.89165
285.3441, 46.40492
285.8262, 45.72419
286.3083, 45.02967
286.7905, 44.69889
287.2726, 45.13740
287.7547, 46.21272
288.2368, 46.59645
288.7189, 45.41872
289.2010, 44.56590
289.6832, 44.80436
290.1653, 45.63593
290.6474, 46.29524
291.1295, 46.33176
291.6116, 45.88813
292.0938, 45.54622
292.5759, 45.48323
293.0580, 45.26055
293.5401, 44.64461
294.0222, 43.89594
294.5043, 43.32744
294.9865, 43.08294
295.4686, 43.02422
295.9507, 42.76579
296.4328, 41.91832
296.9149, 41.60548
297.3970, 42.51796
297.8792, 43.63122
298.3613, 43.94838
298.8434, 43.20035
299.3255, 42.02449
299.8076, 41.49130
300.2897, 41.89916
300.7719, 42.30339
301.2540, 43.03865
301.7361, 43.48884
302.2182, 43.06902
302.7003, 41.78920
303.1824, 40.29433
303.6646, 39.28086
304.1467, 38.71840
304.6288, 38.80894
305.1109, 40.65488
305.5930, 42.15999
306.0751, 41.93030
306.5573, 40.29985
307.0394, 38.75714
307.5215, 38.76604
308.0036, 40.48061
308.4857, 41.48600
308.9678, 41.08787
309.4500, 40.63235
309.9321, 40.56353
310.4142, 40.73058
310.8963, 40.76091
311.3784, 40.39363
311.8605, 39.67319
312.3427, 38.94855
312.8248, 37.86710
313.3069, 37.22290
313.7890, 37.37500
314.2711, 37.97100
314.7532, 38.62354
315.2354, 39.15211
315.7175, 39.50377
316.1996, 39.48861
316.6817, 38.77160
317.1638, 38.20680
317.6459, 38.00081
318.1281, 37.91058
318.6102, 37.74038
319.0923, 37.42308
319.5744, 36.99010
320.0565, 36.45882
320.5386, 35.69859
321.0208, 35.15466
321.5029, 34.80247
321.9850, 34.66402
322.4671, 34.87970
322.9492, 35.39311
323.4313, 35.89692
323.9135, 36.02503
324.3956, 35.67752
324.8777, 35.45760
325.3598, 35.47049
325.8419, 35.51286
326.3240, 35.63137
326.8062, 35.72779
327.2883, 35.55534
327.7704, 34.82119
328.2525, 33.58788
328.7346, 32.96526
329.2167, 33.78155
329.6989, 34.28663
330.1810, 33.76145
330.6631, 32.72578
331.1452, 31.95241
331.6273, 31.85758
332.1094, 32.28678
332.5916, 32.80763
333.0737, 33.64975
333.5558, 34.16577
334.0379, 34.20502
334.5200, 33.94764
335.0021, 33.43599
335.4843, 32.70148
335.9664, 32.02996
336.4485, 31.95067
336.9306, 32.71222
337.4127, 33.32621
337.8948, 33.89604
338.3770, 34.15245
338.8591, 33.69886
339.3412, 32.62601
339.8233, 31.58590
340.3055, 31.29985
340.7876, 31.85540
341.2697, 32.29592
341.7518, 32.72434
342.2339, 32.90694
342.7160, 32.46870
343.1982, 31.69681
343.6803, 31.28547
344.1624, 31.86609
344.6445, 33.15877
345.1266, 33.70612
345.6087, 33.03264
346.0909, 32.35938
346.5730, 31.88671
347.0551, 31.71169
347.5372, 32.08191
348.0193, 33.21310
348.5014, 34.54275
348.9836, 34.96066
349.4657, 34.16257
349.9478, 33.46674
350.4299, 33.35931
350.9120, 33.39531
351.3941, 33.23090
351.8763, 32.80615
352.3584, 32.36989
352.8405, 32.17374
353.3226, 32.22116
353.8047, 32.36661
354.2868, 32.71602
354.7690, 33.03014
355.2511, 33.11547
355.7332, 33.01958
356.2153, 32.95387
356.6974, 33.11514
357.1795, 33.42686
357.6617, 33.55919
358.1438, 33.40025
358.6259, 33.28786
359.1080, 33.55133
359.5901, 33.96085
360.0722, 34.11507
360.5544, 33.72191
361.0365, 33.18526
361.5186, 33.09416
362.0007, 33.49487
362.4828, 34.00842
362.9649, 34.80024
363.4471, 35.42862
363.9292, 35.20600
364.4113, 33.82978
364.8934, 32.65724
365.3755, 33.10102
365.8576, 34.81257
366.3398, 35.79874
366.8219, 35.32992
367.3040, 34.40314
367.7861, 34.09281
368.2682, 34.33722
368.7503, 34.55892
369.2325, 34.33767
369.7146, 34.00419
370.1967, 34.27340
370.6788, 35.32104
371.1609, 36.25328
371.6430, 36.25206
372.1252, 35.56074
372.6073, 35.00396
373.0894, 34.72197
373.5715, 34.58184
374.0536, 34.51833
374.5357, 34.52180
375.0179, 34.53432
375.5000, 34.52868
375.9821, 34.51481
376.4642, 34.55148
376.9463, 34.77285
377.4284, 34.74569
377.9106, 33.84234
378.3927, 32.68608
378.8748, 32.55571
379.3569, 33.88356
379.8390, 35.54987
380.3211, 36.06393
380.8033, 35.17748
381.2854, 34.53438
381.7675, 34.41002
382.2496, 34.45465
382.7317, 34.41265
383.2138, 34.26704
383.6960, 34.11863
384.1781, 34.05964
384.6602, 34.07359
385.1423, 33.91432
385.6244, 33.27364
386.1065, 32.83338
386.5887, 33.11445
387.0708, 33.69479
387.5529, 33.72239
388.0350, 32.79261
388.5171, 31.49349
388.9992, 31.13089
389.4814, 32.67076
389.9635, 33.70658
390.4456, 33.96029
390.9277, 33.90480
391.4098, 33.99281
391.8919, 34.24231
392.3741, 34.24825
392.8562, 33.48975
393.3383, 31.76406
393.8204, 30.83126
394.3025, 31.28775
394.7846, 31.85666
395.2668, 32.24067
395.7489, 32.40602
396.2310, 32.34153
396.7131, 32.02051
397.1952, 31.53705
397.6773, 31.22683
398.1595, 31.23590
398.6416, 31.17889
399.1237, 30.87841
399.6058, 30.57492
400.0879, 30.51604
400.5700, 30.74155
401.0522, 31.03579
401.5343, 31.13177
402.0164, 30.99449
402.4985, 30.85954
402.9806, 30.67225
403.4627, 30.55207
403.9449, 30.63465
404.4270, 30.83273
404.9091, 30.91782
405.3912, 30.69459
405.8733, 30.28259
406.3554, 30.16172
406.8376, 30.63499
407.3197, 30.62735
407.8018, 28.97984
408.2839, 26.97801
408.7660, 26.03263
409.2481, 26.57592
409.7303, 27.59556
410.2124, 28.12220
410.6945, 28.18451
411.1766, 28.25695
411.6587, 28.47907
412.1408, 28.68526
412.6230, 28.68742
413.1051, 28.51553
413.5872, 28.39067
414.0693, 28.39349
414.5514, 28.50471
415.0335, 28.84116
415.5157, 29.46208
415.9978, 29.68592
416.4799, 28.72979
416.9620, 27.08923
417.4441, 26.32768
417.9262, 27.12577
418.4084, 27.97871
418.8905, 27.88013
419.3726, 27.17051
419.8547, 26.75803
420.3368, 26.98890
420.8189, 27.51038
421.3011, 27.73770
421.7832, 27.56369
422.2653, 27.56865
422.7474, 28.18903
423.2295, 28.76038
423.7116, 28.46986
424.1938, 27.40553
424.6759, 26.58733
425.1580, 26.90879
425.6401, 28.27123
426.1222, 28.82543
426.6043, 27.68035
427.0865, 26.89303
427.5686, 27.36361
428.0507, 28.37479
428.5328, 28.90299
429.0149, 28.55861
429.4970, 27.69776
429.9792, 26.86702
430.4613, 25.69476
430.9434, 25.42323
431.4255, 26.88126
431.9076, 28.35076
432.3897, 28.80267
432.8719, 28.35237
433.3540, 27.74111
433.8361, 27.56019
434.3182, 27.72357
434.8003, 27.58026
435.2824, 26.87325
435.7646, 26.24861
436.2467, 25.70476
436.7288, 25.38828
437.2109, 25.56782
437.6930, 26.33376
438.1751, 27.21066
438.6573, 27.57507
439.1394, 27.38885
439.6215, 27.20880
440.1036, 27.12704
440.5857, 27.04377
441.0678, 26.91091
441.5500, 26.72541
442.0321, 26.48251
442.5142, 26.11301
442.9963, 25.71015
443.4784, 25.42597
443.9605, 25.25894
444.4427, 25.23262
444.9248, 25.46227
445.4069, 25.79280
445.8890, 25.92138
446.3711, 25.73125
446.8532, 25.63322
447.3354, 26.04423
447.8175, 26.68917
448.2996, 26.88486
448.7817, 26.42524
449.2638, 25.86197
449.7459, 25.84306
450.2281, 26.41109
450.7102, 26.70284
451.1923, 26.48880
451.6744, 26.16629
452.1565, 25.87448
452.6386, 25.67178
453.1208, 25.68906
453.6029, 26.00371
454.0850, 26.54944
454.5671, 27.14912
455.0492, 28.31184
455.5313, 28.79437
456.0135, 28.02205
456.4956, 26.94326
456.9777, 26.26579
457.4598, 26.10331
457.9419, 26.21237
458.4240, 26.38696
458.9062, 26.62813
459.3883, 26.84885
459.8704, 27.25951
460.3525, 27.39344
460.8346, 26.93929
461.3167, 26.22994
461.7989, 25.68584
462.2810, 25.46616
462.7631, 25.41133
463.2452, 25.26254
463.7273, 24.98631
464.2094, 24.81507
464.6916, 24.81580
465.1737, 24.90087
465.6558, 25.14509
466.1379, 25.45535
466.6200, 25.51722
467.1021, 24.89016
467.5843, 24.02334
468.0664, 23.89857
468.5485, 24.60976
469.0306, 25.39433
469.5127, 26.01815
469.9948, 26.44574
470.4770, 26.63613
470.9591, 26.56297
471.4412, 26.34662
471.9233, 25.94412
472.4054, 25.46387
472.8875, 25.08695
473.3697, 24.84250
473.8518, 24.73970
474.3339, 24.77527
474.8160, 24.96588
475.2981, 25.37362
475.7802, 26.52582
476.2624, 27.33619
476.7445, 27.07286
477.2266, 26.16205
477.7087, 25.34416
478.1908, 24.90273
478.6729, 24.85185
479.1551, 25.28124
479.6372, 26.69534
480.1193, 27.37749
480.6014, 26.92999
481.0835, 26.21491
481.5656, 25.42441
482.0478, 24.76865
482.5299, 24.68017
483.0120, 25.54336
483.4941, 26.99239
483.9762, 27.56232
484.4583, 26.76621
484.9405, 26.07311
485.4226, 25.80214
485.9047, 25.71240
486.3868, 25.59955
486.8689, 25.44833
487.3510, 25.43853
487.8332, 25.87695
488.3153, 26.62595
488.7974, 27.00435
489.2795, 26.91560
489.7616, 26.63047
490.2437, 26.21335
490.7259, 25.72661
491.2080, 25.21453
491.6901, 24.54973
492.1722, 24.13767
492.6543, 24.37765
493.1364, 25.11087
493.6186, 25.98085
494.1007, 26.98455
494.5828, 27.74683
495.0649, 27.76945
495.5470, 26.96886
496.0291, 26.22513
496.5113, 25.39501
496.9934, 24.78427
497.4755, 24.63859
497.9576, 24.85453
498.4397, 25.18834
498.9218, 25.52491
499.4040, 25.87871
499.8861, 26.29953
500.3682, 27.02988
500.8503, 27.35151
501.3324, 27.12506
501.8145, 26.66213
502.2967, 25.97608
502.7788, 25.20577
503.2609, 24.66565
503.7430, 24.61442
504.2251, 24.91022
504.7072, 24.97993
505.1894, 24.67974
505.6715, 24.48454
506.1536, 24.44255
506.6357, 24.59723
507.1178, 25.15824
507.5999, 26.10549
508.0821, 26.83508
508.5642, 26.77740
509.0463, 26.16187
509.5284, 25.61009
510.0105, 25.12677
510.4926, 24.85913
510.9748, 25.08472
511.4569, 25.54607
511.9390, 25.60137
512.4211, 24.91484
512.9032, 24.37641
513.3853, 24.76996
513.8674, 25.50994
514.3495, 25.33322
514.8317, 23.96175
515.3138, 22.73088
515.7959, 23.16547
516.2780, 25.45261
516.7601, 26.52404
517.2422, 25.63964
517.7244, 24.58372
518.2065, 23.72404
518.6886, 23.14449
519.1707, 23.02237
519.6528, 23.39151
520.1349, 23.87378
520.6171, 23.77802
521.0992, 22.79279
521.5813, 22.50497
522.0634, 23.69280
522.5455, 24.83289
523.0276, 25.47864
523.5098, 25.66386
523.9919, 25.43728
524.4740, 24.70668
524.9561, 23.90166
525.4382, 23.66267
525.9203, 23.99929
526.4025, 24.50091
526.8846, 25.27403
527.3667, 25.90963
527.8488, 25.97562
528.3309, 25.54255
528.8130, 25.01632
529.2952, 24.30723
529.7773, 23.71398
530.2594, 23.80039
530.7415, 24.34010
531.2236, 24.12793
531.7057, 22.43226
532.1879, 20.29142
532.6700, 19.77575
533.1521, 21.90641
533.6342, 23.38965
534.1163, 23.73365
534.5984, 23.78147
535.0806, 23.95646
535.5627, 24.31358
536.0448, 24.89400
536.5269, 25.76805
537.0090, 26.68484
537.4911, 26.77056
537.9733, 25.40535
538.4554, 24.58050
538.9375, 24.99105
539.4196, 25.60229
539.9017, 25.76839
540.3839, 25.52582
540.8660, 25.31172
541.3481, 25.45604
541.8302, 25.79029
542.3123, 25.94982
542.7944, 25.92662
543.2766, 25.80477
543.7587, 25.63853
544.2408, 25.36192
544.7229, 24.76101
545.2050, 23.74388
545.6871, 23.19419
546.1693, 23.77713
546.6514, 24.75604
547.1335, 25.48064
547.6156, 25.85836
548.0977, 25.72387
548.5798, 24.86180
549.0620, 23.59505
549.5441, 23.01850
550.0262, 23.52441
550.5083, 24.25441
550.9904, 25.82785
551.4725, 27.15398
551.9547, 27.18521
552.4368, 26.11264
552.9189, 24.92915
553.4010, 24.30959
553.8831, 24.23022
554.3652, 24.74072
554.8474, 26.25261
555.3295, 27.30748
555.8116, 27.30056
556.2937, 26.85347
556.7758, 26.22017
557.2579, 25.47787
557.7401, 24.94544
558.2222, 24.83701
558.7043, 25.04829
559.1864, 25.59039
559.6685, 26.46150
560.1506, 26.84318
560.6328, 26.10469
561.1149, 24.85405
561.5970, 24.49003
562.0791, 25.27442
562.5612, 25.90650
563.0433, 26.13655
563.5255, 26.13049
564.0076, 25.83839
564.4897, 25.40221
564.9718, 25.32372
565.4539, 25.98279
565.9360, 27.03926
566.4182, 27.29657
566.9003, 26.16099
567.3824, 25.34107
567.8645, 25.10624
568.3466, 25.05369
568.8287, 24.84071
569.3109, 24.55948
569.7930, 24.66299
570.2751, 25.69351
570.7572, 27.01276
571.2393, 27.07332
571.7214, 25.74969
572.2036, 24.72757
572.6857, 24.73539
573.1678, 25.06084
573.6499, 24.65274
574.1320, 23.53452
574.6141, 23.10380
575.0963, 24.48287
575.5784, 26.11496
576.0605, 26.71688
576.5426, 26.39734
577.0247, 25.57068
577.5068, 24.35253
577.9890, 23.20024
578.4711, 23.04689
578.9532, 24.56797
579.4353, 25.36650
579.9174, 24.87599
580.3995, 24.32520
580.8817, 24.40400
581.3638, 24.84610
581.8459, 24.98638
582.3280, 24.47242
582.8101, 23.84781
583.2922, 24.29532
583.7744, 25.95985
584.2565, 26.42539
584.7386, 24.58777
585.2207, 22.61080
585.7029, 22.02556
586.1850, 22.47662
586.6671, 23.13833
587.1492, 24.06730
587.6313, 24.81135
588.1135, 24.98886
588.5956, 24.73762
589.0777, 24.30095
589.5598, 23.73284
590.0419, 23.24358
590.5240, 23.08813
591.0062, 23.28778
591.4883, 23.33904
591.9704, 23.06992
592.4525, 22.87935
592.9346, 22.79594
593.4167, 22.87877
593.8989, 23.31371
594.3810, 24.07557
594.8631, 24.75669
595.3452, 24.93107
595.8273, 24.62672
596.3094, 24.10868
596.7916, 23.16995
597.2737, 22.48553
597.7558, 22.51370
598.2379, 22.86680
598.7200, 23.18900
599.2021, 23.44720
599.6843, 23.63598
600.1664, 23.81857
600.6485, 23.89828
601.1306, 23.66339
601.6127, 23.13671
602.0948, 22.59806
602.5770, 22.15911
603.0591, 21.90524
603.5412, 22.09183
604.0233, 23.29473
604.5054, 23.98652
604.9875, 23.78656
605.4697, 23.42041
605.9518, 23.24717
606.4339, 23.30438
606.9160, 23.59412
607.3981, 24.15631
607.8802, 24.76809
608.3624, 24.98090
608.8445, 24.76318
609.3266, 24.35577
609.8087, 23.57194
610.2908, 22.90075
610.7729, 22.78382
611.2551, 23.06283
611.7372, 23.26905
612.2193, 23.22189
612.7014, 23.14523
613.1835, 23.21087
613.6656, 23.36366
614.1478, 23.50408
614.6299, 23.60611
615.1120, 23.62581
615.5941, 23.49652
616.0762, 23.21681
616.5583, 23.05643
617.0405, 22.99283
617.5226, 23.07700
618.0047, 23.57199
618.4868, 24.06413
618.9689, 23.99908
619.4510, 23.39546
619.9332, 22.93433
620.4153, 23.30868
620.8974, 24.25642
621.3795, 24.80992
621.8616, 24.90424
622.3438, 24.94623
622.8259, 25.05329
623.3080, 25.20880
623.7901, 25.49733
624.2722, 25.95180
624.7543, 25.98069
625.2365, 24.81587
625.7186, 23.67560
626.2007, 23.79669
626.6828, 24.79753
627.1649, 25.52208
627.6470, 25.48508
628.1292, 25.01495
628.6113, 24.60056
629.0934, 24.19803
629.5755, 24.03412
630.0576, 24.48486
630.5397, 24.77445
631.0219, 24.31791
631.5040, 23.70252
631.9861, 23.94644
632.4682, 25.37896
632.9503, 26.65340
633.4324, 26.09467
633.9146, 24.38853
634.3967, 23.93708
634.8788, 25.07374
635.3609, 26.05122
635.8430, 25.71846
636.3251, 24.58365
636.8073, 24.13875
637.2894, 24.64905
637.7715, 25.08652
638.2536, 25.46022
638.7357, 25.57335
639.2178, 24.99322
639.7000, 24.00776
640.1821, 23.46882
640.6642, 23.86943
641.1463, 24.68781
641.6284, 24.76547
642.1105, 23.87829
642.5927, 23.47668
643.0748, 24.08576
643.5569, 24.68760
644.0390, 24.59627
644.5211, 24.11420
645.0032, 23.88593
645.4854, 24.19787
645.9675, 24.45722
646.4496, 24.10631
646.9317, 23.47791
647.4138, 23.20698
647.8959, 23.37437
648.3781, 23.69762
648.8602, 24.00586
649.3423, 24.26181
649.8244, 24.26977
650.3065, 23.68640
650.7886, 23.37200
651.2708, 23.47088
651.7529, 23.73435
652.2350, 24.05450
652.7171, 24.39531
653.1992, 24.73262
653.6813, 25.07455
654.1635, 25.35780
654.6456, 25.44352
655.1277, 25.35064
655.6098, 25.30349
656.0919, 25.32204
656.5740, 25.46185
657.0562, 25.83644
657.5383, 26.39939
658.0204, 26.80035
658.5025, 27.08171
658.9846, 27.14502
659.4667, 26.89124
659.9489, 26.44631
660.4310, 25.83599
660.9131, 25.14068
661.3952, 24.58424
661.8773, 24.32157
662.3594, 24.33183
662.8416, 24.61818
663.3237, 25.33850
663.8058, 25.73355
664.2879, 25.25001
664.7700, 24.84482
665.2521, 25.48686
665.7343, 26.80190
666.2164, 27.47711
666.6985, 26.71149
667.1806, 25.78447
667.6627, 25.60745
668.1448, 25.90746
668.6270, 26.25032
669.1091, 26.52368
669.5912, 26.59412
670.0733, 26.29562
670.5554, 25.70947
671.0375, 25.43165
671.5197, 25.74488
672.0018, 25.90598
672.4839, 25.93951
672.9660, 25.72731
673.4481, 24.85537
673.9302, 23.62857
674.4124, 23.01863
674.8945, 23.72953
675.3766, 24.93971
675.8587, 25.80967
676.3408, 26.31605
676.8229, 26.23015
677.3051, 25.42176
677.7872, 24.53728
678.2693, 24.12446
678.7514, 24.15614
679.2335, 24.33097
679.7156, 24.83543
680.1978, 25.21932
680.6799, 25.35425
681.1620, 25.39473
681.6441, 25.45605
682.1262, 25.54832
682.6083, 25.65896
683.0905, 25.82535
683.5726, 25.90137
684.0547, 25.43258
684.5368, 24.42242
685.0189, 23.98469
685.5010, 24.52673
685.9832, 25.23486
686.4653, 25.39931
686.9474, 25.13697
687.4295, 25.08097
687.9116, 25.63689
688.3937, 25.86436
688.8759, 25.19177
689.3580, 24.26034
689.8401, 23.62534
690.3222, 23.37512
690.8043, 23.47378
691.2864, 23.94051
691.7686, 24.57550
692.2507, 24.87586
692.7328, 24.78859
693.2149, 24.70817
693.6970, 24.72157
694.1791, 24.69957
694.6613, 24.52140
695.1434, 24.24617
695.6255, 23.98934
696.1076, 23.71906
696.5897, 23.57006
697.0718, 23.56929
697.5540, 23.74265
698.0361, 24.28486
698.5182, 25.08319
699.0003, 25.62327
699.4824, 25.57741
699.9645, 25.14189
700.4467, 24.71893
700.9288, 24.19032
701.4109, 24.14279
701.8930, 25.01528
702.3751, 25.88158
702.8572, 26.23301
703.3394, 26.28945
703.8215, 26.47293
704.3036, 26.95854
704.7857, 27.19834
705.2678, 26.68561
705.7499, 25.84126
706.2321, 25.12852
706.7142, 24.62447
707.1963, 24.44884
707.6784, 24.68514
708.1605, 25.14348
708.6426, 25.45933
709.1248, 25.62384
709.6069, 25.68223
710.0890, 25.79644
710.5711, 25.59565
711.0532, 24.47313
711.5353, 23.19167
712.0175, 22.90601
712.4996, 23.88312
712.9817, 24.75730
713.4638, 24.33477
713.9459, 23.51345
714.4280, 23.71201
714.9102, 24.76345
715.3923, 25.55825
715.8744, 25.62174
716.3565, 25.25912
716.8386, 24.82702
717.3207, 24.21987
717.8029, 24.32887
718.2850, 26.22703
718.7671, 27.50216
719.2492, 27.19096
719.7313, 26.28033
720.2134, 25.71647
720.6956, 25.61407
721.1777, 25.56410
721.6598, 25.24098
722.1419, 24.89663
722.6240, 24.77870
723.1061, 24.91297
723.5883, 25.54719
724.0704, 26.79453
724.5525, 27.95616
725.0346, 28.29875
725.5167, 27.83597
725.9988, 27.15537
726.4810, 25.69595
726.9631, 24.84277
727.4452, 25.06445
727.9273, 25.66940
728.4094, 26.34569
728.8915, 26.94852
729.3737, 27.16773
729.8558, 26.70364
730.3379, 26.07088
730.8200, 25.80638
731.3021, 25.81175
731.7842, 25.79479
732.2664, 25.70641
732.7485, 25.73473
733.2306, 26.04307
733.7127, 26.55500
734.1948, 26.98358
734.6769, 27.46528
735.1591, 27.60277
735.6412, 27.07876
736.1233, 26.54463
736.6054, 26.25790
737.0875, 26.21687
737.5696, 26.43751
738.0518, 26.97770
738.5339, 27.46181
739.0160, 27.63123
739.4981, 27.52665
739.9802, 27.05667
740.4623, 26.29762
740.9445, 25.90534
741.4266, 26.26644
741.9087, 26.89353
742.3908, 26.85676
742.8729, 25.89487
743.3550, 25.40046
743.8372, 25.76772
744.3193, 26.14324
744.8014, 26.29031
745.2835, 26.33551
745.7656, 26.46534
746.2477, 26.69093
746.7299, 26.76475
747.2120, 26.49836
747.6941, 26.04973
748.1762, 25.36513
748.6583, 24.64747
749.1404, 24.66165
749.6226, 25.61122
750.1047, 26.68785
750.5868, 27.04837
751.0689, 26.76440
751.5510, 26.61959
752.0331, 26.58790
752.5153, 26.74935
752.9974, 27.52180
753.4795, 28.13697
753.9616, 27.92647
754.4437, 27.13791
754.9258, 26.61480
755.4080, 26.75634
755.8901, 26.93601
756.3722, 26.68996
756.8543, 26.23218
757.3364, 25.71775
757.8185, 25.26900
758.3007, 25.36719
758.7828, 26.36266
759.2649, 27.72347
759.7470, 28.26371
760.2291, 27.80492
760.7112, 27.37378
761.1934, 26.83138
761.6755, 26.56995
762.1576, 27.04432
762.6397, 27.77476
763.1218, 28.15073
763.6039, 28.09421
764.0861, 27.96573
764.5682, 27.91226
765.0503, 27.81261
765.5324, 27.33569
766.0145, 26.80183
766.4966, 27.03283
766.9788, 28.16145
767.4609, 29.16910
767.9430, 28.89827
768.4251, 27.67400
768.9072, 27.14235
769.3893, 27.38202
769.8715, 27.98293
770.3536, 29.19144
770.8357, 30.23975
771.3178, 30.16887
771.7999, 29.23697
772.2820, 28.78981
772.7642, 29.39417
773.2463, 29.82592
773.7284, 29.53965
774.2105, 29.11025
774.6926, 29.04090
775.1747, 29.29818
775.6569, 29.65561
776.1390, 30.01921
776.6211, 30.25321
777.1032, 30.05268
777.5853, 29.52350
778.0674, 29.32644
778.5496, 29.55116
779.0317, 29.69968
779.5138, 29.46155
779.9959, 29.11138
780.4780, 29.15396
780.9601, 29.71963
781.4423, 30.16084
781.9244, 30.72812
782.4065, 30.87761
782.8886, 29.95357
783.3707, 28.82052
783.8528, 28.50871
784.3350, 29.04962
784.8171, 29.55449
785.2992, 29.36660
785.7813, 28.99477
786.2634, 29.07617
786.7455, 29.53236
787.2277, 30.21228
787.7098, 31.07388
788.1919, 31.72583
788.6740, 31.80223
789.1561, 31.51030
789.6382, 31.65959
790.1204, 32.61760
790.6025, 33.11687
791.0846, 32.46380
791.5667, 32.04086
792.0488, 32.84219
792.5309, 34.10951
793.0131, 34.51307
793.4952, 33.68471
793.9773, 33.13840
794.4594, 33.78547
794.9415, 34.85244
795.4236, 35.69641
795.9058, 36.35770
796.3879, 37.04448
796.8700, 37.81646
797.3521, 38.55980
797.8342, 39.14706
798.3163, 39.61270
798.7985, 40.09740
799.2806, 40.56616
799.7627, 41.27113
800.2448, 42.34026
800.7269, 43.55861
801.2090, 44.89558
801.6912, 46.25106
802.1733, 47.15044
802.6554, 47.25828
803.1375, 47.44245
803.6196, 47.91585
804.1017, 48.46746
804.5839, 48.77996
805.0660, 49.08281
805.5481, 49.93364
806.0302, 51.54574
806.5123, 53.30843
806.9944, 54.52500
807.4766, 55.45853
807.9587, 56.95108
808.4408, 58.93347
808.9229, 60.31542
809.4050, 60.66615
809.8871, 60.44232
810.3693, 60.08645
810.8514, 59.60596
811.3335, 59.66920
811.8156, 60.91585
812.2977, 61.63409
812.7798, 61.13628
813.2620, 60.44700
813.7441, 60.27167
814.2262, 60.45689
814.7083, 60.46854
815.1904, 60.10896
815.6725, 59.69730
816.1547, 59.52781
816.6368, 59.31878
817.1189, 58.63653
817.6010, 57.61034
818.0831, 56.73952
818.5652, 56.23362
819.0474, 55.83111
819.5295, 55.13024
820.0116, 54.19200
820.4937, 53.58069
820.9758, 53.31532
821.4579, 53.26423
821.9401, 53.38845
822.4222, 53.72396
822.9043, 54.50367
823.3864, 55.67413
823.8685, 56.05804
824.3506, 54.94265
824.8328, 54.07780
825.3149, 53.89334
825.7970, 53.89589
826.2791, 53.63597
826.7612, 53.28069
827.2433, 53.34342
827.7255, 54.06121
828.2076, 54.81411
828.6897, 55.18798
829.1718, 55.20050
829.6539, 54.62647
830.1360, 53.66028
830.6182, 53.15417
831.1003, 53.43363
831.5824, 54.17986
832.0645, 55.14111
832.5466, 56.23932
833.0287, 56.26554
833.5109, 54.64340
833.9930, 53.71278
834.4751, 54.36428
834.9572, 55.34997
835.4393, 55.73027
835.9214, 55.63933
836.4036, 55.40617
836.8857, 54.82160
837.3678, 54.56866
837.8499, 55.24180
838.3320, 55.90574
838.8141, 55.92217
839.2963, 55.41191
839.7784, 54.53386
840.2605, 53.38581
840.7426, 52.50277
841.2247, 52.47933
841.7068, 52.98916
842.1890, 53.53149
842.6711, 54.05752
843.1532, 54.31533
843.6353, 54.24435
844.1174, 53.76724
844.5995, 52.76810
845.0817, 51.36145
845.5638, 50.10064
846.0459, 49.04755
846.5280, 47.93777
847.0101, 46.27222
847.4922, 45.18770
847.9744, 45.81467
848.4565, 47.14535
848.9386, 47.71389
849.4207, 47.38615
849.9028, 46.45856
850.3849, 44.25471
850.8671, 42.28493
851.3492, 41.70343
851.8313, 41.76931
852.3134, 41.40746
852.7955, 40.50621
853.2776, 39.68859
853.7598, 39.35451
854.2419, 39.36343
854.7240, 39.74021
855.2061, 40.29351
855.6882, 40.16505
856.1703, 39.26038
856.6525, 38.17032
857.1346, 37.18438
857.6167, 36.37545
858.0988, 35.92131
858.5809, 35.87453
859.0630, 35.82531
859.5452, 35.68545
860.0273, 35.70573
860.5094, 36.37931
860.9915, 36.90952
861.4736, 36.33357
861.9557, 34.87623
862.4379, 33.94290
862.9200, 34.14532
863.4021, 34.39467
863.8842, 34.33829
864.3663, 34.15413
864.8484, 34.09075
865.3306, 34.01665
865.8127, 33.40592
866.2948, 32.07002
866.7769, 31.05688
867.2590, 31.88867
867.7411, 33.58818
868.2233, 34.02485
868.7054, 33.36007
869.1875, 32.66819
869.6696, 32.25408
870.1517, 32.05025
870.6339, 32.04752
871.1160, 32.14159
871.5981, 31.70445
872.0802, 30.28492
872.5623, 30.07302
873.0444, 32.10841
873.5266, 33.99550
874.0087, 34.31112
874.4908, 33.65595
874.9729, 33.14449
875.4550, 32.83606
875.9371, 32.34438
876.4193, 31.34764
876.9014, 30.48305
877.3835, 29.93310
877.8656, 29.71439
878.3477, 30.04054
878.8298, 30.73731
879.3120, 31.13301
879.7941, 30.80476
880.2762, 30.29884
880.7583, 30.11170
881.2404, 30.12354
881.7225, 30.10174
882.2047, 30.06092
882.6868, 30.25668
883.1689, 30.79746
883.6510, 31.22285
884.1331, 30.81462
884.6152, 29.75234
885.0974, 29.49161
885.5795, 30.14808
886.0616, 30.81046
886.5437, 31.35408
887.0258, 31.64172
887.5079, 31.55398
887.9901, 31.11909
888.4722, 30.41551
888.9543, 28.82501
889.4364, 28.15731
889.9185, 29.38292
890.4006, 30.38782
890.8828, 29.88336
891.3649, 28.96418
891.8470, 29.24936
892.3291, 30.79042
892.8112, 31.68733
893.2933, 30.42246
893.7755, 29.14592
894.2576, 29.46194
894.7397, 30.37247
895.2218, 30.62783
895.7039, 30.23641
896.1860, 29.85221
896.6682, 29.78812
897.1503, 29.81400
897.6324, 29.51368
898.1145, 29.10228
898.5966, 29.41420
899.0787, 30.35641
899.5609, 30.77695
900.0430, 30.28485
900.5251, 29.62750
901.0072, 29.54687
901.4893, 29.89199
901.9714, 29.86541
902.4536, 29.22898
902.9357, 29.15293
903.4178, 30.15159
903.8999, 30.98196
904.3820, 30.98320
904.8641, 30.41702
905.3463, 29.62147
905.8284, 28.53341
906.3105, 27.77290
906.7926, 27.49802
907.2747, 27.41335
907.7568, 27.50441
908.2390, 27.68543
908.7211, 28.03300
909.2032, 28.40195
909.6853, 28.32630
910.1674, 27.46483
910.6495, 26.86633
911.1317, 27.75016
911.6138, 28.85727
912.0959, 28.45911
912.5780, 27.14924
913.0601, 26.58133
913.5422, 27.13505
914.0244, 27.77921
914.5065, 27.61164
914.9886, 26.97824
915.4707, 26.59522
915.9528, 26.42019
916.4349, 26.14140
916.9171, 25.71591
917.3992, 25.40382
917.8813, 25.33680
918.3634, 25.51131
918.8455, 25.99858
919.3276, 26.84517
919.8098, 27.13113
920.2919, 26.59110
920.7740, 26.17594
921.2561, 26.18699
921.7382, 26.28913
922.2203, 26.23486
922.7025, 26.04518
923.1846, 25.78414
923.6667, 25.24048
924.1488, 25.08496
924.6309, 25.74481
925.1130, 26.38915
925.5952, 26.72034
926.0773, 26.77733
926.5594, 26.44494
927.0415, 25.82775
927.5236, 25.60229
928.0057, 26.35164
928.4879, 27.12827
928.9700, 27.40120
929.4521, 27.30199
929.9342, 26.76871
930.4163, 26.02867
930.8984, 25.71107
931.3806, 26.02240
931.8627, 26.21238
932.3448, 25.17707
932.8269, 23.69930
933.3090, 23.52814
933.7911, 24.39173
934.2733, 25.24394
934.7554, 25.85561
935.2375, 26.14530
935.7196, 26.03844
936.2017, 25.67330
936.6838, 25.36487
937.1660, 25.12781
937.6481, 24.49164
938.1302, 23.20425
938.6123, 22.75711
939.0944, 24.01915
939.5765, 25.49984
940.0587, 25.58396
940.5408, 24.51902
941.0229, 24.10403
941.5050, 24.71992
941.9871, 25.28772
942.4692, 26.11005
942.9514, 26.49383
943.4335, 25.81709
943.9156, 24.73956
944.3977, 23.98203
944.8798, 23.59955
945.3619, 23.69799
945.8441, 24.96360
946.3262, 25.84744
946.8083, 25.42551
947.2904, 24.72226
947.7725, 24.55246
948.2546, 24.82977
948.7368, 25.26974
949.2189, 25.79833
949.7010, 25.99813
950.1831, 25.29946
950.6652, 24.41142
951.1473, 23.96067
951.6295, 23.87900
952.1116, 24.23365
952.5937, 24.85277
953.0758, 24.96088
953.5579, 24.04182
954.0400, 23.07795
954.5222, 23.84647
955.0043, 25.55598
955.4864, 25.61204
955.9685, 24.18264
956.4506, 23.15493
956.9327, 23.09320
957.4149, 23.45175
957.8970, 23.78076
958.3791, 24.09133
958.8612, 24.49682
959.3433, 25.03181
959.8254, 25.04636
960.3076, 24.33859
960.7897, 23.85108
961.2718, 24.08032
961.7539, 24.51690
962.2360, 24.51111
962.7181, 24.08360
963.2003, 23.70460
963.6824, 23.28265
964.1645, 23.09768
964.6466, 23.19235
965.1287, 23.50762
965.6108, 24.28894
966.0930, 25.14582
966.5751, 25.43461
967.0572, 25.08497
967.5393, 24.81305
968.0214, 24.88703
968.5035, 24.78559
968.9857, 24.05113
969.4678, 23.37593
969.9499, 23.42007
970.4320, 23.91125
970.9141, 24.22353
971.3962, 24.22542
971.8784, 23.91117
972.3605, 22.78265
972.8426, 21.87029
973.3247, 22.14676
973.8068, 22.89680
974.2889, 23.19541
974.7711, 23.02464
975.2532, 22.85654
975.7353, 22.88402
976.2174, 23.13569
976.6995, 23.85130
977.1816, 24.65827
977.6638, 25.02335
978.1459, 25.03955
978.6280, 25.01823
979.1101, 25.00734
979.5922, 24.75266
980.0743, 24.02260
980.5565, 23.20655
981.0386, 22.93746
981.5207, 23.12020
982.0028, 23.58881
982.4849, 24.25387
982.9670, 24.40485
983.4492, 23.79712
983.9313, 23.11765
984.4134, 23.02515
984.8955, 23.35254
985.3776, 23.55826
985.8597, 23.63497
986.3419, 23.91064
986.8240, 24.49447
987.3061, 24.68195
987.7882, 24.05245
988.2703, 23.25034
988.7524, 23.07763
989.2346, 23.46441
989.7167, 23.68457
990.1988, 23.72097
990.6809, 23.63417
991.1630, 23.36872
991.6451, 23.09487
992.1273, 22.88437
992.6094, 22.72278
993.0915, 22.55508
993.5736, 22.36746
994.0557, 22.42892
994.5378, 23.03424
995.0200, 23.45383
995.5021, 23.51306
995.9842, 23.48361
996.4663, 23.49302
996.9484, 23.51723
997.4305, 23.46558
997.9127, 23.31043
998.3948, 23.37675
998.8769, 24.08858
999.3590, 24.53297
999.8411, 24.44460
1000.323, 23.97298
1000.805, 22.89440
1001.287, 21.62727
1001.770, 20.96940
1002.252, 21.10265
1002.734, 21.60543
1003.216, 22.88528
1003.698, 23.80285
1004.180, 23.14769
1004.662, 22.18011
1005.144, 22.59068
1005.627, 23.90358
1006.109, 24.30819
1006.591, 23.12876
1007.073, 22.03119
1007.555, 22.31536
1008.037, 23.07916
1008.519, 23.68509
1009.001, 24.05837
1009.483, 23.92577
1009.966, 23.46258
1010.448, 23.42034
1010.930, 24.18069
1011.412, 24.82639
1011.894, 24.13400
1012.376, 22.94848
1012.858, 22.61642
1013.340, 22.87250
1013.823, 22.95209
1014.305, 22.76488
1014.787, 22.66781
1015.269, 22.85595
1015.751, 23.35468
1016.233, 24.55960
1016.715, 26.00033
1017.197, 26.17820
1017.679, 25.31404
1018.162, 24.55211
1018.644, 24.13797
1019.126, 23.65177
1019.608, 22.77455
1020.090, 21.99490
1020.572, 22.39224
1021.054, 23.73432
1021.536, 24.30057
1022.018, 24.10526
1022.501, 23.94770
1022.983, 24.02232
1023.465, 24.15850
1023.947, 24.23660
1024.429, 24.27740
1024.911, 24.35706
1025.393, 24.48056
1025.875, 24.31709
1026.358, 23.80383
1026.840, 23.56570
1027.322, 23.82566
1027.804, 24.10386
1028.286, 24.00125
1028.768, 23.70619
1029.250, 23.74544
1029.732, 23.58444
1030.214, 23.40440
1030.697, 23.56227
1031.179, 23.16401
1031.661, 23.44069
1032.143, 23.57342
1032.625, 22.67480
1033.107, 21.36130
1033.589, 21.53182
1034.071, 23.77123
1034.553, 24.80109
1035.036, 24.04223
1035.518, 23.33307
1036.000, 23.10071
1036.482, 23.11703
1036.964, 23.24805
1037.446, 23.47737
1037.928, 23.80396
1038.410, 23.63080
1038.893, 24.43042
1039.375, 23.25424
1039.857, 22.33927
1040.339, 21.94571
1040.821, 22.00819
1041.303, 22.86104
1041.785, 24.08130
1042.267, 24.33229
1042.750, 23.09765
1043.232, 22.61982
1043.714, 23.87889
1044.196, 24.59901
1044.678, 23.74704
1045.160, 22.66614
1045.642, 22.24649
1046.124, 22.37079
1046.606, 22.76271
1047.089, 23.51225
1047.571, 24.06528
1048.053, 24.40171
1048.535, 24.48245
1049.017, 24.22572
1049.499, 23.77520
1049.981, 22.83793
1050.463, 21.89521
1050.945, 22.21804
1051.428, 24.27887
1051.910, 25.40740
1052.392, 24.48633
1052.874, 23.38871
1053.356, 22.38755
1053.838, 21.73174
1054.320, 21.80860
1054.802, 22.29801
1055.285, 22.55995
1055.767, 22.48190
1056.249, 22.39647
1056.731, 22.04256
1057.213, 22.15763
1057.695, 23.68434
1058.177, 25.14017
1058.659, 25.19081
1059.141, 24.39813
1059.624, 23.84194
1060.106, 23.71000
1060.588, 23.92981
1061.070, 25.04601
1061.552, 25.75265
1062.034, 25.26601
1062.516, 24.43009
1062.998, 23.58034
1063.480, 22.99848
1063.963, 23.34720
1064.445, 24.62917
1064.927, 25.17862
1065.409, 23.64035
1065.891, 22.26606
1066.373, 21.96816
1066.855, 22.18789
1067.337, 22.84132
1067.820, 23.54267
1068.302, 23.66656
1068.784, 23.20217
1069.266, 22.93402
1069.748, 23.46262
1070.230, 23.70564
1070.712, 22.74364
1071.194, 21.76547
1071.677, 21.71279
1072.159, 22.19338
1072.641, 22.70770
1073.123, 23.11567
1073.605, 23.20127
1074.087, 22.70046
1074.569, 22.31691
1075.051, 22.64667
1075.533, 22.92600
1076.016, 22.44950
1076.498, 21.69210
1076.980, 21.16838
1077.462, 20.99827
1077.944, 21.32850
1078.426, 22.40470
1078.908, 23.27362
1079.390, 23.28749
1079.873, 23.18090
1080.355, 23.64360
1080.837, 24.10397
1081.319, 23.73831
1081.801, 22.74509
1082.283, 21.91414
1082.765, 21.45238
1083.247, 21.30478
1083.729, 21.60838
1084.212, 22.02360
1084.694, 22.43534
1085.176, 22.79425
1085.658, 23.09775
1086.140, 23.30436
1086.622, 23.26434
1087.104, 22.92627
1087.586, 22.76819
1088.068, 23.16952
1088.551, 23.57136
1089.033, 23.91811
1089.515, 23.94390
1089.997, 23.03622
1090.479, 21.78691
1090.961, 21.37138
1091.443, 21.95959
1091.925, 22.51842
1092.408, 22.66082
1092.890, 22.70287
1093.372, 22.69812
1093.854, 22.71317
1094.336, 22.91364
1094.818, 23.10131
1095.300, 22.81540
1095.782, 22.13195
1096.265, 21.98728
1096.747, 23.19709
1097.229, 23.91156
1097.711, 23.02831
1098.193, 22.02525
1098.675, 21.73707
1099.157, 21.82848
1099.639, 21.88282
1100.121, 21.89743
1100.604, 22.08903
1101.086, 22.61487
1101.568, 22.96909
1102.050, 23.08261
1102.532, 22.91885
1103.014, 21.86815
1103.496, 21.04249
1103.978, 21.84518
1104.460, 23.61531
1104.943, 24.54213
1105.425, 24.28826
1105.907, 23.70941
1106.389, 22.01126
1106.871, 21.31161
1107.353, 23.29288
1107.835, 25.39755
1108.317, 25.87489
1108.800, 25.26751
1109.282, 24.36230
1109.764, 23.18160
1110.246, 22.77753
1110.728, 24.33282
1111.210, 25.02703
1111.692, 23.67348
1112.174, 22.31755
1112.656, 21.89821
1113.139, 22.03495
1113.621, 22.33631
1114.103, 22.78033
1114.585, 23.22720
1115.067, 23.72797
1115.549, 24.14176
1116.031, 24.79966
1116.513, 24.87388
1116.995, 23.46399
1117.478, 22.05716
1117.960, 22.11675
1118.442, 23.17315
1118.924, 23.72371
1119.406, 23.64730
1119.888, 23.53827
1120.370, 23.38631
1120.852, 23.20901
1121.335, 22.90969
1121.817, 22.78012
1122.299, 23.12277
1122.781, 23.62582
1123.263, 23.67753
1123.745, 23.26304
1124.227, 23.19753
1124.709, 23.64504
1125.192, 23.87310
1125.674, 23.81901
1126.156, 23.39136
1126.638, 22.37209
1127.120, 21.39063
1127.602, 21.19057
1128.084, 21.67524
1128.566, 22.54279
1129.048, 23.93810
1129.531, 24.19032
1130.013, 22.99440
1130.495, 22.50913
1130.977, 23.53057
1131.459, 24.64148
1131.941, 24.69769
1132.423, 24.04012
1132.905, 23.34597
1133.387, 22.61642
1133.870, 21.64310
1134.352, 20.46526
1134.834, 20.49206
1135.316, 21.97513
1135.798, 23.42064
1136.280, 24.02710
1136.762, 24.03432
1137.244, 23.61121
1137.727, 22.96526
1138.209, 22.60301
1138.691, 22.57692
1139.173, 23.47361
1139.655, 25.07076
1140.137, 25.74293
1140.619, 24.97047
1141.101, 23.65886
1141.583, 22.36547
1142.066, 21.54715
1142.548, 22.43715
1143.030, 24.03967
1143.512, 24.17367
1143.994, 23.26872
1144.476, 22.74318
1144.958, 22.81661
1145.440, 22.89339
1145.922, 22.66349
1146.405, 22.50911
1146.887, 23.03863
1147.369, 23.59419
1147.851, 23.16571
1148.333, 22.43721
1148.815, 22.52177
1149.297, 23.22172
1149.779, 23.81963
1150.262, 24.08212
1150.744, 23.96344
1151.226, 23.22084
1151.708, 22.44670
1152.190, 21.89096
1152.672, 21.59906
1153.154, 21.59007
1153.636, 21.87925
1154.119, 22.65736
1154.601, 23.77394
1155.083, 24.61497
1155.565, 25.04813
1156.047, 25.07536
1156.529, 24.48020
1157.011, 23.75864
1157.493, 22.76770
1157.975, 22.07323
1158.458, 22.34922
1158.940, 23.20269
1159.422, 23.87537
1159.904, 24.31503
1160.386, 24.35874
1160.868, 23.46716
1161.350, 22.98799
1161.832, 23.29815
1162.314, 23.74470
1162.797, 24.27438
1163.279, 24.59468
1163.761, 24.20824
1164.243, 24.55476
1164.725, 24.59160
1165.207, 24.31916
1165.689, 24.67245
1166.171, 23.99900
1166.654, 23.60517
1167.136, 23.86340
1167.618, 24.30388
1168.100, 24.69067
1168.582, 24.90342
1169.064, 24.71645
1169.546, 24.16408
1170.028, 23.43394
1170.510, 22.50757
1170.993, 22.30449
1171.475, 22.93312
1171.957, 23.51144
1172.439, 23.71629
1172.921, 23.54067
1173.403, 22.89873
1173.885, 22.17780
1174.367, 22.24662
1174.849, 22.19026
1175.332, 22.46330
1175.814, 23.13089
1176.296, 23.75420
1176.778, 25.00878
1177.260, 26.27169
1177.742, 27.23889
1178.224, 27.67316
1178.706, 27.29843
1179.189, 26.32881
1179.671, 24.42356
1180.153, 22.53097
1180.635, 22.30534
1181.117, 23.21102
1181.599, 23.91653
1182.081, 24.12594
1182.563, 24.17765
1183.046, 24.16467
1183.528, 24.23623
1184.010, 24.55087
1184.492, 24.89824
1184.974, 25.06882
1185.456, 25.25300
1185.938, 25.85148
1186.420, 26.57985
1186.902, 26.65374
1187.385, 25.90631
1187.867, 25.43716
1188.349, 25.88422
1188.831, 25.98374
1189.313, 25.02771
1189.795, 24.24080
1190.277, 24.19833
1190.759, 24.63253
1191.241, 25.61000
1191.724, 26.80677
1192.206, 26.88996
1192.688, 25.53288
1193.170, 24.44133
1193.652, 23.65663
1194.134, 22.98373
1194.616, 22.29163
1195.098, 22.06985
1195.581, 22.69924
1196.063, 23.61116
1196.545, 24.02591
1197.027, 24.05453
1197.509, 24.11487
1197.991, 24.22345
1198.473, 24.81348
1198.955, 25.83133
1199.438, 26.20556
1199.920, 25.66727
1200.402, 24.73463
1200.884, 23.71114
1201.366, 22.93529
1201.848, 22.94099
1202.330, 23.44565
1202.812, 24.19391
1203.294, 24.89432
1203.776, 24.81878
1204.259, 24.15761
1204.741, 23.57791
1205.223, 23.29951
1205.705, 23.32000
1206.187, 23.78076
1206.669, 24.16104
1207.151, 23.88748
1207.633, 23.62380
1208.116, 23.99620
1208.598, 24.59347
1209.080, 25.03700
1209.562, 25.24300
1210.044, 25.06789
1210.526, 24.44315
1211.008, 24.05175
1211.490, 24.34726
1211.973, 24.39226
1212.455, 23.74947
1212.937, 23.14639
1213.419, 22.70869
1213.901, 22.65640
1214.383, 23.39654
1214.865, 24.63149
1215.347, 25.35397
1215.829, 25.52179
1216.312, 25.40358
1216.794, 24.89633
1217.276, 24.62477
1217.758, 24.70391
1218.240, 25.04919
1218.722, 25.67550
1219.204, 26.16320
1219.686, 26.02719
1220.168, 25.44910
1220.651, 24.69921
1221.133, 23.92937
1221.615, 23.93355
1222.097, 24.51153
1222.579, 24.68923
1223.061, 24.35735
1223.543, 24.11345
1224.025, 24.24058
1224.508, 24.42883
1224.990, 24.36674
1225.472, 24.52792
1225.954, 24.44643
1226.436, 24.68677
1226.918, 24.78820
1227.400, 24.84296
1227.882, 25.08012
1228.365, 25.46121
1228.847, 25.69134
1229.329, 25.67854
1229.811, 25.55264
1230.293, 25.09002
1230.775, 24.88177
1231.257, 25.51125
1231.739, 26.02928
1232.221, 25.67468
1232.703, 24.96563
1233.186, 24.45068
1233.668, 24.17049
1234.150, 24.49005
1234.632, 24.46164
1235.114, 24.59946
1235.596, 25.36230
1236.078, 25.22659
1236.560, 26.26798
1237.043, 27.20009
1237.525, 27.30864
1238.007, 26.68951
1238.489, 25.18940
1238.971, 23.49127
1239.453, 23.77287
1239.935, 25.38750
1240.417, 26.32409
1240.900, 26.51687
1241.382, 26.04746
1241.864, 25.16451
1242.346, 24.91088
1242.828, 25.82045
1243.310, 26.71565
1243.792, 26.62136
1244.274, 26.17749
1244.756, 25.69752
1245.239, 25.30625
1245.721, 25.18564
1246.203, 25.19439
1246.685, 25.12167
1247.167, 24.95522
1247.649, 24.72077
1248.131, 24.20490
1248.613, 24.34705
1249.095, 26.18599
1249.578, 27.25720
1250.060, 26.71996
1250.542, 26.01040
1251.024, 25.87971
1251.506, 25.86332
1251.988, 25.34449
1252.470, 24.53278
1252.952, 24.23802
1253.435, 24.46668
1253.917, 25.00501
1254.399, 25.83844
1254.881, 26.73231
1255.363, 27.59876
1255.845, 27.85958
1256.327, 27.25946
1256.809, 26.41034
1257.292, 25.80123
1257.774, 25.47565
1258.256, 25.61912
1258.738, 25.98722
1259.220, 26.32601
1259.702, 26.57707
1260.184, 26.75447
1260.666, 26.78184
1261.148, 26.33493
1261.630, 25.31968
1262.113, 24.69637
1262.595, 24.90615
1263.077, 25.42017
1263.559, 26.65357
1264.041, 27.46138
1264.523, 27.12221
1265.005, 26.24030
1265.487, 24.98413
1265.970, 23.80925
1266.452, 23.87220
1266.934, 25.19751
1267.416, 26.07863
1267.898, 26.46361
1268.380, 26.80054
1268.862, 27.13259
1269.344, 27.47934
1269.827, 27.85250
1270.309, 27.75165
1270.791, 26.74786
1271.273, 25.67734
1271.755, 25.88100
1272.237, 26.71047
1272.719, 27.19422
1273.201, 27.29592
1273.683, 26.61233
1274.166, 25.61017
1274.648, 25.32968
1275.130, 25.90177
1275.612, 26.78911
1276.094, 27.92738
1276.576, 28.77177
1277.058, 28.96942
1277.540, 29.01748
1278.022, 29.28528
1278.505, 29.26655
1278.987, 28.33998
1279.469, 27.15270
1279.951, 26.28382
1280.433, 25.83294
1280.915, 26.37944
1281.397, 28.19568
1281.879, 28.81757
1282.362, 28.14201
1282.844, 27.35766
1283.326, 26.64943
1283.808, 26.13232
1284.290, 25.85230
1284.772, 25.97820
1285.254, 26.62691
1285.736, 27.79831
##END=



