##NAMES=Fayalite
##RRUFFID=R100104
##IDEAL CHEMISTRY=Fe^2+^_2_SiO_4_
##LOCALITY=Dannemora, Uppsala Province, Sweden
##OWNER=RRUFF
##SOURCE=American Museum of Natural History
##DESCRIPTION=Dark brown fragment, variety knebelite
##STATUS=The identification of this mineral is confirmed by single-crystal X-ray diffraction and chemical analysis.
##URL=rruff.info/R100104
##MEASURED CHEMISTRY=(Fe^+2^_1.020_Mn^+2^_0.931_Mg_0.052_Ca_0.002_Zn_0.001_)_Î£=2.006_Si_0.997_O_4_
128.5794, 9.642852
129.0615, 9.608485
129.5436, 10.09447
130.0258, 11.43515
130.5079, 13.00307
130.9900, 13.53402
131.4721, 13.02436
131.9542, 12.44799
132.4363, 12.87430
132.9185, 14.11981
133.4006, 14.88078
133.8827, 14.56923
134.3648, 13.54756
134.8469, 13.11952
135.3290, 13.35110
135.8112, 13.88926
136.2933, 14.23435
136.7754, 14.34704
137.2575, 14.90045
137.7396, 16.32508
138.2217, 18.56347
138.7039, 20.34524
139.1860, 21.56959
139.6681, 22.49859
140.1502, 23.54474
140.6323, 24.72623
141.1144, 25.92826
141.5966, 27.06884
142.0787, 28.07220
142.5608, 29.36769
143.0429, 31.10072
143.5250, 33.04020
144.0071, 34.60145
144.4893, 35.49948
144.9714, 36.46045
145.4535, 37.68996
145.9356, 38.73693
146.4177, 41.05904
146.8998, 45.36565
147.3820, 51.05270
147.8641, 55.74716
148.3462, 58.36616
148.8283, 60.95199
149.3104, 64.65215
149.7925, 70.64429
150.2747, 76.20262
150.7568, 81.29264
151.2389, 85.88097
151.7210, 89.42665
152.2031, 92.02813
152.6852, 93.50820
153.1674, 93.77785
153.6495, 91.39827
154.1316, 89.29155
154.6137, 87.94954
155.0958, 87.39348
155.5779, 86.84816
156.0601, 85.99147
156.5422, 85.20972
157.0243, 84.84469
157.5064, 84.34829
157.9885, 84.83839
158.4706, 86.96146
158.9528, 90.93430
159.4349, 94.80797
159.9170, 97.63585
160.3991, 100.2328
160.8812, 103.5408
161.3633, 107.9100
161.8455, 112.9837
162.3276, 118.8117
162.8097, 125.4715
163.2918, 132.1119
163.7739, 138.7427
164.2560, 144.8838
164.7382, 149.0910
165.2203, 153.1275
165.7024, 155.4546
166.1845, 154.9840
166.6666, 151.5465
167.1487, 145.6969
167.6309, 136.3687
168.1130, 124.7958
168.5951, 113.7489
169.0772, 104.1353
169.5593, 95.66714
170.0414, 88.02409
170.5236, 80.91853
171.0057, 75.03797
171.4878, 71.33293
171.9699, 69.27961
172.4520, 67.38450
172.9341, 64.40054
173.4163, 61.21535
173.8984, 58.94326
174.3805, 58.11341
174.8626, 57.74732
175.3447, 56.90120
175.8268, 55.66909
176.3090, 54.48441
176.7911, 53.44085
177.2732, 52.67410
177.7553, 52.53112
178.2374, 53.62007
178.7195, 54.77838
179.2017, 54.14091
179.6838, 51.88939
180.1659, 49.80116
180.6480, 49.46858
181.1301, 50.32763
181.6122, 51.07416
182.0944, 51.39669
182.5765, 51.36468
183.0586, 50.95203
183.5407, 50.17113
184.0228, 49.43290
184.5049, 49.14816
184.9871, 49.22728
185.4692, 49.37422
185.9513, 49.58818
186.4334, 49.77501
186.9155, 49.63808
187.3976, 49.15162
187.8798, 48.64964
188.3619, 48.49128
188.8440, 48.63451
189.3261, 48.81987
189.8082, 48.91883
190.2903, 48.99318
190.7725, 49.30902
191.2546, 49.90426
191.7367, 50.56209
192.2188, 51.00985
192.7009, 51.26456
193.1830, 51.57830
193.6652, 52.12621
194.1473, 52.84531
194.6294, 53.34818
195.1115, 53.66137
195.5936, 53.68002
196.0757, 53.06561
196.5579, 51.78809
197.0400, 50.75585
197.5221, 50.48724
198.0042, 50.91413
198.4863, 50.95559
198.9684, 50.55656
199.4506, 49.89272
199.9327, 49.15842
200.4148, 48.32859
200.8969, 47.61982
201.3790, 47.14928
201.8611, 46.92785
202.3433, 46.62758
202.8254, 46.14851
203.3075, 45.74601
203.7896, 45.99622
204.2717, 47.05852
204.7538, 47.96231
205.2360, 48.23878
205.7181, 47.81617
206.2002, 47.41426
206.6823, 47.01052
207.1644, 46.65337
207.6465, 46.45040
208.1287, 46.43657
208.6108, 46.46031
209.0929, 46.39792
209.5750, 46.17300
210.0571, 46.33937
210.5392, 47.08153
211.0214, 48.05167
211.5035, 48.44593
211.9856, 48.03254
212.4677, 47.67907
212.9498, 47.82727
213.4319, 48.62743
213.9140, 49.28149
214.3962, 49.74401
214.8783, 50.08316
215.3604, 50.45754
215.8425, 50.90873
216.3246, 51.30718
216.8067, 51.47865
217.2889, 51.14959
217.7710, 51.58857
218.2531, 53.13951
218.7352, 55.29707
219.2173, 56.84843
219.6994, 57.53675
220.1816, 58.11646
220.6637, 58.93444
221.1458, 60.06197
221.6279, 61.25004
222.1100, 62.58931
222.5921, 63.95599
223.0743, 64.95728
223.5564, 65.16154
224.0385, 65.75323
224.5206, 67.44957
225.0027, 71.05211
225.4848, 73.60874
225.9670, 74.64272
226.4491, 74.73046
226.9312, 75.39242
227.4133, 76.81650
227.8954, 78.50706
228.3775, 80.17336
228.8597, 81.66851
229.3418, 83.60136
229.8239, 86.21047
230.3060, 89.20347
230.7881, 91.66894
231.2702, 93.38841
231.7524, 94.95327
232.2345, 96.62125
232.7166, 98.54708
233.1987, 100.2282
233.6808, 101.3763
234.1629, 102.3439
234.6451, 104.1417
235.1272, 107.0833
235.6093, 110.3728
236.0914, 113.7466
236.5735, 117.4896
237.0556, 120.6328
237.5378, 122.8560
238.0199, 124.5795
238.5020, 126.9638
238.9841, 130.7941
239.4662, 134.1714
239.9483, 136.2241
240.4305, 136.3340
240.9126, 136.5689
241.3947, 137.2346
241.8768, 137.9287
242.3589, 137.6622
242.8410, 136.2879
243.3232, 134.1828
243.8053, 131.4388
244.2874, 127.7686
244.7695, 124.1044
245.2516, 120.3092
245.7337, 116.5501
246.2159, 113.2639
246.6980, 110.8219
247.1801, 108.2611
247.6622, 105.0903
248.1443, 100.8664
248.6264, 97.25771
249.1086, 94.32761
249.5907, 91.95438
250.0728, 89.97215
250.5549, 88.72457
251.0370, 87.28188
251.5191, 85.12186
252.0013, 81.77175
252.4834, 79.36276
252.9655, 78.13504
253.4476, 77.71920
253.9297, 77.56023
254.4118, 77.98486
254.8940, 78.04904
255.3761, 77.23728
255.8582, 75.11932
256.3403, 73.91162
256.8224, 74.02281
257.3046, 74.72872
257.7867, 74.75690
258.2688, 73.70005
258.7509, 72.82875
259.2330, 72.60880
259.7151, 73.15434
260.1973, 73.64857
260.6794, 73.98058
261.1615, 74.36088
261.6436, 75.16550
262.1257, 76.66230
262.6078, 77.94115
263.0900, 78.64369
263.5721, 78.69800
264.0542, 78.95692
264.5363, 79.51720
265.0184, 80.16673
265.5005, 80.59297
265.9827, 80.63388
266.4648, 80.90683
266.9469, 81.57941
267.4290, 82.64883
267.9111, 84.01973
268.3932, 85.82875
268.8754, 87.71105
269.3575, 89.21153
269.8396, 90.23354
270.3217, 91.28658
270.8038, 92.52345
271.2859, 93.93864
271.7681, 95.17126
272.2502, 96.14018
272.7323, 97.09550
273.2144, 98.27670
273.6965, 99.72340
274.1786, 101.1915
274.6608, 102.5870
275.1429, 103.9537
275.6250, 105.7542
276.1071, 108.1423
276.5892, 110.5181
277.0714, 112.2975
277.5535, 113.4614
278.0356, 114.2995
278.5177, 114.7956
278.9998, 115.0254
279.4819, 115.2339
279.9641, 115.3805
280.4462, 115.6895
280.9283, 116.5427
281.4104, 117.9675
281.8925, 118.8433
282.3746, 118.8877
282.8568, 118.3598
283.3389, 118.0597
283.8210, 118.0464
284.3031, 117.7978
284.7852, 116.8562
285.2673, 115.2627
285.7495, 113.6004
286.2316, 111.8975
286.7137, 110.2163
287.1958, 108.5920
287.6779, 107.0138
288.1600, 105.7913
288.6422, 105.3880
289.1243, 105.6417
289.6064, 105.3911
290.0885, 104.4734
290.5706, 103.1937
291.0527, 101.8896
291.5349, 100.5802
292.0170, 99.53378
292.4991, 98.91003
292.9812, 98.67397
293.4633, 98.76871
293.9454, 99.22707
294.4276, 99.86510
294.9097, 100.4791
295.3918, 101.0721
295.8739, 101.6461
296.3560, 102.0646
296.8381, 102.4763
297.3203, 103.2709
297.8024, 104.4770
298.2845, 105.8213
298.7666, 107.3204
299.2487, 108.7710
299.7308, 109.5896
300.2130, 108.9536
300.6951, 107.7531
301.1772, 107.5804
301.6593, 108.4317
302.1414, 109.3492
302.6235, 109.6742
303.1057, 109.4505
303.5878, 108.7398
304.0699, 107.3220
304.5520, 105.6150
305.0341, 104.0867
305.5162, 102.7226
305.9984, 101.3342
306.4805, 99.74171
306.9626, 98.06197
307.4447, 96.51835
307.9268, 95.32532
308.4089, 94.04708
308.8911, 92.25802
309.3732, 90.03263
309.8553, 87.68027
310.3374, 85.28402
310.8195, 82.89014
311.3016, 80.57170
311.7838, 78.34692
312.2659, 76.20008
312.7480, 74.10256
313.2301, 72.10137
313.7122, 70.26614
314.1943, 68.60271
314.6765, 67.11827
315.1586, 65.87241
315.6407, 64.96909
316.1228, 63.97776
316.6049, 62.57000
317.0870, 60.95835
317.5692, 59.51390
318.0513, 58.47377
318.5334, 57.52924
319.0155, 56.51139
319.4976, 55.37023
319.9797, 54.34365
320.4619, 53.70785
320.9440, 53.15300
321.4261, 52.34208
321.9082, 50.73411
322.3903, 49.29403
322.8724, 48.41710
323.3546, 48.12542
323.8367, 47.73169
324.3188, 46.83453
324.8009, 45.93330
325.2830, 45.41851
325.7651, 45.67144
326.2473, 45.93547
326.7294, 46.16774
327.2115, 46.35254
327.6936, 46.37331
328.1757, 46.19043
328.6578, 45.86620
329.1400, 45.42572
329.6221, 44.69434
330.1042, 44.09491
330.5863, 43.79047
331.0684, 43.62138
331.5505, 43.09540
332.0327, 41.69487
332.5148, 40.54051
332.9969, 40.13720
333.4790, 40.86826
333.9611, 41.31736
334.4432, 41.45408
334.9254, 41.32478
335.4075, 40.97308
335.8896, 40.26157
336.3717, 39.59641
336.8538, 39.08900
337.3359, 38.73434
337.8180, 38.53532
338.3001, 38.45110
338.7823, 38.58381
339.2644, 39.24528
339.7465, 40.71094
340.2286, 41.47430
340.7107, 40.92863
341.1928, 39.31635
341.6750, 38.43540
342.1571, 38.38837
342.6392, 38.63441
343.1213, 38.72621
343.6034, 38.65860
344.0855, 38.72018
344.5677, 38.99038
345.0498, 39.38221
345.5319, 39.63464
346.0140, 39.73921
346.4961, 39.94181
346.9782, 40.46769
347.4604, 41.25211
347.9425, 42.01241
348.4246, 42.78766
348.9067, 43.36190
349.3888, 43.24996
349.8709, 42.57541
350.3531, 42.02166
350.8352, 41.99739
351.3173, 42.31345
351.7994, 42.62746
352.2815, 42.92699
352.7636, 43.22832
353.2458, 43.58233
353.7279, 43.94965
354.2100, 44.24020
354.6921, 44.22586
355.1742, 44.24852
355.6563, 44.69982
356.1385, 45.55559
356.6206, 46.57065
357.1027, 47.84671
357.5848, 49.08656
358.0669, 49.90042
358.5490, 49.81360
359.0312, 49.82769
359.5133, 50.59684
359.9954, 51.99058
360.4775, 53.60611
360.9596, 55.66109
361.4417, 57.59998
361.9239, 59.01337
362.4060, 59.68602
362.8881, 60.27631
363.3702, 60.94336
363.8523, 61.69879
364.3344, 62.56057
364.8166, 63.49102
365.2987, 64.57587
365.7808, 65.90556
366.2629, 67.54080
366.7450, 69.01562
367.2271, 70.15958
367.7093, 71.16136
368.1914, 72.18698
368.6735, 72.97926
369.1556, 74.11229
369.6377, 75.91784
370.1198, 78.28353
370.6020, 80.06673
371.0841, 80.63463
371.5662, 81.21360
372.0483, 82.50188
372.5304, 85.17731
373.0125, 87.30136
373.4947, 88.69773
373.9768, 89.55111
374.4589, 90.22758
374.9410, 90.50713
375.4231, 91.07835
375.9052, 92.41138
376.3874, 94.71761
376.8695, 96.03756
377.3516, 96.07774
377.8337, 95.64820
378.3158, 95.82485
378.7979, 96.70992
379.2801, 97.46397
379.7622, 97.95668
380.2443, 98.13314
380.7264, 97.56956
381.2085, 96.16124
381.6906, 94.76803
382.1728, 94.27079
382.6549, 94.50815
383.1370, 94.49442
383.6191, 94.05888
384.1012, 93.30446
384.5833, 92.25114
385.0655, 90.94568
385.5476, 89.75174
386.0297, 88.77493
386.5118, 88.05965
386.9939, 87.86111
387.4760, 88.30742
387.9582, 88.52697
388.4403, 87.29402
388.9224, 85.23121
389.4045, 83.64214
389.8866, 83.68970
390.3687, 83.99234
390.8509, 83.19241
391.3330, 81.39219
391.8151, 79.77353
392.2972, 79.13577
392.7793, 78.98560
393.2614, 78.86970
393.7436, 78.79180
394.2257, 78.55936
394.7078, 77.88951
395.1899, 76.98437
395.6720, 76.37458
396.1541, 76.79086
396.6363, 77.09375
397.1184, 76.67897
397.6005, 75.24705
398.0826, 73.85020
398.5647, 72.61353
399.0468, 71.50651
399.5290, 70.49216
400.0111, 69.36863
400.4932, 68.56095
400.9753, 68.31194
401.4574, 68.61707
401.9395, 68.56622
402.4217, 68.22301
402.9038, 67.45926
403.3859, 66.05324
403.8680, 63.40967
404.3501, 61.57795
404.8322, 60.95705
405.3144, 61.11742
405.7965, 61.02301
406.2786, 60.71763
406.7607, 60.01118
407.2428, 58.58213
407.7249, 56.38289
408.2071, 54.96718
408.6892, 54.45345
409.1713, 54.34324
409.6534, 54.13040
410.1355, 53.80942
410.6176, 53.25942
411.0998, 52.38103
411.5819, 51.28899
412.0640, 50.15951
412.5461, 49.01054
413.0282, 48.05505
413.5103, 47.72401
413.9925, 47.68494
414.4746, 47.12693
414.9567, 45.72423
415.4388, 44.35206
415.9209, 44.00950
416.4030, 44.41138
416.8852, 44.84046
417.3673, 45.12732
417.8494, 45.16244
418.3315, 44.74725
418.8136, 43.86903
419.2957, 43.00364
419.7779, 42.51434
420.2600, 42.13457
420.7421, 41.60510
421.2242, 40.47200
421.7063, 39.56874
422.1884, 39.29968
422.6706, 39.50693
423.1527, 39.58159
423.6348, 39.23592
424.1169, 38.84731
424.5990, 38.57092
425.0811, 38.40935
425.5633, 38.39657
426.0454, 38.91111
426.5275, 39.41763
427.0096, 39.17879
427.4917, 37.43373
427.9738, 36.11174
428.4560, 35.75401
428.9381, 36.30334
429.4202, 36.49501
429.9023, 36.20417
430.3844, 35.78385
430.8665, 35.46693
431.3487, 35.25528
431.8308, 35.17885
432.3129, 35.33768
432.7950, 35.50476
433.2771, 35.00470
433.7592, 33.80043
434.2414, 32.97267
434.7235, 33.30650
435.2056, 34.46269
435.6877, 34.99645
436.1698, 34.86467
436.6519, 34.62812
437.1341, 35.14766
437.6162, 36.01261
438.0983, 36.04940
438.5804, 34.43828
439.0625, 32.58996
439.5446, 32.27822
440.0268, 33.16881
440.5089, 34.04118
440.9910, 34.32658
441.4731, 34.19447
441.9552, 33.67762
442.4373, 32.69443
442.9195, 31.85767
443.4016, 31.50045
443.8837, 31.45940
444.3658, 31.53597
444.8479, 31.65253
445.3300, 31.89733
445.8122, 32.46581
446.2943, 33.28308
446.7764, 33.74579
447.2585, 33.39769
447.7406, 32.95637
448.2227, 32.82183
448.7049, 33.46144
449.1870, 33.49040
449.6691, 32.46273
450.1512, 31.04566
450.6333, 30.37202
451.1154, 30.86204
451.5976, 31.16077
452.0797, 30.76376
452.5618, 29.75404
453.0439, 29.43004
453.5260, 29.91162
454.0081, 30.71738
454.4903, 31.65749
454.9724, 32.71611
455.4545, 33.22246
455.9366, 32.98757
456.4187, 32.38391
456.9008, 32.01648
457.3830, 31.85524
457.8651, 31.70523
458.3472, 31.45769
458.8293, 31.16138
459.3114, 30.87666
459.7935, 30.60758
460.2757, 30.40318
460.7578, 30.41531
461.2399, 30.48565
461.7220, 30.35955
462.2041, 29.78937
462.6862, 29.31668
463.1684, 29.41174
463.6505, 29.87466
464.1326, 30.24132
464.6147, 30.21078
465.0968, 30.13236
465.5789, 30.17951
466.0611, 30.37716
466.5432, 30.60573
467.0253, 30.86779
467.5074, 31.13538
467.9895, 31.38448
468.4716, 31.67749
468.9538, 31.86563
469.4359, 31.79989
469.9180, 31.62361
470.4001, 31.88474
470.8822, 33.02354
471.3643, 33.80583
471.8465, 33.57864
472.3286, 32.20017
472.8107, 31.30467
473.2928, 30.93880
473.7749, 30.95890
474.2570, 31.42727
474.7392, 32.33789
475.2213, 32.79080
475.7034, 32.50668
476.1855, 31.75733
476.6676, 30.94680
477.1497, 30.10186
477.6319, 29.50470
478.1140, 29.41909
478.5961, 29.65304
479.0782, 29.86420
479.5603, 30.01830
480.0424, 30.31333
480.5246, 31.21832
481.0067, 32.28222
481.4888, 32.85505
481.9709, 32.33777
482.4530, 31.73737
482.9352, 31.55333
483.4173, 31.70169
483.8994, 31.91718
484.3815, 32.06582
484.8636, 32.29923
485.3457, 32.82981
485.8279, 33.92823
486.3100, 34.34522
486.7921, 33.14726
487.2742, 31.67763
487.7563, 31.12504
488.2384, 32.02443
488.7206, 32.95291
489.2027, 33.87037
489.6848, 34.68578
490.1669, 34.93856
490.6490, 34.38548
491.1311, 34.00583
491.6133, 34.41018
492.0954, 35.58176
492.5775, 36.34782
493.0596, 36.66892
493.5417, 36.73078
494.0238, 36.66881
494.5060, 36.50434
494.9881, 36.30732
495.4702, 36.01843
495.9523, 35.82986
496.4344, 36.08375
496.9165, 36.69876
497.3987, 37.36673
497.8808, 38.18516
498.3629, 38.81937
498.8450, 38.72377
499.3271, 37.81427
499.8092, 37.26758
500.2914, 38.06141
500.7735, 39.34367
501.2556, 40.32735
501.7377, 40.70625
502.2198, 40.88739
502.7019, 40.75389
503.1841, 40.47484
503.6662, 40.51066
504.1483, 41.12432
504.6304, 41.81974
505.1125, 42.44924
505.5946, 42.99994
506.0768, 43.71088
506.5589, 44.81986
507.0410, 45.72804
507.5231, 45.74648
508.0052, 44.64495
508.4873, 44.26153
508.9695, 45.00527
509.4516, 46.23503
509.9337, 46.66850
510.4158, 46.35120
510.8979, 46.14978
511.3800, 46.69626
511.8622, 47.53784
512.3443, 47.66156
512.8264, 47.08339
513.3085, 46.12436
513.7906, 44.72017
514.2728, 43.19592
514.7549, 41.94649
515.2370, 41.01855
515.7191, 40.45984
516.2012, 40.75715
516.6833, 41.34610
517.1655, 41.36483
517.6476, 39.85909
518.1297, 38.41064
518.6118, 37.67658
519.0939, 37.59417
519.5760, 37.29749
520.0582, 36.41285
520.5403, 35.53129
521.0224, 34.93070
521.5045, 34.74453
521.9866, 34.42669
522.4688, 33.89751
522.9509, 33.32371
523.4330, 32.81364
523.9151, 32.28863
524.3972, 32.35072
524.8793, 33.41526
525.3615, 34.90375
525.8436, 35.07122
526.3257, 33.93908
526.8078, 32.96179
527.2899, 33.40512
527.7720, 34.54023
528.2542, 34.50438
528.7363, 33.18422
529.2184, 31.86529
529.7005, 31.62823
530.1826, 32.06878
530.6647, 32.71018
531.1469, 33.71917
531.6290, 34.39265
532.1111, 33.89845
532.5932, 32.80975
533.0753, 32.29657
533.5574, 33.38863
534.0396, 34.44312
534.5217, 34.84531
535.0038, 34.52833
535.4859, 34.27587
535.9680, 34.01404
536.4501, 33.91373
536.9323, 34.07711
537.4144, 34.55205
537.8965, 35.23391
538.3786, 36.31969
538.8607, 37.34506
539.3428, 37.35107
539.8250, 36.22489
540.3071, 35.66853
540.7892, 36.35423
541.2713, 37.77134
541.7534, 38.84741
542.2355, 39.56769
542.7177, 39.76777
543.1998, 38.65224
543.6819, 37.20555
544.1640, 37.21459
544.6461, 38.87716
545.1282, 40.46633
545.6104, 40.50924
546.0925, 39.90558
546.5746, 39.68540
547.0567, 40.57846
547.5388, 41.26612
548.0209, 40.93998
548.5031, 40.10949
548.9852, 39.88941
549.4673, 41.05505
549.9494, 42.21391
550.4315, 43.10438
550.9136, 43.72622
551.3958, 43.91018
551.8779, 43.43423
552.3600, 42.89412
552.8421, 42.73911
553.3242, 43.04456
553.8063, 42.99059
554.2885, 42.49110
554.7706, 41.77398
555.2527, 41.03988
555.7348, 40.31894
556.2169, 39.80824
556.6990, 39.61722
557.1812, 39.60732
557.6633, 39.69210
558.1454, 39.81990
558.6275, 39.79566
559.1096, 39.29280
559.5917, 38.73991
560.0739, 38.48671
560.5560, 38.55788
561.0381, 38.77395
561.5202, 39.39139
562.0023, 39.92207
562.4844, 39.98477
562.9666, 39.07085
563.4487, 38.37474
563.9308, 38.12450
564.4129, 38.05579
564.8950, 37.71474
565.3771, 36.81907
565.8593, 36.31007
566.3414, 36.50010
566.8235, 37.22502
567.3056, 37.88538
567.7877, 38.53239
568.2698, 38.70266
568.7520, 37.73121
569.2341, 36.01361
569.7162, 35.07410
570.1983, 34.99160
570.6804, 35.26774
571.1625, 35.72985
571.6447, 36.17060
572.1268, 36.21279
572.6089, 35.60760
573.0910, 34.93618
573.5731, 34.52100
574.0552, 34.30145
574.5374, 34.16246
575.0195, 34.28178
575.5016, 34.26253
575.9837, 33.89575
576.4658, 33.21467
576.9479, 32.63480
577.4301, 32.04622
577.9122, 31.70941
578.3943, 31.81226
578.8764, 32.47972
579.3585, 32.88299
579.8406, 32.99141
580.3228, 32.90398
580.8049, 32.68382
581.2870, 32.33805
581.7691, 31.97626
582.2512, 31.62250
582.7333, 31.25080
583.2155, 30.75712
583.6975, 30.20521
584.1796, 29.77282
584.6617, 29.67042
585.1439, 29.63688
585.6260, 29.38909
586.1081, 28.97841
586.5902, 28.66737
587.0723, 28.66465
587.5544, 28.73013
588.0366, 28.74475
588.5187, 28.70599
589.0008, 28.56968
589.4829, 28.17081
589.9650, 27.78102
590.4471, 27.60232
590.9293, 27.68444
591.4114, 27.87319
591.8935, 28.18677
592.3756, 28.57369
592.8577, 28.97066
593.3398, 29.38026
593.8220, 29.71302
594.3041, 29.98026
594.7862, 30.12133
595.2683, 29.98234
595.7504, 29.57707
596.2325, 28.99640
596.7147, 27.90544
597.1968, 26.88220
597.6789, 26.80765
598.1610, 27.76172
598.6431, 28.45288
599.1252, 27.68498
599.6074, 26.62142
600.0895, 26.26515
600.5716, 27.42899
601.0537, 28.19790
601.5358, 27.96308
602.0179, 27.30587
602.5001, 26.95548
602.9822, 26.99391
603.4643, 27.20901
603.9464, 27.69324
604.4285, 28.27887
604.9106, 28.31672
605.3928, 27.73213
605.8749, 27.27333
606.3570, 27.44489
606.8391, 28.01771
607.3212, 28.18201
607.8033, 27.95452
608.2855, 27.75246
608.7676, 27.83801
609.2497, 28.16504
609.7318, 28.84109
610.2139, 30.05456
610.6960, 30.76107
611.1782, 29.84803
611.6603, 28.37260
612.1424, 27.44758
612.6245, 27.74692
613.1066, 28.11279
613.5887, 28.47754
614.0709, 28.79579
614.5530, 28.96095
615.0351, 28.86827
615.5172, 28.84146
615.9993, 28.97857
616.4814, 29.25262
616.9636, 29.56654
617.4457, 29.93504
617.9278, 30.17425
618.4099, 30.03251
618.8920, 29.68121
619.3741, 29.71826
619.8563, 30.17386
620.3384, 30.40592
620.8205, 29.50324
621.3026, 28.24021
621.7847, 27.59584
622.2668, 27.94403
622.7490, 28.43869
623.2311, 28.76378
623.7132, 29.00132
624.1953, 29.25623
624.6774, 29.58122
625.1595, 29.88624
625.6417, 30.24067
626.1238, 30.55633
626.6059, 30.51159
627.0880, 29.91956
627.5701, 29.53378
628.0522, 29.66227
628.5344, 30.21398
629.0165, 30.88850
629.4986, 31.69746
629.9807, 32.13126
630.4628, 31.41430
630.9449, 30.18701
631.4271, 29.73569
631.9092, 30.18118
632.3913, 30.69489
632.8734, 30.51830
633.3555, 30.17904
633.8376, 30.25576
634.3198, 31.13808
634.8019, 31.91868
635.2840, 32.54427
635.7661, 32.86221
636.2482, 32.63636
636.7303, 31.25989
637.2125, 30.35708
637.6946, 30.21746
638.1767, 30.66258
638.6588, 31.31634
639.1409, 32.26084
639.6230, 32.87704
640.1052, 32.86295
640.5873, 32.36602
641.0694, 31.55809
641.5515, 30.50232
642.0336, 29.99536
642.5157, 31.17679
642.9979, 32.88262
643.4800, 33.65377
643.9621, 33.33420
644.4442, 33.04552
644.9263, 33.52584
645.4084, 34.16143
645.8906, 34.42328
646.3727, 33.80138
646.8548, 33.61686
647.3369, 34.37173
647.8190, 35.29059
648.3011, 35.28858
648.7833, 33.84873
649.2654, 33.29078
649.7475, 34.22459
650.2296, 35.89980
650.7117, 36.81855
651.1938, 37.02874
651.6760, 36.99221
652.1581, 36.61940
652.6402, 36.33562
653.1223, 36.99778
653.6044, 38.38525
654.0865, 39.60687
654.5687, 40.15786
655.0508, 40.36670
655.5329, 40.27550
656.0150, 39.87489
656.4971, 39.86868
656.9792, 41.00362
657.4614, 42.09092
657.9435, 42.45147
658.4256, 41.83607
658.9077, 41.34059
659.3898, 40.94932
659.8719, 40.70478
660.3541, 40.81043
660.8362, 41.24287
661.3183, 41.10617
661.8004, 40.12815
662.2825, 39.01084
662.7646, 38.81804
663.2468, 39.21327
663.7289, 39.34232
664.2110, 38.49742
664.6931, 37.79381
665.1752, 38.40908
665.6573, 39.75817
666.1395, 40.46839
666.6216, 39.35007
667.1037, 38.33172
667.5858, 38.36278
668.0679, 39.19713
668.5500, 38.91521
669.0322, 36.69651
669.5143, 34.99237
669.9964, 35.16468
670.4785, 37.05236
670.9606, 38.03082
671.4427, 38.05546
671.9249, 37.60820
672.4070, 36.68567
672.8891, 35.64925
673.3712, 35.41075
673.8533, 36.11931
674.3354, 36.89561
674.8176, 37.08232
675.2997, 37.01841
675.7818, 37.07351
676.2639, 37.48929
676.7460, 37.72828
677.2281, 37.49834
677.7103, 37.09869
678.1924, 36.89750
678.6745, 36.99751
679.1566, 37.07930
679.6387, 37.10947
680.1208, 37.09259
680.6030, 36.97821
681.0851, 36.76931
681.5672, 36.75893
682.0493, 37.24791
682.5314, 37.81021
683.0135, 37.47033
683.4957, 36.47580
683.9778, 35.81647
684.4599, 36.55962
684.9420, 37.39297
685.4241, 37.24733
685.9063, 36.17798
686.3884, 35.43004
686.8705, 35.85157
687.3526, 36.18515
687.8347, 35.72658
688.3168, 34.25667
688.7990, 33.64150
689.2811, 34.16015
689.7632, 34.88841
690.2453, 35.07511
690.7274, 34.76964
691.2095, 34.53573
691.6917, 34.38719
692.1738, 34.47764
692.6559, 35.32433
693.1380, 36.43026
693.6201, 36.89021
694.1022, 36.31903
694.5844, 35.57911
695.0665, 35.03668
695.5486, 34.66222
696.0307, 34.41701
696.5128, 34.35936
696.9949, 34.36235
697.4771, 34.50877
697.9592, 34.66636
698.4413, 34.48624
698.9234, 33.80227
699.4055, 33.47102
699.8876, 33.81637
700.3698, 34.56649
700.8519, 35.09075
701.3340, 35.40142
701.8161, 35.55790
702.2982, 35.52238
702.7803, 35.39528
703.2625, 35.23690
703.7446, 35.06738
704.2267, 34.98472
704.7088, 35.18589
705.1909, 35.34912
705.6730, 35.31914
706.1552, 35.07619
706.6373, 34.66818
707.1194, 33.74983
707.6015, 33.15629
708.0836, 33.49765
708.5657, 34.83771
709.0479, 35.73059
709.5300, 36.13477
710.0121, 36.34083
710.4942, 36.67058
710.9763, 36.99286
711.4584, 36.97871
711.9406, 36.56108
712.4227, 35.99749
712.9048, 35.18423
713.3869, 34.46351
713.8690, 34.22424
714.3511, 34.86248
714.8333, 35.42926
715.3154, 35.84479
715.7975, 36.05001
716.2796, 35.90415
716.7617, 35.17698
717.2438, 34.79595
717.7260, 34.91875
718.2081, 35.36483
718.6902, 35.95313
719.1723, 36.64232
719.6544, 37.05321
720.1365, 36.99494
720.6187, 36.72155
721.1008, 36.46061
721.5829, 36.21949
722.0650, 36.00891
722.5471, 35.67844
723.0292, 35.53767
723.5114, 35.86938
723.9935, 36.54073
724.4756, 36.98035
724.9577, 37.12737
725.4398, 37.08700
725.9219, 36.79201
726.4041, 36.32608
726.8862, 36.20409
727.3683, 36.44761
727.8504, 36.78486
728.3325, 37.17041
728.8146, 37.51338
729.2968, 37.60488
729.7789, 37.45515
730.2610, 37.16494
730.7431, 36.36144
731.2252, 35.76794
731.7073, 36.10764
732.1895, 37.53486
732.6716, 38.59528
733.1537, 38.82308
733.6358, 38.79835
734.1179, 38.77467
734.6000, 38.75380
735.0822, 38.68408
735.5643, 38.51463
736.0464, 38.46538
736.5285, 38.96258
737.0106, 39.77470
737.4927, 39.89662
737.9749, 39.16425
738.4570, 38.39391
738.9391, 38.20862
739.4212, 38.43132
739.9033, 38.94744
740.3854, 39.99791
740.8676, 40.67413
741.3497, 40.31657
741.8318, 39.68624
742.3139, 39.59972
742.7960, 40.40213
743.2781, 40.85698
743.7603, 40.79335
744.2424, 40.51431
744.7245, 40.41370
745.2066, 40.48442
745.6887, 40.68131
746.1708, 41.02515
746.6530, 41.41191
747.1351, 41.75661
747.6172, 42.05305
748.0993, 42.28784
748.5814, 42.45177
749.0635, 42.55770
749.5457, 42.57902
750.0278, 42.55116
750.5099, 42.53105
750.9920, 42.38146
751.4741, 42.54909
751.9562, 43.30781
752.4384, 44.28561
752.9205, 44.30184
753.4026, 43.39347
753.8847, 42.92451
754.3668, 43.61901
754.8489, 44.81569
755.3311, 45.64873
755.8132, 46.19619
756.2953, 46.66023
756.7774, 47.39783
757.2595, 47.82596
757.7416, 47.35173
758.2238, 46.21407
758.7059, 45.73914
759.1880, 46.26042
759.6701, 47.01382
760.1522, 47.88212
760.6343, 48.79939
761.1165, 49.46024
761.5986, 49.85816
762.0807, 50.05172
762.5628, 50.06286
763.0449, 49.89457
763.5270, 49.34390
764.0092, 48.53258
764.4913, 48.10218
764.9734, 48.60845
765.4555, 49.44217
765.9376, 50.42676
766.4197, 51.54947
766.9019, 52.08232
767.3840, 51.58086
767.8661, 51.08516
768.3482, 50.95615
768.8303, 51.20010
769.3124, 52.32660
769.7946, 54.45097
770.2767, 55.93628
770.7588, 54.86934
771.2409, 52.65322
771.7230, 51.77082
772.2051, 52.29401
772.6873, 53.32550
773.1694, 54.79750
773.6515, 56.24038
774.1336, 57.30917
774.6157, 57.89521
775.0978, 58.55646
775.5800, 59.24270
776.0621, 60.10315
776.5442, 61.38350
777.0263, 63.13588
777.5084, 64.06530
777.9905, 64.10302
778.4727, 64.03339
778.9548, 64.47742
779.4369, 65.28822
779.9190, 66.30492
780.4011, 67.51493
780.8832, 68.60283
781.3654, 69.16462
781.8475, 69.67744
782.3296, 70.54461
782.8117, 72.00811
783.2938, 73.10811
783.7759, 73.39497
784.2581, 73.95217
784.7402, 75.84415
785.2223, 79.06495
785.7044, 81.51534
786.1865, 83.01955
786.6686, 84.43193
787.1508, 86.56551
787.6329, 89.12134
788.1150, 91.66863
788.5971, 94.14371
789.0792, 96.71004
789.5613, 99.46175
790.0435, 102.3747
790.5256, 105.4210
791.0077, 108.3282
791.4898, 112.0417
791.9719, 116.6624
792.4540, 121.8906
792.9362, 127.3851
793.4183, 133.2004
793.9004, 139.0470
794.3825, 144.8942
794.8646, 151.3035
795.3467, 159.3479
795.8289, 168.1904
796.3110, 176.3926
796.7931, 183.4643
797.2752, 191.5021
797.7573, 201.6004
798.2394, 212.8877
798.7216, 224.5906
799.2037, 236.7034
799.6858, 249.4601
800.1679, 262.8932
800.6500, 276.9130
801.1321, 291.7722
801.6143, 307.3976
802.0964, 323.6034
802.5785, 340.2500
803.0606, 357.9905
803.5427, 377.5403
804.0248, 398.1595
804.5070, 419.2655
804.9891, 440.6344
805.4712, 462.7053
805.9533, 486.2259
806.4354, 510.2584
806.9175, 534.4169
807.3997, 559.0909
807.8818, 582.3903
808.3639, 604.1339
808.8460, 624.2775
809.3281, 643.4442
809.8102, 660.8305
810.2924, 674.4811
810.7745, 684.1558
811.2566, 689.9550
811.7387, 691.5799
812.2208, 689.5187
812.7029, 684.1368
813.1851, 675.3386
813.6672, 663.1976
814.1493, 646.8245
814.6314, 628.3170
815.1135, 609.2591
815.5956, 589.4721
816.0778, 569.3336
816.5599, 548.6066
817.0420, 528.7818
817.5241, 511.4804
818.0062, 495.9960
818.4883, 480.7372
818.9705, 465.2877
819.4526, 451.4897
819.9347, 441.0302
820.4168, 431.9603
820.8989, 422.6572
821.3810, 412.4512
821.8632, 404.9754
822.3453, 401.0264
822.8274, 398.0287
823.3095, 393.9107
823.7916, 388.9289
824.2737, 384.5158
824.7559, 380.7041
825.2380, 378.2318
825.7201, 378.1754
826.2022, 379.4863
826.6843, 381.1707
827.1664, 383.0789
827.6486, 385.6513
828.1307, 389.7880
828.6128, 393.8820
829.0949, 396.8859
829.5770, 398.5858
830.0591, 402.2912
830.5413, 408.1825
831.0234, 414.9092
831.5055, 421.7802
831.9876, 428.6509
832.4697, 435.1619
832.9518, 441.3014
833.4340, 447.8866
833.9161, 455.8349
834.3982, 463.9268
834.8803, 471.4683
835.3624, 478.3657
835.8445, 484.8156
836.3267, 490.5097
836.8088, 496.3453
837.2909, 502.9474
837.7730, 510.0511
838.2551, 516.3597
838.7372, 521.8382
839.2194, 525.8388
839.7015, 527.5905
840.1836, 527.9329
840.6657, 527.6356
841.1478, 526.6882
841.6299, 524.8361
842.1121, 522.6042
842.5942, 518.6852
843.0763, 512.3798
843.5584, 504.0311
844.0405, 495.6158
844.5226, 487.2083
845.0048, 478.1108
845.4869, 467.8286
845.9690, 456.7656
846.4511, 445.9375
846.9332, 435.1390
847.4153, 423.8410
847.8975, 411.8530
848.3796, 399.2358
848.8617, 385.2987
849.3438, 370.6713
849.8259, 357.6848
850.3080, 347.0575
850.7902, 336.3411
851.2723, 324.9489
851.7544, 313.3948
852.2365, 303.0516
852.7186, 293.7486
853.2007, 284.4096
853.6829, 274.5443
854.1650, 264.8390
854.6471, 255.6911
855.1292, 247.0859
855.6113, 238.9674
856.0934, 231.5899
856.5756, 224.4754
857.0577, 217.2876
857.5398, 210.5534
858.0219, 204.9386
858.5040, 200.4758
858.9861, 196.2744
859.4683, 192.2625
859.9504, 188.0648
860.4325, 182.7800
860.9146, 177.1387
861.3967, 172.5703
861.8788, 169.8421
862.3610, 167.0779
862.8431, 163.7695
863.3252, 160.0031
863.8073, 155.8189
864.2894, 150.7082
864.7715, 146.7681
865.2537, 144.2599
865.7358, 142.1977
866.2179, 139.5207
866.7000, 136.5004
867.1821, 133.8121
867.6642, 131.5015
868.1464, 129.5761
868.6285, 128.3910
869.1106, 127.3088
869.5927, 125.7407
870.0748, 123.4403
870.5569, 121.6551
871.0391, 120.6635
871.5212, 119.6798
872.0033, 118.1601
872.4854, 116.2067
872.9675, 114.7234
873.4496, 113.6629
873.9318, 112.6020
874.4139, 111.1726
874.8960, 109.6688
875.3781, 108.2981
875.8602, 107.0681
876.3423, 106.0368
876.8245, 105.5913
877.3066, 104.8852
877.7887, 103.4718
878.2708, 101.6630
878.7529, 100.8992
879.2350, 101.1841
879.7172, 101.4153
880.1993, 101.0361
880.6814, 100.4634
881.1635, 100.4184
881.6456, 100.6013
882.1277, 100.3103
882.6099, 98.56278
883.0920, 97.16914
883.5741, 96.87578
884.0562, 97.10824
884.5383, 96.89505
885.0204, 96.11629
885.5026, 95.64046
885.9847, 95.61278
886.4668, 95.96159
886.9489, 96.91527
887.4310, 98.11416
887.9131, 98.73270
888.3953, 98.29824
888.8774, 98.03681
889.3595, 98.96835
889.8416, 100.0212
890.3237, 100.0896
890.8058, 98.56532
891.2880, 97.82561
891.7701, 97.98028
892.2522, 98.59655
892.7343, 99.37183
893.2164, 100.2897
893.6985, 101.3363
894.1807, 102.5005
894.6628, 103.6948
895.1449, 104.9686
895.6270, 106.1488
896.1091, 107.1191
896.5912, 107.8516
897.0734, 108.5065
897.5555, 109.0731
898.0376, 109.5605
898.5197, 109.8546
899.0018, 110.1049
899.4839, 111.0500
899.9661, 112.5345
900.4482, 113.6496
900.9303, 113.6218
901.4124, 113.3245
901.8945, 113.4990
902.3766, 113.8927
902.8588, 113.6141
903.3409, 112.3726
903.8230, 110.8391
904.3051, 108.8909
904.7872, 106.9798
905.2693, 106.2172
905.7515, 106.3884
906.2336, 106.1514
906.7157, 105.0746
907.1978, 103.6685
907.6799, 102.1413
908.1620, 100.6468
908.6442, 99.35429
909.1263, 98.35270
909.6084, 97.50655
910.0905, 96.86620
910.5726, 96.29993
911.0547, 95.69029
911.5369, 95.04033
912.0190, 94.21897
912.5011, 93.20148
912.9832, 92.57275
913.4653, 93.22607
913.9474, 94.21890
914.4296, 94.64179
914.9117, 94.38741
915.3938, 94.10971
915.8759, 93.70226
916.3580, 93.59736
916.8401, 94.20495
917.3223, 95.26871
917.8044, 95.06087
918.2865, 93.66682
918.7686, 92.48177
919.2507, 92.36082
919.7328, 92.69671
920.2150, 93.19259
920.6971, 93.66654
921.1792, 93.68028
921.6613, 92.58247
922.1434, 91.70988
922.6255, 91.25935
923.1077, 91.11231
923.5898, 91.30052
924.0719, 91.76643
924.5540, 91.30933
925.0361, 89.44943
925.5182, 87.61186
926.0004, 87.49668
926.4825, 88.08452
926.9646, 88.10998
927.4467, 87.09714
927.9288, 86.19435
928.4109, 85.78210
928.8931, 85.19804
929.3752, 83.85549
929.8573, 81.78189
930.3394, 80.14418
930.8215, 78.95562
931.3036, 77.99828
931.7858, 77.44611
932.2679, 76.81306
932.7500, 75.42900
933.2321, 73.42001
933.7142, 71.71030
934.1964, 70.66500
934.6785, 69.76204
935.1606, 68.94699
935.6427, 68.15658
936.1248, 67.24393
936.6069, 66.19677
937.0891, 65.00181
937.5712, 63.52230
938.0533, 62.09969
938.5354, 61.03874
939.0175, 60.24975
939.4996, 59.62414
939.9818, 59.46389
940.4639, 58.95694
940.9460, 58.05687
941.4281, 56.84856
941.9102, 55.18604
942.3923, 53.18453
942.8745, 52.05168
943.3566, 51.88631
943.8387, 51.89594
944.3208, 51.47057
944.8029, 50.90981
945.2850, 50.44080
945.7672, 50.08960
946.2493, 49.83942
946.7314, 49.86884
947.2135, 49.64820
947.6956, 48.84568
948.1777, 47.69210
948.6599, 47.13105
949.1420, 47.06372
949.6241, 46.94088
950.1062, 46.35011
950.5883, 45.80311
951.0704, 45.96957
951.5526, 46.35734
952.0347, 45.95119
952.5168, 43.89742
952.9989, 42.71266
953.4810, 42.78949
953.9631, 43.36957
954.4453, 43.60036
954.9274, 43.54225
955.4095, 43.40598
955.8916, 43.22315
956.3737, 42.92580
956.8558, 42.16853
957.3380, 41.51189
957.8201, 41.54343
958.3022, 42.35246
958.7843, 42.44725
959.2664, 41.56024
959.7485, 40.81920
960.2307, 41.01134
960.7128, 41.57627
961.1949, 40.91502
961.6770, 39.40934
962.1591, 38.41626
962.6412, 39.06393
963.1234, 39.78109
963.6055, 39.90764
964.0876, 39.71039
964.5697, 39.68428
965.0518, 39.92919
965.5339, 39.83086
966.0161, 39.24152
966.4982, 38.56301
966.9803, 38.26565
967.4624, 38.20827
967.9445, 38.15210
968.4266, 38.04638
968.9088, 38.05489
969.3909, 38.40062
969.8730, 38.72264
970.3551, 38.86995
970.8372, 38.83779
971.3193, 38.48289
971.8015, 37.79261
972.2836, 37.21452
972.7657, 36.95057
973.2478, 36.97466
973.7299, 37.53490
974.2120, 38.34760
974.6942, 38.71620
975.1763, 38.02176
975.6584, 37.39280
976.1405, 36.87860
976.6226, 36.59185
977.1047, 36.86690
977.5869, 37.62291
978.0690, 37.91426
978.5511, 37.57951
979.0332, 37.04498
979.5153, 36.43576
979.9974, 35.94724
980.4796, 35.76357
980.9617, 35.93256
981.4438, 36.28510
981.9259, 36.91049
982.4080, 37.53517
982.8901, 38.17270
983.3723, 38.65554
983.8544, 38.12594
984.3365, 36.88009
984.8186, 36.14774
985.3007, 36.90460
985.7828, 37.91081
986.2650, 38.87730
986.7471, 39.58960
987.2292, 39.71590
987.7113, 39.10848
988.1934, 38.36240
988.6755, 37.43537
989.1577, 36.73162
989.6398, 37.00351
990.1219, 37.69242
990.6040, 37.66885
991.0861, 36.79267
991.5682, 36.38554
992.0504, 37.76231
992.5325, 38.88517
993.0146, 38.67650
993.4967, 37.44394
993.9788, 36.91896
994.4609, 37.09960
994.9431, 37.34624
995.4252, 37.42328
995.9073, 37.41113
996.3894, 37.38615
996.8715, 37.33746
997.3536, 37.24619
997.8358, 37.07683
998.3179, 36.89325
998.8000, 36.62151
999.2821, 36.45372
999.7642, 36.70617
1000.246, 37.25825
1000.728, 37.32262
1001.211, 36.88672
1001.693, 36.63093
1002.175, 37.27766
1002.657, 38.00834
1003.139, 38.09893
1003.621, 37.70374
1004.103, 38.07898
1004.585, 39.48939
1005.068, 40.64616
1005.550, 41.13063
1006.032, 41.33142
1006.514, 41.89632
1006.996, 42.65396
1007.478, 43.27059
1007.960, 43.62070
1008.442, 43.89768
1008.924, 44.01241
1009.407, 44.21360
1009.889, 44.65966
1010.371, 45.35130
1010.853, 46.40187
1011.335, 47.82940
1011.817, 48.89819
1012.299, 48.96399
1012.781, 48.59248
1013.263, 48.21130
1013.746, 47.82516
1014.228, 47.40450
1014.710, 47.04274
1015.192, 46.44432
1015.674, 45.47153
1016.156, 44.40802
1016.638, 43.78131
1017.120, 43.40857
1017.603, 42.65435
1018.085, 41.35371
1018.567, 40.11954
1019.049, 39.25128
1019.531, 38.63382
1020.013, 38.22091
1020.495, 37.99649
1020.977, 37.69574
1021.459, 37.28336
1021.942, 37.12919
1022.424, 37.62992
1022.906, 38.22092
1023.388, 37.93970
1023.870, 37.20357
1024.352, 36.82894
1024.834, 37.58959
1025.316, 37.96362
1025.799, 37.68666
1026.281, 37.18560
1026.763, 36.83668
1027.245, 36.64509
1027.727, 36.69923
1028.209, 36.98888
1028.691, 37.13368
1029.173, 36.63263
1029.656, 36.11516
1030.138, 36.09012
1030.620, 36.45597
1031.102, 36.56429
1031.584, 36.32590
1032.066, 36.21114
1032.548, 36.39191
1033.030, 36.60741
1033.512, 36.44820
1033.995, 36.05861
1034.477, 35.61293
1034.959, 35.01176
1035.441, 34.90057
1035.923, 36.03865
1036.405, 37.00913
1036.887, 36.86625
1037.369, 35.80358
1037.851, 35.72483
1038.334, 36.51612
1038.816, 37.08876
1039.298, 36.55357
1039.780, 35.87217
1040.262, 35.69572
1040.744, 35.82697
1041.226, 35.89382
1041.708, 35.99958
1042.191, 35.63509
1042.673, 34.67342
1043.155, 33.57130
1043.637, 32.52573
1044.119, 31.77114
1044.601, 31.91359
1045.083, 32.94164
1045.565, 33.73216
1046.047, 33.68994
1046.530, 33.57624
1047.012, 33.66609
1047.494, 33.82594
1047.976, 33.57005
1048.458, 32.97401
1048.940, 32.67928
1049.422, 32.89370
1049.904, 33.33813
1050.386, 34.22422
1050.869, 34.97643
1051.351, 34.82525
1051.833, 33.49242
1052.315, 32.98811
1052.797, 33.47624
1053.279, 34.04193
1053.761, 34.08401
1054.243, 33.91092
1054.726, 34.18124
1055.208, 34.67650
1055.690, 34.81894
1056.172, 33.90910
1056.654, 33.31638
1057.136, 33.25756
1057.618, 33.51881
1058.100, 34.02258
1058.583, 34.67584
1059.065, 34.74943
1059.547, 34.20246
1060.029, 33.71346
1060.511, 33.73833
1060.993, 33.98989
1061.475, 34.52039
1061.957, 35.15241
1062.439, 35.08943
1062.922, 34.18902
1063.404, 33.49705
1063.886, 33.31691
1064.368, 33.32570
1064.850, 33.13491
1065.332, 32.87590
1065.814, 32.74014
1066.296, 32.80210
1066.778, 32.81219
1067.261, 32.71430
1067.743, 32.62172
1068.225, 32.60297
1068.707, 32.62780
1069.189, 32.64783
1069.671, 32.63159
1070.153, 32.45082
1070.635, 31.68739
1071.118, 31.24190
1071.600, 31.75245
1072.082, 32.59139
1072.564, 33.20720
1073.046, 33.60702
1073.528, 33.48188
1074.010, 32.80191
1074.492, 32.30626
1074.974, 32.81305
1075.457, 33.55109
1075.939, 33.95466
1076.421, 34.00033
1076.903, 33.64160
1077.385, 32.47763
1077.867, 32.11769
1078.349, 33.01993
1078.831, 34.27910
1079.313, 34.88894
1079.796, 34.93708
1080.278, 34.33383
1080.760, 33.00804
1081.242, 32.28733
1081.724, 33.43769
1082.206, 34.29626
1082.688, 33.94651
1083.170, 32.84244
1083.652, 32.48089
1084.135, 32.71770
1084.617, 32.77040
1085.099, 32.16225
1085.581, 31.89861
1086.063, 33.27346
1086.545, 34.78032
1087.027, 34.98501
1087.509, 33.72630
1087.992, 32.63695
1088.474, 31.69688
1088.956, 31.23749
1089.438, 31.91576
1089.920, 32.78212
1090.402, 32.53360
1090.884, 33.25803
1091.366, 33.85939
1091.849, 33.75397
1092.331, 34.10063
1092.813, 33.99472
1093.295, 34.00254
1093.777, 33.54428
1094.259, 33.19464
1094.741, 32.73640
1095.223, 32.22001
1095.705, 32.06120
1096.188, 33.07153
1096.670, 33.61747
1097.152, 33.14109
1097.634, 32.15039
1098.116, 31.41390
1098.598, 30.95889
1099.080, 31.10889
1099.562, 31.98857
1100.044, 32.60329
1100.527, 31.80267
1101.009, 30.96623
1101.491, 31.14612
1101.973, 32.14238
1102.455, 32.71747
1102.937, 32.86111
1103.419, 33.01019
1103.901, 33.41187
1104.384, 33.61206
1104.866, 32.81926
1105.348, 31.72271
1105.830, 31.12368
1106.312, 31.18317
1106.794, 31.64289
1107.276, 32.64894
1107.758, 33.55171
1108.240, 34.09267
1108.723, 34.21271
1109.205, 33.46963
1109.687, 32.27654
1110.169, 31.57852
1110.651, 32.12895
1111.133, 32.54173
1111.615, 32.71616
1112.097, 32.72258
1112.579, 32.60062
1113.062, 32.36664
1113.544, 32.00523
1114.026, 31.55463
1114.508, 31.26920
1114.990, 31.15438
1115.472, 31.41236
1115.954, 32.58073
1116.436, 33.80384
1116.919, 33.50625
1117.401, 31.81845
1117.883, 30.99320
1118.365, 31.30576
1118.847, 31.72520
1119.329, 31.27079
1119.811, 30.83894
1120.293, 31.27281
1120.776, 32.29313
1121.258, 32.67432
1121.740, 32.34378
1122.222, 32.01789
1122.704, 31.82549
1123.186, 31.82689
1123.668, 32.38533
1124.150, 32.98218
1124.632, 32.92284
1125.115, 32.01273
1125.597, 31.67862
1126.079, 32.12051
1126.561, 32.51914
1127.043, 32.52382
1127.525, 32.36409
1128.007, 32.37516
1128.489, 32.50764
1128.971, 32.67831
1129.454, 32.86361
1129.936, 33.10371
1130.418, 33.41154
1130.900, 33.75338
1131.382, 34.17527
1131.864, 34.58805
1132.346, 34.83341
1132.828, 34.85749
1133.311, 34.48168
1133.793, 32.91206
1134.275, 31.97613
1134.757, 32.32921
1135.239, 33.12357
1135.721, 33.80980
1136.203, 34.33811
1136.685, 34.11314
1137.167, 33.23668
1137.650, 32.67494
1138.132, 33.42702
1138.614, 34.12606
1139.096, 33.93990
1139.578, 33.43693
1140.060, 33.51826
1140.542, 34.19889
1141.024, 34.08145
1141.506, 33.03963
1141.989, 32.11129
1142.471, 32.23888
1142.953, 32.60203
1143.435, 32.76562
1143.917, 32.66695
1144.399, 32.05807
1144.881, 30.77689
1145.363, 30.37017
1145.846, 31.22272
1146.328, 32.25583
1146.810, 32.40071
1147.292, 32.17581
1147.774, 32.04791
1148.256, 32.05784
1148.738, 32.02610
1149.220, 31.90851
1149.703, 31.93693
1150.185, 32.22900
1150.667, 32.53764
1151.149, 32.42823
1151.631, 32.18695
1152.113, 32.32275
1152.595, 33.03263
1153.077, 33.05601
1153.559, 31.99990
1154.042, 31.14382
1154.524, 31.08735
1155.006, 31.39390
1155.488, 31.30629
1155.970, 30.96584
1156.452, 30.63086
1156.934, 30.31797
1157.416, 30.17611
1157.898, 30.33317
1158.381, 30.42662
1158.863, 30.21562
1159.345, 29.81956
1159.827, 29.50498
1160.309, 29.29847
1160.791, 29.28784
1161.273, 29.64124
1161.755, 29.95062
1162.238, 30.12376
1162.720, 30.24716
1163.202, 30.45722
1163.684, 30.67883
1164.166, 30.36376
1164.648, 29.65496
1165.130, 29.19275
1165.612, 29.59452
1166.094, 29.89920
1166.577, 29.83187
1167.059, 29.51537
1167.541, 28.88376
1168.023, 28.02480
1168.505, 27.91033
1168.987, 28.48713
1169.469, 29.05859
1169.951, 29.24973
1170.433, 29.30969
1170.916, 29.39409
1171.398, 29.38083
1171.880, 29.01092
1172.362, 28.31229
1172.844, 27.86927
1173.326, 27.72782
1173.808, 27.79328
1174.290, 28.38327
1174.773, 28.77149
1175.255, 28.16063
1175.737, 28.60725
1176.219, 27.25762
1176.701, 28.37498
1177.183, 28.73647
1177.665, 28.07895
1178.147, 27.30499
1178.630, 26.93708
1179.112, 26.88589
1179.594, 27.30081
1180.076, 27.96805
1180.558, 28.15081
1181.040, 27.81000
1181.522, 27.85675
1182.004, 28.52712
1182.486, 29.16645
1182.969, 29.33526
1183.451, 29.10913
1183.933, 28.29035
1184.415, 27.04965
1184.897, 26.49098
1185.379, 26.67029
1185.861, 26.87092
1186.343, 26.91014
1186.825, 26.90976
1187.308, 27.03128
1187.790, 27.14056
1188.272, 27.03416
1188.754, 26.72321
1189.236, 26.79037
1189.718, 27.31308
1190.200, 27.44347
1190.682, 26.78375
1191.165, 26.00106
1191.647, 25.83497
1192.129, 25.90910
1192.611, 25.80123
1193.093, 25.45835
1193.575, 25.20400
1194.057, 25.03018
1194.539, 25.00256
1195.021, 25.15592
1195.504, 25.44406
1195.986, 26.07265
1196.468, 26.66897
1196.950, 26.62152
1197.432, 25.71009
1197.914, 25.49809
1198.396, 26.12999
1198.878, 26.46831
1199.360, 25.82640
1199.843, 24.85174
1200.325, 23.92599
1200.807, 23.33350
1201.289, 23.70161
1201.771, 25.52267
1202.253, 26.02189
1202.735, 24.96904
1203.217, 24.10044
1203.700, 24.63957
1204.182, 25.56111
1204.664, 25.65672
1205.146, 25.33926
1205.628, 25.31690
1206.110, 25.88083
1206.592, 25.93691
1207.074, 25.40620
1207.557, 24.86798
1208.039, 24.57451
1208.521, 24.57737
1209.003, 25.26779
1209.485, 26.19621
1209.967, 26.48785
1210.449, 25.86613
1210.931, 25.18142
1211.413, 24.36708
1211.896, 23.90200
1212.378, 24.37287
1212.860, 25.13197
1213.342, 25.75488
1213.824, 26.07978
1214.306, 25.62157
1214.788, 23.84105
1215.270, 23.29066
1215.752, 24.16822
1216.235, 25.10468
1216.717, 24.99289
1217.199, 24.52860
1217.681, 24.36448
1218.163, 24.39372
1218.645, 24.35367
1219.127, 24.20422
1219.609, 24.08454
1220.092, 24.00010
1220.574, 23.94137
1221.056, 24.06373
1221.538, 24.06148
1222.020, 23.23636
1222.502, 23.70065
1222.984, 22.31650
1223.466, 24.05747
1223.948, 25.13373
1224.431, 25.39263
1224.913, 25.23369
1225.395, 24.58298
1225.877, 24.01669
1226.359, 24.00482
1226.841, 24.46467
1227.323, 25.18891
1227.805, 26.29599
1228.287, 26.81431
1228.770, 26.66748
1229.252, 26.07928
1229.734, 24.60141
1230.216, 23.36439
1230.698, 23.50748
1231.180, 24.45336
1231.662, 24.79144
1232.144, 24.46176
1232.627, 24.40589
1233.109, 24.70819
1233.591, 25.06418
1234.073, 25.44039
1234.555, 25.59842
1235.037, 25.17317
1235.519, 24.50345
1236.001, 24.23644
1236.484, 24.37402
1236.966, 24.54131
1237.448, 24.70096
1237.930, 24.53660
1238.412, 23.23087
1238.894, 22.18297
1239.376, 22.50180
1239.858, 23.42712
1240.340, 23.72747
1240.823, 23.46759
1241.305, 23.42805
1241.787, 23.68088
1242.269, 24.09731
1242.751, 25.14773
1243.233, 25.64327
1243.715, 24.62407
1244.197, 23.17850
1244.679, 23.15347
1245.162, 24.24794
1245.644, 24.87490
1246.126, 24.91207
1246.608, 24.79346
1247.090, 24.68814
1247.572, 24.51867
1248.054, 24.17287
1248.536, 23.87359
1249.019, 24.04800
1249.501, 24.54670
1249.983, 25.02656
1250.465, 25.41532
1250.947, 25.34377
1251.429, 23.92623
1251.911, 23.05914
1252.393, 23.21591
1252.875, 23.90666
1253.358, 24.74201
1253.840, 25.51999
1254.322, 25.77302
1254.804, 25.49305
1255.286, 24.95791
1255.768, 23.98519
1256.250, 23.20925
1256.732, 22.73170
1257.214, 22.47714
1257.697, 22.25489
1258.179, 22.24837
1258.661, 23.01921
1259.143, 24.40603
1259.625, 25.10665
1260.107, 24.67331
1260.589, 24.38107
1261.071, 24.42618
1261.554, 24.57812
1262.036, 24.68930
1262.518, 24.69640
1263.000, 24.45658
1263.482, 24.03077
1263.964, 23.74222
1264.446, 23.65091
1264.928, 23.43305
1265.411, 23.01246
1265.893, 22.76207
1266.375, 23.24253
1266.857, 23.83573
1267.339, 23.94584
1267.821, 24.25052
1268.303, 24.35424
1268.785, 24.24780
1269.267, 24.23224
1269.750, 23.66918
1270.232, 23.23876
1270.714, 23.61252
1271.196, 24.11285
1271.678, 24.40410
1272.160, 24.47955
1272.642, 24.27700
1273.124, 23.81278
1273.606, 23.18527
1274.089, 22.43701
1274.571, 22.08522
1275.053, 22.81297
1275.535, 23.54117
1276.017, 23.83534
1276.499, 23.96686
1276.981, 24.50453
1277.463, 25.18720
1277.946, 24.59710
1278.428, 22.92840
1278.910, 22.11993
1279.392, 24.27970
1279.874, 25.54762
1280.356, 24.95201
1280.838, 23.88372
1281.320, 23.88015
1281.802, 24.52055
1282.285, 25.09371
1282.767, 25.51680
1283.249, 25.58890
1283.731, 25.19045
1284.213, 24.43467
1284.695, 23.13102
1285.177, 22.23254
1285.659, 23.16473
1286.141, 24.59137
1286.624, 24.62847
1287.106, 23.75776
1287.588, 23.53012
1288.070, 24.31985
1288.552, 24.58388
1289.034, 24.20666
1289.516, 23.76413
1289.998, 23.73799
1290.481, 23.78303
1290.963, 23.38429
1291.445, 23.00229
1291.927, 23.55049
1292.409, 25.13870
1292.891, 25.54140
1293.373, 24.77977
1293.855, 23.95849
1294.338, 23.53200
1294.820, 23.45736
1295.302, 24.06272
1295.784, 24.72354
1296.266, 24.88588
1296.748, 24.60846
1297.230, 24.16880
1297.712, 23.63943
1298.194, 23.31260
1298.677, 23.52195
1299.159, 23.62589
1299.641, 23.42127
1300.123, 23.29768
1300.605, 23.65243
1301.087, 24.24607
1301.569, 24.46848
1302.051, 24.46185
1302.533, 24.56281
1303.016, 24.82778
##END=



