##NAMES=Felsobanyaite
##RRUFFID=R060565
##IDEAL CHEMISTRY=Al_4_(S^6+^O_4_)(OH)_10_&#183;4H_2_O
##LOCALITY=near Weymouth, Dorset, England
##OWNER=RRUFF
##SOURCE=Michael Scott
##DESCRIPTION=White consolidated powder
##STATUS=The identification of this mineral has been made only by X-ray diffraction.
##URL=rruff.info/R060565
93.78320, 670.2764
94.26532, 672.7152
94.74744, 675.3223
95.22955, 676.4012
95.71167, 677.3559
96.19379, 676.5653
96.67590, 675.1823
97.15802, 673.5660
97.64014, 672.3611
98.12225, 670.8867
98.60437, 667.7701
99.08649, 662.2469
99.56860, 655.8951
100.0507, 651.2056
100.5328, 647.4662
101.0150, 643.4335
101.4971, 637.8041
101.9792, 630.4518
102.4613, 624.4442
102.9434, 621.7775
103.4255, 620.3940
103.9077, 618.9316
104.3898, 616.9323
104.8719, 614.7789
105.3540, 613.3166
105.8361, 613.0292
106.3182, 612.5007
106.8004, 611.4340
107.2825, 609.9492
107.7646, 608.1208
108.2467, 605.9606
108.7288, 603.4667
109.2109, 600.8070
109.6931, 597.3350
110.1752, 594.2795
110.6573, 592.3909
111.1394, 591.2755
111.6215, 589.8295
112.1036, 586.9802
112.5858, 582.3954
113.0679, 578.9536
113.5500, 577.2328
114.0321, 576.1234
114.5142, 575.0650
114.9964, 573.9622
115.4785, 572.5192
115.9606, 570.0732
116.4427, 566.6839
116.9248, 563.8154
117.4069, 561.8802
117.8891, 560.6924
118.3712, 560.0387
118.8533, 560.3781
119.3354, 560.4174
119.8175, 558.4314
120.2996, 554.6339
120.7818, 551.5306
121.2639, 551.6010
121.7460, 554.9966
122.2281, 557.3104
122.7102, 556.9203
123.1923, 555.7108
123.6745, 554.6312
124.1566, 553.8292
124.6387, 552.7910
125.1208, 550.5299
125.6029, 545.8520
126.0850, 542.5356
126.5672, 541.2973
127.0493, 541.0087
127.5314, 540.8825
128.0135, 540.5872
128.4956, 540.1749
128.9777, 539.7825
129.4599, 539.1754
129.9420, 538.8792
130.4241, 539.4861
130.9062, 540.3483
131.3883, 540.4311
131.8705, 539.0802
132.3526, 536.6042
132.8347, 534.7551
133.3168, 533.5022
133.7989, 532.7222
134.2810, 532.6302
134.7632, 533.0948
135.2453, 533.4166
135.7274, 532.9750
136.2095, 532.0657
136.6916, 531.7450
137.1737, 532.5295
137.6559, 533.6418
138.1380, 534.3215
138.6201, 534.5285
139.1022, 534.4822
139.5843, 534.1774
140.0664, 533.7328
140.5486, 533.3256
141.0307, 533.1779
141.5128, 533.0978
141.9949, 532.4023
142.4770, 530.3811
142.9591, 528.8294
143.4413, 528.4108
143.9234, 528.9318
144.4055, 530.0605
144.8876, 531.7116
145.3697, 533.8871
145.8518, 535.7305
146.3340, 537.2238
146.8161, 538.3552
147.2982, 538.9449
147.7803, 539.1138
148.2624, 539.1499
148.7445, 539.3058
149.2267, 539.5323
149.7088, 540.1285
150.1909, 541.3299
150.6730, 542.6205
151.1551, 543.7003
151.6372, 544.5375
152.1194, 545.3148
152.6015, 546.3039
153.0836, 547.7306
153.5657, 548.6384
154.0478, 548.7811
154.5299, 548.5255
155.0121, 548.0934
155.4942, 547.5111
155.9763, 547.0686
156.4584, 547.4675
156.9405, 548.8436
157.4227, 549.6536
157.9048, 549.0029
158.3869, 547.5117
158.8690, 546.4719
159.3511, 546.2235
159.8332, 546.5610
160.3154, 547.4103
160.7975, 548.8126
161.2796, 549.8074
161.7617, 549.9008
162.2438, 549.0965
162.7259, 547.3879
163.2081, 543.7681
163.6902, 540.0228
164.1723, 537.7100
164.6544, 536.9462
165.1365, 536.4220
165.6186, 534.5638
166.1008, 531.0026
166.5829, 527.8167
167.0650, 525.1358
167.5471, 523.0662
168.0292, 522.0045
168.5113, 521.9844
168.9935, 522.3450
169.4756, 521.9204
169.9577, 520.0382
170.4398, 518.6526
170.9219, 518.3041
171.4040, 518.2189
171.8862, 517.7012
172.3683, 516.5037
172.8504, 514.9562
173.3325, 513.8313
173.8146, 513.4960
174.2967, 513.2122
174.7789, 513.1561
175.2610, 513.0764
175.7431, 512.5892
176.2252, 511.4940
176.7073, 510.0649
177.1894, 509.2346
177.6716, 509.6987
178.1537, 509.8374
178.6358, 509.1492
179.1179, 507.9327
179.6000, 506.7484
180.0821, 505.8779
180.5643, 505.2175
181.0464, 504.4244
181.5285, 503.3306
182.0106, 502.3567
182.4927, 501.8397
182.9749, 501.6684
183.4570, 501.3033
183.9391, 500.3317
184.4212, 499.1036
184.9033, 498.4307
185.3854, 498.7187
185.8676, 498.9128
186.3497, 497.9565
186.8318, 495.8130
187.3139, 493.8208
187.7960, 492.7700
188.2781, 492.1093
188.7603, 491.2142
189.2424, 489.8610
189.7245, 488.4708
190.2066, 487.6775
190.6887, 487.6766
191.1708, 487.5532
191.6530, 486.7374
192.1351, 485.7657
192.6172, 485.1490
193.0993, 485.1129
193.5814, 485.3371
194.0635, 485.1761
194.5457, 484.4688
195.0278, 483.6677
195.5099, 482.9957
195.9920, 482.2525
196.4741, 481.2206
196.9562, 479.7966
197.4384, 478.0879
197.9205, 476.3574
198.4026, 474.3015
198.8847, 472.6979
199.3668, 472.0285
199.8489, 471.6996
200.3311, 470.9547
200.8132, 469.3952
201.2953, 467.3350
201.7774, 466.0342
202.2595, 466.7071
202.7416, 466.8190
203.2238, 465.7874
203.7059, 464.1118
204.1880, 462.4245
204.6701, 461.0454
205.1522, 459.9835
205.6344, 459.3220
206.1165, 459.5294
206.5986, 459.5470
207.0807, 459.1967
207.5628, 458.4987
208.0449, 457.4380
208.5271, 455.9491
209.0092, 454.1734
209.4913, 452.7095
209.9734, 451.1910
210.4555, 450.3055
210.9376, 450.8087
211.4198, 452.2188
211.9019, 453.2202
212.3840, 453.1566
212.8661, 452.2007
213.3482, 450.9275
213.8303, 448.9514
214.3125, 447.2870
214.7946, 446.5511
215.2767, 446.6511
215.7588, 447.1673
216.2409, 448.2076
216.7230, 449.3493
217.2052, 449.8676
217.6873, 449.5655
218.1694, 449.0330
218.6515, 448.5247
219.1336, 448.0547
219.6157, 448.0825
220.0979, 449.2536
220.5800, 450.7245
221.0621, 451.4939
221.5442, 451.3231
222.0263, 450.9963
222.5084, 451.3107
222.9906, 452.3249
223.4727, 453.3533
223.9548, 454.3379
224.4369, 455.1483
224.9190, 455.7139
225.4011, 456.0280
225.8833, 456.0016
226.3654, 455.4992
226.8475, 454.4741
227.3296, 453.1941
227.8117, 451.2557
228.2938, 449.3696
228.7760, 448.2209
229.2581, 447.8930
229.7402, 447.5781
230.2223, 445.9934
230.7044, 442.4959
231.1866, 439.7815
231.6687, 438.8206
232.1508, 438.1876
232.6329, 436.9713
233.1150, 435.0200
233.5971, 432.8729
234.0793, 431.3762
234.5614, 431.0584
235.0435, 430.0645
235.5256, 427.3989
236.0077, 424.8354
236.4898, 423.8241
236.9720, 424.4380
237.4541, 425.3571
237.9362, 424.6480
238.4183, 421.1496
238.9004, 418.8759
239.3825, 418.4640
239.8647, 418.5632
240.3468, 418.4720
240.8289, 418.0181
241.3110, 417.3139
241.7931, 416.4909
242.2752, 415.5812
242.7574, 414.4107
243.2395, 412.7300
243.7216, 411.0146
244.2037, 409.3767
244.6858, 407.9259
245.1679, 406.9661
245.6501, 406.8978
246.1322, 408.0144
246.6143, 408.9276
247.0964, 409.4775
247.5785, 409.9714
248.0606, 410.6392
248.5428, 411.4840
249.0249, 412.3559
249.5070, 413.1538
249.9891, 413.8944
250.4712, 414.2075
250.9533, 413.6433
251.4355, 413.0315
251.9176, 412.9162
252.3997, 413.3205
252.8818, 414.0002
253.3639, 414.8654
253.8460, 415.8930
254.3282, 416.4137
254.8103, 415.9718
255.2924, 415.3986
255.7745, 415.3795
256.2566, 415.8701
256.7387, 416.2314
257.2209, 416.0755
257.7030, 415.3467
258.1851, 414.2119
258.6672, 411.9660
259.1493, 409.8860
259.6314, 409.0147
260.1136, 409.2469
260.5957, 409.5670
261.0778, 409.3839
261.5599, 408.8428
262.0420, 408.4776
262.5241, 408.4315
263.0063, 408.3935
263.4884, 408.1768
263.9705, 407.7850
264.4526, 407.2072
264.9347, 406.2202
265.4168, 405.2033
265.8990, 404.8628
266.3811, 405.4606
266.8632, 406.1805
267.3453, 406.5644
267.8275, 406.6120
268.3096, 406.2035
268.7917, 404.7852
269.2738, 403.3732
269.7559, 403.2988
270.2380, 404.7577
270.7202, 406.6036
271.2023, 408.2601
271.6844, 409.7049
272.1665, 410.7757
272.6486, 411.3209
273.1307, 411.5547
273.6129, 411.6590
274.0950, 411.6389
274.5771, 411.7183
275.0592, 412.2167
275.5413, 413.0153
276.0234, 413.3199
276.5056, 412.4943
276.9877, 411.8612
277.4698, 412.5356
277.9519, 414.3105
278.4340, 416.1419
278.9161, 417.6742
279.3983, 418.8150
279.8804, 419.0075
280.3625, 417.4737
280.8446, 416.1577
281.3267, 416.6045
281.8088, 418.1552
282.2910, 419.2401
282.7731, 418.5021
283.2552, 416.6694
283.7373, 416.3539
284.2194, 418.5080
284.7015, 420.3997
285.1837, 420.5483
285.6658, 419.6927
286.1479, 418.9098
286.6300, 418.7230
287.1121, 418.8704
287.5942, 418.7227
288.0764, 418.0937
288.5585, 417.6124
289.0406, 417.6566
289.5227, 417.8950
290.0048, 417.9752
290.4869, 417.7546
290.9691, 417.4001
291.4512, 417.1170
291.9333, 416.7984
292.4154, 416.9189
292.8975, 418.1967
293.3796, 419.6100
293.8618, 420.4754
294.3439, 420.6183
294.8260, 420.0721
295.3081, 418.6409
295.7902, 416.0504
296.2723, 413.8926
296.7545, 412.4599
297.2366, 411.5304
297.7187, 411.2956
298.2008, 411.6480
298.6829, 411.9232
299.1650, 411.1558
299.6472, 409.1297
300.1293, 408.0821
300.6114, 409.4237
301.0935, 410.6494
301.5756, 410.4201
302.0577, 409.0208
302.5399, 407.6494
303.0220, 407.3532
303.5041, 408.0748
303.9862, 408.4810
304.4683, 408.2199
304.9504, 408.0469
305.4326, 408.0780
305.9147, 408.4027
306.3968, 409.2396
306.8789, 410.9114
307.3610, 413.0898
307.8431, 414.2403
308.3253, 413.5859
308.8074, 413.0962
309.2895, 413.5438
309.7716, 414.3662
310.2537, 414.8327
310.7358, 414.5873
311.2180, 414.0039
311.7001, 414.0603
312.1822, 415.4500
312.6643, 415.8860
313.1464, 414.3600
313.6285, 412.1680
314.1107, 410.3456
314.5928, 409.1698
315.0749, 408.1548
315.5570, 406.5269
316.0392, 404.0222
316.5213, 401.8716
317.0034, 400.7919
317.4855, 399.6316
317.9676, 397.3517
318.4497, 394.1065
318.9319, 391.2492
319.4140, 390.3758
319.8961, 391.7279
320.3782, 392.6952
320.8603, 393.5317
321.3424, 393.6598
321.8246, 392.3211
322.3067, 390.0483
322.7888, 388.0839
323.2709, 387.3823
323.7530, 387.7887
324.2351, 388.2148
324.7173, 388.8586
325.1994, 389.2191
325.6815, 389.3427
326.1636, 389.0767
326.6457, 388.0486
327.1278, 385.9108
327.6100, 383.3464
328.0921, 382.1225
328.5742, 382.9409
329.0563, 383.6087
329.5384, 383.3453
330.0205, 382.8710
330.5027, 382.9076
330.9848, 383.6583
331.4669, 384.5317
331.9490, 384.7924
332.4311, 384.4527
332.9132, 383.4424
333.3954, 380.5468
333.8775, 377.8522
334.3596, 376.7301
334.8417, 377.1406
335.3238, 377.9035
335.8059, 377.8682
336.2881, 377.0197
336.7702, 376.5546
337.2523, 376.8574
337.7344, 377.1573
338.2165, 377.2162
338.6986, 377.0049
339.1808, 376.4374
339.6629, 375.1584
340.1450, 373.5595
340.6271, 373.3395
341.1092, 375.5808
341.5913, 377.0866
342.0735, 376.2123
342.5556, 374.1538
343.0377, 372.2763
343.5198, 371.0628
344.0019, 370.2914
344.4840, 369.7194
344.9662, 369.4352
345.4483, 368.9457
345.9304, 367.7877
346.4125, 366.5467
346.8946, 365.7541
347.3767, 365.4825
347.8589, 365.1261
348.3410, 363.8199
348.8231, 361.6016
349.3052, 360.2065
349.7873, 360.1332
350.2694, 360.7121
350.7516, 361.7076
351.2337, 362.9764
351.7158, 363.9677
352.1979, 364.2309
352.6800, 363.9574
353.1621, 363.8503
353.6443, 364.1405
354.1264, 364.0794
354.6085, 362.7071
355.0906, 360.7997
355.5727, 359.6284
356.0548, 359.8137
356.5370, 360.6676
357.0191, 361.3853
357.5012, 361.9695
357.9833, 362.3642
358.4654, 362.5088
358.9475, 362.4542
359.4297, 362.2351
359.9118, 361.8232
360.3939, 361.3961
360.8760, 360.9642
361.3581, 360.5871
361.8402, 360.6068
362.3224, 361.2391
362.8045, 362.0810
363.2866, 362.7232
363.7687, 363.1823
364.2508, 363.6063
364.7329, 363.9575
365.2151, 364.3392
365.6972, 365.0264
366.1793, 366.1162
366.6614, 367.0714
367.1436, 367.4197
367.6257, 367.3009
368.1078, 367.1483
368.5899, 366.7777
369.0720, 366.5920
369.5541, 367.2056
370.0363, 368.4579
370.5184, 369.2032
371.0005, 368.7227
371.4826, 367.5665
371.9647, 366.9891
372.4468, 367.1120
372.9290, 367.4184
373.4111, 367.7467
373.8932, 368.1176
374.3753, 368.5988
374.8574, 369.2244
375.3395, 369.8466
375.8217, 370.2445
376.3038, 370.3826
376.7859, 370.5965
377.2680, 371.3564
377.7501, 371.9014
378.2322, 371.3753
378.7144, 369.8412
379.1965, 368.1652
379.6786, 366.8252
380.1607, 365.9073
380.6428, 366.0655
381.1249, 368.4843
381.6071, 370.5080
382.0892, 370.8161
382.5713, 370.1180
383.0534, 369.8571
383.5355, 370.6862
384.0176, 372.0285
384.4998, 372.6303
384.9819, 371.8058
385.4640, 371.3344
385.9461, 371.4288
386.4282, 371.7836
386.9103, 372.3339
387.3925, 372.9690
387.8746, 373.2926
388.3567, 372.8133
388.8388, 371.3732
389.3209, 370.2745
389.8030, 369.4655
390.2852, 368.9787
390.7673, 369.1130
391.2494, 369.5605
391.7315, 369.6986
392.2136, 369.1349
392.6957, 368.1030
393.1779, 367.5265
393.6600, 367.9234
394.1421, 368.0511
394.6242, 367.8319
395.1063, 367.2953
395.5884, 366.4481
396.0706, 365.2990
396.5527, 363.9067
397.0348, 362.2309
397.5169, 360.0920
397.9990, 358.4198
398.4811, 357.2362
398.9633, 356.5363
399.4454, 356.7658
399.9275, 357.5207
400.4096, 357.7916
400.8917, 356.6518
401.3738, 354.6114
401.8560, 353.9922
402.3381, 355.6345
402.8202, 357.1288
403.3023, 357.9335
403.7844, 358.1657
404.2665, 357.8789
404.7487, 357.0767
405.2308, 355.9224
405.7129, 354.3685
406.1950, 352.3452
406.6771, 351.0558
407.1592, 350.8370
407.6414, 351.3667
408.1235, 352.8220
408.6056, 354.9456
409.0877, 356.4620
409.5698, 355.9464
410.0519, 354.4001
410.5341, 354.5216
411.0162, 356.9069
411.4983, 358.8676
411.9804, 357.8722
412.4625, 355.5790
412.9446, 354.8566
413.4268, 356.8562
413.9089, 359.3234
414.3910, 360.4406
414.8731, 360.4464
415.3553, 360.4509
415.8374, 360.7379
416.3195, 361.2870
416.8016, 362.1590
417.2837, 363.3665
417.7658, 364.5074
418.2480, 365.4984
418.7301, 366.3556
419.2122, 366.9478
419.6943, 367.2942
420.1764, 367.9248
420.6585, 369.2989
421.1407, 371.3720
421.6228, 373.3651
422.1049, 375.9793
422.5870, 377.7935
423.0691, 377.5551
423.5512, 376.2428
424.0334, 375.7500
424.5155, 376.8624
424.9976, 378.6698
425.4797, 379.3893
425.9618, 377.6783
426.4439, 377.6644
426.9261, 380.8100
427.4082, 384.4616
427.8903, 386.7079
428.3724, 387.5683
428.8545, 388.2200
429.3366, 389.6397
429.8188, 391.7993
430.3009, 393.8166
430.7830, 395.6928
431.2651, 397.4271
431.7472, 398.7515
432.2293, 400.0358
432.7115, 401.7562
433.1936, 404.0762
433.6757, 406.6602
434.1578, 408.8814
434.6399, 410.5215
435.1220, 412.5351
435.6042, 415.6826
436.0863, 418.6058
436.5684, 420.5145
437.0505, 421.5746
437.5326, 422.4930
438.0147, 423.6722
438.4969, 425.0929
438.9790, 426.6655
439.4611, 428.3181
439.9432, 430.3055
440.4253, 433.2023
440.9074, 436.2930
441.3896, 438.7635
441.8717, 440.3865
442.3538, 441.7934
442.8359, 443.3622
443.3180, 445.1461
443.8001, 447.5571
444.2823, 451.1758
444.7644, 454.5367
445.2465, 455.8961
445.7286, 455.6828
446.2107, 455.5705
446.6928, 455.6050
447.1750, 456.2217
447.6571, 458.3831
448.1392, 461.8698
448.6213, 464.7069
449.1034, 465.7270
449.5855, 465.4965
450.0677, 465.5711
450.5498, 466.0023
451.0319, 466.5492
451.5140, 467.4536
451.9961, 468.3026
452.4782, 468.6279
452.9604, 468.3332
453.4425, 467.5307
453.9246, 466.3665
454.4067, 464.8811
454.8888, 462.4992
455.3709, 458.4632
455.8531, 454.5405
456.3352, 451.5011
456.8173, 448.9915
457.2994, 446.2633
457.7815, 442.9780
458.2636, 439.5371
458.7458, 436.8596
459.2279, 435.6498
459.7100, 433.7091
460.1921, 430.6483
460.6742, 427.2167
461.1563, 423.6341
461.6385, 420.0362
462.1206, 416.7113
462.6027, 413.9897
463.0848, 411.6956
463.5669, 408.8622
464.0491, 405.2002
464.5312, 401.6087
465.0133, 398.1063
465.4954, 394.9694
465.9775, 392.7306
466.4597, 391.5736
466.9418, 390.2833
467.4239, 387.3891
467.9060, 383.1826
468.3881, 379.6241
468.8702, 377.0956
469.3524, 375.0450
469.8345, 373.2279
470.3166, 371.5437
470.7987, 369.7018
471.2808, 367.3989
471.7629, 365.0939
472.2451, 363.2499
472.7272, 361.8009
473.2093, 360.4110
473.6914, 358.9590
474.1735, 357.4655
474.6556, 355.9169
475.1378, 354.2165
475.6199, 352.7819
476.1020, 351.8794
476.5841, 351.1238
477.0662, 350.1611
477.5483, 348.9838
478.0305, 347.7917
478.5126, 346.7589
478.9947, 345.8424
479.4768, 344.7160
479.9589, 342.4815
480.4410, 341.1298
480.9232, 341.8076
481.4053, 343.0261
481.8874, 343.1384
482.3695, 341.8083
482.8516, 340.0384
483.3337, 338.9386
483.8159, 338.5126
484.2980, 338.7708
484.7801, 340.7190
485.2622, 342.2097
485.7443, 342.0605
486.2264, 341.0799
486.7086, 340.6906
487.1907, 341.6275
487.6728, 342.8632
488.1549, 342.6908
488.6370, 340.9945
489.1191, 339.7983
489.6013, 339.6585
490.0834, 340.0613
490.5655, 340.6226
491.0476, 341.3120
491.5297, 341.9081
492.0118, 342.3887
492.4940, 342.6942
492.9761, 342.7397
493.4582, 342.5272
493.9403, 342.0557
494.4224, 341.1704
494.9045, 340.1645
495.3867, 339.8268
495.8688, 340.3062
496.3509, 340.9155
496.8330, 341.4055
497.3151, 341.9984
497.7972, 343.0844
498.2794, 344.6198
498.7615, 346.0268
499.2436, 346.7761
499.7257, 346.9067
500.2078, 347.2089
500.6899, 347.9604
501.1721, 348.5441
501.6542, 348.7116
502.1363, 348.7361
502.6184, 348.9685
503.1005, 349.4779
503.5826, 349.9828
504.0648, 350.0523
504.5469, 349.6095
505.0290, 349.5324
505.5111, 350.0670
505.9932, 350.6857
506.4753, 351.3695
506.9575, 351.9492
507.4396, 352.1241
507.9217, 351.7195
508.4038, 351.0977
508.8859, 350.6477
509.3680, 350.3669
509.8502, 350.2794
510.3323, 350.5621
510.8144, 350.7606
511.2965, 350.3379
511.7786, 349.4013
512.2607, 348.4709
512.7429, 347.8717
513.2250, 347.1753
513.7071, 345.9390
514.1892, 344.2523
514.6713, 342.4864
515.1534, 340.7779
515.6356, 339.1382
516.1177, 337.6153
516.5998, 336.3824
517.0819, 334.8269
517.5640, 332.1324
518.0461, 329.7694
518.5283, 329.1117
519.0104, 329.7631
519.4925, 330.2607
519.9746, 329.6242
520.4567, 328.1529
520.9388, 326.9435
521.4210, 326.0599
521.9031, 325.3321
522.3852, 325.1217
522.8673, 324.7462
523.3494, 323.4872
523.8315, 321.4711
524.3137, 319.6106
524.7958, 318.6273
525.2779, 318.3560
525.7600, 318.2793
526.2421, 318.4272
526.7242, 318.6577
527.2064, 319.0019
527.6885, 319.3453
528.1706, 319.5435
528.6527, 319.5739
529.1348, 319.5326
529.6169, 319.5248
530.0991, 319.4590
530.5812, 319.0189
531.0633, 318.1811
531.5454, 317.7139
532.0275, 318.4005
532.5096, 319.9471
532.9918, 320.2723
533.4739, 318.0543
533.9560, 316.5111
534.4381, 316.7013
534.9202, 317.6772
535.4023, 318.5139
535.8845, 318.9867
536.3666, 319.2625
536.8487, 319.4817
537.3308, 319.6443
537.8129, 319.8921
538.2951, 320.4837
538.7772, 320.8049
539.2593, 320.2203
539.7415, 319.5624
540.2236, 319.8326
540.7057, 321.2668
541.1878, 323.0172
541.6699, 324.5229
542.1520, 325.6996
542.6342, 325.6994
543.1163, 323.8377
543.5984, 322.3354
544.0805, 323.2773
544.5626, 325.4488
545.0447, 326.5319
545.5269, 325.6978
546.0090, 324.7487
546.4911, 324.7179
546.9732, 325.3045
547.4553, 326.0879
547.9374, 326.9861
548.4196, 327.5538
548.9017, 327.2565
549.3838, 326.0639
549.8659, 325.4447
550.3480, 325.9594
550.8301, 326.2708
551.3123, 325.5241
551.7944, 324.5901
552.2765, 324.7466
552.7586, 326.2350
553.2407, 327.9742
553.7228, 328.5740
554.2050, 327.9479
554.6871, 327.8111
555.1692, 328.7206
555.6513, 329.3214
556.1334, 328.6371
556.6155, 327.5936
557.0977, 327.4550
557.5798, 328.6245
558.0619, 330.1749
558.5440, 331.5076
559.0261, 332.5552
559.5082, 332.9442
559.9904, 332.4720
560.4725, 332.0013
560.9546, 332.1399
561.4367, 332.8581
561.9188, 333.8107
562.4009, 335.7281
562.8831, 336.9545
563.3652, 336.2595
563.8473, 334.7621
564.3294, 333.9333
564.8115, 334.1052
565.2936, 334.8952
565.7758, 335.9745
566.2579, 337.3486
566.7400, 338.6746
567.2221, 340.0896
567.7042, 341.2785
568.1863, 342.0586
568.6685, 342.6566
569.1506, 343.2921
569.6327, 344.0096
570.1148, 344.7145
570.5969, 345.2947
571.0790, 345.7708
571.5612, 346.2036
572.0433, 346.4662
572.5254, 347.0698
573.0075, 348.6292
573.4896, 350.5352
573.9717, 351.7804
574.4539, 352.0079
574.9360, 352.5719
575.4181, 354.5563
575.9002, 357.0563
576.3823, 358.7202
576.8644, 359.4560
577.3466, 360.0995
577.8287, 361.2713
578.3108, 362.8192
578.7929, 363.9908
579.2750, 364.7963
579.7571, 365.1815
580.2393, 364.5476
580.7214, 363.9243
581.2035, 364.1290
581.6856, 365.1681
582.1677, 366.5563
582.6498, 367.9464
583.1320, 369.3835
583.6141, 371.1377
584.0962, 373.4899
584.5783, 375.1902
585.0604, 375.2651
585.5425, 375.0467
586.0247, 375.7419
586.5068, 377.3177
586.9889, 378.8210
587.4710, 379.5357
587.9531, 380.1670
588.4352, 381.7374
588.9174, 384.0773
589.3995, 386.1191
589.8816, 387.3709
590.3637, 388.1769
590.8458, 389.1402
591.3279, 390.3712
591.8101, 391.4352
592.2922, 391.7827
592.7743, 392.4995
593.2564, 394.7639
593.7385, 397.7151
594.2206, 399.6055
594.7028, 399.6233
595.1849, 398.7166
595.6670, 398.4507
596.1491, 398.9261
596.6312, 399.2783
597.1133, 399.2974
597.5955, 399.3991
598.0776, 400.0222
598.5597, 400.8423
599.0418, 401.1673
599.5239, 400.5766
600.0060, 400.0114
600.4882, 400.3415
600.9703, 401.2546
601.4524, 402.1700
601.9345, 403.0042
602.4166, 403.1477
602.8987, 401.8061
603.3809, 399.1439
603.8630, 397.7125
604.3451, 398.4459
604.8272, 399.0165
605.3093, 399.1040
605.7914, 398.7614
606.2736, 397.8390
606.7557, 396.4658
607.2378, 395.2269
607.7199, 394.6722
608.2020, 394.6379
608.6841, 394.3791
609.1663, 393.9869
609.6484, 393.1024
610.1305, 391.0688
610.6126, 388.8880
611.0947, 387.5796
611.5768, 387.1241
612.0590, 386.3854
612.5411, 384.9159
613.0232, 382.8877
613.5053, 380.0327
613.9874, 376.6614
614.4695, 374.2147
614.9517, 373.3789
615.4338, 373.3084
615.9159, 372.6168
616.3980, 371.1013
616.8801, 369.6367
617.3622, 368.4285
617.8444, 367.0294
618.3265, 365.1732
618.8086, 363.0173
619.2907, 360.7738
619.7728, 358.5149
620.2549, 356.3651
620.7371, 354.4145
621.2192, 352.6702
621.7013, 351.4542
622.1834, 351.0984
622.6655, 350.5515
623.1476, 349.0856
623.6298, 347.0689
624.1119, 345.0817
624.5940, 343.1815
625.0761, 341.2803
625.5582, 339.2949
626.0403, 337.3265
626.5225, 335.5320
627.0046, 333.9057
627.4867, 332.3331
627.9688, 330.7073
628.4509, 329.1158
628.9330, 327.8107
629.4152, 326.8748
629.8973, 326.1052
630.3794, 325.6572
630.8615, 325.2005
631.3436, 324.6553
631.8257, 323.9405
632.3079, 322.9279
632.7900, 321.5583
633.2721, 319.8392
633.7542, 317.4104
634.2363, 314.4353
634.7184, 312.6588
635.2006, 312.7666
635.6827, 313.0592
636.1648, 311.8157
636.6469, 309.3329
637.1291, 307.9957
637.6112, 308.7127
638.0933, 309.4985
638.5754, 309.9626
639.0576, 310.0247
639.5397, 309.4303
640.0218, 308.2560
640.5039, 307.0249
640.9860, 306.1555
641.4681, 305.5789
641.9503, 304.8642
642.4324, 303.7065
642.9145, 303.1750
643.3966, 304.2824
643.8787, 305.4721
644.3608, 305.8367
644.8430, 305.3598
645.3251, 304.2469
645.8072, 301.7714
646.2893, 299.4296
646.7714, 299.1022
647.2535, 300.2157
647.7357, 300.9106
648.2178, 300.6385
648.6999, 299.9671
649.1820, 299.4962
649.6641, 299.2331
650.1462, 299.0369
650.6284, 299.3510
651.1105, 299.1789
651.5926, 297.9913
652.0747, 296.4232
652.5568, 294.9204
653.0389, 293.6529
653.5211, 292.9062
654.0032, 293.2128
654.4853, 294.0705
654.9674, 294.0546
655.4495, 293.1175
655.9316, 291.7425
656.4138, 289.7027
656.8959, 287.7816
657.3780, 287.3083
657.8601, 288.2325
658.3422, 288.6260
658.8243, 287.9401
659.3065, 286.9656
659.7886, 286.0016
660.2707, 285.0897
660.7528, 284.2617
661.2349, 283.5275
661.7170, 282.8190
662.1992, 282.0482
662.6813, 281.2232
663.1634, 280.5395
663.6455, 280.0499
664.1276, 279.5847
664.6097, 279.0072
665.0919, 278.4813
665.5740, 278.2863
666.0561, 278.4053
666.5382, 278.2148
667.0203, 277.1178
667.5024, 275.8078
667.9846, 274.9828
668.4667, 274.5894
668.9488, 274.3684
669.4309, 274.2307
669.9130, 274.2296
670.3951, 274.5361
670.8773, 275.2982
671.3594, 275.1718
671.8415, 272.7649
672.3236, 271.1112
672.8057, 271.6440
673.2878, 272.7871
673.7700, 272.7417
674.2521, 271.2982
674.7342, 269.8465
675.2163, 269.7856
675.6984, 270.3136
676.1805, 269.5467
676.6627, 267.5383
677.1448, 266.0161
677.6269, 265.7401
678.1090, 265.9271
678.5911, 265.3647
679.0732, 263.7432
679.5554, 263.2766
680.0375, 265.3446
680.5196, 266.9491
681.0017, 266.5044
681.4838, 265.1744
681.9659, 264.5255
682.4481, 264.8664
682.9302, 265.2710
683.4123, 264.7682
683.8944, 263.6394
684.3765, 263.0829
684.8586, 263.2219
685.3408, 263.2022
685.8229, 262.6552
686.3050, 261.9117
686.7871, 261.3519
687.2692, 260.9676
687.7513, 260.7081
688.2335, 260.6282
688.7156, 260.6046
689.1977, 260.7819
689.6798, 260.8943
690.1619, 260.3937
690.6440, 259.2298
691.1262, 258.0850
691.6083, 257.7150
692.0904, 257.9652
692.5725, 257.6127
693.0546, 256.2818
693.5367, 255.4722
694.0189, 256.0019
694.5010, 256.8793
694.9831, 257.2196
695.4652, 257.0698
695.9473, 256.9099
696.4294, 257.0884
696.9116, 257.0926
697.3937, 256.3970
697.8758, 255.3269
698.3579, 254.3954
698.8400, 253.7529
699.3221, 253.4947
699.8043, 253.8135
700.2864, 254.5634
700.7685, 254.5831
701.2506, 253.4489
701.7327, 252.4783
702.2148, 251.8612
702.6970, 251.5438
703.1791, 251.6113
703.6612, 251.9785
704.1433, 252.3486
704.6254, 252.6629
705.1075, 252.8730
705.5897, 253.1006
706.0718, 253.1587
706.5539, 252.5092
707.0360, 251.0968
707.5181, 249.5863
708.0002, 248.4616
708.4824, 247.7406
708.9645, 247.5456
709.4466, 248.3325
709.9287, 248.7762
710.4108, 248.6156
710.8929, 248.2374
711.3751, 247.7354
711.8572, 247.1941
712.3393, 246.7521
712.8214, 246.3954
713.3035, 246.3121
713.7856, 246.9143
714.2678, 247.8473
714.7499, 248.3113
715.2320, 248.2175
715.7141, 248.0869
716.1962, 248.3068
716.6783, 248.6489
717.1605, 248.4008
717.6426, 247.1494
718.1247, 246.1132
718.6068, 244.9720
719.0889, 244.3693
719.5710, 245.0896
720.0532, 246.4032
720.5353, 247.0615
721.0174, 246.6549
721.4995, 245.8830
721.9816, 245.2181
722.4637, 244.6106
722.9459, 243.8764
723.4280, 243.0361
723.9101, 242.4778
724.3922, 242.4158
724.8743, 242.6554
725.3564, 242.8744
725.8386, 243.1923
726.3207, 243.0508
726.8028, 241.6150
727.2849, 240.6967
727.7670, 241.2804
728.2491, 242.4609
728.7313, 243.2331
729.2134, 243.3888
729.6955, 243.1020
730.1776, 242.1144
730.6597, 240.9675
731.1418, 240.6995
731.6240, 241.1423
732.1061, 241.2422
732.5882, 240.6182
733.0703, 239.6427
733.5524, 238.7015
734.0345, 237.7804
734.5167, 237.2514
734.9988, 237.5361
735.4809, 237.6722
735.9631, 237.3038
736.4452, 236.8936
736.9273, 236.7664
737.4094, 236.9631
737.8915, 237.4863
738.3737, 238.7753
738.8558, 239.7969
739.3379, 238.9535
739.8200, 236.8968
740.3021, 235.7258
740.7842, 235.8567
741.2664, 236.1209
741.7485, 235.5454
742.2306, 234.3542
742.7127, 233.6547
743.1948, 233.7110
743.6769, 233.7846
744.1591, 233.9292
744.6412, 233.9873
745.1233, 233.8193
745.6054, 233.5118
746.0875, 233.2656
746.5696, 233.1768
747.0518, 233.0168
747.5339, 232.4867
748.0160, 231.8251
748.4981, 231.3213
748.9802, 231.0505
749.4623, 231.3317
749.9445, 232.3805
750.4266, 233.7924
750.9087, 234.9031
751.3908, 235.8194
751.8729, 235.8911
752.3550, 234.1776
752.8372, 232.8633
753.3193, 232.8402
753.8014, 233.4199
754.2835, 234.0104
754.7656, 234.5172
755.2477, 234.6124
755.7299, 233.6217
756.2120, 232.5939
756.6941, 232.8678
757.1762, 233.8605
757.6583, 233.9906
758.1404, 232.8731
758.6226, 231.5984
759.1047, 231.2545
759.5868, 231.7041
760.0689, 232.0397
760.5510, 232.3456
761.0331, 232.3044
761.5153, 231.7145
761.9974, 230.8941
762.4795, 229.7168
762.9616, 228.4839
763.4437, 228.2281
763.9258, 229.8543
764.4080, 231.2458
764.8901, 231.0882
765.3722, 230.3432
765.8543, 230.1198
766.3364, 230.4032
766.8185, 230.5663
767.3007, 230.2555
767.7828, 229.8088
768.2649, 229.9538
768.7470, 230.7296
769.2291, 230.8857
769.7112, 230.1430
770.1934, 229.3810
770.6755, 229.0408
771.1576, 228.9143
771.6397, 228.5692
772.1218, 227.9061
772.6039, 227.7083
773.0861, 228.5689
773.5682, 229.4220
774.0503, 229.7085
774.5324, 229.6363
775.0145, 229.5742
775.4966, 229.5699
775.9788, 229.3023
776.4609, 228.3387
776.9430, 227.0874
777.4251, 226.6629
777.9072, 227.0402
778.3893, 227.0263
778.8715, 226.2101
779.3536, 225.4854
779.8357, 225.7563
780.3178, 226.8186
780.7999, 227.2686
781.2820, 226.4572
781.7642, 225.9829
782.2463, 226.3219
782.7284, 226.6403
783.2105, 226.1585
783.6926, 225.3022
784.1747, 225.0795
784.6569, 225.8997
785.1390, 226.8400
785.6211, 227.0867
786.1032, 226.8755
786.5853, 226.6805
787.0674, 226.4995
787.5496, 225.9994
788.0317, 224.9947
788.5138, 223.9706
788.9959, 223.6480
789.4780, 224.0785
789.9601, 224.4926
790.4423, 224.9384
790.9244, 225.2913
791.4065, 225.2583
791.8886, 225.3327
792.3707, 226.2968
792.8528, 227.8730
793.3350, 228.4784
793.8171, 226.9532
794.2992, 225.1966
794.7813, 224.1897
795.2634, 223.7662
795.7455, 223.9149
796.2277, 224.4626
796.7098, 224.7901
797.1919, 224.4955
797.6740, 223.9651
798.1561, 224.0731
798.6382, 224.8612
799.1204, 225.0037
799.6025, 224.0923
800.0846, 223.5384
800.5667, 224.3971
801.0488, 225.7755
801.5309, 225.8932
802.0131, 224.5065
802.4952, 223.6404
802.9773, 224.1388
803.4594, 224.4202
803.9415, 223.3721
804.4236, 221.9812
804.9058, 221.5715
805.3879, 222.2148
805.8700, 222.8931
806.3521, 222.9556
806.8342, 222.6400
807.3163, 222.0972
807.7985, 221.4630
808.2806, 221.4920
808.7627, 222.3375
809.2448, 222.8915
809.7269, 222.2692
810.2090, 220.9350
810.6912, 220.3268
811.1733, 220.7270
811.6554, 221.1836
812.1375, 222.0954
812.6196, 222.5873
813.1017, 221.9161
813.5839, 220.8387
814.0660, 220.3446
814.5481, 220.5746
815.0302, 221.0655
815.5123, 222.2569
815.9944, 223.0286
816.4766, 222.0071
816.9587, 220.0713
817.4408, 218.7892
817.9229, 218.5162
818.4050, 218.7757
818.8871, 219.2408
819.3693, 219.8304
819.8514, 220.4427
820.3335, 221.0984
820.8156, 221.0964
821.2977, 220.0433
821.7798, 219.2221
822.2620, 219.6567
822.7441, 220.8735
823.2262, 221.4640
823.7083, 221.0979
824.1904, 220.8782
824.6725, 221.0623
825.1547, 221.1450
825.6368, 220.5242
826.1189, 219.8526
826.6010, 220.2556
827.0831, 221.8169
827.5652, 223.0226
828.0474, 222.6969
828.5295, 221.6534
829.0116, 220.5248
829.4937, 219.5077
829.9758, 219.3133
830.4579, 220.0130
830.9401, 220.5811
831.4222, 220.1827
831.9043, 219.1865
832.3864, 218.6816
832.8685, 218.7298
833.3506, 219.0665
833.8328, 220.1121
834.3149, 220.5972
834.7971, 219.1780
835.2792, 217.0688
835.7613, 216.5908
836.2434, 218.1009
836.7255, 219.2302
837.2076, 219.5587
837.6898, 219.4761
838.1719, 218.8727
838.6540, 218.1362
839.1361, 217.5811
839.6182, 217.3391
840.1003, 217.6751
840.5825, 219.1040
841.0646, 220.5902
841.5467, 220.3696
842.0288, 219.0331
842.5109, 218.5929
842.9930, 219.2883
843.4752, 219.9579
843.9573, 219.8814
844.4394, 219.3903
844.9215, 219.2138
845.4036, 219.4671
845.8857, 219.4346
846.3679, 218.9904
846.8500, 218.4803
847.3321, 217.9728
847.8142, 217.5002
848.2963, 217.0373
848.7784, 216.5992
849.2606, 216.4200
849.7427, 216.9393
850.2248, 217.2355
850.7069, 216.6968
851.1890, 215.9414
851.6711, 215.4364
852.1533, 215.3087
852.6354, 215.7634
853.1175, 216.9880
853.5996, 218.1831
854.0817, 218.3536
854.5638, 217.8071
855.0460, 217.3086
855.5281, 216.8969
856.0102, 216.4118
856.4923, 215.7665
856.9744, 215.2138
857.4565, 215.1099
857.9387, 215.4344
858.4208, 215.6684
858.9029, 215.9220
859.3850, 215.7944
859.8671, 214.8383
860.3492, 213.8821
860.8314, 213.4176
861.3135, 213.4288
861.7956, 213.9921
862.2777, 215.6302
862.7598, 216.6109
863.2419, 215.9802
863.7241, 215.0484
864.2062, 214.7101
864.6883, 214.6941
865.1704, 214.2736
865.6525, 213.3426
866.1346, 212.8237
866.6168, 213.9764
867.0989, 215.5462
867.5810, 215.2767
868.0631, 213.7092
868.5452, 212.6991
869.0273, 212.6050
869.5095, 212.8095
869.9916, 212.8811
870.4737, 212.8776
870.9558, 213.0208
871.4379, 213.4234
871.9200, 213.2006
872.4022, 211.7650
872.8843, 210.9814
873.3664, 212.1971
873.8485, 214.1012
874.3306, 214.6824
874.8127, 213.9079
875.2949, 213.3400
875.7770, 213.3916
876.2591, 213.2550
876.7412, 212.3156
877.2233, 211.4032
877.7054, 211.4119
878.1876, 212.0910
878.6697, 212.5892
879.1518, 212.5962
879.6339, 212.2383
880.1160, 211.5608
880.5981, 210.6182
881.0803, 209.0162
881.5624, 207.1980
882.0445, 206.7060
882.5266, 208.0042
883.0087, 209.8500
883.4908, 211.0894
883.9730, 211.7024
884.4551, 211.3554
884.9372, 209.9660
885.4193, 209.0843
885.9014, 209.0293
886.3835, 209.4211
886.8657, 210.1908
887.3478, 211.0610
887.8299, 211.2385
888.3120, 210.3744
888.7941, 209.7493
889.2762, 209.5526
889.7584, 209.3619
890.2405, 208.8238
890.7226, 208.3880
891.2047, 208.7820
891.6868, 209.8762
892.1689, 210.3507
892.6511, 209.2499
893.1332, 208.1493
893.6153, 207.7702
894.0974, 207.8469
894.5795, 208.3254
895.0616, 208.9811
895.5438, 209.3677
896.0259, 209.3037
896.5080, 208.8992
896.9901, 207.9727
897.4722, 206.9000
897.9543, 206.6575
898.4365, 207.1349
898.9186, 207.7049
899.4007, 208.1930
899.8828, 208.4633
900.3649, 208.3770
900.8470, 208.0136
901.3292, 207.5937
901.8113, 207.0200
902.2934, 206.9405
902.7755, 207.6832
903.2576, 208.2944
903.7397, 208.2245
904.2219, 207.8030
904.7040, 207.5317
905.1861, 207.4237
905.6682, 207.3981
906.1503, 207.3620
906.6324, 207.5356
907.1146, 208.1904
907.5967, 208.8940
908.0788, 209.3815
908.5609, 209.6109
909.0430, 209.5359
909.5251, 209.0821
910.0073, 208.5649
910.4894, 207.9689
910.9715, 207.5590
911.4536, 207.7988
911.9357, 208.3762
912.4178, 208.5637
912.9000, 208.2345
913.3821, 207.9705
913.8642, 208.2484
914.3463, 208.8778
914.8284, 209.6620
915.3105, 210.5040
915.7927, 210.8688
916.2748, 210.7000
916.7569, 210.6703
917.2390, 211.2080
917.7211, 211.7482
918.2032, 211.1828
918.6854, 209.4373
919.1675, 208.8364
919.6496, 209.8310
920.1317, 210.5425
920.6138, 210.1756
921.0959, 209.8734
921.5781, 210.9521
922.0602, 212.9721
922.5423, 213.7338
923.0244, 212.3928
923.5065, 211.4314
923.9886, 211.0728
924.4708, 210.9660
924.9529, 210.9307
925.4350, 211.0741
925.9171, 211.8753
926.3992, 213.2275
926.8813, 213.6440
927.3635, 211.3414
927.8456, 209.3841
928.3277, 209.8960
928.8098, 211.4123
929.2919, 212.5662
929.7740, 213.1883
930.2562, 213.3232
930.7383, 212.9883
931.2204, 212.7843
931.7025, 213.6093
932.1846, 214.8053
932.6667, 214.7792
933.1489, 213.9959
933.6310, 214.4682
934.1132, 216.5534
934.5953, 218.6405
935.0774, 219.5441
935.5595, 219.5794
936.0416, 219.2851
936.5237, 218.6534
937.0059, 218.5205
937.4880, 218.9726
937.9701, 219.6824
938.4522, 220.6324
938.9343, 221.4933
939.4164, 221.7020
939.8986, 223.2389
940.3807, 222.3079
940.8628, 225.6998
941.3449, 228.1160
941.8270, 228.9184
942.3091, 229.0611
942.7913, 228.3859
943.2734, 227.6609
943.7555, 228.3133
944.2376, 230.6222
944.7197, 232.4852
945.2018, 232.7997
945.6840, 233.5642
946.1661, 235.9203
946.6482, 238.7269
947.1303, 241.0718
947.6124, 242.9129
948.0945, 244.3698
948.5767, 245.3222
949.0588, 246.7540
949.5409, 249.6729
950.0230, 253.0358
950.5051, 256.1320
950.9872, 258.7864
951.4694, 260.4340
951.9515, 261.2590
952.4336, 262.7005
952.9157, 265.8680
953.3978, 269.8083
953.8799, 273.2639
954.3621, 276.3674
954.8442, 279.5328
955.3263, 282.7508
955.8084, 285.6660
956.2905, 288.1378
956.7726, 290.6815
957.2548, 294.0161
957.7369, 297.8277
958.2190, 300.6767
958.7011, 302.5070
959.1832, 304.6478
959.6653, 307.3552
960.1475, 310.1896
960.6296, 312.9615
961.1117, 315.6153
961.5938, 318.0092
962.0759, 320.0877
962.5580, 322.4471
963.0402, 324.9013
963.5223, 328.0859
964.0044, 333.1121
964.4865, 337.7221
964.9686, 339.4457
965.4507, 339.4418
965.9329, 341.4156
966.4150, 346.1127
966.8971, 350.7485
967.3792, 353.9663
967.8613, 358.5234
968.3434, 366.2760
968.8256, 375.2339
969.3077, 383.7050
969.7898, 391.5363
970.2719, 398.8358
970.7540, 405.3688
971.2361, 412.0295
971.7183, 419.2196
972.2004, 426.6997
972.6825, 434.2791
973.1646, 441.9785
973.6467, 449.6952
974.1288, 457.5270
974.6110, 466.1631
975.0931, 475.6185
975.5752, 486.6682
976.0573, 500.3024
976.5394, 515.9025
977.0215, 532.5321
977.5037, 550.3128
977.9858, 569.9194
978.4679, 591.6622
978.9500, 614.5349
979.4321, 637.7645
979.9142, 661.1824
980.3964, 686.6757
980.8785, 711.9200
981.3606, 729.3681
981.8427, 737.5447
982.3248, 734.8215
982.8069, 720.2601
983.2891, 695.6132
983.7712, 661.5414
984.2533, 619.2930
984.7354, 576.2044
985.2175, 532.1555
985.6996, 491.4124
986.1818, 454.5996
986.6639, 422.1352
987.1460, 394.6197
987.6281, 371.2321
988.1102, 350.3630
988.5923, 331.9370
989.0745, 315.8382
989.5566, 301.9374
990.0387, 290.7427
990.5208, 283.1334
991.0029, 277.0952
991.4850, 271.0585
991.9672, 265.2209
992.4493, 260.3359
992.9314, 256.8468
993.4135, 253.2805
993.8956, 249.2387
994.3777, 245.6798
994.8599, 243.1019
995.3420, 240.9678
995.8241, 238.6340
996.3062, 236.2442
996.7883, 234.6032
997.2704, 234.2241
997.7526, 233.7920
998.2347, 233.2154
998.7168, 232.4459
999.1989, 231.3355
999.6810, 230.0895
1000.163, 228.9472
1000.645, 227.9196
1001.127, 226.9223
1001.609, 225.7803
1002.092, 224.8972
1002.574, 224.5393
1003.056, 224.4000
1003.538, 224.6508
1004.020, 224.7751
1004.502, 223.7015
1004.984, 221.4051
1005.466, 219.4943
1005.949, 218.7465
1006.431, 218.7842
1006.913, 220.0015
1007.395, 221.3579
1007.877, 221.4157
1008.359, 220.5815
1008.841, 220.1049
1009.323, 220.3491
1009.805, 220.7099
1010.288, 220.7098
1010.770, 220.5978
1011.252, 220.8049
1011.734, 221.0596
1012.216, 220.6610
1012.698, 219.7912
1013.180, 219.3631
1013.662, 219.7444
1014.145, 220.4653
1014.627, 221.2002
1015.109, 221.8176
1015.591, 221.8907
1016.073, 221.6243
1016.555, 221.7285
1017.037, 222.2514
1017.519, 222.7680
1018.001, 223.0632
1018.484, 223.2603
1018.966, 223.5519
1019.448, 223.8602
1019.930, 223.8287
1020.412, 223.5060
1020.894, 223.3406
1021.376, 223.4093
1021.858, 223.6658
1022.341, 224.1187
1022.823, 224.5012
1023.305, 224.3362
1023.787, 223.6918
1024.269, 223.2401
1024.751, 222.9899
1025.233, 222.6800
1025.715, 222.2032
1026.198, 222.1362
1026.680, 222.9434
1027.162, 224.1069
1027.644, 224.7235
1028.126, 224.7995
1028.608, 223.8138
1029.090, 221.3012
1029.572, 220.1217
1030.054, 221.3013
1030.536, 222.7343
1031.019, 223.1153
1031.501, 222.6023
1031.983, 221.4027
1032.465, 219.3521
1032.947, 217.9962
1033.429, 217.6873
1033.911, 217.1245
1034.393, 215.9183
1034.876, 214.5543
1035.358, 213.2035
1035.840, 212.0603
1036.322, 211.6761
1036.804, 212.3121
1037.286, 212.4581
1037.768, 212.1940
1038.250, 211.2578
1038.733, 208.9374
1039.215, 206.7175
1039.697, 205.6996
1040.179, 205.5606
1040.661, 205.5457
1041.143, 205.7564
1041.625, 205.7176
1042.107, 205.5409
1042.589, 204.9581
1043.072, 203.4199
1043.554, 201.9344
1044.036, 201.5194
1044.518, 201.6342
1045.000, 200.8231
1045.482, 198.6115
1045.964, 197.2227
1046.446, 197.5941
1046.928, 197.7441
1047.411, 196.6654
1047.893, 195.6652
1048.375, 196.1056
1048.857, 197.2862
1049.339, 197.4234
1049.821, 196.1306
1050.303, 194.9411
1050.785, 194.0139
1051.268, 193.3170
1051.750, 192.8290
1052.232, 192.5800
1052.714, 192.7053
1053.196, 193.0619
1053.678, 193.3778
1054.160, 193.6334
1054.642, 193.6977
1055.125, 193.2777
1055.607, 193.0030
1056.089, 193.4787
1056.571, 193.8562
1057.053, 193.1455
1057.535, 191.8769
1058.017, 191.3156
1058.499, 191.7578
1058.981, 192.0957
1059.464, 192.1855
1059.946, 191.8624
1060.428, 190.3351
1060.910, 189.0183
1061.392, 189.7518
1061.874, 191.4056
1062.356, 191.2652
1062.838, 188.7153
1063.320, 186.9469
1063.803, 187.9165
1064.285, 188.8411
1064.767, 188.0654
1065.249, 187.1073
1065.731, 187.5761
1066.213, 188.7647
1066.695, 188.9621
1067.177, 187.8559
1067.660, 187.1832
1068.142, 188.0555
1068.624, 188.9644
1069.106, 189.2532
1069.588, 189.2418
1070.070, 189.1688
1070.552, 189.0127
1071.034, 188.5724
1071.516, 187.8543
1071.999, 187.4511
1072.481, 187.4630
1072.963, 188.0359
1073.445, 190.1214
1073.927, 191.9550
1074.409, 191.7106
1074.891, 190.3586
1075.373, 189.5460
1075.855, 189.5444
1076.338, 189.7311
1076.820, 190.0191
1077.302, 190.1756
1077.784, 190.0278
1078.266, 189.7664
1078.748, 189.3831
1079.230, 189.0712
1079.712, 189.0982
1080.195, 189.4850
1080.677, 190.1151
1081.159, 191.2191
1081.641, 191.9614
1082.123, 191.4797
1082.605, 190.9730
1083.087, 191.6184
1083.569, 192.5917
1084.052, 192.5068
1084.534, 191.5197
1085.016, 191.2257
1085.498, 192.4788
1085.980, 193.5296
1086.462, 193.4243
1086.944, 193.0737
1087.426, 192.7735
1087.908, 192.7747
1088.391, 193.7585
1088.873, 195.2875
1089.355, 195.7354
1089.837, 194.3984
1090.319, 193.0421
1090.801, 192.1362
1091.283, 191.6896
1091.765, 191.8284
1092.248, 192.3348
1092.730, 193.3725
1093.212, 194.5234
1093.694, 194.6571
1094.176, 193.3389
1094.658, 192.4437
1095.140, 193.0442
1095.622, 193.6861
1096.104, 193.8149
1096.587, 193.6108
1097.069, 193.1445
1097.551, 192.5141
1098.033, 191.7593
1098.515, 190.8669
1098.997, 190.4874
1099.479, 191.3370
1099.961, 192.0020
1100.443, 192.0795
1100.926, 191.7366
1101.408, 190.7640
1101.890, 189.6176
1102.372, 188.8592
1102.854, 188.5784
1103.336, 189.0112
1103.818, 191.3399
1104.300, 192.7214
1104.783, 191.8130
1105.265, 190.6234
1105.747, 190.0595
1106.229, 189.9481
1106.711, 190.0268
1107.193, 190.2859
1107.675, 190.8613
1108.157, 192.5332
1108.640, 193.0405
1109.122, 191.0169
1109.604, 189.1246
1110.086, 188.3096
1110.568, 188.1676
1111.050, 188.5123
1111.532, 189.1882
1112.014, 189.6310
1112.496, 189.5410
1112.979, 189.9795
1113.461, 192.0580
1113.943, 193.2021
1114.425, 191.9995
1114.907, 190.4762
1115.389, 190.1699
1115.871, 190.5303
1116.353, 190.1968
1116.835, 188.8929
1117.318, 188.5665
1117.800, 189.8447
1118.282, 190.9791
1118.764, 192.0529
1119.246, 192.3750
1119.728, 191.0130
1120.210, 189.2100
1120.692, 188.9879
1121.175, 190.3049
1121.657, 190.9710
1122.139, 190.6349
1122.621, 190.6505
1123.103, 191.2520
1123.585, 191.9220
1124.067, 192.5183
1124.549, 192.9342
1125.031, 193.0040
1125.514, 192.8112
1125.996, 192.7330
1126.478, 192.7500
1126.960, 193.0984
1127.442, 194.0096
1127.924, 194.0655
1128.406, 192.5958
1128.888, 191.1723
1129.370, 191.1200
1129.853, 190.3907
1130.335, 191.6236
1130.817, 190.5910
1131.299, 190.5549
1131.781, 191.5984
1132.263, 191.6636
1132.745, 190.2695
1133.227, 189.1248
1133.710, 189.2453
1134.192, 189.8984
1134.674, 190.0996
1135.156, 189.8983
1135.638, 189.3933
1136.120, 188.6380
1136.602, 188.0945
1137.084, 187.7810
1137.567, 187.2576
1138.049, 186.3555
1138.531, 185.3864
1139.013, 184.6486
1139.495, 184.0286
1139.977, 183.0694
1140.459, 182.1110
1140.941, 182.5816
1141.423, 183.9849
1141.906, 184.0908
1142.388, 182.4857
1142.870, 180.4893
1143.352, 178.8183
1143.834, 177.7623
1144.316, 178.1006
1144.798, 178.9328
1145.280, 178.7923
1145.762, 178.1233
1146.245, 177.9444
1146.727, 178.2249
1147.209, 178.2541
1147.691, 177.7572
1148.173, 177.1588
1148.655, 176.6346
1149.137, 176.3087
1149.619, 176.7634
1150.102, 177.1007
1150.584, 175.8628
1151.066, 173.8242
1151.548, 172.7841
1152.030, 172.9756
1152.512, 172.9987
1152.994, 172.1131
1153.476, 171.2126
1153.958, 170.5667
1154.441, 170.2364
1154.923, 170.5108
1155.405, 170.9438
1155.887, 170.9054
1156.369, 170.5322
1156.851, 170.5903
1157.333, 171.4697
1157.815, 171.8085
1158.297, 171.0378
1158.780, 170.0627
1159.262, 168.7202
1159.744, 167.7203
1160.226, 167.8071
1160.708, 168.4872
1161.190, 168.8656
1161.672, 168.9145
1162.154, 168.8151
1162.637, 168.4790
1163.119, 168.1789
1163.601, 168.1708
1164.083, 167.7209
1164.565, 166.0120
1165.047, 164.5262
1165.529, 165.0997
1166.011, 167.0557
1166.494, 167.5466
1166.976, 166.1752
1167.458, 165.3257
1167.940, 165.0383
1168.422, 165.1333
1168.904, 165.6359
1169.386, 166.1643
1169.868, 166.4867
1170.350, 166.5863
1170.833, 166.3676
1171.315, 165.9172
1171.797, 165.7273
1172.279, 165.7915
1172.761, 166.1297
1173.243, 166.7030
1173.725, 167.0863
1174.207, 167.1080
1174.689, 166.5993
1175.172, 165.2292
1175.654, 163.7823
1176.136, 163.9092
1176.618, 164.8515
1177.100, 164.7448
1177.582, 163.9411
1178.064, 163.8690
1178.546, 164.5656
1179.029, 164.5322
1179.511, 162.9621
1179.993, 161.7602
1180.475, 163.2664
1180.957, 165.1805
1181.439, 165.2794
1181.921, 164.4034
1182.403, 163.3006
1182.885, 162.2706
1183.368, 161.7226
1183.850, 161.6927
1184.332, 161.5690
1184.814, 160.7886
1185.296, 160.4416
1185.778, 161.6502
1186.260, 162.6457
1186.742, 161.9769
1187.225, 160.8338
1187.707, 160.6386
1188.189, 161.1484
1188.671, 161.1211
1189.153, 160.1339
1189.635, 159.8073
1190.117, 161.1622
1190.599, 161.7695
1191.082, 160.7418
1191.564, 159.6613
1192.046, 159.5852
1192.528, 159.6521
1193.010, 158.4735
1193.492, 156.3220
1193.974, 155.5144
1194.456, 156.2414
1194.938, 157.5160
1195.421, 159.5498
1195.903, 160.5315
1196.385, 159.8240
1196.867, 158.5071
1197.349, 157.2551
1197.831, 156.4461
1198.313, 157.1448
1198.795, 158.8325
1199.277, 158.7550
1199.760, 157.2893
1200.242, 156.4805
1200.724, 156.4536
1201.206, 155.9856
1201.688, 154.6805
1202.170, 153.7285
1202.652, 154.2920
1203.134, 155.2204
1203.617, 154.9066
1204.099, 154.1613
1204.581, 154.1927
1205.063, 154.6609
1205.545, 154.8792
1206.027, 154.7569
1206.509, 154.5262
1206.991, 154.2875
1207.474, 153.7112
1207.956, 151.8323
1208.438, 150.6107
1208.920, 151.8239
1209.402, 153.3299
1209.884, 153.2638
1210.366, 152.4459
1210.848, 152.2838
1211.330, 152.8107
1211.813, 153.1511
1212.295, 153.3101
1212.777, 153.0678
1213.259, 151.8473
1213.741, 151.2048
1214.223, 152.0003
1214.705, 152.7236
1215.187, 152.2624
1215.669, 151.1545
1216.152, 150.3260
1216.634, 149.7812
1217.116, 149.6770
1217.598, 150.0463
1218.080, 150.5483
1218.562, 151.1776
1219.044, 151.2820
1219.526, 150.6173
1220.009, 150.0125
1220.491, 150.1915
1220.973, 150.5534
1221.455, 149.8003
1221.937, 149.9167
1222.419, 149.6498
1222.901, 149.2541
1223.383, 149.2864
1223.865, 148.7016
1224.348, 148.8067
1224.830, 149.9696
1225.312, 150.7650
1225.794, 149.8123
1226.276, 148.9479
1226.758, 150.3188
1227.240, 151.6392
1227.722, 150.4761
1228.204, 148.2789
1228.687, 146.7729
1229.169, 146.1496
1229.651, 146.3452
1230.133, 147.5617
1230.615, 148.3117
1231.097, 147.9180
1231.579, 147.6522
1232.061, 148.0240
1232.544, 148.2266
1233.026, 147.7127
1233.508, 147.0720
1233.990, 147.0058
1234.472, 147.3535
1234.954, 147.3701
1235.436, 146.9144
1235.918, 147.2529
1236.401, 148.5030
1236.883, 149.2413
1237.365, 149.1567
1237.847, 148.9993
1238.329, 149.1789
1238.811, 149.1403
1239.293, 148.0985
1239.775, 146.6652
1240.257, 146.1424
1240.740, 146.2039
1241.222, 146.0737
1241.704, 145.8443
1242.186, 146.0471
1242.668, 146.6221
1243.150, 146.8193
1243.632, 146.2853
1244.114, 145.7359
1244.596, 145.5054
1245.079, 145.5904
1245.561, 146.0145
1246.043, 146.7272
1246.525, 148.3509
1247.007, 149.8359
1247.489, 149.1409
1247.971, 146.6146
1248.453, 145.6391
1248.936, 147.6609
1249.418, 148.4326
1249.900, 147.1317
1250.382, 146.1052
1250.864, 145.9017
1251.346, 145.8862
1251.828, 145.7261
1252.310, 145.5283
1252.792, 145.4570
1253.275, 145.4448
1253.757, 145.1309
1254.239, 144.5622
1254.721, 144.3648
1255.203, 144.5233
1255.685, 144.6911
1256.167, 144.7772
1256.649, 144.6898
1257.131, 144.3771
1257.614, 144.3176
1258.096, 145.3129
1258.578, 146.3965
1259.060, 146.4187
1259.542, 145.8880
1260.024, 145.2004
1260.506, 144.5522
1260.988, 144.3245
1261.471, 144.3824
1261.953, 143.9471
1262.435, 142.6522
1262.917, 141.6379
1263.399, 141.0792
1263.881, 140.9963
1264.363, 141.4314
1264.845, 142.3504
1265.328, 144.3124
1265.810, 146.0754
1266.292, 146.0653
1266.774, 144.7627
1267.256, 144.1287
1267.738, 144.2599
1268.220, 143.9225
1268.702, 143.0805
1269.184, 143.2288
1269.667, 144.5897
1270.149, 145.2210
1270.631, 144.2416
1271.113, 143.0261
1271.595, 142.8689
1272.077, 143.2434
1272.559, 143.2658
1273.041, 143.3843
1273.523, 144.8651
1274.006, 146.6213
1274.488, 146.5828
1274.970, 144.9787
1275.452, 143.1121
1275.934, 141.3375
1276.416, 140.5341
1276.898, 141.7229
1277.380, 142.8814
1277.863, 143.7141
1278.345, 144.0900
1278.827, 143.5439
1279.309, 142.9001
1279.791, 142.7610
1280.273, 143.0556
1280.755, 143.7334
1281.237, 144.7823
1281.719, 145.0586
1282.202, 144.4941
1282.684, 144.0708
1283.166, 143.8860
1283.648, 143.9526
1284.130, 144.2550
1284.612, 144.3746
1285.094, 144.0107
1285.576, 143.4369
1286.059, 142.8689
1286.541, 142.4033
1287.023, 142.1843
1287.505, 142.2404
##END=



