##NAMES=Ferberite
##RRUFFID=R050090
##IDEAL CHEMISTRY=Fe^2+^W^6+^O_4_
##LOCALITY=Yaogangxian mine, Cheng Zhu City, South Hunan, China
##OWNER=RRUFF
##SOURCE=Rock Currier
##DESCRIPTION=Dark gray tabular crystal
##STATUS=The identification of this mineral has been confirmed by X-ray diffraction and chemical analysis
##URL=rruff.info/R050090
##MEASURED CHEMISTRY=(Fe^2+^_0.56_Mn_0.44_)W_1.00_O_4_
106.0836, 48.10418
106.5657, 53.54263
107.0478, 58.28645
107.5299, 61.55997
108.0120, 60.59517
108.4941, 53.73636
108.9763, 49.48227
109.4584, 52.56832
109.9405, 60.68210
110.4226, 67.33279
110.9047, 69.24482
111.3868, 69.95268
111.8690, 75.15595
112.3511, 85.36676
112.8332, 97.83160
113.3153, 110.9691
113.7974, 124.8602
114.2795, 140.0676
114.7617, 157.0945
115.2438, 175.5297
115.7259, 195.1224
116.2080, 216.1928
116.6901, 237.2668
117.1722, 256.9199
117.6544, 275.2133
118.1365, 292.2390
118.6186, 307.2665
119.1007, 321.2862
119.5828, 334.7729
120.0649, 347.5219
120.5471, 360.5661
121.0292, 375.4110
121.5113, 392.2007
121.9934, 410.4897
122.4755, 428.3785
122.9576, 448.3369
123.4398, 472.5879
123.9219, 501.9594
124.4040, 536.5693
124.8861, 576.3468
125.3682, 622.0495
125.8503, 673.2136
126.3325, 724.4084
126.8146, 781.5324
127.2967, 851.8382
127.7788, 938.6929
128.2609, 1040.999
128.7430, 1151.435
129.2252, 1273.415
129.7073, 1400.508
130.1894, 1554.124
130.6715, 1707.345
131.1536, 1825.528
131.6357, 1888.562
132.1179, 1897.879
132.6000, 1863.754
133.0821, 1742.371
133.5642, 1619.417
134.0463, 1511.774
134.5284, 1413.813
135.0106, 1310.764
135.4927, 1191.376
135.9748, 1057.437
136.4569, 949.9149
136.9390, 877.6761
137.4211, 819.8502
137.9033, 772.5186
138.3854, 734.8661
138.8675, 706.5726
139.3496, 688.0185
139.8317, 679.3217
140.3138, 673.9901
140.7960, 671.0376
141.2781, 671.4139
141.7602, 673.8286
142.2423, 679.4504
142.7244, 692.2154
143.2065, 716.0347
143.6887, 751.3112
144.1708, 786.5500
144.6529, 820.8787
145.1350, 855.7495
145.6171, 890.9792
146.0992, 927.0128
146.5814, 966.4365
147.0635, 1012.867
147.5456, 1066.133
148.0277, 1112.205
148.5098, 1149.780
148.9919, 1181.327
149.4741, 1212.138
149.9562, 1241.905
150.4383, 1259.227
150.9204, 1253.196
151.4025, 1223.767
151.8846, 1187.822
152.3668, 1140.066
152.8489, 1089.894
153.3310, 1043.607
153.8131, 1001.630
154.2952, 966.9849
154.7773, 945.0945
155.2595, 933.4590
155.7416, 921.4883
156.2237, 904.8907
156.7058, 888.4976
157.1879, 877.3980
157.6700, 871.8561
158.1522, 871.4503
158.6343, 879.5065
159.1164, 892.8796
159.5985, 904.0674
160.0806, 909.8411
160.5627, 912.8574
161.0449, 916.5583
161.5270, 920.9634
162.0091, 926.2110
162.4912, 934.0688
162.9733, 942.8281
163.4554, 949.1472
163.9376, 949.0264
164.4197, 946.4999
164.9018, 948.7584
165.3839, 956.3212
165.8660, 967.3433
166.3481, 983.0275
166.8303, 1001.046
167.3124, 1017.498
167.7945, 1030.674
168.2766, 1041.391
168.7587, 1052.694
169.2408, 1067.701
169.7230, 1075.817
170.2051, 1068.006
170.6872, 1050.844
171.1693, 1034.207
171.6514, 1023.260
172.1335, 1015.451
172.6157, 1003.430
173.0978, 983.4238
173.5799, 966.9818
174.0620, 959.7609
174.5441, 958.6371
175.0262, 959.6734
175.5084, 961.4109
175.9905, 963.7744
176.4726, 967.0262
176.9547, 972.8753
177.4368, 976.2488
177.9189, 974.6868
178.4010, 970.0323
178.8832, 964.0620
179.3653, 956.2131
179.8474, 948.8613
180.3295, 950.0585
180.8116, 966.3666
181.2937, 979.6744
181.7759, 981.0136
182.2580, 977.5035
182.7401, 978.1342
183.2222, 987.7881
183.7043, 1003.487
184.1864, 1016.707
184.6686, 1025.724
185.1507, 1035.048
185.6328, 1044.955
186.1149, 1056.018
186.5970, 1068.769
187.0791, 1083.358
187.5613, 1100.048
188.0434, 1120.029
188.5255, 1143.969
189.0076, 1170.241
189.4897, 1199.422
189.9718, 1229.712
190.4540, 1259.646
190.9361, 1288.357
191.4182, 1316.252
191.9003, 1343.277
192.3824, 1364.221
192.8645, 1394.663
193.3467, 1441.807
193.8288, 1495.865
194.3109, 1547.451
194.7930, 1592.812
195.2751, 1635.346
195.7572, 1682.270
196.2394, 1737.562
196.7215, 1790.512
197.2036, 1838.574
197.6857, 1884.836
198.1678, 1930.185
198.6499, 1975.281
199.1321, 2023.001
199.6142, 2079.626
200.0963, 2151.291
200.5784, 2220.073
201.0605, 2279.377
201.5426, 2338.882
202.0248, 2402.585
202.5069, 2472.748
202.9890, 2552.869
203.4711, 2653.394
203.9532, 2794.959
204.4353, 2908.775
204.9175, 2979.460
205.3996, 3034.981
205.8817, 3095.440
206.3638, 3164.219
206.8459, 3229.406
207.3280, 3276.710
207.8102, 3307.502
208.2923, 3313.405
208.7744, 3295.930
209.2565, 3256.453
209.7386, 3194.908
210.2207, 3111.645
210.7029, 3006.418
211.1850, 2873.848
211.6671, 2703.007
212.1492, 2547.821
212.6313, 2417.706
213.1134, 2294.700
213.5956, 2169.743
214.0777, 2043.808
214.5598, 1923.702
215.0419, 1815.646
215.5240, 1719.934
216.0061, 1637.097
216.4883, 1573.704
216.9704, 1516.469
217.4525, 1461.547
217.9346, 1408.539
218.4167, 1357.608
218.8988, 1308.041
219.3810, 1259.610
219.8631, 1221.025
220.3452, 1199.113
220.8273, 1181.068
221.3094, 1166.017
221.7915, 1152.263
222.2737, 1137.246
222.7558, 1119.014
223.2379, 1097.881
223.7200, 1078.735
224.2021, 1058.058
224.6842, 1043.817
225.1664, 1041.166
225.6485, 1045.219
226.1306, 1049.098
226.6127, 1048.927
227.0948, 1045.417
227.5770, 1041.583
228.0591, 1038.258
228.5412, 1033.275
229.0233, 1023.283
229.5054, 1012.650
229.9875, 1007.346
230.4697, 1010.263
230.9518, 1017.187
231.4339, 1016.815
231.9160, 1000.681
232.3981, 992.0944
232.8802, 999.4294
233.3624, 1011.452
233.8445, 1018.620
234.3266, 1017.752
234.8087, 1012.089
235.2908, 1006.365
235.7729, 998.6078
236.2551, 995.7513
236.7372, 1002.540
237.2193, 1010.854
237.7014, 1013.810
238.1835, 1010.776
238.6656, 1008.181
239.1478, 1015.896
239.6299, 1038.725
240.1120, 1053.973
240.5941, 1051.861
241.0762, 1049.367
241.5583, 1056.769
242.0405, 1072.971
242.5226, 1088.235
243.0047, 1091.455
243.4868, 1081.107
243.9689, 1077.035
244.4510, 1080.129
244.9332, 1089.526
245.4153, 1108.178
245.8974, 1133.309
246.3795, 1158.110
246.8616, 1176.805
247.3437, 1190.635
247.8259, 1210.073
248.3080, 1240.411
248.7901, 1269.568
249.2722, 1289.552
249.7543, 1306.361
250.2364, 1330.080
250.7186, 1367.697
251.2007, 1414.225
251.6828, 1454.965
252.1649, 1486.475
252.6470, 1519.439
253.1291, 1556.689
253.6113, 1597.104
254.0934, 1640.485
254.5755, 1687.437
255.0576, 1734.633
255.5397, 1775.012
256.0219, 1804.875
256.5040, 1841.704
256.9861, 1897.526
257.4682, 1958.235
257.9503, 2012.552
258.4324, 2057.762
258.9146, 2105.074
259.3967, 2171.141
259.8788, 2257.361
260.3609, 2331.849
260.8430, 2380.859
261.3251, 2423.270
261.8073, 2473.948
262.2894, 2532.837
262.7715, 2590.126
263.2536, 2640.063
263.7357, 2682.985
264.2178, 2721.568
264.7000, 2761.008
265.1821, 2787.324
265.6642, 2789.672
266.1463, 2772.071
266.6284, 2746.367
267.1105, 2720.651
267.5927, 2690.160
268.0748, 2643.875
268.5569, 2579.727
269.0390, 2506.037
269.5211, 2421.551
270.0032, 2332.211
270.4854, 2247.450
270.9675, 2169.617
271.4496, 2097.464
271.9317, 2031.199
272.4138, 1970.865
272.8959, 1910.459
273.3781, 1844.806
273.8602, 1778.490
274.3423, 1719.293
274.8244, 1666.420
275.3065, 1622.687
275.7886, 1596.066
276.2708, 1582.021
276.7529, 1560.504
277.2350, 1521.534
277.7171, 1475.858
278.1992, 1439.935
278.6813, 1413.010
279.1635, 1395.045
279.6456, 1392.054
280.1277, 1396.784
280.6098, 1396.742
281.0919, 1388.929
281.5740, 1377.726
282.0562, 1367.277
282.5383, 1357.486
283.0204, 1350.395
283.5025, 1345.047
283.9846, 1343.277
284.4667, 1349.874
284.9489, 1364.145
285.4310, 1375.409
285.9131, 1373.488
286.3952, 1358.703
286.8773, 1352.121
287.3594, 1360.684
287.8416, 1369.903
288.3237, 1370.178
288.8058, 1365.135
289.2879, 1365.776
289.7700, 1379.020
290.2521, 1401.163
290.7343, 1416.342
291.2164, 1416.881
291.6985, 1420.458
292.1806, 1434.694
292.6627, 1451.626
293.1448, 1459.631
293.6270, 1454.817
294.1091, 1445.052
294.5912, 1444.133
295.0733, 1455.465
295.5554, 1470.367
296.0375, 1492.080
296.5197, 1514.649
297.0018, 1534.424
297.4839, 1550.736
297.9660, 1563.863
298.4481, 1573.416
298.9302, 1578.233
299.4124, 1587.874
299.8945, 1605.316
300.3766, 1624.423
300.8587, 1643.689
301.3408, 1663.067
301.8229, 1683.239
302.3050, 1705.121
302.7871, 1727.700
303.2693, 1744.452
303.7514, 1741.727
304.2335, 1754.377
304.7156, 1797.609
305.1977, 1854.499
305.6798, 1905.943
306.1620, 1944.649
306.6441, 1980.439
307.1262, 2031.408
307.6083, 2102.638
308.0904, 2169.346
308.5725, 2216.836
309.0547, 2265.691
309.5368, 2327.606
310.0189, 2403.886
310.5010, 2487.961
310.9831, 2574.908
311.4652, 2664.960
311.9474, 2758.766
312.4295, 2854.227
312.9116, 2956.766
313.3937, 3069.618
313.8758, 3191.451
314.3579, 3317.974
314.8401, 3449.150
315.3222, 3583.112
315.8043, 3715.613
316.2864, 3845.487
316.7685, 3979.626
317.2506, 4119.387
317.7328, 4265.854
318.2149, 4419.902
318.6970, 4579.693
319.1791, 4748.978
319.6612, 4937.128
320.1433, 5138.348
320.6255, 5328.571
321.1076, 5494.671
321.5897, 5652.016
322.0718, 5830.479
322.5539, 6032.714
323.0360, 6228.578
323.5182, 6413.889
324.0003, 6587.049
324.4824, 6749.337
324.9645, 6901.524
325.4466, 7033.885
325.9287, 7139.748
326.4109, 7216.521
326.8930, 7255.028
327.3751, 7245.353
327.8572, 7208.654
328.3393, 7162.699
328.8214, 7100.484
329.3036, 6998.493
329.7857, 6840.599
330.2678, 6635.507
330.7499, 6427.570
331.2320, 6219.347
331.7141, 6003.716
332.1963, 5769.766
332.6784, 5531.979
333.1605, 5302.622
333.6426, 5086.799
334.1247, 4886.389
334.6068, 4704.460
335.0890, 4548.613
335.5711, 4393.278
336.0532, 4239.374
336.5353, 4085.428
337.0174, 3924.135
337.4995, 3761.609
337.9817, 3613.596
338.4638, 3494.621
338.9459, 3402.245
339.4280, 3315.150
339.9101, 3238.061
340.3922, 3160.254
340.8744, 3073.856
341.3565, 2986.297
341.8386, 2907.275
342.3207, 2840.391
342.8028, 2781.812
343.2849, 2728.125
343.7671, 2680.482
344.2492, 2628.363
344.7313, 2560.046
345.2134, 2493.813
345.6955, 2446.323
346.1776, 2417.809
346.6598, 2390.468
347.1419, 2351.164
347.6240, 2304.527
348.1061, 2263.143
348.5882, 2228.768
349.0703, 2197.834
349.5525, 2169.176
350.0346, 2141.896
350.5167, 2113.396
350.9988, 2078.284
351.4809, 2045.563
351.9630, 2024.913
352.4452, 2014.132
352.9273, 2001.480
353.4094, 1981.040
353.8915, 1955.791
354.3736, 1933.343
354.8557, 1914.249
355.3379, 1896.163
355.8200, 1879.040
356.3021, 1862.476
356.7842, 1847.304
357.2663, 1833.340
357.7484, 1817.263
358.2306, 1794.356
358.7127, 1761.888
359.1948, 1738.101
359.6769, 1731.976
360.1590, 1724.380
360.6411, 1703.486
361.1233, 1674.506
361.6054, 1650.364
362.0875, 1639.079
362.5696, 1636.417
363.0517, 1626.409
363.5338, 1602.139
364.0160, 1581.531
364.4981, 1565.493
364.9802, 1554.239
365.4623, 1550.640
365.9444, 1554.228
366.4265, 1557.072
366.9087, 1547.960
367.3908, 1525.683
367.8729, 1510.906
368.3550, 1509.882
368.8371, 1510.101
369.3192, 1505.212
369.8014, 1496.532
370.2835, 1487.261
370.7656, 1477.296
371.2477, 1468.895
371.7298, 1467.223
372.2119, 1473.044
372.6941, 1478.251
373.1762, 1479.345
373.6583, 1477.853
374.1404, 1475.649
374.6225, 1471.863
375.1046, 1470.695
375.5868, 1475.738
376.0689, 1484.710
376.5510, 1492.584
377.0331, 1498.061
377.5152, 1504.649
377.9973, 1516.325
378.4795, 1533.705
378.9616, 1550.579
379.4437, 1565.025
379.9258, 1580.568
380.4079, 1597.703
380.8900, 1617.478
381.3722, 1641.783
381.8543, 1671.546
382.3364, 1706.771
382.8185, 1748.286
383.3006, 1800.816
383.7827, 1853.609
384.2649, 1904.886
384.7470, 1957.179
385.2291, 2012.561
385.7112, 2071.377
386.1933, 2133.390
386.6754, 2198.934
387.1576, 2267.941
387.6397, 2336.809
388.1218, 2406.790
388.6039, 2475.628
389.0860, 2539.751
389.5681, 2602.854
390.0503, 2668.838
390.5324, 2738.938
391.0145, 2816.081
391.4966, 2907.137
391.9787, 3012.734
392.4608, 3123.400
392.9430, 3239.874
393.4251, 3357.297
393.9072, 3470.037
394.3893, 3578.483
394.8714, 3685.895
395.3535, 3803.792
395.8357, 3918.248
396.3178, 4004.036
396.7999, 4057.864
397.2820, 4101.327
397.7641, 4159.400
398.2462, 4217.973
398.7284, 4216.513
399.2105, 4131.894
399.6926, 4015.397
400.1747, 3879.792
400.6568, 3727.046
401.1389, 3555.812
401.6211, 3364.535
402.1032, 3165.307
402.5853, 2972.739
403.0674, 2786.297
403.5495, 2612.074
404.0316, 2446.622
404.5138, 2292.987
404.9959, 2150.276
405.4780, 2020.066
405.9601, 1907.823
406.4422, 1817.809
406.9243, 1746.126
407.4065, 1680.675
407.8886, 1621.335
408.3707, 1569.067
408.8528, 1526.207
409.3349, 1488.108
409.8170, 1450.727
410.2992, 1413.603
410.7813, 1380.048
411.2634, 1354.196
411.7455, 1334.742
412.2276, 1316.207
412.7097, 1298.985
413.1919, 1281.057
413.6740, 1258.392
414.1561, 1234.197
414.6382, 1216.053
415.1203, 1208.642
415.6024, 1203.489
416.0846, 1193.078
416.5667, 1179.676
417.0488, 1171.314
417.5309, 1171.620
418.0130, 1174.732
418.4951, 1171.952
418.9773, 1161.640
419.4594, 1150.432
419.9415, 1139.437
420.4236, 1126.912
420.9057, 1107.507
421.3878, 1084.838
421.8700, 1070.323
422.3521, 1072.080
422.8342, 1085.975
423.3163, 1094.271
423.7984, 1095.723
424.2805, 1092.977
424.7627, 1080.472
425.2448, 1068.196
425.7269, 1066.651
426.2090, 1076.010
426.6911, 1085.182
427.1732, 1081.897
427.6554, 1067.458
428.1375, 1057.802
428.6196, 1053.792
429.1017, 1053.042
429.5838, 1057.986
430.0659, 1064.339
430.5481, 1064.263
431.0302, 1051.789
431.5123, 1041.494
431.9944, 1050.071
432.4765, 1071.653
432.9586, 1084.979
433.4408, 1084.036
433.9229, 1075.277
434.4050, 1063.603
434.8871, 1048.174
435.3692, 1041.553
435.8513, 1050.631
436.3335, 1063.170
436.8156, 1075.560
437.2977, 1085.276
437.7798, 1086.029
438.2619, 1073.877
438.7440, 1055.523
439.2262, 1048.448
439.7083, 1061.203
440.1904, 1070.297
440.6725, 1073.988
441.1546, 1075.434
441.6367, 1075.803
442.1189, 1075.707
442.6010, 1076.078
443.0831, 1077.724
443.5652, 1080.342
444.0473, 1083.312
444.5294, 1087.773
445.0116, 1089.353
445.4937, 1082.070
445.9758, 1073.292
446.4579, 1070.680
446.9400, 1075.723
447.4221, 1082.566
447.9043, 1088.887
448.3864, 1094.237
448.8685, 1097.129
449.3506, 1097.218
449.8327, 1097.261
450.3148, 1100.244
450.7970, 1105.390
451.2791, 1105.631
451.7612, 1096.529
452.2433, 1088.096
452.7254, 1081.950
453.2076, 1079.051
453.6897, 1082.115
454.1718, 1091.470
454.6539, 1102.232
455.1360, 1107.858
455.6181, 1107.194
456.1003, 1107.904
456.5824, 1115.262
457.0645, 1118.466
457.5466, 1110.639
458.0287, 1097.291
458.5108, 1087.078
458.9930, 1083.636
459.4751, 1084.586
459.9572, 1088.346
460.4393, 1095.006
460.9214, 1096.796
461.4035, 1089.020
461.8857, 1080.332
462.3678, 1079.698
462.8499, 1085.464
463.3320, 1088.940
463.8141, 1084.977
464.2962, 1079.942
464.7784, 1079.574
465.2605, 1083.145
465.7426, 1087.796
466.2247, 1092.628
466.7068, 1096.666
467.1889, 1097.831
467.6711, 1094.288
468.1532, 1091.596
468.6353, 1090.892
469.1174, 1090.038
469.5995, 1088.024
470.0816, 1084.704
470.5638, 1079.132
471.0459, 1069.719
471.5280, 1060.263
472.0101, 1064.307
472.4922, 1090.242
472.9743, 1106.667
473.4565, 1095.774
473.9386, 1081.068
474.4207, 1079.179
474.9028, 1089.719
475.3849, 1098.513
475.8670, 1094.028
476.3492, 1083.991
476.8313, 1082.929
477.3134, 1091.251
477.7955, 1098.312
478.2776, 1099.108
478.7597, 1095.035
479.2419, 1088.361
479.7240, 1075.790
480.2061, 1069.042
480.6882, 1073.772
481.1703, 1082.979
481.6524, 1091.963
482.1346, 1099.428
482.6167, 1103.580
483.0988, 1102.402
483.5809, 1097.584
484.0630, 1099.023
484.5451, 1113.247
485.0273, 1122.966
485.5094, 1125.447
485.9915, 1123.290
486.4736, 1115.797
486.9557, 1104.285
487.4378, 1096.015
487.9200, 1098.686
488.4021, 1108.858
488.8842, 1116.394
489.3663, 1121.084
489.8484, 1123.651
490.3305, 1122.935
490.8127, 1121.062
491.2948, 1122.239
491.7769, 1126.839
492.2590, 1133.292
492.7411, 1142.265
493.2232, 1152.109
493.7054, 1161.589
494.1875, 1170.228
494.6696, 1177.245
495.1517, 1182.262
495.6338, 1184.971
496.1159, 1183.156
496.5981, 1168.245
497.0802, 1161.115
497.5623, 1169.075
498.0444, 1181.580
498.5265, 1189.518
499.0086, 1192.230
499.4908, 1195.694
499.9729, 1206.439
500.4550, 1221.834
500.9371, 1230.885
501.4192, 1231.929
501.9013, 1233.615
502.3835, 1239.316
502.8656, 1248.207
503.3477, 1259.739
503.8298, 1275.458
504.3119, 1287.000
504.7940, 1285.886
505.2762, 1281.977
505.7583, 1288.578
506.2404, 1305.255
506.7225, 1320.266
507.2046, 1325.278
507.6867, 1323.176
508.1689, 1326.618
508.6510, 1341.861
509.1331, 1353.605
509.6152, 1359.426
510.0973, 1362.893
510.5794, 1365.385
511.0616, 1367.775
511.5437, 1372.137
512.0258, 1382.323
512.5079, 1394.039
512.9901, 1392.020
513.4722, 1372.561
513.9543, 1362.547
514.4364, 1376.558
514.9185, 1400.266
515.4006, 1414.816
515.8828, 1419.647
516.3649, 1423.596
516.8470, 1428.822
517.3291, 1434.731
517.8112, 1440.701
518.2933, 1446.841
518.7755, 1453.739
519.2576, 1461.632
519.7397, 1470.695
520.2218, 1481.276
520.7039, 1493.076
521.1860, 1507.201
521.6682, 1527.452
522.1503, 1546.182
522.6324, 1557.149
523.1145, 1563.243
523.5966, 1572.075
524.0787, 1588.136
524.5609, 1607.931
525.0430, 1625.357
525.5251, 1640.443
526.0072, 1658.576
526.4893, 1682.506
526.9714, 1707.485
527.4536, 1726.317
527.9357, 1740.155
528.4178, 1760.273
528.8999, 1797.179
529.3820, 1831.998
529.8641, 1849.564
530.3463, 1857.799
530.8284, 1872.919
531.3105, 1900.424
531.7926, 1932.114
532.2747, 1955.804
532.7568, 1969.024
533.2390, 1990.461
533.7211, 2033.931
534.2032, 2069.761
534.6853, 2081.371
535.1674, 2083.034
535.6495, 2096.261
536.1317, 2128.453
536.6138, 2161.115
537.0959, 2175.789
537.5780, 2177.025
538.0601, 2177.188
538.5422, 2176.659
539.0244, 2183.935
539.5065, 2210.618
539.9886, 2249.706
540.4707, 2266.126
540.9528, 2243.390
541.4349, 2223.520
541.9171, 2216.855
542.3992, 2215.611
542.8813, 2213.708
543.3634, 2209.716
543.8455, 2204.040
544.3276, 2197.547
544.8098, 2189.100
545.2919, 2172.454
545.7740, 2143.627
546.2561, 2117.629
546.7382, 2102.417
547.2203, 2088.401
547.7025, 2067.748
548.1846, 2040.671
548.6666, 2012.967
549.1487, 1989.880
549.6309, 1965.700
550.1130, 1931.623
550.5951, 1890.153
551.0772, 1853.543
551.5593, 1826.737
552.0414, 1804.799
552.5236, 1779.496
553.0057, 1748.875
553.4878, 1721.248
553.9699, 1696.721
554.4520, 1674.466
554.9341, 1655.629
555.4163, 1638.372
555.8984, 1619.108
556.3805, 1596.306
556.8626, 1575.042
557.3447, 1565.418
557.8268, 1564.891
558.3090, 1550.353
558.7911, 1515.195
559.2732, 1480.285
559.7553, 1459.833
560.2374, 1450.251
560.7195, 1438.946
561.2017, 1424.819
561.6838, 1410.655
562.1659, 1397.054
562.6480, 1384.017
563.1301, 1371.214
563.6122, 1358.811
564.0944, 1347.398
564.5765, 1337.180
565.0586, 1328.448
565.5407, 1322.761
566.0228, 1322.354
566.5049, 1319.343
566.9871, 1309.262
567.4692, 1298.622
567.9513, 1292.798
568.4334, 1290.518
568.9155, 1285.158
569.3976, 1269.177
569.8798, 1253.131
570.3619, 1249.713
570.8440, 1255.446
571.3261, 1259.131
571.8082, 1257.473
572.2903, 1251.391
572.7725, 1241.029
573.2546, 1225.309
573.7367, 1215.311
574.2188, 1214.907
574.7009, 1215.174
575.1830, 1214.585
575.6652, 1213.158
576.1473, 1210.354
576.6294, 1206.328
577.1115, 1203.445
577.5936, 1205.202
578.0757, 1209.798
578.5579, 1210.677
579.0400, 1207.328
579.5221, 1203.981
580.0042, 1202.490
580.4863, 1202.182
580.9684, 1201.897
581.4506, 1201.678
581.9327, 1201.312
582.4148, 1199.950
582.8969, 1199.179
583.3790, 1200.194
583.8611, 1202.622
584.3433, 1205.944
584.8254, 1209.926
585.3075, 1213.357
585.7896, 1213.588
586.2717, 1210.140
586.7538, 1209.453
587.2360, 1213.862
587.7181, 1217.703
588.2002, 1215.652
588.6823, 1211.472
589.1644, 1212.059
589.6465, 1220.831
590.1287, 1227.728
590.6108, 1224.840
591.0929, 1219.026
591.5750, 1220.528
592.0571, 1228.884
592.5392, 1234.793
593.0214, 1231.496
593.5035, 1223.109
593.9856, 1223.395
594.4677, 1239.096
594.9498, 1247.420
595.4319, 1238.044
595.9141, 1228.509
596.3962, 1227.399
596.8783, 1233.130
597.3604, 1240.941
597.8425, 1250.177
598.3246, 1258.752
598.8068, 1263.779
599.2889, 1266.783
599.7710, 1272.934
600.2531, 1283.269
600.7352, 1291.324
601.2173, 1291.315
601.6995, 1284.170
602.1816, 1277.405
602.6637, 1269.145
603.1458, 1264.001
603.6279, 1263.589
604.1100, 1265.353
604.5922, 1268.422
605.0743, 1272.033
605.5564, 1273.560
606.0385, 1267.073
606.5206, 1263.714
607.0027, 1289.447
607.4849, 1338.745
607.9670, 1363.657
608.4491, 1347.774
608.9312, 1322.474
609.4133, 1317.076
609.8954, 1331.775
610.3776, 1356.339
610.8597, 1420.231
611.3418, 1455.830
611.8239, 1426.358
612.3060, 1374.424
612.7881, 1340.821
613.2703, 1330.836
613.7524, 1327.955
614.2345, 1320.500
614.7166, 1310.672
615.1987, 1303.535
615.6808, 1299.098
616.1630, 1297.236
616.6451, 1298.052
617.1272, 1301.219
617.6093, 1306.813
618.0914, 1314.914
618.5735, 1323.319
619.0557, 1335.767
619.5378, 1344.086
620.0199, 1341.200
620.5020, 1334.342
620.9841, 1331.550
621.4662, 1334.860
621.9484, 1343.634
622.4305, 1360.571
622.9126, 1381.139
623.3947, 1384.510
623.8768, 1366.989
624.3589, 1354.013
624.8411, 1354.811
625.3232, 1361.580
625.8053, 1365.293
626.2874, 1366.167
626.7695, 1368.602
627.2516, 1375.201
627.7338, 1381.319
628.2159, 1384.287
628.6980, 1385.392
629.1801, 1385.877
629.6622, 1386.394
630.1443, 1388.466
630.6265, 1394.290
631.1086, 1402.841
631.5907, 1407.734
632.0728, 1407.487
632.5549, 1409.875
633.0370, 1421.364
633.5192, 1432.470
634.0013, 1429.460
634.4834, 1413.358
634.9655, 1405.539
635.4476, 1417.765
635.9297, 1431.425
636.4119, 1433.596
636.8940, 1431.277
637.3761, 1438.848
637.8582, 1458.073
638.3403, 1473.519
638.8224, 1467.569
639.3046, 1444.826
639.7867, 1433.640
640.2688, 1435.747
640.7509, 1443.591
641.2330, 1459.509
641.7151, 1476.028
642.1973, 1484.617
642.6794, 1485.985
643.1615, 1488.615
643.6436, 1491.808
644.1257, 1499.302
644.6078, 1519.265
645.0900, 1542.450
645.5721, 1551.846
646.0542, 1545.644
646.5363, 1540.059
647.0184, 1551.132
647.5005, 1574.775
647.9827, 1591.709
648.4648, 1600.529
648.9469, 1607.187
649.4290, 1608.150
649.9111, 1612.988
650.3932, 1635.755
650.8754, 1673.028
651.3575, 1700.628
651.8396, 1704.738
652.3217, 1709.568
652.8038, 1729.998
653.2859, 1756.288
653.7681, 1773.535
654.2502, 1780.744
654.7323, 1789.422
655.2144, 1808.936
655.6965, 1836.889
656.1786, 1866.607
656.6608, 1899.210
657.1429, 1925.719
657.6250, 1938.941
658.1071, 1953.015
658.5892, 1983.535
659.0714, 2026.621
659.5535, 2064.641
660.0356, 2091.732
660.5177, 2119.030
660.9998, 2152.740
661.4819, 2186.949
661.9641, 2213.196
662.4462, 2232.966
662.9283, 2255.963
663.4104, 2288.334
663.8925, 2328.865
664.3746, 2376.758
664.8568, 2432.271
665.3389, 2486.309
665.8210, 2536.664
666.3031, 2588.215
666.7852, 2648.328
667.2673, 2712.581
667.7495, 2762.522
668.2316, 2780.084
668.7137, 2812.470
669.1958, 2877.100
669.6779, 2952.888
670.1600, 3026.735
670.6422, 3097.418
671.1243, 3165.625
671.6064, 3231.214
672.0885, 3300.940
672.5706, 3387.694
673.0527, 3489.120
673.5349, 3586.597
674.0170, 3678.205
674.4991, 3768.696
674.9812, 3858.972
675.4633, 3951.680
675.9454, 4052.781
676.4276, 4166.256
676.9097, 4280.814
677.3918, 4396.589
677.8739, 4513.185
678.3560, 4626.023
678.8381, 4740.013
679.3203, 4863.533
679.8024, 4999.012
680.2845, 5139.438
680.7666, 5284.431
681.2487, 5426.669
681.7308, 5539.679
682.2130, 5624.384
682.6951, 5726.043
683.1772, 5867.849
683.6593, 6023.908
684.1414, 6154.624
684.6235, 6254.232
685.1057, 6356.958
685.5878, 6468.358
686.0699, 6577.609
686.5520, 6686.434
687.0341, 6789.313
687.5162, 6881.984
687.9984, 6963.708
688.4805, 7031.960
688.9626, 7084.214
689.4447, 7123.232
689.9268, 7147.696
690.4089, 7161.562
690.8911, 7180.617
691.3732, 7208.585
691.8553, 7222.988
692.3374, 7198.359
692.8195, 7139.968
693.3016, 7098.260
693.7838, 7095.917
694.2659, 7059.491
694.7480, 6952.791
695.2301, 6827.304
695.7122, 6718.336
696.1943, 6620.371
696.6765, 6510.623
697.1586, 6379.456
697.6407, 6241.450
698.1228, 6107.160
698.6049, 5969.415
699.0870, 5815.977
699.5692, 5648.856
700.0513, 5482.201
700.5334, 5323.962
701.0155, 5170.608
701.4976, 5015.317
701.9797, 4857.610
702.4619, 4701.446
702.9440, 4546.133
703.4261, 4395.128
703.9082, 4251.403
704.3903, 4113.301
704.8724, 3973.639
705.3546, 3826.847
705.8367, 3694.037
706.3188, 3584.663
706.8009, 3482.686
707.2830, 3380.364
707.7651, 3277.885
708.2473, 3177.311
708.7294, 3078.940
709.2115, 2984.193
709.6936, 2893.319
710.1757, 2807.178
710.6578, 2727.152
711.1400, 2653.432
711.6221, 2590.062
712.1042, 2539.833
712.5863, 2494.889
713.0684, 2445.898
713.5505, 2392.725
714.0327, 2338.134
714.5148, 2275.303
714.9969, 2221.027
715.4790, 2181.265
715.9611, 2148.167
716.4432, 2118.581
716.9254, 2090.524
717.4075, 2057.721
717.8896, 2010.701
718.3717, 1968.104
718.8538, 1950.901
719.3359, 1945.766
719.8181, 1927.934
720.3002, 1896.085
720.7823, 1867.399
721.2644, 1854.088
721.7465, 1849.020
722.2286, 1835.079
722.7108, 1811.266
723.1929, 1784.695
723.6750, 1752.755
724.1571, 1724.189
724.6392, 1704.981
725.1213, 1692.275
725.6035, 1680.338
726.0856, 1670.032
726.5677, 1657.601
727.0498, 1637.751
727.5319, 1620.219
728.0140, 1611.696
728.4962, 1609.012
728.9783, 1607.250
729.4604, 1604.873
729.9425, 1602.288
730.4246, 1602.599
730.9067, 1601.859
731.3889, 1588.229
731.8710, 1563.310
732.3531, 1542.244
732.8352, 1529.372
733.3173, 1521.446
733.7994, 1515.402
734.2816, 1511.253
734.7637, 1509.287
735.2458, 1515.277
735.7279, 1513.616
736.2100, 1495.897
736.6921, 1476.484
737.1743, 1461.701
737.6564, 1452.463
738.1385, 1451.021
738.6206, 1462.390
739.1027, 1470.680
739.5848, 1461.578
740.0670, 1448.216
740.5491, 1447.396
741.0312, 1456.882
741.5133, 1465.104
741.9954, 1466.604
742.4775, 1463.506
742.9597, 1457.059
743.4418, 1447.782
743.9239, 1442.928
744.4060, 1442.946
744.8881, 1445.587
745.3702, 1450.835
745.8524, 1457.012
746.3345, 1461.182
746.8166, 1462.690
747.2987, 1468.907
747.7808, 1490.860
748.2629, 1503.085
748.7451, 1491.182
749.2272, 1473.361
749.7093, 1464.370
750.1914, 1465.136
750.6735, 1471.042
751.1556, 1481.423
751.6378, 1493.322
752.1199, 1505.884
752.6020, 1517.379
753.0841, 1523.564
753.5662, 1524.621
754.0483, 1523.781
754.5305, 1522.359
755.0126, 1524.110
755.4947, 1540.094
755.9768, 1573.438
756.4589, 1588.655
756.9410, 1575.348
757.4232, 1569.222
757.9053, 1592.401
758.3874, 1626.318
758.8695, 1640.599
759.3516, 1632.941
759.8337, 1632.985
760.3159, 1649.145
760.7980, 1666.149
761.2801, 1677.191
761.7622, 1686.883
762.2443, 1701.167
762.7264, 1719.756
763.2086, 1737.114
763.6907, 1748.738
764.1728, 1760.182
764.6549, 1781.778
765.1370, 1807.567
765.6191, 1820.844
766.1013, 1820.428
766.5834, 1819.315
767.0655, 1825.361
767.5476, 1836.275
768.0297, 1847.665
768.5118, 1859.854
768.9940, 1870.317
769.4761, 1878.839
769.9582, 1886.091
770.4403, 1894.715
770.9224, 1900.549
771.4045, 1895.158
771.8867, 1877.195
772.3688, 1866.659
772.8509, 1870.912
773.3330, 1876.938
773.8151, 1884.368
774.2972, 1887.987
774.7794, 1879.000
775.2615, 1859.967
775.7436, 1845.038
776.2257, 1843.433
776.7078, 1845.957
777.1899, 1841.960
777.6721, 1834.302
778.1542, 1830.783
778.6363, 1831.494
779.1184, 1828.917
779.6005, 1818.649
780.0826, 1804.324
780.5648, 1792.609
781.0469, 1783.840
781.5290, 1774.378
782.0111, 1763.419
782.4932, 1753.909
782.9753, 1747.826
783.4575, 1742.939
783.9396, 1735.180
784.4217, 1724.344
784.9038, 1719.431
785.3859, 1729.327
785.8680, 1734.190
786.3502, 1725.350
786.8323, 1711.965
787.3144, 1699.153
787.7965, 1689.058
788.2786, 1685.570
788.7607, 1692.250
789.2429, 1699.449
789.7250, 1698.246
790.2071, 1692.701
790.6892, 1689.346
791.1713, 1688.039
791.6534, 1685.982
792.1356, 1681.943
792.6177, 1674.891
793.0998, 1659.914
793.5819, 1639.380
794.0640, 1641.203
794.5461, 1670.513
795.0283, 1689.007
795.5104, 1682.599
795.9925, 1668.620
796.4746, 1663.792
796.9567, 1667.021
797.4388, 1666.714
797.9210, 1661.189
798.4031, 1654.442
798.8852, 1639.742
799.3673, 1630.701
799.8494, 1640.413
800.3315, 1659.887
800.8137, 1671.680
801.2958, 1671.005
801.7779, 1668.262
802.2600, 1666.774
802.7421, 1667.157
803.2242, 1672.859
803.7064, 1679.961
804.1885, 1681.061
804.6706, 1674.527
805.1527, 1663.261
805.6348, 1645.864
806.1169, 1630.587
806.5991, 1641.096
807.0812, 1673.001
807.5633, 1692.293
808.0454, 1692.871
808.5275, 1685.381
809.0096, 1674.952
809.4918, 1665.281
809.9739, 1666.554
810.4560, 1682.266
810.9381, 1696.464
811.4202, 1710.918
811.9023, 1721.022
812.3845, 1722.617
812.8666, 1720.440
813.3487, 1717.401
813.8308, 1713.670
814.3129, 1719.080
814.7950, 1745.109
815.2772, 1767.710
815.7593, 1776.917
816.2414, 1780.520
816.7235, 1785.035
817.2056, 1790.657
817.6877, 1795.079
818.1699, 1797.230
818.6520, 1798.473
819.1341, 1798.001
819.6162, 1798.504
820.0983, 1804.512
820.5804, 1815.413
821.0626, 1828.600
821.5447, 1843.109
822.0268, 1857.332
822.5089, 1869.398
822.9910, 1879.903
823.4731, 1890.720
823.9553, 1901.759
824.4374, 1918.975
824.9195, 1946.968
825.4016, 1966.710
825.8837, 1959.413
826.3658, 1936.227
826.8480, 1935.458
827.3301, 1968.446
827.8122, 1997.767
828.2943, 2023.591
828.7764, 2045.408
829.2585, 2059.672
829.7407, 2071.927
830.2228, 2088.368
830.7049, 2109.427
831.1870, 2132.741
831.6691, 2160.278
832.1512, 2186.877
832.6334, 2206.805
833.1155, 2227.380
833.5976, 2258.941
834.0797, 2298.367
834.5618, 2331.636
835.0439, 2350.606
835.5261, 2372.845
836.0082, 2426.209
836.4903, 2487.367
836.9724, 2509.592
837.4545, 2503.165
837.9366, 2513.483
838.4188, 2555.597
838.9009, 2612.444
839.3830, 2669.328
839.8651, 2723.487
840.3472, 2760.617
840.8293, 2780.109
841.3115, 2815.163
841.7936, 2873.018
842.2757, 2940.954
842.7578, 3012.237
843.2399, 3085.806
843.7220, 3159.777
844.2042, 3234.237
844.6863, 3309.055
845.1684, 3381.175
845.6505, 3458.073
846.1326, 3545.988
846.6147, 3637.697
847.0969, 3723.149
847.5790, 3803.721
848.0611, 3897.075
848.5432, 4016.857
849.0253, 4135.097
849.5074, 4235.103
849.9896, 4338.957
850.4717, 4466.547
850.9538, 4611.997
851.4359, 4757.173
851.9180, 4896.850
852.4001, 5041.982
852.8823, 5195.819
853.3644, 5363.827
853.8465, 5556.211
854.3286, 5767.308
854.8107, 5983.996
855.2928, 6205.385
855.7750, 6442.664
856.2571, 6703.849
856.7392, 6983.457
857.2213, 7271.141
857.7034, 7568.107
858.1855, 7881.943
858.6677, 8213.587
859.1498, 8563.335
859.6319, 8931.273
860.1140, 9325.413
860.5961, 9760.241
861.0782, 10233.32
861.5604, 10738.62
862.0425, 11275.39
862.5246, 11849.58
863.0067, 12468.71
863.4888, 13123.77
863.9709, 13798.09
864.4531, 14507.65
864.9352, 15300.31
865.4173, 16206.93
865.8994, 17138.88
866.3815, 18063.20
866.8636, 19057.54
867.3458, 20153.08
867.8279, 21331.37
868.3100, 22558.78
868.7921, 23836.50
869.2742, 25209.91
869.7563, 26708.03
870.2385, 28270.87
870.7206, 29882.00
871.2027, 31537.64
871.6848, 33217.12
872.1669, 34935.25
872.6490, 36731.04
873.1312, 38623.34
873.6133, 40524.27
874.0954, 42390.08
874.5775, 44226.63
875.0596, 46086.41
875.5417, 47923.55
876.0239, 49627.29
876.5060, 51185.57
876.9881, 52690.10
877.4702, 54224.21
877.9523, 55641.62
878.4344, 56701.05
878.9166, 57432.56
879.3987, 57957.98
879.8808, 58279.68
880.3629, 58336.29
880.8450, 58106.09
881.3271, 57536.88
881.8093, 56547.98
882.2914, 55171.45
882.7735, 53600.14
883.2556, 51839.30
883.7377, 49871.66
884.2198, 47677.69
884.7020, 45357.49
885.1841, 42962.80
885.6662, 40534.94
886.1483, 38142.37
886.6304, 35788.63
887.1125, 33490.13
887.5947, 31230.08
888.0768, 29062.78
888.5589, 26979.63
889.0410, 25020.20
889.5231, 23215.85
890.0052, 21558.44
890.4874, 19989.88
890.9695, 18482.60
891.4516, 17122.81
891.9337, 15940.32
892.4158, 14880.91
892.8979, 13937.84
893.3801, 13079.58
893.8622, 12272.54
894.3443, 11511.05
894.8264, 10815.73
895.3085, 10214.45
895.7906, 9662.235
896.2728, 9136.228
896.7549, 8642.987
897.2370, 8195.520
897.7191, 7788.072
898.2012, 7404.875
898.6833, 7040.889
899.1655, 6702.552
899.6476, 6396.465
900.1297, 6120.252
900.6118, 5877.744
901.0939, 5660.773
901.5760, 5456.805
902.0582, 5261.012
902.5403, 5063.385
903.0224, 4856.417
903.5045, 4658.301
903.9866, 4502.440
904.4688, 4377.030
904.9509, 4251.735
905.4330, 4124.601
905.9151, 3995.802
906.3972, 3865.654
906.8793, 3743.636
907.3615, 3639.840
907.8436, 3549.812
908.3257, 3456.925
908.8078, 3361.212
909.2899, 3278.771
909.7720, 3212.129
910.2542, 3155.934
910.7363, 3111.482
911.2184, 3064.630
911.7005, 2990.623
912.1826, 2890.184
912.6647, 2821.598
913.1469, 2797.132
913.6290, 2765.445
914.1111, 2718.099
914.5932, 2660.541
915.0753, 2588.865
915.5574, 2513.896
916.0396, 2461.610
916.5217, 2440.166
917.0038, 2410.479
917.4859, 2365.899
917.9680, 2322.559
918.4501, 2283.583
918.9323, 2247.493
919.4144, 2213.776
919.8965, 2181.976
920.3786, 2150.184
920.8607, 2115.118
921.3428, 2086.757
921.8250, 2076.254
922.3071, 2061.491
922.7892, 2024.604
923.2713, 1982.734
923.7534, 1958.520
924.2355, 1951.149
924.7177, 1940.029
925.1998, 1915.767
925.6819, 1891.978
926.1640, 1875.463
926.6461, 1860.475
927.1282, 1841.900
927.6104, 1821.874
928.0925, 1804.979
928.5746, 1791.985
929.0567, 1778.579
929.5388, 1763.498
930.0209, 1745.844
930.5031, 1722.946
930.9852, 1698.337
931.4673, 1674.202
931.9494, 1652.590
932.4315, 1639.191
932.9136, 1635.732
933.3958, 1631.234
933.8779, 1615.207
934.3600, 1593.708
934.8421, 1571.479
935.3242, 1550.906
935.8063, 1537.571
936.2885, 1531.534
936.7706, 1530.169
937.2527, 1532.518
937.7348, 1532.438
938.2169, 1520.752
938.6990, 1501.705
939.1812, 1482.012
939.6633, 1463.680
940.1454, 1455.811
940.6275, 1459.248
941.1096, 1462.434
941.5917, 1457.576
942.0739, 1445.903
942.5560, 1425.207
943.0381, 1399.026
943.5202, 1388.593
944.0023, 1393.420
944.4844, 1394.226
944.9666, 1384.978
945.4487, 1374.911
945.9308, 1372.752
946.4129, 1374.961
946.8950, 1370.879
947.3771, 1360.539
947.8593, 1353.637
948.3414, 1351.245
948.8235, 1346.359
949.3056, 1335.685
949.7877, 1324.676
950.2698, 1319.868
950.7520, 1319.771
951.2341, 1316.263
951.7162, 1308.783
952.1983, 1301.869
952.6804, 1296.646
953.1625, 1288.796
953.6447, 1274.352
954.1268, 1260.556
954.6089, 1257.942
955.0910, 1265.889
955.5731, 1270.477
956.0552, 1271.690
956.5374, 1269.375
957.0195, 1262.632
957.5016, 1253.923
957.9837, 1243.448
958.4658, 1232.924
958.9479, 1224.741
959.4301, 1218.710
959.9122, 1217.750
960.3943, 1225.585
960.8764, 1231.128
961.3585, 1233.434
961.8406, 1232.218
962.3228, 1227.612
962.8049, 1219.149
963.2870, 1204.228
963.7691, 1179.974
964.2512, 1164.690
964.7333, 1162.590
965.2155, 1163.345
965.6976, 1166.326
966.1797, 1170.591
966.6618, 1177.153
967.1439, 1184.221
967.6260, 1187.451
968.1082, 1185.828
968.5903, 1184.064
969.0724, 1185.682
969.5545, 1182.760
970.0366, 1167.236
970.5187, 1151.973
971.0009, 1149.928
971.4830, 1155.489
971.9651, 1152.298
972.4472, 1134.953
972.9293, 1122.886
973.4114, 1119.944
973.8936, 1121.041
974.3757, 1129.308
974.8578, 1136.760
975.3399, 1134.798
975.8220, 1126.177
976.3041, 1120.082
976.7863, 1117.692
977.2684, 1118.743
977.7505, 1128.526
978.2326, 1135.246
978.7147, 1131.491
979.1968, 1123.929
979.6790, 1118.862
980.1611, 1116.097
980.6432, 1112.442
981.1253, 1106.090
981.6074, 1102.428
982.0895, 1108.978
982.5717, 1111.676
983.0538, 1097.624
983.5359, 1080.075
984.0180, 1074.742
984.5001, 1079.866
984.9822, 1083.328
985.4644, 1082.264
985.9465, 1078.400
986.4286, 1069.283
986.9107, 1060.994
987.3928, 1059.493
987.8749, 1059.143
988.3571, 1050.095
988.8392, 1035.294
989.3213, 1030.860
989.8034, 1046.918
990.2855, 1057.971
990.7676, 1049.028
991.2498, 1036.662
991.7319, 1030.810
992.2140, 1028.183
992.6961, 1023.969
993.1782, 1018.166
993.6603, 1013.775
994.1425, 1012.402
994.6246, 1010.768
995.1067, 1005.235
995.5888, 1001.289
996.0709, 1004.548
996.5530, 1010.402
997.0352, 1015.415
997.5173, 1017.420
997.9994, 1009.876
998.4815, 985.2783
998.9636, 967.0187
999.4457, 970.3219
999.9279, 978.9047
1000.410, 982.7825
1000.892, 984.2987
1001.374, 988.0587
1001.856, 993.3918
1002.338, 995.3566
1002.821, 992.1813
1003.303, 985.6953
1003.785, 971.4161
1004.267, 959.8585
1004.749, 961.8245
1005.231, 968.5591
1005.713, 967.5329
1006.195, 959.9683
1006.677, 957.5624
1007.160, 966.8441
1007.642, 972.6260
1008.124, 962.0652
1008.606, 952.2758
1009.088, 956.5889
1009.570, 966.5802
1010.052, 972.5840
1010.534, 973.8917
1011.017, 973.4943
1011.499, 972.2858
1011.981, 969.5041
1012.463, 963.4863
1012.945, 957.3030
1013.427, 952.1749
1013.909, 948.3938
1014.391, 946.6294
1014.873, 946.4481
1015.356, 946.4683
1015.838, 946.3827
1016.320, 946.1913
1016.802, 947.2795
1017.284, 946.6182
1017.766, 938.4036
1018.248, 930.8768
1018.730, 935.1783
1019.213, 947.4364
1019.695, 953.8314
1020.177, 949.8592
1020.659, 946.7828
1021.141, 951.2007
1021.623, 953.6719
1022.105, 949.9470
1022.587, 942.2100
1023.069, 929.2520
1023.552, 914.7158
1024.034, 906.8985
1024.516, 907.9190
1024.998, 911.8321
1025.480, 921.5410
1025.962, 928.0738
1026.444, 927.1507
1026.926, 922.5578
1027.409, 914.3727
1027.891, 905.8042
1028.373, 904.0104
1028.855, 911.0605
1029.337, 914.7996
1029.819, 907.6716
1030.301, 904.4056
1030.783, 916.2207
1031.266, 925.8524
1031.748, 916.5138
1032.230, 898.9167
1032.712, 893.8840
1033.194, 904.0396
1033.676, 910.0474
1034.158, 903.1158
1034.640, 901.9435
1035.122, 916.2161
1035.604, 929.7421
1036.087, 933.2849
1036.569, 930.7191
1037.051, 927.2032
1037.533, 922.7931
1038.015, 918.8021
1038.497, 914.7333
1038.979, 911.9704
1039.461, 913.6855
1039.944, 912.5243
1040.426, 900.8802
1040.908, 888.4767
1041.390, 887.8596
1041.872, 897.9386
1042.354, 906.8640
1042.836, 915.7354
1043.318, 920.8854
1043.800, 921.8852
1044.283, 919.4182
1044.765, 911.3271
1045.247, 903.2205
1045.729, 900.9259
1046.211, 903.4022
1046.693, 906.0614
1047.175, 909.6773
1047.657, 910.6091
1048.140, 907.6978
1048.622, 905.5173
1049.104, 905.6551
1049.586, 906.2871
1050.068, 905.6501
1050.550, 904.6826
1051.032, 906.2742
1051.514, 910.8625
1051.996, 913.3421
1052.479, 913.2274
1052.961, 914.1478
1053.443, 917.1943
1053.925, 920.2479
1054.407, 922.1664
1054.889, 922.2884
1055.371, 918.1960
1055.853, 910.7395
1056.335, 911.1175
1056.818, 919.2931
1057.300, 925.2595
1057.782, 927.3114
1058.264, 927.0889
1058.746, 925.3083
1059.228, 923.3265
1059.710, 923.0336
1060.192, 923.9081
1060.675, 923.9810
1061.157, 923.5500
1061.639, 923.7495
1062.121, 924.9672
1062.603, 930.6869
1063.085, 941.8526
1063.567, 948.0007
1064.049, 936.3730
1064.531, 918.8812
1065.014, 920.3234
1065.496, 932.0298
1065.978, 930.3415
1066.460, 918.7219
1066.942, 916.8976
1067.424, 928.6394
1067.906, 938.8478
1068.388, 936.4938
1068.870, 931.1985
1069.353, 933.9329
1069.835, 940.3718
1070.317, 947.2531
1070.799, 951.9523
1071.281, 947.6645
1071.763, 936.1695
1072.245, 928.7198
1072.727, 930.7334
1073.210, 934.7745
1073.692, 937.5462
1074.174, 937.8204
1074.656, 932.8019
1075.138, 925.9915
1075.620, 921.8853
1076.102, 919.7584
1076.584, 915.1998
1077.067, 906.8065
1077.549, 903.6084
1078.031, 916.5482
1078.513, 926.2642
1078.995, 919.5872
1079.477, 910.6732
1079.959, 911.8688
1080.441, 917.8204
1080.923, 918.4731
1081.406, 912.9210
1081.888, 907.7328
1082.370, 902.8284
1082.852, 900.2574
1083.334, 904.8396
1083.816, 906.4280
1084.298, 895.8897
1084.780, 883.4891
1085.262, 881.6445
1085.745, 888.0363
1086.227, 891.1365
1086.709, 889.5200
1087.191, 888.2458
1087.673, 886.4133
1088.155, 887.6405
1088.637, 898.2317
1089.119, 901.1786
1089.602, 878.9514
1090.084, 846.7191
1090.566, 838.9523
1091.048, 856.8197
1091.530, 864.9303
1092.012, 861.4630
1092.494, 859.9066
1092.976, 862.8545
1093.458, 864.8848
1093.941, 863.2517
1094.423, 859.4462
1094.905, 855.4347
1095.387, 850.7430
1095.869, 841.6378
1096.351, 829.5358
1096.833, 827.2332
1097.315, 834.6634
1097.797, 841.9766
1098.280, 845.6485
1098.762, 842.9567
1099.244, 830.3365
1099.726, 816.1112
1100.208, 812.9382
1100.690, 817.5106
1101.172, 826.2776
1101.654, 836.1302
1102.137, 840.3445
1102.619, 838.1437
1103.101, 831.8792
1103.583, 822.4767
1104.065, 812.7754
1104.547, 804.5879
1105.029, 797.8020
1105.511, 790.5258
1105.994, 785.9827
1106.476, 790.7109
1106.958, 800.5825
1107.440, 806.8920
1107.922, 807.6086
1108.404, 804.0321
1108.886, 790.3482
1109.368, 782.0861
1109.850, 790.8490
1110.333, 800.2617
1110.815, 798.6251
1111.297, 793.1366
1111.779, 793.5493
1112.261, 798.9725
1112.743, 801.6324
1113.225, 799.6366
1113.707, 797.8669
1114.189, 795.7805
1114.672, 795.1569
1115.154, 798.3832
1115.636, 800.2443
1116.118, 796.3499
1116.600, 789.6888
1117.082, 785.6520
1117.564, 784.2441
1118.046, 784.7416
1118.529, 787.8635
1119.011, 788.5305
1119.493, 785.7510
1119.975, 783.0217
1120.457, 781.7165
1120.939, 781.4648
1121.421, 781.5748
1121.903, 783.1875
1122.385, 793.3726
1122.868, 808.1062
1123.350, 802.5208
1123.832, 780.1353
1124.314, 764.1387
1124.796, 759.9753
1125.278, 764.2112
1125.760, 775.5098
1126.242, 783.9454
1126.724, 773.5396
1127.207, 757.6614
1127.689, 754.5721
1128.171, 759.0330
1128.653, 765.7615
1129.135, 771.4349
1129.617, 768.2172
1130.099, 755.5716
1130.581, 749.4235
1131.064, 762.9283
1131.546, 775.5704
1132.028, 776.8468
1132.510, 773.4892
1132.992, 766.6887
1133.474, 760.4026
1133.956, 760.8384
1134.438, 765.8349
1134.921, 765.2827
1135.403, 755.5203
1135.885, 748.6904
1136.367, 744.0015
1136.849, 745.4435
1137.331, 760.5727
1137.813, 771.6248
1138.295, 765.6413
1138.777, 753.3660
1139.260, 751.2957
1139.742, 757.8826
1140.224, 757.7830
1140.706, 749.8493
1141.188, 743.7647
1141.670, 740.0957
1142.152, 739.2979
1142.634, 741.7094
1143.116, 743.5872
1143.599, 741.7039
1144.081, 739.2645
1144.563, 744.0475
1145.045, 752.0870
1145.527, 750.5375
1146.009, 741.8205
1146.491, 731.9260
1146.973, 722.9709
1147.456, 718.2083
1147.938, 718.8094
1148.420, 722.9061
1148.902, 731.7178
1149.384, 739.0094
1149.866, 737.2637
1150.348, 733.1130
1150.830, 733.5406
1151.313, 735.8350
1151.795, 735.0237
1152.277, 731.3480
1152.759, 728.6501
1153.241, 727.9258
1153.723, 727.9558
1154.205, 728.1895
1154.687, 729.5141
1155.169, 734.3367
1155.651, 737.9796
1156.134, 738.3277
1156.616, 735.2364
1157.098, 727.7239
1157.580, 716.2689
1158.062, 705.4039
1158.544, 692.5975
1159.026, 694.1078
1159.508, 713.8585
1159.991, 729.7950
1160.473, 735.5900
1160.955, 733.2562
1161.437, 723.1360
1161.919, 711.7643
1162.401, 712.2996
1162.883, 719.7493
1163.365, 714.9402
1163.848, 702.8627
1164.330, 700.8431
1164.812, 708.1694
1165.294, 713.4714
1165.776, 713.1326
1166.258, 711.0304
1166.740, 709.2391
1167.222, 707.8542
1167.704, 707.1201
1168.187, 706.6541
1168.669, 705.7791
1169.151, 705.2206
1169.633, 706.3988
1170.115, 708.6273
1170.597, 709.0771
1171.079, 706.5907
1171.561, 708.0313
1172.043, 722.3226
1172.526, 728.5320
1173.008, 719.2537
1173.490, 707.2863
1173.972, 695.1177
1174.454, 686.6994
1174.936, 686.8722
1175.418, 693.5634
1175.900, 700.9993
1176.383, 709.8485
1176.865, 708.0879
1177.347, 695.4008
1177.829, 685.4544
1178.311, 680.8622
1178.793, 681.9858
1179.275, 689.0032
1179.757, 697.1478
1180.240, 701.7928
1180.722, 703.6517
1181.204, 703.7899
1181.686, 701.9620
1182.168, 695.2310
1182.650, 687.2444
1183.132, 686.5276
1183.614, 692.4879
1184.096, 697.5127
1184.578, 699.2743
1185.061, 696.4119
1185.543, 682.9387
1186.025, 672.0478
1186.507, 670.1390
1186.989, 671.7967
1187.471, 676.4009
1187.953, 680.1272
1188.435, 675.6792
1188.918, 665.3317
1189.400, 663.7288
1189.882, 674.6409
1190.364, 680.8989
1190.846, 681.8789
1191.328, 680.5974
1191.810, 677.3040
1192.292, 675.0384
1192.775, 675.8542
1193.257, 675.6556
1193.739, 667.8256
1194.221, 657.4835
1194.703, 659.2433
1195.185, 667.8431
1195.667, 669.1199
1196.149, 664.4819
1196.631, 659.5828
1197.114, 656.4611
1197.596, 657.7207
1198.078, 665.0223
1198.560, 671.3443
1199.042, 672.1769
1199.524, 670.9142
1200.006, 666.9528
1200.488, 664.2880
1200.970, 667.9283
1201.453, 673.6847
1201.935, 675.4526
1202.417, 673.2294
1202.899, 670.0704
1203.381, 665.5101
1203.863, 661.4267
1204.345, 657.3863
1204.827, 655.0403
1205.310, 654.4113
1205.792, 657.6982
1206.274, 666.8260
1206.756, 674.5320
1207.238, 668.8062
1207.720, 662.1022
1208.202, 701.0593
1208.684, 759.4690
1209.167, 751.1324
1209.649, 695.8129
1210.131, 658.7418
1210.613, 649.4157
1211.095, 647.2169
1211.577, 643.9641
1212.059, 644.5775
1212.541, 656.7079
1213.023, 667.2239
1213.505, 667.8427
1213.988, 665.9093
1214.470, 666.8705
1214.952, 667.9672
1215.434, 665.3018
1215.916, 659.5033
1216.398, 652.6409
1216.880, 643.3785
1217.362, 642.6833
1217.845, 654.1793
1218.327, 657.5076
1218.809, 648.1837
1219.291, 643.3398
1219.773, 650.4889
1220.255, 658.5309
1220.737, 657.1157
1221.219, 651.5331
1221.702, 651.7636
1222.184, 654.2261
1222.666, 649.4415
1223.148, 642.0720
1223.630, 644.5998
1224.112, 653.4149
1224.594, 652.7145
1225.076, 639.5875
1225.558, 631.5869
1226.041, 639.0614
1226.523, 647.1370
1227.005, 653.7794
1227.487, 656.2126
1227.969, 650.1400
1228.451, 642.4827
1228.933, 636.6021
1229.415, 634.2838
1229.897, 640.6912
1230.380, 653.9702
1230.862, 650.0073
1231.344, 627.5295
1231.826, 623.1829
1232.308, 638.1065
1232.790, 645.0300
1233.272, 637.7504
##END=



