##NAMES=Ferberite
##RRUFFID=R050632
##IDEAL CHEMISTRY=Fe^2+^W^6+^O_4_
##LOCALITY=Chance mine, Boulder, Colorado, USA
##OWNER=RRUFF
##SOURCE=University of Arizona Mineral Museum
##DESCRIPTION=Dark brown rectangular prismatic crystals
##STATUS=The identification of this mineral has been confirmed by X-ray diffraction and chemical analysis
##URL=rruff.info/R050632
##MEASURED CHEMISTRY=Fe^2+^_1.00_WO_4_
92.02539, 489.1508
92.50751, 509.7334
92.98962, 523.0116
93.47174, 516.0806
93.95386, 499.7418
94.43597, 479.6022
94.91809, 457.8489
95.40021, 435.6880
95.88232, 415.5787
96.36444, 399.5381
96.84656, 382.7961
97.32867, 362.8057
97.81078, 341.5968
98.29290, 322.5197
98.77502, 308.0296
99.25713, 297.8457
99.73925, 289.2084
100.2214, 284.2751
100.7035, 278.6769
101.1856, 269.4624
101.6677, 256.8950
102.1498, 244.1046
102.6320, 234.8887
103.1141, 230.5996
103.5962, 227.0795
104.0783, 223.9860
104.5604, 221.7061
105.0425, 220.8415
105.5247, 221.6575
106.0068, 223.5230
106.4889, 225.7221
106.9710, 228.6074
107.4531, 230.3377
107.9352, 229.2350
108.4173, 225.8625
108.8995, 223.2811
109.3816, 222.3216
109.8637, 222.9694
110.3458, 225.1306
110.8279, 228.9451
111.3100, 233.7694
111.7922, 238.9034
112.2743, 244.2891
112.7564, 250.1303
113.2385, 257.3520
113.7206, 264.6436
114.2027, 270.7974
114.6849, 275.1884
115.1670, 278.2556
115.6491, 281.4512
116.1312, 285.1208
116.6133, 288.5393
117.0954, 291.3548
117.5776, 293.8808
118.0597, 296.3870
118.5418, 298.9255
119.0239, 301.4716
119.5060, 306.7246
119.9881, 315.7209
120.4703, 325.8058
120.9524, 336.1725
121.4345, 346.6857
121.9166, 357.5484
122.3987, 369.0883
122.8808, 381.4526
123.3630, 392.5479
123.8451, 400.9889
124.3272, 408.8862
124.8093, 418.2187
125.2914, 429.4070
125.7735, 441.5060
126.2557, 454.2047
126.7378, 467.2868
127.2199, 478.9820
127.7020, 487.7488
128.1841, 494.4280
128.6662, 501.6133
129.1483, 510.2106
129.6305, 518.8148
130.1126, 527.4974
130.5947, 535.9742
131.0768, 541.8828
131.5589, 545.0504
132.0410, 546.3890
132.5232, 537.4064
133.0053, 512.8648
133.4874, 480.0379
133.9695, 438.7172
134.4516, 389.9367
134.9337, 339.7859
135.4159, 297.0504
135.8980, 263.3235
136.3801, 234.9375
136.8622, 211.1403
137.3443, 191.6976
137.8264, 177.2696
138.3086, 167.9392
138.7907, 162.2899
139.2728, 156.6824
139.7549, 150.8577
140.2370, 145.3524
140.7191, 139.7532
141.2013, 134.5524
141.6834, 130.5923
142.1655, 128.4419
142.6476, 127.7083
143.1297, 126.6592
143.6118, 124.8451
144.0939, 123.2477
144.5761, 122.4717
145.0582, 122.3488
145.5403, 122.0655
146.0224, 120.9990
146.5045, 119.4577
146.9866, 118.3874
147.4688, 117.9910
147.9509, 117.9433
148.4330, 118.0980
148.9151, 118.5319
149.3972, 118.6817
149.8793, 117.6783
150.3615, 116.2770
150.8436, 115.4938
151.3257, 116.1377
151.8078, 117.4055
152.2899, 117.3160
152.7720, 114.9874
153.2542, 112.8121
153.7363, 111.7485
154.2184, 111.4419
154.7005, 111.4244
155.1826, 111.6010
155.6647, 111.8743
156.1469, 111.1768
156.6290, 107.7878
157.1111, 105.0973
157.5932, 104.4112
158.0753, 105.1671
158.5574, 106.0752
159.0396, 106.0144
159.5217, 104.8280
160.0038, 104.1145
160.4859, 104.2697
160.9680, 104.4699
161.4501, 104.2541
161.9323, 103.6953
162.4144, 103.2610
162.8965, 103.4785
163.3786, 104.5964
163.8607, 105.2922
164.3428, 105.2406
164.8250, 105.0304
165.3071, 105.1570
165.7892, 105.6817
166.2713, 106.1879
166.7534, 106.0539
167.2355, 105.1299
167.7177, 104.7408
168.1998, 105.4014
168.6819, 106.5421
169.1640, 107.4756
169.6461, 108.0731
170.1282, 108.4143
170.6104, 108.4950
171.0925, 108.3492
171.5746, 108.2180
172.0567, 108.0464
172.5388, 107.9441
173.0209, 108.2724
173.5031, 109.2564
173.9852, 110.4943
174.4673, 111.6750
174.9494, 112.7925
175.4315, 113.8065
175.9136, 114.7018
176.3958, 115.4789
176.8779, 116.1155
177.3600, 117.0814
177.8421, 117.4263
178.3242, 116.1432
178.8063, 113.3873
179.2885, 110.6513
179.7706, 109.6223
180.2527, 110.7466
180.7348, 111.6524
181.2169, 112.1821
181.6990, 112.4603
182.1812, 112.5643
182.6633, 112.4928
183.1454, 112.1569
183.6275, 111.2984
184.1096, 109.2418
184.5917, 108.1574
185.0738, 108.2904
185.5560, 109.0267
186.0381, 110.1454
186.5202, 111.5141
187.0023, 112.8800
187.4844, 113.7923
187.9665, 113.8278
188.4487, 114.0549
188.9308, 114.2099
189.4129, 114.6667
189.8950, 115.9984
190.3771, 118.3700
190.8592, 121.1187
191.3414, 122.9010
191.8235, 122.9915
192.3056, 123.4792
192.7877, 124.8202
193.2698, 126.6075
193.7519, 128.2736
194.2341, 129.5927
194.7162, 130.8227
195.1983, 132.6439
195.6804, 135.3359
196.1625, 137.5759
196.6446, 138.5030
197.1268, 138.6878
197.6089, 139.5428
198.0910, 141.8031
198.5731, 144.5113
199.0552, 146.0248
199.5373, 146.1452
200.0195, 146.3919
200.5016, 147.7003
200.9837, 149.8946
201.4658, 152.0246
201.9479, 153.6463
202.4300, 155.2995
202.9122, 157.7659
203.3943, 161.1875
203.8764, 164.2401
204.3585, 165.7416
204.8406, 165.7055
205.3227, 165.4603
205.8048, 165.0159
206.2870, 164.6992
206.7691, 164.8847
207.2512, 165.6010
207.7333, 166.2863
208.2154, 166.4578
208.6975, 166.1463
209.1797, 165.1235
209.6618, 163.3003
210.1439, 160.7471
210.6260, 157.1498
211.1081, 152.5573
211.5902, 147.7140
212.0724, 143.6127
212.5545, 140.5568
213.0366, 137.4093
213.5187, 134.2288
214.0008, 130.8573
214.4829, 126.9512
214.9651, 122.5563
215.4472, 118.2023
215.9293, 114.6818
216.4114, 112.2647
216.8935, 110.2171
217.3756, 108.6809
217.8578, 107.3237
218.3399, 105.8624
218.8220, 104.2628
219.3041, 102.7278
219.7862, 101.6080
220.2683, 101.2691
220.7505, 100.6459
221.2326, 99.42789
221.7147, 98.14745
222.1968, 97.39402
222.6789, 97.24428
223.1610, 97.07189
223.6432, 95.86990
224.1253, 92.58381
224.6074, 90.50642
225.0895, 90.63316
225.5716, 91.39491
226.0537, 91.14198
226.5358, 89.52645
227.0180, 87.82233
227.5001, 88.00052
227.9822, 91.00439
228.4643, 92.87569
228.9464, 92.47103
229.4285, 91.24023
229.9107, 90.76254
230.3928, 91.40401
230.8749, 92.38872
231.3570, 92.76331
231.8391, 92.50471
232.3212, 92.01009
232.8034, 91.06627
233.2855, 90.02152
233.7676, 89.23975
234.2497, 88.75842
234.7318, 88.70741
235.2139, 89.68811
235.6961, 91.53970
236.1782, 92.62978
236.6603, 92.05466
237.1424, 90.61977
237.6245, 89.46940
238.1066, 88.71145
238.5888, 88.33593
239.0709, 88.50751
239.5530, 89.08357
240.0351, 89.68609
240.5172, 90.04038
240.9993, 90.36794
241.4815, 91.26449
241.9636, 93.10197
242.4457, 94.61964
242.9278, 94.42041
243.4099, 93.21975
243.8920, 92.49956
244.3742, 93.20724
244.8563, 94.76820
245.3384, 95.91650
245.8205, 96.63724
246.3026, 96.94275
246.7847, 96.65491
247.2668, 96.02417
247.7490, 95.39378
248.2311, 94.69750
248.7132, 94.20974
249.1953, 94.79552
249.6774, 97.15756
250.1595, 99.15778
250.6417, 99.60600
251.1238, 99.28708
251.6059, 99.16099
252.0880, 99.65102
252.5701, 100.6118
253.0522, 101.8012
253.5344, 103.6005
254.0165, 104.8242
254.4986, 104.6179
254.9807, 103.9336
255.4628, 103.8978
255.9449, 105.0759
256.4271, 106.8679
256.9092, 107.7345
257.3913, 106.7074
257.8734, 106.6394
258.3555, 108.8115
258.8376, 111.6821
259.3198, 113.8314
259.8019, 114.6958
260.2840, 114.7402
260.7661, 114.8934
261.2482, 115.1551
261.7303, 115.5440
262.2125, 116.0831
262.6946, 116.7119
263.1767, 117.3348
263.6588, 117.9350
264.1409, 118.6330
264.6230, 119.7290
265.1052, 121.7414
265.5873, 123.1020
266.0694, 123.6280
266.5515, 123.6759
267.0336, 123.4344
267.5157, 122.9765
267.9979, 122.3377
268.4800, 121.5443
268.9621, 120.4709
269.4442, 119.5242
269.9263, 118.9418
270.4084, 118.2901
270.8906, 117.1581
271.3727, 115.5669
271.8548, 113.9697
272.3369, 112.9341
272.8190, 112.6587
273.3011, 112.3340
273.7833, 112.7322
274.2654, 112.4791
274.7475, 110.1319
275.2296, 106.0826
275.7117, 102.2783
276.1938, 100.7271
276.6760, 101.8608
277.1581, 102.6700
277.6402, 103.3313
278.1223, 103.6009
278.6044, 103.0901
279.0865, 102.0189
279.5686, 101.0783
280.0508, 100.8677
280.5329, 101.4109
281.0150, 101.5243
281.4971, 100.6875
281.9792, 100.0361
282.4613, 100.0511
282.9435, 100.5943
283.4256, 101.3551
283.9077, 102.1960
284.3898, 103.0467
284.8719, 103.2038
285.3540, 101.7473
285.8362, 100.7373
286.3183, 101.0477
286.8004, 102.1456
287.2825, 103.0055
287.7646, 103.0682
288.2467, 102.6347
288.7289, 102.7778
289.2110, 104.5262
289.6931, 105.5474
290.1752, 104.6045
290.6573, 102.9467
291.1394, 102.4847
291.6216, 104.0012
292.1037, 106.5458
292.5858, 108.2171
293.0679, 108.8034
293.5500, 108.9043
294.0321, 108.1053
294.5143, 107.0493
294.9964, 106.3517
295.4785, 106.1796
295.9606, 106.5814
296.4427, 107.7723
296.9248, 110.2747
297.4070, 111.9188
297.8891, 111.7426
298.3712, 111.2081
298.8533, 111.8418
299.3354, 113.7967
299.8175, 115.8034
300.2997, 116.5336
300.7818, 115.7241
301.2639, 115.1414
301.7460, 114.8105
302.2281, 114.6822
302.7102, 114.6484
303.1924, 114.7439
303.6745, 115.1560
304.1566, 115.9724
304.6387, 117.2569
305.1208, 119.3232
305.6029, 123.5466
306.0851, 127.1693
306.5672, 128.1587
307.0493, 127.2494
307.5314, 126.9433
308.0135, 128.7885
308.4956, 132.2075
308.9778, 134.6029
309.4599, 134.9064
309.9420, 135.6973
310.4241, 138.0073
310.9062, 141.3584
311.3883, 144.8830
311.8705, 148.2576
312.3526, 151.4898
312.8347, 154.5214
313.3168, 157.2968
313.7989, 160.0702
314.2810, 163.0314
314.7632, 165.9667
315.2453, 168.4701
315.7274, 170.3954
316.2095, 172.3111
316.6916, 174.9890
317.1737, 178.5281
317.6559, 182.5345
318.1380, 188.0119
318.6201, 193.3342
319.1022, 196.6477
319.5843, 197.8225
320.0664, 198.6162
320.5485, 200.7515
321.0306, 204.3576
321.5128, 207.1232
321.9949, 207.9766
322.4770, 208.9263
322.9591, 211.7005
323.4412, 215.9426
323.9233, 219.7361
324.4055, 221.7276
324.8876, 222.1603
325.3697, 222.8581
325.8518, 224.7500
326.3339, 225.8830
326.8160, 225.2814
327.2982, 223.3921
327.7803, 221.1168
328.2624, 218.8106
328.7445, 216.5078
329.2266, 214.3255
329.7087, 212.5883
330.1909, 210.3904
330.6730, 207.3199
331.1551, 203.7875
331.6372, 200.2508
332.1193, 196.8391
332.6014, 193.6047
333.0836, 190.6377
333.5657, 188.0821
334.0478, 185.3819
334.5299, 182.3190
335.0120, 179.2536
335.4941, 176.4853
335.9763, 174.0557
336.4584, 171.7558
336.9405, 169.4131
337.4226, 167.0113
337.9047, 164.7005
338.3868, 162.0066
338.8690, 159.8007
339.3511, 158.9369
339.8332, 159.0099
340.3153, 158.7138
340.7974, 157.1136
341.2795, 154.5372
341.7617, 153.1573
342.2438, 154.2151
342.7259, 154.8214
343.2080, 154.1346
343.6901, 152.6443
344.1722, 151.0648
344.6544, 149.6943
345.1365, 148.4151
345.6186, 146.9838
346.1007, 145.1521
346.5828, 143.5521
347.0649, 142.2363
347.5471, 141.1367
348.0292, 140.3540
348.5113, 139.8438
348.9934, 139.1761
349.4755, 137.7276
349.9576, 135.0181
350.4398, 133.6092
350.9219, 134.9845
351.4040, 136.1114
351.8861, 135.1862
352.3682, 132.5415
352.8503, 129.5085
353.3325, 127.0003
353.8146, 125.0444
354.2967, 124.1025
354.7788, 125.6384
355.2609, 126.5133
355.7430, 125.7317
356.2252, 123.9775
356.7073, 122.2040
357.1894, 120.8625
357.6715, 119.8059
358.1536, 118.6069
358.6357, 116.6043
359.1179, 115.5424
359.5999, 116.5814
360.0821, 117.8150
360.5642, 117.5533
361.0463, 115.5420
361.5284, 112.8668
362.0105, 110.7786
362.4926, 109.2522
362.9748, 108.4615
363.4569, 109.0810
363.9390, 109.7559
364.4211, 109.9461
364.9032, 109.6906
365.3853, 109.2927
365.8675, 109.0270
366.3496, 108.8250
366.8317, 107.9783
367.3138, 105.4983
367.7959, 103.6421
368.2780, 103.1879
368.7602, 103.5020
369.2423, 103.8945
369.7244, 104.0829
370.2065, 104.0053
370.6886, 103.4448
371.1707, 102.0965
371.6529, 101.0415
372.1350, 100.4109
372.6171, 100.1094
373.0992, 100.2963
373.5813, 100.8942
374.0634, 101.3548
374.5456, 100.9676
375.0277, 99.67874
375.5098, 98.73176
375.9919, 98.20841
376.4740, 98.02125
376.9561, 98.04562
377.4383, 98.34741
377.9204, 99.13112
378.4025, 100.7775
378.8846, 102.8408
379.3667, 103.9320
379.8488, 103.5652
380.3310, 103.4883
380.8131, 104.7595
381.2952, 106.5173
381.7773, 107.8665
382.2594, 108.5196
382.7415, 109.0218
383.2237, 109.9541
383.7058, 111.3154
384.1879, 112.7839
384.6700, 114.4385
385.1521, 116.0094
385.6342, 117.2188
386.1164, 118.0852
386.5985, 118.9855
387.0806, 120.1218
387.5627, 121.4322
388.0448, 122.6979
388.5269, 123.7882
389.0091, 125.2087
389.4912, 127.7470
389.9733, 130.9035
390.4554, 133.5725
390.9375, 135.4322
391.4196, 136.8166
391.9018, 137.8796
392.3839, 138.6620
392.8660, 139.4718
393.3481, 140.3669
393.8302, 141.4522
394.3123, 143.0303
394.7945, 145.3926
395.2766, 147.2886
395.7587, 147.9369
396.2408, 147.8690
396.7229, 148.0407
397.2050, 148.6996
397.6872, 149.2648
398.1693, 148.9618
398.6514, 147.6835
399.1335, 146.9342
399.6156, 147.9931
400.0977, 148.6150
400.5798, 146.9684
401.0620, 143.3240
401.5441, 139.1349
402.0262, 135.1917
402.5083, 131.5000
402.9904, 128.2038
403.4725, 125.9025
403.9547, 123.1927
404.4368, 119.4277
404.9189, 115.2508
405.4010, 111.3916
405.8831, 108.1063
406.3652, 105.3760
406.8474, 103.2582
407.3295, 102.1593
407.8116, 100.5172
408.2937, 97.68916
408.7758, 94.95830
409.2579, 93.05922
409.7401, 91.91439
410.2222, 90.98460
410.7043, 89.81324
411.1864, 88.51956
411.6685, 88.14161
412.1506, 90.49729
412.6328, 91.49723
413.1149, 89.17834
413.5970, 85.83393
414.0791, 84.22558
414.5612, 85.24258
415.0433, 87.19705
415.5255, 87.29153
416.0076, 84.75072
416.4897, 83.03318
416.9718, 82.86992
417.4539, 83.14613
417.9360, 83.70794
418.4182, 84.32663
418.9003, 84.46394
419.3824, 83.49709
419.8645, 81.76364
420.3466, 80.80934
420.8287, 80.95071
421.3109, 81.23593
421.7930, 81.36163
422.2751, 81.38127
422.7572, 81.39265
423.2393, 81.46261
423.7214, 81.34123
424.2036, 80.49943
424.6857, 78.98770
425.1678, 78.16453
425.6499, 78.79984
426.1320, 79.62675
426.6141, 79.19861
427.0963, 77.71655
427.5784, 76.78738
428.0605, 77.61691
428.5426, 79.19312
429.0247, 79.92825
429.5068, 79.71164
429.9890, 79.25974
430.4711, 78.93157
430.9532, 78.72488
431.4353, 78.58234
431.9174, 78.45245
432.3995, 78.46292
432.8817, 78.76601
433.3638, 79.24654
433.8459, 79.70425
434.3280, 80.09270
434.8101, 80.31798
435.2922, 80.13402
435.7744, 79.29141
436.2565, 79.15691
436.7386, 80.48183
437.2207, 81.96415
437.7028, 82.72530
438.1849, 82.78775
438.6671, 82.56479
439.1492, 82.31560
439.6313, 82.03211
440.1134, 81.67135
440.5955, 80.84960
441.0776, 80.43155
441.5598, 81.06756
442.0418, 81.87268
442.5240, 81.70485
443.0061, 80.37681
443.4882, 78.92567
443.9703, 78.82748
444.4524, 80.52475
444.9345, 81.49519
445.4167, 80.88404
445.8988, 80.38042
446.3809, 80.92699
446.8630, 81.99184
447.3451, 82.39254
447.8272, 81.31126
448.3094, 79.51010
448.7915, 79.08739
449.2736, 80.70797
449.7557, 81.80312
450.2378, 81.06435
450.7199, 80.02782
451.2021, 79.96725
451.6842, 80.95900
452.1663, 81.77877
452.6484, 80.92883
453.1305, 78.97059
453.6126, 78.66724
454.0948, 80.86225
454.5769, 83.09290
455.0590, 83.42727
455.5411, 82.67783
456.0232, 82.20496
456.5053, 82.46908
456.9875, 82.86803
457.4696, 82.89921
457.9517, 82.62548
458.4338, 82.24425
458.9159, 81.66769
459.3980, 81.31540
459.8802, 82.15066
460.3623, 84.35471
460.8444, 85.73824
461.3265, 85.34598
461.8086, 84.35159
462.2907, 83.63438
462.7729, 83.29954
463.2550, 83.36690
463.7371, 83.95323
464.2192, 84.89241
464.7013, 85.22686
465.1834, 84.58423
465.6656, 83.85896
466.1477, 82.88386
466.6298, 82.02908
467.1119, 81.70660
467.5940, 82.00008
468.0761, 82.69678
468.5583, 83.57314
469.0404, 84.66825
469.5225, 85.73913
470.0046, 87.32644
470.4867, 88.31571
470.9688, 87.84499
471.4510, 86.64714
471.9331, 86.00953
472.4152, 86.60346
472.8973, 87.63587
473.3794, 87.31409
473.8615, 85.05278
474.3437, 83.95092
474.8258, 85.92326
475.3079, 88.15163
475.7900, 88.73647
476.2721, 87.84239
476.7542, 86.97477
477.2364, 87.49889
477.7185, 88.60289
478.2006, 87.97755
478.6827, 85.17786
479.1648, 83.33676
479.6469, 84.62798
480.1291, 87.68965
480.6112, 90.07616
481.0933, 91.69962
481.5754, 92.60854
482.0575, 92.25109
482.5396, 91.32368
483.0217, 91.22422
483.5038, 92.25609
483.9860, 93.54754
484.4681, 94.28311
484.9502, 94.43042
485.4323, 94.68417
485.9144, 94.87334
486.3965, 95.33789
486.8787, 96.41904
487.3608, 97.84428
487.8429, 99.15335
488.3250, 100.1655
488.8071, 100.9349
489.2892, 101.5804
489.7714, 102.2959
490.2535, 102.3772
490.7356, 100.6834
491.2177, 99.51751
491.6998, 100.4782
492.1819, 102.9572
492.6641, 105.2755
493.1462, 106.3235
493.6283, 106.5954
494.1104, 107.6329
494.5925, 109.8640
495.0746, 111.6894
495.5568, 112.1478
496.0389, 112.4672
496.5210, 113.6801
497.0031, 115.7794
497.4852, 117.7135
497.9673, 118.5305
498.4495, 118.6252
498.9316, 119.0608
499.4137, 119.8997
499.8958, 120.9671
500.3779, 122.3178
500.8600, 123.7961
501.3422, 125.0838
501.8243, 126.1551
502.3064, 127.0650
502.7885, 127.6826
503.2706, 128.2038
503.7527, 129.1406
504.2349, 130.6110
504.7170, 131.9139
505.1991, 132.3170
505.6812, 131.7619
506.1633, 131.3104
506.6454, 130.7002
507.1276, 130.4666
507.6097, 131.1826
508.0918, 132.2952
508.5739, 132.8103
509.0560, 132.3878
509.5381, 131.7859
510.0203, 132.4103
510.5024, 135.0564
510.9845, 136.1978
511.4666, 134.5724
511.9487, 132.6841
512.4308, 131.1607
512.9130, 130.1308
513.3951, 129.7253
513.8772, 130.0934
514.3593, 130.8694
514.8414, 131.4693
515.3235, 131.9144
515.8057, 131.9684
516.2878, 130.9191
516.7699, 130.1435
517.2520, 131.2587
517.7341, 133.9296
518.2162, 135.7343
518.6984, 134.7561
519.1805, 132.8768
519.6626, 132.5337
520.1447, 133.6880
520.6268, 135.2805
521.1089, 137.0831
521.5911, 138.7028
522.0732, 139.0298
522.5553, 137.6242
523.0374, 136.4969
523.5195, 135.9553
524.0016, 135.8467
524.4838, 136.1767
524.9659, 136.8551
525.4480, 137.6301
525.9301, 138.3423
526.4122, 138.9639
526.8943, 139.3432
527.3765, 139.0791
527.8586, 139.1528
528.3407, 140.4214
528.8228, 141.5103
529.3049, 140.9772
529.7870, 138.8925
530.2692, 136.7696
530.7513, 136.0608
531.2334, 136.4756
531.7155, 136.1823
532.1976, 134.7815
532.6797, 133.6089
533.1619, 133.6127
533.6440, 133.9447
534.1261, 133.7121
534.6082, 132.7338
535.0903, 131.6111
535.5724, 130.8309
536.0546, 130.1644
536.5367, 128.9527
537.0188, 127.0615
537.5009, 125.4266
537.9830, 124.9826
538.4651, 125.3782
538.9473, 124.6769
539.4294, 121.6499
539.9115, 119.1718
540.3936, 118.5669
540.8757, 118.6939
541.3578, 118.2041
541.8400, 116.8158
542.3221, 114.9207
542.8042, 112.8055
543.2863, 110.4530
543.7684, 108.9618
544.2505, 108.9507
544.7326, 109.1228
545.2147, 109.8280
545.6968, 110.2987
546.1790, 109.3691
546.6611, 106.8559
547.1432, 104.3192
547.6253, 103.9003
548.1074, 105.3239
548.5895, 105.2780
549.0717, 103.0849
549.5538, 100.6092
550.0359, 98.67369
550.5180, 97.24338
551.0001, 96.40810
551.4822, 96.43216
551.9644, 96.45037
552.4465, 95.92349
552.9286, 95.00298
553.4107, 93.85747
553.8928, 92.50769
554.3749, 91.44274
554.8571, 91.21548
555.3392, 91.78941
555.8213, 91.79782
556.3034, 91.16780
556.7855, 90.15768
557.2676, 88.48991
557.7498, 86.63720
558.2319, 85.10745
558.7140, 84.03681
559.1961, 83.36826
559.6782, 83.13505
560.1603, 83.34827
560.6425, 83.11614
561.1246, 81.81474
561.6067, 81.00511
562.0888, 81.80115
562.5709, 82.97301
563.0530, 82.97025
563.5352, 81.38935
564.0173, 79.60645
564.4994, 78.77920
564.9815, 78.69236
565.4636, 78.76664
565.9457, 79.03922
566.4279, 78.94996
566.9100, 77.83302
567.3921, 76.10148
567.8742, 75.21730
568.3563, 75.54491
568.8384, 76.09946
569.3206, 76.82594
569.8027, 77.45774
570.2848, 77.61764
570.7669, 77.28368
571.2490, 76.75801
571.7311, 76.29215
572.2133, 75.87798
572.6954, 75.44176
573.1775, 74.81901
573.6596, 74.40998
574.1417, 74.31783
574.6238, 74.41206
575.1060, 74.74653
575.5881, 75.22935
576.0702, 75.41711
576.5523, 74.73962
577.0344, 73.48927
577.5165, 72.78085
577.9987, 72.70673
578.4808, 72.76479
578.9629, 72.66158
579.4450, 72.65022
579.9271, 73.19399
580.4092, 74.42685
580.8914, 75.30218
581.3735, 75.57518
581.8556, 75.19778
582.3377, 73.66732
582.8198, 71.25094
583.3019, 69.31133
583.7841, 68.62348
584.2662, 68.97247
584.7483, 69.79659
585.2304, 71.78455
585.7125, 73.10418
586.1946, 73.54239
586.6768, 73.55279
587.1589, 73.10635
587.6410, 72.47329
588.1231, 72.23476
588.6052, 72.77937
589.0873, 73.74581
589.5695, 74.42680
590.0516, 74.81876
590.5337, 74.91973
591.0158, 74.47353
591.4979, 74.03759
591.9800, 74.27265
592.4622, 74.95813
592.9443, 75.17143
593.4264, 74.20408
593.9085, 73.04910
594.3906, 72.29705
594.8727, 72.01012
595.3549, 72.60890
595.8370, 74.29603
596.3191, 76.01081
596.8012, 76.38937
597.2833, 75.19041
597.7654, 74.34725
598.2476, 73.73117
598.7297, 73.55791
599.2118, 74.11780
599.6939, 75.06202
600.1760, 76.15932
600.6581, 77.27094
601.1403, 77.91036
601.6224, 77.08831
602.1045, 74.91444
602.5866, 74.24242
603.0687, 75.85205
603.5508, 77.24668
604.0330, 76.70348
604.5151, 75.44832
604.9972, 75.08878
605.4793, 75.98345
605.9614, 76.83489
606.4435, 76.93863
606.9257, 76.64236
607.4078, 76.37145
607.8899, 76.17899
608.3720, 76.05599
608.8541, 76.00040
609.3362, 76.00649
609.8184, 76.05662
610.3005, 76.16624
610.7826, 76.30141
611.2647, 76.40379
611.7468, 76.58155
612.2289, 77.02413
612.7111, 77.60342
613.1932, 78.00607
613.6753, 78.06327
614.1574, 77.82037
614.6395, 77.21247
615.1216, 76.17795
615.6038, 75.62283
616.0859, 76.00166
616.5680, 76.48168
617.0501, 76.29969
617.5322, 75.63081
618.0143, 75.03909
618.4965, 74.31532
618.9786, 74.05594
619.4607, 74.97533
619.9428, 76.52418
620.4249, 77.75167
620.9070, 78.41576
621.3892, 78.65141
621.8713, 78.54102
622.3534, 78.09109
622.8355, 77.80571
623.3176, 77.67114
623.7997, 77.73852
624.2819, 78.08099
624.7640, 78.58102
625.2461, 79.38872
625.7282, 80.36974
626.2103, 80.77559
626.6924, 79.50520
627.1745, 77.43871
627.6566, 76.94968
628.1387, 78.15425
628.6208, 79.31447
629.1030, 79.75550
629.5851, 79.87836
630.0672, 80.32608
630.5493, 81.12759
631.0314, 81.68903
631.5135, 81.95461
631.9957, 81.92801
632.4778, 81.32122
632.9599, 80.47335
633.4420, 80.13000
633.9241, 80.55704
634.4063, 81.20981
634.8884, 81.23880
635.3705, 80.50228
635.8526, 80.36272
636.3347, 81.36730
636.8168, 82.20662
637.2990, 82.21414
637.7811, 81.92707
638.2632, 81.96207
638.7453, 82.44564
639.2274, 83.19803
639.7095, 84.43952
640.1917, 85.73706
640.6738, 86.19395
641.1559, 85.78465
641.6380, 85.27420
642.1201, 84.98672
642.6022, 84.99879
643.0844, 85.48808
643.5665, 86.53563
644.0486, 87.95986
644.5307, 90.71685
645.0128, 92.92456
645.4949, 93.30526
645.9771, 92.39095
646.4592, 91.08451
646.9413, 89.74968
647.4234, 89.06119
647.9055, 90.56374
648.3876, 94.18636
648.8698, 96.14880
649.3519, 95.46922
649.8340, 94.68090
650.3161, 95.65665
650.7982, 97.50407
651.2803, 98.35664
651.7625, 97.66204
652.2446, 97.07954
652.7267, 97.19228
653.2088, 97.78175
653.6909, 98.60306
654.1730, 99.65588
654.6552, 101.2647
655.1373, 103.7355
655.6194, 106.3685
656.1015, 107.0601
656.5836, 104.3078
657.0657, 103.5016
657.5479, 106.8025
658.0300, 110.3350
658.5121, 112.7546
658.9942, 114.1531
659.4763, 114.6409
659.9584, 113.8629
660.4406, 113.5132
660.9227, 115.6352
661.4048, 119.3046
661.8869, 122.2147
662.3690, 124.0198
662.8511, 125.1606
663.3333, 125.7881
663.8154, 126.0975
664.2975, 126.9020
664.7796, 128.6613
665.2617, 130.2762
665.7438, 131.2474
666.2260, 132.4866
666.7081, 134.7392
667.1902, 137.7890
667.6723, 141.0788
668.1544, 144.4481
668.6365, 147.4216
669.1187, 148.7379
669.6008, 148.5294
670.0829, 150.1133
670.5650, 154.5752
671.0471, 159.1782
671.5292, 161.7032
672.0114, 162.7404
672.4935, 164.4474
672.9756, 166.8379
673.4577, 169.9198
673.9398, 174.4398
674.4219, 179.1142
674.9041, 182.5231
675.3862, 184.8205
675.8683, 187.1643
676.3504, 190.2733
676.8325, 193.9284
677.3146, 197.7141
677.7968, 201.7235
678.2789, 205.3921
678.7610, 208.5219
679.2431, 211.5020
679.7252, 214.7418
680.2073, 217.9786
680.6895, 220.6355
681.1716, 222.4831
681.6537, 224.0199
682.1358, 225.1309
682.6179, 226.2950
683.1000, 228.4357
683.5822, 231.4846
684.0643, 234.5369
684.5464, 237.1041
685.0285, 238.9680
685.5106, 239.3928
685.9927, 237.5793
686.4749, 236.2055
686.9570, 235.9422
687.4391, 235.5669
687.9212, 234.7924
688.4033, 233.4734
688.8854, 231.2683
689.3676, 227.9071
689.8497, 224.3904
690.3318, 221.5661
690.8139, 219.2078
691.2960, 216.9304
691.7781, 214.6667
692.2603, 212.2840
692.7424, 209.6999
693.2245, 206.9135
693.7066, 203.9071
694.1887, 200.8386
694.6708, 197.1846
695.1530, 192.5603
695.6351, 187.8145
696.1172, 182.9030
696.5993, 178.2592
697.0814, 174.7664
697.5635, 172.7809
698.0457, 170.9818
698.5278, 167.8792
699.0099, 163.8898
699.4920, 160.2294
699.9741, 157.0002
700.4562, 154.2215
700.9384, 151.9874
701.4205, 150.1104
701.9026, 148.1887
702.3847, 146.0374
702.8668, 144.3979
703.3489, 144.4497
703.8311, 143.8023
704.3132, 140.3759
704.7953, 135.7776
705.2774, 132.5580
705.7595, 131.5200
706.2416, 131.4454
706.7238, 131.3983
707.2059, 131.2741
707.6880, 130.5868
708.1701, 129.3055
708.6522, 127.5668
709.1343, 125.1053
709.6164, 122.5841
710.0985, 121.1777
710.5806, 121.0776
711.0627, 120.6005
711.5449, 119.2278
712.0270, 117.8908
712.5091, 117.1478
712.9912, 116.6662
713.4733, 115.9479
713.9554, 114.8831
714.4376, 113.7665
714.9197, 112.9494
715.4018, 112.2806
715.8839, 110.9380
716.3660, 108.7411
716.8481, 107.3088
717.3303, 107.4438
717.8124, 108.1372
718.2945, 108.2614
718.7766, 107.8632
719.2587, 107.5839
719.7408, 107.7540
720.2230, 107.7252
720.7051, 107.2600
721.1872, 106.4505
721.6693, 104.9994
722.1514, 103.1711
722.6335, 102.2019
723.1157, 103.2186
723.5978, 105.4104
724.0799, 106.5856
724.5620, 106.6620
725.0441, 106.6810
725.5262, 107.0035
726.0084, 107.0087
726.4905, 105.9387
726.9726, 104.0928
727.4547, 102.6682
727.9368, 101.7397
728.4189, 101.2048
728.9011, 101.4712
729.3832, 101.7983
729.8653, 101.2300
730.3474, 100.0315
730.8295, 99.36838
731.3116, 99.93395
731.7938, 100.9411
732.2759, 100.9045
732.7580, 99.80334
733.2401, 99.09968
733.7222, 98.97633
734.2043, 99.09207
734.6865, 99.45161
735.1686, 99.83461
735.6507, 99.68855
736.1328, 98.73348
736.6149, 98.22056
737.0970, 98.37608
737.5792, 99.07903
738.0613, 100.8346
738.5434, 102.9331
739.0255, 103.9583
739.5076, 103.4682
739.9897, 102.4893
740.4719, 102.1762
740.9540, 102.4541
741.4361, 102.8837
741.9182, 103.5581
742.4003, 103.8358
742.8824, 103.1385
743.3646, 102.3233
743.8467, 102.7076
744.3288, 104.3031
744.8109, 105.4893
745.2930, 106.2436
745.7751, 106.4405
746.2573, 104.8389
746.7394, 103.3219
747.2215, 104.9860
747.7036, 109.5384
748.1857, 113.0383
748.6678, 112.1426
749.1500, 108.8761
749.6321, 107.8193
750.1142, 108.9709
750.5963, 109.9835
751.0784, 110.2461
751.5605, 110.7654
752.0427, 112.6631
752.5248, 115.5491
753.0069, 117.2875
753.4890, 117.5436
753.9711, 117.2860
754.4532, 116.1636
754.9354, 114.9818
755.4175, 113.8337
755.8996, 113.1727
756.3817, 114.0709
756.8638, 117.0756
757.3459, 120.4221
757.8281, 121.9220
758.3102, 122.0039
758.7923, 122.0801
759.2744, 122.2102
759.7565, 123.0937
760.2386, 125.3552
760.7208, 128.0323
761.2029, 129.4168
761.6850, 129.1159
762.1671, 129.1152
762.6492, 129.5765
763.1313, 130.1204
763.6135, 130.7803
764.0956, 131.3711
764.5777, 131.6821
765.0598, 131.7000
765.5419, 131.6004
766.0240, 131.4144
766.5062, 131.2490
766.9883, 131.4445
767.4704, 131.8289
767.9525, 131.5026
768.4346, 130.2193
768.9167, 129.0299
769.3989, 128.8655
769.8810, 129.6030
770.3631, 130.5226
770.8452, 131.8746
771.3273, 132.9562
771.8094, 133.6013
772.2916, 134.0919
772.7737, 134.7429
773.2558, 135.3103
773.7379, 135.1937
774.2200, 134.0691
774.7021, 132.9314
775.1843, 132.6307
775.6664, 132.5910
776.1485, 131.7193
776.6306, 130.2846
777.1127, 129.8053
777.5948, 130.9821
778.0770, 132.6285
778.5591, 132.9035
779.0412, 131.7301
779.5233, 130.8482
780.0054, 130.3275
780.4875, 129.9581
780.9697, 129.8677
781.4518, 129.7517
781.9339, 129.1574
782.4160, 128.1512
782.8981, 127.5844
783.3802, 128.1583
783.8624, 128.6481
784.3445, 128.0657
784.8266, 127.2369
785.3087, 127.3988
785.7908, 128.5158
786.2729, 129.5777
786.7551, 129.9434
787.2372, 129.7518
787.7193, 128.9471
788.2014, 127.5508
788.6835, 127.5700
789.1656, 129.8342
789.6478, 131.2570
790.1299, 129.3204
790.6120, 125.6768
791.0941, 124.4922
791.5762, 126.8593
792.0583, 128.2586
792.5404, 127.8283
793.0225, 127.0631
793.5046, 126.4173
793.9868, 125.9795
794.4689, 125.8464
794.9510, 126.0105
795.4331, 126.2501
795.9152, 126.4963
796.3973, 126.6469
796.8795, 126.3528
797.3616, 125.7595
797.8437, 125.7293
798.3258, 126.5032
798.8079, 127.1217
799.2900, 126.5816
799.7722, 125.2584
800.2543, 125.3561
800.7364, 127.9753
801.2185, 129.7611
801.7006, 129.8581
802.1827, 129.6614
802.6649, 129.6406
803.1470, 129.8154
803.6291, 130.2849
804.1112, 131.1922
804.5933, 131.7204
805.0754, 130.7667
805.5576, 129.7875
806.0397, 130.6861
806.5218, 132.7210
807.0039, 133.8682
807.4860, 133.4668
807.9681, 132.5598
808.4503, 132.1778
808.9324, 132.3175
809.4145, 133.2029
809.8966, 135.0784
810.3787, 136.1154
810.8608, 135.5107
811.3430, 134.5646
811.8251, 134.2974
812.3072, 134.6971
812.7893, 135.5549
813.2714, 137.1838
813.7535, 138.7874
814.2357, 140.5610
814.7178, 141.9881
815.1999, 142.4365
815.6820, 142.3078
816.1641, 142.5815
816.6462, 143.6147
817.1284, 144.3157
817.6105, 142.9680
818.0926, 140.9011
818.5747, 140.7407
819.0568, 142.3882
819.5389, 144.9717
820.0211, 148.2804
820.5032, 150.9602
820.9853, 151.2366
821.4674, 149.3320
821.9495, 148.6685
822.4316, 149.5139
822.9138, 151.0366
823.3959, 154.0566
823.8780, 156.7502
824.3601, 157.7635
824.8422, 157.5371
825.3243, 157.1273
825.8065, 156.3059
826.2886, 156.3106
826.7707, 158.0251
827.2528, 160.4226
827.7349, 162.8413
828.2170, 165.1456
828.6992, 167.2203
829.1813, 169.0441
829.6634, 170.7653
830.1455, 172.4069
830.6276, 174.1066
831.1097, 176.4784
831.5919, 179.4949
832.0740, 182.3426
832.5561, 184.8324
833.0382, 186.8304
833.5203, 187.9837
834.0024, 188.5232
834.4846, 190.3292
834.9667, 194.4475
835.4488, 198.1048
835.9309, 200.7961
836.4130, 203.3794
836.8951, 206.1745
837.3773, 209.2297
837.8594, 212.5691
838.3415, 216.1819
838.8236, 220.2043
839.3057, 225.3117
839.7878, 230.3746
840.2700, 233.7710
840.7521, 236.3865
841.2342, 240.3408
841.7163, 246.0850
842.1984, 252.3089
842.6805, 257.8650
843.1627, 262.8263
843.6448, 266.9430
844.1269, 270.1241
844.6090, 275.0611
845.0911, 282.4492
845.5732, 290.7165
846.0554, 298.8478
846.5375, 306.9792
847.0196, 315.5460
847.5017, 325.1898
847.9838, 333.6974
848.4659, 338.7135
848.9481, 345.3859
849.4302, 356.5482
849.9123, 369.9802
850.3944, 382.9652
850.8765, 395.1981
851.3586, 408.1747
851.8408, 423.0678
852.3229, 438.6735
852.8050, 454.0618
853.2871, 469.5211
853.7692, 485.0111
854.2513, 500.8461
854.7335, 518.7073
855.2156, 539.4730
855.6977, 562.8663
856.1798, 588.4860
856.6619, 616.3253
857.1440, 644.6179
857.6262, 672.7842
858.1083, 703.5559
858.5904, 738.3754
859.0725, 775.6464
859.5546, 813.1866
860.0367, 850.6874
860.5189, 891.3674
861.0010, 936.1409
861.4831, 982.7239
861.9652, 1031.081
862.4473, 1081.105
862.9294, 1132.939
863.4116, 1186.527
863.8937, 1241.438
864.3758, 1298.409
864.8579, 1355.291
865.3400, 1409.428
865.8221, 1463.601
866.3043, 1521.002
866.7864, 1581.042
867.2685, 1640.601
867.7506, 1698.539
868.2327, 1755.740
868.7148, 1813.339
869.1970, 1870.192
869.6791, 1922.899
870.1612, 1971.345
870.6433, 2017.977
871.1254, 2064.354
871.6075, 2104.716
872.0897, 2134.275
872.5718, 2158.299
873.0539, 2174.883
873.5360, 2181.579
874.0181, 2183.970
874.5002, 2175.987
874.9823, 2158.736
875.4644, 2132.354
875.9465, 2096.980
876.4286, 2051.781
876.9108, 1997.101
877.3929, 1935.401
877.8750, 1865.501
878.3571, 1791.563
878.8392, 1714.310
879.3214, 1635.283
879.8035, 1555.406
880.2856, 1475.475
880.7677, 1396.246
881.2498, 1317.942
881.7319, 1241.545
882.2141, 1167.205
882.6962, 1095.622
883.1783, 1029.718
883.6604, 969.4232
884.1425, 913.0793
884.6246, 860.3806
885.1068, 810.4954
885.5889, 762.6512
886.0710, 716.9892
886.5531, 675.5652
887.0352, 639.2930
887.5173, 604.4205
887.9995, 569.6177
888.4816, 537.1838
888.9637, 508.1234
889.4458, 482.3190
889.9279, 459.7421
890.4100, 441.1992
890.8922, 422.5513
891.3743, 402.1007
891.8564, 382.6055
892.3385, 365.3467
892.8206, 349.7412
893.3027, 335.4267
893.7849, 322.1006
894.2670, 309.3562
894.7491, 296.9315
895.2312, 285.0963
895.7133, 273.9293
896.1954, 263.6518
896.6776, 255.2182
897.1597, 248.2472
897.6418, 240.9061
898.1239, 232.4531
898.6060, 223.6789
899.0881, 215.3516
899.5703, 207.6117
900.0524, 201.1751
900.5345, 196.1076
901.0166, 191.3127
901.4987, 186.4885
901.9808, 181.9932
902.4630, 178.1295
902.9451, 174.7982
903.4272, 171.7568
903.9093, 169.7810
904.3914, 166.2182
904.8735, 158.7958
905.3557, 152.6316
905.8378, 150.7360
906.3199, 150.1823
906.8020, 147.6188
907.2841, 143.0236
907.7662, 139.0586
908.2484, 136.9133
908.7305, 134.8193
909.2126, 131.7088
909.6947, 128.6588
910.1768, 127.1072
910.6589, 126.4195
911.1411, 124.6229
911.6232, 120.9510
912.1053, 117.4312
912.5874, 116.3217
913.0695, 116.1163
913.5516, 114.2228
914.0338, 111.2309
914.5159, 109.2541
914.9980, 108.6971
915.4801, 108.1167
915.9622, 106.3425
916.4443, 103.8933
916.9265, 101.8259
917.4086, 100.1398
917.8907, 99.51653
918.3728, 100.3176
918.8549, 100.1545
919.3370, 97.51228
919.8192, 94.35720
920.3013, 93.57726
920.7834, 95.25376
921.2655, 95.70573
921.7476, 94.03417
922.2297, 92.69447
922.7119, 92.60377
923.1940, 92.35329
923.6761, 90.81263
924.1582, 88.62170
924.6403, 87.07929
925.1224, 86.35911
925.6046, 86.09208
926.0867, 86.75855
926.5688, 87.21602
927.0509, 86.51216
927.5330, 85.48423
928.0151, 85.20213
928.4973, 85.65081
928.9794, 86.12598
929.4615, 86.46487
929.9436, 86.21169
930.4257, 84.48132
930.9078, 82.19592
931.3900, 80.58152
931.8721, 79.67455
932.3542, 79.27219
932.8363, 79.28116
933.3184, 79.59998
933.8005, 80.31033
934.2827, 81.05399
934.7648, 80.64359
935.2469, 79.23223
935.7290, 78.28576
936.2111, 78.04723
936.6932, 78.14241
937.1754, 78.41334
937.6575, 78.69959
938.1396, 78.76514
938.6217, 78.64527
939.1038, 77.61475
939.5859, 74.75993
940.0681, 73.57156
940.5502, 76.16086
941.0323, 78.96464
941.5144, 78.74911
941.9965, 76.24737
942.4786, 74.53907
942.9608, 73.80660
943.4429, 73.43752
943.9250, 73.84765
944.4071, 74.10176
944.8892, 73.75280
945.3713, 73.09458
945.8535, 72.26978
946.3356, 71.40223
946.8177, 71.11172
947.2998, 72.23557
947.7819, 72.99603
948.2640, 72.15111
948.7462, 70.88091
949.2283, 69.99833
949.7104, 69.66177
950.1925, 70.27290
950.6746, 71.82767
951.1567, 72.78239
951.6389, 71.31616
952.1210, 69.15327
952.6031, 68.35446
953.0852, 68.60934
953.5673, 69.60384
954.0494, 71.03258
954.5316, 71.89489
955.0137, 71.65224
955.4958, 70.66456
955.9779, 69.07875
956.4600, 67.16435
956.9421, 66.43035
957.4242, 66.83227
957.9063, 67.14886
958.3884, 67.06520
958.8705, 66.85434
959.3527, 66.73106
959.8348, 66.65493
960.3169, 66.39684
960.7990, 65.75582
961.2811, 66.19920
961.7632, 68.39774
962.2454, 69.86107
962.7275, 69.55281
963.2096, 68.24348
963.6917, 66.32619
964.1738, 63.98947
964.6559, 63.36792
965.1381, 66.43053
965.6202, 68.01919
966.1023, 66.49821
966.5844, 65.20798
967.0665, 66.21937
967.5486, 67.95905
968.0308, 68.18810
968.5129, 66.77703
968.9950, 65.55926
969.4771, 64.63647
969.9592, 64.33463
970.4413, 65.50861
970.9235, 66.68034
971.4056, 66.45473
971.8877, 65.35342
972.3698, 64.51695
972.8519, 64.24850
973.3340, 64.37164
973.8162, 65.14932
974.2983, 65.90318
974.7804, 66.23282
975.2625, 66.09549
975.7446, 64.98299
976.2267, 63.33462
976.7089, 62.71888
977.1910, 63.91851
977.6731, 65.45686
978.1552, 65.80193
978.6373, 65.47507
979.1194, 65.36983
979.6016, 65.39386
980.0837, 65.17879
980.5658, 64.65685
981.0479, 63.93250
981.5300, 63.02693
982.0121, 62.28560
982.4943, 62.56642
982.9764, 63.61897
983.4585, 64.16525
983.9406, 64.14388
984.4227, 62.89414
984.9048, 60.06076
985.3870, 57.92400
985.8691, 58.73920
986.3512, 61.52955
986.8333, 63.17731
987.3154, 63.59851
987.7975, 63.40291
988.2797, 62.40966
988.7618, 61.67804
989.2439, 61.76632
989.7260, 61.96106
990.2081, 61.24724
990.6902, 59.83648
991.1724, 59.87101
991.6545, 62.60432
992.1366, 63.81123
992.6187, 62.24995
993.1008, 60.61042
993.5829, 60.08087
994.0651, 60.17774
994.5472, 60.31638
995.0293, 60.49747
995.5114, 60.65632
995.9935, 60.99917
996.4756, 61.01662
996.9578, 60.20741
997.4399, 59.51520
997.9220, 59.68839
998.4041, 60.22123
998.8862, 60.20748
999.3683, 59.53453
999.8505, 59.19989
1000.333, 59.80732
1000.815, 60.32346
1001.297, 60.55287
1001.779, 60.37346
1002.261, 59.23518
1002.743, 57.75334
1003.225, 57.23133
1003.707, 58.00111
1004.190, 58.74929
1004.672, 58.85679
1005.154, 58.68679
1005.636, 58.13691
1006.118, 57.68664
1006.600, 58.06903
1007.082, 59.04573
1007.564, 59.87952
1008.046, 60.30747
1008.529, 60.29414
1009.011, 59.26150
1009.493, 58.26445
1009.975, 58.91154
1010.457, 60.24585
1010.939, 60.42243
1011.421, 59.45253
1011.903, 58.56404
1012.385, 58.35383
1012.868, 58.47594
1013.350, 58.67813
1013.832, 58.88694
1014.314, 58.83695
1014.796, 58.69041
1015.278, 59.11479
1015.760, 60.08979
1016.242, 60.70097
1016.725, 60.40862
1017.207, 59.52339
1017.689, 58.12679
1018.171, 56.55410
1018.653, 56.09649
1019.135, 56.66301
1019.617, 57.68505
1020.099, 59.00545
1020.581, 60.19967
1021.064, 61.01612
1021.546, 61.31628
1022.028, 60.59253
1022.510, 58.97865
1022.992, 57.97572
1023.474, 57.59056
1023.956, 58.03107
1024.438, 59.45547
1024.921, 60.61631
1025.403, 60.50800
1025.885, 61.15145
1026.367, 61.06968
1026.849, 60.54186
1027.331, 60.25286
1027.813, 58.52885
1028.295, 57.20080
1028.777, 56.71955
1029.260, 56.96325
1029.742, 58.02060
1030.224, 59.48318
1030.706, 60.16244
1031.188, 59.94440
1031.670, 59.48730
1032.152, 58.54615
1032.634, 58.11363
1033.116, 58.65747
1033.599, 59.45004
1034.081, 60.00862
1034.563, 60.27655
1035.045, 59.99511
1035.527, 58.79322
1036.009, 58.37449
1036.491, 59.23615
1036.973, 59.95123
1037.456, 60.33543
1037.938, 60.14909
1038.420, 58.66326
1038.902, 56.53957
1039.384, 56.11840
1039.866, 58.22327
1040.348, 59.72855
1040.830, 60.51207
1041.313, 60.86002
1041.795, 60.33619
1042.277, 59.86152
1042.759, 60.44277
1043.241, 61.65931
1043.723, 62.19345
1044.205, 61.91636
1044.687, 61.26665
1045.169, 59.54464
1045.651, 58.39375
1046.134, 58.27622
1046.616, 58.90688
1047.098, 60.83833
1047.580, 63.25493
1048.062, 63.75084
1048.544, 61.50608
1049.026, 59.50836
1049.508, 57.83966
1049.991, 56.86843
1050.473, 57.07845
1050.955, 57.71083
1051.437, 58.18018
1051.919, 58.54554
1052.401, 59.14653
1052.883, 60.16958
1053.365, 60.78794
1053.848, 60.77002
1054.330, 60.39289
1054.812, 59.26625
1055.294, 58.25766
1055.776, 58.16245
1056.258, 58.77270
1056.740, 59.50626
1057.222, 60.28119
1057.704, 61.03441
1058.187, 62.00320
1058.669, 62.62107
1059.151, 62.26582
1059.633, 61.78595
1060.115, 61.96850
1060.597, 62.61214
1061.079, 63.28119
1061.561, 63.94643
1062.043, 63.91313
1062.526, 62.09088
1063.008, 60.61260
1063.490, 61.06332
1063.972, 61.71022
1064.454, 60.54906
1064.936, 58.52635
1065.418, 57.94855
1065.900, 59.30420
1066.383, 60.49009
1066.865, 60.74198
1067.347, 60.57928
1067.829, 59.64523
1068.311, 58.94308
1068.793, 59.64461
1069.275, 61.11476
1069.757, 62.29182
1070.240, 62.92217
1070.722, 62.61744
1071.204, 60.24217
1071.686, 58.17181
1072.168, 57.55628
1072.650, 57.65300
1073.132, 58.10977
1073.614, 58.70587
1074.096, 59.12541
1074.578, 59.35200
1075.061, 59.80305
1075.543, 60.98001
1076.025, 61.89063
1076.507, 62.00075
1076.989, 61.71455
1077.471, 61.04044
1077.953, 60.34755
1078.435, 60.27915
1078.918, 60.79608
1079.400, 61.05731
1079.882, 60.66500
1080.364, 60.13910
1080.846, 59.47993
1081.328, 59.03538
1081.810, 59.40686
1082.292, 59.93586
1082.774, 59.54157
1083.257, 58.35570
1083.739, 57.62545
1084.221, 57.92693
1084.703, 58.24132
1085.185, 57.81836
1085.667, 57.57106
1086.149, 58.63734
1086.631, 59.83591
1087.114, 59.47002
1087.596, 57.91809
1088.078, 57.01839
1088.560, 57.41951
1089.042, 57.89179
1089.524, 58.13781
1090.006, 58.05931
1090.488, 57.36274
1090.970, 56.50517
1091.453, 55.83294
1091.935, 55.41603
1092.417, 55.29509
1092.899, 55.47564
1093.381, 55.97962
1093.863, 57.00517
1094.345, 58.10994
1094.827, 59.76221
1095.309, 60.78585
1095.792, 59.67609
1096.274, 57.37976
1096.756, 55.62281
1097.238, 54.71682
1097.720, 54.52742
1098.202, 55.72619
1098.684, 56.64467
1099.166, 56.57052
1099.649, 56.18515
1100.131, 55.80827
1100.613, 55.51520
1101.095, 55.37737
1101.577, 55.39151
1102.059, 55.44431
1102.541, 55.60485
1103.023, 55.64422
1103.505, 55.23707
1103.988, 55.00655
1104.470, 55.75140
1104.952, 56.52788
1105.434, 55.96930
1105.916, 54.34724
1106.398, 53.43486
1106.880, 53.96450
1107.362, 54.09010
1107.844, 52.96104
1108.327, 52.10130
1108.809, 52.36500
1109.291, 52.89141
1109.773, 52.88331
1110.255, 52.50105
1110.737, 52.36058
1111.219, 52.69827
1111.701, 52.51546
1112.184, 50.65621
1112.666, 49.79042
1113.148, 51.42343
1113.630, 53.28347
1114.112, 54.05000
1114.594, 53.96231
1115.076, 53.27055
1115.558, 51.83805
1116.041, 51.21019
1116.523, 52.10203
1117.005, 52.57154
1117.487, 52.14759
1117.969, 51.65435
1118.451, 51.30095
1118.933, 51.26161
1119.415, 51.90133
1119.897, 53.12585
1120.380, 53.89410
1120.862, 53.88728
1121.344, 54.31839
1121.826, 55.99589
1122.308, 56.30705
1122.790, 53.44001
1123.272, 50.47579
1123.754, 50.59754
1124.236, 52.76484
1124.719, 53.36153
1125.201, 51.98466
1125.683, 51.14037
1126.165, 50.85489
1126.647, 51.11467
1127.129, 52.15464
1127.611, 52.91520
1128.093, 52.63293
1128.576, 51.68491
1129.058, 50.64641
1129.540, 49.55872
1130.022, 49.35860
1130.504, 50.12870
1130.986, 50.91909
1131.468, 51.62984
1131.950, 51.90197
1132.432, 51.53551
1132.915, 50.81806
1133.397, 50.07097
1133.879, 49.29506
1134.361, 48.23787
1134.843, 47.01347
1135.325, 47.42019
1135.807, 49.46120
1136.289, 50.82653
1136.771, 50.77940
1137.254, 50.29333
1137.736, 50.11314
1138.218, 50.15676
1138.700, 50.33002
1139.182, 50.59195
1139.664, 50.66159
1140.146, 50.68181
1140.628, 51.69808
1141.111, 53.58348
1141.593, 53.98504
1142.075, 51.63010
1142.557, 49.09985
1143.039, 49.88652
1143.521, 51.93082
1144.003, 51.54903
1144.485, 49.88307
1144.968, 49.20565
1145.450, 49.52613
1145.932, 49.99128
1146.414, 50.28666
1146.896, 50.33372
1147.378, 49.89087
1147.860, 49.56664
1148.342, 50.19251
1148.824, 51.05611
1149.307, 51.42337
1149.789, 51.34894
1150.271, 50.88778
1150.753, 50.18633
1151.235, 49.67365
1151.717, 49.52594
1152.199, 49.57925
1152.681, 50.05953
1153.163, 50.33692
1153.646, 49.62214
1154.128, 48.79469
1154.610, 49.04021
1155.092, 49.87002
1155.574, 49.86003
1156.056, 48.70926
1156.538, 48.03601
1157.020, 48.46509
1157.503, 49.20341
1157.985, 50.63511
1158.467, 51.63890
1158.949, 51.27376
1159.431, 50.27362
1159.913, 49.48221
1160.395, 48.94733
1160.877, 48.68846
1161.359, 48.70834
1161.842, 49.01714
1162.324, 50.29810
1162.806, 50.78363
1163.288, 49.25529
1163.770, 47.77251
1164.252, 48.08356
1164.734, 49.36054
1165.216, 49.78682
1165.698, 49.31110
1166.181, 48.55320
1166.663, 47.24993
1167.145, 46.76063
1167.627, 47.53998
1168.109, 48.11946
1168.591, 47.73077
1169.073, 47.08278
1169.555, 46.96937
1170.037, 47.30642
1170.520, 47.93768
1171.002, 48.83908
1171.484, 48.95544
1171.966, 48.26643
1172.448, 47.96671
1172.930, 48.35943
1173.412, 48.25997
1173.894, 46.79033
1174.377, 45.19591
1174.859, 45.61005
1175.341, 47.23057
1175.823, 47.90680
1176.305, 47.87466
1176.787, 47.77711
1177.269, 47.70377
1177.751, 47.52152
1178.234, 47.20985
1178.716, 47.09056
1179.198, 47.53429
1179.680, 48.00905
1180.162, 47.65990
1180.644, 47.22461
1181.126, 48.04680
1181.608, 49.28445
1182.090, 49.22710
1182.573, 47.93540
1183.055, 46.66280
1183.537, 45.78902
1184.019, 45.60527
1184.501, 46.92091
1184.983, 48.14740
1185.465, 48.47783
1185.947, 48.26350
1186.429, 47.57981
1186.912, 46.69887
1187.394, 45.76667
1187.876, 44.87223
1188.358, 45.20260
1188.840, 48.42637
1189.322, 50.52094
1189.804, 50.73553
1190.286, 50.18732
1190.769, 48.67524
1191.251, 47.20325
1191.733, 46.62543
1192.215, 46.74026
1192.697, 47.10859
1193.179, 47.82087
1193.661, 47.97473
1194.143, 47.45393
1194.625, 46.65540
1195.108, 45.35807
1195.590, 45.06960
1196.072, 46.68373
1196.554, 48.95832
1197.036, 50.58791
1197.518, 51.52389
1198.000, 51.42587
1198.482, 50.41090
1198.964, 49.52161
1199.447, 48.77951
1199.929, 47.68618
1200.411, 46.25191
1200.893, 45.78678
1201.375, 47.07375
1201.857, 48.90813
1202.339, 50.44654
1202.821, 51.14977
1203.304, 49.24837
1203.786, 46.39864
1204.268, 45.72097
1204.750, 46.70316
1205.232, 47.41001
1205.714, 47.34755
1206.196, 46.87142
1206.678, 45.76500
1207.161, 45.55058
1207.643, 48.28876
1208.125, 50.97422
1208.607, 51.35404
1209.089, 50.73962
1209.571, 50.50247
1210.053, 50.51303
1210.535, 50.02370
1211.017, 48.88448
1211.500, 48.20022
1211.982, 48.47646
1212.464, 48.67806
1212.946, 49.03725
1213.428, 48.77745
1213.910, 47.03739
1214.392, 45.23866
1214.874, 44.78136
1215.356, 45.29539
1215.839, 45.64008
1216.321, 45.75646
1216.803, 46.39183
1217.285, 47.71809
1217.767, 48.34116
1218.249, 47.96404
1218.731, 47.50187
1219.213, 47.39939
1219.696, 47.26407
1220.178, 46.58034
1220.660, 45.76464
1221.142, 45.98484
1221.624, 46.84777
1222.106, 46.95310
1222.588, 46.48058
1223.070, 46.22950
1223.552, 46.37151
1224.035, 46.91029
1224.517, 47.85095
1224.999, 48.51434
1225.481, 48.29705
1225.963, 47.57890
1226.445, 46.04348
1226.927, 44.77882
1227.409, 45.39988
1227.891, 46.89161
1228.374, 47.52683
1228.856, 47.18180
1229.338, 46.72936
1229.820, 46.32673
1230.302, 46.03466
1230.784, 45.63830
1231.266, 45.67239
1231.748, 46.60148
1232.231, 47.70571
1232.713, 49.09155
1233.195, 49.89378
1233.677, 48.36402
1234.159, 44.97673
1234.641, 44.22747
1235.123, 46.95443
1235.605, 48.22584
1236.088, 47.62436
1236.570, 47.21622
1237.052, 47.54805
1237.534, 48.01245
1238.016, 48.22571
1238.498, 48.35325
1238.980, 48.74238
1239.462, 49.10801
1239.944, 48.56397
1240.427, 47.37979
1240.909, 46.14964
1241.391, 45.06318
1241.873, 44.49303
1242.355, 44.48046
1242.837, 44.71595
1243.319, 45.04840
1243.801, 45.51193
1244.283, 46.33384
1244.766, 47.06597
1245.248, 47.29622
1245.730, 47.33387
1246.212, 47.37651
1246.694, 47.51377
1247.176, 48.01333
1247.658, 48.80261
1248.140, 48.99528
1248.622, 48.12124
1249.105, 47.36355
1249.587, 46.56012
1250.069, 46.27013
1250.551, 46.79330
1251.033, 47.63326
1251.515, 48.82602
1251.997, 49.51714
1252.479, 48.14862
1252.962, 45.29587
1253.444, 44.40876
1253.926, 45.43915
1254.408, 45.93052
1254.890, 45.79128
1255.372, 45.93193
1255.854, 46.52600
1256.336, 46.84962
1256.818, 46.48359
1257.301, 45.77621
1257.783, 44.77080
1258.265, 44.03744
1258.747, 44.79393
1259.229, 44.40372
1259.711, 45.95326
1260.193, 45.30651
1260.675, 45.55730
1261.157, 46.67370
1261.640, 47.30914
1262.122, 46.95715
1262.604, 46.59716
1263.086, 46.70209
1263.568, 46.61008
1264.050, 45.80828
1264.532, 45.09591
1265.014, 45.06287
1265.497, 45.24949
1265.979, 45.11720
1266.461, 44.76220
1266.943, 44.57453
1267.425, 44.54890
1267.907, 44.74929
1268.389, 45.18814
1268.871, 45.85940
1269.354, 46.77496
1269.836, 47.04614
1270.318, 46.26041
1270.800, 45.24442
1271.282, 44.79057
1271.764, 44.61354
1272.246, 44.05970
1272.728, 44.49972
1273.210, 44.24701
1273.693, 45.50781
1274.175, 46.59346
1274.657, 47.29089
1275.139, 47.40557
1275.621, 46.90942
1276.103, 46.31234
1276.585, 45.63402
1277.067, 45.20547
1277.549, 45.24616
1278.032, 45.41802
1278.514, 45.74575
1278.996, 45.95149
1279.478, 45.78675
1279.960, 45.34965
1280.442, 44.71587
1280.924, 43.91417
1281.406, 44.07399
1281.889, 43.76228
1282.371, 43.72272
1282.853, 44.43740
1283.335, 44.26831
1283.817, 45.81816
1284.299, 47.03518
1284.781, 46.59138
1285.263, 45.41983
1285.745, 44.46820
1286.228, 43.73520
##END=



