##NAMES=Ferro-gedrite
##RRUFFID=R070531
##IDEAL CHEMISTRY=[box]Fe^2+^_2_(Fe^2+^_3_Al_2_)(Si_6_Al_2_)O_22_(OH)_2_
##LOCALITY=Ludvika, Dalarna District, Kopparberg, Sweden
##OWNER=RRUFF
##SOURCE=James Shigley
##DESCRIPTION=Flattened black prismatic crystals in semi-sheaflike aggregates, associated with quartz
##STATUS=The identification of this mineral is confirmed by single-crystal X-ray diffraction and chemical analysis.
##URL=rruff.info/R070531
##MEASURED CHEMISTRY=(Na_0.56_[box]_0.44_)_Σ=1_(Fe^2+^_1.94_Mn_0.05_Ca_0.01_)_Σ=2_(Fe^2+^_1.92_Mg_1.53_Al_1.52_Fe^3+^_0.02_Ti_0.01_)_Σ=5_(Si_5.88_Al_2.12_)_Σ=8_O_22_(OH)_2_; = light phase, and the dark phase is quartz
146.7805, 839.6486
147.2626, 847.9964
147.7448, 867.8918
148.2269, 885.5035
148.7090, 899.3992
149.1911, 909.8885
149.6732, 919.8503
150.1554, 932.8087
150.6375, 943.0557
151.1196, 946.3372
151.6017, 930.6345
152.0838, 920.5500
152.5659, 920.9703
153.0481, 933.3062
153.5302, 943.7558
154.0123, 949.9329
154.4944, 954.5189
154.9765, 960.2365
155.4586, 970.8600
155.9408, 979.5055
156.4229, 982.6334
156.9050, 972.9417
157.3871, 964.2760
157.8692, 970.7687
158.3513, 983.0100
158.8335, 985.5962
159.3156, 960.6520
159.7977, 936.6427
160.2798, 927.3759
160.7619, 941.7811
161.2440, 956.2371
161.7262, 966.0175
162.2083, 970.8992
162.6904, 970.0637
163.1725, 955.9545
163.6546, 940.3881
164.1367, 931.5462
164.6189, 935.9570
165.1010, 941.3765
165.5831, 942.1376
166.0652, 938.8969
166.5473, 934.9608
167.0294, 928.7830
167.5116, 923.9787
167.9937, 924.1370
168.4758, 935.8551
168.9579, 948.7179
169.4400, 957.0803
169.9221, 960.9529
170.4043, 960.4537
170.8864, 952.2276
171.3685, 940.2630
171.8506, 930.3225
172.3327, 925.3483
172.8148, 923.1968
173.2970, 921.1218
173.7791, 918.6826
174.2612, 919.8879
174.7433, 932.2814
175.2254, 951.0267
175.7076, 965.7394
176.1897, 968.1783
176.6718, 964.8611
177.1539, 966.1896
177.6360, 975.2755
178.1181, 980.8164
178.6003, 963.9931
179.0824, 930.7534
179.5645, 905.4380
180.0466, 908.5735
180.5287, 928.0480
181.0108, 940.1996
181.4930, 940.6072
181.9751, 935.2108
182.4572, 930.0401
182.9393, 925.3315
183.4214, 923.5394
183.9035, 929.9219
184.3857, 940.9358
184.8678, 945.9284
185.3499, 940.6976
185.8320, 930.5181
186.3141, 925.1624
186.7962, 924.5623
187.2784, 925.5113
187.7605, 924.5754
188.2426, 922.4935
188.7247, 923.3021
189.2068, 929.4803
189.6889, 938.5981
190.1711, 944.6687
190.6532, 947.6155
191.1353, 947.8160
191.6174, 942.8152
192.0995, 933.4380
192.5816, 929.4434
193.0638, 937.6413
193.5459, 954.2667
194.0280, 959.7106
194.5101, 951.9539
194.9922, 941.0473
195.4743, 940.5685
195.9565, 950.6392
196.4386, 960.0188
196.9207, 964.9844
197.4028, 965.6622
197.8849, 962.0499
198.3671, 952.4719
198.8492, 942.2499
199.3313, 939.2426
199.8134, 943.7837
200.2955, 952.8627
200.7776, 968.1409
201.2598, 990.1085
201.7419, 1003.845
202.2240, 1007.693
202.7061, 1005.393
203.1882, 1003.898
203.6703, 1003.288
204.1525, 1003.000
204.6346, 1002.565
205.1167, 1001.831
205.5988, 1001.984
206.0809, 1002.869
206.5630, 1004.808
207.0452, 1009.375
207.5273, 1017.769
208.0094, 1025.254
208.4915, 1028.294
208.9736, 1025.554
209.4557, 1025.606
209.9379, 1029.782
210.4200, 1037.011
210.9021, 1044.224
211.3842, 1052.616
211.8663, 1058.385
212.3484, 1057.514
212.8306, 1047.309
213.3127, 1041.542
213.7948, 1043.845
214.2769, 1052.099
214.7590, 1053.085
215.2411, 1042.996
215.7233, 1032.447
216.2054, 1031.109
216.6875, 1043.485
217.1696, 1051.015
217.6517, 1050.503
218.1338, 1042.419
218.6160, 1031.504
219.0981, 1014.349
219.5802, 999.0409
220.0623, 995.0356
220.5444, 1010.044
221.0265, 1016.408
221.5087, 1006.181
221.9908, 979.5477
222.4729, 960.7426
222.9550, 951.2328
223.4371, 947.5932
223.9192, 947.1615
224.4014, 952.1965
224.8835, 955.4783
225.3656, 955.4769
225.8477, 952.0908
226.3298, 946.8444
226.8119, 938.1621
227.2941, 929.1123
227.7762, 923.4625
228.2583, 923.7840
228.7404, 922.4045
229.2225, 916.3722
229.7046, 904.5999
230.1868, 897.7639
230.6689, 897.8416
231.1510, 901.2185
231.6331, 903.8090
232.1152, 906.8250
232.5974, 906.8369
233.0795, 902.7950
233.5616, 894.3680
234.0437, 883.5093
234.5258, 866.7322
235.0079, 849.9450
235.4901, 842.1678
235.9722, 847.7693
236.4543, 854.9355
236.9364, 860.4765
237.4185, 864.1582
237.9006, 867.3947
238.3828, 870.5917
238.8649, 873.0869
239.3470, 873.5206
239.8291, 870.0071
240.3112, 867.4462
240.7933, 868.3010
241.2755, 874.9291
241.7576, 875.7901
242.2397, 867.1159
242.7218, 854.6739
243.2039, 848.8436
243.6860, 851.6720
244.1682, 857.8487
244.6503, 866.7570
245.1324, 881.1927
245.6145, 888.8250
246.0966, 886.6517
246.5787, 879.2177
247.0609, 875.3731
247.5430, 877.0658
248.0251, 879.1793
248.5072, 879.7249
248.9893, 877.9440
249.4714, 876.6482
249.9536, 874.5258
250.4357, 873.4745
250.9178, 878.8674
251.3999, 897.2486
251.8820, 910.8970
252.3641, 911.6516
252.8463, 894.2092
253.3284, 879.0370
253.8105, 864.6946
254.2926, 853.4032
254.7747, 851.7198
255.2568, 866.4751
255.7390, 878.8379
256.2211, 879.3207
256.7032, 860.6045
257.1853, 852.7717
257.6674, 859.9867
258.1495, 875.9924
258.6317, 887.4501
259.1138, 894.5389
259.5959, 896.5396
260.0780, 891.5248
260.5601, 875.1918
261.0422, 865.5680
261.5244, 865.1263
262.0065, 869.9359
262.4886, 870.5829
262.9707, 864.6012
263.4528, 859.7911
263.9349, 860.0040
264.4171, 867.0329
264.8992, 873.1169
265.3813, 878.5582
265.8634, 882.9001
266.3455, 884.2957
266.8276, 880.6884
267.3098, 879.3121
267.7919, 885.4343
268.2740, 902.6219
268.7561, 910.5336
269.2382, 905.9124
269.7203, 894.3979
270.2025, 887.5909
270.6846, 886.8575
271.1667, 886.8207
271.6488, 884.6213
272.1309, 879.5432
272.6130, 876.5455
273.0952, 875.6798
273.5773, 876.9442
274.0594, 881.4259
274.5415, 890.3290
275.0236, 897.4447
275.5057, 899.3036
275.9879, 895.3946
276.4700, 891.5380
276.9521, 887.8031
277.4342, 884.1962
277.9163, 880.8547
278.3984, 877.8823
278.8806, 874.6055
279.3627, 870.2554
279.8448, 864.7865
280.3269, 860.4095
280.8090, 856.6030
281.2911, 854.9158
281.7733, 860.0478
282.2554, 872.8903
282.7375, 882.5629
283.2196, 881.6207
283.7017, 870.7653
284.1838, 865.3948
284.6660, 866.4608
285.1481, 871.2458
285.6302, 876.1434
286.1123, 881.1514
286.5944, 886.5974
287.0765, 894.1318
287.5587, 902.9666
288.0408, 907.0025
288.5229, 905.7753
289.0050, 901.1611
289.4871, 894.3807
289.9692, 885.6846
290.4514, 878.3203
290.9335, 874.1560
291.4156, 872.5575
291.8977, 870.5650
292.3798, 867.8172
292.8619, 866.3910
293.3441, 869.8707
293.8262, 877.4829
294.3083, 884.6349
294.7904, 891.5100
295.2726, 896.4442
295.7547, 892.6922
296.2368, 879.3117
296.7189, 866.1642
297.2010, 866.0964
297.6831, 875.6603
298.1653, 883.3858
298.6474, 884.1089
299.1295, 880.3297
299.6116, 874.8806
300.0937, 867.6709
300.5758, 862.9264
301.0580, 867.6799
301.5401, 878.0336
302.0222, 885.0637
302.5043, 882.1295
302.9864, 875.9262
303.4685, 877.0162
303.9507, 885.0220
304.4328, 890.6238
304.9149, 881.3826
305.3970, 865.5635
305.8791, 856.9001
306.3612, 866.1641
306.8434, 879.6474
307.3255, 883.5323
307.8076, 878.6912
308.2897, 872.7194
308.7718, 869.1904
309.2539, 868.0447
309.7361, 869.4722
310.2182, 876.3981
310.7003, 882.7548
311.1824, 881.9760
311.6645, 875.6822
312.1466, 872.1387
312.6288, 881.0480
313.1109, 892.4801
313.5930, 896.5515
314.0751, 885.0744
314.5572, 873.8681
315.0393, 873.8217
315.5215, 881.6595
316.0036, 885.9138
316.4857, 877.8798
316.9678, 866.7020
317.4499, 858.4830
317.9320, 853.8932
318.4142, 853.3518
318.8963, 861.1045
319.3784, 873.2856
319.8605, 880.6776
320.3426, 873.6735
320.8247, 865.7689
321.3069, 864.5421
321.7890, 873.9549
322.2711, 883.5231
322.7532, 893.2841
323.2353, 901.4575
323.7174, 904.7202
324.1996, 893.6473
324.6817, 884.9805
325.1638, 886.5085
325.6459, 904.1362
326.1280, 916.6634
326.6101, 922.5203
327.0923, 922.1437
327.5744, 916.1404
328.0565, 892.8514
328.5386, 875.4467
329.0207, 870.2750
329.5028, 879.8817
329.9850, 890.9113
330.4671, 908.3340
330.9492, 924.5944
331.4313, 931.2549
331.9134, 921.1962
332.3955, 911.5510
332.8777, 905.1174
333.3598, 901.9913
333.8419, 902.1702
334.3240, 908.8620
334.8061, 915.5151
335.2882, 914.9139
335.7704, 900.5580
336.2525, 894.4713
336.7346, 904.6021
337.2167, 927.7385
337.6988, 935.1522
338.1809, 920.4344
338.6631, 902.8068
339.1452, 898.9454
339.6273, 912.8383
340.1094, 920.1069
340.5915, 916.1363
341.0736, 904.0852
341.5558, 894.3076
342.0379, 886.5577
342.5200, 881.5755
343.0021, 880.6182
343.4842, 883.6924
343.9663, 886.6084
344.4485, 889.1270
344.9306, 891.0826
345.4127, 891.7134
345.8948, 891.0450
346.3769, 890.5692
346.8590, 893.2339
347.3412, 897.4180
347.8233, 893.6179
348.3054, 879.5134
348.7875, 864.2311
349.2696, 860.5884
349.7517, 867.0408
350.2339, 875.9798
350.7160, 886.9573
351.1981, 897.2046
351.6802, 900.8770
352.1623, 897.4521
352.6444, 890.7304
353.1266, 880.7211
353.6087, 870.1008
354.0908, 865.0540
354.5729, 871.4335
355.0550, 882.5703
355.5371, 893.3573
356.0193, 903.6575
356.5014, 909.7129
356.9835, 905.5761
357.4656, 896.7241
357.9477, 889.9270
358.4298, 888.3857
358.9120, 888.3245
359.3941, 887.6312
359.8762, 886.4697
360.3583, 885.4434
360.8404, 884.7455
361.3225, 884.3870
361.8047, 884.2406
362.2868, 883.5842
362.7689, 884.3011
363.2510, 889.0746
363.7331, 895.8232
364.2152, 899.5330
364.6974, 895.8328
365.1795, 890.9459
365.6616, 887.3029
366.1437, 884.6602
366.6258, 884.5781
367.1079, 888.8270
367.5901, 895.4435
368.0722, 901.4810
368.5543, 908.7571
369.0364, 913.4280
369.5185, 913.3143
370.0006, 906.8879
370.4828, 904.3392
370.9649, 907.9440
371.4470, 913.9977
371.9291, 919.3591
372.4112, 925.9995
372.8933, 928.2535
373.3755, 921.4649
373.8576, 907.0219
374.3397, 907.2220
374.8218, 930.1452
375.3039, 954.8011
375.7861, 963.5757
376.2682, 950.1280
376.7503, 946.3293
377.2324, 960.1234
377.7145, 983.2016
378.1967, 989.2769
378.6788, 975.0795
379.1609, 959.3447
379.6430, 953.3219
380.1251, 956.8710
380.6072, 960.5331
381.0894, 964.4457
381.5715, 966.8414
382.0536, 962.8689
382.5357, 953.1024
383.0178, 946.2563
383.4999, 948.5532
383.9821, 956.8514
384.4642, 961.0380
384.9463, 960.6502
385.4284, 960.1246
385.9105, 965.8447
386.3926, 975.1262
386.8748, 980.6962
387.3569, 976.4246
387.8390, 969.7681
388.3211, 970.4446
388.8032, 977.8752
389.2853, 986.4380
389.7675, 996.2502
390.2496, 1003.643
390.7317, 1003.054
391.2138, 987.9432
391.6959, 973.1847
392.1780, 970.0773
392.6602, 975.2308
393.1423, 978.5886
393.6244, 971.7856
394.1065, 964.5638
394.5886, 963.7924
395.0707, 973.0375
395.5529, 980.7647
396.0350, 981.5039
396.5171, 978.9195
396.9992, 978.3832
397.4813, 985.7606
397.9634, 990.8085
398.4456, 988.5854
398.9277, 977.1885
399.4098, 971.1998
399.8919, 978.0145
400.3740, 986.9764
400.8561, 989.3239
401.3383, 976.9799
401.8204, 969.8615
402.3025, 972.7849
402.7846, 983.7375
403.2667, 988.6855
403.7488, 983.1857
404.2310, 978.4751
404.7131, 982.7936
405.1952, 1000.562
405.6773, 1009.662
406.1594, 1006.309
406.6415, 996.5150
407.1237, 993.6984
407.6058, 999.4066
408.0879, 1002.882
408.5700, 995.8394
409.0521, 979.7957
409.5342, 978.6285
410.0164, 995.2109
410.4985, 1013.449
410.9806, 1011.614
411.4627, 992.9191
411.9448, 978.3885
412.4269, 976.8920
412.9091, 982.1573
413.3912, 980.7456
413.8733, 973.3743
414.3554, 968.6232
414.8375, 978.3046
415.3196, 993.7507
415.8018, 1000.349
416.2839, 992.3903
416.7660, 980.3655
417.2481, 972.1100
417.7302, 966.9832
418.2123, 963.6320
418.6945, 963.5122
419.1766, 963.5295
419.6587, 960.8588
420.1408, 954.5279
420.6229, 949.4843
421.1050, 949.6579
421.5872, 951.6715
422.0693, 951.5986
422.5514, 946.1221
423.0335, 940.7191
423.5156, 937.2396
423.9977, 935.6735
424.4799, 933.1930
424.9620, 926.5789
425.4441, 920.9966
425.9262, 919.4817
426.4083, 926.2447
426.8904, 930.9645
427.3726, 934.1063
427.8547, 934.9257
428.3368, 930.7492
428.8189, 917.5103
429.3010, 906.4011
429.7831, 902.2759
430.2653, 906.1329
430.7474, 910.0946
431.2295, 915.6383
431.7116, 918.6713
432.1937, 912.0125
432.6758, 894.7404
433.1580, 879.9706
433.6401, 870.6944
434.1222, 866.7684
434.6043, 870.5495
435.0864, 882.4009
435.5685, 891.8837
436.0507, 886.9350
436.5328, 872.5800
437.0149, 864.6911
437.4970, 866.8135
437.9791, 873.2802
438.4612, 880.1385
438.9434, 886.1918
439.4255, 887.6836
439.9076, 876.2356
440.3897, 862.7629
440.8718, 860.5535
441.3539, 871.0579
441.8361, 880.4966
442.3182, 880.8704
442.8003, 875.6241
443.2824, 868.6792
443.7645, 855.9392
444.2466, 847.0126
444.7288, 847.6904
445.2109, 856.2407
445.6930, 863.4152
446.1751, 866.4874
446.6572, 868.1535
447.1393, 869.6930
447.6215, 871.0070
448.1036, 872.4973
448.5857, 874.3488
449.0678, 876.3040
449.5499, 878.2941
450.0320, 882.3245
450.5142, 882.9405
450.9963, 877.4352
451.4784, 865.5790
451.9605, 857.8748
452.4426, 855.7263
452.9247, 854.8361
453.4069, 849.4213
453.8890, 838.3427
454.3711, 836.4634
454.8532, 849.0951
455.3353, 868.5773
455.8174, 876.7798
456.2996, 873.8677
456.7817, 867.7025
457.2638, 860.9333
457.7459, 854.4681
458.2281, 850.2307
458.7102, 848.2286
459.1923, 849.4698
459.6744, 859.5787
460.1565, 873.5536
460.6386, 880.6454
461.1208, 870.6081
461.6029, 857.6474
462.0850, 855.9307
462.5671, 863.0092
463.0492, 865.5099
463.5313, 849.8889
464.0135, 831.1455
464.4956, 821.1883
464.9777, 825.0126
465.4598, 830.5461
465.9419, 836.4846
466.4240, 841.6082
466.9062, 843.8108
467.3883, 840.8828
467.8704, 836.8160
468.3525, 830.2775
468.8346, 820.5262
469.3167, 820.3483
469.7989, 838.5602
470.2810, 857.1002
470.7631, 860.9319
471.2452, 841.9934
471.7273, 831.7635
472.2094, 836.9953
472.6916, 849.7733
473.1737, 849.0811
473.6558, 832.7794
474.1379, 817.1635
474.6200, 809.3439
475.1021, 808.9178
475.5843, 813.9007
476.0664, 825.3414
476.5485, 835.7264
477.0306, 833.8730
477.5127, 823.8470
477.9948, 818.6647
478.4770, 824.9952
478.9591, 834.3378
479.4412, 835.3074
479.9233, 829.7302
480.4054, 825.5814
480.8875, 827.2197
481.3697, 832.5060
481.8518, 840.7614
482.3339, 852.9770
482.8160, 862.9358
483.2981, 870.0689
483.7802, 872.6107
484.2624, 868.2630
484.7445, 845.3564
485.2266, 827.2373
485.7087, 821.9695
486.1908, 828.6339
486.6729, 833.2424
487.1551, 833.2701
487.6372, 833.1132
488.1193, 835.2203
488.6014, 841.5911
489.0835, 845.1960
489.5656, 845.4482
490.0478, 843.5119
490.5299, 840.5618
491.0120, 835.9807
491.4941, 833.3447
491.9762, 833.9561
492.4583, 837.3841
492.9405, 841.4767
493.4226, 846.2355
493.9047, 852.1302
494.3868, 862.5750
494.8689, 874.7250
495.3510, 878.6501
495.8332, 870.7167
496.3153, 860.5679
496.7974, 858.7602
497.2795, 863.1811
497.7616, 868.7582
498.2437, 874.4610
498.7259, 879.3981
499.2080, 882.1831
499.6901, 882.9230
500.1722, 884.8442
500.6543, 894.1902
501.1364, 902.4935
501.6186, 903.0764
502.1007, 888.1692
502.5828, 875.1399
503.0649, 865.1617
503.5470, 859.0764
504.0291, 858.7210
504.5113, 869.6163
504.9934, 879.2114
505.4755, 884.3356
505.9576, 884.8853
506.4397, 883.5400
506.9218, 878.8373
507.4040, 874.8271
507.8861, 875.5872
508.3682, 881.6913
508.8503, 886.2340
509.3324, 887.9569
509.8145, 888.4388
510.2967, 889.9034
510.7788, 892.4423
511.2609, 897.2579
511.7430, 908.6442
512.2252, 921.6603
512.7073, 925.3160
513.1894, 919.6503
513.6715, 913.0931
514.1536, 911.7231
514.6357, 913.5248
515.1179, 916.0857
515.6000, 919.2399
516.0821, 922.2734
516.5642, 924.6432
517.0463, 926.6620
517.5284, 928.9629
518.0106, 933.4258
518.4927, 936.6750
518.9748, 936.6273
519.4569, 932.6957
519.9390, 930.7490
520.4211, 933.0724
520.9033, 935.6543
521.3854, 935.4603
521.8675, 929.8743
522.3496, 927.5450
522.8317, 929.1879
523.3138, 934.1644
523.7960, 942.6334
524.2781, 955.8403
524.7602, 964.9904
525.2423, 965.8130
525.7244, 959.8739
526.2065, 952.5712
526.6887, 943.7744
527.1708, 937.8608
527.6529, 940.4522
528.1350, 948.5573
528.6171, 956.2815
529.0992, 962.9896
529.5814, 967.7491
530.0635, 968.4199
530.5456, 966.6306
531.0277, 965.6470
531.5098, 967.7809
531.9919, 970.2679
532.4741, 971.6752
532.9562, 971.9600
533.4383, 972.0767
533.9204, 969.8967
534.4025, 969.2665
534.8846, 973.0787
535.3668, 988.8990
535.8489, 996.0663
536.3310, 990.0896
536.8131, 978.2878
537.2952, 971.4071
537.7773, 970.3456
538.2595, 972.4056
538.7416, 979.1591
539.2237, 988.5127
539.7058, 988.0261
540.1879, 976.7572
540.6700, 964.3421
541.1522, 956.9414
541.6343, 953.8570
542.1164, 953.0223
542.5985, 954.3326
543.0806, 957.2971
543.5627, 963.6606
544.0449, 971.0726
544.5270, 974.8910
545.0091, 971.3018
545.4912, 965.5939
545.9733, 958.4857
546.4554, 951.5495
546.9376, 950.7480
547.4197, 969.3536
547.9018, 985.9102
548.3839, 986.9611
548.8660, 964.9732
549.3481, 950.8744
549.8303, 952.6419
550.3124, 959.6039
550.7945, 962.2431
551.2766, 957.2158
551.7587, 955.7553
552.2408, 961.0728
552.7230, 969.6282
553.2051, 971.1198
553.6872, 964.5712
554.1693, 957.5946
554.6514, 953.7089
555.1335, 952.2953
555.6157, 950.9533
556.0978, 949.7015
556.5799, 947.7440
557.0620, 942.9524
557.5441, 937.2171
558.0262, 934.6171
558.5084, 937.5447
558.9905, 939.9379
559.4726, 935.5854
559.9547, 927.7096
560.4368, 922.0602
560.9189, 922.9776
561.4011, 924.5659
561.8832, 923.6783
562.3653, 920.5081
562.8474, 920.1794
563.3295, 927.2890
563.8116, 934.1616
564.2938, 937.3633
564.7759, 936.1654
565.2580, 932.6282
565.7401, 924.1442
566.2222, 916.4852
566.7043, 919.4590
567.1865, 934.8173
567.6686, 943.9348
568.1507, 941.2575
568.6328, 931.2367
569.1149, 922.1186
569.5970, 914.1121
570.0792, 909.7225
570.5613, 913.7221
571.0434, 920.8098
571.5255, 922.2884
572.0076, 917.5735
572.4897, 914.1302
572.9719, 919.5402
573.4540, 927.6138
573.9361, 932.1740
574.4182, 931.8785
574.9003, 927.6946
575.3824, 916.1462
575.8646, 901.3253
576.3467, 891.4803
576.8288, 889.5187
577.3109, 889.8121
577.7930, 892.0753
578.2751, 896.0634
578.7573, 898.5521
579.2394, 899.5978
579.7215, 899.0750
580.2036, 896.4885
580.6857, 891.8796
581.1678, 886.6637
581.6500, 880.2991
582.1321, 876.0617
582.6142, 882.1586
583.0963, 894.1534
583.5784, 897.8662
584.0605, 884.7556
584.5427, 868.0806
585.0248, 860.3132
585.5069, 859.8501
585.9890, 862.1578
586.4711, 869.4340
586.9532, 875.2127
587.4354, 874.1500
587.9175, 865.4663
588.3996, 860.7505
588.8817, 868.1572
589.3638, 875.7939
589.8459, 876.1181
590.3281, 863.7614
590.8102, 854.5341
591.2923, 848.6897
591.7744, 845.8604
592.2565, 846.6265
592.7386, 851.6460
593.2208, 854.4927
593.7029, 852.2626
594.1850, 847.7006
594.6671, 848.6833
595.1492, 854.6189
595.6313, 859.9732
596.1135, 860.0692
596.5956, 858.1320
597.0777, 858.6164
597.5598, 861.8679
598.0419, 865.8113
598.5240, 871.8328
599.0062, 876.5938
599.4883, 876.7418
599.9704, 868.0229
600.4525, 860.3415
600.9346, 853.9166
601.4167, 850.3492
601.8989, 852.8378
602.3810, 867.4382
602.8631, 877.9796
603.3452, 880.1847
603.8273, 875.5110
604.3094, 871.5572
604.7916, 867.8054
605.2737, 866.9562
605.7558, 873.3789
606.2379, 884.7954
606.7200, 888.4376
607.2021, 883.4655
607.6843, 877.2310
608.1664, 875.5031
608.6485, 877.5065
609.1306, 882.3796
609.6127, 891.1848
610.0948, 899.7957
610.5770, 907.6985
611.0591, 913.2007
611.5412, 913.2277
612.0233, 898.2179
612.5054, 886.5970
612.9875, 886.1404
613.4697, 895.5947
613.9518, 901.1500
614.4339, 900.6478
614.9160, 899.4641
615.3981, 899.2059
615.8802, 899.5841
616.3624, 905.4102
616.8445, 918.0972
617.3266, 931.3846
617.8087, 939.0107
618.2908, 941.7518
618.7729, 943.5632
619.2551, 945.3631
619.7372, 945.6898
620.2193, 940.8089
620.7014, 933.2832
621.1835, 928.5649
621.6656, 930.3097
622.1478, 934.3409
622.6299, 937.8175
623.1120, 941.4688
623.5941, 948.4514
624.0762, 969.4032
624.5583, 984.7858
625.0405, 983.0797
625.5226, 960.3834
626.0047, 951.2509
626.4868, 960.3194
626.9689, 975.7697
627.4510, 989.6419
627.9332, 1002.051
628.4153, 1010.210
628.8974, 1012.683
629.3795, 1014.214
629.8616, 1023.612
630.3438, 1038.185
630.8259, 1047.856
631.3080, 1046.274
631.7901, 1041.956
632.2722, 1044.822
632.7543, 1052.330
633.2365, 1056.856
633.7186, 1052.774
634.2007, 1046.956
634.6828, 1041.888
635.1649, 1037.670
635.6470, 1036.645
636.1292, 1042.356
636.6113, 1048.203
637.0934, 1050.513
637.5755, 1048.071
638.0576, 1046.425
638.5397, 1045.698
639.0219, 1045.528
639.5040, 1044.800
639.9861, 1043.728
640.4682, 1046.327
640.9503, 1055.498
641.4324, 1064.290
641.9146, 1059.754
642.3967, 1046.564
642.8788, 1037.444
643.3609, 1042.246
643.8430, 1050.137
644.3251, 1053.076
644.8073, 1052.039
645.2894, 1053.641
645.7715, 1064.290
646.2536, 1074.206
646.7357, 1078.463
647.2178, 1076.031
647.7000, 1074.047
648.1821, 1072.943
648.6642, 1071.740
649.1463, 1069.245
649.6284, 1065.219
650.1105, 1063.040
650.5927, 1063.238
651.0748, 1064.601
651.5569, 1066.085
652.0390, 1067.416
652.5211, 1067.301
653.0032, 1063.144
653.4854, 1060.500
653.9675, 1067.380
654.4496, 1080.015
654.9317, 1088.690
655.4138, 1087.952
655.8959, 1083.788
656.3781, 1076.785
656.8602, 1067.234
657.3423, 1062.266
657.8244, 1064.618
658.3065, 1068.402
658.7886, 1071.172
659.2708, 1072.963
659.7529, 1072.999
660.2350, 1070.666
660.7171, 1068.538
661.1992, 1072.080
661.6813, 1078.802
662.1635, 1074.944
662.6456, 1055.575
663.1277, 1035.552
663.6099, 1031.260
664.0920, 1037.336
664.5741, 1044.363
665.0562, 1054.722
665.5383, 1059.099
666.0204, 1048.062
666.5026, 1027.607
666.9847, 1014.556
667.4668, 1017.580
667.9489, 1021.896
668.4310, 1024.619
668.9131, 1025.815
669.3953, 1026.909
669.8774, 1028.985
670.3595, 1027.331
670.8416, 1015.240
671.3237, 995.5919
671.8058, 988.0782
672.2880, 993.8336
672.7701, 999.4756
673.2522, 988.5228
673.7343, 971.4319
674.2164, 964.8228
674.6985, 975.4514
675.1807, 985.1270
675.6628, 983.5126
676.1449, 975.5574
676.6270, 967.0186
677.1091, 955.3309
677.5912, 948.0302
678.0734, 947.8605
678.5555, 951.7571
679.0376, 952.7589
679.5197, 949.8910
680.0018, 947.4940
680.4839, 946.4972
680.9661, 947.0630
681.4482, 952.3961
681.9303, 961.7369
682.4124, 965.4702
682.8945, 949.4583
683.3766, 928.6180
683.8588, 923.8690
684.3409, 935.3766
684.8230, 947.8270
685.3051, 955.0327
685.7872, 958.9825
686.2693, 961.2064
686.7515, 962.4535
687.2336, 960.2062
687.7157, 952.0049
688.1978, 942.4984
688.6799, 934.9625
689.1620, 928.5118
689.6442, 928.7747
690.1263, 938.3843
690.6084, 950.2921
691.0905, 952.6199
691.5726, 946.9728
692.0547, 941.4481
692.5369, 938.0280
693.0190, 936.4879
693.5011, 937.5004
693.9832, 940.2125
694.4653, 942.5131
694.9474, 946.3266
695.4296, 946.8314
695.9117, 938.1008
696.3938, 921.7949
696.8759, 915.5938
697.3580, 928.4836
697.8401, 939.8024
698.3223, 940.3762
698.8044, 929.9821
699.2865, 924.2909
699.7686, 923.5021
700.2507, 926.0005
700.7328, 933.2164
701.2150, 942.6285
701.6971, 945.5918
702.1792, 940.6753
702.6613, 936.0903
703.1434, 940.0566
703.6255, 947.3431
704.1077, 952.1862
704.5898, 953.2505
705.0719, 951.6248
705.5540, 946.1769
706.0361, 938.7125
706.5182, 931.2167
707.0004, 921.1315
707.4825, 917.2142
707.9646, 923.2997
708.4467, 933.6684
708.9288, 934.3093
709.4109, 925.3340
709.8931, 919.7744
710.3752, 925.1028
710.8573, 934.0731
711.3394, 933.5798
711.8215, 926.0178
712.3036, 920.7585
712.7858, 926.6710
713.2679, 933.1545
713.7500, 932.0588
714.2321, 923.6239
714.7142, 918.1864
715.1964, 920.4535
715.6785, 923.4713
716.1606, 924.5117
716.6427, 923.3033
717.1248, 922.7871
717.6069, 923.3962
718.0891, 923.3046
718.5712, 920.7326
719.0533, 916.0929
719.5354, 911.2427
720.0175, 906.3047
720.4996, 901.3773
720.9818, 893.8744
721.4639, 887.4454
721.9460, 887.7424
722.4281, 900.5592
722.9102, 910.5127
723.3923, 907.9963
723.8745, 901.4515
724.3566, 902.8244
724.8387, 921.4032
725.3208, 930.9077
725.8029, 925.3528
726.2850, 912.0616
726.7672, 905.5754
727.2493, 905.8831
727.7314, 908.6220
728.2135, 913.5089
728.6956, 918.5856
729.1777, 921.4121
729.6599, 921.8152
730.1420, 919.4639
730.6241, 910.5459
731.1062, 902.0483
731.5883, 898.3170
732.0704, 899.0814
732.5526, 901.0901
733.0347, 906.3960
733.5168, 910.0477
733.9989, 909.1505
734.4810, 903.8163
734.9631, 905.8237
735.4453, 917.3480
735.9274, 927.1633
736.4095, 927.0380
736.8916, 918.8437
737.3737, 906.6660
737.8558, 890.5200
738.3380, 879.0101
738.8201, 879.5915
739.3022, 887.8889
739.7843, 901.5767
740.2664, 923.6343
740.7485, 938.3237
741.2307, 938.8408
741.7128, 931.0435
742.1949, 918.7709
742.6770, 896.8360
743.1591, 884.3545
743.6412, 884.2417
744.1234, 889.8688
744.6055, 893.6487
745.0876, 895.5361
745.5697, 893.9112
746.0518, 886.5431
746.5339, 880.6328
747.0161, 886.7337
747.4982, 899.7622
747.9803, 910.6539
748.4624, 917.3379
748.9445, 919.7809
749.4266, 914.6876
749.9088, 905.6212
750.3909, 901.6299
750.8730, 906.2237
751.3551, 909.6940
751.8372, 909.3250
752.3193, 906.7203
752.8015, 907.4736
753.2836, 911.5752
753.7657, 915.5332
754.2478, 917.3333
754.7299, 918.3506
755.2120, 922.6767
755.6942, 928.8355
756.1763, 930.0017
756.6584, 916.7855
757.1405, 902.6467
757.6226, 893.7338
758.1047, 890.5571
758.5869, 892.7694
759.0690, 903.5496
759.5511, 914.9251
760.0332, 925.0184
760.5153, 933.5974
760.9974, 931.7586
761.4796, 918.2861
761.9617, 905.7217
762.4438, 906.3849
762.9259, 914.0076
763.4080, 915.8572
763.8901, 910.8818
764.3723, 906.1256
764.8544, 906.6799
765.3365, 908.8701
765.8186, 909.8654
766.3007, 909.0388
766.7828, 907.5032
767.2650, 903.3857
767.7471, 900.5937
768.2292, 903.1621
768.7113, 911.8448
769.1934, 918.5234
769.6755, 922.7693
770.1577, 924.3440
770.6398, 921.5756
771.1219, 916.0530
771.6040, 911.8079
772.0861, 910.3129
772.5682, 908.0958
773.0504, 899.4891
773.5325, 890.3042
774.0146, 887.4199
774.4967, 900.2979
774.9788, 908.7927
775.4609, 911.0875
775.9431, 909.1190
776.4252, 904.5875
776.9073, 896.8868
777.3894, 891.8653
777.8715, 890.3753
778.3536, 892.6949
778.8358, 903.7595
779.3179, 919.2189
779.8000, 926.9251
780.2821, 916.8737
780.7642, 904.8705
781.2463, 898.8091
781.7285, 897.7750
782.2106, 899.8415
782.6927, 908.3827
783.1748, 915.5261
783.6569, 920.7688
784.1390, 923.5155
784.6212, 921.0674
785.1033, 912.7974
785.5854, 905.5573
786.0675, 902.0381
786.5496, 900.6614
787.0317, 898.2809
787.5139, 895.4713
787.9960, 894.2979
788.4781, 898.6785
788.9602, 902.3374
789.4423, 900.9396
789.9244, 895.3909
790.4066, 890.9745
790.8887, 888.9671
791.3708, 887.1097
791.8529, 884.0203
792.3350, 880.5154
792.8171, 883.1743
793.2993, 892.4991
793.7814, 898.6761
794.2635, 894.2422
794.7456, 884.2007
795.2277, 876.1895
795.7098, 870.0138
796.1920, 864.8200
796.6741, 858.2571
797.1562, 854.1263
797.6383, 856.0669
798.1204, 864.4073
798.6025, 869.1292
799.0847, 868.9075
799.5668, 867.1218
800.0489, 865.3128
800.5310, 863.3377
801.0131, 857.6498
801.4952, 848.0372
801.9774, 844.2216
802.4595, 860.9432
802.9416, 883.2653
803.4237, 889.4716
803.9058, 879.2520
804.3879, 873.1111
804.8701, 891.3965
805.3522, 907.1893
805.8343, 899.4006
806.3164, 864.5928
806.7985, 849.9058
807.2806, 862.9702
807.7628, 879.0941
808.2449, 881.5293
808.7270, 872.3894
809.2091, 864.7121
809.6912, 858.7813
810.1733, 853.8524
810.6555, 849.1230
811.1376, 845.2390
811.6197, 843.0919
812.1018, 842.8896
812.5839, 842.8672
813.0660, 842.9813
813.5482, 842.6959
814.0303, 842.0264
814.5124, 841.2749
814.9945, 837.2468
815.4766, 828.8776
815.9587, 821.4631
816.4409, 819.7254
816.9230, 822.4222
817.4051, 826.8758
817.8872, 832.9730
818.3693, 837.4783
818.8514, 836.2137
819.3336, 833.7056
819.8157, 833.7837
820.2978, 837.5835
820.7799, 841.4447
821.2620, 845.6642
821.7441, 849.0590
822.2263, 851.0241
822.7084, 851.5441
823.1905, 848.9491
823.6726, 842.5615
824.1547, 837.7325
824.6368, 842.6248
825.1190, 850.9380
825.6011, 851.3793
826.0832, 841.6688
826.5653, 834.4450
827.0474, 839.0913
827.5295, 846.1832
828.0117, 848.0475
828.4938, 842.0269
828.9760, 840.6039
829.4581, 845.2094
829.9402, 851.3730
830.4223, 856.1125
830.9044, 859.3286
831.3865, 860.2313
831.8687, 858.7382
832.3508, 855.8018
832.8329, 852.1221
833.3150, 847.5198
833.7971, 840.7378
834.2792, 830.4439
834.7614, 824.4326
835.2435, 824.8514
835.7256, 829.8486
836.2077, 840.6602
836.6898, 859.6794
837.1719, 866.8212
837.6541, 860.5469
838.1362, 850.7051
838.6183, 843.3060
839.1004, 839.2136
839.5825, 842.0127
840.0646, 852.3282
840.5468, 860.5091
841.0289, 859.5840
841.5110, 855.5111
841.9931, 851.8347
842.4752, 848.2562
842.9573, 849.0270
843.4395, 857.8870
843.9216, 864.3121
844.4037, 856.8751
844.8858, 838.2521
845.3679, 835.1214
845.8500, 848.1467
846.3322, 862.7755
846.8143, 870.5845
847.2964, 872.1580
847.7785, 864.7534
848.2606, 847.3272
848.7427, 837.3921
849.2249, 848.6443
849.7070, 860.1600
850.1891, 860.6291
850.6712, 849.2565
851.1533, 846.1704
851.6354, 852.7564
852.1176, 859.1385
852.5997, 856.1681
853.0818, 848.8360
853.5639, 847.6791
854.0460, 852.5889
854.5281, 857.6235
855.0103, 860.8619
855.4924, 862.0236
855.9745, 860.1395
856.4566, 855.0278
856.9387, 851.5405
857.4208, 850.6027
857.9030, 849.1067
858.3851, 843.1741
858.8672, 835.3622
859.3493, 841.1940
859.8314, 859.2778
860.3135, 873.5093
860.7957, 871.1325
861.2778, 862.5977
861.7599, 853.3914
862.2420, 844.8727
862.7241, 843.7213
863.2062, 861.0318
863.6884, 874.9941
864.1705, 878.5524
864.6526, 873.5183
865.1347, 869.7428
865.6168, 867.1987
866.0989, 866.9531
866.5811, 872.1151
867.0632, 877.9828
867.5453, 877.0594
868.0274, 870.9617
868.5095, 865.2192
868.9916, 859.2900
869.4738, 857.1301
869.9559, 864.5947
870.4380, 877.0367
870.9201, 879.5043
871.4022, 869.7775
871.8843, 859.0527
872.3665, 848.8228
872.8486, 842.0047
873.3307, 847.7880
873.8128, 862.5992
874.2949, 874.2263
874.7770, 876.2759
875.2592, 874.9755
875.7413, 871.9294
876.2234, 868.0524
876.7055, 865.4051
877.1876, 864.1816
877.6697, 863.9944
878.1519, 865.1344
878.6340, 866.8049
879.1161, 865.4682
879.5982, 862.5820
880.0803, 868.4690
880.5624, 890.6096
881.0446, 910.0616
881.5267, 906.9698
882.0088, 891.7674
882.4909, 878.5502
882.9730, 870.1422
883.4551, 864.9220
883.9373, 863.6268
884.4194, 864.3918
884.9015, 865.4818
885.3836, 866.9133
885.8657, 867.3995
886.3478, 866.4689
886.8300, 866.5513
887.3121, 873.2397
887.7942, 881.1857
888.2763, 882.1581
888.7584, 872.1518
889.2405, 864.7107
889.7227, 864.9288
890.2048, 868.3423
890.6869, 871.8572
891.1690, 874.8713
891.6511, 883.9813
892.1332, 901.0607
892.6154, 912.4214
893.0975, 897.5601
893.5796, 872.2798
894.0617, 864.8839
894.5438, 877.1685
895.0259, 891.0181
895.5081, 903.5079
895.9902, 910.0215
896.4723, 905.1260
896.9544, 888.9220
897.4365, 879.0936
897.9186, 876.0793
898.4008, 877.3950
898.8829, 885.2445
899.3650, 895.2148
899.8471, 892.6824
900.3292, 880.5258
900.8113, 873.7371
901.2935, 889.4761
901.7756, 904.0878
902.2577, 901.0471
902.7398, 884.2679
903.2219, 878.0249
903.7040, 886.7136
904.1862, 895.5395
904.6683, 900.7493
905.1504, 902.9639
905.6325, 903.3210
906.1146, 901.9935
906.5967, 899.6172
907.0789, 894.5305
907.5610, 891.0425
908.0431, 894.2574
908.5252, 900.4186
909.0073, 902.7415
909.4894, 896.6777
909.9716, 894.3089
910.4537, 898.1223
910.9358, 903.7504
911.4179, 903.9722
911.9000, 900.0134
912.3821, 899.1010
912.8643, 903.1238
913.3464, 907.7866
913.8285, 910.9046
914.3106, 912.0691
914.7927, 910.4980
915.2748, 904.1133
915.7570, 899.6669
916.2391, 897.0817
916.7212, 896.9821
917.2033, 899.8225
917.6854, 905.5949
918.1675, 916.9656
918.6497, 934.1495
919.1318, 945.3711
919.6139, 936.8876
920.0960, 921.7935
920.5781, 909.3388
921.0602, 900.3607
921.5424, 899.4490
922.0245, 913.7570
922.5066, 926.2264
922.9887, 930.1618
923.4708, 926.7035
923.9529, 920.7266
924.4351, 912.5245
924.9172, 906.2147
925.3993, 905.2796
925.8814, 906.2409
926.3635, 905.0557
926.8456, 903.0999
927.3278, 904.3391
927.8099, 915.9593
928.2920, 922.2614
928.7741, 918.0322
929.2562, 909.6262
929.7383, 911.7058
930.2205, 923.3098
930.7026, 929.0134
931.1847, 922.7951
931.6668, 915.7792
932.1489, 921.4355
932.6310, 932.0467
933.1132, 937.2548
933.5953, 933.2007
934.0774, 925.8520
934.5595, 912.2435
935.0416, 899.9373
935.5237, 896.0760
936.0059, 900.3497
936.4880, 906.8484
936.9701, 915.4926
937.4522, 921.1808
937.9343, 914.9100
938.4164, 906.7664
938.8986, 909.0134
939.3807, 923.7366
939.8628, 929.7388
940.3449, 915.9072
940.8270, 904.7275
941.3091, 907.4964
941.7913, 920.9428
942.2734, 923.0110
942.7555, 914.8245
943.2376, 910.8575
943.7197, 926.1430
944.2018, 943.3218
944.6840, 946.0729
945.1661, 938.4590
945.6482, 931.7889
946.1303, 927.8391
946.6124, 926.2782
947.0945, 928.0321
947.5767, 931.1718
948.0588, 932.3117
948.5409, 931.6030
949.0230, 929.6671
949.5051, 926.2297
949.9872, 923.2564
950.4694, 919.2080
950.9515, 918.2110
951.4336, 926.2987
951.9157, 955.4288
952.3978, 968.3364
952.8799, 958.0969
953.3621, 942.5833
953.8442, 936.3925
954.3263, 937.8791
954.8084, 938.2731
955.2905, 937.2597
955.7726, 935.6428
956.2548, 933.2239
956.7369, 930.9926
957.2190, 928.2021
957.7011, 925.3266
958.1832, 929.8473
958.6653, 947.9476
959.1475, 959.2333
959.6296, 953.4843
960.1117, 938.9391
960.5938, 937.5686
961.0759, 946.7141
961.5580, 955.9903
962.0402, 962.6163
962.5223, 965.9183
963.0044, 964.8579
963.4865, 960.3600
963.9686, 953.3514
964.4507, 940.2908
964.9329, 935.2651
965.4150, 941.1992
965.8971, 950.1161
966.3792, 950.7189
966.8613, 947.0115
967.3434, 950.0286
967.8256, 962.2445
968.3077, 971.2296
968.7898, 966.7916
969.2719, 960.1246
969.7540, 958.6107
970.2361, 962.4744
970.7183, 968.4523
971.2004, 977.6246
971.6825, 983.2023
972.1646, 979.6675
972.6467, 970.9668
973.1288, 960.5027
973.6110, 950.3353
974.0931, 947.9010
974.5752, 964.0773
975.0573, 979.4327
975.5394, 989.9224
976.0215, 994.9952
976.5037, 991.4991
976.9858, 978.6683
977.4679, 970.0182
977.9500, 968.4666
978.4321, 970.5988
978.9142, 976.3831
979.3964, 981.6566
979.8785, 979.3787
980.3606, 963.7432
980.8427, 955.1259
981.3248, 960.2410
981.8069, 968.2754
982.2891, 973.3774
982.7712, 975.5388
983.2533, 973.8204
983.7354, 968.4023
984.2175, 963.4897
984.6996, 959.9199
985.1818, 959.7026
985.6639, 967.4517
986.1460, 980.9769
986.6281, 988.3273
987.1102, 985.6702
987.5923, 982.1942
988.0745, 978.7798
988.5566, 976.9892
989.0387, 981.6483
989.5208, 990.8884
990.0029, 998.4937
990.4850, 1003.818
990.9672, 1004.118
991.4493, 991.9319
991.9314, 977.4239
992.4135, 971.3091
992.8957, 975.6982
993.3778, 982.9884
993.8599, 994.7730
994.3420, 1003.233
994.8242, 997.1616
995.3063, 985.2678
995.7884, 985.8019
996.2705, 997.7200
996.7526, 1007.114
997.2347, 1007.536
997.7169, 1004.025
998.1990, 995.9199
998.6811, 986.1846
999.1632, 984.7080
999.6453, 991.8598
1000.127, 997.0870
1000.610, 997.2736
1001.092, 994.4676
1001.574, 989.9232
1002.056, 984.3677
1002.538, 978.4249
1003.020, 968.2841
1003.502, 966.6840
1003.984, 979.3414
1004.466, 993.0433
1004.949, 995.5729
1005.431, 988.6947
1005.913, 984.5796
1006.395, 983.6354
1006.877, 986.2961
1007.359, 999.6924
1007.841, 1010.694
1008.323, 1006.417
1008.806, 989.7571
1009.288, 984.4172
1009.770, 995.4716
1010.252, 1002.026
1010.734, 997.5739
1011.216, 987.5007
1011.698, 978.7885
1012.180, 971.8812
1012.662, 967.7252
1013.145, 966.7570
1013.627, 968.1526
1014.109, 974.3804
1014.591, 980.7227
1015.073, 983.6938
1015.555, 983.1517
1016.037, 979.5439
1016.519, 972.5565
1017.002, 968.1987
1017.484, 974.9309
1017.966, 983.4995
1018.448, 983.3806
1018.930, 975.7951
1019.412, 970.1478
1019.894, 971.0128
1020.376, 969.2045
1020.858, 961.5488
1021.341, 951.8753
1021.823, 947.8179
1022.305, 948.5562
1022.787, 950.9261
1023.269, 954.2681
1023.751, 958.6682
1024.233, 971.3419
1024.715, 980.1094
1025.198, 969.7174
1025.680, 932.7687
1026.162, 923.1798
1026.644, 945.9581
1027.126, 969.2241
1027.608, 967.7687
1028.090, 954.6523
1028.572, 950.7629
1029.054, 953.8655
1029.536, 954.3939
1030.019, 944.0837
1030.501, 937.0213
1030.983, 936.6985
1031.465, 940.7104
1031.947, 947.9744
1032.429, 957.2508
1032.911, 953.9863
1033.393, 933.5481
1033.876, 913.1530
1034.358, 905.4873
1034.840, 905.5206
1035.322, 910.6436
1035.804, 921.8807
1036.286, 925.7543
1036.768, 919.6840
1037.250, 914.7246
1037.733, 918.2031
1038.215, 925.5242
1038.697, 926.5974
1039.179, 923.0612
1039.661, 919.9516
1040.143, 918.6529
1040.625, 918.9287
1041.107, 920.3734
1041.589, 923.5535
1042.072, 931.0884
1042.554, 943.0327
1043.036, 947.0116
1043.518, 941.4494
1044.000, 933.1086
1044.482, 925.8138
1044.964, 919.9382
1045.446, 915.9764
1045.928, 914.0518
1046.411, 912.5881
1046.893, 911.3054
1047.375, 911.0471
1047.857, 912.3856
1048.339, 914.5305
1048.821, 915.2720
1049.303, 915.4876
1049.785, 917.6641
1050.268, 924.7705
1050.750, 929.8851
1051.232, 932.0307
1051.714, 929.9572
1052.196, 919.3244
1052.678, 899.1163
1053.160, 895.6662
1053.642, 909.5687
1054.125, 924.7459
1054.607, 931.6304
1055.089, 933.3710
1055.571, 929.8010
1056.053, 922.8798
1056.535, 921.7602
1057.017, 930.6647
1057.499, 935.7379
1057.981, 933.4197
1058.464, 928.0842
1058.946, 926.6248
1059.428, 927.2026
1059.910, 924.9825
1060.392, 917.7889
1060.874, 914.0947
1061.356, 921.6610
1061.838, 929.3141
1062.320, 931.9396
1062.803, 929.5544
1063.285, 920.1501
1063.767, 904.3992
1064.249, 892.5395
1064.731, 889.6674
1065.213, 893.0602
1065.695, 905.8217
1066.177, 921.9027
1066.660, 929.6577
1067.142, 925.7751
1067.624, 920.2935
1068.106, 912.3672
1068.588, 907.7750
1069.070, 915.7816
1069.552, 929.7830
1070.034, 940.0932
1070.516, 945.7853
1070.999, 944.7949
1071.481, 923.7206
1071.963, 911.9114
1072.445, 922.0087
1072.927, 943.9747
1073.409, 952.1105
1073.891, 948.0537
1074.373, 939.6852
1074.855, 926.8373
1075.338, 917.5405
1075.820, 920.5159
1076.302, 927.3730
1076.784, 930.4774
1077.266, 929.3961
1077.748, 926.4502
1078.230, 921.4979
1078.713, 915.8491
1079.195, 907.6655
1079.677, 901.0530
1080.159, 904.5193
1080.641, 913.8213
1081.123, 918.4383
1081.605, 907.6268
1082.087, 904.4779
1082.569, 914.6683
1083.052, 925.9994
1083.534, 920.1250
1084.016, 903.6319
1084.498, 895.8986
1084.980, 898.7820
1085.462, 906.3461
1085.944, 922.8792
1086.426, 935.3284
1086.908, 936.9132
1087.391, 930.1404
1087.873, 922.1545
1088.355, 913.0826
1088.837, 908.1369
1089.319, 910.4040
1089.801, 912.7148
1090.283, 904.5120
1090.765, 895.0259
1091.248, 896.2468
1091.730, 912.8360
1092.212, 922.1349
1092.694, 923.4238
1093.176, 920.2230
1093.658, 911.7467
1094.140, 901.9871
1094.622, 898.3394
1095.104, 899.3725
1095.587, 901.3663
1096.069, 904.3578
1096.551, 906.2019
1097.033, 905.4643
1097.515, 905.2183
1097.997, 910.5315
1098.479, 919.5479
1098.961, 925.1102
1099.443, 926.6158
1099.926, 923.0255
1100.408, 905.7631
1100.890, 891.5845
1101.372, 891.7731
1101.854, 900.9479
1102.336, 903.2700
1102.818, 898.7855
1103.300, 892.7090
1103.783, 885.2756
1104.265, 880.9557
1104.747, 886.3469
1105.229, 895.7123
1105.711, 903.5875
1106.193, 909.4305
1106.675, 913.5535
1107.157, 916.1600
1107.640, 916.1530
1108.122, 911.8183
1108.604, 905.6954
1109.086, 901.6221
1109.568, 899.1849
1110.050, 897.5138
1110.532, 894.3405
1111.014, 895.7380
1111.496, 906.0869
1111.979, 914.1254
1112.461, 905.9234
1112.943, 886.7479
1113.425, 876.4301
1113.907, 875.1265
1114.389, 878.8459
1114.871, 889.6832
1115.353, 900.4562
1115.835, 910.4836
1116.318, 917.6425
1116.800, 916.6191
1117.282, 908.0280
1117.764, 899.9019
1118.246, 893.1331
1118.728, 890.8942
1119.210, 902.7877
1119.692, 914.5411
1120.175, 911.3458
1120.657, 895.0511
1121.139, 889.8168
1121.621, 897.3727
1122.103, 902.4293
1122.585, 899.3272
1123.067, 892.6203
1123.549, 882.3708
1124.031, 874.4236
1124.514, 878.6680
1124.996, 905.5281
1125.478, 917.9543
1125.960, 911.5847
1126.442, 902.0106
1126.924, 898.7810
1127.406, 898.9138
1127.888, 895.0196
1128.370, 889.1360
1128.853, 886.9518
1129.335, 895.9251
1129.817, 900.8236
1130.299, 897.7554
1130.781, 893.0031
1131.263, 893.7061
1131.745, 898.3865
1132.227, 901.8832
1132.710, 903.7917
1133.192, 903.0350
1133.674, 893.4619
1134.156, 887.7209
1134.638, 894.2090
1135.120, 905.9423
1135.602, 907.8416
1136.084, 900.7807
1136.567, 894.8610
1137.049, 891.5976
1137.531, 891.7056
1138.013, 898.7308
1138.495, 906.9316
1138.977, 911.6302
1139.459, 913.2531
1139.941, 915.4038
1140.423, 918.2781
1140.906, 919.4125
1141.388, 918.9334
1141.870, 914.1105
1142.352, 894.9014
1142.834, 873.4672
1143.316, 865.6231
1143.798, 877.4512
1144.280, 884.1189
1144.762, 884.5246
1145.245, 884.4103
1145.727, 888.4777
1146.209, 892.6015
1146.691, 888.0059
1147.173, 879.0895
1147.655, 875.1459
1148.137, 883.8013
1148.619, 889.8086
1149.102, 892.5342
1149.584, 893.1590
1150.066, 891.5175
1150.548, 888.9391
1151.030, 890.0331
1151.512, 893.5458
1151.994, 892.7082
1152.476, 877.0674
1152.958, 867.7366
1153.441, 870.1790
1153.923, 878.2390
1154.405, 885.7631
1154.887, 891.6399
1155.369, 890.4000
1155.851, 881.6249
1156.333, 873.8121
1156.815, 870.5251
1157.297, 870.1888
1157.780, 872.5422
1158.262, 876.6315
1158.744, 879.7467
1159.226, 882.2120
1159.708, 887.6435
1160.190, 898.3256
1160.672, 903.4363
1161.154, 888.9822
1161.637, 872.5807
1162.119, 866.7106
1162.601, 869.8917
1163.083, 869.6113
1163.565, 866.1784
1164.047, 867.3600
1164.529, 879.5518
1165.011, 889.5013
1165.494, 882.7787
1165.976, 870.9378
1166.458, 866.5924
1166.940, 870.8576
1167.422, 875.8041
1167.904, 881.7649
1168.386, 883.1185
1168.868, 870.6160
1169.350, 858.5447
1169.833, 862.8384
1170.315, 876.1020
1170.797, 885.7464
1171.279, 891.0361
1171.761, 891.1152
1172.243, 884.9282
1172.725, 879.9995
1173.207, 885.4518
1173.689, 892.9208
1174.172, 891.1273
1174.654, 882.8845
1175.136, 878.7653
1175.618, 881.5463
1176.100, 883.9641
1176.582, 885.5865
1177.064, 885.6493
1177.546, 881.4495
1178.029, 876.3165
1178.511, 874.9445
1178.993, 877.4288
1179.475, 881.1191
1179.957, 887.8735
1180.439, 890.2343
1180.921, 885.3209
1181.403, 878.7915
1181.885, 880.0244
1182.368, 884.8079
1182.850, 885.2418
1183.332, 880.0002
1183.814, 876.6212
1184.296, 878.1293
1184.778, 878.2741
1185.260, 873.9362
1185.742, 868.8668
1186.224, 873.2712
1186.707, 882.0992
1187.189, 883.6937
1187.671, 873.0099
1188.153, 866.8344
1188.635, 871.9651
1189.117, 876.9392
1189.599, 876.1293
1190.081, 871.8076
1190.564, 869.4920
1191.046, 869.0172
1191.528, 870.2072
1192.010, 874.1725
1192.492, 877.0231
1192.974, 877.3147
1193.456, 877.1457
1193.938, 877.7510
1194.421, 878.9763
1194.903, 881.8521
1195.385, 885.0416
1195.867, 883.7021
1196.349, 867.8007
1196.831, 858.7438
1197.313, 866.2049
1197.795, 875.8940
1198.277, 873.4471
1198.760, 862.3682
1199.242, 861.7805
1199.724, 870.1945
1200.206, 877.5255
1200.688, 864.3243
1201.170, 878.6571
1201.652, 886.7668
1202.134, 888.9878
1202.616, 867.6829
1203.099, 876.7571
1203.581, 873.6566
1204.063, 870.0568
1204.545, 883.4065
1205.027, 865.5234
1205.509, 878.6042
1205.991, 879.3248
1206.473, 885.7024
1206.956, 879.8306
1207.438, 877.7420
1207.920, 887.9071
1208.402, 891.2872
1208.884, 884.0050
1209.366, 890.7421
1209.848, 872.4312
1210.330, 876.1003
1210.813, 889.2531
1211.295, 882.5868
1211.777, 889.5479
1212.259, 891.3190
1212.741, 869.5033
1213.223, 888.7073
1213.705, 890.1716
1214.187, 873.4213
1214.669, 891.2197
1215.151, 876.9805
1215.634, 874.1769
1216.116, 879.9791
1216.598, 876.8099
1217.080, 887.7852
1217.562, 885.1341
1218.044, 881.2655
1218.526, 882.7100
1219.008, 869.0989
1219.491, 883.4191
1219.973, 878.6598
1220.455, 883.3843
1220.937, 890.2586
1221.419, 880.6730
1221.901, 888.5131
1222.383, 869.3301
1222.865, 872.7583
1223.348, 873.7520
1223.830, 889.1979
1224.312, 870.1467
1224.794, 872.9467
1225.276, 885.0506
1225.758, 884.1362
1226.240, 888.6647
1226.722, 877.0797
1227.204, 880.6321
1227.687, 880.0125
1228.169, 893.8107
1228.651, 896.2264
1229.133, 884.9148
1229.615, 873.6613
1230.097, 888.4973
1230.579, 878.6053
1231.061, 874.4048
1231.543, 869.2655
1232.026, 870.9210
1232.508, 878.4109
1232.990, 889.5931
1233.472, 902.5505
1233.954, 908.3597
1234.436, 897.2406
1234.918, 886.4791
1235.400, 877.9940
1235.883, 873.5034
1236.365, 876.2795
1236.847, 884.2866
1237.329, 888.4612
1237.811, 889.7854
1238.293, 893.4016
1238.775, 909.0077
1239.257, 915.6074
1239.740, 905.9420
1240.222, 893.2159
1240.704, 892.0918
1241.186, 898.3608
1241.668, 901.1233
1242.150, 899.8777
1242.632, 894.5623
1243.114, 876.9597
1243.596, 867.9332
1244.079, 872.8436
1244.561, 882.0479
1245.043, 884.0952
1245.525, 882.5140
1246.007, 885.4187
1246.489, 892.3911
1246.971, 897.9886
1247.453, 901.0538
1247.936, 901.6588
1248.418, 899.5717
1248.900, 895.5084
1249.382, 885.7583
1249.864, 876.8649
1250.346, 884.2848
1250.828, 905.9521
1251.310, 918.1867
1251.792, 912.7287
1252.275, 907.7678
1252.757, 906.5853
1253.239, 905.2666
1253.721, 896.9183
1254.203, 886.9500
1254.685, 882.6276
1255.167, 884.2574
1255.649, 887.8250
1256.131, 893.2684
1256.614, 899.5541
1257.096, 906.9436
1257.578, 913.1652
1258.060, 917.0039
1258.542, 917.3016
1259.024, 910.1199
1259.506, 896.6173
1259.988, 890.7327
1260.471, 893.8406
1260.953, 897.3834
1261.435, 899.5751
1261.917, 901.6895
1262.399, 906.9890
1262.881, 911.2437
1263.363, 908.6946
1263.845, 900.8763
1264.328, 898.9872
1264.810, 903.4326
1265.292, 905.2667
1265.774, 901.8645
1266.256, 898.8134
1266.738, 902.8427
1267.220, 907.1791
1267.702, 904.4690
1268.184, 897.7976
1268.667, 901.7050
1269.149, 915.1596
1269.631, 921.5678
1270.113, 915.6561
1270.595, 910.6017
1271.077, 921.6152
1271.559, 928.8298
1272.041, 918.2814
1272.523, 897.2051
1273.006, 890.2430
1273.488, 894.8030
1273.970, 898.3077
1274.452, 897.6452
1274.934, 897.2433
1275.416, 900.1442
1275.898, 902.3463
1276.380, 900.6743
1276.863, 898.6321
1277.345, 909.7797
1277.827, 927.6251
1278.309, 932.9359
1278.791, 907.3071
1279.273, 920.8912
1279.755, 928.2771
1280.237, 929.7995
1280.719, 907.8212
1281.202, 916.2455
1281.684, 912.5219
1282.166, 908.3239
1282.648, 921.1004
1283.130, 902.6692
1283.612, 915.2271
1284.094, 915.4498
1284.576, 921.3546
1285.058, 915.0349
1285.541, 912.5231
1286.023, 922.2907
1286.505, 925.2984
1286.987, 917.6688
1287.469, 924.0838
1287.951, 905.4756
1288.433, 908.8727
1288.915, 921.7783
1289.398, 914.8900
1289.880, 921.6543
1290.362, 923.2537
1290.844, 901.2914
1291.326, 920.3740
1291.808, 921.7419
1292.290, 904.9201
1292.772, 922.6724
1293.255, 908.4121
1293.737, 905.6123
1294.219, 911.4436
1294.701, 908.3286
1295.183, 919.3830
1295.665, 916.8362
1296.147, 913.0970
1296.629, 914.6959
1297.111, 901.2643
1297.594, 915.7897
1298.076, 911.2602
1298.558, 916.2396
1299.040, 923.3938
1299.522, 914.1132
1300.004, 909.9927
1300.486, 905.7062
1300.968, 909.1902
1301.450, 917.1653
1301.933, 921.8633
1302.415, 920.6936
##END=



