##NAMES=Ferrowyllieite
##RRUFFID=R160068
##IDEAL CHEMISTRY=NaNaFe^2+^(Fe^2+^Al)(PO_4_)_3_
##LOCALITY=Victory mine, near Custer, Custer County, South Dakota, USA
##OWNER=RRUFF
##SOURCE=James Shigley
##DESCRIPTION=Dark green aggregates of blocky crystals, associated with quartz, muscovite, and arrojadite-(BaNa) (R160077)..
##STATUS=The identification of this mineral is confirmed by single-crystal X-ray diffraction and chemical analysis.
##URL=rruff.info/R160068
##MEASURED CHEMISTRY=(Na_1.05_Ca_0.07_Mn^2+^_0.29_ â–¡_0.58_)(Fe^2+^_1.87_Mg_0.16_)(Al^3+^_0.72_Fe^3+^_0.28_)(P_1.01_O_4_)_3_   ; Grey phase. Bright phase is arrojadite-(BaNa).
89.01367, 255.2767
89.49579, 255.6934
89.97791, 255.6669
90.46002, 254.2632
90.94214, 254.1971
91.42426, 261.0649
91.90637, 273.6929
92.38849, 283.0735
92.87061, 279.7722
93.35272, 267.7295
93.83484, 257.9007
94.31696, 253.5887
94.79907, 252.7351
95.28119, 251.2266
95.76331, 249.3740
96.24542, 246.5621
96.72754, 241.2724
97.20966, 233.5668
97.69177, 227.1252
98.17389, 222.7731
98.65601, 220.4230
99.13812, 220.5952
99.62024, 224.1600
100.1024, 228.3843
100.5845, 229.1144
101.0666, 225.6952
101.5487, 221.6576
102.0308, 218.0499
102.5129, 214.7075
102.9951, 212.5079
103.4772, 211.5802
103.9593, 211.6719
104.4414, 212.0891
104.9235, 211.9964
105.4056, 213.3227
105.8878, 216.9835
106.3699, 223.9821
106.8520, 231.5129
107.3341, 241.6728
107.8162, 253.1674
108.2983, 258.4682
108.7805, 253.1625
109.2626, 245.1788
109.7447, 238.7840
110.2268, 234.5155
110.7089, 231.1775
111.1910, 228.6142
111.6732, 226.8067
112.1553, 225.9661
112.6374, 226.4040
113.1195, 227.6326
113.6016, 229.2698
114.0837, 230.4280
114.5659, 232.6887
115.0480, 237.4578
115.5301, 245.1751
116.0122, 251.1375
116.4943, 252.3595
116.9764, 251.2931
117.4586, 251.0426
117.9407, 254.7299
118.4228, 258.1989
118.9049, 258.5053
119.3870, 254.7512
119.8691, 250.6046
120.3513, 247.9697
120.8334, 246.5776
121.3155, 245.9353
121.7976, 244.9496
122.2797, 244.9408
122.7618, 248.0176
123.2440, 255.8922
123.7261, 263.4575
124.2082, 265.5439
124.6903, 262.9870
125.1724, 258.8608
125.6545, 254.0738
126.1367, 249.1942
126.6188, 245.2535
127.1009, 242.4715
127.5830, 240.7071
128.0651, 239.8996
128.5472, 240.0290
129.0294, 240.7355
129.5115, 242.1183
129.9936, 243.9488
130.4757, 245.3878
130.9578, 246.3848
131.4399, 246.7793
131.9221, 245.9476
132.4042, 243.7738
132.8863, 241.1096
133.3684, 238.5342
133.8505, 236.0540
134.3326, 233.9890
134.8148, 232.4828
135.2969, 231.4951
135.7790, 230.7967
136.2611, 230.3960
136.7432, 230.2646
137.2253, 230.1266
137.7075, 229.7635
138.1896, 230.5454
138.6717, 233.4908
139.1538, 238.8532
139.6359, 242.5560
140.1180, 244.5606
140.6002, 244.9203
141.0823, 243.4520
141.5644, 239.3839
142.0465, 235.2406
142.5286, 231.8980
143.0107, 229.5511
143.4929, 227.4719
143.9750, 225.6386
144.4571, 224.0853
144.9392, 222.9523
145.4213, 222.2090
145.9034, 221.9008
146.3856, 222.1052
146.8677, 223.4031
147.3498, 224.2437
147.8319, 224.6832
148.3140, 224.6801
148.7961, 224.0706
149.2783, 222.2000
149.7604, 220.2663
150.2425, 218.7788
150.7246, 217.6813
151.2067, 217.1015
151.6888, 217.3894
152.1710, 218.3323
152.6531, 218.8634
153.1352, 218.2520
153.6173, 217.6285
154.0994, 217.6082
154.5815, 218.8938
155.0637, 220.1087
155.5458, 221.4821
156.0279, 222.8524
156.5100, 222.9431
156.9921, 220.2557
157.4742, 216.8401
157.9564, 214.1772
158.4385, 213.0847
158.9206, 212.3298
159.4027, 211.5320
159.8848, 210.7018
160.3669, 210.1665
160.8491, 210.1487
161.3312, 210.4351
161.8133, 210.8284
162.2954, 211.2438
162.7775, 211.7668
163.2596, 212.7085
163.7418, 214.0755
164.2239, 214.8089
164.7060, 213.8699
165.1881, 212.1177
165.6702, 210.6301
166.1523, 209.9022
166.6345, 209.4963
167.1166, 209.1826
167.5987, 208.9507
168.0808, 208.7420
168.5629, 208.3753
169.0450, 208.0234
169.5272, 207.9678
170.0093, 208.4798
170.4914, 209.2621
170.9735, 210.2038
171.4556, 211.3604
171.9377, 212.1614
172.4199, 211.9888
172.9020, 211.1006
173.3841, 210.0934
173.8662, 208.9870
174.3483, 208.0153
174.8304, 207.5801
175.3126, 207.8048
175.7947, 208.0788
176.2768, 207.6511
176.7589, 206.7430
177.2410, 206.0408
177.7231, 205.9689
178.2053, 206.3257
178.6874, 206.8909
179.1695, 207.7445
179.6516, 208.4433
180.1337, 208.3137
180.6158, 207.5020
181.0980, 206.7065
181.5801, 206.3325
182.0622, 206.2689
182.5443, 206.2435
183.0264, 206.2354
183.5085, 206.2408
183.9907, 206.2522
184.4728, 206.2699
184.9549, 206.3004
185.4370, 206.2531
185.9191, 206.2002
186.4012, 206.5123
186.8834, 207.3686
187.3655, 208.3015
187.8476, 208.4084
188.3297, 207.7073
188.8118, 206.8739
189.2939, 206.3117
189.7761, 205.9858
190.2582, 205.7200
190.7403, 205.5166
191.2224, 205.3276
191.7045, 205.0299
192.1866, 204.6186
192.6688, 204.2390
193.1509, 203.9724
193.6330, 203.8188
194.1151, 203.8208
194.5972, 204.0527
195.0793, 204.3642
195.5615, 204.3369
196.0436, 203.9257
196.5257, 203.5156
197.0078, 203.4071
197.4899, 203.6115
197.9720, 203.7371
198.4542, 203.7515
198.9363, 203.6496
199.4184, 203.3568
199.9005, 202.8204
200.3826, 202.3272
200.8647, 202.0425
201.3469, 201.9655
201.8290, 202.1758
202.3111, 202.8380
202.7932, 203.7090
203.2753, 203.9259
203.7574, 203.3399
204.2396, 202.5837
204.7217, 202.0628
205.2038, 201.7961
205.6859, 201.6534
206.1680, 201.6458
206.6501, 201.7447
207.1323, 201.8398
207.6144, 201.9197
208.0965, 202.0281
208.5786, 202.2481
209.0607, 202.6594
209.5428, 202.8204
210.0250, 202.5967
210.5071, 202.1048
210.9892, 201.8152
211.4713, 201.7817
211.9534, 201.8410
212.4355, 201.8935
212.9176, 201.9376
213.3998, 201.9693
213.8819, 201.9706
214.3640, 201.9539
214.8461, 202.0116
215.3282, 202.2153
215.8103, 202.3499
216.2925, 202.2469
216.7746, 201.8012
217.2567, 201.4125
217.7388, 201.1251
218.2209, 200.9202
218.7030, 200.7207
219.1852, 200.5248
219.6673, 200.3367
220.1494, 200.1693
220.6315, 200.0464
221.1136, 199.8957
221.5957, 199.7430
222.0779, 199.5639
222.5600, 199.1834
223.0421, 198.4263
223.5242, 197.7597
224.0063, 197.5208
224.4884, 197.9801
224.9706, 198.1967
225.4527, 197.9884
225.9348, 197.4845
226.4169, 197.2384
226.8990, 197.3717
227.3811, 197.5847
227.8633, 197.7451
228.3454, 197.9632
228.8275, 197.8579
229.3096, 197.3194
229.7917, 196.4413
230.2738, 195.5715
230.7560, 194.6080
231.2381, 193.8226
231.7202, 193.4299
232.2023, 193.7315
232.6844, 193.7401
233.1665, 193.2863
233.6487, 192.5241
234.1308, 191.9940
234.6129, 191.8195
235.0950, 191.7004
235.5771, 191.4777
236.0592, 191.0555
236.5414, 190.7335
237.0235, 190.5078
237.5056, 190.3838
237.9877, 190.4072
238.4698, 190.6919
238.9520, 190.9514
239.4341, 191.0678
239.9162, 191.0445
240.3983, 190.8492
240.8804, 190.4046
241.3625, 189.8091
241.8447, 189.3049
242.3268, 188.9254
242.8089, 188.5921
243.2910, 188.2688
243.7731, 187.9171
244.2552, 187.6867
244.7374, 187.6846
245.2195, 187.7631
245.7016, 187.5798
246.1837, 186.9900
246.6658, 186.3795
247.1479, 185.8884
247.6301, 185.5182
248.1122, 185.2732
248.5943, 185.2241
249.0764, 185.2646
249.5585, 185.1949
250.0406, 184.9731
250.5228, 184.7198
251.0049, 184.4920
251.4870, 184.3335
251.9691, 183.9924
252.4512, 183.2629
252.9333, 182.5029
253.4155, 182.3496
253.8976, 183.2311
254.3797, 183.8734
254.8618, 183.8027
255.3439, 182.8819
255.8260, 182.1555
256.3082, 181.6597
256.7903, 181.3248
257.2724, 181.0886
257.7545, 181.0229
258.2366, 180.8880
258.7188, 180.5807
259.2009, 180.0869
259.6830, 179.7238
260.1651, 179.5615
260.6472, 179.4492
261.1293, 179.1901
261.6115, 178.7008
262.0936, 178.3107
262.5757, 178.1617
263.0578, 178.2516
263.5399, 178.0989
264.0220, 177.6288
264.5042, 177.0429
264.9863, 176.4853
265.4684, 175.9050
265.9505, 175.5665
266.4326, 175.6457
266.9147, 176.0648
267.3969, 176.0141
267.8790, 175.3477
268.3611, 174.5127
268.8432, 173.8635
269.3253, 173.4100
269.8074, 173.0993
270.2896, 172.9520
270.7717, 172.9378
271.2538, 172.9179
271.7359, 172.8822
272.2180, 172.8604
272.7001, 172.9025
273.1823, 173.0347
273.6644, 173.0438
274.1465, 172.8722
274.6286, 172.5823
275.1107, 172.3779
275.5928, 172.2958
276.0750, 172.1722
276.5571, 171.8764
277.0392, 171.3945
277.5213, 170.9487
278.0034, 170.5344
278.4855, 170.1945
278.9677, 170.1236
279.4498, 170.3839
279.9319, 170.5067
280.4140, 170.1138
280.8961, 169.2173
281.3782, 168.6264
281.8604, 168.4096
282.3425, 168.4360
282.8246, 168.5441
283.3067, 168.7408
283.7888, 168.8856
284.2709, 168.9153
284.7531, 168.8352
285.2352, 168.6826
285.7173, 168.4450
286.1994, 168.1756
286.6815, 167.9540
287.1636, 167.7764
287.6458, 167.5717
288.1279, 167.3173
288.6100, 167.0153
289.0921, 166.6465
289.5742, 166.1941
290.0563, 165.7901
290.5385, 165.6211
291.0206, 165.6521
291.5027, 165.6670
291.9848, 165.6106
292.4669, 165.4860
292.9490, 165.2334
293.4312, 164.8515
293.9133, 164.5594
294.3954, 164.6832
294.8775, 165.0815
295.3596, 165.2803
295.8417, 165.0979
296.3239, 164.7191
296.8060, 164.4020
297.2881, 164.1445
297.7702, 163.9328
298.2523, 163.7834
298.7344, 163.6689
299.2166, 163.5319
299.6987, 163.3590
300.1808, 163.1693
300.6629, 162.9648
301.1450, 162.7573
301.6271, 162.5839
302.1093, 162.4649
302.5914, 162.3978
303.0735, 162.4036
303.5556, 162.5098
304.0377, 162.5941
304.5198, 162.5352
305.0020, 162.3641
305.4841, 162.1566
305.9662, 161.9801
306.4483, 161.7683
306.9304, 161.3897
307.4125, 160.8043
307.8947, 160.3249
308.3768, 160.2378
308.8589, 160.3966
309.3410, 160.5744
309.8231, 160.7325
310.3052, 160.8311
310.7874, 160.8251
311.2695, 160.7146
311.7516, 160.5826
312.2337, 160.4924
312.7158, 160.4011
313.1979, 160.2642
313.6801, 160.0252
314.1622, 159.7799
314.6443, 159.5449
315.1264, 159.3320
315.6085, 159.1967
316.0906, 159.2836
316.5728, 159.3921
317.0549, 159.3720
317.5370, 159.1240
318.0191, 158.8405
318.5012, 158.5234
318.9833, 158.2107
319.4655, 158.0091
319.9476, 158.0129
320.4297, 158.0882
320.9118, 158.1938
321.3939, 158.3991
321.8760, 158.4560
322.3582, 158.1326
322.8403, 157.6571
323.3224, 157.4109
323.8045, 157.7541
324.2866, 158.0617
324.7687, 158.0906
325.2509, 157.7175
325.7330, 157.5300
326.2151, 157.7470
326.6972, 158.0960
327.1793, 158.2911
327.6614, 158.3361
328.1436, 158.2231
328.6257, 157.8665
329.1078, 157.2574
329.5899, 156.8443
330.0720, 156.7607
330.5541, 156.7649
331.0363, 156.6841
331.5184, 156.4352
332.0005, 156.2428
332.4826, 156.1537
332.9647, 156.1372
333.4468, 156.0348
333.9290, 155.7740
334.4111, 155.5383
334.8932, 155.4405
335.3753, 155.5448
335.8574, 155.5815
336.3395, 155.5121
336.8216, 155.3949
337.3037, 155.3530
337.7859, 155.4064
338.2680, 155.4763
338.7501, 155.5680
339.2322, 155.6917
339.7143, 155.5997
340.1964, 155.2165
340.6786, 154.7863
341.1607, 154.7008
341.6428, 154.9942
342.1249, 155.1343
342.6070, 154.9049
343.0891, 154.3973
343.5713, 153.9754
344.0534, 153.6283
344.5355, 153.4581
345.0176, 153.6993
345.4997, 154.2696
345.9818, 154.6055
346.4640, 154.5287
346.9461, 154.2388
347.4282, 154.1195
347.9103, 154.1601
348.3924, 154.2099
348.8745, 154.2140
349.3567, 154.1521
349.8388, 153.9321
350.3209, 153.4973
350.8030, 153.0690
351.2851, 152.9297
351.7672, 153.0134
352.2494, 153.1196
352.7315, 153.2038
353.2136, 153.2277
353.6957, 153.0635
354.1778, 152.6931
354.6599, 152.4498
355.1421, 152.7438
355.6242, 153.3033
356.1063, 153.7162
356.5884, 153.7259
357.0705, 153.6311
357.5526, 153.6458
358.0348, 153.7468
358.5169, 153.7936
358.9990, 153.5836
359.4811, 153.3545
359.9632, 153.3369
360.4453, 153.7633
360.9275, 154.0972
361.4096, 153.9850
361.8917, 153.6165
362.3738, 153.4298
362.8559, 153.6871
363.3380, 154.0560
363.8202, 154.4009
364.3023, 154.7069
364.7844, 154.9623
365.2665, 155.1603
365.7486, 155.3082
366.2307, 155.4148
366.7129, 155.4927
367.1950, 155.5207
367.6771, 155.4690
368.1592, 155.3350
368.6413, 155.2594
369.1234, 155.3734
369.6056, 155.4502
370.0877, 155.3298
370.5698, 154.8840
371.0519, 154.4608
371.5340, 154.0677
372.0161, 153.7151
372.4983, 153.4515
372.9804, 153.3471
373.4625, 153.1985
373.9446, 152.8648
374.4267, 152.2412
374.9088, 151.8857
375.3910, 151.8785
375.8731, 152.0381
376.3552, 152.1016
376.8373, 152.0642
377.3194, 151.9645
377.8015, 151.8191
378.2837, 151.6231
378.7658, 151.3497
379.2479, 150.9954
379.7300, 150.5714
380.2121, 150.0129
380.6942, 149.3537
381.1764, 148.8676
381.6585, 148.6504
382.1406, 148.5878
382.6227, 148.5123
383.1048, 148.4169
383.5869, 148.2435
384.0691, 147.9364
384.5512, 147.5274
385.0333, 147.1019
385.5154, 146.6721
385.9975, 146.1795
386.4796, 145.4631
386.9618, 144.6303
387.4439, 143.9411
387.9260, 143.6194
388.4081, 143.4343
388.8902, 143.1986
389.3723, 142.9117
389.8545, 142.5945
390.3366, 142.2722
390.8187, 141.9206
391.3008, 141.5041
391.7829, 140.9232
392.2650, 140.4052
392.7472, 140.0720
393.2293, 139.8804
393.7114, 139.7036
394.1935, 139.5184
394.6756, 139.3205
395.1577, 139.1062
395.6399, 138.8707
396.1220, 138.6308
396.6041, 138.3775
397.0862, 138.1234
397.5683, 137.8843
398.0504, 137.6272
398.5326, 137.4179
399.0147, 137.2656
399.4968, 137.1689
399.9789, 137.1281
400.4610, 137.2342
400.9431, 137.3043
401.4253, 137.1940
401.9074, 136.7222
402.3895, 136.4733
402.8716, 136.5646
403.3537, 136.8591
403.8358, 137.0131
404.3180, 136.9852
404.8001, 136.9375
405.2822, 136.9440
405.7643, 137.0087
406.2464, 137.0359
406.7285, 137.0321
407.2107, 136.9803
407.6928, 136.8382
408.1749, 136.6088
408.6570, 136.3980
409.1391, 136.2255
409.6212, 136.0989
410.1034, 136.0535
410.5855, 136.0884
411.0676, 136.1392
411.5497, 136.2160
412.0318, 136.2705
412.5139, 136.1558
412.9961, 135.8147
413.4782, 135.4497
413.9603, 135.2928
414.4424, 135.2818
414.9245, 135.2742
415.4066, 135.2131
415.8888, 135.1130
416.3709, 134.9362
416.8530, 134.6869
417.3351, 134.5404
417.8172, 134.7391
418.2993, 135.0186
418.7815, 135.1191
419.2636, 134.8090
419.7457, 134.5259
420.2278, 134.4904
420.7099, 134.6137
421.1920, 134.6711
421.6742, 134.5908
422.1563, 134.4497
422.6384, 134.2804
423.1205, 134.0893
423.6026, 133.8616
424.0847, 133.5212
424.5669, 133.1846
425.0490, 132.9709
425.5311, 132.9873
426.0132, 132.9654
426.4953, 132.8179
426.9774, 132.5841
427.4596, 132.5593
427.9417, 132.9044
428.4238, 133.1752
428.9059, 133.0776
429.3880, 132.5080
429.8701, 132.0829
430.3523, 131.8151
430.8344, 131.6994
431.3165, 131.7754
431.7986, 132.0573
432.2807, 132.3187
432.7628, 132.4749
433.2450, 132.5547
433.7271, 132.6644
434.2092, 132.8069
434.6913, 132.9312
435.1734, 132.9561
435.6555, 132.9298
436.1377, 132.9904
436.6198, 133.1796
437.1019, 133.4213
437.5840, 133.6163
438.0661, 133.7907
438.5482, 134.0168
439.0304, 134.3588
439.5125, 134.7516
439.9946, 135.1789
440.4767, 135.6413
440.9588, 135.9733
441.4409, 135.9682
441.9231, 135.8430
442.4052, 135.8073
442.8873, 135.9786
443.3694, 136.1700
443.8515, 136.2023
444.3336, 136.1949
444.8158, 136.4930
445.2979, 137.6702
445.7800, 138.7185
446.2621, 139.1696
446.7442, 138.7159
447.2263, 138.6637
447.7085, 139.2920
448.1906, 140.1331
448.6727, 140.7495
449.1548, 141.0890
449.6369, 141.2955
450.1190, 141.3242
450.6012, 141.2407
451.0833, 141.3302
451.5654, 141.6200
452.0475, 142.0008
452.5296, 142.4426
453.0117, 142.9464
453.4939, 143.4332
453.9760, 143.9207
454.4581, 144.3296
454.9402, 144.5409
455.4223, 144.5710
455.9044, 144.5468
456.3866, 144.4729
456.8687, 144.3995
457.3508, 144.4685
457.8329, 144.6541
458.3150, 144.7610
458.7971, 144.5384
459.2793, 144.2092
459.7614, 144.0870
460.2435, 144.2532
460.7256, 144.4580
461.2077, 144.5896
461.6898, 144.6340
462.1720, 144.5708
462.6541, 144.2313
463.1362, 143.9324
463.6183, 143.8500
464.1004, 143.9616
464.5826, 144.0224
465.0647, 143.8668
465.5468, 143.7200
466.0289, 143.7253
466.5110, 144.0892
466.9931, 144.2352
467.4753, 143.9147
467.9574, 143.4726
468.4395, 143.4170
468.9216, 144.0027
469.4037, 144.5115
469.8858, 144.7765
470.3680, 144.8178
470.8501, 144.7874
471.3322, 144.6154
471.8143, 144.5664
472.2964, 144.9097
472.7785, 145.6497
473.2607, 146.2186
473.7428, 146.5871
474.2249, 146.7420
474.7070, 146.5098
475.1891, 145.9711
475.6712, 145.6450
476.1534, 145.9156
476.6355, 146.4223
477.1176, 146.5656
477.5997, 146.3734
478.0818, 146.0847
478.5639, 145.7919
479.0461, 145.5295
479.5282, 145.3343
480.0103, 145.2049
480.4924, 145.1668
480.9745, 145.2980
481.4566, 145.5136
481.9388, 145.6889
482.4209, 145.9003
482.9030, 145.9456
483.3851, 145.6528
483.8672, 145.0522
484.3493, 144.5653
484.8315, 144.3970
485.3136, 144.2381
485.7957, 143.9162
486.2778, 143.2528
486.7599, 142.8176
487.2420, 142.7468
487.7242, 142.8081
488.2063, 142.6611
488.6884, 142.2342
489.1705, 141.8136
489.6526, 141.4574
490.1347, 141.1611
490.6169, 140.8952
491.0990, 140.6614
491.5811, 140.4423
492.0632, 140.2398
492.5453, 140.0466
493.0274, 139.8331
493.5096, 139.6040
493.9917, 139.3189
494.4738, 138.8631
494.9559, 138.3104
495.4380, 137.8511
495.9201, 137.6860
496.4023, 137.5177
496.8844, 136.9576
497.3665, 136.1211
497.8486, 135.4422
498.3307, 135.3016
498.8128, 135.3003
499.2950, 135.1707
499.7771, 134.8572
500.2592, 134.5107
500.7413, 134.1882
501.2234, 133.8453
501.7055, 133.4416
502.1877, 132.8389
502.6698, 132.3338
503.1519, 132.0068
503.6340, 131.8067
504.1161, 131.5520
504.5982, 131.2534
505.0804, 130.8745
505.5625, 130.3648
506.0446, 129.7080
506.5267, 129.1630
507.0088, 128.7115
507.4909, 128.4076
507.9731, 128.4444
508.4552, 128.7802
508.9373, 128.7218
509.4194, 128.0221
509.9015, 127.0961
510.3836, 126.6996
510.8658, 126.7301
511.3479, 126.7080
511.8300, 126.3320
512.3121, 125.7917
512.7943, 125.2749
513.2764, 124.7905
513.7585, 124.3837
514.2406, 124.1151
514.7227, 123.9214
515.2048, 123.7650
515.6870, 123.7185
516.1691, 123.5485
516.6512, 123.0657
517.1333, 122.4348
517.6154, 121.9253
518.0975, 121.7267
518.5797, 121.4951
519.0618, 121.0964
519.5439, 120.5553
520.0260, 120.2147
520.5081, 120.2110
520.9902, 120.2036
521.4724, 119.9428
521.9545, 119.3206
522.4366, 119.0535
522.9187, 119.2502
523.4008, 119.5915
523.8829, 119.7159
524.3651, 119.6250
524.8472, 119.2856
525.3293, 118.6144
525.8114, 117.7853
526.2935, 117.0484
526.7756, 116.4185
527.2578, 115.9549
527.7399, 115.7522
528.2220, 115.7001
528.7041, 115.7139
529.1862, 115.7915
529.6683, 115.7970
530.1505, 115.6118
530.6326, 115.3300
531.1147, 115.0377
531.5968, 114.6815
532.0789, 114.4199
532.5610, 114.3072
533.0432, 114.3144
533.5253, 114.3886
534.0074, 114.7840
534.4895, 114.9370
534.9716, 114.5600
535.4537, 113.6838
535.9359, 113.4019
536.4180, 113.9817
536.9001, 114.6474
537.3822, 114.8635
537.8643, 114.5874
538.3464, 114.4270
538.8286, 114.4209
539.3107, 114.5190
539.7928, 114.6946
540.2749, 114.9307
540.7570, 115.1263
541.2391, 115.2069
541.7213, 115.2797
542.2034, 115.4279
542.6855, 115.6786
543.1676, 116.1437
543.6497, 117.2328
544.1318, 118.3364
544.6140, 118.8567
545.0961, 118.7130
545.5782, 118.6328
546.0603, 118.8685
546.5424, 119.3211
547.0245, 119.9101
547.5067, 120.8178
547.9888, 121.5947
548.4709, 122.1067
548.9530, 122.4982
549.4351, 123.0073
549.9172, 123.6335
550.3994, 124.3945
550.8815, 125.3677
551.3636, 126.4913
551.8457, 127.2824
552.3278, 127.6823
552.8099, 128.0504
553.2921, 128.6284
553.7742, 129.3865
554.2563, 130.1712
554.7384, 130.9908
555.2205, 131.7553
555.7026, 132.2807
556.1848, 132.6998
556.6669, 133.2987
557.1490, 134.2319
557.6311, 135.2547
558.1132, 136.3055
558.5953, 137.2991
559.0775, 138.0652
559.5596, 138.1103
560.0417, 138.2902
560.5238, 139.1558
561.0059, 140.7296
561.4880, 141.9335
561.9702, 142.4216
562.4523, 142.6411
562.9344, 142.7937
563.4165, 142.8705
563.8986, 142.9021
564.3807, 142.8816
564.8629, 142.8292
565.3450, 142.7710
565.8271, 142.7098
566.3092, 142.6488
566.7913, 142.6222
567.2734, 142.5612
567.7556, 142.2869
568.2377, 141.8188
568.7198, 141.3225
569.2019, 140.8257
569.6840, 140.3789
570.1661, 140.0925
570.6483, 139.9570
571.1304, 139.7961
571.6125, 139.6054
572.0946, 139.2755
572.5767, 138.6388
573.0588, 137.4474
573.5410, 136.5283
574.0231, 136.3003
574.5052, 136.4162
574.9873, 136.4444
575.4694, 136.4459
575.9515, 136.2146
576.4337, 135.5839
576.9158, 134.7139
577.3979, 134.2065
577.8800, 134.1819
578.3621, 134.1658
578.8442, 133.9083
579.3264, 133.4644
579.8085, 133.3638
580.2906, 133.6401
580.7727, 133.8891
581.2548, 133.6522
581.7369, 133.1361
582.2190, 132.8664
582.7011, 132.9289
583.1832, 133.1322
583.6653, 133.3437
584.1475, 133.5745
584.6296, 133.8421
585.1117, 134.2756
585.5938, 134.6133
586.0759, 134.6666
586.5580, 134.5325
587.0402, 134.4757
587.5223, 134.5094
588.0044, 134.6664
588.4865, 134.9875
588.9686, 135.4754
589.4507, 135.9127
589.9329, 136.2755
590.4150, 136.6218
590.8971, 136.9990
591.3792, 137.4147
591.8613, 137.7503
592.3434, 137.9798
592.8256, 138.2228
593.3077, 138.6572
593.7898, 139.2398
594.2719, 139.8005
594.7540, 140.3303
595.2361, 140.7704
595.7183, 140.9428
596.2004, 140.9690
596.6825, 141.1319
597.1646, 141.7068
597.6467, 142.3282
598.1288, 142.7757
598.6110, 143.0669
599.0931, 143.4010
599.5752, 143.9993
600.0573, 144.4945
600.5394, 144.6676
601.0215, 144.3723
601.5037, 144.3493
601.9858, 144.7188
602.4679, 145.1897
602.9500, 145.5085
603.4321, 145.6756
603.9142, 145.6797
604.3964, 145.4652
604.8785, 145.2153
605.3606, 145.2551
605.8427, 145.5339
606.3248, 145.8138
606.8069, 146.0010
607.2891, 146.1525
607.7712, 146.3419
608.2533, 146.5545
608.7354, 146.7463
609.2175, 146.8368
609.6996, 146.9416
610.1818, 147.1040
610.6639, 147.3246
611.1460, 147.6790
611.6281, 148.4518
612.1102, 149.1536
612.5923, 149.4531
613.0745, 149.0317
613.5566, 149.0093
614.0387, 149.5242
614.5208, 150.2502
615.0029, 150.8147
615.4850, 151.2188
615.9672, 151.4407
616.4493, 151.4315
616.9314, 151.3226
617.4135, 151.3252
617.8956, 151.4293
618.3777, 151.5969
618.8599, 151.7935
619.3420, 152.0553
619.8241, 152.5411
620.3062, 153.1721
620.7883, 153.5672
621.2704, 153.2479
621.7526, 152.8577
622.2347, 152.8345
622.7168, 153.3298
623.1989, 153.5372
623.6810, 153.1646
624.1631, 152.6597
624.6453, 152.3329
625.1274, 152.3178
625.6095, 152.0613
626.0916, 151.4692
626.5737, 150.7595
627.0558, 150.2416
627.5380, 149.9073
628.0201, 149.6115
628.5022, 149.3986
628.9843, 149.0732
629.4664, 148.1212
629.9485, 146.7600
630.4307, 145.6918
630.9128, 145.5840
631.3949, 145.6574
631.8770, 145.3047
632.3591, 144.5718
632.8412, 143.8577
633.3234, 143.3407
633.8055, 142.8342
634.2876, 142.2493
634.7697, 141.5647
635.2518, 140.8576
635.7339, 140.0387
636.2161, 139.3029
636.6982, 138.8604
637.1803, 138.7780
637.6624, 138.4754
638.1445, 137.8619
638.6266, 137.1891
639.1088, 136.8590
639.5909, 136.7852
640.0730, 136.5640
640.5551, 136.0270
641.0372, 135.4101
641.5193, 134.9442
642.0015, 134.5950
642.4836, 134.2715
642.9657, 133.8651
643.4478, 133.5478
643.9299, 133.4076
644.4120, 133.4360
644.8942, 133.5511
645.3763, 134.0433
645.8584, 134.3029
646.3405, 134.0469
646.8226, 133.2375
647.3047, 132.5960
647.7869, 132.1169
648.2690, 131.8294
648.7511, 131.8477
649.2332, 132.1268
649.7153, 132.2625
650.1974, 132.2061
650.6796, 132.1323
651.1617, 132.3909
651.6438, 132.7346
652.1259, 132.6338
652.6080, 131.7214
653.0901, 130.8720
653.5723, 130.8021
654.0544, 131.1105
654.5365, 131.1839
655.0186, 130.6222
655.5007, 130.0848
655.9828, 129.7065
656.4650, 129.4608
656.9471, 129.2861
657.4292, 129.2351
657.9113, 129.1277
658.3934, 128.8251
658.8755, 128.4089
659.3577, 128.4523
659.8398, 128.9806
660.3219, 129.4718
660.8040, 129.4889
661.2861, 129.2496
661.7682, 129.1359
662.2504, 129.1675
662.7325, 129.3849
663.2146, 130.1979
663.6967, 130.9950
664.1788, 131.1127
664.6609, 130.1532
665.1431, 129.3659
665.6252, 129.1273
666.1073, 129.1694
666.5894, 129.2042
667.0715, 129.1544
667.5536, 129.2976
668.0358, 129.7872
668.5179, 130.3319
669.0000, 130.3034
669.4821, 129.6864
669.9642, 129.3097
670.4464, 129.5314
670.9285, 129.9750
671.4106, 129.9283
671.8927, 129.5199
672.3748, 129.2101
672.8569, 129.3386
673.3391, 129.5777
673.8212, 129.6756
674.3033, 129.6553
674.7854, 129.7075
675.2675, 129.9600
675.7496, 130.2393
676.2318, 130.5109
676.7139, 130.7927
677.1960, 130.8600
677.6781, 130.6085
678.1602, 130.3327
678.6423, 130.2388
679.1245, 130.3269
679.6066, 130.4816
680.0887, 130.7258
680.5708, 130.8711
681.0529, 130.5455
681.5350, 130.0065
682.0172, 129.8304
682.4993, 130.2288
682.9814, 130.6882
683.4635, 130.8588
683.9456, 130.8598
684.4277, 130.8386
684.9099, 130.7976
685.3920, 130.7840
685.8741, 130.8184
686.3562, 130.8835
686.8383, 130.9483
687.3204, 131.0087
687.8026, 131.0733
688.2847, 131.1258
688.7668, 131.1936
689.2489, 131.4356
689.7310, 131.8382
690.2131, 132.0775
690.6953, 131.8760
691.1774, 131.4684
691.6595, 131.0966
692.1416, 130.8016
692.6237, 130.8099
693.1058, 131.6700
693.5880, 132.5422
694.0701, 132.8055
694.5522, 132.3618
695.0343, 132.0520
695.5164, 132.1828
695.9985, 132.2947
696.4807, 132.1080
696.9628, 131.5036
697.4449, 131.2191
697.9270, 131.3015
698.4091, 131.5734
698.8912, 131.9754
699.3734, 132.4435
699.8555, 132.6017
700.3376, 132.3395
700.8197, 132.1138
701.3018, 132.5352
701.7839, 133.2351
702.2661, 133.6601
702.7482, 133.4896
703.2303, 133.2975
703.7124, 133.2808
704.1945, 133.3810
704.6766, 133.5086
705.1588, 133.6467
705.6409, 133.8371
706.1230, 134.1507
706.6051, 134.4821
707.0872, 134.5254
707.5693, 134.2523
708.0515, 134.0924
708.5336, 134.2520
709.0157, 134.5581
709.4978, 134.5811
709.9799, 134.4101
710.4620, 134.4172
710.9442, 135.0418
711.4263, 135.7237
711.9084, 136.0148
712.3905, 135.9582
712.8726, 135.9417
713.3547, 136.1386
713.8369, 136.3343
714.3190, 136.4240
714.8011, 136.4030
715.2832, 136.4849
715.7653, 136.7224
716.2474, 136.9309
716.7296, 136.9657
717.2117, 136.8528
717.6938, 136.7862
718.1759, 136.7694
718.6580, 136.8224
719.1401, 137.0168
719.6223, 137.2682
720.1044, 137.4257
720.5865, 137.4353
721.0686, 137.5621
721.5507, 138.1514
722.0328, 138.7859
722.5150, 139.0876
722.9971, 138.6942
723.4792, 138.5497
723.9613, 138.7276
724.4434, 139.0742
724.9255, 139.4324
725.4077, 139.8028
725.8898, 140.1828
726.3719, 140.6004
726.8540, 140.9285
727.3361, 140.9141
727.8182, 140.6694
728.3004, 140.4835
728.7825, 140.4536
729.2646, 140.5080
729.7467, 140.5805
730.2288, 140.7082
730.7109, 140.9572
731.1931, 141.2705
731.6752, 141.8203
732.1573, 142.8919
732.6394, 144.1603
733.1215, 144.6184
733.6036, 144.0437
734.0858, 143.5623
734.5679, 143.5605
735.0500, 143.8562
735.5321, 144.0120
736.0142, 144.0390
736.4963, 144.0050
736.9785, 143.8026
737.4606, 143.6632
737.9427, 143.9038
738.4248, 144.4376
738.9069, 144.8308
739.3890, 144.7215
739.8712, 144.6302
740.3533, 144.8327
740.8354, 145.3134
741.3175, 145.6536
741.7996, 145.8079
742.2817, 145.9336
742.7639, 146.0859
743.2460, 146.2743
743.7281, 146.6435
744.2102, 147.1953
744.6923, 147.6123
745.1744, 147.5113
745.6566, 147.2001
746.1387, 147.0434
746.6208, 147.0742
747.1029, 147.2030
747.5850, 147.4536
748.0671, 147.7357
748.5493, 147.9763
749.0314, 148.1263
749.5135, 148.3957
749.9956, 148.8826
750.4777, 149.3346
750.9598, 149.4977
751.4420, 149.3763
751.9241, 149.4344
752.4062, 149.7139
752.8883, 150.0832
753.3704, 150.5969
753.8525, 151.0529
754.3347, 151.0067
754.8168, 150.1993
755.2989, 149.6197
755.7810, 150.0756
756.2631, 150.8844
756.7452, 151.3516
757.2274, 151.1665
757.7095, 150.9821
758.1916, 150.7721
758.6737, 150.5907
759.1558, 150.5071
759.6379, 150.5214
760.1201, 150.5818
760.6022, 150.6704
761.0843, 150.8290
761.5664, 151.1829
762.0485, 151.6392
762.5306, 152.0028
763.0128, 152.2040
763.4949, 152.3288
763.9770, 152.3330
764.4591, 152.3189
764.9412, 152.4436
765.4233, 152.8692
765.9055, 153.2480
766.3876, 153.5598
766.8697, 153.8052
767.3518, 153.9509
767.8339, 153.9845
768.3160, 154.1291
768.7982, 154.4881
769.2803, 154.8958
769.7624, 155.1051
770.2445, 155.1537
770.7266, 155.1378
771.2087, 154.9236
771.6909, 154.8381
772.1730, 155.1955
772.6551, 155.7981
773.1372, 156.1774
773.6193, 156.0456
774.1014, 156.0291
774.5836, 156.3016
775.0657, 156.7287
775.5478, 156.8818
776.0299, 156.7448
776.5120, 156.6927
776.9941, 156.9418
777.4763, 157.2700
777.9584, 157.2400
778.4405, 156.9604
778.9226, 156.7772
779.4047, 156.8024
779.8868, 157.0195
780.3690, 157.6203
780.8511, 158.4574
781.3332, 158.8522
781.8153, 158.3573
782.2974, 158.0902
782.7795, 158.4236
783.2617, 159.1834
783.7438, 159.6733
784.2259, 159.8917
784.7080, 160.1013
785.1901, 160.5349
785.6722, 160.9577
786.1544, 160.8829
786.6365, 160.4419
787.1186, 160.1180
787.6007, 160.1941
788.0828, 160.4149
788.5649, 160.7683
789.0471, 161.2047
789.5292, 161.3647
790.0113, 161.0481
790.4934, 160.8257
790.9755, 160.9174
791.4576, 161.2523
791.9398, 161.5583
792.4219, 161.8315
792.9040, 162.0187
793.3861, 162.0164
793.8682, 161.9534
794.3503, 161.9558
794.8325, 162.0326
795.3146, 162.2192
795.7967, 162.6867
796.2788, 163.1158
796.7609, 163.3013
797.2430, 163.2814
797.7252, 163.4324
798.2073, 163.8562
798.6894, 164.1950
799.1715, 164.2568
799.6536, 164.1271
800.1357, 164.1276
800.6179, 164.2497
801.1000, 164.4018
801.5821, 164.4383
802.0642, 164.5468
802.5463, 165.0659
803.0284, 165.8911
803.5106, 166.3964
803.9927, 165.9969
804.4748, 165.6408
804.9569, 165.7273
805.4390, 166.1877
805.9211, 166.3858
806.4033, 166.2424
806.8854, 166.1749
807.3675, 166.4866
807.8496, 166.9726
808.3317, 167.0155
808.8138, 166.6909
809.2960, 166.4272
809.7781, 166.5264
810.2602, 166.7370
810.7423, 166.9289
811.2244, 167.0917
811.7065, 167.1844
812.1887, 166.9938
812.6708, 167.0178
813.1529, 167.5310
813.6350, 168.4002
814.1171, 168.8139
814.5992, 168.7540
815.0814, 168.5475
815.5635, 168.2427
816.0456, 167.9630
816.5277, 167.8530
817.0098, 167.9338
817.4919, 168.3043
817.9741, 169.4959
818.4562, 170.5090
818.9383, 170.8278
819.4204, 170.5010
819.9025, 170.0782
820.3846, 169.3758
820.8668, 168.9956
821.3489, 169.2797
821.8310, 169.9587
822.3131, 170.1060
822.7952, 169.7795
823.2773, 169.4545
823.7595, 169.3961
824.2416, 169.4438
824.7237, 169.4272
825.2058, 169.3877
825.6879, 169.4512
826.1700, 169.7521
826.6522, 170.0636
827.1343, 170.4105
827.6164, 170.7137
828.0985, 170.6209
828.5806, 170.0384
829.0627, 169.6010
829.5449, 169.5273
830.0270, 169.7133
830.5091, 170.0916
830.9912, 170.5782
831.4733, 170.9024
831.9554, 170.7842
832.4376, 170.6305
832.9197, 170.7303
833.4018, 170.9584
833.8839, 170.9674
834.3660, 170.6147
834.8481, 170.2601
835.3303, 169.8973
835.8124, 169.6286
836.2945, 169.7373
836.7766, 170.1942
837.2587, 170.6717
837.7408, 171.0821
838.2230, 171.4374
838.7051, 171.8262
839.1872, 172.1517
839.6693, 172.2495
840.1514, 171.6397
840.6335, 171.3107
841.1157, 171.7144
841.5978, 172.3967
842.0799, 172.7552
842.5620, 172.7716
843.0441, 172.4670
843.5262, 171.7127
844.0084, 170.9754
844.4905, 171.1421
844.9726, 171.8517
845.4547, 172.2037
845.9368, 171.8241
846.4189, 171.3836
846.9011, 171.1867
847.3832, 171.1787
847.8653, 171.3195
848.3474, 171.9043
848.8295, 172.0344
849.3116, 171.4806
849.7938, 170.8172
850.2759, 170.8133
850.7580, 171.3548
851.2401, 171.5092
851.7222, 171.1216
852.2043, 170.6048
852.6865, 170.2529
853.1686, 170.0266
853.6507, 169.9025
854.1328, 169.9129
854.6149, 169.8936
855.0970, 169.7593
855.5792, 169.6275
856.0613, 169.5896
856.5434, 169.6642
857.0255, 169.6893
857.5076, 169.6751
857.9897, 169.5151
858.4719, 168.9299
858.9540, 168.2068
859.4361, 167.8452
859.9182, 167.8886
860.4003, 168.0224
860.8824, 168.3136
861.3646, 168.4657
861.8467, 168.2365
862.3288, 167.6222
862.8109, 167.0559
863.2930, 166.5411
863.7751, 166.0838
864.2573, 165.6659
864.7394, 165.3125
865.2215, 165.1693
865.7036, 165.2098
866.1857, 165.2368
866.6678, 165.1981
867.1500, 165.0432
867.6321, 164.6832
868.1142, 164.1489
868.5963, 163.6621
869.0784, 163.2027
869.5605, 162.8593
870.0427, 162.6902
870.5248, 162.6328
871.0069, 162.4703
871.4890, 162.2106
871.9711, 161.9466
872.4532, 161.8418
872.9354, 161.6120
873.4175, 160.7927
873.8996, 159.6439
874.3817, 158.7181
874.8638, 158.2939
875.3459, 158.0116
875.8281, 157.8946
876.3102, 157.8142
876.7923, 157.5087
877.2744, 156.9609
877.7565, 156.4628
878.2386, 156.0895
878.7208, 155.7249
879.2029, 155.1500
879.6850, 154.4838
880.1671, 153.9306
880.6492, 153.5446
881.1313, 153.2782
881.6135, 153.3195
882.0956, 153.3413
882.5777, 152.9877
883.0598, 152.1016
883.5419, 151.4673
884.0240, 151.1582
884.5062, 150.9304
884.9883, 150.5241
885.4704, 150.0135
885.9525, 149.5474
886.4346, 149.1451
886.9167, 148.8240
887.3989, 148.6873
887.8810, 148.5603
888.3631, 148.2963
888.8452, 147.8603
889.3273, 147.5158
889.8094, 147.3070
890.2916, 147.0570
890.7737, 146.6111
891.2558, 146.0372
891.7379, 145.6092
892.2200, 145.3104
892.7021, 145.0320
893.1843, 144.7396
893.6664, 144.4100
894.1485, 144.0055
894.6306, 143.5395
895.1127, 143.1115
895.5948, 142.6944
896.0770, 142.3914
896.5591, 142.2969
897.0412, 142.2814
897.5233, 141.8987
898.0054, 141.2267
898.4875, 140.7647
898.9697, 140.8623
899.4518, 141.0003
899.9339, 140.6660
900.4160, 140.0920
900.8981, 139.6768
901.3802, 139.7133
901.8624, 139.6122
902.3445, 139.2954
902.8266, 138.8726
903.3087, 138.4595
903.7908, 138.0594
904.2729, 137.7615
904.7551, 137.5712
905.2372, 137.5297
905.7193, 137.9226
906.2014, 138.3549
906.6835, 138.3173
907.1656, 137.5460
907.6478, 137.0206
908.1299, 137.0687
908.6120, 137.1705
909.0941, 136.9896
909.5762, 136.5253
910.0583, 136.2139
910.5405, 136.0576
911.0226, 135.9122
911.5047, 135.5658
911.9868, 135.2456
912.4689, 135.2850
912.9510, 135.6334
913.4332, 135.8560
913.9153, 135.6877
914.3974, 135.5292
914.8795, 135.5081
915.3616, 135.5864
915.8438, 135.5806
916.3259, 135.4887
916.8080, 135.5367
917.2901, 135.8569
917.7722, 136.2847
918.2543, 136.7389
918.7365, 137.1299
919.2186, 137.2798
919.7007, 136.8862
920.1828, 136.5610
920.6649, 136.3699
921.1470, 136.3152
921.6292, 136.4618
922.1113, 136.8305
922.5934, 136.9983
923.0755, 136.8818
923.5576, 136.7699
924.0397, 137.0440
924.5219, 137.4764
925.0040, 137.7624
925.4861, 137.8425
925.9682, 137.8836
926.4503, 137.8063
926.9324, 137.8302
927.4146, 138.1012
927.8967, 138.6190
928.3788, 139.0674
928.8609, 139.4492
929.3430, 139.7923
929.8251, 140.1426
930.3073, 140.4521
930.7894, 140.5888
931.2715, 140.6116
931.7536, 140.7545
932.2357, 141.1730
932.7178, 141.6423
933.2000, 142.1793
933.6821, 142.6917
934.1642, 142.9035
934.6463, 142.8060
935.1284, 142.8194
935.6105, 143.0684
936.0927, 143.4408
936.5748, 143.7720
937.0569, 144.1462
937.5390, 144.7295
938.0211, 145.8571
938.5032, 146.5838
938.9854, 146.3987
939.4675, 146.1199
939.9496, 146.4795
940.4317, 147.5011
940.9138, 148.2724
941.3959, 148.7510
941.8781, 149.1631
942.3602, 149.6943
942.8423, 150.2513
943.3244, 150.6619
943.8065, 150.9367
944.2886, 151.4724
944.7708, 152.6558
945.2529, 153.7578
945.7350, 154.5373
946.2171, 155.0613
946.6992, 155.5580
947.1813, 156.0330
947.6635, 156.6771
948.1456, 157.7434
948.6277, 158.7744
949.1098, 159.2160
949.5919, 159.3342
950.0740, 159.6019
950.5562, 160.1977
951.0383, 160.8737
951.5204, 161.6621
952.0025, 162.4642
952.4846, 163.1445
952.9667, 163.7215
953.4489, 164.3263
953.9310, 164.9760
954.4131, 165.6633
954.8952, 166.3397
955.3773, 167.0943
955.8594, 168.0280
956.3416, 169.1810
956.8237, 170.2928
957.3058, 171.4062
957.7879, 172.3691
958.2700, 173.0165
958.7521, 173.4819
959.2343, 174.2928
959.7164, 175.3863
960.1985, 176.4400
960.6806, 177.1498
961.1627, 177.8921
961.6448, 178.9075
962.1270, 180.1065
962.6091, 181.2543
963.0912, 182.2848
963.5733, 183.4333
964.0554, 184.7556
964.5375, 186.1564
965.0197, 187.3893
965.5018, 188.5949
965.9839, 190.2003
966.4660, 192.3087
966.9481, 194.4731
967.4302, 196.5128
967.9124, 198.4425
968.3945, 200.1982
968.8766, 201.7793
969.3587, 203.5594
969.8408, 205.5845
970.3229, 207.6683
970.8051, 209.6456
971.2872, 211.6697
971.7693, 214.1267
972.2514, 216.9075
972.7335, 219.5818
973.2156, 221.8386
973.6978, 224.1190
974.1799, 226.4723
974.6620, 228.9744
975.1441, 231.8328
975.6262, 235.0772
976.1083, 237.8839
976.5905, 239.9944
977.0726, 242.1434
977.5547, 245.3045
978.0368, 248.9278
978.5189, 252.3190
979.0010, 255.3653
979.4832, 258.1552
979.9653, 260.5919
980.4474, 262.9536
980.9295, 265.3416
981.4116, 267.7488
981.8937, 270.1455
982.3759, 272.5024
982.8580, 274.5182
983.3401, 275.7690
983.8222, 276.8356
984.3043, 278.2502
984.7864, 279.8125
985.2686, 280.9518
985.7507, 281.6068
986.2328, 281.8985
986.7149, 281.7694
987.1970, 281.4282
987.6791, 281.2608
988.1613, 281.1303
988.6434, 280.6359
989.1255, 279.7104
989.6076, 278.4378
990.0897, 276.7670
990.5718, 274.8462
991.0540, 272.7770
991.5361, 270.5580
992.0182, 268.0238
992.5003, 265.0418
992.9824, 262.4185
993.4645, 260.9442
993.9467, 259.8224
994.4288, 257.7487
994.9109, 254.8981
995.3930, 251.8124
995.8751, 248.1483
996.3572, 244.9597
996.8394, 242.6952
997.3215, 240.7654
997.8036, 238.3519
998.2857, 235.4510
998.7678, 232.6561
999.2499, 230.0959
999.7321, 227.5572
1000.214, 224.7578
1000.696, 221.9966
1001.178, 219.6556
1001.661, 217.8481
1002.143, 215.7609
1002.625, 213.2491
1003.107, 210.6626
1003.589, 208.1037
1004.071, 205.5983
1004.553, 203.2562
1005.035, 201.0838
1005.517, 199.2059
1006.000, 197.9373
1006.482, 196.5931
1006.964, 194.6931
1007.446, 192.5749
1007.928, 190.7646
1008.410, 189.3589
1008.892, 187.8198
1009.374, 186.0935
1009.857, 184.3763
1010.339, 182.8852
1010.821, 181.5595
1011.303, 180.3360
1011.785, 179.1969
1012.267, 178.1310
1012.749, 177.2575
1013.231, 176.3020
1013.713, 175.0897
1014.196, 173.7533
1014.678, 172.8226
1015.160, 172.2493
1015.642, 171.5334
1016.124, 170.4282
1016.606, 169.3317
1017.088, 168.6840
1017.570, 168.2165
1018.052, 167.5904
1018.535, 166.6283
1019.017, 165.8795
1019.499, 165.4525
1019.981, 164.9565
1020.463, 163.9257
1020.945, 162.6297
1021.427, 161.8810
1021.909, 161.5999
1022.392, 161.2524
1022.874, 160.3476
1023.356, 159.5764
1023.838, 159.2837
1024.320, 159.2817
1024.802, 159.2324
1025.284, 159.1375
1025.766, 158.9235
1026.249, 158.5750
1026.731, 158.0984
1027.213, 157.2918
1027.695, 156.4754
1028.177, 156.1073
1028.659, 156.4062
1029.141, 156.3380
1029.623, 155.6424
1030.105, 154.9516
1030.588, 154.6156
1031.070, 154.5234
1031.552, 154.2834
1032.034, 153.9406
1032.516, 153.6701
1032.998, 153.6521
1033.480, 153.6242
1033.962, 153.4248
1034.444, 153.1667
1034.927, 153.0380
1035.409, 153.0880
1035.891, 152.9619
1036.373, 152.6150
1036.855, 152.1985
1037.337, 151.8276
1037.819, 151.4707
1038.301, 151.0466
1038.784, 150.5608
1039.266, 150.2578
1039.748, 150.4068
1040.230, 150.3892
1040.712, 149.9596
1041.194, 149.3389
1041.676, 149.1311
1042.158, 149.2236
1042.641, 149.1461
1043.123, 148.7133
1043.605, 148.2370
1044.087, 148.0035
1044.569, 147.7504
1045.051, 147.1853
1045.533, 146.2270
1046.015, 145.6621
1046.497, 145.5472
1046.979, 145.3441
1047.462, 144.4985
1047.944, 143.5087
1048.426, 143.0553
1048.908, 142.9944
1049.390, 142.9151
1049.872, 142.7437
1050.354, 142.4816
1050.836, 142.1471
1051.319, 141.6925
1051.801, 140.9730
1052.283, 140.0719
1052.765, 139.3586
1053.247, 138.8786
1053.729, 138.4839
1054.211, 138.0161
1054.693, 137.6677
1055.176, 137.6668
1055.658, 137.9195
1056.140, 137.9346
1056.622, 137.7202
1057.104, 137.1476
1057.586, 136.0352
1058.068, 134.8431
1058.550, 134.1008
1059.032, 133.6598
1059.515, 133.3149
1059.997, 133.1983
1060.479, 132.6882
1060.961, 131.4806
1061.443, 130.4480
1061.925, 130.4274
1062.407, 131.0684
1062.889, 131.0484
1063.371, 130.4897
1063.854, 129.9857
1064.336, 129.8138
1064.818, 129.7779
1065.300, 129.9955
1065.782, 130.1971
1066.264, 129.8565
1066.746, 128.9445
1067.228, 128.4866
1067.711, 128.6346
1068.193, 128.9391
1068.675, 129.0632
1069.157, 129.1073
1069.639, 129.1944
1070.121, 129.3256
1070.603, 129.2574
1071.085, 128.8498
1071.568, 128.6520
1072.050, 128.9324
1072.532, 129.3553
1073.014, 129.2432
1073.496, 128.8274
1073.978, 128.6071
1074.460, 128.7920
1074.942, 128.9599
1075.424, 128.8719
1075.906, 128.8850
1076.389, 129.3387
1076.871, 130.1452
1077.353, 130.3658
1077.835, 130.0495
1078.317, 129.6135
1078.799, 129.1064
1079.281, 128.7481
1079.763, 128.7228
1080.245, 128.9284
1080.728, 129.1887
1081.210, 129.5495
1081.692, 129.6866
1082.174, 129.5435
1082.656, 129.3958
1083.138, 129.5493
1083.620, 129.8216
1084.102, 129.9830
1084.585, 130.0339
1085.067, 130.1568
1085.549, 130.4357
1086.031, 130.6797
1086.513, 130.8306
1086.995, 130.9465
1087.477, 131.1863
1087.959, 131.4724
1088.442, 131.5148
1088.924, 131.1445
1089.406, 131.1066
1089.888, 132.3189
1090.370, 133.3437
1090.852, 133.3309
1091.334, 132.4198
1091.816, 131.6332
1092.298, 130.9823
1092.781, 130.6490
1093.263, 130.9274
1093.745, 131.2241
1094.227, 131.0079
1094.709, 130.5989
1095.191, 130.4304
1095.673, 130.5696
1096.155, 130.7928
1096.637, 131.1217
1097.120, 131.3949
1097.602, 131.4631
1098.084, 131.4170
1098.566, 131.3219
1099.048, 131.2058
1099.530, 131.1663
1100.012, 131.3244
1100.494, 131.3811
1100.977, 131.2759
1101.459, 131.1064
1101.941, 131.0603
1102.423, 131.0421
1102.905, 130.7056
1103.387, 130.0150
1103.869, 129.5906
1104.351, 129.9829
1104.833, 130.3827
1105.316, 130.4902
1105.798, 130.3770
1106.280, 130.2540
1106.762, 130.1133
1107.244, 129.8807
1107.726, 129.4738
1108.208, 129.1759
1108.690, 129.2422
1109.172, 129.4650
1109.655, 129.7122
1110.137, 129.9886
1110.619, 129.9590
1111.101, 129.5979
1111.583, 129.3013
1112.065, 129.3536
1112.547, 129.4589
1113.029, 129.2451
1113.512, 128.8798
1113.994, 128.6396
1114.476, 128.6326
1114.958, 128.6455
1115.440, 128.6976
1115.922, 128.7119
1116.404, 128.5036
1116.886, 128.2742
1117.369, 128.4952
1117.851, 129.0530
1118.333, 129.4502
1118.815, 129.5163
1119.297, 129.3603
1119.779, 128.8907
1120.261, 128.3743
1120.743, 128.2218
1121.225, 128.3216
1121.708, 128.2743
1122.190, 128.0436
1122.672, 127.8641
1123.154, 127.8249
1123.636, 127.9176
1124.118, 128.2284
1124.600, 128.6139
1125.082, 128.6233
1125.564, 128.2938
1126.047, 128.0553
1126.529, 128.0338
1127.011, 128.0009
1127.493, 127.7110
1127.975, 127.4018
1128.457, 127.2949
1128.939, 127.3804
1129.421, 127.4152
1129.904, 127.4037
1130.386, 127.2575
1130.868, 126.8444
1131.350, 126.4537
1131.832, 126.4751
1132.314, 126.6738
1132.796, 126.7121
1133.278, 126.4874
1133.760, 126.3159
1134.243, 126.2084
1134.725, 126.1046
1135.207, 125.9730
1135.689, 125.8138
1136.171, 125.5561
1136.653, 125.2786
1137.135, 125.1727
1137.617, 125.6544
1138.099, 125.7028
1138.582, 125.1036
1139.064, 124.4233
1139.546, 124.3083
1140.028, 124.5127
1140.510, 124.4572
1140.992, 124.1459
1141.474, 123.7864
1141.956, 123.3002
1142.439, 123.0111
1142.921, 123.0970
1143.403, 123.2658
1143.885, 122.9973
1144.367, 122.4175
1144.849, 122.0459
1145.331, 121.9520
1145.813, 121.8204
1146.296, 121.4442
1146.778, 121.0184
1147.260, 120.5780
1147.742, 120.1845
1148.224, 120.0726
1148.706, 120.2060
1149.188, 120.2565
1149.670, 120.1463
1150.152, 119.9545
1150.635, 119.6743
1151.117, 119.3863
1151.599, 119.1609
1152.081, 118.9870
1152.563, 118.7393
1153.045, 118.4155
1153.527, 118.2018
1154.009, 118.2489
1154.491, 118.2441
1154.974, 117.7072
1155.456, 117.0711
1155.938, 116.9260
1156.420, 117.3948
1156.902, 117.4763
1157.384, 117.1318
1157.866, 116.7428
1158.348, 116.5317
1158.831, 116.3816
1159.313, 116.1778
1159.795, 115.9420
1160.277, 115.7014
1160.759, 115.3724
1161.241, 115.3175
1161.723, 115.6404
1162.205, 115.8146
1162.688, 115.2355
1163.170, 114.3995
1163.652, 113.9999
1164.134, 113.9378
1164.616, 113.8845
1165.098, 113.7315
1165.580, 113.6822
1166.062, 113.8230
1166.544, 113.8655
1167.026, 113.2719
1167.509, 112.4849
1167.991, 112.4901
1168.473, 113.1654
1168.955, 113.4052
1169.437, 112.3797
1169.919, 111.6500
1170.401, 111.5585
1170.883, 111.6489
1171.366, 111.1541
1171.848, 110.3814
1172.330, 110.0566
1172.812, 110.2546
1173.294, 110.4582
1173.776, 110.5234
1174.258, 110.5049
1174.740, 110.4075
1175.223, 110.2413
1175.705, 110.0543
1176.187, 109.8137
1176.669, 109.3848
1177.151, 108.7102
1177.633, 108.1422
1178.115, 107.9166
1178.597, 107.7292
1179.079, 107.5016
1179.562, 107.1983
1180.044, 106.5851
1180.526, 105.7906
1181.008, 105.3409
1181.490, 105.4859
1181.972, 105.5993
1182.454, 105.3684
1182.936, 105.0471
1183.418, 104.7702
1183.901, 104.5230
1184.383, 104.2366
1184.865, 103.9184
1185.347, 103.6029
1185.829, 103.3484
1186.311, 103.0053
1186.793, 102.4025
1187.275, 101.7681
1187.758, 101.2591
1188.240, 100.8764
1188.722, 100.6351
1189.204, 100.5064
1189.686, 100.2740
1190.168, 99.71278
1190.650, 99.18415
1191.132, 98.90723
1191.615, 98.71777
1192.097, 98.44170
1192.579, 98.07509
1193.061, 97.80557
1193.543, 97.61736
1194.025, 97.32799
1194.507, 96.61174
1194.989, 96.00496
1195.471, 95.85207
1195.953, 95.95893
1196.436, 96.18671
1196.918, 96.55151
1197.400, 96.33105
1197.882, 95.51577
1198.364, 94.65811
1198.846, 94.06935
1199.328, 93.62917
1199.810, 93.34153
1200.293, 93.12940
1200.775, 92.84795
1201.257, 92.49257
1201.739, 92.27867
1202.221, 92.22725
1202.703, 92.16527
1203.185, 91.87284
1203.667, 91.61874
1204.150, 91.67171
1204.632, 91.86000
1205.114, 91.78255
1205.596, 91.43103
1206.078, 91.12582
1206.560, 90.90604
1207.042, 90.77155
1207.524, 90.80828
1208.006, 90.84743
1208.489, 90.81368
1208.971, 90.67971
1209.453, 90.30334
1209.935, 89.67708
1210.417, 89.23634
1210.899, 89.06904
1211.381, 88.98571
1211.863, 88.86433
1212.345, 88.74942
1212.828, 88.69150
1213.310, 88.66924
1213.792, 88.57221
1214.274, 88.40512
1214.756, 88.39158
1215.238, 88.60929
1215.720, 88.83899
1216.202, 89.00761
1216.685, 89.02551
1217.167, 88.71443
1217.649, 88.18507
1218.131, 88.05801
1218.613, 88.30702
1219.095, 88.36958
1219.577, 88.03699
1220.059, 87.67791
1220.542, 87.50726
1221.024, 87.47939
1221.506, 87.61484
1221.988, 87.86459
1222.470, 87.83172
1222.952, 87.54489
1223.434, 87.39017
1223.916, 87.57525
1224.398, 87.69063
1224.880, 87.25972
1225.363, 86.83875
1225.845, 86.90939
1226.327, 87.39393
1226.809, 87.58359
1227.291, 87.50169
1227.773, 87.33228
1228.255, 87.08031
1228.737, 86.91247
1229.220, 87.02630
1229.702, 87.17532
1230.184, 87.15546
1230.666, 86.98971
1231.148, 86.90928
1231.630, 86.89920
1232.112, 86.86365
1232.594, 86.75611
1233.077, 86.62646
1233.559, 86.47245
1234.041, 86.32697
1234.523, 86.16959
1235.005, 86.03207
1235.487, 86.28758
1235.969, 86.83781
1236.451, 87.15590
1236.933, 86.83949
1237.416, 86.53438
1237.898, 86.50594
1238.380, 86.55853
1238.862, 86.58170
1239.344, 86.57095
1239.826, 86.44630
1240.308, 86.25340
1240.790, 86.18432
1241.272, 86.52271
1241.755, 86.69668
1242.237, 86.45480
1242.719, 86.16359
1243.201, 86.14305
1243.683, 86.31123
1244.165, 86.32340
1244.647, 86.21567
1245.129, 86.12376
1245.612, 86.14719
1246.094, 86.11938
1246.576, 85.98089
1247.058, 85.85719
1247.540, 85.90517
1248.022, 86.03672
1248.504, 85.96125
1248.986, 85.75241
1249.469, 85.66824
1249.951, 86.08559
1250.433, 86.14942
1250.915, 85.66713
1251.397, 85.14549
1251.879, 85.02392
1252.361, 85.16844
1252.843, 85.42779
1253.325, 85.72499
1253.807, 85.82760
1254.290, 85.46021
1254.772, 85.33959
1255.254, 85.57858
1255.736, 85.80139
1256.218, 85.59949
1256.700, 85.23515
1257.182, 85.07034
1257.664, 85.06006
1258.147, 85.05404
1258.629, 85.05993
1259.111, 84.96564
1259.593, 84.73706
1260.075, 84.58143
1260.557, 84.78371
1261.039, 85.05500
1261.521, 85.07376
1262.004, 84.92259
1262.486, 84.86088
1262.968, 84.94857
1263.450, 84.84915
1263.932, 84.52528
1264.414, 84.24129
1264.896, 84.18932
1265.378, 84.26779
1265.860, 84.39235
1266.343, 84.60334
1266.825, 85.05462
1267.307, 85.79556
1267.789, 85.97922
1268.271, 85.55380
1268.753, 85.02296
1269.235, 84.61892
1269.717, 84.32861
1270.199, 84.16623
1270.682, 84.10899
1271.164, 84.14439
1271.646, 84.27090
1272.128, 84.54598
1272.610, 84.94495
1273.092, 85.15551
1273.574, 84.81945
1274.056, 84.47611
1274.539, 84.26955
1275.021, 84.19414
1275.503, 84.29698
1275.985, 84.52367
1276.467, 84.69038
1276.949, 84.78214
1277.431, 84.79304
1277.913, 84.66566
1278.396, 84.51663
1278.878, 84.31804
1279.360, 84.19907
1279.842, 84.43986
1280.324, 84.80754
1280.806, 84.76029
1281.288, 84.35232
1281.770, 83.97530
1282.252, 83.54439
1282.734, 83.58506
1283.217, 84.28413
1283.699, 84.99266
1284.181, 85.05016
1284.663, 84.73854
1285.145, 84.28278
1285.627, 83.77706
1286.109, 83.51421
1286.591, 83.54253
1287.074, 83.71355
1287.556, 84.04546
1288.038, 84.26092
1288.520, 83.96252
1289.002, 83.59072
1289.484, 83.57397
1289.966, 83.76936
1290.448, 83.77367
1290.931, 83.55965
1291.413, 83.55409
1291.895, 83.78368
1292.377, 83.99734
1292.859, 84.02225
1293.341, 83.97643
1293.823, 83.88875
1294.305, 83.79249
1294.787, 83.72314
1295.270, 83.68061
1295.752, 83.69011
1296.234, 83.73853
1296.716, 83.71903
1297.198, 83.44730
1297.680, 83.29440
1298.162, 83.35514
1298.644, 83.55111
1299.126, 83.90910
1299.609, 84.30679
1300.091, 84.33700
1300.573, 84.06986
1301.055, 83.87623
1301.537, 83.88020
##END=



