##NAMES=Ferrosilite
##RRUFFID=R070387
##IDEAL CHEMISTRY=Fe^2+^_2_Si_2_O_6_
##LOCALITY=Central Gneissic Complex (Khtada Lake), British Columbia, Canada
##OWNER=RRUFF
##SOURCE=Jibamitra Ganguly
##DESCRIPTION=Translucent greenish-yellow grains with vitreous luster, known as Hollister enstatite
##STATUS=The identification of this mineral is confirmed by single-crystal X-ray diffraction and chemical analysis.
##URL=rruff.info/R070387
##MEASURED CHEMISTRY=(Fe_0.48_Mg_0.47_Al_0.02_Ca_0.02_[box]_0.01_)_Î£=1_Si_1.00_O_3_ ; = light phase. There are trace amounts of Mn and Ti. The dark phase = quartz
180.5287, 1926.079
181.0108, 1909.667
181.4929, 1947.764
181.9750, 2008.892
182.4572, 2025.364
182.9393, 1992.871
183.4214, 1950.472
183.9035, 1945.492
184.3856, 1970.206
184.8677, 1988.943
185.3499, 1979.191
185.8320, 1950.160
186.3141, 1927.366
186.7962, 1911.349
187.2783, 1903.024
187.7604, 1907.641
188.2426, 1923.963
188.7247, 1938.598
189.2068, 1943.226
189.6889, 1939.309
190.1710, 1932.890
190.6531, 1922.974
191.1353, 1913.384
191.6174, 1913.877
192.0995, 1924.679
192.5816, 1935.134
193.0637, 1936.039
193.5458, 1928.470
194.0280, 1924.227
194.5101, 1925.550
194.9922, 1931.061
195.4743, 1938.358
195.9564, 1948.198
196.4385, 1955.832
196.9207, 1957.170
197.4028, 1952.236
197.8849, 1944.714
198.3670, 1933.635
198.8491, 1920.677
199.3312, 1912.705
199.8134, 1909.372
200.2955, 1912.114
200.7776, 1925.177
201.2597, 1950.169
201.7418, 1970.715
202.2239, 1979.093
202.7061, 1977.069
203.1882, 1990.954
203.6703, 2026.700
204.1524, 2065.479
204.6345, 2081.046
205.1166, 2068.796
205.5988, 2058.062
206.0809, 2059.083
206.5630, 2072.427
207.0451, 2081.398
207.5272, 2082.144
208.0093, 2083.994
208.4915, 2106.933
208.9736, 2161.115
209.4557, 2201.503
209.9378, 2200.790
210.4199, 2147.107
210.9020, 2134.743
211.3842, 2179.598
211.8663, 2251.167
212.3484, 2287.095
212.8305, 2273.704
213.3126, 2259.209
213.7947, 2267.478
214.2769, 2307.783
214.7590, 2334.685
215.2411, 2342.841
215.7232, 2339.418
216.2053, 2341.910
216.6874, 2350.491
217.1696, 2364.496
217.6517, 2386.766
218.1338, 2425.064
218.6159, 2447.149
219.0980, 2446.447
219.5801, 2429.097
220.0623, 2418.820
220.5444, 2419.234
221.0265, 2420.450
221.5086, 2413.974
221.9907, 2390.362
222.4728, 2385.193
222.9550, 2411.337
223.4371, 2460.074
223.9192, 2482.163
224.4013, 2467.191
224.8834, 2440.209
225.3655, 2417.896
225.8477, 2403.332
226.3298, 2387.002
226.8119, 2368.765
227.2940, 2348.353
227.7761, 2318.984
228.2582, 2271.222
228.7404, 2226.023
229.2225, 2202.868
229.7046, 2216.715
230.1867, 2220.366
230.6688, 2203.833
231.1509, 2167.413
231.6331, 2136.063
232.1152, 2111.234
232.5973, 2089.859
233.0794, 2070.013
233.5615, 2052.570
234.0436, 2034.741
234.5258, 2014.142
235.0079, 1990.468
235.4900, 1976.340
235.9721, 1976.659
236.4542, 1981.961
236.9363, 1983.098
237.4185, 1981.131
237.9006, 1972.826
238.3827, 1953.755
238.8648, 1921.281
239.3469, 1904.771
239.8290, 1913.999
240.3112, 1930.913
240.7933, 1933.196
241.2754, 1911.055
241.7575, 1891.705
242.2396, 1881.485
242.7217, 1881.101
243.2039, 1884.989
243.6860, 1896.739
244.1681, 1910.043
244.6502, 1915.877
245.1323, 1909.080
245.6144, 1903.959
246.0966, 1906.188
246.5787, 1918.971
247.0608, 1920.976
247.5429, 1903.846
248.0250, 1882.178
248.5071, 1877.822
248.9893, 1898.376
249.4714, 1922.788
249.9535, 1948.384
250.4356, 1979.607
250.9177, 1989.270
251.3998, 1964.834
251.8820, 1927.528
252.3641, 1911.872
252.8462, 1931.878
253.3283, 1948.001
253.8104, 1943.771
254.2925, 1909.770
254.7747, 1898.211
255.2568, 1918.956
255.7389, 1955.532
256.2210, 1980.558
256.7031, 1994.367
257.1852, 1996.391
257.6674, 1984.098
258.1495, 1952.834
258.6316, 1925.872
259.1137, 1902.492
259.5958, 1884.127
260.0779, 1875.228
260.5601, 1881.420
261.0422, 1885.348
261.5243, 1878.917
262.0064, 1857.981
262.4885, 1845.117
262.9706, 1844.094
263.4528, 1848.323
263.9349, 1843.275
264.4170, 1821.256
264.8991, 1807.945
265.3812, 1818.697
265.8633, 1862.772
266.3455, 1883.397
266.8276, 1871.009
267.3097, 1843.443
267.7918, 1834.076
268.2739, 1847.370
268.7560, 1866.720
269.2382, 1887.724
269.7203, 1912.299
270.2024, 1926.869
270.6845, 1928.870
271.1666, 1923.585
271.6487, 1920.269
272.1309, 1918.973
272.6130, 1919.413
273.0951, 1921.401
273.5772, 1924.838
274.0593, 1929.734
274.5414, 1934.613
275.0236, 1942.960
275.5057, 1964.627
275.9878, 2003.566
276.4699, 2037.124
276.9520, 2050.585
277.4341, 2041.655
277.9163, 2046.643
278.3984, 2069.773
278.8805, 2100.364
279.3626, 2120.915
279.8447, 2130.978
280.3268, 2135.400
280.8090, 2136.284
281.2911, 2133.592
281.7732, 2124.589
282.2553, 2107.204
282.7374, 2087.632
283.2195, 2073.681
283.7017, 2065.118
284.1838, 2065.321
284.6659, 2080.867
285.1480, 2110.098
285.6301, 2130.225
286.1122, 2140.883
286.5944, 2143.460
287.0765, 2134.296
287.5586, 2113.728
288.0407, 2101.897
288.5228, 2117.639
289.0049, 2153.950
289.4871, 2162.424
289.9692, 2136.963
290.4513, 2106.487
290.9334, 2116.476
291.4155, 2162.231
291.8976, 2198.714
292.3798, 2199.480
292.8619, 2174.561
293.3440, 2155.488
293.8261, 2142.336
294.3082, 2136.701
294.7903, 2142.333
295.2725, 2157.963
295.7546, 2177.791
296.2367, 2204.067
296.7188, 2232.084
297.2009, 2248.696
297.6830, 2252.671
298.1652, 2254.969
298.6473, 2270.084
299.1294, 2293.403
299.6115, 2311.188
300.0936, 2308.485
300.5757, 2299.696
301.0579, 2310.687
301.5400, 2341.794
302.0221, 2378.210
302.5042, 2406.100
302.9863, 2429.222
303.4684, 2454.951
303.9506, 2493.360
304.4327, 2532.301
304.9148, 2552.688
305.3969, 2554.710
305.8790, 2562.146
306.3611, 2597.164
306.8433, 2649.149
307.3254, 2700.537
307.8075, 2745.105
308.2896, 2787.015
308.7717, 2825.859
309.2538, 2863.047
309.7360, 2909.287
310.2181, 2973.711
310.7002, 3051.017
311.1823, 3134.569
311.6644, 3236.270
312.1465, 3330.494
312.6287, 3390.349
313.1108, 3421.779
313.5929, 3461.260
314.0750, 3533.432
314.5571, 3620.742
315.0392, 3707.514
315.5214, 3789.495
316.0035, 3870.144
316.4856, 3946.565
316.9677, 4021.039
317.4498, 4103.745
317.9319, 4200.913
318.4141, 4305.771
318.8962, 4413.554
319.3783, 4529.118
319.8604, 4641.183
320.3425, 4739.450
320.8246, 4830.240
321.3068, 4933.522
321.7889, 5068.241
322.2710, 5206.056
322.7531, 5331.850
323.2352, 5439.122
323.7173, 5541.311
324.1995, 5639.712
324.6816, 5734.436
325.1637, 5825.855
325.6458, 5916.063
326.1279, 6001.136
326.6100, 6085.446
327.0922, 6195.048
327.5743, 6251.383
328.0564, 6214.510
328.5385, 6126.843
329.0206, 6064.736
329.5027, 6059.273
329.9849, 6048.557
330.4670, 6017.377
330.9491, 5965.691
331.4312, 5893.537
331.9133, 5796.228
332.3954, 5680.711
332.8776, 5553.844
333.3597, 5403.252
333.8418, 5262.465
334.3239, 5142.323
334.8060, 5045.837
335.2881, 4938.226
335.7703, 4811.991
336.2524, 4680.968
336.7345, 4562.795
337.2166, 4460.978
337.6987, 4359.339
338.1808, 4255.012
338.6630, 4147.285
339.1451, 4048.306
339.6272, 3960.092
340.1093, 3874.537
340.5914, 3782.052
341.0735, 3678.822
341.5557, 3589.691
342.0378, 3521.468
342.5199, 3470.376
343.0020, 3422.275
343.4841, 3378.140
343.9662, 3334.140
344.4484, 3287.204
344.9305, 3237.229
345.4126, 3189.221
345.8947, 3142.343
346.3768, 3099.151
346.8589, 3064.899
347.3411, 3039.228
347.8232, 3016.337
348.3053, 2993.731
348.7874, 2970.819
349.2695, 2943.835
349.7516, 2909.966
350.2338, 2877.060
350.7159, 2857.781
351.1980, 2849.499
351.6801, 2840.097
352.1622, 2818.761
352.6443, 2793.030
353.1265, 2775.808
353.6086, 2768.981
354.0907, 2765.987
354.5728, 2761.941
355.0549, 2756.961
355.5370, 2751.274
356.0192, 2741.354
356.5013, 2733.031
356.9834, 2730.662
357.4655, 2734.453
357.9476, 2746.773
358.4297, 2780.828
358.9119, 2821.060
359.3940, 2848.187
359.8761, 2839.182
360.3582, 2828.231
360.8403, 2835.363
361.3224, 2859.525
361.8046, 2884.958
362.2867, 2900.053
362.7688, 2916.175
363.2509, 2942.784
363.7330, 3008.296
364.2151, 3055.846
364.6973, 3052.898
365.1794, 3013.310
365.6615, 2996.420
366.1436, 3020.043
366.6257, 3066.293
367.1078, 3128.730
367.5900, 3233.968
368.0721, 3313.430
368.5542, 3350.381
369.0363, 3357.813
369.5184, 3366.552
370.0005, 3365.839
370.4827, 3378.103
370.9648, 3412.689
371.4469, 3478.396
371.9290, 3541.339
372.4111, 3602.584
372.8932, 3661.130
373.3754, 3713.235
373.8575, 3751.960
374.3396, 3797.847
374.8217, 3855.708
375.3038, 3924.882
375.7859, 4009.229
376.2681, 4116.418
376.7502, 4226.016
377.2323, 4317.875
377.7144, 4388.415
378.1965, 4457.921
378.6786, 4533.900
379.1608, 4611.448
379.6429, 4670.576
380.1250, 4708.658
380.6071, 4741.714
381.0892, 4784.610
381.5714, 4836.076
382.0535, 4876.778
382.5356, 4905.130
383.0177, 4920.059
383.4998, 4917.026
383.9819, 4896.944
384.4641, 4868.942
384.9462, 4848.563
385.4283, 4823.370
385.9104, 4762.011
386.3925, 4659.212
386.8746, 4534.211
387.3568, 4400.614
387.8389, 4261.860
388.3210, 4124.173
388.8031, 3992.781
389.2852, 3863.547
389.7673, 3733.398
390.2495, 3600.537
390.7316, 3470.835
391.2137, 3342.623
391.6958, 3220.988
392.1779, 3114.084
392.6600, 3033.691
393.1422, 2960.655
393.6243, 2881.101
394.1064, 2798.263
394.5885, 2730.761
395.0706, 2696.667
395.5527, 2673.641
396.0349, 2646.691
396.5170, 2609.188
396.9991, 2573.430
397.4812, 2543.099
397.9633, 2516.327
398.4454, 2487.204
398.9276, 2445.558
399.4097, 2409.545
399.8918, 2386.523
400.3739, 2380.562
400.8560, 2376.804
401.3381, 2379.892
401.8203, 2382.947
402.3024, 2376.171
402.7845, 2351.708
403.2666, 2330.627
403.7487, 2317.084
404.2308, 2311.100
404.7130, 2310.937
405.1951, 2316.281
405.6772, 2328.027
406.1593, 2352.330
406.6414, 2394.936
407.1235, 2414.685
407.6057, 2395.821
408.0878, 2356.000
408.5699, 2350.966
409.0520, 2384.325
409.5341, 2420.789
410.0162, 2435.091
410.4984, 2430.916
410.9805, 2433.266
411.4626, 2444.730
411.9447, 2461.420
412.4268, 2480.198
412.9089, 2500.206
413.3911, 2517.259
413.8732, 2527.219
414.3553, 2533.442
414.8374, 2543.122
415.3195, 2556.556
415.8016, 2564.414
416.2838, 2552.342
416.7659, 2531.066
417.2480, 2516.999
417.7301, 2523.143
418.2122, 2531.360
418.6943, 2531.382
419.1765, 2523.412
419.6586, 2508.263
420.1407, 2481.211
420.6228, 2450.307
421.1049, 2421.511
421.5870, 2399.591
422.0692, 2373.006
422.5513, 2332.857
423.0334, 2286.271
423.5155, 2247.078
423.9976, 2227.240
424.4797, 2206.376
424.9619, 2174.875
425.4440, 2125.949
425.9261, 2093.694
426.4082, 2088.991
426.8903, 2093.793
427.3724, 2090.802
427.8546, 2072.665
428.3367, 2060.492
428.8188, 2062.073
429.3009, 2073.477
429.7830, 2065.885
430.2651, 2031.193
430.7473, 1995.463
431.2294, 1975.073
431.7115, 1971.216
432.1936, 1973.699
432.6757, 1984.283
433.1578, 1997.244
433.6400, 2001.290
434.1221, 1996.387
434.6042, 1990.325
435.0863, 1984.471
435.5684, 1980.050
436.0505, 1984.241
436.5327, 1997.974
437.0148, 2009.100
437.4969, 2000.553
437.9790, 1980.007
438.4611, 1966.168
438.9432, 1968.397
439.4254, 1975.676
439.9075, 1970.792
440.3896, 1958.266
440.8717, 1959.011
441.3538, 2008.596
441.8359, 2064.678
442.3181, 2085.086
442.8002, 2051.042
443.2823, 2017.155
443.7644, 2006.692
444.2465, 2012.717
444.7286, 2024.208
445.2108, 2047.499
445.6929, 2066.910
446.1750, 2074.596
446.6571, 2069.099
447.1392, 2067.072
447.6213, 2074.708
448.1035, 2083.625
448.5856, 2087.281
449.0677, 2077.527
449.5498, 2075.553
450.0319, 2089.898
450.5140, 2112.794
450.9962, 2115.346
451.4783, 2086.986
451.9604, 2059.573
452.4425, 2050.501
452.9246, 2064.189
453.4067, 2060.993
453.8889, 2034.759
454.3710, 2004.894
454.8531, 2004.172
455.3352, 2032.273
455.8173, 2047.604
456.2994, 2030.454
456.7816, 1994.888
457.2637, 1978.846
457.7458, 1982.019
458.2279, 1986.365
458.7100, 1973.908
459.1921, 1953.221
459.6743, 1943.175
460.1564, 1951.201
460.6385, 1959.292
461.1206, 1945.201
461.6027, 1918.222
462.0848, 1898.850
462.5670, 1904.103
463.0491, 1915.304
463.5312, 1921.202
464.0133, 1920.944
464.4954, 1917.100
464.9775, 1902.188
465.4597, 1888.345
465.9418, 1886.443
466.4239, 1915.197
466.9060, 1937.043
467.3881, 1943.594
467.8702, 1937.489
468.3524, 1930.445
468.8345, 1921.239
469.3166, 1912.492
469.7987, 1905.179
470.2808, 1899.186
470.7629, 1894.673
471.2451, 1892.812
471.7272, 1891.118
472.2093, 1882.823
472.6914, 1863.133
473.1735, 1861.471
473.6556, 1894.136
474.1378, 1948.028
474.6199, 1966.674
475.1020, 1947.817
475.5841, 1920.524
476.0662, 1903.711
476.5483, 1895.880
477.0305, 1892.142
477.5126, 1892.784
477.9947, 1894.384
478.4768, 1891.046
478.9589, 1885.095
479.4410, 1882.909
479.9232, 1888.924
480.4053, 1899.028
480.8874, 1912.197
481.3695, 1927.619
481.8516, 1937.674
482.3337, 1936.927
482.8159, 1929.529
483.2980, 1917.899
483.7801, 1892.436
484.2622, 1878.396
484.7443, 1891.003
485.2264, 1919.977
485.7086, 1942.099
486.1907, 1956.655
486.6728, 1961.537
487.1549, 1953.852
487.6370, 1931.155
488.1191, 1912.046
488.6013, 1892.349
489.0834, 1880.961
489.5655, 1889.315
490.0476, 1926.382
490.5297, 1952.029
491.0118, 1959.206
491.4940, 1953.529
491.9761, 1947.764
492.4582, 1941.445
492.9403, 1939.788
493.4224, 1948.686
493.9045, 1965.089
494.3867, 1976.479
494.8688, 1982.364
495.3509, 1984.951
495.8330, 1980.756
496.3151, 1975.103
496.7972, 1981.336
497.2794, 2011.788
497.7615, 2045.469
498.2436, 2059.062
498.7257, 2058.122
499.2078, 2062.001
499.6899, 2088.998
500.1721, 2118.314
500.6542, 2132.948
501.1363, 2125.986
501.6184, 2126.709
502.1005, 2149.398
502.5826, 2181.645
503.0648, 2209.959
503.5469, 2226.422
504.0290, 2246.321
504.5111, 2274.365
504.9932, 2308.429
505.4753, 2334.312
505.9575, 2344.723
506.4396, 2359.497
506.9217, 2392.298
507.4038, 2449.208
507.8859, 2486.013
508.3680, 2497.265
508.8502, 2500.295
509.3323, 2518.890
509.8144, 2552.410
510.2965, 2585.149
510.7786, 2613.233
511.2607, 2637.177
511.7429, 2658.976
512.2250, 2678.042
512.7071, 2689.461
513.1892, 2683.904
513.6713, 2670.964
514.1534, 2664.962
514.6356, 2669.207
515.1177, 2670.755
515.5998, 2657.260
516.0819, 2636.691
516.5640, 2619.616
517.0461, 2608.299
517.5283, 2602.688
518.0104, 2607.481
518.4925, 2620.035
518.9746, 2625.234
519.4567, 2607.159
519.9388, 2592.673
520.4210, 2593.779
520.9031, 2616.179
521.3852, 2638.487
521.8673, 2659.951
522.3494, 2682.305
522.8315, 2708.609
523.3137, 2741.217
523.7958, 2768.616
524.2779, 2787.018
524.7600, 2799.371
525.2421, 2815.065
525.7242, 2834.364
526.2064, 2854.010
526.6885, 2869.940
527.1706, 2884.549
527.6527, 2906.207
528.1348, 2936.273
528.6169, 2965.571
529.0991, 2988.497
529.5812, 3004.228
530.0633, 3011.535
530.5454, 3005.427
531.0275, 2995.578
531.5096, 2989.231
531.9918, 2984.402
532.4739, 2974.303
532.9560, 2949.461
533.4381, 2924.414
533.9202, 2907.403
534.4023, 2901.456
534.8845, 2893.255
535.3666, 2882.234
535.8487, 2868.300
536.3308, 2850.325
536.8129, 2824.549
537.2950, 2804.024
537.7772, 2792.578
538.2593, 2786.537
538.7414, 2776.015
539.2235, 2761.205
539.7056, 2741.774
540.1877, 2713.570
540.6699, 2679.353
541.1520, 2661.174
541.6341, 2660.755
542.1162, 2655.667
542.5983, 2619.110
543.0804, 2562.415
543.5626, 2510.910
544.0447, 2470.186
544.5268, 2436.454
545.0089, 2404.014
545.4910, 2375.379
545.9731, 2355.778
546.4553, 2360.179
546.9374, 2363.181
547.4195, 2349.362
547.9016, 2317.852
548.3837, 2289.154
548.8658, 2267.083
549.3480, 2250.134
549.8301, 2237.441
550.3122, 2229.016
550.7943, 2225.157
551.2764, 2228.620
551.7585, 2234.785
552.2407, 2237.456
552.7228, 2237.889
553.2049, 2228.744
553.6870, 2202.630
554.1691, 2166.827
554.6512, 2152.062
555.1334, 2158.864
555.6155, 2170.820
556.0976, 2180.947
556.5797, 2187.050
557.0618, 2181.684
557.5439, 2162.637
558.0261, 2143.028
558.5082, 2135.998
558.9903, 2135.890
559.4724, 2133.814
559.9545, 2119.982
560.4366, 2110.462
560.9188, 2117.277
561.4009, 2135.384
561.8830, 2148.044
562.3651, 2159.085
562.8472, 2156.795
563.3293, 2127.683
563.8115, 2061.210
564.2936, 2028.244
564.7757, 2044.118
565.2578, 2076.234
565.7399, 2100.387
566.2220, 2117.502
566.7042, 2122.251
567.1863, 2112.712
567.6684, 2092.555
568.1505, 2061.906
568.6326, 2021.830
569.1147, 1995.413
569.5969, 1999.250
570.0790, 2019.885
570.5611, 2033.567
571.0432, 2040.249
571.5253, 2040.954
572.0074, 2027.985
572.4896, 2013.559
572.9717, 2012.167
573.4538, 2029.508
573.9359, 2046.989
574.4180, 2061.667
574.9001, 2069.886
575.3823, 2067.321
575.8644, 2035.521
576.3465, 2013.246
576.8286, 2012.414
577.3107, 2026.579
577.7928, 2031.398
578.2750, 2021.846
578.7571, 2012.067
579.2392, 2008.347
579.7213, 2010.881
580.2034, 2010.033
580.6855, 2005.518
581.1677, 1999.050
581.6498, 1991.421
582.1319, 1982.996
582.6140, 1976.125
583.0961, 1972.406
583.5782, 1966.907
584.0604, 1943.738
584.5425, 1914.060
585.0246, 1903.736
585.5067, 1951.769
585.9888, 1999.787
586.4709, 2002.525
586.9531, 1966.786
587.4352, 1939.994
587.9173, 1950.796
588.3994, 1964.499
588.8815, 1960.298
589.3636, 1924.389
589.8458, 1906.856
590.3279, 1916.071
590.8100, 1936.282
591.2921, 1954.044
591.7742, 1970.948
592.2563, 1978.047
592.7385, 1972.414
593.2206, 1958.193
593.7027, 1940.524
594.1848, 1919.832
594.6669, 1906.442
595.1490, 1909.436
595.6312, 1921.247
596.1133, 1929.455
596.5954, 1934.015
597.0775, 1933.940
597.5596, 1925.438
598.0417, 1913.834
598.5239, 1904.071
599.0060, 1897.008
599.4881, 1891.517
599.9702, 1887.137
600.4523, 1883.977
600.9344, 1882.142
601.4166, 1877.272
601.8987, 1879.520
602.3808, 1894.281
602.8629, 1916.023
603.3450, 1929.128
603.8271, 1931.372
604.3093, 1930.490
604.7914, 1928.488
605.2735, 1925.627
605.7556, 1922.948
606.2377, 1920.219
606.7198, 1920.502
607.2020, 1934.607
607.6841, 1952.444
608.1662, 1946.074
608.6483, 1907.147
609.1304, 1871.699
609.6125, 1876.352
610.0947, 1902.114
610.5768, 1922.504
611.0589, 1929.758
611.5410, 1928.889
612.0231, 1912.321
612.5052, 1887.922
612.9874, 1879.480
613.4695, 1904.527
613.9516, 1929.521
614.4337, 1946.584
614.9158, 1955.615
615.3979, 1959.271
615.8801, 1954.674
616.3622, 1952.045
616.8443, 1964.235
617.3264, 1989.385
617.8085, 1992.814
618.2906, 1968.783
618.7728, 1938.574
619.2549, 1926.099
619.7370, 1926.903
620.2191, 1931.306
620.7012, 1937.020
621.1833, 1944.318
621.6655, 1953.669
622.1476, 1964.818
622.6297, 1977.011
623.1118, 1999.586
623.5939, 2013.895
624.0760, 2004.216
624.5582, 1970.236
625.0403, 1959.872
625.5224, 1995.028
626.0045, 2029.309
626.4866, 2035.687
626.9688, 2005.130
627.4509, 1995.979
627.9330, 2012.909
628.4151, 2038.869
628.8972, 2055.025
629.3793, 2062.778
629.8615, 2072.510
630.3436, 2087.507
630.8257, 2102.335
631.3078, 2111.458
631.7899, 2115.232
632.2720, 2114.550
632.7542, 2098.521
633.2363, 2088.196
633.7184, 2100.514
634.2005, 2131.773
634.6826, 2159.855
635.1647, 2175.791
635.6469, 2190.357
636.1290, 2207.317
636.6111, 2226.040
637.0932, 2251.508
637.5753, 2285.306
638.0574, 2323.803
638.5396, 2364.007
639.0217, 2406.160
639.5038, 2451.645
639.9859, 2500.890
640.4680, 2553.547
640.9501, 2612.279
641.4323, 2674.180
641.9144, 2728.413
642.3965, 2765.225
642.8786, 2798.854
643.3607, 2836.493
643.8428, 2880.821
644.3250, 2938.109
644.8071, 3025.237
645.2892, 3113.792
645.7713, 3191.286
646.2534, 3256.909
646.7355, 3314.947
647.2177, 3358.024
647.6998, 3402.688
648.1819, 3458.188
648.6640, 3528.638
649.1461, 3590.549
649.6282, 3641.881
650.1104, 3691.907
650.5925, 3757.523
651.0746, 3834.197
651.5567, 3885.821
652.0388, 3901.166
652.5209, 3904.008
653.0031, 3927.066
653.4852, 3959.066
653.9673, 3976.059
654.4494, 3957.478
654.9315, 3931.328
655.4136, 3909.802
655.8958, 3892.214
656.3779, 3875.054
656.8600, 3852.917
657.3421, 3835.861
657.8242, 3825.211
658.3063, 3820.948
658.7885, 3831.474
659.2706, 3860.749
659.7527, 3895.805
660.2348, 3925.741
660.7169, 3951.304
661.1990, 3988.377
661.6812, 4037.631
662.1633, 4099.093
662.6454, 4178.119
663.1275, 4269.187
663.6096, 4363.300
664.0917, 4463.958
664.5739, 4554.244
665.0560, 4603.238
665.5381, 4638.155
666.0202, 4703.486
666.5023, 4866.914
666.9844, 5002.225
667.4666, 5060.151
667.9487, 5062.735
668.4308, 5089.390
668.9129, 5161.434
669.3950, 5213.256
669.8771, 5218.105
670.3593, 5180.266
670.8414, 5133.684
671.3235, 5078.484
671.8056, 5008.909
672.2877, 4918.606
672.7698, 4810.270
673.2520, 4691.648
673.7341, 4562.568
674.2162, 4420.340
674.6983, 4242.003
675.1804, 4057.632
675.6625, 3902.272
676.1447, 3799.849
676.6268, 3693.257
677.1089, 3558.882
677.5910, 3419.075
678.0731, 3303.077
678.5552, 3224.538
679.0374, 3142.361
679.5195, 3046.973
680.0016, 2947.104
680.4837, 2861.320
680.9658, 2790.119
681.4479, 2728.322
681.9301, 2676.960
682.4122, 2631.493
682.8943, 2584.721
683.3764, 2536.796
683.8585, 2491.016
684.3406, 2450.656
684.8228, 2411.607
685.3049, 2368.376
685.7870, 2320.225
686.2691, 2280.146
686.7512, 2252.376
687.2333, 2233.941
687.7155, 2225.109
688.1976, 2235.439
688.6797, 2225.500
689.1618, 2188.971
689.6439, 2143.100
690.1260, 2102.656
690.6082, 2067.664
691.0903, 2047.665
691.5724, 2046.274
692.0545, 2053.871
692.5366, 2064.827
693.0187, 2074.712
693.5009, 2073.347
693.9830, 2044.359
694.4651, 2017.252
694.9472, 2017.384
695.4293, 2032.911
695.9114, 2033.186
696.3936, 1993.085
696.8757, 1956.719
697.3578, 1934.980
697.8399, 1926.510
698.3220, 1923.220
698.8041, 1927.294
699.2863, 1929.871
699.7684, 1921.490
700.2505, 1906.178
700.7326, 1915.511
701.2147, 1949.600
701.6968, 1978.584
702.1790, 1974.217
702.6611, 1952.162
703.1432, 1930.948
703.6253, 1912.263
704.1074, 1899.707
704.5895, 1905.442
705.0717, 1912.453
705.5538, 1905.271
706.0359, 1860.962
706.5180, 1835.298
707.0001, 1836.705
707.4822, 1850.212
707.9644, 1855.867
708.4465, 1852.149
708.9286, 1852.576
709.4107, 1862.109
709.8928, 1872.474
710.3749, 1866.254
710.8571, 1847.461
711.3392, 1831.143
711.8213, 1823.805
712.3034, 1821.468
712.7855, 1823.092
713.2676, 1827.082
713.7498, 1828.593
714.2319, 1817.818
714.7140, 1811.997
715.1961, 1822.182
715.6782, 1846.488
716.1603, 1860.539
716.6425, 1861.194
717.1246, 1857.901
717.6067, 1855.211
718.0888, 1852.873
718.5709, 1847.493
719.0530, 1838.934
719.5352, 1829.094
720.0173, 1815.507
720.4994, 1803.205
720.9815, 1801.296
721.4636, 1811.672
721.9457, 1824.568
722.4279, 1834.073
722.9100, 1843.597
723.3921, 1856.650
723.8742, 1879.821
724.3563, 1895.343
724.8384, 1901.838
725.3206, 1901.009
725.8027, 1893.258
726.2848, 1876.971
726.7669, 1862.298
727.2490, 1850.264
727.7311, 1840.657
728.2133, 1827.806
728.6954, 1815.676
729.1775, 1820.985
729.6596, 1862.760
730.1417, 1906.682
730.6238, 1920.265
731.1060, 1913.488
731.5881, 1909.025
732.0702, 1920.238
732.5523, 1928.832
733.0344, 1925.875
733.5165, 1915.118
733.9987, 1913.012
734.4808, 1924.300
734.9629, 1932.966
735.4450, 1930.637
735.9271, 1920.719
736.4092, 1920.497
736.8914, 1929.714
737.3735, 1939.822
737.8556, 1950.814
738.3377, 1956.340
738.8198, 1941.209
739.3019, 1906.064
739.7841, 1882.027
740.2662, 1896.443
740.7483, 1917.865
741.2304, 1925.302
741.7125, 1911.395
742.1946, 1903.201
742.6768, 1903.670
743.1589, 1905.908
743.6410, 1904.769
744.1231, 1900.144
744.6052, 1894.293
745.0873, 1886.919
745.5695, 1880.862
746.0516, 1875.996
746.5337, 1875.267
747.0158, 1888.155
747.4979, 1923.457
747.9800, 1950.454
748.4622, 1945.763
748.9443, 1923.781
749.4264, 1901.967
749.9085, 1876.414
750.3906, 1861.918
750.8727, 1867.599
751.3549, 1879.079
751.8370, 1872.235
752.3191, 1844.850
752.8012, 1812.007
753.2833, 1770.218
753.7654, 1735.594
754.2476, 1752.776
754.7297, 1805.187
755.2118, 1836.668
755.6939, 1799.682
756.1760, 1756.070
756.6581, 1753.734
757.1403, 1779.384
757.6224, 1795.735
758.1045, 1783.237
758.5866, 1770.546
759.0687, 1764.883
759.5508, 1764.913
760.0330, 1764.338
760.5151, 1762.745
760.9972, 1762.377
761.4793, 1764.498
761.9614, 1768.611
762.4435, 1775.950
762.9257, 1785.456
763.4078, 1788.321
763.8899, 1770.138
764.3720, 1749.451
764.8541, 1743.922
765.3362, 1753.804
765.8184, 1762.716
766.3005, 1766.869
766.7826, 1767.959
767.2647, 1764.998
767.7468, 1756.915
768.2289, 1759.979
768.7111, 1779.330
769.1932, 1793.680
769.6753, 1777.183
770.1574, 1741.184
770.6395, 1738.906
771.1216, 1773.451
771.6038, 1804.368
772.0859, 1790.968
772.5680, 1762.339
773.0501, 1747.863
773.5322, 1754.232
774.0143, 1765.029
774.4965, 1787.469
774.9786, 1804.232
775.4607, 1800.369
775.9428, 1762.967
776.4249, 1748.360
776.9070, 1763.237
777.3892, 1785.165
777.8713, 1787.118
778.3534, 1774.180
778.8355, 1766.499
779.3176, 1767.508
779.7997, 1772.882
780.2819, 1784.169
780.7640, 1795.318
781.2461, 1798.412
781.7282, 1788.204
782.2103, 1775.751
782.6924, 1758.116
783.1746, 1742.210
783.6567, 1736.015
784.1388, 1741.420
784.6209, 1751.221
785.1030, 1767.128
785.5851, 1781.854
786.0673, 1779.645
786.5494, 1765.846
787.0315, 1761.869
787.5136, 1779.572
787.9957, 1796.910
788.4778, 1791.502
788.9600, 1774.107
789.4421, 1761.997
789.9242, 1761.227
790.4063, 1765.224
790.8884, 1777.102
791.3705, 1791.148
791.8527, 1796.342
792.3348, 1791.398
792.8169, 1783.139
793.2990, 1770.156
793.7811, 1759.526
794.2632, 1769.787
794.7454, 1794.473
795.2275, 1811.613
795.7096, 1806.161
796.1917, 1796.428
796.6738, 1793.089
797.1559, 1794.940
797.6381, 1799.233
798.1202, 1814.735
798.6023, 1820.173
799.0844, 1804.128
799.5665, 1777.854
800.0486, 1780.112
800.5308, 1814.981
801.0129, 1838.104
801.4950, 1828.993
801.9771, 1804.274
802.4592, 1791.084
802.9413, 1787.723
803.4235, 1789.098
803.9056, 1801.276
804.3877, 1809.112
804.8698, 1798.978
805.3519, 1776.557
805.8340, 1765.432
806.3162, 1772.823
806.7983, 1782.749
807.2804, 1791.375
807.7625, 1799.502
808.2446, 1812.115
808.7267, 1829.185
809.2089, 1840.316
809.6910, 1838.458
810.1731, 1829.298
810.6552, 1816.499
811.1373, 1802.407
811.6194, 1795.466
812.1016, 1803.784
812.5837, 1815.841
813.0658, 1830.965
813.5479, 1846.816
814.0300, 1850.209
814.5121, 1835.663
814.9943, 1821.029
815.4764, 1810.525
815.9585, 1805.568
816.4406, 1816.303
816.9227, 1840.382
817.4048, 1857.007
817.8870, 1847.156
818.3691, 1829.725
818.8512, 1820.438
819.3333, 1818.869
819.8154, 1821.237
820.2975, 1827.705
820.7797, 1836.723
821.2618, 1849.636
821.7439, 1864.941
822.2260, 1873.243
822.7081, 1873.989
823.1902, 1869.621
823.6724, 1858.387
824.1545, 1844.308
824.6366, 1835.326
825.1187, 1831.440
825.6008, 1832.853
826.0829, 1847.796
826.5651, 1860.711
827.0472, 1858.981
827.5293, 1844.808
828.0114, 1836.990
828.4935, 1836.930
828.9756, 1844.385
829.4578, 1865.752
829.9399, 1894.062
830.4220, 1888.456
830.9041, 1849.083
831.3862, 1813.584
831.8683, 1803.976
832.3505, 1807.318
832.8326, 1807.070
833.3147, 1805.156
833.7968, 1808.842
834.2789, 1834.322
834.7610, 1852.666
835.2432, 1845.628
835.7253, 1820.434
836.2074, 1807.345
836.6895, 1808.754
837.1716, 1814.638
837.6537, 1823.453
838.1359, 1832.719
838.6180, 1836.688
839.1001, 1835.375
839.5822, 1829.224
840.0643, 1807.951
840.5464, 1791.439
841.0286, 1802.766
841.5107, 1831.950
841.9928, 1842.372
842.4749, 1810.250
842.9570, 1780.026
843.4391, 1757.472
843.9213, 1744.477
844.4034, 1753.223
844.8855, 1784.028
845.3676, 1805.449
845.8497, 1799.369
846.3318, 1783.930
846.8140, 1785.455
847.2961, 1797.944
847.7782, 1806.007
848.2603, 1803.992
848.7424, 1795.758
849.2245, 1774.315
849.7067, 1748.547
850.1888, 1742.937
850.6709, 1765.955
851.1530, 1780.672
851.6351, 1776.391
852.1172, 1762.541
852.5994, 1757.096
853.0815, 1758.384
853.5636, 1759.836
854.0457, 1753.943
854.5278, 1754.304
855.0099, 1780.502
855.4921, 1817.336
855.9742, 1835.699
856.4563, 1815.038
856.9384, 1798.408
857.4205, 1789.781
857.9026, 1787.517
858.3848, 1790.456
858.8669, 1798.233
859.3490, 1804.861
859.8311, 1809.253
860.3132, 1811.076
860.7953, 1804.159
861.2775, 1796.103
861.7596, 1799.823
862.2417, 1836.322
862.7238, 1858.812
863.2059, 1841.604
863.6880, 1813.857
864.1702, 1806.672
864.6523, 1824.124
865.1344, 1844.091
865.6165, 1866.410
866.0986, 1882.490
866.5807, 1871.742
867.0629, 1848.162
867.5450, 1844.544
868.0271, 1873.901
868.5092, 1898.293
868.9913, 1886.638
869.4734, 1865.962
869.9556, 1862.828
870.4377, 1888.367
870.9198, 1904.763
871.4019, 1909.478
871.8840, 1910.935
872.3661, 1917.391
872.8483, 1927.616
873.3304, 1935.774
873.8125, 1941.317
874.2946, 1945.915
874.7767, 1949.539
875.2589, 1953.580
875.7410, 1958.950
876.2231, 1965.454
876.7052, 1975.339
877.1873, 1992.598
877.6694, 2007.620
878.1516, 2013.184
878.6337, 2009.849
879.1158, 2012.890
879.5979, 2022.389
880.0800, 2035.106
880.5621, 2054.183
881.0443, 2071.567
881.5264, 2074.909
882.0085, 2065.257
882.4906, 2059.718
882.9727, 2075.529
883.4548, 2083.760
883.9370, 2067.094
884.4191, 2031.456
884.9012, 2026.820
885.3833, 2057.132
885.8654, 2080.192
886.3475, 2065.542
886.8297, 2038.684
887.3118, 2051.689
887.7939, 2091.771
888.2760, 2115.909
888.7581, 2086.959
889.2402, 2057.980
889.7224, 2052.373
890.2045, 2062.425
890.6866, 2066.718
891.1687, 2063.766
891.6508, 2059.725
892.1329, 2054.859
892.6151, 2051.689
893.0972, 2058.681
893.5793, 2071.433
894.0614, 2076.913
894.5435, 2067.716
895.0256, 2054.966
895.5078, 2045.065
895.9899, 2035.192
896.4720, 2019.991
896.9541, 1988.304
897.4362, 1978.656
897.9183, 2001.827
898.4005, 2031.554
898.8826, 2031.899
899.3647, 2009.237
899.8468, 1989.210
900.3289, 1975.952
900.8110, 1965.305
901.2932, 1952.528
901.7753, 1941.927
902.2574, 1939.643
902.7395, 1953.974
903.2216, 1951.719
903.7037, 1921.226
904.1859, 1893.350
904.6680, 1893.029
905.1501, 1917.268
905.6322, 1945.067
906.1143, 1975.538
906.5964, 1997.047
907.0786, 1992.972
907.5607, 1981.221
908.0428, 1977.535
908.5249, 1982.763
909.0070, 1984.778
909.4891, 1977.935
909.9713, 1973.587
910.4534, 1976.410
910.9355, 1984.979
911.4176, 1994.213
911.8997, 2003.710
912.3818, 2007.268
912.8640, 1994.257
913.3461, 1980.322
913.8282, 1981.908
914.3103, 1994.664
914.7924, 2007.435
915.2745, 2020.129
915.7567, 2028.552
916.2388, 2030.741
916.7209, 2029.423
917.2030, 2028.142
917.6851, 2027.062
918.1672, 2035.076
918.6494, 2058.143
919.1315, 2079.277
919.6136, 2070.824
920.0957, 2051.639
920.5778, 2050.624
921.0599, 2092.466
921.5421, 2117.471
922.0242, 2111.152
922.5063, 2091.572
922.9884, 2068.621
923.4705, 2041.307
923.9526, 2036.645
924.4348, 2057.125
924.9169, 2083.944
925.3990, 2103.187
925.8811, 2117.580
926.3632, 2131.410
926.8453, 2145.291
927.3275, 2152.612
927.8096, 2147.174
928.2917, 2138.690
928.7738, 2128.175
929.2559, 2116.930
929.7380, 2120.098
930.2202, 2137.903
930.7023, 2156.395
931.1844, 2165.899
931.6665, 2173.616
932.1486, 2188.887
932.6307, 2209.727
933.1129, 2229.925
933.5950, 2247.423
934.0771, 2264.063
934.5592, 2281.539
935.0413, 2297.804
935.5234, 2305.083
936.0056, 2303.108
936.4877, 2316.836
936.9698, 2355.568
937.4519, 2400.930
937.9340, 2433.005
938.4161, 2457.730
938.8983, 2483.576
939.3804, 2512.091
939.8625, 2542.559
940.3446, 2578.642
940.8267, 2612.305
941.3088, 2634.272
941.7910, 2643.686
942.2731, 2670.422
942.7552, 2715.594
943.2373, 2766.657
943.7194, 2817.952
944.2015, 2866.073
944.6837, 2909.188
945.1658, 2947.198
945.6479, 2970.266
946.1300, 2957.275
946.6121, 2952.408
947.0942, 2974.106
947.5764, 3014.304
948.0585, 3040.237
948.5406, 3051.648
949.0227, 3048.567
949.5048, 3021.288
949.9869, 2991.260
950.4691, 2985.989
950.9512, 2992.321
951.4333, 2984.606
951.9154, 2950.136
952.3975, 2908.361
952.8796, 2856.875
953.3618, 2803.496
953.8439, 2759.339
954.3260, 2723.523
954.8081, 2688.630
955.2902, 2653.096
955.7723, 2620.637
956.2545, 2601.289
956.7366, 2581.591
957.2187, 2546.113
957.7008, 2486.928
958.1829, 2440.426
958.6650, 2415.479
959.1472, 2389.025
959.6293, 2338.119
960.1114, 2274.465
960.5935, 2260.864
961.0756, 2291.093
961.5577, 2317.785
962.0399, 2314.437
962.5220, 2296.207
963.0041, 2261.674
963.4862, 2219.245
963.9683, 2198.541
964.4504, 2209.371
964.9326, 2220.242
965.4147, 2226.302
965.8968, 2227.583
966.3789, 2220.898
966.8610, 2209.461
967.3431, 2202.353
967.8253, 2202.094
968.3074, 2206.072
968.7895, 2213.436
969.2716, 2224.022
969.7537, 2237.019
970.2358, 2250.956
970.7180, 2276.178
971.2001, 2317.253
971.6822, 2350.881
972.1643, 2347.262
972.6464, 2327.808
973.1285, 2339.739
973.6107, 2380.602
974.0928, 2417.951
974.5749, 2428.520
975.0570, 2440.916
975.5391, 2467.770
976.0212, 2494.275
976.5034, 2526.393
976.9855, 2570.342
977.4676, 2609.845
977.9497, 2664.514
978.4318, 2725.887
978.9139, 2786.154
979.3961, 2845.414
979.8782, 2901.714
980.3603, 2943.700
980.8424, 3003.814
981.3245, 3091.138
981.8066, 3193.838
982.2888, 3301.161
982.7709, 3413.600
983.2530, 3531.130
983.7351, 3653.726
984.2172, 3786.378
984.6993, 3932.217
985.1815, 4090.540
985.6636, 4262.706
986.1457, 4446.952
986.6278, 4638.940
987.1099, 4838.278
987.5920, 5043.266
988.0742, 5252.126
988.5563, 5467.147
989.0384, 5701.896
989.5205, 5948.669
990.0026, 6184.126
990.4847, 6397.134
990.9669, 6601.462
991.4490, 6805.643
991.9311, 7005.899
992.4132, 7199.688
992.8953, 7399.849
993.3774, 7562.366
993.8596, 7686.501
994.3417, 7782.062
994.8238, 7866.734
995.3059, 7926.890
995.7880, 7927.424
996.2701, 7869.387
996.7523, 7788.512
997.2344, 7698.735
997.7165, 7593.447
998.1986, 7478.937
998.6807, 7346.226
999.1628, 7149.621
999.6450, 6884.896
1000.127, 6628.007
1000.609, 6407.522
1001.091, 6202.813
1001.573, 5998.200
1002.056, 5789.864
1002.538, 5570.419
1003.020, 5313.568
1003.502, 5097.081
1003.984, 4943.729
1004.466, 4807.491
1004.948, 4649.183
1005.430, 4472.172
1005.912, 4316.357
1006.395, 4181.623
1006.877, 4061.324
1007.359, 3957.113
1007.841, 3857.586
1008.323, 3750.506
1008.805, 3638.868
1009.287, 3551.473
1009.769, 3492.556
1010.252, 3445.381
1010.734, 3410.990
1011.216, 3375.892
1011.698, 3315.028
1012.180, 3236.066
1012.662, 3152.543
1013.144, 3058.698
1013.626, 2983.146
1014.108, 2942.848
1014.591, 2920.884
1015.073, 2910.521
1015.555, 2915.210
1016.037, 2889.083
1016.519, 2831.306
1017.001, 2767.879
1017.483, 2707.073
1017.965, 2657.585
1018.448, 2637.227
1018.930, 2638.853
1019.412, 2630.455
1019.894, 2594.233
1020.376, 2568.043
1020.858, 2562.931
1021.340, 2564.685
1021.822, 2544.764
1022.304, 2509.352
1022.787, 2481.444
1023.269, 2466.526
1023.751, 2458.260
1024.233, 2454.652
1024.715, 2454.852
1025.197, 2460.536
1025.679, 2472.884
1026.161, 2471.829
1026.644, 2454.905
1027.126, 2437.681
1027.608, 2428.786
1028.090, 2424.748
1028.572, 2421.342
1029.054, 2418.261
1029.536, 2414.861
1030.018, 2417.610
1030.500, 2408.998
1030.983, 2376.092
1031.465, 2342.675
1031.947, 2356.562
1032.429, 2407.452
1032.911, 2396.575
1033.393, 2307.884
1033.875, 2231.154
1034.357, 2255.987
1034.839, 2305.364
1035.322, 2320.063
1035.804, 2295.818
1036.286, 2276.492
1036.768, 2264.687
1037.250, 2245.980
1037.732, 2205.989
1038.214, 2167.215
1038.696, 2186.006
1039.178, 2235.666
1039.661, 2255.561
1040.143, 2198.146
1040.625, 2154.622
1041.107, 2151.717
1041.589, 2164.252
1042.071, 2173.617
1042.553, 2179.909
1043.035, 2182.767
1043.518, 2182.188
1044.000, 2176.145
1044.482, 2153.854
1044.964, 2133.555
1045.446, 2134.475
1045.928, 2151.858
1046.410, 2158.234
1046.892, 2149.429
1047.375, 2138.110
1047.857, 2124.660
1048.339, 2115.138
1048.821, 2124.284
1049.303, 2142.907
1049.785, 2152.655
1050.267, 2147.986
1050.749, 2143.062
1051.231, 2148.005
1051.714, 2148.150
1052.196, 2131.435
1052.678, 2101.281
1053.160, 2097.686
1053.642, 2117.902
1054.124, 2129.324
1054.606, 2103.241
1055.088, 2073.716
1055.571, 2065.142
1056.053, 2070.925
1056.535, 2079.467
1057.017, 2092.571
1057.499, 2099.802
1057.981, 2099.535
1058.463, 2096.845
1058.945, 2095.664
1059.427, 2096.197
1059.910, 2099.670
1060.392, 2105.839
1060.874, 2111.031
1061.356, 2114.763
1061.838, 2116.132
1062.320, 2114.917
1062.802, 2111.167
1063.284, 2102.997
1063.766, 2091.571
1064.249, 2085.418
1064.731, 2088.166
1065.213, 2092.064
1065.695, 2088.925
1066.177, 2085.824
1066.659, 2092.011
1067.141, 2110.448
1067.623, 2114.233
1068.105, 2100.392
1068.588, 2090.244
1069.070, 2104.794
1069.552, 2125.013
1070.034, 2116.818
1070.516, 2091.803
1070.998, 2079.385
1071.480, 2105.208
1071.962, 2120.783
1072.445, 2118.211
1072.927, 2109.110
1073.409, 2105.704
1073.891, 2107.510
1074.373, 2115.888
1074.855, 2130.612
1075.337, 2136.708
1075.819, 2112.147
1076.302, 2089.753
1076.784, 2093.089
1077.266, 2076.649
1077.748, 2108.043
1078.230, 2078.121
1078.712, 2067.542
1079.194, 2094.305
1079.676, 2126.077
1080.158, 2128.981
1080.641, 2117.306
1081.123, 2106.277
1081.605, 2097.326
1082.087, 2093.797
1082.569, 2096.783
1083.051, 2102.440
1083.533, 2110.435
1084.015, 2118.498
1084.498, 2121.201
1084.980, 2119.367
1085.462, 2115.456
1085.944, 2106.546
1086.426, 2101.010
1086.908, 2101.163
1087.390, 2104.255
1087.872, 2108.093
1088.354, 2112.520
1088.837, 2115.565
1089.319, 2117.163
1089.801, 2118.219
1090.283, 2117.689
1090.765, 2118.442
1091.247, 2125.418
1091.729, 2135.171
1092.211, 2134.601
1092.693, 2121.608
1093.176, 2113.340
1093.658, 2114.841
1094.140, 2116.568
1094.622, 2102.552
1095.104, 2085.123
1095.586, 2080.969
1096.068, 2095.289
1096.550, 2103.523
1097.032, 2100.755
1097.515, 2100.043
1097.997, 2109.791
1098.479, 2122.656
1098.961, 2116.170
1099.443, 2098.925
1099.925, 2093.862
1100.407, 2121.367
1100.889, 2139.624
1101.372, 2132.582
1101.854, 2117.634
1102.336, 2105.047
1102.818, 2095.167
1103.300, 2098.318
1103.782, 2113.057
1104.264, 2122.412
1104.746, 2112.603
1105.229, 2097.867
1105.711, 2082.399
1106.193, 2069.105
1106.675, 2063.671
1107.157, 2067.823
1107.639, 2067.886
1108.121, 2061.632
1108.603, 2056.579
1109.085, 2065.578
1109.568, 2075.267
1110.050, 2066.379
1110.532, 2039.644
1111.014, 2031.660
1111.496, 2051.244
1111.978, 2070.428
1112.460, 2081.997
1112.942, 2088.823
1113.425, 2096.824
1113.907, 2103.069
1114.389, 2100.778
1114.871, 2086.229
1115.353, 2074.195
1115.835, 2069.366
1116.317, 2065.687
1116.799, 2057.889
1117.281, 2049.914
1117.764, 2067.941
1118.246, 2101.696
1118.728, 2108.469
1119.210, 2046.129
1119.692, 1993.878
1120.174, 1995.244
1120.656, 2014.293
1121.138, 2018.766
1121.620, 2007.696
1122.103, 2011.816
1122.585, 2030.781
1123.067, 2043.955
1123.549, 2033.908
1124.031, 2017.538
1124.513, 2002.838
1124.995, 1991.698
1125.477, 1988.667
1125.959, 1997.711
1126.442, 1993.881
1126.924, 1972.349
1127.406, 1951.830
1127.888, 1951.750
1128.370, 1961.436
1128.852, 1971.053
1129.334, 1979.690
1129.816, 1986.913
1130.299, 1992.028
1130.781, 1997.915
1131.263, 2006.196
1131.745, 2013.323
1132.227, 2015.842
1132.709, 2012.949
1133.191, 1999.228
1133.673, 1970.394
1134.156, 1957.928
1134.638, 1979.913
1135.120, 2001.156
1135.602, 2008.309
1136.084, 2004.859
1136.566, 1999.288
1137.048, 1991.554
1137.530, 1980.468
1138.012, 1960.475
1138.495, 1949.294
1138.977, 1965.097
1139.459, 1980.928
1139.941, 1976.935
1140.423, 1955.723
1140.905, 1948.956
1141.387, 1954.605
1141.869, 1957.541
1142.352, 1944.048
1142.834, 1932.362
1143.316, 1932.074
1143.798, 1938.785
1144.280, 1948.889
1144.762, 1963.665
1145.244, 1965.547
1145.726, 1953.758
1146.208, 1940.892
1146.691, 1932.143
1147.173, 1929.970
1147.655, 1942.161
1148.137, 1961.946
1148.619, 1968.407
1149.101, 1957.030
1149.583, 1953.782
1150.065, 1962.885
1150.547, 1973.259
1151.030, 1972.237
1151.512, 1967.973
1151.994, 1971.089
1152.476, 1981.091
1152.958, 1983.513
1153.440, 1975.291
1153.922, 1966.856
1154.404, 1960.419
1154.886, 1955.268
1155.369, 1950.834
1155.851, 1946.848
1156.333, 1941.710
1156.815, 1934.363
1157.297, 1935.813
1157.779, 1954.517
1158.261, 1964.899
1158.743, 1954.823
1159.226, 1934.319
1159.708, 1922.273
1160.190, 1916.121
1160.672, 1909.921
1161.154, 1901.128
1161.636, 1896.046
1162.118, 1899.304
1162.600, 1901.060
1163.083, 1895.510
1163.565, 1884.651
1164.047, 1871.127
1164.529, 1857.852
1165.011, 1854.953
1165.493, 1875.544
1165.975, 1891.798
1166.457, 1892.737
1166.939, 1890.098
1167.422, 1892.839
1167.904, 1899.955
1168.386, 1903.660
1168.868, 1904.186
1169.350, 1902.780
1169.832, 1900.085
1170.314, 1895.461
1170.796, 1880.087
1171.279, 1869.043
1171.761, 1885.895
1172.243, 1927.797
1172.725, 1940.331
1173.207, 1922.475
1173.689, 1905.166
1174.171, 1913.319
1174.653, 1922.520
1175.135, 1915.709
1175.618, 1903.009
1176.100, 1903.935
1176.582, 1918.518
1177.064, 1916.301
1177.546, 1893.021
1178.028, 1876.784
1178.510, 1899.726
1178.992, 1927.458
1179.474, 1939.837
1179.957, 1937.311
1180.439, 1918.132
1180.921, 1880.565
1181.403, 1858.520
1181.885, 1859.439
1182.367, 1868.720
1182.849, 1875.544
1183.331, 1883.337
1183.813, 1898.688
1184.296, 1919.217
1184.778, 1924.402
1185.260, 1912.563
1185.742, 1903.986
1186.224, 1905.667
1186.706, 1907.623
1187.188, 1894.554
1187.670, 1880.249
1188.153, 1883.328
1188.635, 1905.418
1189.117, 1908.792
1189.599, 1891.742
1190.081, 1868.276
1190.563, 1837.996
1191.045, 1815.876
1191.527, 1823.890
1192.010, 1846.881
1192.492, 1868.896
1192.974, 1889.772
1193.456, 1894.544
1193.938, 1879.723
1194.420, 1872.148
1194.902, 1892.909
1195.384, 1915.648
1195.866, 1900.644
1196.349, 1909.836
1196.831, 1907.537
1197.313, 1888.151
1197.795, 1888.820
1198.277, 1857.054
1198.759, 1823.793
1199.241, 1803.971
1199.723, 1797.418
1200.206, 1811.746
1200.688, 1837.270
1201.170, 1855.921
1201.652, 1862.789
1202.134, 1867.997
1202.616, 1871.513
1203.098, 1873.638
1203.580, 1872.030
1204.063, 1871.090
1204.545, 1882.588
1205.027, 1898.506
1205.509, 1897.559
1205.991, 1867.764
1206.473, 1844.797
1206.955, 1830.014
1207.437, 1822.421
1207.919, 1822.630
1208.401, 1828.334
1208.884, 1842.913
1209.366, 1860.965
1209.848, 1862.207
1210.330, 1835.270
1210.812, 1817.966
1211.294, 1813.998
1211.776, 1817.853
1212.258, 1826.213
1212.740, 1837.740
1213.223, 1853.953
1213.705, 1872.547
1214.187, 1881.527
1214.669, 1877.518
1215.151, 1873.246
1215.633, 1871.114
1216.115, 1865.793
1216.597, 1843.479
1217.080, 1820.094
1217.562, 1817.759
1218.044, 1834.710
1218.526, 1846.732
1219.008, 1850.698
1219.490, 1853.714
1219.972, 1856.807
1220.454, 1859.981
1220.937, 1863.543
1221.419, 1866.951
1221.901, 1868.895
1222.383, 1869.605
1222.865, 1873.775
1223.347, 1883.850
1223.829, 1887.493
1224.311, 1880.799
1224.793, 1872.174
1225.276, 1873.808
1225.758, 1877.216
1226.240, 1872.418
1226.722, 1858.649
1227.204, 1844.889
1227.686, 1828.818
1228.168, 1827.971
1228.650, 1851.764
1229.133, 1874.213
1229.615, 1853.681
1230.097, 1824.360
1230.579, 1828.040
1231.061, 1867.015
1231.543, 1880.341
1232.025, 1864.028
1232.507, 1853.206
1232.990, 1859.497
1233.472, 1870.145
1233.954, 1874.792
1234.436, 1874.860
1234.918, 1869.714
1235.400, 1859.925
1235.882, 1857.005
1236.364, 1861.489
1236.846, 1864.784
1237.328, 1863.204
1237.811, 1862.039
1238.293, 1865.727
1238.775, 1872.585
1239.257, 1884.932
1239.739, 1901.442
1240.221, 1894.310
1240.703, 1863.801
1241.185, 1845.408
1241.667, 1856.238
1242.150, 1870.231
1242.632, 1868.773
1243.114, 1859.152
1243.596, 1845.135
1244.078, 1827.969
1244.560, 1823.142
1245.042, 1830.125
1245.524, 1844.855
1246.007, 1871.572
1246.489, 1891.132
1246.971, 1885.104
1247.453, 1871.920
1247.935, 1866.196
1248.417, 1866.971
1248.899, 1867.811
1249.381, 1868.718
1249.864, 1869.719
1250.346, 1869.983
1250.828, 1872.230
1251.310, 1883.466
1251.792, 1891.152
1252.274, 1884.633
1252.756, 1868.130
1253.238, 1862.808
1253.720, 1867.299
1254.203, 1876.303
1254.685, 1891.538
1255.167, 1902.991
1255.649, 1908.090
1256.131, 1907.525
1256.613, 1898.721
1257.095, 1885.548
1257.577, 1881.959
1258.060, 1885.856
1258.542, 1891.808
1259.024, 1903.316
1259.506, 1902.821
1259.988, 1878.528
1260.470, 1860.095
1260.952, 1871.514
1261.434, 1896.210
1261.917, 1889.032
1262.399, 1863.482
1262.881, 1850.077
1263.363, 1862.675
1263.845, 1876.978
1264.327, 1893.424
1264.809, 1905.459
1265.291, 1907.112
1265.773, 1903.937
1266.255, 1904.425
1266.738, 1907.214
1267.220, 1909.864
1267.702, 1911.551
1268.184, 1915.070
1268.666, 1921.771
1269.148, 1923.514
1269.630, 1912.154
1270.112, 1897.844
1270.594, 1890.898
1271.077, 1889.688
1271.559, 1892.417
1272.041, 1898.992
1272.523, 1910.154
1273.005, 1926.881
1273.487, 1931.306
1273.969, 1903.415
1274.451, 1875.369
1274.934, 1877.299
1275.416, 1892.470
1275.898, 1901.612
1276.380, 1904.210
1276.862, 1902.796
1277.344, 1897.610
1277.826, 1891.446
1278.308, 1881.262
1278.791, 1877.865
1279.273, 1896.685
1279.755, 1916.967
1280.237, 1920.446
1280.719, 1909.811
1281.201, 1909.248
1281.683, 1916.033
1282.165, 1916.598
1282.647, 1900.182
1283.130, 1887.137
1283.612, 1883.802
1284.094, 1886.531
1284.576, 1897.138
1285.058, 1910.533
1285.540, 1905.885
1286.022, 1890.071
1286.504, 1881.848
1286.987, 1890.801
1287.469, 1899.525
1287.951, 1907.819
1288.433, 1910.428
1288.915, 1898.818
1289.397, 1885.261
1289.879, 1898.985
1290.361, 1925.518
1290.844, 1938.384
1291.326, 1926.826
1291.808, 1914.846
1292.290, 1900.980
1292.772, 1894.581
1293.254, 1902.091
1293.736, 1916.483
1294.218, 1936.468
1294.700, 1954.751
1295.182, 1959.295
1295.665, 1949.568
1296.147, 1944.446
1296.629, 1943.984
1297.111, 1937.595
1297.593, 1914.534
1298.075, 1897.964
1298.557, 1916.534
1299.039, 1939.963
1299.521, 1940.363
1300.004, 1921.709
1300.486, 1916.771
1300.968, 1922.507
1301.450, 1920.027
1301.932, 1896.331
##END=



