##NAMES=Ferrostrunzite
##RRUFFID=R100079
##IDEAL CHEMISTRY=Fe^2+^Fe^3+^_2_(P^5+^O_4_)_2_(OH)_2_&#183;6H_2_O
##LOCALITY=Hornerstown, Monmouth County, New Jersey, USA
##OWNER=RRUFF
##SOURCE=Jeff Weissman
##DESCRIPTION=Radial sprays of colorless acicular crystals
##STATUS=The identification of this mineral has been confirmed only by single crystal X-ray diffraction.
##URL=rruff.info/R100079
91.53320, 253.3958
92.01532, 250.0759
92.49744, 248.2509
92.97955, 252.6246
93.46167, 258.5601
93.94379, 260.9154
94.42590, 260.6343
94.90802, 259.3410
95.39014, 258.2848
95.87225, 257.6947
96.35437, 256.5448
96.83649, 254.4724
97.31860, 251.9722
97.80072, 249.4453
98.28284, 246.7380
98.76495, 243.7220
99.24707, 241.0305
99.72919, 238.4794
100.2113, 236.5728
100.6934, 235.9474
101.1755, 236.0273
101.6577, 235.6881
102.1398, 233.7884
102.6219, 229.7914
103.1040, 227.0811
103.5861, 225.9881
104.0682, 225.4481
104.5504, 225.0755
105.0325, 224.7279
105.5146, 224.2236
105.9967, 223.1776
106.4788, 221.0095
106.9609, 219.8240
107.4431, 220.7414
107.9252, 222.4281
108.4073, 223.0024
108.8894, 221.7074
109.3715, 219.3797
109.8536, 217.3585
110.3358, 215.4960
110.8179, 214.1865
111.3000, 213.9635
111.7821, 214.7033
112.2642, 215.2022
112.7463, 214.9468
113.2285, 214.2375
113.7106, 213.2534
114.1927, 211.8915
114.6748, 210.6254
115.1569, 210.2746
115.6390, 211.3245
116.1212, 212.0292
116.6033, 211.6686
117.0854, 210.8360
117.5675, 210.0824
118.0496, 209.6743
118.5317, 209.5488
119.0139, 209.4194
119.4960, 209.4066
119.9781, 209.2436
120.4602, 208.6729
120.9423, 207.9200
121.4244, 207.3874
121.9066, 207.4124
122.3887, 208.0506
122.8708, 208.4636
123.3529, 208.4453
123.8350, 208.4407
124.3171, 208.8482
124.7993, 209.5906
125.2814, 210.0760
125.7635, 209.5841
126.2456, 207.7995
126.7277, 206.7341
127.2098, 206.8634
127.6920, 207.5246
128.1741, 208.0954
128.6562, 208.4718
129.1383, 208.6600
129.6204, 208.5143
130.1025, 208.0702
130.5847, 207.8108
131.0668, 208.1504
131.5489, 208.8773
132.0310, 209.2317
132.5131, 208.8920
132.9952, 208.2829
133.4774, 207.6313
133.9595, 206.9565
134.4416, 206.6335
134.9237, 207.3501
135.4058, 209.3895
135.8879, 210.5152
136.3701, 209.1409
136.8522, 207.4586
137.3343, 206.7954
137.8164, 207.4640
138.2985, 208.7222
138.7806, 209.2833
139.2628, 208.6500
139.7449, 208.1915
140.2270, 208.0974
140.7091, 208.1794
141.1912, 208.2639
141.6733, 208.2719
142.1555, 208.2525
142.6376, 208.3770
143.1197, 208.4611
143.6018, 208.9131
144.0839, 210.0395
144.5660, 211.5364
145.0482, 213.0302
145.5303, 214.3705
146.0124, 215.4585
146.4945, 215.5683
146.9766, 213.8040
147.4587, 212.1708
147.9409, 211.5074
148.4230, 211.7221
148.9051, 212.3354
149.3872, 213.2284
149.8693, 214.2536
150.3514, 214.7560
150.8336, 214.1309
151.3157, 213.3437
151.7978, 213.3621
152.2799, 214.3053
152.7620, 215.3403
153.2441, 215.7739
153.7263, 215.8664
154.2084, 216.0405
154.6905, 216.5753
155.1726, 217.2635
155.6547, 217.5937
156.1368, 217.3316
156.6190, 217.1306
157.1011, 217.4618
157.5832, 218.1029
158.0653, 218.6119
158.5474, 218.5298
159.0295, 217.9396
159.5117, 217.9760
159.9938, 219.3858
160.4759, 220.7271
160.9580, 221.3912
161.4401, 221.5272
161.9222, 221.6075
162.4044, 222.0782
162.8865, 223.0357
163.3686, 223.8325
163.8507, 224.3727
164.3328, 224.8529
164.8149, 225.3242
165.2971, 225.8099
165.7792, 226.3333
166.2613, 226.9660
166.7434, 227.9004
167.2255, 228.3054
167.7076, 227.8044
168.1898, 227.1166
168.6719, 226.7736
169.1540, 226.8718
169.6361, 227.1053
170.1182, 227.0180
170.6003, 226.3655
171.0825, 226.0336
171.5646, 226.4675
172.0467, 227.0864
172.5288, 227.2082
173.0109, 226.6201
173.4930, 225.6295
173.9752, 224.4806
174.4573, 222.9670
174.9394, 222.2669
175.4215, 223.5655
175.9036, 225.9183
176.3857, 227.1770
176.8679, 226.5857
177.3500, 224.8559
177.8321, 222.7308
178.3142, 220.0817
178.7963, 218.0797
179.2784, 217.7695
179.7606, 218.9417
180.2427, 219.9325
180.7248, 220.3201
181.2069, 220.3232
181.6890, 220.0427
182.1711, 219.4699
182.6533, 218.9745
183.1354, 219.0504
183.6175, 219.8109
184.0996, 220.2470
184.5817, 219.5566
185.0638, 218.8184
185.5460, 218.7791
186.0281, 219.5808
186.5102, 220.6265
186.9923, 221.0640
187.4744, 220.6695
187.9565, 220.2337
188.4387, 219.7444
188.9208, 219.3204
189.4029, 219.0073
189.8850, 218.8272
190.3671, 218.8449
190.8492, 219.2392
191.3314, 220.4950
191.8135, 221.3164
192.2956, 221.4855
192.7777, 221.3135
193.2598, 220.9426
193.7419, 220.4476
194.2241, 220.0184
194.7062, 220.1147
195.1883, 221.7619
195.6704, 222.7530
196.1525, 222.5826
196.6346, 221.8778
197.1168, 221.2921
197.5989, 221.0984
198.0810, 221.2800
198.5631, 221.8380
199.0452, 223.6133
199.5273, 224.6507
200.0095, 224.1387
200.4916, 222.7532
200.9737, 221.5874
201.4558, 221.1302
201.9379, 221.1708
202.4200, 221.0714
202.9022, 220.5378
203.3843, 220.3636
203.8664, 221.2696
204.3485, 222.8174
204.8306, 223.7267
205.3127, 223.2753
205.7949, 222.0300
206.2770, 221.3007
206.7591, 221.2446
207.2412, 221.2944
207.7233, 220.9743
208.2054, 220.3911
208.6876, 220.2827
209.1697, 221.3204
209.6518, 222.7088
210.1339, 223.1783
210.6160, 222.3878
211.0981, 221.5223
211.5803, 221.7122
212.0624, 222.9607
212.5445, 223.9423
213.0266, 224.0742
213.5087, 223.7652
213.9908, 223.3036
214.4730, 222.6870
214.9551, 222.1632
215.4372, 222.0000
215.9193, 222.2160
216.4014, 222.6786
216.8836, 223.7676
217.3657, 224.8631
217.8478, 225.5835
218.3299, 225.8349
218.8120, 225.6893
219.2941, 225.0459
219.7763, 223.5592
220.2584, 222.7409
220.7405, 223.3896
221.2226, 224.4243
221.7047, 225.1486
222.1868, 225.3699
222.6690, 225.3136
223.1511, 225.2851
223.6332, 225.1736
224.1153, 225.3719
224.5974, 226.1965
225.0795, 227.1143
225.5617, 227.7345
226.0438, 227.9509
226.5259, 227.9386
227.0080, 228.0153
227.4901, 228.3618
227.9722, 228.4495
228.4544, 228.1044
228.9365, 227.6332
229.4186, 227.2987
229.9007, 227.1660
230.3828, 227.0834
230.8649, 226.7728
231.3471, 225.9231
231.8292, 225.3499
232.3113, 225.5702
232.7934, 225.7481
233.2755, 224.9339
233.7576, 222.9482
234.2398, 220.6857
234.7219, 219.6960
235.2040, 221.2323
235.6861, 221.8276
236.1682, 220.7865
236.6503, 219.2046
237.1325, 218.0643
237.6146, 217.6273
238.0967, 217.5054
238.5788, 217.1314
239.0609, 216.3786
239.5430, 215.6440
240.0252, 214.9312
240.5073, 214.2487
240.9894, 213.6027
241.4715, 212.9919
241.9536, 212.4402
242.4357, 212.0049
242.9179, 211.7409
243.4000, 211.3488
243.8821, 210.5164
244.3642, 209.6758
244.8463, 209.3149
245.3284, 209.5367
245.8106, 210.1016
246.2927, 210.8816
246.7748, 211.9036
247.2569, 212.5444
247.7390, 212.4879
248.2211, 212.1000
248.7033, 211.7534
249.1854, 211.4864
249.6675, 211.3862
250.1496, 211.6491
250.6317, 212.2159
251.1138, 212.6781
251.5960, 212.8313
252.0781, 212.8863
252.5602, 213.1820
253.0423, 213.7984
253.5244, 214.3572
254.0065, 214.3913
254.4887, 214.0824
254.9708, 213.9269
255.4529, 214.4595
255.9350, 215.0497
256.4171, 214.5900
256.8992, 212.7978
257.3813, 211.1111
257.8635, 210.5829
258.3456, 210.8618
258.8277, 211.5306
259.3098, 212.9248
259.7919, 214.3760
260.2740, 214.7549
260.7562, 213.8139
261.2383, 212.8659
261.7204, 212.8251
262.2025, 213.1835
262.6846, 213.3201
263.1667, 212.9518
263.6489, 212.4146
264.1310, 212.2957
264.6131, 212.7628
265.0952, 212.9136
265.5773, 211.7118
266.0594, 210.2412
266.5416, 209.6535
267.0237, 210.4583
267.5058, 211.6972
267.9879, 212.0462
268.4700, 211.3275
268.9521, 210.5422
269.4343, 209.8386
269.9164, 209.3065
270.3985, 209.1414
270.8806, 209.4242
271.3627, 209.7391
271.8448, 209.4646
272.3270, 208.4360
272.8091, 207.6697
273.2912, 207.4089
273.7733, 207.4987
274.2554, 208.0879
274.7375, 209.1636
275.2197, 210.1080
275.7018, 210.0894
276.1839, 208.9201
276.6660, 208.0070
277.1481, 207.6040
277.6302, 207.4834
278.1124, 207.7481
278.5945, 208.3137
279.0766, 208.7577
279.5587, 208.4806
280.0408, 207.3396
280.5229, 206.7749
281.0051, 207.3868
281.4872, 208.1649
281.9693, 209.0436
282.4514, 209.8024
282.9335, 209.9135
283.4156, 208.6323
283.8978, 205.9120
284.3799, 203.9967
284.8620, 203.1061
285.3441, 202.9151
285.8262, 203.7698
286.3083, 205.2426
286.7905, 206.4733
287.2726, 206.7620
287.7547, 206.2355
288.2368, 206.1384
288.7189, 207.0582
289.2010, 207.7117
289.6832, 207.6986
290.1653, 207.2178
290.6474, 206.5271
291.1295, 205.7253
291.6116, 204.9104
292.0938, 204.5184
292.5759, 204.9508
293.0580, 205.2519
293.5401, 205.0700
294.0222, 204.7320
294.5043, 204.6590
294.9865, 205.0500
295.4686, 205.6551
295.9507, 205.8715
296.4328, 205.5865
296.9149, 205.0685
297.3970, 204.1273
297.8792, 203.1313
298.3613, 202.3641
298.8434, 201.9174
299.3255, 201.7575
299.8076, 201.8586
300.2897, 202.3358
300.7719, 202.8257
301.2540, 203.6168
301.7361, 204.1974
302.2182, 203.9867
302.7003, 203.0291
303.1824, 202.1026
303.6646, 202.3070
304.1467, 204.1924
304.6288, 205.1919
305.1109, 204.5086
305.5930, 203.6974
306.0751, 203.6089
306.5573, 204.1177
307.0394, 204.4818
307.5215, 203.9448
308.0036, 202.4086
308.4857, 201.3665
308.9678, 201.1407
309.4500, 201.1163
309.9321, 201.3038
310.4142, 201.5587
310.8963, 201.6568
311.3784, 201.4480
311.8605, 200.9498
312.3427, 200.2983
312.8248, 199.0628
313.3069, 198.1879
313.7890, 198.0479
314.2711, 198.2980
314.7532, 198.5471
315.2354, 198.6134
315.7175, 198.4612
316.1996, 197.9508
316.6817, 196.7172
317.1638, 195.6966
317.6459, 194.8952
318.1281, 194.3740
318.6102, 194.3674
319.0923, 194.8997
319.5744, 195.4970
320.0565, 195.2866
320.5386, 193.7233
321.0208, 192.6114
321.5029, 192.2564
321.9850, 192.1209
322.4671, 191.9758
322.9492, 191.7362
323.4313, 191.3173
323.9135, 190.4648
324.3956, 188.9146
324.8777, 188.3080
325.3598, 189.8644
325.8419, 191.2331
326.3240, 191.3403
326.8062, 190.4488
327.2883, 189.5014
327.7704, 189.2507
328.2525, 189.6463
328.7346, 189.7686
329.2167, 189.4588
329.6989, 189.0273
330.1810, 188.5357
330.6631, 187.9790
331.1452, 187.3002
331.6273, 186.4408
332.1094, 185.5316
332.5916, 184.9847
333.0737, 184.9234
333.5558, 185.0526
334.0379, 185.5289
334.5200, 186.0329
335.0021, 186.2629
335.4843, 186.1236
335.9664, 185.7364
336.4485, 185.2330
336.9306, 184.4823
337.4127, 184.0085
337.8948, 183.9721
338.3770, 184.1246
338.8591, 184.3734
339.3412, 184.6867
339.8233, 185.0266
340.3055, 185.4407
340.7876, 185.9720
341.2697, 186.1181
341.7518, 185.5349
342.2339, 184.8747
342.7160, 184.3116
343.1982, 183.8710
343.6803, 183.5549
344.1624, 183.3588
344.6445, 183.2895
345.1266, 183.4159
345.6087, 183.9483
346.0909, 184.3288
346.5730, 184.2868
347.0551, 184.0446
347.5372, 183.8943
348.0193, 183.9712
348.5014, 184.1303
348.9836, 184.0414
349.4657, 183.5542
349.9478, 183.3294
350.4299, 183.7475
350.9120, 184.3667
351.3941, 184.9564
351.8763, 185.4627
352.3584, 185.7776
352.8405, 185.7780
353.3226, 185.4600
353.8047, 184.9283
354.2868, 183.9297
354.7690, 182.9961
355.2511, 182.2986
355.7332, 181.8996
356.2153, 182.0031
356.6974, 183.0842
357.1795, 184.8306
357.6617, 186.0193
358.1438, 186.5308
358.6259, 186.6736
359.1080, 186.4478
359.5901, 186.0254
360.0722, 185.7080
360.5544, 185.7657
361.0365, 185.7860
361.5186, 184.9339
362.0007, 183.0380
362.4828, 181.6675
362.9649, 181.7275
363.4471, 182.5266
363.9292, 183.3775
364.4113, 184.2799
364.8934, 184.9288
365.3755, 184.9688
365.8576, 184.5013
366.3398, 184.0940
366.8219, 183.9123
367.3040, 183.7701
367.7861, 183.3363
368.2682, 182.6556
368.7503, 182.3322
369.2325, 182.8689
369.7146, 183.8400
370.1967, 184.6319
370.6788, 185.2412
371.1609, 185.3578
371.6430, 184.4436
372.1252, 182.8039
372.6073, 181.4902
373.0894, 180.7747
373.5715, 180.3239
374.0536, 179.9217
374.5357, 179.5715
375.0179, 179.3049
375.5000, 179.1942
375.9821, 179.1272
376.4642, 178.8181
376.9463, 178.1538
377.4284, 177.5479
377.9106, 177.2262
378.3927, 177.0485
378.8748, 176.8018
379.3569, 176.4383
379.8390, 175.9313
380.3211, 175.2106
380.8033, 174.2353
381.2854, 173.2760
381.7675, 172.0212
382.2496, 171.0297
382.7317, 170.9284
383.2138, 171.6446
383.6960, 172.4204
384.1781, 172.6776
384.6602, 172.4597
385.1423, 172.4592
385.6244, 172.8692
386.1065, 173.2346
386.5887, 173.3838
387.0708, 173.3900
387.5529, 173.3613
388.0350, 173.3398
388.5171, 173.3647
388.9992, 173.5464
389.4814, 174.5242
389.9635, 174.6078
390.4456, 172.8126
390.9277, 170.7889
391.4098, 170.0199
391.8919, 170.6105
392.3741, 171.5091
392.8562, 171.6128
393.3383, 170.8002
393.8204, 170.1190
394.3025, 169.3205
394.7846, 168.8965
395.2668, 169.3234
395.7489, 170.2171
396.2310, 170.8626
396.7131, 170.8261
397.1952, 170.3116
397.6773, 170.0365
398.1595, 170.1815
398.6416, 170.2730
399.1237, 170.2336
399.6058, 170.1311
400.0879, 169.9697
400.5700, 169.7710
401.0522, 169.6582
401.5343, 169.8363
402.0164, 170.3759
402.4985, 170.7862
402.9806, 171.2434
403.4627, 171.3535
403.9449, 170.6181
404.4270, 169.3713
404.9091, 168.4746
405.3912, 168.6293
405.8733, 169.4351
406.3554, 169.5154
406.8376, 168.4201
407.3197, 167.7305
407.8018, 168.7359
408.2839, 170.1575
408.7660, 170.5400
409.2481, 169.3897
409.7303, 168.0281
410.2124, 168.0432
410.6945, 169.3118
411.1766, 169.8266
411.6587, 168.7635
412.1408, 167.3266
412.6230, 166.6553
413.1051, 166.6627
413.5872, 166.7427
414.0693, 166.6397
414.5514, 166.4534
415.0335, 166.3607
415.5157, 166.3820
415.9978, 166.3712
416.4799, 166.1754
416.9620, 165.8868
417.4441, 165.7897
417.9262, 166.0336
418.4084, 166.2842
418.8905, 166.3833
419.3726, 166.3438
419.8547, 166.1439
420.3368, 165.7297
420.8189, 165.3115
421.3011, 165.2865
421.7832, 165.7908
422.2653, 166.0883
422.7474, 165.7783
423.2295, 165.4490
423.7116, 165.6943
424.1938, 166.4972
424.6759, 167.3755
425.1580, 167.9887
425.6401, 168.3368
426.1222, 168.4265
426.6043, 168.1654
427.0865, 167.7962
427.5686, 167.1660
428.0507, 166.5274
428.5328, 166.2402
429.0149, 166.4386
429.4970, 166.9463
429.9792, 167.4883
430.4613, 168.2160
430.9434, 168.6308
431.4255, 168.4458
431.9076, 168.2568
432.3897, 168.5659
432.8719, 169.2165
433.3540, 169.5719
433.8361, 169.0142
434.3182, 167.7516
434.8003, 167.3592
435.2824, 168.6230
435.7646, 169.5674
436.2467, 169.3703
436.7288, 168.8026
437.2109, 168.7710
437.6930, 169.5658
438.1751, 170.5150
438.6573, 170.6201
439.1394, 169.7859
439.6215, 169.4949
440.1036, 170.5323
440.5857, 171.4974
441.0678, 171.2859
441.5500, 170.1834
442.0321, 169.3121
442.5142, 169.3206
442.9963, 169.8820
443.4784, 170.5583
443.9605, 171.4158
444.4427, 171.8288
444.9248, 171.0501
445.4069, 169.8473
445.8890, 169.6485
446.3711, 170.9100
446.8532, 172.0576
447.3354, 171.8943
447.8175, 171.0274
448.2996, 170.9265
448.7817, 172.0168
449.2638, 173.2454
449.7459, 173.3717
450.2281, 172.3095
450.7102, 171.7232
451.1923, 172.1360
451.6744, 172.6289
452.1565, 172.5690
452.6386, 172.0928
453.1208, 171.6594
453.6029, 171.4893
454.0850, 171.5691
454.5671, 171.8675
455.0492, 172.7673
455.5313, 173.3594
456.0135, 173.4963
456.4956, 173.4160
456.9777, 173.1992
457.4598, 172.9257
457.9419, 172.8094
458.4240, 173.1104
458.9062, 173.8395
459.3883, 174.1984
459.8704, 173.7057
460.3525, 173.3762
460.8346, 173.4234
461.3167, 173.7589
461.7989, 174.4026
462.2810, 175.3758
462.7631, 176.2129
463.2452, 176.0370
463.7273, 174.6216
464.2094, 173.5274
464.6916, 172.9555
465.1737, 172.7768
465.6558, 173.0595
466.1379, 173.6907
466.6200, 174.3052
467.1021, 174.6254
467.5843, 174.8351
468.0664, 175.4290
468.5485, 176.5093
469.0306, 177.2332
469.5127, 177.0618
469.9948, 176.3866
470.4770, 175.7849
470.9591, 175.2179
471.4412, 174.9487
471.9233, 175.4108
472.4054, 176.1878
472.8875, 176.4375
473.3697, 175.9866
473.8518, 175.4218
474.3339, 175.3204
474.8160, 175.6710
475.2981, 175.6492
475.7802, 174.7861
476.2624, 174.0529
476.7445, 174.0817
477.2266, 174.5159
477.7087, 174.6191
478.1908, 174.0939
478.6729, 173.3008
479.1551, 172.8932
479.6372, 173.0422
480.1193, 173.1933
480.6014, 173.6798
481.0835, 173.8732
481.5656, 173.1324
482.0478, 171.7731
482.5299, 170.6673
483.0120, 170.4114
483.4941, 170.7978
483.9762, 171.1131
484.4583, 171.5446
484.9405, 171.5005
485.4226, 170.2509
485.9047, 168.9380
486.3868, 168.5947
486.8689, 169.2891
487.3510, 170.1021
487.8332, 170.2398
488.3153, 169.8294
488.7974, 169.5151
489.2795, 169.3907
489.7616, 169.1848
490.2437, 168.5474
490.7259, 167.7621
491.2080, 167.2814
491.6901, 167.2829
492.1722, 167.4127
492.6543, 167.3859
493.1364, 167.2832
493.6186, 167.4194
494.1007, 167.9465
494.5828, 168.4113
495.0649, 168.2104
495.5470, 167.2582
496.0291, 166.6127
496.5113, 166.6048
496.9934, 166.6331
497.4755, 166.2646
497.9576, 165.6498
498.4397, 165.2381
498.9218, 165.2622
499.4040, 165.4602
499.8861, 165.2099
500.3682, 163.9360
500.8503, 163.2945
501.3324, 163.9823
501.8145, 164.6306
502.2967, 164.0617
502.7788, 162.6337
503.2609, 161.7419
503.7430, 162.5086
504.2251, 164.3740
504.7072, 165.0786
505.1894, 164.0807
505.6715, 163.1610
506.1536, 162.6322
506.6357, 162.4490
507.1178, 162.7822
507.5999, 163.6019
508.0821, 164.2662
508.5642, 164.2230
509.0463, 163.6623
509.5284, 163.0633
510.0105, 162.3918
510.4926, 161.9729
510.9748, 162.2003
511.4569, 162.7808
511.9390, 163.0074
512.4211, 162.6891
512.9032, 162.2948
513.3853, 161.9945
513.8674, 161.7863
514.3495, 161.6676
514.8317, 161.6363
515.3138, 161.7158
515.7959, 161.9697
516.2780, 162.4241
516.7601, 162.6224
517.2422, 162.5204
517.7244, 162.2573
518.2065, 161.6109
518.6886, 160.9222
519.1707, 160.7311
519.6528, 161.2111
520.1349, 161.9799
520.6171, 162.5014
521.0992, 162.7888
521.5813, 162.7787
522.0634, 162.2026
522.5455, 161.5824
523.0276, 161.0256
523.5098, 160.5722
523.9919, 160.3040
524.4740, 160.3026
524.9561, 160.3641
525.4382, 160.0858
525.9203, 159.4577
526.4025, 159.2030
526.8846, 159.7474
527.3667, 160.3723
527.8488, 160.2232
528.3309, 159.4467
528.8130, 159.0142
529.2952, 159.5522
529.7773, 160.2905
530.2594, 160.4153
530.7415, 160.0662
531.2236, 159.9994
531.7057, 160.6130
532.1879, 161.4981
532.6700, 161.8600
533.1521, 161.4375
533.6342, 161.0544
534.1163, 160.7260
534.5984, 160.4412
535.0806, 160.2653
535.5627, 160.1318
536.0448, 159.8043
536.5269, 159.0967
537.0090, 158.2703
537.4911, 158.2038
537.9733, 159.4014
538.4554, 160.2470
538.9375, 160.2078
539.4196, 160.0610
539.9017, 160.2953
540.3839, 160.8830
540.8660, 161.5164
541.3481, 162.2157
541.8302, 162.7096
542.3123, 162.1612
542.7944, 160.4202
543.2766, 158.9835
543.7587, 158.5220
544.2408, 158.6169
544.7229, 158.6616
545.2050, 158.6552
545.6871, 158.6209
546.1693, 158.5163
546.6514, 158.4190
547.1335, 158.4281
547.6156, 158.5364
548.0977, 158.6776
548.5798, 158.8362
549.0620, 158.9571
549.5441, 158.8556
550.0262, 158.1050
550.5083, 157.7043
550.9904, 158.1673
551.4725, 158.5928
551.9547, 158.0503
552.4368, 156.7470
552.9189, 155.7170
553.4010, 155.7760
553.8831, 156.6583
554.3652, 157.3572
554.8474, 157.9503
555.3295, 158.1565
555.8116, 157.3474
556.2937, 156.5091
556.7758, 156.4947
557.2579, 157.2910
557.7401, 157.9998
558.2222, 157.9699
558.7043, 157.5645
559.1864, 157.4070
559.6685, 157.5156
560.1506, 157.6933
560.6328, 157.8945
561.1149, 158.0576
561.5970, 158.0337
562.0791, 157.7974
562.5612, 157.5024
563.0433, 157.1321
563.5255, 156.7465
564.0076, 156.3245
564.4897, 155.9180
564.9718, 155.7081
565.4539, 155.8329
565.9360, 156.1655
566.4182, 156.2833
566.9003, 156.1637
567.3824, 155.8609
567.8645, 155.2475
568.3466, 154.5891
568.8287, 153.9374
569.3109, 153.3752
569.7930, 153.1354
570.2751, 153.4951
570.7572, 154.1252
571.2393, 154.2808
571.7214, 153.9190
572.2036, 153.6078
572.6857, 153.5532
573.1678, 153.5954
573.6499, 153.5573
574.1320, 153.4415
574.6141, 153.2812
575.0963, 153.0072
575.5784, 152.7541
576.0605, 152.5180
576.5426, 152.3875
577.0247, 152.7691
577.5068, 153.9159
577.9890, 155.2210
578.4711, 155.5020
578.9532, 154.2174
579.4353, 153.2646
579.9174, 152.7546
580.3995, 152.4189
580.8817, 152.1571
581.3638, 151.9698
581.8459, 151.9318
582.3280, 152.0985
582.8101, 152.2643
583.2922, 152.1111
583.7744, 151.6315
584.2565, 150.8799
584.7386, 149.5492
585.2207, 148.3851
585.7029, 148.0387
586.1850, 148.2495
586.6671, 148.3545
587.1492, 148.0013
587.6313, 147.7582
588.1135, 148.3506
588.5956, 149.3371
589.0777, 149.5658
589.5598, 148.7307
590.0419, 147.6315
590.5240, 147.1217
591.0062, 147.2364
591.4883, 147.1768
591.9704, 146.8595
592.4525, 146.4934
592.9346, 146.0950
593.4167, 145.6940
593.8989, 145.2422
594.3810, 144.7691
594.8631, 144.4924
595.3452, 144.7274
595.8273, 145.4167
596.3094, 145.9067
596.7916, 146.2072
597.2737, 146.2922
597.7558, 145.9286
598.2379, 145.4507
598.7200, 145.2492
599.2021, 145.3979
599.6843, 145.4995
600.1664, 145.3473
600.6485, 145.0281
601.1306, 144.5759
601.6127, 144.0293
602.0948, 143.6835
602.5770, 143.7708
603.0591, 144.0635
603.5412, 143.9217
604.0233, 142.8103
604.5054, 142.1427
604.9875, 142.1394
605.4697, 142.3761
605.9518, 142.7815
606.4339, 143.1940
606.9160, 143.2730
607.3981, 142.7889
607.8802, 142.0620
608.3624, 141.7807
608.8445, 142.0252
609.3266, 142.0671
609.8087, 141.5875
610.2908, 141.1523
610.7729, 141.3345
611.2551, 141.9035
611.7372, 142.1587
612.2193, 141.7570
612.7014, 141.1976
613.1835, 140.8338
613.6656, 140.5764
614.1478, 140.1411
614.6299, 139.4632
615.1120, 138.9608
615.5941, 139.1109
616.0762, 139.9176
616.5583, 140.4597
617.0405, 140.6799
617.5226, 140.7066
618.0047, 140.3386
618.4868, 139.9209
618.9689, 139.8713
619.4510, 140.1946
619.9332, 140.4560
620.4153, 140.2247
620.8974, 139.6549
621.3795, 139.3104
621.8616, 139.2260
622.3438, 139.2000
622.8259, 139.2369
623.3080, 139.2283
623.7901, 138.9551
624.2722, 138.3910
624.7543, 138.0753
625.2365, 138.3940
625.7186, 138.8130
626.2007, 138.9072
626.6828, 138.7292
627.1649, 138.4447
627.6470, 138.1173
628.1292, 137.8429
628.6113, 137.7896
629.0934, 138.0181
629.5755, 138.2078
630.0576, 138.3612
630.5397, 138.4661
631.0219, 138.5454
631.5040, 138.5610
631.9861, 138.4275
632.4682, 138.1150
632.9503, 137.8077
633.4324, 137.6295
633.9146, 137.5922
634.3967, 137.7729
634.8788, 138.1962
635.3609, 138.6777
635.8430, 139.1785
636.3251, 139.6253
636.8073, 139.7749
637.2894, 139.5396
637.7715, 139.2765
638.2536, 139.1529
638.7357, 138.9276
639.2178, 138.1614
639.7000, 137.1190
640.1821, 136.6199
640.6642, 137.1451
641.1463, 138.1252
641.6284, 138.3389
642.1105, 137.5948
642.5927, 137.1304
643.0748, 137.4360
643.5569, 137.5342
644.0390, 136.4408
644.5211, 134.8420
645.0032, 134.2359
645.4854, 135.3817
645.9675, 136.5733
646.4496, 136.4550
646.9317, 135.6638
647.4138, 135.4906
647.8959, 136.0806
648.3781, 136.5612
648.8602, 136.2772
649.3423, 135.3612
649.8244, 134.4244
650.3065, 132.8457
650.7886, 132.2210
651.2708, 133.6545
651.7529, 135.1054
652.2350, 135.0450
652.7171, 133.8030
653.1992, 132.6537
653.6813, 132.2638
654.1635, 132.2938
654.6456, 132.3294
655.1277, 132.3553
655.6098, 132.1185
656.0919, 131.4531
656.5740, 130.8594
657.0562, 130.8382
657.5383, 131.3064
658.0204, 131.5664
658.5025, 131.5538
658.9846, 131.4109
659.4667, 130.9416
659.9489, 130.5058
660.4310, 130.6922
660.9131, 131.3949
661.3952, 131.7989
661.8773, 131.2480
662.3594, 130.0592
662.8416, 129.2884
663.3237, 129.0392
663.8058, 128.7957
664.2879, 128.1119
664.7700, 127.8013
665.2521, 128.9169
665.7343, 130.9209
666.2164, 131.9374
666.6985, 130.7833
667.1806, 129.3777
667.6627, 129.0564
668.1448, 129.4495
668.6270, 129.9869
669.1091, 130.5139
669.5912, 130.8154
670.0733, 130.6806
670.5554, 130.1593
671.0375, 129.5761
671.5197, 128.5551
672.0018, 128.1178
672.4839, 128.7993
672.9660, 129.6789
673.4481, 130.2926
673.9302, 130.5500
674.4124, 130.3640
674.8945, 129.5015
675.3766, 128.4795
675.8587, 127.8058
676.3408, 127.5104
676.8229, 127.9450
677.3051, 129.3270
677.7872, 130.5130
678.2693, 130.4286
678.7514, 129.1868
679.2335, 128.0782
679.7156, 126.7049
680.1978, 125.9751
680.6799, 126.6314
681.1620, 127.5180
681.6441, 127.5346
682.1262, 126.8125
682.6083, 126.2756
683.0905, 126.5395
683.5726, 127.2232
684.0547, 127.6560
684.5368, 127.8363
685.0189, 127.8614
685.5010, 127.7476
685.9832, 127.4750
686.4653, 126.8755
686.9474, 126.0735
687.4295, 125.7007
687.9116, 126.1909
688.3937, 126.5373
688.8759, 126.3098
689.3580, 125.8934
689.8401, 125.5333
690.3222, 125.3502
690.8043, 125.6399
691.2864, 126.6889
691.7686, 127.9834
692.2507, 128.1270
692.7328, 126.8779
693.2149, 126.0481
693.6970, 126.1258
694.1791, 126.3093
694.6613, 125.9068
695.1434, 125.2116
695.6255, 124.9035
696.1076, 125.2521
696.5897, 125.6508
697.0718, 125.7913
697.5540, 125.8490
698.0361, 126.0463
698.5182, 126.3817
699.0003, 126.7488
699.4824, 127.0972
699.9645, 127.3490
700.4467, 127.2683
700.9288, 126.7372
701.4109, 126.3270
701.8930, 126.2852
702.3751, 126.0977
702.8572, 125.3449
703.3394, 124.3441
703.8215, 123.5904
704.3036, 123.1536
704.7857, 123.1091
705.2678, 123.9185
705.7499, 124.9225
706.2321, 125.1321
706.7142, 124.5979
707.1963, 123.9873
707.6784, 123.6276
708.1605, 123.4987
708.6426, 123.5822
709.1248, 123.9534
709.6069, 124.2656
710.0890, 124.3989
710.5711, 124.6187
711.0532, 125.1879
711.5353, 125.8144
712.0175, 126.1673
712.4996, 126.1864
712.9817, 125.8270
713.4638, 124.6126
713.9459, 123.2610
714.4280, 122.8867
714.9102, 123.3712
715.3923, 123.9804
715.8744, 124.4342
716.3565, 124.6258
716.8386, 124.3228
717.3207, 123.3944
717.8029, 122.9338
718.2850, 123.4624
718.7671, 123.8232
719.2492, 123.7305
719.7313, 123.3685
720.2134, 122.7059
720.6956, 121.8426
721.1777, 121.4639
721.6598, 122.5161
722.1419, 123.9030
722.6240, 124.0426
723.1061, 123.2368
723.5883, 122.7253
724.0704, 122.8847
724.5525, 123.2181
725.0346, 123.1809
725.5167, 122.7893
725.9988, 122.6614
726.4810, 123.3325
726.9631, 123.4825
727.4452, 122.3988
727.9273, 121.2103
728.4094, 120.7329
728.8915, 120.9371
729.3737, 121.4528
729.8558, 122.3658
730.3379, 123.0795
730.8200, 122.5900
731.3021, 121.4208
731.7842, 121.1696
732.2664, 122.1001
732.7485, 123.1180
733.2306, 123.4304
733.7127, 123.1444
734.1948, 122.6544
734.6769, 121.6879
735.1591, 121.0193
735.6412, 120.6648
736.1233, 120.5900
736.6054, 121.0483
737.0875, 121.7095
737.5696, 121.9380
738.0518, 121.4768
738.5339, 120.9157
739.0160, 120.7622
739.4981, 120.8125
739.9802, 120.6236
740.4623, 120.2110
740.9445, 120.0385
741.4266, 120.3848
741.9087, 120.8674
742.3908, 120.7316
742.8729, 119.6984
743.3550, 119.2568
743.8372, 120.1084
744.3193, 120.7159
744.8014, 120.4400
745.2835, 119.8471
745.7656, 119.5175
746.2477, 119.5407
746.7299, 119.7674
747.2120, 120.2484
747.6941, 120.7919
748.1762, 121.2861
748.6583, 121.6560
749.1404, 121.5497
749.6226, 120.8793
750.1047, 120.2622
750.5868, 120.4109
751.0689, 121.2057
751.5510, 121.2754
752.0331, 120.0355
752.5153, 119.1965
752.9974, 119.3590
753.4795, 119.7151
753.9616, 119.7490
754.4437, 119.5506
754.9258, 119.4860
755.4080, 119.7290
755.8901, 120.0061
756.3722, 120.2053
756.8543, 120.2849
757.3364, 120.0405
757.8185, 119.5552
758.3007, 119.4022
758.7828, 119.9812
759.2649, 120.7688
759.7470, 120.4693
760.2291, 118.6804
760.7112, 117.7528
761.1934, 118.0087
761.6755, 118.7108
762.1576, 120.1236
762.6397, 121.4968
763.1218, 121.7086
763.6039, 120.5409
764.0861, 119.4333
764.5682, 118.8798
765.0503, 118.5732
765.5324, 118.2997
766.0145, 118.0896
766.4966, 118.0167
766.9788, 118.1054
767.4609, 118.3730
767.9430, 118.9278
768.4251, 119.6399
768.9072, 119.7453
769.3893, 119.0771
769.8715, 118.7186
770.3536, 119.2374
770.8357, 119.7086
771.3178, 119.0086
771.7999, 117.4299
772.2820, 116.4942
772.7642, 116.4709
773.2463, 116.8520
773.7284, 118.1553
774.2105, 119.3003
774.6926, 118.9830
775.1747, 117.6228
775.6569, 116.6851
776.1390, 116.9255
776.6211, 117.6228
777.1032, 117.7999
777.5853, 117.5496
778.0674, 117.4449
778.5496, 117.5592
779.0317, 117.4661
779.5138, 116.8123
779.9959, 116.0552
780.4780, 116.0827
780.9601, 117.2334
781.4423, 117.7875
781.9244, 117.1366
782.4065, 116.6550
782.8886, 116.9320
783.3707, 117.5052
783.8528, 117.9517
784.3350, 118.1698
784.8171, 118.1251
785.2992, 117.6354
785.7813, 117.0532
786.2634, 116.8006
786.7455, 116.8411
787.2277, 117.1640
787.7098, 117.7553
788.1919, 118.1895
788.6740, 118.1150
789.1561, 117.6465
789.6382, 117.1743
790.1204, 116.5971
790.6025, 116.2636
791.0846, 116.1597
791.5667, 116.3531
792.0488, 117.3148
792.5309, 118.4221
793.0131, 118.5578
793.4952, 117.3813
793.9773, 116.4303
794.4594, 116.7818
794.9415, 117.3733
795.4236, 117.0525
795.9058, 116.1861
796.3879, 115.8124
796.8700, 116.2127
797.3521, 116.6875
797.8342, 116.4383
798.3163, 115.6698
798.7985, 115.5080
799.2806, 116.0685
799.7627, 116.5700
800.2448, 116.8723
800.7269, 117.0109
801.2090, 116.9917
801.6912, 116.8252
802.1733, 116.5912
802.6554, 116.0663
803.1375, 115.8284
803.6196, 116.2128
804.1017, 116.7130
804.5839, 116.9361
805.0660, 116.9886
805.5481, 117.2640
806.0302, 117.9134
806.5123, 118.3116
806.9944, 117.4843
807.4766, 116.0377
807.9587, 115.5548
808.4408, 115.9992
808.9229, 116.2793
809.4050, 115.9681
809.8871, 115.5725
810.3693, 115.7810
810.8514, 116.5809
811.3335, 116.6364
811.8156, 115.2694
812.2977, 114.2920
812.7798, 113.9134
813.2620, 114.0379
813.7441, 114.9775
814.2262, 116.3613
814.7083, 117.2157
815.1904, 117.2458
815.6725, 116.8008
816.1547, 115.5210
816.6368, 114.2487
817.1189, 114.1246
817.6010, 114.9074
818.0831, 115.6953
818.5652, 116.0927
819.0474, 116.1038
819.5295, 115.5749
820.0116, 114.6034
820.4937, 114.1018
820.9758, 114.1107
821.4579, 114.4016
821.9401, 115.0968
822.4222, 115.7012
822.9043, 115.5584
823.3864, 114.7146
823.8685, 114.3753
824.3506, 115.1157
824.8328, 115.5333
825.3149, 115.2644
825.7970, 114.7419
826.2791, 114.0043
826.7612, 113.3155
827.2433, 113.2677
827.7255, 114.1554
828.2076, 115.0686
828.6897, 115.2843
829.1718, 115.0017
829.6539, 114.2526
830.1360, 113.2540
830.6182, 112.9775
831.1003, 113.7980
831.5824, 114.9017
832.0645, 115.3415
832.5466, 115.1511
833.0287, 114.6035
833.5109, 113.3840
833.9930, 112.8004
834.4751, 113.5873
834.9572, 114.5256
835.4393, 114.6457
835.9214, 114.1295
836.4036, 113.4182
836.8857, 112.2192
837.3678, 111.4877
837.8499, 111.6954
838.3320, 112.2312
838.8141, 112.8219
839.2963, 113.3597
839.7784, 113.7113
840.2605, 113.8442
840.7426, 113.9297
841.2247, 114.3159
841.7068, 114.6723
842.1890, 114.0285
842.6711, 112.6448
843.1532, 112.1391
843.6353, 112.9541
844.1174, 113.9803
844.5995, 114.2601
845.0817, 113.9081
845.5638, 113.3350
846.0459, 112.1774
846.5280, 111.8562
847.0101, 113.2357
847.4922, 114.4725
847.9744, 114.4046
848.4565, 113.6981
848.9386, 113.4124
849.4207, 113.7213
849.9028, 113.7682
850.3849, 113.0089
850.8671, 112.2633
851.3492, 111.9861
851.8313, 112.0369
852.3134, 112.3013
852.7955, 112.6848
853.2776, 112.9740
853.7598, 113.0509
854.2419, 112.9016
854.7240, 112.3586
855.2061, 111.5558
855.6882, 111.0711
856.1703, 110.9719
856.6525, 110.9577
857.1346, 110.8594
857.6167, 110.7506
858.0988, 110.7573
858.5809, 110.8651
859.0630, 111.2369
859.5452, 112.3529
860.0273, 112.8718
860.5094, 111.7967
860.9915, 110.4216
861.4736, 109.9158
861.9557, 110.1705
862.4379, 110.4020
862.9200, 110.4919
863.4021, 110.5171
863.8842, 110.4877
864.3663, 110.4194
864.8484, 110.2827
865.3306, 110.1257
865.8127, 109.9983
866.2948, 109.9215
866.7769, 110.0729
867.2590, 110.9717
867.7411, 112.0820
868.2233, 112.0547
868.7054, 111.0997
869.1875, 110.5649
869.6696, 110.8406
870.1517, 111.2030
870.6339, 110.9597
871.1160, 110.2492
871.5981, 109.6534
872.0802, 109.1007
872.5623, 108.9285
873.0444, 109.2742
873.5266, 109.8437
874.0087, 110.8157
874.4908, 111.7547
874.9729, 111.7980
875.4550, 110.7841
875.9371, 109.8100
876.4193, 108.6757
876.9014, 108.0203
877.3835, 108.5144
877.8656, 109.3605
878.3477, 109.7450
878.8298, 109.6213
879.3120, 109.3233
879.7941, 108.8989
880.2762, 108.6663
880.7583, 109.1498
881.2404, 109.9403
881.7225, 110.3248
882.2047, 110.2928
882.6868, 110.0846
883.1689, 109.8057
883.6510, 109.6018
884.1331, 109.7659
884.6152, 109.2784
885.0974, 109.8011
885.5795, 108.4861
886.0616, 107.4194
886.5437, 106.8179
887.0258, 106.7106
887.5079, 107.3606
887.9901, 108.4669
888.4722, 108.7914
888.9543, 107.4825
889.4364, 107.0241
889.9185, 108.2096
890.4006, 109.3080
890.8828, 109.7139
891.3649, 109.6161
891.8470, 109.2007
892.3291, 108.5167
892.8112, 107.7633
893.2933, 106.5092
893.7755, 105.7887
894.2576, 106.9647
894.7397, 108.5969
895.2218, 108.5922
895.7039, 107.2401
896.1860, 106.4066
896.6682, 107.0012
897.1503, 108.0055
897.6324, 108.1297
898.1145, 107.6800
898.5966, 107.5917
899.0787, 107.8475
899.5609, 107.9887
900.0430, 107.8589
900.5251, 107.7979
901.0072, 108.2005
901.4893, 108.8847
901.9714, 108.8699
902.4536, 107.8348
902.9357, 107.3099
903.4178, 107.6924
903.8999, 108.1280
904.3820, 108.2620
904.8641, 108.1224
905.3463, 107.6457
905.8284, 106.7467
906.3105, 106.2456
906.7926, 106.3687
907.2747, 106.6852
907.7568, 107.2891
908.2390, 107.8510
908.7211, 108.0821
909.2032, 108.0219
909.6853, 107.8512
910.1674, 107.5916
910.6495, 107.4039
911.1317, 107.5452
911.6138, 107.6971
912.0959, 107.4378
912.5780, 106.8984
913.0601, 106.4094
913.5422, 106.0674
914.0244, 105.8018
914.5065, 105.5422
914.9886, 105.3325
915.4707, 105.1752
915.9528, 105.1224
916.4349, 105.7145
916.9171, 107.0345
917.3992, 107.9254
917.8813, 107.7094
918.3634, 106.9031
918.8455, 106.3428
919.3276, 106.0372
919.8098, 105.8097
920.2919, 105.6285
920.7740, 105.6117
921.2561, 105.8465
921.7382, 106.1822
922.2203, 106.5954
922.7025, 107.0124
923.1846, 107.1620
923.6667, 107.0005
924.1488, 106.6730
924.6309, 105.8399
925.1130, 105.2459
925.5952, 105.4284
926.0773, 105.9173
926.5594, 106.1868
927.0415, 106.1662
927.5236, 105.9885
928.0057, 105.5655
928.4879, 105.2146
928.9700, 105.0776
929.4521, 105.1716
929.9342, 105.7456
930.4163, 106.5445
930.8984, 106.8753
931.3806, 106.4923
931.8627, 105.9246
932.3448, 105.6145
932.8269, 105.5385
933.3090, 105.7964
933.7911, 106.2651
934.2733, 106.3639
934.7554, 105.9962
935.2375, 105.5450
935.7196, 105.2411
936.2017, 105.1444
936.6838, 105.5202
937.1660, 106.4200
937.6481, 106.6486
938.1302, 105.9906
938.6123, 105.6726
939.0944, 106.3203
939.5765, 106.9662
940.0587, 106.4745
940.5408, 105.0808
941.0229, 104.5439
941.5050, 105.5916
941.9871, 106.1617
942.4692, 105.7874
942.9514, 105.3889
943.4335, 105.3694
943.9156, 105.5043
944.3977, 105.4023
944.8798, 105.0550
945.3619, 105.1416
945.8441, 106.5052
946.3262, 107.4067
946.8083, 106.8508
947.2904, 105.9092
947.7725, 105.3929
948.2546, 105.2613
948.7368, 105.2482
949.2189, 105.2764
949.7010, 105.2516
950.1831, 104.9599
950.6652, 104.7240
951.1473, 105.0032
951.6295, 105.5201
952.1116, 105.7241
952.5937, 105.6004
953.0758, 105.5688
953.5579, 105.8843
954.0400, 106.2655
954.5222, 106.2469
955.0043, 106.0031
955.4864, 106.0830
955.9685, 106.4629
956.4506, 106.8837
956.9327, 107.2660
957.4149, 107.3666
957.8970, 106.8720
958.3791, 106.1436
958.8612, 106.4622
959.3433, 107.9420
959.8254, 108.7410
960.3076, 108.6128
960.7897, 108.3667
961.2718, 108.3484
961.7539, 108.3510
962.2360, 108.0430
962.7181, 107.4574
963.2003, 107.3799
963.6824, 107.9790
964.1645, 108.7635
964.6466, 110.1354
965.1287, 111.1303
965.6108, 110.9081
966.0930, 110.1377
966.5751, 109.7269
967.0572, 109.6908
967.5393, 110.0675
968.0214, 111.5486
968.5035, 112.5231
968.9857, 112.0315
969.4678, 111.3508
969.9499, 111.3726
970.4320, 112.0075
970.9141, 113.0206
971.3962, 114.4431
971.8784, 115.4113
972.3605, 115.1603
972.8426, 114.7081
973.3247, 114.6853
973.8068, 114.9224
974.2889, 115.2908
974.7711, 115.6764
975.2532, 115.7793
975.7353, 115.3967
976.2174, 115.1571
976.6995, 115.8868
977.1816, 116.9239
977.6638, 117.3116
978.1459, 117.2266
978.6280, 117.1002
979.1101, 117.0912
979.5922, 117.4384
980.0743, 118.3764
980.5565, 119.4415
981.0386, 119.7075
981.5207, 119.4698
982.0028, 119.9192
982.4849, 121.0165
982.9670, 121.7948
983.4492, 121.9245
983.9313, 121.8517
984.4134, 122.0044
984.8955, 122.0107
985.3776, 122.2956
985.8597, 122.0466
986.3419, 121.8947
986.8240, 121.8355
987.3061, 122.1712
987.7882, 123.2022
988.2703, 124.1510
988.7524, 123.9595
989.2346, 122.7900
989.7167, 122.4389
990.1988, 123.3003
990.6809, 123.7570
991.1630, 123.4472
991.6451, 123.1151
992.1273, 123.0896
992.6094, 123.2925
993.0915, 123.6724
993.5736, 124.2511
994.0557, 124.5860
994.5378, 124.4337
995.0200, 124.3923
995.5021, 124.6774
995.9842, 124.9167
996.4663, 124.6922
996.9484, 124.3835
997.4305, 124.7539
997.9127, 125.9384
998.3948, 126.6798
998.8769, 126.3259
999.3590, 126.1033
999.8411, 126.5657
1000.323, 127.1374
1000.805, 127.4159
1001.287, 127.4392
1001.770, 127.2794
1002.252, 126.9310
1002.734, 126.8049
1003.216, 127.2996
1003.698, 127.8004
1004.180, 127.8063
1004.662, 127.7342
1005.144, 128.1078
1005.627, 128.8140
1006.109, 129.4628
1006.591, 129.9300
1007.073, 130.1023
1007.555, 129.7318
1008.037, 129.1926
1008.519, 128.7715
1009.001, 128.4683
1009.483, 128.2029
1009.966, 128.0333
1010.448, 128.2641
1010.930, 129.0599
1011.412, 129.8023
1011.894, 129.7355
1012.376, 129.3100
1012.858, 129.1574
1013.340, 129.2427
1013.823, 129.5474
1014.305, 129.9835
1014.787, 130.2184
1015.269, 130.0661
1015.751, 129.5598
1016.233, 128.4697
1016.715, 127.1392
1017.197, 126.6371
1017.679, 126.8236
1018.162, 127.0322
1018.644, 127.0906
1019.126, 126.8205
1019.608, 126.0720
1020.090, 125.1802
1020.572, 124.7812
1021.054, 124.7895
1021.536, 124.6189
1022.018, 124.2625
1022.501, 123.5912
1022.983, 122.5490
1023.465, 121.5403
1023.947, 120.8457
1024.429, 120.4178
1024.911, 120.2994
1025.393, 120.5100
1025.875, 119.8079
1026.358, 118.0072
1026.840, 116.9298
1027.322, 117.1902
1027.804, 117.6145
1028.286, 117.2756
1028.768, 116.4949
1029.250, 116.1047
1029.732, 116.1834
1030.214, 116.0735
1030.697, 115.7738
1031.179, 115.2492
1031.661, 114.3635
1032.143, 113.5559
1032.625, 113.2537
1033.107, 113.2130
1033.589, 112.7306
1034.071, 111.7085
1034.553, 110.6120
1035.036, 108.9668
1035.518, 108.3390
1036.000, 109.8314
1036.482, 111.4021
1036.964, 111.1658
1037.446, 112.0695
1037.928, 112.5802
1038.410, 112.0174
1038.893, 112.9771
1039.375, 112.1488
1039.857, 111.2718
1040.339, 110.5513
1040.821, 110.1266
1041.303, 110.3029
1041.785, 110.8305
1042.267, 110.9373
1042.750, 110.3515
1043.232, 110.2498
1043.714, 111.5570
1044.196, 112.1096
1044.678, 110.6114
1045.160, 108.9429
1045.642, 108.4470
1046.124, 108.8425
1046.606, 109.5110
1047.089, 110.6297
1047.571, 111.0805
1048.053, 110.0443
1048.535, 109.2719
1049.017, 109.5383
1049.499, 109.9580
1049.981, 109.7630
1050.463, 109.2263
1050.945, 109.0088
1051.428, 109.2145
1051.910, 109.5424
1052.392, 110.1231
1052.874, 110.5696
1053.356, 110.4634
1053.838, 110.4569
1054.320, 111.5086
1054.802, 112.8912
1055.285, 112.9488
1055.767, 111.3109
1056.249, 110.0194
1056.731, 109.6085
1057.213, 109.6316
1057.695, 110.0890
1058.177, 110.7637
1058.659, 111.8175
1059.141, 112.8473
1059.624, 112.9653
1060.106, 112.0195
1060.588, 111.5527
1061.070, 112.4048
1061.552, 113.3588
1062.034, 114.2789
1062.516, 114.7891
1062.998, 114.2481
1063.480, 113.2432
1063.963, 112.7806
1064.445, 113.0110
1064.927, 113.3276
1065.409, 113.6252
1065.891, 113.8088
1066.373, 113.7838
1066.855, 113.6828
1067.337, 113.5538
1067.820, 113.4458
1068.302, 113.5665
1068.784, 113.8556
1069.266, 113.6245
1069.748, 112.2209
1070.230, 110.9428
1070.712, 110.2682
1071.194, 110.0240
1071.677, 110.4619
1072.159, 111.0229
1072.641, 110.7923
1073.123, 109.8289
1073.605, 109.1782
1074.087, 109.3467
1074.569, 109.5723
1075.051, 109.7453
1075.533, 109.5909
1076.016, 108.5545
1076.498, 107.3004
1076.980, 106.7500
1077.462, 106.8483
1077.944, 106.8698
1078.426, 106.5324
1078.908, 106.2395
1079.390, 106.2734
1079.873, 106.3071
1080.355, 105.9315
1080.837, 105.5766
1081.319, 105.9665
1081.801, 106.8312
1082.283, 107.1185
1082.765, 106.4023
1083.247, 105.8898
1083.729, 106.5078
1084.212, 107.0329
1084.694, 106.5727
1085.176, 105.8092
1085.658, 105.3869
1086.140, 105.2879
1086.622, 105.3495
1087.104, 105.5463
1087.586, 105.5284
1088.068, 104.9492
1088.551, 104.3751
1089.033, 104.0157
1089.515, 103.8486
1089.997, 103.9242
1090.479, 104.1447
1090.961, 104.3448
1091.443, 104.4963
1091.925, 104.6767
1092.408, 105.2012
1092.890, 105.3696
1093.372, 104.5745
1093.854, 103.6610
1094.336, 103.1076
1094.818, 102.9079
1095.300, 103.1328
1095.782, 103.6888
1096.265, 103.9601
1096.747, 103.6063
1097.229, 103.2665
1097.711, 103.1220
1098.193, 103.0878
1098.675, 103.1262
1099.157, 103.2387
1099.639, 103.5161
1100.121, 103.8823
1100.604, 103.9908
1101.086, 103.5935
1101.568, 103.4875
1102.050, 104.1022
1102.532, 104.7723
1103.014, 105.6805
1103.496, 106.1116
1103.978, 104.9333
1104.460, 102.8555
1104.943, 101.7318
1105.425, 101.9085
1105.907, 102.5050
1106.389, 103.9731
1106.871, 105.0024
1107.353, 104.8958
1107.835, 104.5476
1108.317, 104.7139
1108.800, 105.0004
1109.282, 104.5252
1109.764, 103.1838
1110.246, 102.4425
1110.728, 102.8712
1111.210, 103.2488
1111.692, 103.5540
1112.174, 103.6105
1112.656, 103.0094
1113.139, 102.3284
1113.621, 102.4190
1114.103, 103.1866
1114.585, 103.5232
1115.067, 103.4133
1115.549, 102.8774
1116.031, 101.3548
1116.513, 100.2092
1116.995, 99.98426
1117.478, 100.1843
1117.960, 100.6341
1118.442, 101.1039
1118.924, 100.7737
1119.406, 99.25986
1119.888, 98.48290
1120.370, 98.74292
1120.852, 99.13733
1121.335, 99.61162
1121.817, 99.95105
1122.299, 100.0517
1122.781, 99.87193
1123.263, 99.19789
1123.745, 98.00399
1124.227, 97.88306
1124.709, 99.38662
1125.192, 99.90898
1125.674, 98.80415
1126.156, 97.71935
1126.638, 97.46722
1127.120, 97.40562
1127.602, 96.67519
1128.084, 95.54515
1128.566, 95.57805
1129.048, 97.03885
1129.531, 97.04809
1130.013, 95.22312
1130.495, 93.81149
1130.977, 93.51109
1131.459, 93.93919
1131.941, 94.92651
1132.423, 95.98389
1132.905, 95.87133
1133.387, 94.69326
1133.870, 94.09093
1134.352, 94.05056
1134.834, 94.34399
1135.316, 94.91713
1135.798, 95.22700
1136.280, 94.96832
1136.762, 94.44904
1137.244, 93.99368
1137.727, 93.65471
1138.209, 93.71298
1138.691, 93.46742
1139.173, 93.36897
1139.655, 93.47460
1140.137, 93.24856
1140.619, 93.45769
1141.101, 93.58652
1141.583, 93.15362
1142.066, 93.39146
1142.548, 92.77846
1143.030, 93.28014
1143.512, 93.20856
1143.994, 92.83406
1144.476, 93.11778
1144.958, 94.07700
1145.440, 94.89606
1145.922, 95.18514
1146.405, 94.92233
1146.887, 93.61342
1147.369, 92.19511
1147.851, 91.73038
1148.333, 91.86006
1148.815, 92.33843
1149.297, 92.84574
1149.779, 92.58179
1150.262, 91.44178
1150.744, 90.82851
1151.226, 91.97879
1151.708, 93.15707
1152.190, 93.20252
1152.672, 92.84761
1153.154, 92.56931
1153.636, 92.38785
1154.119, 92.33118
1154.601, 92.33568
1155.083, 92.12541
1155.565, 91.50056
1156.047, 91.09915
1156.529, 91.40540
1157.011, 91.62366
1157.493, 91.22356
1157.975, 90.75977
1158.458, 90.65044
1158.940, 90.85188
1159.422, 91.35460
1159.904, 92.21242
1160.386, 92.48777
1160.868, 91.41752
1161.350, 90.81564
1161.832, 91.24851
1162.314, 91.69016
1162.797, 91.65865
1163.279, 91.50117
1163.761, 91.61300
1164.243, 91.91761
1164.725, 92.07336
1165.207, 92.15074
1165.689, 91.77103
1166.171, 90.66960
1166.654, 89.92300
1167.136, 89.86084
1167.618, 90.00301
1168.100, 90.07336
1168.582, 90.06172
1169.064, 89.88008
1169.546, 89.60043
1170.028, 90.07278
1170.510, 91.33072
1170.993, 91.82381
1171.475, 91.37904
1171.957, 90.77551
1172.439, 90.29801
1172.921, 89.84830
1173.403, 89.29826
1173.885, 88.85660
1174.367, 89.03268
1174.849, 89.64664
1175.332, 90.10220
1175.814, 90.42527
1176.296, 90.80814
1176.778, 91.27227
1177.260, 91.77219
1177.742, 92.28304
1178.224, 92.47965
1178.706, 91.87704
1179.189, 90.98804
1179.671, 90.33753
1180.153, 89.92758
1180.635, 89.74570
1181.117, 89.81670
1181.599, 90.37004
1182.081, 91.30428
1182.563, 91.88921
1183.046, 91.71487
1183.528, 91.35817
1184.010, 91.05101
1184.492, 90.80013
1184.974, 90.52773
1185.456, 90.38205
1185.938, 90.74014
1186.420, 91.28956
1186.902, 91.18542
1187.385, 90.24810
1187.867, 89.67242
1188.349, 90.06529
1188.831, 90.26921
1189.313, 89.89359
1189.795, 89.49377
1190.277, 89.22708
1190.759, 89.15638
1191.241, 89.40942
1191.724, 89.90732
1192.206, 90.36521
1192.688, 90.84648
1193.170, 91.02888
1193.652, 90.92245
1194.134, 90.36166
1194.616, 89.00900
1195.098, 88.30415
1195.581, 89.22971
1196.063, 90.68655
1196.545, 91.19495
1197.027, 90.91369
1197.509, 90.42021
1197.991, 89.74154
1198.473, 89.41607
1198.955, 89.43741
1199.438, 89.17850
1199.920, 88.50729
1200.402, 88.13230
1200.884, 88.55210
1201.366, 89.21114
1201.848, 89.41712
1202.330, 89.32167
1202.812, 89.13023
1203.294, 88.89759
1203.776, 88.64101
1204.259, 88.46059
1204.741, 88.76396
1205.223, 89.54456
1205.705, 89.86684
1206.187, 88.97233
1206.669, 88.07887
1207.151, 87.99185
1207.633, 88.28019
1208.116, 88.71712
1208.598, 89.25187
1209.080, 90.17165
1209.562, 91.09168
1210.044, 90.92947
1210.526, 89.39915
1211.008, 88.16147
1211.490, 87.28902
1211.973, 87.09377
1212.455, 88.24150
1212.937, 89.32300
1213.419, 89.74828
1213.901, 89.80823
1214.383, 89.72255
1214.865, 89.52460
1215.347, 89.28748
1215.829, 88.93904
1216.312, 89.19725
1216.794, 88.87529
1217.276, 88.37898
1217.758, 88.84703
1218.240, 87.71240
1218.722, 88.11499
1219.204, 89.02714
1219.686, 89.36178
1220.168, 89.20881
1220.651, 88.58773
1221.133, 87.70033
1221.615, 87.37658
1222.097, 87.56865
1222.579, 87.95351
1223.061, 88.44833
1223.543, 89.16198
1224.025, 90.14065
1224.508, 90.69857
1224.990, 89.85950
1225.472, 88.77640
1225.954, 88.59309
1226.436, 88.81525
1226.918, 89.09968
1227.400, 89.25246
1227.882, 88.95611
1228.365, 88.28315
1228.847, 87.72340
1229.329, 87.45187
1229.811, 87.13496
1230.293, 86.20180
1230.775, 85.87189
1231.257, 87.26985
1231.739, 88.60222
1232.221, 88.53344
1232.703, 87.88677
1233.186, 87.79520
1233.668, 88.10343
1234.150, 87.67231
1234.632, 86.08662
1235.114, 85.48074
1235.596, 86.07747
1236.078, 86.65955
1236.560, 86.93017
1237.043, 87.35917
1237.525, 88.28678
1238.007, 89.02467
1238.489, 88.56875
1238.971, 87.41953
1239.453, 86.97376
1239.935, 87.00216
1240.417, 86.72466
1240.900, 86.20380
1241.382, 85.75614
1241.864, 85.51517
1242.346, 85.79464
1242.828, 86.77265
1243.310, 87.62222
1243.792, 87.58134
1244.274, 87.27019
1244.756, 86.96709
1245.239, 86.84254
1245.721, 87.35654
1246.203, 87.98125
1246.685, 87.71970
1247.167, 86.72590
1247.649, 86.33328
1248.131, 87.06792
1248.613, 87.40079
1249.095, 86.57910
1249.578, 86.24796
1250.060, 87.27882
1250.542, 87.86240
1251.024, 86.74525
1251.506, 85.28418
1251.988, 85.13078
1252.470, 85.96387
1252.952, 86.61459
1253.435, 87.08884
1253.917, 87.15914
1254.399, 86.83676
1254.881, 86.40565
1255.363, 85.96682
1255.845, 86.24190
1256.327, 87.53691
1256.809, 88.60336
1257.292, 88.13728
1257.774, 87.09661
1258.256, 86.75852
1258.738, 86.70773
1259.220, 86.33334
1259.702, 85.81335
1260.184, 85.32181
1260.666, 85.05402
1261.148, 85.62694
1261.630, 87.21861
1262.113, 88.10500
1262.595, 86.97360
1263.077, 86.07744
1263.559, 86.42156
1264.041, 86.68966
1264.523, 85.79246
1265.005, 84.98083
1265.487, 85.54221
1265.970, 86.87964
1266.452, 87.70954
1266.934, 88.03922
1267.416, 87.33477
1267.898, 85.31068
1268.380, 84.64151
1268.862, 85.67153
1269.344, 86.30308
1269.827, 85.85143
1270.309, 85.34525
1270.791, 85.53347
1271.273, 86.03899
1271.755, 86.52885
1272.237, 86.82387
1272.719, 86.36694
1273.201, 85.60387
1273.683, 85.29880
1274.166, 85.39249
1274.648, 85.63480
1275.130, 85.92564
1275.612, 86.15292
1276.094, 86.30196
1276.576, 86.26195
1277.058, 85.59953
1277.540, 85.27869
1278.022, 86.04054
1278.505, 86.85692
1278.987, 87.04086
1279.469, 86.90568
1279.951, 86.70301
1280.433, 86.52805
1280.915, 86.88660
1281.397, 86.80217
1281.879, 86.64495
1282.362, 87.00964
1282.844, 86.32172
1283.326, 86.22764
1283.808, 86.27657
1284.290, 86.27097
1284.772, 86.27966
1285.254, 86.31181
1285.736, 86.36546
##END=



