##NAMES=Ferroselite
##RRUFFID=R070461
##IDEAL CHEMISTRY=FeSe_2_
##LOCALITY=Virgin No. 3 mine, Paradox Valley, Uravan District,  Montrose County, Colorado, USA
##OWNER=RRUFF
##SOURCE=Michael Scott
##DESCRIPTION=Yellowish silver metallic prismatic crystals. Used in the Lavina et al (2018) study
##STATUS=The identification of this mineral is confirmed by single-crystal X-ray diffraction and chemical analysis.
##URL=rruff.info/R070461
##MEASURED CHEMISTRY=Fe_1.00_Se_2.00_
155.6296, 6985.069
156.1117, 6994.653
156.5939, 7021.330
157.0760, 7067.999
157.5581, 7121.146
158.0402, 7153.754
158.5223, 7136.497
159.0044, 7170.119
159.4866, 7297.087
159.9687, 7445.924
160.4508, 7565.675
160.9329, 7621.719
161.4150, 7622.375
161.8971, 7617.875
162.3793, 7601.376
162.8614, 7594.059
163.3435, 7605.025
163.8256, 7618.770
164.3077, 7624.833
164.7898, 7620.647
165.2720, 7609.765
165.7541, 7598.311
166.2362, 7592.433
166.7183, 7576.355
167.2004, 7543.647
167.6825, 7507.738
168.1647, 7480.935
168.6468, 7466.232
169.1289, 7455.307
169.6110, 7433.913
170.0931, 7396.838
170.5752, 7358.175
171.0574, 7308.310
171.5395, 7262.574
172.0216, 7238.153
172.5037, 7238.078
172.9858, 7246.709
173.4679, 7237.141
173.9501, 7182.067
174.4322, 7155.417
174.9143, 7168.642
175.3964, 7200.937
175.8785, 7234.583
176.3606, 7264.402
176.8428, 7297.756
177.3249, 7347.337
177.8070, 7431.461
178.2891, 7497.028
178.7712, 7542.624
179.2533, 7570.884
179.7355, 7584.472
180.2176, 7583.992
180.6997, 7568.354
181.1818, 7535.553
181.6639, 7478.194
182.1460, 7414.951
182.6282, 7339.818
183.1103, 7262.271
183.5924, 7190.604
184.0745, 7126.917
184.5566, 7067.895
185.0387, 7008.833
185.5209, 6943.841
186.0030, 6896.593
186.4851, 6879.028
186.9672, 6872.939
187.4493, 6861.751
187.9314, 6842.141
188.4136, 6821.784
188.8957, 6810.816
189.3778, 6812.976
189.8599, 6812.288
190.3420, 6806.526
190.8241, 6798.728
191.3063, 6790.363
191.7884, 6781.862
192.2705, 6775.909
192.7526, 6776.919
193.2347, 6787.762
193.7168, 6790.465
194.1990, 6776.560
194.6811, 6759.315
195.1632, 6751.979
195.6453, 6755.978
196.1274, 6760.905
196.6095, 6756.958
197.0917, 6742.777
197.5738, 6725.039
198.0559, 6698.325
198.5380, 6671.877
199.0201, 6651.228
199.5022, 6637.422
199.9844, 6632.679
200.4665, 6640.016
200.9486, 6661.063
201.4307, 6684.844
201.9128, 6726.663
202.3949, 6760.353
202.8771, 6756.594
203.3592, 6717.296
203.8413, 6682.526
204.3234, 6686.580
204.8055, 6728.698
205.2876, 6754.765
205.7698, 6757.107
206.2519, 6750.017
206.7340, 6740.391
207.2161, 6729.062
207.6982, 6718.585
208.1803, 6710.572
208.6625, 6704.911
209.1446, 6699.940
209.6267, 6681.831
210.1088, 6676.102
210.5909, 6710.576
211.0730, 6776.281
211.5552, 6828.420
212.0373, 6835.650
212.5194, 6809.032
213.0015, 6802.780
213.4836, 6827.926
213.9657, 6860.351
214.4479, 6891.641
214.9300, 6921.470
215.4121, 6948.460
215.8942, 6972.388
216.3763, 6992.458
216.8584, 7007.484
217.3406, 7023.741
217.8227, 7027.802
218.3048, 7007.489
218.7869, 6970.550
219.2690, 6935.393
219.7511, 6908.836
220.2333, 6889.411
220.7154, 6874.110
221.1975, 6863.383
221.6796, 6854.473
222.1617, 6851.235
222.6438, 6848.713
223.1260, 6835.526
223.6081, 6805.935
224.0902, 6769.906
224.5723, 6746.906
225.0544, 6741.037
225.5365, 6731.113
226.0187, 6713.374
226.5008, 6688.451
226.9829, 6651.935
227.4650, 6600.729
227.9471, 6553.085
228.4292, 6539.282
228.9114, 6566.917
229.3935, 6587.807
229.8756, 6588.898
230.3577, 6583.253
230.8398, 6586.449
231.3219, 6601.379
231.8041, 6617.718
232.2862, 6622.993
232.7683, 6614.515
233.2504, 6612.897
233.7325, 6625.007
234.2146, 6640.277
234.6968, 6651.629
235.1789, 6657.887
235.6610, 6658.377
236.1431, 6651.786
236.6252, 6637.410
237.1073, 6621.794
237.5895, 6600.799
238.0716, 6582.139
238.5537, 6571.387
239.0358, 6567.869
239.5179, 6565.667
240.0000, 6558.555
240.4822, 6548.750
240.9643, 6559.249
241.4464, 6616.131
241.9285, 6663.722
242.4106, 6676.234
242.8927, 6660.930
243.3749, 6635.151
243.8570, 6605.355
244.3391, 6575.996
244.8212, 6568.999
245.3033, 6608.539
245.7854, 6637.765
246.2676, 6644.109
246.7497, 6631.800
247.2318, 6602.095
247.7139, 6553.394
248.1960, 6500.320
248.6781, 6478.449
249.1603, 6510.557
249.6424, 6540.664
250.1245, 6570.152
250.6066, 6593.109
251.0887, 6601.027
251.5708, 6591.711
252.0530, 6573.200
252.5351, 6557.021
253.0172, 6539.005
253.4993, 6534.165
253.9814, 6550.522
254.4635, 6573.928
254.9457, 6597.742
255.4278, 6619.073
255.9099, 6632.546
256.3920, 6630.675
256.8741, 6607.884
257.3562, 6594.309
257.8383, 6594.286
258.3205, 6597.897
258.8026, 6603.668
259.2847, 6609.174
259.7668, 6609.303
260.2489, 6599.059
260.7310, 6578.241
261.2132, 6560.899
261.6953, 6534.470
262.1774, 6524.589
262.6595, 6557.140
263.1416, 6609.821
263.6237, 6641.573
264.1059, 6626.536
264.5880, 6575.013
265.0701, 6536.392
265.5522, 6510.212
266.0343, 6499.782
266.5164, 6519.325
266.9986, 6548.961
267.4807, 6565.416
267.9628, 6559.272
268.4449, 6541.223
268.9270, 6534.313
269.4091, 6545.254
269.8913, 6554.967
270.3734, 6564.925
270.8555, 6571.311
271.3376, 6569.467
271.8197, 6559.106
272.3018, 6545.915
272.7840, 6535.089
273.2661, 6523.886
273.7482, 6525.490
274.2303, 6556.692
274.7124, 6587.152
275.1945, 6604.304
275.6767, 6607.615
276.1588, 6601.542
276.6409, 6585.106
277.1230, 6558.887
277.6051, 6547.512
278.0872, 6560.633
278.5694, 6578.217
279.0515, 6595.792
279.5336, 6611.581
280.0157, 6623.024
280.4978, 6628.868
280.9799, 6629.315
281.4621, 6623.482
281.9442, 6607.666
282.4263, 6594.064
282.9084, 6588.280
283.3905, 6586.775
283.8727, 6586.100
284.3548, 6585.311
284.8369, 6584.609
285.3190, 6585.225
285.8011, 6587.689
286.2832, 6586.667
286.7654, 6578.047
287.2475, 6566.693
287.7296, 6554.647
288.2117, 6541.354
288.6938, 6535.596
289.1759, 6552.667
289.6581, 6586.587
290.1402, 6601.027
290.6223, 6580.363
291.1044, 6551.462
291.5865, 6541.542
292.0686, 6548.262
292.5508, 6554.245
293.0329, 6552.073
293.5150, 6544.717
293.9971, 6534.682
294.4792, 6520.712
294.9613, 6512.844
295.4435, 6525.122
295.9256, 6551.550
296.4077, 6566.875
296.8898, 6557.744
297.3719, 6543.990
297.8540, 6543.518
298.3362, 6554.626
298.8183, 6563.038
299.3004, 6560.251
299.7825, 6549.462
300.2646, 6541.541
300.7467, 6533.086
301.2289, 6531.647
301.7110, 6549.118
302.1931, 6574.346
302.6752, 6583.247
303.1573, 6565.626
303.6394, 6538.130
304.1216, 6532.026
304.6037, 6563.781
305.0858, 6577.605
305.5679, 6555.408
306.0500, 6522.381
306.5321, 6497.646
307.0143, 6485.527
307.4964, 6487.132
307.9785, 6506.061
308.4606, 6547.546
308.9427, 6573.637
309.4248, 6583.846
309.9070, 6582.587
310.3891, 6565.923
310.8712, 6539.152
311.3533, 6512.550
311.8354, 6492.187
312.3175, 6478.489
312.7997, 6474.888
313.2818, 6499.785
313.7639, 6512.873
314.2460, 6497.337
314.7281, 6472.465
315.2102, 6460.688
315.6924, 6470.210
316.1745, 6490.653
316.6566, 6502.911
317.1387, 6500.701
317.6208, 6506.151
318.1029, 6529.991
318.5851, 6554.250
319.0672, 6570.570
319.5493, 6577.139
320.0314, 6574.063
320.5135, 6553.992
320.9956, 6517.194
321.4778, 6503.966
321.9599, 6531.652
322.4420, 6561.885
322.9241, 6579.019
323.4062, 6585.489
323.8883, 6586.193
324.3705, 6580.558
324.8526, 6573.067
325.3347, 6575.162
325.8168, 6590.456
326.2989, 6599.864
326.7810, 6590.619
327.2632, 6573.051
327.7453, 6556.872
328.2274, 6542.338
328.7095, 6533.454
329.1916, 6539.215
329.6737, 6555.729
330.1559, 6560.429
330.6380, 6542.292
331.1201, 6518.890
331.6022, 6512.933
332.0843, 6523.773
332.5664, 6534.178
333.0486, 6536.991
333.5307, 6537.296
334.0128, 6545.600
334.4949, 6562.931
334.9770, 6571.557
335.4591, 6553.462
335.9413, 6510.378
336.4234, 6480.287
336.9055, 6465.212
337.3876, 6460.259
337.8697, 6467.978
338.3518, 6484.083
338.8340, 6499.370
339.3161, 6509.672
339.7982, 6515.331
340.2803, 6517.228
340.7624, 6504.531
341.2445, 6502.897
341.7267, 6524.959
342.2088, 6551.674
342.6909, 6564.793
343.1730, 6561.146
343.6551, 6551.392
344.1372, 6548.506
344.6194, 6555.212
345.1015, 6554.607
345.5836, 6535.828
346.0657, 6520.873
346.5478, 6517.228
347.0299, 6524.081
347.5121, 6539.597
347.9942, 6564.690
348.4763, 6594.416
348.9584, 6609.506
349.4405, 6604.405
349.9226, 6594.440
350.4048, 6577.569
350.8869, 6561.310
351.3690, 6554.195
351.8511, 6558.598
352.3332, 6565.793
352.8153, 6566.852
353.2975, 6561.791
353.7796, 6552.507
354.2617, 6532.412
354.7438, 6516.635
355.2259, 6519.161
355.7080, 6536.314
356.1902, 6550.729
356.6723, 6551.588
357.1544, 6545.458
357.6365, 6543.849
358.1186, 6547.547
358.6007, 6551.324
359.0829, 6552.370
359.5650, 6550.988
360.0471, 6548.710
360.5292, 6546.563
361.0113, 6542.088
361.4934, 6527.812
361.9756, 6510.244
362.4577, 6509.352
362.9398, 6534.835
363.4219, 6565.009
363.9040, 6562.667
364.3861, 6509.299
364.8683, 6480.437
365.3504, 6500.671
365.8325, 6531.636
366.3146, 6544.000
366.7967, 6537.173
367.2788, 6525.589
367.7610, 6519.858
368.2431, 6519.965
368.7252, 6525.692
369.2073, 6547.538
369.6894, 6562.965
370.1715, 6566.343
370.6537, 6561.386
371.1358, 6551.055
371.6179, 6536.689
372.1000, 6522.398
372.5821, 6515.720
373.0642, 6518.748
373.5464, 6522.999
374.0285, 6532.390
374.5106, 6539.201
374.9927, 6538.897
375.4748, 6532.033
375.9569, 6522.172
376.4391, 6509.313
376.9212, 6495.487
377.4033, 6490.818
377.8854, 6501.244
378.3675, 6505.527
378.8496, 6478.731
379.3318, 6443.785
379.8139, 6432.697
380.2960, 6460.664
380.7781, 6493.697
381.2602, 6500.271
381.7423, 6486.610
382.2245, 6481.267
382.7066, 6494.429
383.1887, 6513.609
383.6708, 6523.473
384.1529, 6524.613
384.6350, 6518.692
385.1172, 6495.611
385.5993, 6472.604
386.0814, 6466.963
386.5635, 6477.884
387.0456, 6492.021
387.5277, 6500.085
388.0099, 6503.632
388.4920, 6513.871
388.9741, 6545.335
389.4562, 6564.968
389.9383, 6559.106
390.4204, 6542.080
390.9026, 6529.035
391.3847, 6524.793
391.8668, 6526.334
392.3489, 6531.007
392.8310, 6541.731
393.3131, 6544.276
393.7953, 6527.971
394.2774, 6513.611
394.7595, 6510.556
395.2416, 6515.904
395.7237, 6521.496
396.2058, 6521.817
396.6880, 6520.438
397.1701, 6528.997
397.6522, 6553.052
398.1343, 6566.867
398.6164, 6551.458
399.0985, 6527.931
399.5807, 6515.523
400.0628, 6516.973
400.5449, 6521.030
401.0270, 6519.046
401.5091, 6514.242
401.9912, 6515.396
402.4734, 6524.351
402.9555, 6536.399
403.4376, 6551.688
403.9197, 6567.901
404.4018, 6569.299
404.8839, 6538.745
405.3661, 6508.693
405.8482, 6498.309
406.3303, 6502.247
406.8124, 6508.030
407.2945, 6510.718
407.7766, 6510.350
408.2588, 6506.622
408.7409, 6494.618
409.2230, 6488.887
409.7051, 6491.006
410.1872, 6497.791
410.6693, 6510.950
411.1515, 6527.645
411.6336, 6540.462
412.1157, 6543.964
412.5978, 6538.508
413.0799, 6524.329
413.5620, 6485.523
414.0442, 6465.286
414.5263, 6486.963
415.0084, 6522.369
415.4905, 6544.576
415.9726, 6546.701
416.4547, 6538.456
416.9369, 6526.423
417.4190, 6511.246
417.9011, 6498.963
418.3832, 6491.715
418.8653, 6484.808
419.3474, 6468.918
419.8296, 6449.344
420.3117, 6443.505
420.7938, 6473.223
421.2759, 6503.780
421.7580, 6499.058
422.2401, 6468.123
422.7223, 6452.066
423.2044, 6472.375
423.6865, 6505.466
424.1686, 6501.984
424.6507, 6432.349
425.1328, 6396.575
425.6150, 6431.077
426.0971, 6478.960
426.5792, 6498.145
427.0613, 6487.573
427.5434, 6465.728
428.0255, 6444.017
428.5077, 6424.889
428.9898, 6428.157
429.4719, 6482.598
429.9540, 6517.040
430.4361, 6504.938
430.9182, 6477.513
431.4004, 6465.844
431.8825, 6476.433
432.3646, 6490.266
432.8467, 6484.382
433.3288, 6460.854
433.8109, 6448.859
434.2931, 6456.365
434.7752, 6464.228
435.2573, 6454.271
435.7394, 6436.151
436.2215, 6430.746
436.7036, 6452.284
437.1858, 6476.763
437.6679, 6481.112
438.1500, 6471.271
438.6321, 6470.794
439.1142, 6489.661
439.5963, 6512.594
440.0785, 6516.467
440.5606, 6494.695
441.0427, 6477.975
441.5248, 6467.762
442.0069, 6462.274
442.4890, 6463.192
442.9712, 6468.009
443.4533, 6470.742
443.9354, 6467.718
444.4175, 6460.379
444.8996, 6452.151
445.3817, 6434.781
445.8639, 6432.671
446.3460, 6470.113
446.8281, 6504.949
447.3102, 6499.580
447.7923, 6457.189
448.2744, 6416.774
448.7566, 6412.409
449.2387, 6434.680
449.7208, 6448.635
450.2029, 6453.979
450.6850, 6451.677
451.1671, 6435.159
451.6493, 6414.086
452.1314, 6403.497
452.6135, 6407.487
453.0956, 6413.536
453.5777, 6418.193
454.0598, 6419.588
454.5420, 6410.788
455.0241, 6390.522
455.5062, 6373.658
455.9883, 6375.013
456.4704, 6395.042
456.9525, 6409.932
457.4347, 6417.384
457.9168, 6423.130
458.3989, 6426.414
458.8810, 6429.838
459.3631, 6439.766
459.8452, 6457.434
460.3274, 6472.381
460.8095, 6466.664
461.2916, 6434.201
461.7737, 6410.838
462.2558, 6394.771
462.7379, 6390.994
463.2200, 6412.946
463.7021, 6446.778
464.1843, 6464.993
464.6664, 6452.835
465.1485, 6428.354
465.6306, 6371.512
466.1127, 6420.205
466.5948, 6446.640
467.0770, 6452.014
467.5591, 6373.053
468.0412, 6403.149
468.5233, 6389.634
469.0054, 6374.396
469.4875, 6420.034
469.9697, 6353.685
470.4518, 6398.493
470.9339, 6399.024
471.4160, 6419.917
471.8981, 6396.931
472.3802, 6387.585
472.8624, 6422.268
473.3445, 6432.677
473.8266, 6404.900
474.3087, 6427.488
474.7908, 6360.278
475.2729, 6371.993
475.7551, 6417.799
476.2372, 6392.569
476.7193, 6416.296
477.2014, 6421.471
477.6835, 6342.092
478.1656, 6409.945
478.6478, 6414.221
479.1299, 6353.216
479.6120, 6416.229
480.0941, 6364.368
480.5762, 6353.601
481.0583, 6373.777
481.5405, 6361.833
482.0226, 6400.704
482.5047, 6390.753
482.9868, 6376.503
483.4689, 6381.381
483.9510, 6332.312
484.4332, 6383.519
484.9153, 6366.342
485.3974, 6383.258
485.8795, 6390.974
486.3616, 6399.785
486.8438, 6404.551
487.3259, 6412.512
487.8080, 6421.944
488.2901, 6422.699
488.7722, 6404.009
489.2543, 6372.292
489.7365, 6355.712
490.2186, 6359.250
490.7007, 6364.681
491.1828, 6372.476
491.6649, 6375.751
492.1470, 6365.413
492.6292, 6296.902
493.1113, 6345.356
493.5934, 6371.561
494.0755, 6376.713
494.5576, 6297.757
495.0397, 6327.409
495.5219, 6313.535
496.0040, 6297.877
496.4861, 6342.816
496.9682, 6276.093
497.4503, 6320.071
497.9324, 6319.858
498.4146, 6339.870
498.8967, 6316.088
499.3788, 6305.833
499.8609, 6339.386
500.3430, 6348.682
500.8251, 6319.859
501.3073, 6341.156
501.7894, 6272.903
502.2715, 6283.232
502.7536, 6327.466
503.2357, 6300.845
503.7178, 6273.950
504.2000, 6283.582
504.6821, 6319.310
505.1642, 6348.835
505.6463, 6349.404
506.1284, 6333.770
506.6105, 6319.962
507.0927, 6309.225
507.5748, 6305.273
508.0569, 6313.146
508.5390, 6326.399
509.0211, 6325.706
509.5032, 6299.970
509.9854, 6281.286
510.4675, 6278.402
510.9496, 6279.104
511.4317, 6271.384
511.9138, 6257.381
512.3959, 6250.167
512.8781, 6260.973
513.3602, 6281.826
513.8423, 6280.479
514.3244, 6243.259
514.8065, 6222.855
515.2886, 6255.123
515.7708, 6290.635
516.2529, 6286.713
516.7350, 6246.156
517.2171, 6216.087
517.6992, 6233.272
518.1813, 6265.392
518.6635, 6266.589
519.1456, 6240.266
519.6277, 6219.771
520.1098, 6221.314
520.5919, 6234.092
521.0740, 6237.382
521.5562, 6225.895
522.0383, 6215.963
522.5204, 6200.520
523.0025, 6193.019
523.4846, 6209.772
523.9667, 6240.515
524.4489, 6260.350
524.9310, 6255.090
525.4131, 6237.135
525.8952, 6232.757
526.3773, 6245.338
526.8594, 6249.215
527.3416, 6230.569
527.8237, 6214.018
528.3058, 6221.648
528.7879, 6246.685
529.2700, 6264.683
529.7521, 6262.889
530.2343, 6256.459
530.7164, 6258.598
531.1985, 6265.783
531.6806, 6267.711
532.1627, 6260.944
532.6448, 6251.902
533.1270, 6249.266
533.6091, 6255.168
534.0912, 6254.124
534.5733, 6236.808
535.0554, 6223.709
535.5375, 6225.463
536.0197, 6233.315
536.5018, 6232.099
536.9839, 6217.344
537.4660, 6206.738
537.9481, 6228.934
538.4302, 6278.098
538.9124, 6301.529
539.3945, 6289.800
539.8766, 6269.511
540.3587, 6254.408
540.8408, 6242.828
541.3229, 6230.141
541.8051, 6215.042
542.2872, 6201.257
542.7693, 6189.961
543.2514, 6180.943
543.7335, 6171.588
544.2156, 6163.038
544.6978, 6164.269
545.1799, 6184.723
545.6620, 6218.623
546.1441, 6232.387
546.6262, 6213.813
547.1083, 6196.458
547.5905, 6182.598
548.0726, 6173.497
548.5547, 6171.681
549.0368, 6176.222
549.5189, 6181.764
550.0010, 6185.617
550.4832, 6188.214
550.9653, 6190.254
551.4474, 6191.685
551.9295, 6191.750
552.4116, 6189.176
552.8937, 6187.348
553.3759, 6193.289
553.8580, 6212.771
554.3401, 6217.509
554.8222, 6193.823
555.3043, 6168.854
555.7864, 6153.428
556.2686, 6147.266
556.7507, 6150.229
557.2328, 6162.207
557.7149, 6175.412
558.1970, 6175.624
558.6791, 6162.000
559.1613, 6161.096
559.6434, 6182.891
560.1255, 6202.528
560.6076, 6202.909
561.0897, 6191.546
561.5718, 6180.212
562.0540, 6169.862
562.5361, 6161.211
563.0182, 6156.756
563.5003, 6153.323
563.9824, 6141.937
564.4645, 6123.833
564.9467, 6116.879
565.4288, 6137.550
565.9109, 6178.620
566.3930, 6201.285
566.8751, 6198.830
567.3572, 6188.565
567.8394, 6165.363
568.3215, 6141.517
568.8036, 6123.793
569.2857, 6113.186
569.7678, 6109.775
570.2499, 6118.354
570.7321, 6130.062
571.2142, 6128.482
571.6963, 6116.113
572.1784, 6114.110
572.6605, 6131.616
573.1426, 6154.247
573.6248, 6165.087
574.1069, 6162.938
574.5890, 6153.972
575.0711, 6129.483
575.5532, 6108.337
576.0353, 6093.598
576.5175, 6088.068
576.9996, 6097.644
577.4817, 6122.968
577.9638, 6153.364
578.4459, 6183.797
578.9280, 6211.829
579.4102, 6210.728
579.8923, 6170.822
580.3744, 6132.792
580.8565, 6111.189
581.3386, 6106.233
581.8207, 6121.251
582.3029, 6166.256
582.7850, 6191.027
583.2671, 6167.892
583.7492, 6128.826
584.2313, 6093.421
584.7134, 6067.061
585.1956, 6060.853
585.6777, 6081.550
586.1598, 6113.769
586.6419, 6124.553
587.1240, 6107.608
587.6061, 6094.511
588.0883, 6083.937
588.5704, 6081.269
589.0525, 6095.461
589.5346, 6117.657
590.0167, 6130.969
590.4988, 6130.427
590.9810, 6121.835
591.4631, 6099.055
591.9452, 6074.231
592.4273, 6074.155
592.9094, 6100.843
593.3915, 6127.136
593.8737, 6131.995
594.3558, 6119.771
594.8379, 6112.458
595.3200, 6117.579
595.8021, 6114.800
596.2842, 6089.270
596.7664, 6067.442
597.2485, 6071.281
597.7306, 6095.021
598.2127, 6114.557
598.6948, 6114.625
599.1769, 6109.171
599.6591, 6119.886
600.1412, 6142.014
600.6233, 6151.153
601.1054, 6140.168
601.5875, 6121.640
602.0696, 6106.259
602.5518, 6094.137
603.0339, 6089.166
603.5160, 6098.912
603.9981, 6105.584
604.4802, 6104.439
604.9623, 6099.527
605.4445, 6094.515
605.9266, 6089.950
606.4087, 6084.395
606.8908, 6076.868
607.3729, 6030.772
607.8550, 6081.103
608.3372, 6109.185
608.8193, 6116.214
609.3014, 6039.134
609.7835, 6070.663
610.2656, 6058.667
610.7477, 6044.886
611.2299, 6091.701
611.7120, 6026.855
612.1941, 6072.710
612.6762, 6074.375
613.1583, 6096.264
613.6404, 6074.359
614.1226, 6065.980
614.6047, 6101.411
615.0868, 6112.584
615.5689, 6085.638
616.0510, 6108.812
616.5331, 6042.437
617.0153, 6054.643
617.4974, 6100.754
617.9795, 6076.009
618.4616, 6064.308
618.9437, 6073.258
619.4258, 6074.370
619.9080, 6057.304
620.3901, 6040.567
620.8722, 6038.533
621.3543, 6044.046
621.8364, 6042.139
622.3185, 6028.448
622.8007, 6013.567
623.2828, 6011.283
623.7649, 6020.876
624.2470, 6026.697
624.7291, 6028.464
625.2112, 6027.332
625.6934, 6023.634
626.1755, 6017.272
626.6576, 6005.058
627.1397, 5984.546
627.6218, 5977.557
628.1039, 6004.238
628.5861, 6033.680
629.0682, 6042.100
629.5503, 6034.843
630.0324, 6026.190
630.5145, 6021.640
630.9966, 6018.076
631.4788, 6008.590
631.9609, 5992.601
632.4430, 5994.382
632.9251, 6026.308
633.4072, 6049.644
633.8893, 6041.406
634.3715, 6018.441
634.8536, 6000.479
635.3357, 5988.620
635.8178, 5980.661
636.2999, 5977.542
636.7820, 5976.595
637.2642, 5974.861
637.7463, 5973.459
638.2284, 5975.965
638.7105, 5983.729
639.1926, 5993.676
639.6747, 6003.343
640.1569, 6013.276
640.6390, 6010.128
641.1211, 5984.334
641.6032, 5964.202
642.0853, 5967.894
642.5674, 5980.730
643.0496, 5983.974
643.5317, 5974.935
644.0138, 5969.382
644.4959, 5980.697
644.9780, 5990.868
645.4601, 5978.661
645.9423, 5953.428
646.4244, 5940.314
646.9065, 5948.979
647.3886, 5966.444
647.8707, 5973.638
648.3528, 5969.936
648.8350, 5980.102
649.3171, 6016.378
649.7992, 6039.697
650.2813, 6023.425
650.7634, 5991.477
651.2455, 5972.367
651.7277, 5967.853
652.2098, 5969.754
652.6919, 5980.036
653.1740, 5991.951
653.6561, 6001.396
654.1382, 6008.325
654.6204, 6013.704
655.1025, 6017.766
655.5846, 6018.764
656.0667, 6014.457
656.5488, 6004.947
657.0309, 5991.585
657.5131, 5972.642
657.9952, 5954.563
658.4773, 5936.551
658.9594, 5923.040
659.4415, 5920.837
659.9236, 5930.680
660.4058, 5939.296
660.8879, 5941.312
661.3700, 5943.977
661.8521, 5952.739
662.3342, 5964.815
662.8163, 5976.727
663.2985, 5986.926
663.7806, 5992.604
664.2627, 5989.831
664.7448, 5979.981
665.2269, 5969.175
665.7090, 5955.956
666.1912, 5950.382
666.6733, 5961.064
667.1554, 5974.417
667.6375, 5972.299
668.1196, 5954.933
668.6017, 5939.902
669.0839, 5925.205
669.5660, 5917.059
670.0481, 5923.117
670.5302, 5934.447
671.0123, 5939.110
671.4944, 5936.097
671.9766, 5935.304
672.4587, 5947.376
672.9408, 5964.944
673.4229, 5968.053
673.9050, 5956.667
674.3871, 5944.440
674.8693, 5934.826
675.3514, 5925.253
675.8335, 5910.591
676.3156, 5891.489
676.7977, 5887.836
677.2798, 5917.709
677.7620, 5937.881
678.2441, 5930.947
678.7262, 5917.747
679.2083, 5919.361
679.6904, 5932.876
680.1725, 5938.407
680.6547, 5922.024
681.1368, 5897.438
681.6189, 5879.805
682.1010, 5870.034
682.5831, 5875.954
683.0652, 5900.345
683.5474, 5922.019
684.0295, 5922.903
684.5116, 5908.900
684.9937, 5908.894
685.4758, 5947.228
685.9579, 5958.892
686.4401, 5917.755
686.9222, 5874.299
687.4043, 5853.948
687.8864, 5853.607
688.3685, 5864.523
688.8506, 5887.358
689.3328, 5907.385
689.8149, 5908.665
690.2970, 5901.080
690.7791, 5905.371
691.2612, 5920.581
691.7433, 5925.490
692.2255, 5907.149
692.7076, 5878.314
693.1897, 5866.084
693.6718, 5877.037
694.1539, 5878.221
694.6360, 5858.605
695.1182, 5844.984
695.6003, 5853.150
696.0824, 5871.301
696.5645, 5885.296
697.0466, 5893.432
697.5287, 5897.992
698.0109, 5899.229
698.4930, 5897.707
698.9751, 5889.313
699.4572, 5879.288
699.9393, 5883.011
700.4214, 5904.086
700.9036, 5921.456
701.3857, 5906.449
701.8678, 5864.978
702.3499, 5842.916
702.8320, 5843.385
703.3141, 5849.282
703.7963, 5858.964
704.2784, 5867.160
704.7605, 5866.320
705.2426, 5856.431
705.7247, 5848.975
706.2068, 5838.107
706.6890, 5837.538
707.1711, 5869.368
707.6532, 5902.148
708.1353, 5895.328
708.6174, 5853.470
709.0995, 5820.192
709.5817, 5826.668
710.0638, 5849.613
710.5459, 5854.009
711.0280, 5842.717
711.5101, 5827.075
711.9922, 5808.338
712.4744, 5797.715
712.9565, 5806.299
713.4386, 5827.705
713.9207, 5835.235
714.4028, 5813.190
714.8849, 5805.918
715.3671, 5828.385
715.8492, 5851.220
716.3313, 5856.920
716.8134, 5853.876
717.2955, 5862.136
717.7776, 5891.450
718.2598, 5909.528
718.7419, 5882.920
719.2240, 5843.756
719.7061, 5835.262
720.1882, 5851.114
720.6703, 5859.548
721.1525, 5847.011
721.6346, 5825.157
722.1167, 5809.473
722.5988, 5799.955
723.0809, 5794.611
723.5630, 5795.204
724.0452, 5794.493
724.5273, 5788.431
725.0094, 5781.224
725.4915, 5777.572
725.9736, 5777.333
726.4557, 5781.331
726.9379, 5799.572
727.4200, 5810.262
727.9021, 5796.087
728.3842, 5775.832
728.8663, 5768.737
729.3484, 5777.102
729.8306, 5794.471
730.3127, 5822.521
730.7948, 5847.452
731.2769, 5843.128
731.7590, 5816.447
732.2411, 5795.878
732.7233, 5786.348
733.2054, 5787.173
733.6875, 5799.854
734.1696, 5819.919
734.6517, 5831.825
735.1339, 5830.203
735.6160, 5832.454
736.0981, 5847.278
736.5802, 5857.018
737.0623, 5852.218
737.5444, 5838.018
738.0266, 5821.818
738.5087, 5804.057
738.9908, 5788.587
739.4729, 5777.561
739.9550, 5769.208
740.4371, 5757.453
740.9193, 5747.970
741.4014, 5757.346
741.8835, 5789.254
742.3656, 5822.277
742.8477, 5833.646
743.3298, 5827.015
743.8120, 5815.061
744.2941, 5797.053
744.7762, 5784.818
745.2583, 5782.384
745.7404, 5785.612
746.2225, 5792.895
746.7047, 5803.566
747.1868, 5803.581
747.6689, 5775.136
748.1510, 5761.028
748.6331, 5787.973
749.1152, 5810.769
749.5974, 5786.549
750.0795, 5732.265
750.5616, 5698.141
751.0437, 5705.173
751.5258, 5724.178
752.0079, 5741.301
752.4901, 5752.560
752.9722, 5745.117
753.4543, 5724.656
753.9364, 5717.232
754.4185, 5735.459
754.9006, 5764.407
755.3828, 5785.044
755.8649, 5797.293
756.3470, 5788.491
756.8291, 5749.935
757.3112, 5722.234
757.7933, 5722.828
758.2755, 5737.771
758.7576, 5753.460
759.2397, 5770.474
759.7218, 5775.272
760.2039, 5750.780
760.6860, 5735.792
761.1682, 5749.890
761.6503, 5770.135
762.1324, 5775.748
762.6145, 5767.507
763.0966, 5757.587
763.5787, 5750.853
764.0609, 5746.283
764.5430, 5745.412
765.0251, 5745.172
765.5072, 5734.967
765.9893, 5717.212
766.4714, 5713.398
766.9536, 5736.633
767.4357, 5768.989
767.9178, 5775.756
768.3999, 5753.982
768.8820, 5744.744
769.3641, 5752.882
769.8463, 5760.407
770.3284, 5760.307
770.8105, 5755.901
771.2926, 5751.325
771.7747, 5746.583
772.2568, 5741.186
772.7390, 5729.371
773.2211, 5723.939
773.7032, 5735.817
774.1853, 5750.728
774.6674, 5753.021
775.1495, 5744.454
775.6317, 5739.787
776.1138, 5749.093
776.5959, 5758.487
777.0780, 5751.247
777.5601, 5735.944
778.0422, 5728.048
778.5244, 5728.828
779.0065, 5735.052
779.4886, 5745.669
779.9707, 5754.005
780.4528, 5744.742
780.9349, 5716.586
781.4171, 5705.206
781.8992, 5717.373
782.3813, 5722.191
782.8634, 5701.641
783.3455, 5675.469
783.8276, 5670.990
784.3098, 5690.635
784.7919, 5706.041
785.2740, 5719.953
785.7561, 5726.067
786.2382, 5716.213
786.7203, 5703.197
787.2025, 5697.987
787.6846, 5699.439
788.1667, 5699.862
788.6488, 5695.469
789.1309, 5691.083
789.6130, 5689.900
790.0952, 5691.155
790.5773, 5691.855
791.0594, 5693.765
791.5415, 5706.375
792.0236, 5733.975
792.5057, 5761.615
792.9879, 5765.805
793.4700, 5749.902
793.9521, 5744.413
794.4342, 5751.595
794.9163, 5741.134
795.3984, 5693.970
795.8806, 5651.501
796.3627, 5667.478
796.8448, 5738.366
797.3269, 5767.813
797.8090, 5725.674
798.2911, 5688.644
798.7733, 5660.145
799.2554, 5642.517
799.7375, 5640.262
800.2196, 5649.340
800.7017, 5662.458
801.1838, 5682.092
801.6660, 5692.366
802.1481, 5672.433
802.6302, 5652.589
803.1123, 5664.090
803.5944, 5694.388
804.0765, 5718.257
804.5587, 5727.298
805.0408, 5723.348
805.5229, 5701.512
806.0050, 5672.058
806.4871, 5657.252
806.9692, 5655.012
807.4514, 5655.577
807.9335, 5656.799
808.4156, 5653.389
808.8977, 5639.304
809.3798, 5620.416
809.8619, 5618.021
810.3441, 5636.680
810.8262, 5654.025
811.3083, 5668.324
811.7904, 5682.145
812.2725, 5702.773
812.7546, 5720.559
813.2368, 5715.743
813.7189, 5683.535
814.2010, 5656.646
814.6831, 5631.238
815.1652, 5619.659
815.6473, 5636.470
816.1295, 5662.759
816.6116, 5679.785
817.0937, 5686.358
817.5758, 5691.134
818.0579, 5698.508
818.5400, 5704.585
819.0222, 5706.643
819.5043, 5705.104
819.9864, 5699.525
820.4685, 5690.807
820.9506, 5681.785
821.4327, 5673.890
821.9149, 5666.007
822.3970, 5656.545
822.8791, 5645.772
823.3612, 5633.926
823.8433, 5620.960
824.3254, 5615.380
824.8076, 5621.272
825.2897, 5629.118
825.7718, 5628.475
826.2539, 5620.438
826.7360, 5615.368
827.2181, 5614.117
827.7003, 5613.760
828.1824, 5612.824
828.6645, 5613.971
829.1466, 5621.292
829.6287, 5631.046
830.1108, 5636.250
830.5930, 5636.392
831.0751, 5631.879
831.5572, 5612.384
832.0393, 5599.641
832.5214, 5612.318
833.0035, 5633.926
833.4856, 5640.936
833.9677, 5632.121
834.4498, 5627.674
834.9319, 5645.649
835.4141, 5663.162
835.8962, 5653.893
836.3783, 5632.038
836.8604, 5622.869
837.3425, 5626.168
837.8246, 5625.565
838.3068, 5612.461
838.7889, 5592.515
839.2710, 5565.863
839.7531, 5538.334
840.2352, 5546.853
840.7173, 5592.468
841.1995, 5630.050
841.6816, 5645.417
842.1637, 5641.877
842.6458, 5618.906
843.1279, 5580.417
843.6100, 5561.677
844.0922, 5571.082
844.5743, 5576.843
845.0564, 5571.486
845.5385, 5566.625
846.0206, 5568.070
846.5027, 5575.424
846.9849, 5588.615
847.4670, 5610.822
847.9491, 5627.969
848.4312, 5641.812
848.9133, 5646.724
849.3954, 5635.530
849.8776, 5617.483
850.3597, 5604.039
850.8418, 5594.875
851.3239, 5578.532
851.8060, 5534.897
852.2881, 5506.765
852.7703, 5542.562
853.2524, 5595.802
853.7345, 5609.738
854.2166, 5589.585
854.6987, 5564.514
855.1808, 5546.854
855.6630, 5540.968
856.1451, 5563.792
856.6272, 5596.798
857.1093, 5589.779
857.5914, 5552.555
858.0735, 5538.592
858.5557, 5561.187
859.0378, 5592.805
859.5199, 5612.192
860.0020, 5618.931
860.4841, 5606.722
860.9662, 5572.981
861.4484, 5557.556
861.9305, 5569.285
862.4126, 5576.986
862.8947, 5563.988
863.3768, 5539.825
863.8589, 5516.360
864.3411, 5490.659
864.8232, 5493.130
865.3053, 5557.518
865.7874, 5596.367
866.2695, 5569.434
866.7516, 5531.710
867.2338, 5522.607
867.7159, 5533.994
868.1980, 5537.340
868.6801, 5524.619
869.1622, 5515.213
869.6443, 5513.040
870.1265, 5515.768
870.6086, 5522.549
871.0907, 5533.203
871.5728, 5553.489
872.0549, 5581.463
872.5370, 5593.371
873.0192, 5562.819
873.5013, 5527.046
873.9834, 5513.735
874.4655, 5513.038
874.9476, 5513.850
875.4297, 5513.963
875.9119, 5512.631
876.3940, 5509.319
876.8761, 5507.591
877.3582, 5515.611
877.8403, 5526.511
878.3224, 5519.837
878.8046, 5500.778
879.2867, 5495.382
879.7688, 5510.613
880.2509, 5536.146
880.7330, 5566.617
881.2151, 5592.717
881.6973, 5580.671
882.1794, 5530.134
882.6615, 5507.338
883.1436, 5522.198
883.6257, 5539.754
884.1078, 5545.455
884.5900, 5538.810
885.0721, 5515.589
885.5542, 5474.433
886.0363, 5455.201
886.5184, 5467.592
887.0005, 5478.972
887.4827, 5481.735
887.9648, 5483.575
888.4469, 5492.765
888.9290, 5505.298
889.4111, 5506.790
889.8932, 5488.146
890.3754, 5480.609
890.8575, 5493.385
891.3396, 5507.702
891.8217, 5516.781
892.3038, 5523.744
892.7859, 5535.173
893.2681, 5549.621
893.7502, 5552.885
894.2323, 5528.967
894.7144, 5510.781
895.1965, 5522.333
895.6786, 5534.523
896.1608, 5517.501
896.6429, 5483.572
897.1250, 5460.728
897.6071, 5456.749
898.0892, 5457.443
898.5714, 5451.109
899.0535, 5447.562
899.5356, 5460.908
900.0177, 5481.285
900.4998, 5495.199
900.9819, 5499.319
901.4641, 5490.005
901.9462, 5463.268
902.4283, 5437.987
902.9104, 5439.016
903.3925, 5457.757
903.8746, 5479.351
904.3568, 5501.115
904.8389, 5518.294
905.3210, 5528.843
905.8031, 5525.049
906.2852, 5496.342
906.7673, 5455.952
907.2495, 5437.938
907.7316, 5440.991
908.2137, 5454.344
908.6958, 5477.835
909.1779, 5487.667
909.6600, 5471.051
910.1422, 5441.710
910.6243, 5415.522
911.1064, 5393.658
911.5885, 5403.761
912.0706, 5456.510
912.5527, 5490.929
913.0349, 5490.478
913.5170, 5483.013
913.9991, 5488.563
914.4812, 5499.675
914.9633, 5497.282
915.4454, 5477.307
915.9276, 5458.678
916.4097, 5437.897
916.8918, 5424.448
917.3739, 5424.077
917.8560, 5429.354
918.3381, 5437.773
918.8203, 5447.062
919.3024, 5444.274
919.7845, 5413.775
920.2666, 5397.721
920.7487, 5409.346
921.2308, 5424.110
921.7130, 5432.466
922.1951, 5436.773
922.6772, 5439.578
923.1593, 5441.359
923.6414, 5444.661
924.1235, 5455.129
924.6057, 5460.449
925.0878, 5453.166
925.5699, 5442.040
926.0520, 5431.129
926.5341, 5422.607
927.0162, 5419.127
927.4984, 5421.403
927.9805, 5427.471
928.4626, 5444.786
928.9447, 5456.192
929.4268, 5441.526
929.9089, 5419.419
930.3911, 5415.344
930.8732, 5426.611
931.3553, 5432.785
931.8374, 5424.275
932.3195, 5417.378
932.8016, 5432.975
933.2838, 5451.440
933.7659, 5444.345
934.2480, 5423.257
934.7301, 5413.618
935.2122, 5419.197
935.6943, 5426.917
936.1765, 5428.886
936.6586, 5428.140
937.1407, 5427.898
937.6228, 5428.111
938.1049, 5430.822
938.5870, 5434.075
939.0692, 5427.340
939.5513, 5408.656
940.0334, 5395.921
940.5155, 5408.768
940.9976, 5431.123
941.4797, 5422.001
941.9619, 5391.756
942.4440, 5392.194
942.9261, 5424.951
943.4082, 5447.951
943.8903, 5442.337
944.3724, 5427.850
944.8546, 5430.516
945.3367, 5443.567
945.8188, 5431.903
946.3009, 5397.098
946.7830, 5387.438
947.2651, 5412.125
947.7473, 5432.825
948.2294, 5425.693
948.7115, 5410.687
949.1936, 5426.134
949.6757, 5470.029
950.1578, 5476.367
950.6400, 5439.469
951.1221, 5406.802
951.6042, 5386.422
952.0863, 5383.528
952.5684, 5407.999
953.0505, 5442.438
953.5327, 5441.370
954.0148, 5395.997
954.4969, 5372.661
954.9790, 5377.450
955.4611, 5385.050
955.9432, 5389.395
956.4254, 5391.716
956.9075, 5390.862
957.3896, 5389.818
957.8717, 5402.053
958.3538, 5438.236
958.8359, 5456.829
959.3181, 5450.633
959.8002, 5440.449
960.2823, 5432.402
960.7644, 5424.482
961.2465, 5412.654
961.7286, 5398.404
962.2108, 5393.880
962.6929, 5406.212
963.1750, 5415.015
963.6571, 5423.025
964.1392, 5423.003
964.6213, 5404.140
965.1035, 5381.153
965.5856, 5374.074
966.0677, 5382.561
966.5498, 5384.895
967.0319, 5371.076
967.5140, 5366.089
967.9962, 5383.255
968.4783, 5396.765
968.9604, 5387.732
969.4425, 5370.784
969.9246, 5369.081
970.4067, 5384.242
970.8889, 5391.412
971.3710, 5382.120
971.8531, 5373.585
972.3352, 5365.531
972.8173, 5362.632
973.2994, 5371.069
973.7816, 5385.273
974.2637, 5396.234
974.7458, 5402.923
975.2279, 5407.415
975.7100, 5409.551
976.1921, 5410.100
976.6743, 5414.645
977.1564, 5412.563
977.6385, 5385.976
978.1206, 5349.868
978.6027, 5335.907
979.0848, 5350.954
979.5670, 5370.462
980.0491, 5405.576
980.5312, 5421.977
981.0133, 5384.688
981.4954, 5342.041
981.9775, 5340.189
982.4597, 5366.065
982.9418, 5380.436
983.4239, 5373.628
983.9060, 5366.706
984.3881, 5364.115
984.8702, 5365.815
985.3524, 5374.948
985.8345, 5385.827
986.3166, 5392.349
986.7987, 5395.835
987.2808, 5403.222
987.7629, 5419.087
988.2451, 5424.003
988.7272, 5397.970
989.2093, 5373.841
989.6914, 5376.126
990.1735, 5384.906
990.6556, 5371.907
991.1378, 5345.283
991.6199, 5340.743
992.1020, 5375.735
992.5841, 5401.632
993.0662, 5388.822
993.5483, 5370.903
994.0305, 5370.397
994.5126, 5374.916
994.9947, 5368.381
995.4768, 5352.352
995.9589, 5338.635
996.4410, 5330.582
996.9232, 5326.717
997.4053, 5327.155
997.8874, 5330.724
998.3695, 5341.100
998.8516, 5351.128
999.3337, 5349.587
999.8159, 5339.255
1000.298, 5334.809
1000.780, 5342.413
1001.262, 5351.633
1001.744, 5362.471
1002.226, 5367.938
1002.709, 5354.852
1003.191, 5339.079
1003.673, 5345.459
1004.155, 5369.391
1004.637, 5380.941
1005.119, 5366.358
1005.601, 5350.380
1006.083, 5335.306
1006.565, 5332.479
1007.048, 5364.601
1007.530, 5403.608
1008.012, 5411.115
1008.494, 5390.499
1008.976, 5374.469
1009.458, 5375.206
1009.940, 5377.711
1010.422, 5378.467
1010.905, 5375.340
1011.387, 5363.147
1011.869, 5348.849
1012.351, 5339.646
1012.833, 5336.495
1013.315, 5338.794
1013.797, 5348.218
1014.279, 5357.385
1014.761, 5359.327
1015.244, 5364.448
1015.726, 5389.945
1016.208, 5414.787
1016.690, 5405.810
1017.172, 5371.447
1017.654, 5356.998
1018.136, 5384.065
1018.618, 5403.573
1019.101, 5389.896
1019.583, 5372.741
1020.065, 5364.448
1020.547, 5364.776
1021.029, 5380.247
1021.511, 5403.662
1021.993, 5408.949
1022.475, 5384.036
1022.957, 5360.272
1023.440, 5346.019
1023.922, 5336.590
1024.404, 5324.028
1024.886, 5319.536
1025.368, 5344.280
1025.850, 5387.140
1026.332, 5408.454
1026.814, 5396.169
1027.297, 5377.945
1027.779, 5348.173
1028.261, 5328.288
1028.743, 5332.979
1029.225, 5346.443
1029.707, 5358.873
1030.189, 5367.300
1030.671, 5364.601
1031.153, 5345.188
1031.636, 5331.578
1032.118, 5332.198
1032.600, 5332.332
1033.082, 5320.946
1033.564, 5313.014
1034.046, 5325.737
1034.528, 5350.659
1035.010, 5366.132
1035.493, 5371.456
1035.975, 5364.469
1036.457, 5322.583
1036.939, 5299.409
1037.421, 5325.610
1037.903, 5355.584
1038.385, 5355.453
1038.867, 5336.706
1039.349, 5322.528
1039.832, 5311.946
1040.314, 5311.430
1040.796, 5329.569
1041.278, 5343.251
1041.760, 5345.490
1042.242, 5347.013
1042.724, 5357.690
1043.206, 5369.431
1043.688, 5366.030
1044.171, 5345.612
1044.653, 5331.922
1045.135, 5325.499
1045.617, 5324.621
1046.099, 5330.286
1046.581, 5339.760
1047.063, 5355.401
1047.545, 5368.658
1048.028, 5365.344
1048.510, 5346.112
1048.992, 5327.517
1049.474, 5305.950
1049.956, 5302.711
1050.438, 5328.208
1050.920, 5342.866
1051.402, 5324.833
1051.885, 5296.370
1052.367, 5284.300
1052.849, 5287.244
1053.331, 5298.385
1053.813, 5318.859
1054.295, 5335.804
1054.777, 5347.832
1055.259, 5361.702
1055.741, 5381.538
1056.224, 5394.129
1056.706, 5385.223
1057.188, 5359.914
1057.670, 5328.462
1058.152, 5292.675
1058.634, 5279.739
1059.116, 5290.410
1059.598, 5306.105
1060.080, 5321.024
1060.563, 5330.431
1061.045, 5330.149
1061.527, 5323.380
1062.009, 5310.249
1062.491, 5296.579
1062.973, 5314.564
1063.455, 5355.167
1063.937, 5365.570
1064.420, 5336.974
1064.902, 5305.550
1065.384, 5293.782
1065.866, 5292.860
1066.348, 5291.370
1066.830, 5292.590
1067.312, 5307.960
1067.794, 5329.908
1068.276, 5339.146
1068.759, 5334.253
1069.241, 5323.403
1069.723, 5310.164
1070.205, 5300.620
1070.687, 5303.089
1071.169, 5309.678
1071.651, 5311.096
1072.133, 5310.860
1072.615, 5314.419
1073.098, 5321.308
1073.580, 5328.870
1074.062, 5336.188
1074.544, 5341.870
1075.026, 5343.290
1075.508, 5344.980
1075.990, 5358.985
1076.472, 5366.570
1076.955, 5338.541
1077.437, 5295.691
1077.919, 5277.947
1078.401, 5290.344
1078.883, 5304.290
1079.365, 5308.685
1079.847, 5315.325
1080.329, 5339.895
1080.811, 5354.879
1081.294, 5286.284
1081.776, 5335.329
1082.258, 5362.190
1082.740, 5368.059
1083.222, 5290.062
1083.704, 5320.361
1084.186, 5307.259
1084.668, 5292.378
1085.151, 5337.916
1085.633, 5272.116
1086.115, 5316.699
1086.597, 5317.219
1087.079, 5337.906
1087.561, 5314.924
1088.043, 5305.430
1088.525, 5339.618
1089.007, 5349.619
1089.490, 5321.607
1089.972, 5343.575
1090.454, 5276.251
1090.936, 5287.282
1091.418, 5332.120
1091.900, 5306.307
1092.382, 5329.074
1092.864, 5333.338
1093.346, 5253.521
1093.829, 5319.928
1094.311, 5323.099
1094.793, 5261.338
1095.275, 5322.738
1095.757, 5269.929
1096.239, 5257.885
1096.721, 5306.265
1097.203, 5295.215
1097.686, 5258.246
1098.168, 5239.935
1098.650, 5240.754
1099.132, 5241.970
1099.614, 5239.026
1100.096, 5247.150
1100.578, 5280.435
1101.060, 5313.739
1101.542, 5308.563
1102.025, 5283.909
1102.507, 5269.290
1102.989, 5262.650
1103.471, 5257.242
1103.953, 5251.933
1104.435, 5246.608
1104.917, 5240.778
1105.399, 5243.186
1105.881, 5269.870
1106.364, 5296.589
1106.846, 5306.963
1107.328, 5304.544
1107.810, 5285.011
1108.292, 5226.779
1108.774, 5278.705
1109.256, 5308.446
1109.738, 5317.196
1110.221, 5242.081
1110.703, 5275.259
1111.185, 5265.038
1111.667, 5253.037
1112.149, 5301.458
1112.631, 5238.539
1113.113, 5286.001
1113.595, 5289.401
1114.078, 5312.970
1114.560, 5292.869
1115.042, 5286.254
1115.524, 5323.323
1116.006, 5336.204
1116.488, 5311.075
1116.970, 5298.802
1117.452, 5299.020
1117.934, 5289.792
1118.417, 5291.244
1118.899, 5303.918
1119.381, 5302.274
1119.863, 5283.727
1120.345, 5275.389
1120.827, 5282.257
1121.309, 5291.808
1121.791, 5298.689
1122.273, 5297.397
1122.756, 5276.733
1123.238, 5250.363
1123.720, 5264.048
1124.202, 5303.961
1124.684, 5313.029
1125.166, 5294.091
1125.648, 5280.487
1126.130, 5280.806
1126.613, 5281.915
1127.095, 5274.870
1127.577, 5266.765
1128.059, 5265.051
1128.541, 5267.005
1129.023, 5273.235
1129.505, 5278.446
1129.987, 5271.718
1130.469, 5256.495
1130.952, 5246.726
1131.434, 5247.051
1131.916, 5248.165
1132.398, 5234.508
1132.880, 5235.316
1133.362, 5287.702
1133.844, 5335.410
1134.326, 5326.576
1134.808, 5290.323
1135.291, 5273.657
1135.773, 5278.755
1136.255, 5282.300
1136.737, 5280.202
1137.219, 5280.734
1137.701, 5288.444
1138.183, 5290.586
1138.665, 5279.250
1139.148, 5267.674
1139.630, 5265.904
1140.112, 5273.003
1140.594, 5291.548
1141.076, 5322.836
1141.558, 5308.374
1142.040, 5243.187
1142.522, 5215.231
1143.005, 5239.441
1143.487, 5267.870
1143.969, 5277.737
1144.451, 5279.487
1144.933, 5286.115
1145.415, 5290.195
1145.897, 5264.264
1146.379, 5226.827
1146.861, 5234.558
1147.344, 5273.900
1147.826, 5289.061
1148.308, 5272.336
1148.790, 5264.406
1149.272, 5289.996
1149.754, 5313.428
1150.236, 5303.141
1150.718, 5282.710
1151.200, 5266.648
1151.683, 5255.691
1152.165, 5253.575
1152.647, 5255.604
1153.129, 5249.240
1153.611, 5231.955
1154.093, 5224.054
1154.575, 5238.393
1155.057, 5249.927
1155.540, 5250.592
1156.022, 5251.993
1156.504, 5263.213
1156.986, 5272.885
1157.468, 5265.522
1157.950, 5248.646
1158.432, 5253.626
1158.914, 5288.720
1159.396, 5292.244
1159.879, 5257.148
1160.361, 5237.231
1160.843, 5244.693
1161.325, 5256.450
1161.807, 5259.884
1162.289, 5257.858
1162.771, 5251.159
1163.253, 5245.439
1163.735, 5261.574
1164.218, 5289.500
1164.700, 5296.390
1165.182, 5286.478
1165.664, 5286.810
1166.146, 5300.883
1166.628, 5301.073
1167.110, 5266.975
1167.592, 5237.365
1168.075, 5249.248
1168.557, 5270.815
1169.039, 5278.947
1169.521, 5279.885
1170.003, 5277.650
1170.485, 5276.292
1170.967, 5286.436
1171.449, 5310.621
1171.932, 5318.887
1172.414, 5287.436
1172.896, 5269.849
1173.378, 5282.834
1173.860, 5294.547
1174.342, 5291.833
1174.824, 5285.719
1175.306, 5288.124
1175.788, 5293.427
1176.271, 5282.304
1176.753, 5253.396
1177.235, 5244.572
1177.717, 5256.144
1178.199, 5273.769
1178.681, 5294.587
1179.163, 5306.965
1179.645, 5305.534
1180.127, 5293.548
1180.610, 5267.780
1181.092, 5246.300
1181.574, 5273.410
1182.056, 5314.935
1182.538, 5305.980
1183.020, 5267.125
1183.502, 5249.040
1183.984, 5255.374
1184.467, 5257.092
1184.949, 5241.643
1185.431, 5232.402
1185.913, 5244.455
1186.395, 5259.272
1186.877, 5269.530
1187.359, 5278.808
1187.841, 5294.326
1188.323, 5307.902
1188.806, 5305.431
1189.288, 5288.666
1189.770, 5272.405
1190.252, 5251.819
1190.734, 5250.405
1191.216, 5276.076
1191.698, 5287.370
1192.180, 5271.590
1192.662, 5251.903
1193.145, 5241.497
1193.627, 5246.681
1194.109, 5287.441
1194.591, 5341.253
1195.073, 5335.771
1195.555, 5293.175
1196.037, 5274.733
1196.519, 5278.054
1197.002, 5272.549
1197.484, 5253.476
1197.966, 5245.007
1198.448, 5263.651
1198.930, 5279.383
1199.412, 5263.903
1199.894, 5249.661
1200.376, 5263.749
1200.859, 5283.097
1201.341, 5285.789
1201.823, 5277.132
1202.305, 5269.791
1202.787, 5264.605
1203.269, 5257.540
1203.751, 5245.873
1204.233, 5238.663
1204.715, 5236.083
1205.198, 5238.428
1205.680, 5245.883
1206.162, 5259.565
1206.644, 5282.250
1207.126, 5303.313
1207.608, 5301.807
1208.090, 5285.784
1208.572, 5284.357
1209.054, 5293.226
1209.537, 5300.328
1210.019, 5303.628
1210.501, 5299.756
1210.983, 5289.477
1211.465, 5284.520
1211.947, 5295.810
1212.429, 5296.275
1212.911, 5249.859
1213.394, 5208.042
1213.876, 5213.050
1214.358, 5231.220
1214.840, 5226.277
1215.322, 5211.751
1215.804, 5220.531
1216.286, 5253.956
1216.768, 5283.538
1217.250, 5316.597
1217.733, 5322.729
1218.215, 5291.692
1218.697, 5268.696
1219.179, 5267.342
1219.661, 5269.300
1220.143, 5261.948
1220.625, 5252.789
1221.107, 5255.604
1221.589, 5262.899
1222.072, 5248.479
1222.554, 5224.797
1223.036, 5221.900
1223.518, 5237.838
1224.000, 5264.999
1224.482, 5296.629
1224.964, 5312.548
1225.446, 5301.446
1225.929, 5284.667
1226.411, 5261.363
1226.893, 5250.468
1227.375, 5274.799
1227.857, 5300.427
1228.339, 5302.327
1228.821, 5289.198
1229.303, 5269.777
1229.786, 5247.323
1230.268, 5244.509
1230.750, 5265.954
1231.232, 5281.901
1231.714, 5292.025
1232.196, 5294.152
1232.678, 5287.864
1233.160, 5280.042
1233.642, 5274.219
1234.125, 5271.823
1234.607, 5275.943
1235.089, 5281.571
1235.571, 5280.479
1236.053, 5276.979
1236.535, 5279.030
1237.017, 5282.008
1237.499, 5273.074
1237.981, 5256.882
1238.464, 5255.972
1238.946, 5278.529
1239.428, 5293.987
1239.910, 5288.698
1240.392, 5286.630
1240.874, 5293.026
1241.356, 5301.131
1241.838, 5312.524
1242.321, 5315.195
1242.803, 5294.620
1243.285, 5264.403
1243.767, 5256.661
1244.249, 5268.729
1244.731, 5287.873
1245.213, 5308.928
1245.695, 5299.460
1246.177, 5265.564
1246.660, 5251.511
1247.142, 5268.179
1247.624, 5283.040
1248.106, 5274.220
1248.588, 5268.662
1249.070, 5293.473
1249.552, 5316.597
1250.034, 5314.596
1250.516, 5304.933
1250.999, 5303.071
1251.481, 5305.265
1251.963, 5305.490
1252.445, 5302.750
1252.927, 5285.518
1253.409, 5246.523
1253.891, 5227.508
1254.373, 5230.279
1254.856, 5249.421
1255.338, 5283.751
1255.820, 5301.893
1256.302, 5287.202
1256.784, 5263.395
1257.266, 5252.727
1257.748, 5250.097
1258.230, 5251.265
1258.713, 5253.816
1259.195, 5253.207
1259.677, 5252.818
1260.159, 5257.918
1260.641, 5268.246
1261.123, 5284.649
1261.605, 5309.973
1262.087, 5312.687
1262.569, 5262.777
1263.052, 5239.745
1263.534, 5257.902
1264.016, 5281.296
1264.498, 5301.151
1264.980, 5311.552
1265.462, 5306.950
1265.944, 5295.516
1266.426, 5288.477
1266.908, 5286.671
1267.391, 5297.287
1267.873, 5312.657
1268.355, 5314.728
1268.837, 5305.530
1269.319, 5292.914
1269.801, 5279.740
1270.283, 5269.519
1270.765, 5263.059
1271.248, 5262.031
##END=



