##NAMES=Ferro-ferri-fluoro-leakeite
##RRUFFID=R070468
##IDEAL CHEMISTRY=NaNa_2_(Fe^2+^_2_Fe^3+^_2_Li)Si_8_O_22_F_2_
##LOCALITY=Questa, Taos County, New Mexico, USA
##OWNER=RRUFF
##SOURCE=Michael Scott
##DESCRIPTION=Unconsolidated dark blue to black grains, co-type sample
##STATUS=The identification of this mineral has been confirmed only by single crystal X-ray diffraction.
##URL=rruff.info/R070468
144.1374, 470.2752
144.6195, 493.8740
145.1016, 515.7355
145.5838, 530.8580
146.0659, 536.3900
146.5480, 541.6156
147.0301, 549.4568
147.5122, 557.3881
147.9943, 554.8820
148.4765, 532.1450
148.9586, 508.1029
149.4407, 492.6241
149.9228, 491.6352
150.4049, 491.6911
150.8870, 491.4937
151.3692, 491.0608
151.8513, 493.1483
152.3334, 499.0623
152.8155, 506.7566
153.2976, 514.8235
153.7797, 525.1924
154.2619, 533.8709
154.7440, 540.4589
155.2261, 544.9583
155.7082, 546.8638
156.1903, 540.1842
156.6724, 532.5709
157.1546, 533.2579
157.6367, 552.9482
158.1188, 573.4407
158.6009, 588.2449
159.0830, 595.2653
159.5651, 601.2154
160.0473, 604.3398
160.5294, 607.6259
161.0115, 616.7574
161.4936, 639.0590
161.9757, 663.9301
162.4578, 685.9904
162.9400, 705.1597
163.4221, 719.8531
163.9042, 726.2117
164.3863, 726.6083
164.8684, 729.0039
165.3505, 739.3695
165.8327, 752.0064
166.3148, 762.3297
166.7969, 769.2580
167.2790, 773.3647
167.7611, 772.3355
168.2433, 767.0658
168.7254, 765.2494
169.2075, 775.8686
169.6896, 791.0978
170.1717, 801.7037
170.6538, 798.7311
171.1360, 793.4458
171.6181, 796.6781
172.1002, 808.9597
172.5823, 818.2875
173.0644, 811.5325
173.5465, 796.0240
174.0287, 784.7932
174.5108, 789.2142
174.9929, 798.4163
175.4750, 799.8802
175.9571, 791.8818
176.4392, 781.3723
176.9214, 774.8782
177.4035, 771.2372
177.8856, 767.1170
178.3677, 757.6049
178.8498, 747.2454
179.3319, 744.1429
179.8141, 751.1718
180.2962, 760.6894
180.7783, 762.7391
181.2604, 758.5652
181.7425, 754.9496
182.2246, 757.5350
182.7068, 763.9399
183.1889, 768.4368
183.6710, 769.2413
184.1531, 768.7076
184.6352, 769.2684
185.1173, 771.0604
185.5995, 776.4771
186.0816, 793.6260
186.5637, 817.5362
187.0458, 828.7913
187.5279, 816.4883
188.0100, 792.5444
188.4922, 786.4429
188.9743, 799.1383
189.4564, 814.7815
189.9385, 816.3243
190.4206, 805.7793
190.9027, 798.7679
191.3849, 801.4946
191.8670, 811.2831
192.3491, 816.9803
192.8312, 817.6195
193.3133, 819.2117
193.7954, 832.3436
194.2776, 856.6609
194.7597, 874.4139
195.2418, 874.7369
195.7239, 860.5851
196.2060, 856.8264
196.6881, 865.5931
197.1703, 879.5124
197.6524, 887.5368
198.1345, 889.1325
198.6166, 891.4087
199.0987, 898.1874
199.5808, 909.4744
200.0630, 919.2899
200.5451, 927.8600
201.0272, 934.4310
201.5093, 937.0255
201.9914, 934.9652
202.4735, 932.2836
202.9557, 930.7438
203.4378, 930.3591
203.9199, 931.6573
204.4020, 936.2974
204.8841, 941.2352
205.3662, 938.0524
205.8484, 925.0434
206.3305, 909.6169
206.8126, 894.8446
207.2947, 880.1426
207.7768, 870.1912
208.2589, 866.8878
208.7411, 868.0941
209.2232, 865.7839
209.7053, 858.3685
210.1874, 851.2014
210.6695, 848.0757
211.1517, 849.8740
211.6338, 851.8954
212.1159, 853.2713
212.5980, 854.3512
213.0801, 857.8864
213.5622, 865.5663
214.0444, 872.4572
214.5265, 873.9981
215.0086, 868.4808
215.4907, 862.9925
215.9728, 857.8475
216.4549, 853.2866
216.9371, 853.5297
217.4192, 861.7146
217.9013, 870.0703
218.3834, 870.1483
218.8655, 857.9914
219.3476, 848.3011
219.8298, 844.0251
220.3119, 845.2191
220.7940, 849.1270
221.2761, 857.8203
221.7582, 866.8480
222.2403, 871.6651
222.7225, 871.9551
223.2046, 868.3717
223.6867, 859.5116
224.1688, 844.3987
224.6509, 834.1661
225.1330, 828.5533
225.6152, 827.9518
226.0973, 834.3054
226.5794, 852.6510
227.0615, 867.4254
227.5436, 873.7604
228.0257, 870.3558
228.5079, 866.6575
228.9900, 863.3851
229.4721, 859.2277
229.9542, 851.4998
230.4363, 836.5869
230.9184, 824.7218
231.4006, 819.1314
231.8827, 820.8849
232.3648, 824.8430
232.8469, 831.9882
233.3290, 840.8041
233.8111, 849.2321
234.2933, 859.2363
234.7754, 865.5546
235.2575, 865.9394
235.7396, 858.6981
236.2217, 850.4351
236.7038, 837.9645
237.1860, 825.8762
237.6681, 824.3875
238.1502, 841.1260
238.6323, 856.3984
239.1144, 862.1370
239.5965, 852.7858
240.0787, 849.2261
240.5608, 855.1718
241.0429, 865.5467
241.5250, 868.2178
242.0071, 857.4200
242.4892, 847.6537
242.9714, 846.1030
243.4535, 859.6724
243.9356, 864.7122
244.4177, 857.0258
244.8998, 841.8623
245.3819, 833.3665
245.8641, 835.3744
246.3462, 838.4084
246.8283, 837.6663
247.3104, 829.7477
247.7925, 826.4979
248.2746, 830.5583
248.7568, 838.8309
249.2389, 842.1446
249.7210, 837.5493
250.2031, 832.4622
250.6852, 831.4199
251.1674, 839.4008
251.6495, 838.5826
252.1316, 822.6929
252.6137, 798.6733
253.0958, 789.7992
253.5779, 803.7648
254.0601, 820.9872
254.5422, 831.3874
255.0243, 833.0596
255.5064, 832.4303
255.9885, 827.7783
256.4706, 821.3190
256.9528, 821.6036
257.4349, 834.1494
257.9170, 844.3192
258.3991, 842.9167
258.8812, 823.9116
259.3633, 810.1383
259.8455, 803.4411
260.3276, 802.6112
260.8097, 804.4845
261.2918, 811.8622
261.7739, 816.8497
262.2560, 813.7258
262.7382, 798.1580
263.2203, 787.6555
263.7024, 784.4258
264.1845, 786.6028
264.6666, 788.0958
265.1487, 789.5215
265.6309, 788.9545
266.1130, 784.4671
266.5951, 774.2495
267.0772, 766.6768
267.5593, 763.3387
268.0414, 762.6351
268.5236, 758.6873
269.0057, 749.7733
269.4878, 741.6891
269.9699, 737.8085
270.4520, 738.6056
270.9341, 742.5468
271.4163, 752.3743
271.8984, 763.8793
272.3805, 762.3030
272.8626, 743.7521
273.3447, 723.5311
273.8268, 710.5983
274.3090, 705.5701
274.7911, 703.7106
275.2732, 704.7059
275.7553, 708.6183
276.2374, 717.3788
276.7195, 733.0093
277.2017, 745.9388
277.6838, 748.6392
278.1659, 740.0971
278.6480, 733.6725
279.1301, 730.0925
279.6122, 729.7214
280.0944, 736.1713
280.5765, 751.4046
281.0586, 762.0604
281.5407, 755.0235
282.0228, 730.0666
282.5049, 718.9440
282.9871, 728.8516
283.4692, 748.3295
283.9513, 750.5833
284.4334, 734.0634
284.9155, 718.4397
285.3976, 716.9879
285.8798, 728.6199
286.3619, 738.9031
286.8440, 746.7470
287.3261, 752.4816
287.8082, 756.7760
288.2903, 759.6295
288.7725, 761.1009
289.2546, 759.9908
289.7367, 757.0355
290.2188, 756.9024
290.7009, 760.6887
291.1830, 765.8047
291.6652, 768.6980
292.1473, 769.3662
292.6294, 767.4621
293.1115, 759.9315
293.5936, 749.2415
294.0757, 745.1096
294.5579, 749.7759
295.0400, 756.5800
295.5221, 754.8856
296.0042, 746.1532
296.4863, 739.1481
296.9684, 737.2379
297.4506, 740.5090
297.9327, 751.0356
298.4148, 770.4993
298.8969, 790.6149
299.3790, 800.7624
299.8611, 802.7986
300.3433, 802.6596
300.8254, 802.0220
301.3075, 801.5206
301.7896, 802.8946
302.2717, 806.6532
302.7538, 809.5884
303.2360, 804.1867
303.7181, 795.0833
304.2002, 793.5066
304.6823, 812.6076
305.1644, 838.6307
305.6465, 854.3588
306.1287, 858.5599
306.6108, 859.6257
307.0929, 863.4843
307.5750, 869.1711
308.0571, 875.0802
308.5392, 881.7983
309.0214, 887.5526
309.5035, 891.1107
309.9856, 892.3987
310.4677, 891.1945
310.9498, 883.1855
311.4319, 873.5428
311.9141, 869.2705
312.3962, 877.4525
312.8783, 888.4507
313.3604, 896.6498
313.8426, 901.9454
314.3247, 905.7666
314.8068, 911.2872
315.2889, 914.7372
315.7710, 912.2673
316.2531, 894.7451
316.7353, 878.0552
317.2174, 870.8931
317.6995, 872.3649
318.1816, 872.6718
318.6637, 868.5254
319.1458, 861.3489
319.6280, 852.2855
320.1101, 842.9578
320.5922, 830.4217
321.0743, 809.8564
321.5564, 783.5431
322.0385, 764.2037
322.5207, 758.9743
323.0028, 759.2966
323.4849, 760.0208
323.9670, 764.2200
324.4491, 764.1179
324.9312, 756.3373
325.4134, 742.7803
325.8955, 730.6046
326.3776, 720.7145
326.8597, 712.3495
327.3418, 705.0357
327.8239, 696.7289
328.3061, 692.4767
328.7882, 693.4288
329.2703, 698.4990
329.7524, 705.1152
330.2345, 718.4880
330.7166, 728.2844
331.1988, 729.8480
331.6809, 717.4941
332.1630, 710.0971
332.6451, 710.4802
333.1272, 714.8079
333.6093, 715.3497
334.0915, 707.1399
334.5736, 703.0179
335.0557, 709.2595
335.5378, 729.9556
336.0199, 740.3737
336.5020, 734.6960
336.9842, 724.4520
337.4663, 727.6905
337.9484, 751.4713
338.4305, 769.3271
338.9126, 771.6329
339.3947, 758.2327
339.8769, 750.9146
340.3590, 750.1831
340.8411, 754.3665
341.3232, 764.3568
341.8053, 781.6770
342.2874, 791.8163
342.7696, 787.8985
343.2517, 773.6008
343.7338, 770.0339
344.2159, 778.8354
344.6980, 789.3325
345.1801, 789.9733
345.6623, 781.6846
346.1444, 778.8104
346.6265, 786.3519
347.1086, 799.3456
347.5907, 806.9503
348.0728, 809.0560
348.5550, 807.9781
349.0371, 802.9963
349.5192, 795.8561
350.0013, 792.5294
350.4834, 794.9584
350.9655, 799.8179
351.4477, 800.5885
351.9298, 798.6614
352.4119, 800.9565
352.8940, 820.1190
353.3761, 844.1025
353.8582, 850.8400
354.3404, 834.4936
354.8225, 812.9555
355.3046, 802.5419
355.7867, 800.1795
356.2688, 798.4870
356.7509, 789.4999
357.2331, 781.9686
357.7152, 787.4261
358.1973, 808.3600
358.6794, 825.2522
359.1615, 822.0144
359.6436, 807.7678
360.1258, 795.2728
360.6079, 791.0206
361.0900, 788.5298
361.5721, 783.3237
362.0542, 775.3793
362.5363, 770.7830
363.0185, 776.5972
363.5006, 784.7811
363.9827, 788.0658
364.4648, 779.5575
364.9469, 771.2290
365.4290, 766.5361
365.9112, 765.0794
366.3933, 763.4290
366.8754, 759.9533
367.3575, 756.7571
367.8396, 755.0409
368.3217, 753.0742
368.8039, 754.8239
369.2860, 765.8010
369.7681, 781.2391
370.2502, 786.9599
370.7323, 774.0449
371.2144, 760.2982
371.6966, 752.7737
372.1787, 754.9393
372.6608, 754.6964
373.1429, 751.3184
373.6250, 745.9281
374.1071, 739.9576
374.5893, 732.2661
375.0714, 726.3687
375.5535, 724.3885
376.0356, 726.8294
376.5177, 725.2063
376.9998, 718.3060
377.4820, 709.4346
377.9641, 702.1224
378.4462, 696.3096
378.9283, 692.3477
379.4104, 691.2839
379.8925, 692.0885
380.3747, 689.0226
380.8568, 681.2988
381.3389, 674.4304
381.8210, 676.5205
382.3031, 685.6653
382.7852, 684.6387
383.2674, 666.3884
383.7495, 641.8939
384.2316, 632.6123
384.7137, 637.3903
385.1958, 646.6245
385.6779, 657.5065
386.1601, 668.0002
386.6422, 672.9859
387.1243, 671.1349
387.6064, 666.5231
388.0885, 662.5676
388.5706, 659.1706
389.0528, 656.1838
389.5349, 651.4675
390.0170, 648.3081
390.4991, 652.4291
390.9812, 664.8170
391.4633, 673.1738
391.9455, 664.0091
392.4276, 647.6949
392.9097, 637.4081
393.3918, 643.1135
393.8739, 651.1860
394.3561, 655.7310
394.8382, 656.9180
395.3203, 657.5106
395.8024, 658.4160
396.2845, 659.1318
396.7667, 659.1917
397.2488, 654.5928
397.7309, 654.2532
398.2130, 664.6844
398.6951, 681.3589
399.1772, 690.0236
399.6594, 679.4310
400.1415, 668.9099
400.6236, 666.0283
401.1057, 675.4851
401.5878, 681.3388
402.0699, 681.2401
402.5521, 678.6828
403.0342, 678.9702
403.5163, 684.0469
403.9984, 688.4982
404.4805, 690.7582
404.9626, 690.7669
405.4448, 691.1359
405.9269, 691.6998
406.4090, 692.9277
406.8911, 695.3733
407.3732, 699.1724
407.8553, 703.8734
408.3375, 710.9162
408.8196, 717.9130
409.3017, 715.6174
409.7838, 703.2515
410.2659, 690.3081
410.7480, 683.1003
411.2302, 680.9794
411.7123, 681.7023
412.1944, 685.8989
412.6765, 690.3529
413.1586, 690.8444
413.6407, 687.7875
414.1229, 683.0669
414.6050, 678.2466
415.0871, 672.0234
415.5692, 659.9846
416.0513, 641.3655
416.5334, 627.4635
417.0156, 631.9766
417.4977, 645.8146
417.9798, 655.3038
418.4619, 653.3809
418.9440, 647.4803
419.4261, 641.0544
419.9083, 634.3416
420.3904, 628.0356
420.8725, 622.9001
421.3546, 618.0767
421.8367, 613.1005
422.3188, 608.1492
422.8010, 602.4899
423.2831, 594.6281
423.7652, 585.9827
424.2473, 579.3763
424.7294, 573.8315
425.2115, 571.5716
425.6937, 574.4148
426.1758, 584.4412
426.6579, 591.4293
427.1400, 595.6865
427.6221, 596.7321
428.1042, 593.3540
428.5864, 581.4271
429.0685, 573.5207
429.5506, 573.0458
430.0327, 578.8694
430.5148, 582.8480
430.9969, 584.8287
431.4791, 585.2444
431.9612, 584.1017
432.4433, 581.3293
432.9254, 577.9579
433.4075, 573.4332
433.8896, 569.4611
434.3718, 571.3889
434.8539, 578.9435
435.3360, 582.5508
435.8181, 572.4747
436.3002, 554.9964
436.7823, 548.9838
437.2645, 555.5865
437.7466, 564.9796
438.2287, 568.7894
438.7108, 568.1350
439.1929, 565.2722
439.6750, 558.9612
440.1572, 552.7805
440.6393, 551.7578
441.1214, 554.6470
441.6035, 555.2968
442.0856, 546.9233
442.5677, 536.6161
443.0499, 530.4698
443.5320, 531.0010
444.0141, 532.4576
444.4962, 532.1244
444.9783, 531.3120
445.4604, 532.2152
445.9426, 538.7405
446.4247, 543.9449
446.9068, 545.8177
447.3889, 544.1686
447.8710, 539.5276
448.3531, 525.6636
448.8353, 512.8734
449.3174, 509.2293
449.7995, 522.7504
450.2816, 531.8441
450.7637, 532.6019
451.2458, 527.4603
451.7280, 526.2875
452.2101, 530.9086
452.6922, 535.1327
453.1743, 534.6994
453.6564, 528.7312
454.1385, 528.4108
454.6207, 536.0944
455.1028, 544.4612
455.5849, 540.4880
456.0670, 525.1160
456.5491, 514.5921
457.0313, 516.9271
457.5134, 526.9813
457.9955, 532.9641
458.4776, 535.0092
458.9597, 535.3641
459.4418, 533.3126
459.9240, 531.3276
460.4061, 534.4184
460.8882, 545.5090
461.3703, 557.3309
461.8524, 563.6486
462.3345, 565.8338
462.8167, 566.9146
463.2988, 569.0438
463.7809, 569.9882
464.2630, 567.0766
464.7451, 559.5842
465.2272, 554.8067
465.7094, 557.0692
466.1915, 562.3398
466.6736, 567.0311
467.1557, 568.9431
467.6378, 571.9666
468.1199, 578.3621
468.6021, 586.8795
469.0842, 591.3323
469.5663, 586.5472
470.0484, 583.7834
470.5305, 589.6024
471.0126, 609.9655
471.4948, 617.3673
471.9769, 606.3083
472.4590, 589.2401
472.9411, 584.5295
473.4232, 594.3251
473.9053, 602.4504
474.3875, 603.3118
474.8696, 599.2474
475.3517, 600.6618
475.8338, 607.8958
476.3159, 614.2637
476.7981, 611.5142
477.2802, 603.4974
477.7623, 603.1358
478.2444, 614.0751
478.7265, 627.4945
479.2086, 635.7170
479.6908, 638.5150
480.1729, 635.1382
480.6550, 617.4388
481.1371, 598.6841
481.6192, 591.7968
482.1013, 596.6971
482.5835, 601.2004
483.0656, 600.2289
483.5477, 595.5977
484.0298, 588.5228
484.5119, 574.2261
484.9940, 564.2927
485.4762, 562.6238
485.9583, 567.1082
486.4404, 572.3077
486.9225, 579.5641
487.4046, 585.7003
487.8867, 590.3694
488.3689, 593.9839
488.8510, 592.9097
489.3331, 583.4545
489.8152, 573.7392
490.2973, 572.8535
490.7794, 583.5139
491.2616, 591.0886
491.7437, 592.2090
492.2258, 589.6382
492.7079, 591.1971
493.1900, 597.0436
493.6721, 603.5990
494.1543, 610.4041
494.6364, 616.3582
495.1185, 616.0090
495.6006, 608.3830
496.0827, 600.7934
496.5648, 601.4099
497.0470, 607.5151
497.5291, 613.4236
498.0112, 615.7898
498.4933, 618.7697
498.9754, 625.8915
499.4576, 636.6405
499.9397, 648.7263
500.4218, 664.0829
500.9039, 678.3708
501.3860, 688.9280
501.8681, 694.7498
502.3503, 698.6613
502.8324, 701.2258
503.3145, 702.2431
503.7966, 701.4084
504.2787, 694.6420
504.7608, 691.0464
505.2430, 692.4572
505.7251, 698.2927
506.2072, 704.9339
506.6893, 712.8003
507.1714, 720.6728
507.6535, 727.7432
508.1357, 733.7666
508.6178, 741.4090
509.0999, 751.7112
509.5820, 761.2691
510.0641, 763.3120
510.5462, 758.6721
511.0284, 757.9826
511.5105, 767.5217
511.9926, 780.9488
512.4747, 785.4236
512.9568, 781.7963
513.4389, 777.1919
513.9210, 775.5918
514.4031, 776.2424
514.8853, 779.3032
515.3674, 786.0305
515.8495, 789.8984
516.3316, 782.8118
516.8137, 771.5132
517.2958, 765.3271
517.7780, 772.4004
518.2601, 779.8614
518.7422, 782.3309
519.2244, 780.4777
519.7065, 781.6722
520.1886, 790.0039
520.6707, 798.6721
521.1528, 803.8965
521.6349, 801.3109
522.1171, 807.2969
522.5992, 826.2982
523.0813, 849.4422
523.5634, 865.6331
524.0455, 874.3434
524.5276, 878.4305
525.0098, 876.6214
525.4919, 871.5535
525.9740, 872.1285
526.4561, 878.4727
526.9382, 887.5304
527.4203, 898.7240
527.9025, 911.0737
528.3846, 920.9586
528.8667, 927.3497
529.3488, 936.1888
529.8309, 954.8901
530.3130, 979.3199
530.7952, 1003.071
531.2773, 1021.812
531.7594, 1040.659
532.2415, 1064.084
532.7236, 1090.563
533.2057, 1112.493
533.6879, 1122.369
534.1700, 1131.482
534.6521, 1145.853
535.1342, 1168.424
535.6163, 1189.168
536.0984, 1206.499
536.5806, 1222.764
537.0627, 1240.201
537.5448, 1259.702
538.0269, 1279.366
538.5090, 1301.181
538.9911, 1321.887
539.4733, 1326.067
539.9554, 1311.003
540.4375, 1299.568
540.9196, 1308.358
541.4017, 1332.349
541.8839, 1349.392
542.3660, 1359.261
542.8481, 1360.290
543.3302, 1346.255
543.8123, 1322.895
544.2944, 1301.661
544.7766, 1287.302
545.2587, 1273.538
545.7408, 1253.553
546.2229, 1230.439
546.7050, 1211.352
547.1871, 1203.714
547.6693, 1196.944
548.1514, 1186.850
548.6335, 1173.170
549.1156, 1155.411
549.5977, 1127.430
550.0798, 1099.362
550.5620, 1078.146
551.0441, 1064.558
551.5262, 1056.615
552.0083, 1057.270
552.4904, 1061.343
552.9725, 1058.778
553.4547, 1048.940
553.9368, 1035.366
554.4189, 1017.005
554.9010, 996.2753
555.3831, 983.2896
555.8652, 978.1191
556.3474, 977.0590
556.8295, 980.2469
557.3116, 984.9660
557.7937, 985.3522
558.2758, 980.1376
558.7579, 972.5881
559.2401, 963.6665
559.7222, 954.6617
560.2043, 947.6343
560.6864, 945.4270
561.1685, 943.3412
561.6506, 939.2574
562.1328, 933.5027
562.6149, 927.8654
563.0970, 920.3209
563.5791, 915.1357
564.0612, 914.9768
564.5433, 922.5153
565.0255, 924.5990
565.5076, 919.1221
565.9897, 910.6701
566.4718, 903.7976
566.9539, 898.9265
567.4360, 893.0757
567.9182, 885.1885
568.4003, 876.9169
568.8824, 870.2927
569.3645, 865.6744
569.8466, 866.8436
570.3287, 883.0076
570.8109, 903.5833
571.2930, 907.6992
571.7751, 895.8561
572.2572, 884.5040
572.7393, 888.6119
573.2214, 897.2576
573.7036, 898.1672
574.1857, 883.9569
574.6678, 873.1934
575.1499, 879.2516
575.6320, 891.2226
576.1141, 893.1774
576.5963, 869.7274
577.0784, 850.7122
577.5605, 843.7653
578.0426, 846.6345
578.5247, 844.0478
579.0068, 833.9888
579.4890, 822.6389
579.9711, 812.0170
580.4532, 801.9899
580.9353, 796.8649
581.4174, 797.2471
581.8995, 800.0288
582.3817, 803.6453
582.8638, 807.1154
583.3459, 807.2690
583.8280, 804.4901
584.3101, 795.9321
584.7922, 770.1852
585.2744, 735.5739
585.7565, 712.8480
586.2386, 724.4480
586.7207, 740.4370
587.2028, 743.1925
587.6849, 732.3101
588.1671, 719.6982
588.6492, 706.9706
589.1313, 694.5480
589.6134, 682.3938
590.0955, 667.8090
590.5776, 659.8175
591.0598, 663.3192
591.5419, 669.0137
592.0240, 662.2986
592.5061, 639.1984
592.9882, 624.1694
593.4703, 624.7020
593.9525, 634.6390
594.4346, 639.7051
594.9167, 640.1503
595.3988, 639.4942
595.8809, 641.7353
596.3630, 643.4275
596.8452, 636.9850
597.3273, 622.4109
597.8094, 609.0181
598.2915, 604.9896
598.7736, 604.2462
599.2557, 600.2643
599.7379, 587.9783
600.2200, 580.0399
600.7021, 587.2350
601.1842, 599.2311
601.6663, 599.0697
602.1484, 571.0230
602.6306, 551.8496
603.1127, 550.3943
603.5948, 562.9260
604.0769, 570.0762
604.5590, 569.5518
605.0411, 571.0730
605.5233, 583.3990
606.0054, 604.3182
606.4875, 611.5025
606.9696, 603.9609
607.4517, 591.9957
607.9338, 582.9102
608.4160, 576.9391
608.8981, 575.7654
609.3802, 581.6516
609.8623, 587.0004
610.3444, 583.8610
610.8265, 576.7205
611.3087, 573.0439
611.7908, 581.6593
612.2729, 587.8827
612.7550, 584.8945
613.2371, 574.0414
613.7192, 565.5480
614.2014, 558.5613
614.6835, 555.6055
615.1656, 559.4221
615.6477, 571.3781
616.1298, 576.3002
616.6119, 572.4662
617.0941, 565.9526
617.5762, 561.1526
618.0583, 558.2260
618.5404, 559.6614
619.0225, 566.9539
619.5046, 575.2228
619.9868, 579.9593
620.4689, 580.8998
620.9510, 577.6389
621.4331, 563.5564
621.9152, 550.8748
622.3973, 549.0404
622.8795, 555.8446
623.3616, 561.9388
623.8437, 564.7532
624.3258, 565.7249
624.8079, 564.4055
625.2900, 559.8843
625.7722, 559.5631
626.2543, 565.7576
626.7364, 573.2742
627.2185, 578.8282
627.7006, 582.6678
628.1827, 582.0320
628.6649, 575.3000
629.1470, 567.5248
629.6291, 567.4986
630.1112, 573.5748
630.5933, 576.9216
631.0754, 572.1265
631.5576, 566.2950
632.0397, 567.5805
632.5218, 575.0657
633.0039, 585.9909
633.4860, 607.1024
633.9681, 624.3223
634.4503, 627.4429
634.9324, 615.6326
635.4145, 604.4467
635.8966, 598.6589
636.3787, 592.9853
636.8608, 583.2812
637.3430, 563.6011
637.8251, 557.8710
638.3072, 571.6243
638.7893, 590.9705
639.2714, 597.8326
639.7535, 592.0394
640.2357, 589.2206
640.7178, 593.5087
641.1999, 600.3060
641.6820, 600.7277
642.1641, 596.9952
642.6462, 596.9688
643.1284, 612.0588
643.6105, 626.6854
644.0926, 623.2493
644.5747, 605.2148
645.0568, 594.8362
645.5389, 608.4621
646.0211, 625.6946
646.5032, 636.0690
646.9853, 636.9778
647.4674, 637.0236
647.9495, 635.6768
648.4316, 634.0701
648.9138, 633.4100
649.3959, 634.1470
649.8780, 632.1566
650.3601, 625.3126
650.8422, 619.6761
651.3243, 629.5629
651.8065, 650.7352
652.2886, 660.7586
652.7707, 646.1446
653.2528, 624.7002
653.7349, 613.9639
654.2170, 612.7593
654.6992, 617.9825
655.1813, 634.5189
655.6634, 651.4719
656.1455, 664.1644
656.6276, 672.2997
657.1097, 675.2602
657.5919, 662.6865
658.0740, 654.9587
658.5561, 665.4228
659.0382, 702.8064
659.5203, 716.9986
660.0024, 701.2485
660.4846, 678.4980
660.9667, 673.3034
661.4488, 683.9365
661.9309, 696.4413
662.4130, 709.8786
662.8951, 720.2148
663.3773, 718.5212
663.8594, 710.0312
664.3415, 705.8447
664.8236, 715.1086
665.3057, 725.6267
665.7878, 728.1599
666.2700, 726.0255
666.7521, 730.5464
667.2342, 749.6310
667.7163, 770.6312
668.1984, 790.5878
668.6805, 809.3368
669.1627, 823.8333
669.6448, 832.5753
670.1269, 840.4818
670.6090, 851.6610
671.0911, 865.8064
671.5732, 874.7477
672.0554, 877.5718
672.5375, 880.2723
673.0196, 889.5909
673.5017, 902.9034
673.9838, 914.9565
674.4659, 923.4902
674.9481, 933.1888
675.4302, 947.3094
675.9123, 964.4780
676.3944, 982.8971
676.8765, 1010.962
677.3586, 1029.867
677.8408, 1031.335
678.3229, 1021.359
678.8050, 1016.035
679.2871, 1015.749
679.7692, 1019.699
680.2513, 1031.020
680.7335, 1046.298
681.2156, 1046.840
681.6977, 1032.513
682.1799, 1011.611
682.6620, 982.7285
683.1441, 953.6655
683.6262, 939.9385
684.1083, 942.7815
684.5905, 944.7589
685.0726, 937.4655
685.5547, 922.6555
686.0368, 900.8535
686.5189, 867.5803
687.0010, 837.5468
687.4832, 811.8447
687.9653, 790.9729
688.4474, 776.8593
688.9295, 772.7516
689.4116, 765.6924
689.8937, 752.9005
690.3759, 738.1137
690.8580, 730.4818
691.3401, 729.0625
691.8222, 722.2913
692.3043, 700.5226
692.7864, 676.4070
693.2686, 670.4040
693.7507, 678.1431
694.2328, 683.7939
694.7149, 674.8990
695.1970, 665.5609
695.6791, 665.8045
696.1613, 675.8788
696.6434, 680.8769
697.1255, 672.8727
697.6076, 665.3956
698.0897, 665.5464
698.5718, 675.3853
699.0540, 678.2859
699.5361, 673.1033
700.0182, 664.4542
700.5003, 654.7915
700.9824, 644.9186
701.4645, 638.4871
701.9467, 635.9005
702.4288, 637.3668
702.9109, 648.6152
703.3930, 662.5069
703.8751, 668.0570
704.3572, 656.7687
704.8394, 644.3517
705.3215, 635.5753
705.8036, 629.8226
706.2857, 626.0109
706.7678, 625.0308
707.2499, 624.3015
707.7321, 623.9393
708.2142, 623.3572
708.6963, 619.0604
709.1784, 610.1917
709.6605, 605.9243
710.1426, 613.5859
710.6248, 627.3479
711.1069, 632.7235
711.5890, 630.7379
712.0711, 628.1572
712.5532, 629.8453
713.0353, 632.4489
713.5175, 632.7300
713.9996, 630.2894
714.4817, 629.1436
714.9638, 629.7322
715.4459, 632.5693
715.9280, 638.0958
716.4102, 647.2880
716.8923, 656.8764
717.3744, 669.2659
717.8565, 677.6688
718.3386, 672.3557
718.8207, 654.9613
719.3029, 643.1624
719.7850, 640.3180
720.2671, 640.3416
720.7492, 635.1149
721.2313, 628.0322
721.7134, 625.4068
722.1956, 631.9474
722.6777, 639.3565
723.1598, 645.7276
723.6419, 650.0865
724.1240, 650.4694
724.6061, 640.6695
725.0883, 634.9950
725.5704, 637.2570
726.0525, 644.8501
726.5346, 649.8897
727.0167, 652.5410
727.4988, 651.1993
727.9810, 643.4070
728.4631, 632.0463
728.9452, 623.1352
729.4273, 616.7253
729.9094, 613.1469
730.3915, 613.0618
730.8737, 615.5474
731.3558, 622.3804
731.8379, 633.5059
732.3200, 638.1763
732.8021, 626.7419
733.2842, 613.6599
733.7664, 606.1317
734.2485, 604.8777
734.7306, 605.4450
735.2127, 608.2117
735.6948, 611.9092
736.1769, 616.5778
736.6591, 621.6746
737.1412, 621.6856
737.6233, 615.1663
738.1054, 610.4576
738.5875, 620.2646
739.0696, 635.5606
739.5518, 642.8307
740.0339, 634.9294
740.5160, 626.7057
740.9981, 622.5856
741.4802, 621.8478
741.9623, 623.8731
742.4445, 632.0322
742.9266, 636.2307
743.4087, 633.8342
743.8908, 628.4716
744.3729, 629.1738
744.8550, 635.9868
745.3372, 635.0901
745.8193, 616.1062
746.3014, 595.9137
746.7835, 607.3775
747.2656, 640.1945
747.7477, 664.0818
748.2299, 653.5187
748.7120, 639.9665
749.1941, 643.3699
749.6762, 659.9386
750.1583, 667.0715
750.6404, 653.1746
751.1226, 641.0833
751.6047, 638.0247
752.0868, 643.2180
752.5689, 649.1229
753.0510, 656.1890
753.5331, 660.3413
754.0153, 655.4385
754.4974, 646.5037
754.9795, 647.3976
755.4616, 657.7297
755.9437, 666.1303
756.4258, 663.5937
756.9080, 657.0572
757.3901, 651.0726
757.8722, 645.6809
758.3543, 643.7458
758.8364, 652.5481
759.3185, 658.8498
759.8007, 653.5577
760.2828, 632.9100
760.7649, 617.6914
761.2470, 608.3911
761.7291, 602.4711
762.2112, 596.7781
762.6934, 592.1898
763.1755, 592.1650
763.6576, 597.7681
764.1397, 605.1437
764.6218, 612.0004
765.1039, 618.6149
765.5861, 625.6608
766.0682, 637.2941
766.5503, 642.8179
767.0324, 637.3902
767.5145, 626.6160
767.9966, 615.4310
768.4788, 602.0385
768.9609, 596.3141
769.4430, 601.8975
769.9251, 611.6539
770.4072, 612.7231
770.8893, 607.1902
771.3715, 604.3164
771.8536, 610.1094
772.3357, 615.0042
772.8178, 606.5891
773.2999, 591.7583
773.7820, 584.1467
774.2642, 600.4774
774.7463, 609.8564
775.2284, 599.6838
775.7105, 578.3237
776.1926, 567.4904
776.6747, 568.7720
777.1569, 575.4102
777.6390, 588.1740
778.1211, 602.6224
778.6032, 605.9274
779.0853, 599.5898
779.5674, 592.3379
780.0496, 588.4036
780.5317, 585.9191
781.0138, 583.8032
781.4959, 581.8572
781.9780, 579.2913
782.4601, 572.4933
782.9423, 568.7239
783.4244, 572.0214
783.9065, 581.4226
784.3886, 584.7780
784.8707, 580.2342
785.3528, 576.7083
785.8350, 582.1573
786.3171, 592.1984
786.7992, 587.9972
787.2813, 571.0421
787.7634, 558.7986
788.2455, 568.4128
788.7277, 583.7511
789.2098, 591.2329
789.6919, 589.7422
790.1740, 586.6858
790.6561, 582.2673
791.1382, 578.0880
791.6204, 573.8220
792.1025, 568.9501
792.5846, 572.8120
793.0667, 587.7506
793.5488, 601.0436
794.0309, 600.3463
794.5131, 590.2947
794.9952, 582.3646
795.4773, 577.2245
795.9594, 575.8248
796.4415, 580.4055
796.9236, 587.9796
797.4058, 596.7289
797.8879, 607.7081
798.3700, 614.9757
798.8521, 616.7542
799.3342, 616.1921
799.8163, 615.1194
800.2985, 613.4590
800.7806, 612.4952
801.2627, 612.7722
801.7448, 611.1024
802.2269, 600.6309
802.7090, 586.7448
803.1912, 581.0607
803.6733, 586.5151
804.1554, 593.1080
804.6375, 595.0526
805.1196, 595.1069
805.6017, 595.9302
806.0839, 600.0925
806.5660, 600.3797
807.0481, 594.5448
807.5302, 587.6298
808.0123, 585.8241
808.4944, 589.1317
808.9766, 587.4022
809.4587, 578.6108
809.9408, 569.2563
810.4229, 564.2829
810.9050, 564.1092
811.3871, 571.2747
811.8693, 591.5839
812.3514, 604.9192
812.8335, 595.5316
813.3156, 578.5872
813.7977, 571.4724
814.2798, 581.0712
814.7620, 585.6755
815.2441, 583.2912
815.7262, 577.6328
816.2083, 571.6165
816.6904, 565.9647
817.1725, 566.7755
817.6547, 577.2836
818.1368, 586.6561
818.6189, 582.4213
819.1010, 571.4730
819.5831, 562.7548
820.0652, 556.4909
820.5474, 556.3478
821.0295, 568.6776
821.5116, 584.2083
821.9937, 592.9738
822.4758, 593.4667
822.9579, 594.3743
823.4401, 597.6575
823.9222, 599.1051
824.4043, 588.8777
824.8864, 571.9954
825.3685, 562.3147
825.8506, 565.3770
826.3328, 571.8155
826.8149, 575.7638
827.2970, 579.2481
827.7791, 584.7683
828.2612, 599.8220
828.7433, 606.5706
829.2255, 601.0848
829.7076, 590.7084
830.1897, 585.8253
830.6718, 586.4596
831.1539, 584.6041
831.6360, 577.6001
832.1182, 571.7532
832.6003, 577.6531
833.0824, 589.2130
833.5645, 595.8036
834.0466, 589.1676
834.5287, 586.0884
835.0109, 598.2388
835.4930, 614.5443
835.9751, 619.4773
836.4572, 606.8156
836.9393, 600.3361
837.4214, 603.1458
837.9036, 611.1326
838.3857, 622.1080
838.8678, 633.9044
839.3499, 635.3137
839.8320, 619.3281
840.3141, 606.1220
840.7963, 620.5085
841.2784, 643.8575
841.7605, 652.7094
842.2426, 622.3128
842.7247, 605.4040
843.2068, 612.3652
843.6890, 627.2154
844.1711, 628.7413
844.6532, 615.8463
845.1353, 613.7787
845.6174, 628.3766
846.0995, 644.6396
846.5817, 643.9467
847.0638, 632.5420
847.5460, 620.0773
848.0281, 605.4045
848.5102, 598.8839
848.9923, 617.1714
849.4744, 638.7732
849.9565, 639.6266
850.4387, 606.2299
850.9208, 586.8395
851.4029, 586.4542
851.8850, 593.1613
852.3671, 592.4382
852.8492, 586.8219
853.3314, 587.1484
853.8135, 596.4205
854.2956, 604.4497
854.7777, 600.0021
855.2598, 591.9371
855.7419, 589.4500
856.2241, 596.5952
856.7062, 604.4561
857.1883, 614.6462
857.6704, 622.8336
858.1525, 623.7340
858.6346, 617.0338
859.1168, 615.7319
859.5989, 620.9628
860.0810, 628.5456
860.5631, 637.8666
861.0452, 645.4160
861.5273, 645.6473
862.0095, 636.9003
862.4916, 625.9612
862.9737, 605.9197
863.4558, 592.5787
863.9379, 598.6223
864.4200, 630.3389
864.9022, 649.6544
865.3843, 655.1205
865.8664, 654.2118
866.3485, 649.3044
866.8306, 643.5457
867.3127, 647.2881
867.7949, 661.0104
868.2770, 671.0028
868.7591, 663.6178
869.2412, 653.2987
869.7233, 650.4731
870.2054, 657.4354
870.6876, 663.8412
871.1697, 670.2625
871.6518, 674.9196
872.1339, 674.5963
872.6160, 670.9022
873.0981, 678.4754
873.5803, 696.6738
874.0624, 709.7397
874.5445, 699.6571
875.0266, 685.1448
875.5087, 683.9307
875.9908, 695.7792
876.4730, 705.9045
876.9551, 710.5645
877.4372, 713.1153
877.9193, 712.9825
878.4014, 711.3463
878.8835, 717.9377
879.3657, 732.9899
879.8478, 745.0078
880.3299, 744.6255
880.8120, 739.7061
881.2941, 742.8757
881.7762, 751.3305
882.2584, 755.4205
882.7405, 744.0518
883.2226, 735.4994
883.7047, 737.0571
884.1868, 746.0693
884.6689, 756.0859
885.1511, 767.6998
885.6332, 776.8934
886.1153, 780.8812
886.5974, 783.8799
887.0795, 797.7670
887.5616, 817.1125
888.0438, 827.0083
888.5259, 810.4003
889.0080, 795.0323
889.4901, 795.9984
889.9722, 805.7379
890.4543, 809.1825
890.9365, 801.5941
891.4186, 799.7962
891.9007, 808.1371
892.3828, 819.2380
892.8649, 820.0392
893.3470, 813.5262
893.8292, 810.9201
894.3113, 816.7775
894.7934, 821.8271
895.2755, 818.2638
895.7576, 810.8043
896.2397, 804.5076
896.7219, 796.1463
897.2040, 797.6711
897.6861, 814.5792
898.1682, 832.4621
898.6503, 833.8358
899.1324, 821.4639
899.6146, 814.7595
900.0967, 815.9200
900.5788, 819.1895
901.0609, 817.3423
901.5430, 816.8064
902.0251, 827.2463
902.5073, 854.8947
902.9894, 866.0594
903.4715, 847.9724
903.9536, 826.0250
904.4357, 813.9193
904.9178, 811.4130
905.4000, 808.2499
905.8821, 804.4255
906.3642, 804.8726
906.8463, 816.6827
907.3284, 832.1931
907.8105, 845.6222
908.2927, 855.9042
908.7748, 858.6826
909.2569, 842.6943
909.7390, 830.0374
910.2211, 828.5242
910.7032, 835.9109
911.1854, 840.6038
911.6675, 842.4387
912.1496, 847.1165
912.6317, 860.1268
913.1138, 874.1259
913.5959, 879.4255
914.0781, 878.1504
914.5602, 875.4907
915.0423, 871.4202
915.5244, 868.5941
916.0065, 869.9468
916.4886, 871.7439
916.9708, 865.4149
917.4529, 849.7288
917.9350, 839.5743
918.4171, 838.8575
918.8992, 842.1536
919.3813, 847.1426
919.8635, 849.8362
920.3456, 841.6591
920.8277, 811.5441
921.3098, 790.0476
921.7919, 793.3832
922.2740, 804.4789
922.7562, 808.8850
923.2383, 805.1693
923.7204, 802.6654
924.2025, 801.9361
924.6846, 800.9670
925.1667, 797.1826
925.6489, 792.1393
926.1310, 788.0616
926.6131, 785.2083
927.0952, 783.7604
927.5773, 785.7652
928.0594, 787.3619
928.5416, 787.0013
929.0237, 784.6593
929.5058, 777.1319
929.9879, 762.9084
930.4700, 753.8967
930.9521, 762.7106
931.4343, 778.2927
931.9164, 781.4276
932.3985, 774.3215
932.8806, 765.5958
933.3627, 754.7062
933.8448, 747.7581
934.3270, 748.7793
934.8091, 755.0490
935.2912, 759.4453
935.7733, 760.8168
936.2554, 769.5305
936.7375, 791.8428
937.2197, 815.0868
937.7018, 815.9636
938.1839, 804.6292
938.6660, 802.3836
939.1481, 822.2685
939.6302, 840.0646
940.1124, 846.0985
940.5945, 847.7208
941.0766, 851.8762
941.5587, 858.7554
942.0408, 867.4827
942.5229, 877.9875
943.0051, 889.9962
943.4872, 906.6459
943.9693, 923.3126
944.4514, 931.8419
944.9335, 930.9625
945.4156, 929.2032
945.8978, 927.9432
946.3799, 928.6754
946.8620, 932.4667
947.3441, 939.1975
947.8262, 945.3561
948.3083, 950.9506
948.7905, 956.4266
949.2726, 960.2903
949.7547, 965.2962
950.2368, 979.5848
950.7189, 999.0656
951.2010, 1010.361
951.6832, 996.1815
952.1653, 988.2123
952.6474, 999.5402
953.1295, 1019.700
953.6116, 1023.049
954.0938, 1008.648
954.5759, 1006.314
955.0580, 1026.483
955.5401, 1049.997
956.0222, 1051.034
956.5043, 1041.702
956.9865, 1040.764
957.4686, 1059.580
957.9507, 1071.660
958.4328, 1069.203
958.9149, 1062.779
959.3970, 1058.628
959.8792, 1056.657
960.3613, 1066.152
960.8434, 1087.953
961.3255, 1107.903
961.8076, 1111.351
962.2897, 1109.822
962.7719, 1114.381
963.2540, 1125.643
963.7361, 1139.144
964.2182, 1157.094
964.7003, 1172.619
965.1824, 1182.442
965.6646, 1188.385
966.1467, 1194.090
966.6288, 1200.441
967.1109, 1215.780
967.5930, 1253.229
968.0751, 1288.434
968.5573, 1293.302
969.0394, 1284.055
969.5215, 1290.107
970.0036, 1330.656
970.4857, 1359.679
970.9678, 1369.260
971.4500, 1374.785
971.9321, 1399.533
972.4142, 1437.338
972.8963, 1461.360
973.3784, 1466.971
973.8605, 1472.060
974.3427, 1491.714
974.8248, 1513.773
975.3069, 1526.600
975.7890, 1527.822
976.2711, 1538.867
976.7532, 1563.198
977.2354, 1586.476
977.7175, 1600.270
978.1996, 1607.915
978.6817, 1620.614
979.1638, 1635.662
979.6459, 1642.272
980.1281, 1626.334
980.6102, 1610.490
981.0923, 1609.276
981.5744, 1613.241
982.0565, 1600.793
982.5386, 1566.615
983.0208, 1546.374
983.5029, 1549.600
983.9850, 1557.902
984.4671, 1546.776
984.9492, 1525.104
985.4313, 1508.462
985.9135, 1503.281
986.3956, 1490.513
986.8777, 1461.316
987.3598, 1425.159
987.8419, 1382.682
988.3240, 1333.788
988.8062, 1307.518
989.2883, 1304.072
989.7704, 1304.040
990.2525, 1301.303
990.7346, 1290.144
991.2167, 1256.753
991.6989, 1207.920
992.1810, 1173.570
992.6631, 1174.284
993.1452, 1168.181
993.6273, 1146.200
994.1094, 1114.830
994.5916, 1084.377
995.0737, 1055.789
995.5558, 1034.453
996.0379, 1025.897
996.5200, 1011.936
997.0021, 969.3963
997.4843, 920.2905
997.9664, 888.6647
998.4485, 879.4458
998.9306, 876.1988
999.4127, 880.7346
999.8948, 885.6470
1000.377, 887.2795
1000.859, 884.5872
1001.341, 872.8157
1001.823, 853.2542
1002.305, 834.6694
1002.788, 820.1740
1003.270, 808.6443
1003.752, 799.1926
1004.234, 792.2651
1004.716, 789.6142
1005.198, 791.5082
1005.680, 795.7427
1006.162, 803.2676
1006.644, 808.5674
1007.127, 803.3735
1007.609, 791.9718
1008.091, 780.4495
1008.573, 769.9973
1009.055, 759.7896
1009.537, 747.0546
1010.019, 738.0640
1010.501, 740.3630
1010.984, 752.1450
1011.466, 750.8531
1011.948, 737.4286
1012.430, 729.9407
1012.912, 750.7708
1013.394, 772.3499
1013.876, 773.0883
1014.358, 756.9018
1014.841, 745.5803
1015.323, 739.5378
1015.805, 739.3951
1016.287, 747.1809
1016.769, 757.1422
1017.251, 757.8203
1017.733, 753.5878
1018.215, 754.7380
1018.697, 766.3288
1019.180, 775.5304
1019.662, 777.5961
1020.144, 774.6649
1020.626, 765.8630
1021.108, 750.1907
1021.590, 749.6053
1022.072, 764.7379
1022.554, 779.8210
1023.036, 782.4940
1023.519, 780.8422
1024.001, 782.9576
1024.483, 788.1669
1024.965, 793.3062
1025.447, 800.7937
1025.929, 802.9596
1026.411, 797.1580
1026.893, 787.4089
1027.375, 778.6857
1027.858, 771.8834
1028.340, 772.4846
1028.822, 783.5114
1029.304, 791.4724
1029.786, 782.5189
1030.268, 771.0395
1030.750, 769.5196
1031.232, 779.0400
1031.715, 786.4091
1032.197, 792.1232
1032.679, 791.6967
1033.161, 776.2200
1033.643, 757.2272
1034.125, 755.1463
1034.607, 764.1585
1035.089, 767.7063
1035.572, 755.0523
1036.054, 742.8485
1036.536, 731.8605
1037.018, 724.6622
1037.500, 727.1805
1037.982, 737.9420
1038.464, 745.2505
1038.946, 747.4291
1039.428, 748.8771
1039.911, 756.3458
1040.393, 761.8690
1040.875, 755.8741
1041.357, 737.8434
1041.839, 732.7762
1042.321, 745.7009
1042.803, 751.1899
1043.285, 732.7464
1043.767, 706.7293
1044.250, 704.4933
1044.732, 717.9050
1045.214, 729.0132
1045.696, 729.8921
1046.178, 729.7671
1046.660, 730.0673
1047.142, 730.3588
1047.624, 729.0864
1048.107, 726.6218
1048.589, 731.8083
1049.071, 745.1327
1049.553, 754.0579
1050.035, 742.8655
1050.517, 729.0355
1050.999, 726.7665
1051.481, 735.3336
1051.964, 740.3934
1052.446, 741.1744
1052.928, 740.7590
1053.410, 740.3618
1053.892, 738.3786
1054.374, 727.7098
1054.856, 714.6635
1055.338, 712.2698
1055.820, 727.9589
1056.302, 742.7632
1056.785, 753.9429
1057.267, 760.2518
1057.749, 759.7120
1058.231, 752.7861
1058.713, 746.0814
1059.195, 739.5615
1059.677, 732.7531
1060.159, 723.1642
1060.642, 715.3218
1061.124, 713.0241
1061.606, 714.8032
1062.088, 716.5688
1062.570, 718.4484
1063.052, 719.4555
1063.534, 719.4552
1064.016, 718.5734
1064.499, 713.3428
1064.981, 708.8419
1065.463, 715.8196
1065.945, 736.6821
1066.427, 752.1165
1066.909, 754.8068
1067.391, 753.0090
1067.873, 747.0654
1068.355, 739.8005
1068.838, 744.1812
1069.320, 757.9062
1069.802, 768.8027
1070.284, 771.7913
1070.766, 771.2374
1071.248, 767.5842
1071.730, 763.0941
1072.212, 760.2631
1072.694, 758.9701
1073.177, 760.4172
1073.659, 764.9752
1074.141, 769.6990
1074.623, 772.8964
1075.105, 774.5430
1075.587, 773.1358
1076.069, 769.7144
1076.551, 769.7379
1077.034, 780.4103
1077.516, 784.0062
1077.998, 773.9771
1078.480, 761.0086
1078.962, 768.4955
1079.444, 787.9147
1079.926, 788.6859
1080.408, 761.5009
1080.891, 742.9942
1081.373, 765.0609
1081.855, 789.8525
1082.337, 793.8463
1082.819, 779.1209
1083.301, 769.7734
1083.783, 765.7495
1084.265, 762.1149
1084.747, 755.5873
1085.229, 749.9922
1085.712, 749.1388
1086.194, 751.4730
1086.676, 755.0033
1087.158, 763.6489
1087.640, 762.7543
1088.122, 749.5272
1088.604, 735.5809
1089.086, 731.7291
1089.569, 733.8832
1090.051, 734.6207
1090.533, 734.1083
1091.015, 735.5175
1091.497, 746.0288
1091.979, 750.2046
1092.461, 741.8672
1092.943, 728.3170
1093.426, 723.9786
1093.908, 727.0324
1094.390, 728.1303
1094.872, 725.2418
1095.354, 722.1977
1095.836, 721.7273
1096.318, 721.7729
1096.800, 720.6585
1097.282, 718.4995
1097.765, 716.4693
1098.247, 714.2887
1098.729, 718.1249
1099.211, 736.3812
1099.693, 752.8835
1100.175, 744.6600
1100.657, 724.9261
1101.139, 714.8754
1101.622, 724.5231
1102.104, 731.3668
1102.586, 736.2711
1103.068, 735.5320
1103.550, 719.6016
1104.032, 698.5262
1104.514, 694.3789
1104.996, 704.5768
1105.479, 713.9949
1105.961, 717.5226
1106.443, 718.6937
1106.925, 719.1653
1107.407, 717.0524
1107.889, 704.1048
1108.371, 684.6014
1108.853, 685.1984
1109.335, 711.3238
1109.818, 733.0016
1110.300, 729.5156
1110.782, 717.0526
1111.264, 702.2287
1111.746, 686.8477
1112.228, 681.9150
1112.710, 687.6556
1113.192, 694.3802
1113.674, 700.6841
1114.157, 702.1671
1114.639, 687.1416
1115.121, 668.4921
1115.603, 663.0834
1116.085, 677.8806
1116.567, 686.8403
1117.049, 689.1492
1117.531, 688.8501
1118.014, 687.1937
1118.496, 685.4100
1118.978, 686.9489
1119.460, 690.0023
1119.942, 689.9235
1120.424, 684.9603
1120.906, 676.2576
1121.388, 661.9160
1121.870, 647.5487
1122.353, 636.7264
1122.835, 631.1893
1123.317, 640.3193
1123.799, 663.2551
1124.281, 681.5008
1124.763, 681.3021
1125.245, 679.5661
1125.727, 685.0239
1126.209, 691.7001
1126.692, 683.2536
1127.174, 661.6996
1127.656, 645.4309
1128.138, 638.6013
1128.620, 636.6381
1129.102, 640.5450
1129.584, 644.6788
1130.066, 644.4061
1130.549, 640.0256
1131.031, 634.9888
1131.513, 629.1857
1131.995, 623.7472
1132.477, 617.3424
1132.959, 614.7389
1133.441, 626.7765
1133.923, 643.2266
1134.406, 649.2583
1134.888, 640.3970
1135.370, 628.2495
1135.852, 610.6921
1136.334, 598.6434
1136.816, 602.3458
1137.298, 614.4636
1137.780, 628.0740
1138.262, 640.1882
1138.745, 642.2457
1139.227, 618.5895
1139.709, 604.6158
1140.191, 605.3642
1140.673, 611.5734
1141.155, 614.5745
1141.637, 614.6556
1142.119, 612.2073
1142.601, 607.3124
1143.084, 600.8522
1143.566, 585.4916
1144.048, 579.0775
1144.530, 589.9167
1145.012, 608.5117
1145.494, 617.0020
1145.976, 616.7941
1146.458, 613.9169
1146.941, 609.0996
1147.423, 604.9393
1147.905, 603.9281
1148.387, 602.9410
1148.869, 599.5809
1149.351, 594.6805
1149.833, 594.1824
1150.315, 597.5738
1150.797, 596.8035
1151.280, 586.3915
1151.762, 578.1071
1152.244, 584.9738
1152.726, 595.5056
1153.208, 597.5493
1153.690, 589.7590
1154.172, 586.5325
1154.654, 588.0179
1155.136, 590.4106
1155.619, 593.0094
1156.101, 594.0422
1156.583, 590.5415
1157.065, 584.6138
1157.547, 580.2393
1158.029, 578.8649
1158.511, 574.8153
1158.993, 567.0328
1159.476, 561.5211
1159.958, 566.9011
1160.440, 574.9040
1160.922, 574.1053
1161.404, 566.3909
1161.886, 560.3588
1162.368, 557.0932
1162.850, 556.1505
1163.333, 557.8311
1163.815, 560.8657
1164.297, 564.5225
1164.779, 568.2000
1165.261, 571.0889
1165.743, 573.0837
1166.225, 573.4753
1166.707, 571.2028
1167.189, 568.8115
1167.672, 566.9355
1168.154, 565.1545
1168.636, 559.4465
1169.118, 554.0004
1169.600, 562.1355
1170.082, 589.5590
1170.564, 603.9995
1171.046, 582.7846
1171.528, 562.0845
1172.011, 557.4514
1172.493, 561.5605
1172.975, 549.5945
1173.457, 527.6810
1173.939, 516.2889
1174.421, 525.2579
1174.903, 536.3139
1175.385, 546.6495
1175.868, 552.2768
1176.350, 549.4960
1176.832, 539.6246
1177.314, 529.0715
1177.796, 518.6225
1178.278, 513.0029
1178.760, 515.5733
1179.242, 521.6688
1179.724, 531.4851
1180.207, 542.2906
1180.689, 551.8289
1181.171, 560.1729
1181.653, 570.4196
1182.135, 581.6991
1182.617, 581.6830
1183.099, 544.3925
1183.581, 514.1116
1184.063, 523.2034
1184.546, 549.1276
1185.028, 558.1304
1185.510, 549.5980
1185.992, 548.2173
1186.474, 555.8564
1186.956, 561.4412
1187.438, 556.3937
1187.920, 547.0880
1188.403, 533.8845
1188.885, 520.5583
1189.367, 515.6605
1189.849, 519.3165
1190.331, 532.4075
1190.813, 556.5065
1191.295, 575.2676
1191.777, 568.3947
1192.260, 555.6791
1192.742, 553.5955
1193.224, 560.5305
1193.706, 562.7839
1194.188, 560.0063
1194.670, 555.1481
1195.152, 547.8963
1195.634, 542.9271
1196.116, 549.6678
1196.599, 557.4798
1197.081, 552.4208
1197.563, 534.4064
1198.045, 534.4622
1198.527, 555.4543
1199.009, 566.1744
1199.491, 550.6727
1199.973, 532.3026
1200.455, 538.7034
1200.938, 554.7906
1201.420, 563.0591
1201.902, 561.3876
1202.384, 554.2414
1202.866, 540.1691
1203.348, 532.2387
1203.830, 540.6509
1204.312, 552.6453
1204.795, 551.9804
1205.277, 546.3375
1205.759, 548.1434
1206.241, 561.7712
1206.723, 570.9679
1207.205, 576.1400
1207.687, 574.4713
1208.169, 555.4723
1208.651, 536.5995
1209.134, 544.1018
1209.616, 564.4578
1210.098, 569.5634
1210.580, 549.2418
1211.062, 538.0085
1211.544, 537.4152
1212.026, 540.0784
1212.508, 538.5727
1212.990, 538.5644
1213.473, 550.7586
1213.955, 569.2230
1214.437, 576.4088
1214.919, 568.0352
1215.401, 559.2590
1215.883, 550.7849
1216.365, 544.2324
1216.847, 539.8143
1217.330, 538.8232
1217.812, 545.7506
1218.294, 557.7803
1218.776, 561.9499
1219.258, 553.4778
1219.740, 553.4893
1220.222, 566.2281
1220.704, 579.5833
1221.187, 582.2770
1221.669, 578.3475
1222.151, 569.7427
1222.633, 557.8260
1223.115, 549.4457
1223.597, 544.8542
1224.079, 544.3460
1224.561, 548.5140
1225.043, 554.3453
1225.526, 562.4043
1226.008, 567.6703
1226.490, 561.0207
1226.972, 543.1825
1227.454, 539.4784
1227.936, 553.6283
1228.418, 562.1658
1228.900, 558.3209
1229.382, 550.5800
1229.865, 545.3854
1230.347, 543.3109
1230.829, 546.6442
1231.311, 555.3719
1231.793, 558.4692
1232.275, 554.7703
1232.757, 555.3453
1233.239, 565.5926
1233.722, 575.4185
1234.204, 571.3597
1234.686, 562.8683
1235.168, 560.8265
1235.650, 565.9485
1236.132, 566.8469
1236.614, 563.1580
1237.096, 559.7886
1237.578, 558.1389
1238.061, 558.5632
1238.543, 565.2439
1239.025, 571.6199
1239.507, 567.9669
1239.989, 553.7548
1240.471, 552.6556
1240.953, 565.0685
1241.435, 570.5866
1241.917, 555.1202
1242.400, 538.6346
1242.882, 540.0483
1243.364, 547.3379
1243.846, 546.5420
1244.328, 536.8576
1244.810, 535.8092
1245.292, 543.1620
1245.774, 551.1434
1246.257, 556.1494
1246.739, 560.4653
1247.221, 566.2455
1247.703, 571.6641
1248.185, 575.1984
1248.667, 576.8891
1249.149, 575.6801
1249.631, 571.7042
1250.114, 566.0128
1250.596, 555.7599
1251.078, 548.3105
1251.560, 551.6964
1252.042, 556.2789
1252.524, 550.2357
1253.006, 534.6710
1253.488, 534.0317
1253.970, 546.2975
1254.453, 555.5445
1254.935, 548.1748
1255.417, 542.6796
1255.899, 548.2264
1256.381, 556.2726
1256.863, 559.8602
1257.345, 559.1198
1257.827, 550.6979
1258.310, 537.1335
1258.792, 533.1180
1259.274, 558.5887
1259.756, 577.0585
1260.238, 578.9464
1260.720, 572.8122
1261.202, 565.1964
1261.684, 556.9528
1262.167, 549.6768
1262.649, 544.1097
1263.131, 543.4149
1263.613, 555.6763
1264.095, 562.5529
1264.577, 559.2783
1265.059, 554.4799
1265.541, 560.6196
1266.023, 570.7039
1266.505, 565.7265
1266.988, 549.5270
1267.470, 544.2710
1267.952, 569.2012
1268.434, 581.6651
1268.916, 575.1912
1269.398, 562.7304
1269.880, 555.0993
1270.362, 551.7967
1270.845, 553.1808
1271.327, 558.4087
1271.809, 563.4144
1272.291, 565.9283
1272.773, 575.8811
1273.255, 597.1699
1273.737, 611.5602
1274.219, 590.8645
1274.702, 561.5881
1275.184, 551.1308
1275.666, 557.3569
1276.148, 562.9550
1276.630, 566.8708
1277.112, 573.4205
1277.594, 583.4242
1278.076, 592.9428
1278.558, 600.9464
1279.041, 604.8799
1279.523, 602.6116
1280.005, 594.3186
1280.487, 576.6949
1280.969, 549.4261
1281.451, 541.6931
1281.933, 557.7997
1282.415, 574.4910
1282.897, 573.9263
1283.380, 570.8532
1283.862, 575.3447
1284.344, 581.8659
1284.826, 576.1693
1285.308, 561.3028
1285.790, 562.0353
1286.272, 580.7466
1286.754, 591.9272
1287.237, 572.4704
1287.719, 554.3192
1288.201, 547.6540
1288.683, 548.4900
1289.165, 553.9916
1289.647, 560.9225
1290.129, 557.2302
1290.611, 542.5323
1291.094, 535.0374
1291.576, 549.7864
1292.058, 558.6151
1292.540, 554.0671
1293.022, 546.2172
1293.504, 551.9334
1293.986, 562.2922
1294.468, 560.7828
1294.950, 547.2870
1295.432, 539.9015
1295.915, 540.1127
1296.397, 548.4451
1296.879, 567.5505
1297.361, 584.1000
1297.843, 582.0804
1298.325, 570.2762
1298.807, 553.3700
1299.289, 534.4226
1299.772, 528.4153
1300.254, 536.5624
1300.736, 547.6061
1301.218, 560.3570
1301.700, 569.8088
1302.182, 568.8662
1302.664, 565.3994
1303.146, 566.0311
1303.629, 568.2974
1304.111, 564.2077
1304.593, 554.7890
1305.075, 555.5099
1305.557, 568.8499
1306.039, 577.6172
1306.521, 566.3643
1307.003, 553.5125
1307.485, 544.3083
1307.968, 540.2180
1308.450, 546.4794
1308.932, 559.6519
1309.414, 570.9597
1309.896, 579.0469
1310.378, 580.1605
1310.860, 562.7166
1311.342, 554.4822
1311.824, 563.5880
1312.307, 577.5313
1312.789, 578.8331
1313.271, 573.5471
1313.753, 569.9062
1314.235, 568.8734
1314.717, 571.3690
1315.199, 578.6555
1315.681, 585.2150
1316.164, 590.8421
1316.646, 591.5338
1317.128, 577.6143
1317.610, 561.4913
##END=



