##NAMES=Ferrosilite
##RRUFFID=R070386
##IDEAL CHEMISTRY=Fe^2+^_2_Si_2_O_6_
##LOCALITY=Greenland
##OWNER=RRUFF
##SOURCE=Subrata Ghose, collected by Ramberg
##DESCRIPTION=Unconsolidated brown transparent cleavage fragments
##STATUS=The identification of this mineral is confirmed by single-crystal X-ray diffraction and chemical analysis.
##URL=rruff.info/R070386
##MEASURED CHEMISTRY=(Fe^2+^_1.64_Mg_0.32_Al_0.02_Ca_0.02_)_Σ=2_(Si_1.98_Al_0.02_)_Σ=2_O_6_
177.1539, 1772.751
177.6360, 1768.886
178.1181, 1767.067
178.6002, 1750.114
179.0823, 1718.215
179.5645, 1688.389
180.0466, 1674.888
180.5287, 1674.892
181.0108, 1681.551
181.4929, 1700.485
181.9750, 1722.715
182.4572, 1725.824
182.9393, 1707.305
183.4214, 1689.267
183.9035, 1703.007
184.3856, 1741.321
184.8677, 1772.539
185.3499, 1780.043
185.8320, 1768.796
186.3141, 1750.025
186.7962, 1721.820
187.2783, 1693.554
187.7604, 1677.588
188.2426, 1673.700
188.7247, 1676.510
189.2068, 1689.661
189.6889, 1709.400
190.1710, 1713.144
190.6531, 1693.369
191.1353, 1665.668
191.6174, 1665.708
192.0995, 1694.158
192.5816, 1720.460
193.0637, 1715.603
193.5458, 1683.530
194.0280, 1669.271
194.5101, 1684.994
194.9922, 1719.009
195.4743, 1742.214
195.9564, 1755.265
196.4385, 1755.338
196.9207, 1731.552
197.4028, 1683.625
197.8849, 1653.021
198.3670, 1654.179
198.8491, 1678.448
199.3312, 1682.049
199.8134, 1659.692
200.2955, 1634.889
200.7776, 1631.818
201.2597, 1652.478
201.7418, 1675.856
202.2239, 1699.052
202.7061, 1721.379
203.1882, 1733.733
203.6703, 1735.087
204.1524, 1728.589
204.6345, 1714.769
205.1166, 1690.729
205.5988, 1674.055
206.0809, 1672.449
206.5630, 1686.625
207.0451, 1697.477
207.5272, 1703.991
208.0093, 1708.665
208.4915, 1717.885
208.9736, 1736.020
209.4557, 1743.755
209.9378, 1725.576
210.4199, 1672.451
210.9020, 1656.640
211.3842, 1694.292
211.8663, 1754.461
212.3484, 1772.041
212.8305, 1729.623
213.3126, 1689.022
213.7948, 1681.026
214.2769, 1718.132
214.7590, 1738.763
215.2411, 1735.233
215.7232, 1718.029
216.2053, 1714.756
216.6875, 1730.587
217.1696, 1749.800
217.6517, 1766.005
218.1338, 1781.417
218.6159, 1785.633
219.0980, 1771.642
219.5802, 1746.886
220.0623, 1742.090
220.5444, 1767.923
221.0265, 1795.317
221.5086, 1803.164
221.9907, 1776.848
222.4729, 1771.101
222.9550, 1801.693
223.4371, 1858.514
223.9192, 1883.836
224.4013, 1862.780
224.8834, 1831.125
225.3656, 1812.174
225.8477, 1808.004
226.3298, 1812.707
226.8119, 1829.263
227.2940, 1855.920
227.7761, 1875.753
228.2583, 1889.531
228.7404, 1895.196
229.2225, 1888.399
229.7046, 1857.746
230.1867, 1838.923
230.6688, 1839.451
231.1510, 1858.984
231.6331, 1880.416
232.1152, 1908.127
232.5973, 1933.179
233.0794, 1945.603
233.5615, 1938.061
234.0437, 1932.668
234.5258, 1931.950
235.0079, 1935.803
235.4900, 1950.449
235.9721, 1985.057
236.4542, 2021.996
236.9364, 2040.849
237.4185, 2030.586
237.9006, 2023.464
238.3827, 2027.058
238.8648, 2042.582
239.3469, 2056.916
239.8291, 2072.255
240.3112, 2084.479
240.7933, 2086.898
241.2754, 2069.406
241.7575, 2060.242
242.2396, 2068.107
242.7218, 2095.625
243.2039, 2120.555
243.6860, 2143.482
244.1681, 2163.121
244.6502, 2177.491
245.1323, 2184.473
245.6145, 2189.994
246.0966, 2198.874
246.5787, 2215.816
247.0608, 2208.218
247.5429, 2157.514
248.0250, 2096.014
248.5072, 2071.997
248.9893, 2102.296
249.4714, 2140.474
249.9535, 2179.540
250.4356, 2227.502
250.9177, 2235.664
251.3999, 2182.770
251.8820, 2104.830
252.3641, 2059.016
252.8462, 2063.973
253.3283, 2067.023
253.8104, 2046.379
254.2926, 1990.241
254.7747, 1965.128
255.2568, 1985.945
255.7389, 2027.731
256.2210, 2046.659
256.7031, 2033.529
257.1852, 2015.646
257.6674, 2003.321
258.1495, 1999.903
258.6316, 1986.143
259.1137, 1954.286
259.5958, 1917.839
260.0779, 1903.888
260.5601, 1924.761
261.0422, 1942.543
261.5243, 1941.303
262.0064, 1915.518
262.4885, 1895.352
262.9706, 1883.982
263.4528, 1875.916
263.9349, 1857.643
264.4170, 1818.379
264.8991, 1793.893
265.3812, 1806.752
265.8633, 1871.586
266.3455, 1898.523
266.8276, 1871.624
267.3097, 1820.706
267.7918, 1803.248
268.2739, 1830.115
268.7560, 1860.707
269.2382, 1879.466
269.7203, 1885.479
270.2024, 1883.503
270.6845, 1870.179
271.1666, 1852.402
271.6487, 1844.875
272.1309, 1851.007
272.6130, 1855.543
273.0951, 1850.420
273.5772, 1833.920
274.0593, 1822.265
274.5414, 1816.543
275.0236, 1814.136
275.5057, 1808.965
275.9878, 1799.384
276.4699, 1794.808
276.9520, 1800.256
277.4341, 1816.177
277.9163, 1837.130
278.3984, 1867.180
278.8805, 1895.707
279.3626, 1900.880
279.8447, 1879.330
280.3268, 1857.993
280.8090, 1849.944
281.2911, 1855.258
281.7732, 1858.936
282.2553, 1860.898
282.7374, 1861.015
283.2195, 1855.206
283.7017, 1842.480
284.1838, 1839.444
284.6659, 1859.309
285.1480, 1899.856
285.6301, 1929.656
286.1122, 1947.368
286.5944, 1957.988
287.0765, 1965.574
287.5586, 1970.271
288.0407, 1980.287
288.5228, 2004.167
289.0049, 2038.623
289.4871, 2059.898
289.9692, 2064.652
290.4513, 2068.510
290.9334, 2097.872
291.4155, 2149.566
291.8976, 2193.199
292.3798, 2209.174
292.8619, 2205.733
293.3440, 2208.909
293.8261, 2218.729
294.3082, 2235.827
294.7903, 2262.083
295.2725, 2296.664
295.7546, 2335.495
296.2367, 2379.995
296.7188, 2426.865
297.2009, 2467.111
297.6830, 2499.875
298.1652, 2531.513
298.6473, 2568.163
299.1294, 2608.999
299.6115, 2652.580
300.0936, 2695.527
300.5757, 2741.575
301.0579, 2801.210
301.5400, 2873.879
302.0221, 2947.472
302.5042, 3007.144
302.9863, 3059.019
303.4684, 3114.724
303.9506, 3188.459
304.4327, 3263.752
304.9148, 3319.850
305.3969, 3356.184
305.8790, 3389.897
306.3611, 3436.700
306.8433, 3488.862
307.3254, 3533.078
307.8075, 3560.940
308.2896, 3582.075
308.7717, 3603.038
309.2538, 3624.261
309.7360, 3647.769
310.2181, 3679.843
310.7002, 3713.660
311.1823, 3740.780
311.6644, 3761.496
312.1465, 3771.838
312.6287, 3762.713
313.1108, 3737.160
313.5929, 3715.496
314.0750, 3714.479
314.5571, 3719.056
315.0392, 3714.908
315.5214, 3687.810
316.0035, 3663.367
316.4856, 3657.492
316.9677, 3666.059
317.4498, 3670.929
317.9319, 3663.624
318.4141, 3650.579
318.8962, 3636.034
319.3783, 3619.458
319.8604, 3603.217
320.3425, 3582.622
320.8246, 3561.847
321.3068, 3553.787
321.7889, 3576.453
322.2710, 3602.488
322.7531, 3618.179
323.2352, 3621.933
323.7173, 3614.443
324.1995, 3587.728
324.6816, 3549.503
325.1637, 3518.129
325.6458, 3497.395
326.1279, 3483.028
326.6100, 3475.327
327.0922, 3484.545
327.5743, 3479.533
328.0564, 3446.173
328.5385, 3399.548
329.0206, 3367.071
329.5027, 3370.486
329.9849, 3366.374
330.4670, 3342.358
330.9491, 3293.948
331.4312, 3238.986
331.9133, 3166.212
332.3954, 3092.334
332.8776, 3041.460
333.3597, 3029.056
333.8418, 3016.301
334.3239, 2994.317
334.8061, 2962.463
335.2882, 2923.047
335.7703, 2866.336
336.2524, 2811.825
336.7345, 2783.770
337.2166, 2790.692
337.6988, 2801.007
338.1809, 2810.128
338.6630, 2817.647
339.1451, 2814.899
339.6272, 2800.279
340.1093, 2778.826
340.5915, 2749.924
341.0736, 2709.332
341.5557, 2689.809
342.0378, 2703.092
342.5199, 2740.181
343.0020, 2768.490
343.4842, 2787.245
343.9663, 2800.453
344.4484, 2810.205
344.9305, 2816.691
345.4126, 2820.485
345.8947, 2820.103
346.3769, 2819.291
346.8590, 2825.169
347.3411, 2837.808
347.8232, 2856.312
348.3053, 2886.698
348.7874, 2923.735
349.2696, 2945.500
349.7517, 2944.661
350.2338, 2940.968
350.7159, 2971.056
351.1980, 3026.243
351.6801, 3068.150
352.1623, 3064.086
352.6444, 3035.207
353.1265, 3017.316
353.6086, 3014.986
354.0907, 3014.001
354.5728, 3001.357
355.0550, 2979.879
355.5371, 2955.459
356.0192, 2929.476
356.5013, 2902.962
356.9834, 2872.428
357.4655, 2837.201
357.9477, 2814.968
358.4298, 2843.030
358.9119, 2883.424
359.3940, 2888.335
359.8761, 2796.446
360.3582, 2700.708
360.8404, 2656.727
361.3225, 2660.974
361.8046, 2667.141
362.2867, 2660.976
362.7688, 2645.204
363.2509, 2621.909
363.7331, 2585.401
364.2152, 2548.087
364.6973, 2510.196
365.1794, 2473.064
365.6615, 2443.336
366.1436, 2424.569
366.6258, 2412.027
367.1079, 2404.633
367.5900, 2416.339
368.0721, 2411.637
368.5542, 2373.103
369.0363, 2315.895
369.5185, 2277.586
370.0006, 2272.200
370.4827, 2272.174
370.9648, 2270.535
371.4469, 2269.933
371.9290, 2259.246
372.4112, 2231.768
372.8933, 2197.964
373.3754, 2172.729
373.8575, 2156.719
374.3396, 2147.694
374.8217, 2147.133
375.3039, 2155.392
375.7860, 2157.581
376.2681, 2150.554
376.7502, 2142.443
377.2323, 2143.511
377.7144, 2156.667
378.1966, 2162.851
378.6787, 2156.991
379.1608, 2141.651
379.6429, 2125.755
380.1250, 2108.911
380.6071, 2094.964
381.0893, 2088.153
381.5714, 2087.932
382.0535, 2089.747
382.5356, 2095.853
383.0177, 2099.018
383.4998, 2075.728
383.9820, 2029.790
384.4641, 1999.936
384.9462, 2029.073
385.4283, 2090.001
385.9104, 2117.625
386.3925, 2102.706
386.8747, 2072.760
387.3568, 2051.583
387.8389, 2038.216
388.3210, 2030.067
388.8031, 2026.397
389.2852, 2027.203
389.7674, 2034.675
390.2495, 2049.000
390.7316, 2061.691
391.2137, 2067.806
391.6958, 2068.836
392.1779, 2066.505
392.6601, 2061.841
393.1422, 2053.728
393.6243, 2037.310
394.1064, 2014.941
394.5885, 2000.029
395.0706, 2006.254
395.5528, 2016.467
396.0349, 2018.622
396.5170, 2001.664
396.9991, 1989.735
397.4812, 2000.436
397.9633, 2020.359
398.4455, 2015.452
398.9276, 1948.301
399.4097, 1884.198
399.8918, 1847.688
400.3739, 1848.097
400.8560, 1851.941
401.3382, 1867.455
401.8203, 1882.436
402.3024, 1879.430
402.7845, 1844.860
403.2666, 1815.575
403.7487, 1802.256
404.2309, 1805.000
404.7130, 1798.597
405.1951, 1779.164
405.6772, 1757.273
406.1593, 1745.482
406.6414, 1747.840
407.1236, 1734.150
407.6057, 1692.122
408.0878, 1635.947
408.5699, 1609.670
409.0520, 1616.168
409.5341, 1627.314
410.0163, 1622.697
410.4984, 1605.608
410.9805, 1597.123
411.4626, 1600.213
411.9447, 1608.356
412.4268, 1613.635
412.9090, 1616.297
413.3911, 1617.335
413.8732, 1617.953
414.3553, 1616.989
414.8374, 1613.261
415.3195, 1606.828
415.8017, 1595.659
416.2838, 1568.492
416.7659, 1537.631
417.2480, 1522.295
417.7301, 1541.316
418.2122, 1566.217
418.6944, 1576.362
419.1765, 1574.774
419.6586, 1574.893
420.1407, 1590.877
420.6228, 1606.192
421.1049, 1607.799
421.5871, 1585.008
422.0692, 1564.735
422.5513, 1556.451
423.0334, 1555.634
423.5155, 1554.202
423.9977, 1553.960
424.4798, 1549.770
424.9619, 1535.501
425.4440, 1504.042
425.9261, 1493.452
426.4082, 1522.009
426.8904, 1559.688
427.3725, 1576.691
427.8546, 1556.465
428.3367, 1545.509
428.8188, 1554.390
429.3009, 1579.211
429.7831, 1593.923
430.2652, 1596.508
430.7473, 1593.560
431.2294, 1588.439
431.7115, 1580.962
432.1936, 1572.529
432.6758, 1561.571
433.1579, 1552.252
433.6400, 1553.225
434.1221, 1564.469
434.6042, 1578.254
435.0863, 1595.864
435.5685, 1613.476
436.0506, 1615.979
436.5327, 1602.463
437.0148, 1583.889
437.4969, 1568.477
437.9790, 1556.381
438.4612, 1548.027
438.9433, 1546.125
439.4254, 1545.131
439.9075, 1533.422
440.3896, 1515.043
440.8717, 1508.705
441.3539, 1542.169
441.8360, 1583.823
442.3181, 1603.899
442.8002, 1592.276
443.2823, 1575.143
443.7644, 1557.263
444.2466, 1542.873
444.7287, 1538.687
445.2108, 1567.677
445.6929, 1587.687
446.1750, 1575.943
446.6571, 1527.687
447.1393, 1497.304
447.6214, 1500.480
448.1035, 1517.543
448.5856, 1534.429
449.0677, 1557.913
449.5498, 1571.192
450.0320, 1572.503
450.5141, 1562.767
450.9962, 1541.088
451.4783, 1494.979
451.9604, 1462.139
452.4425, 1467.869
452.9247, 1521.823
453.4068, 1538.212
453.8889, 1503.954
454.3710, 1460.276
454.8531, 1473.080
455.3352, 1541.969
455.8174, 1594.635
456.2995, 1605.591
456.7816, 1586.418
457.2637, 1558.833
457.7458, 1523.365
458.2279, 1499.948
458.7101, 1514.610
459.1922, 1550.679
459.6743, 1577.168
460.1564, 1590.337
460.6385, 1588.801
461.1206, 1554.681
461.6028, 1504.737
462.0849, 1475.590
462.5670, 1504.913
463.0491, 1546.446
463.5312, 1570.013
464.0133, 1572.812
464.4955, 1572.137
464.9776, 1571.070
465.4597, 1571.549
465.9418, 1575.250
466.4239, 1588.819
466.9060, 1598.491
467.3882, 1600.363
467.8703, 1595.955
468.3524, 1592.203
468.8345, 1594.666
469.3166, 1591.793
469.7987, 1576.618
470.2809, 1541.125
470.7630, 1521.921
471.2451, 1525.150
471.7272, 1537.873
472.2093, 1543.853
472.6914, 1541.882
473.1736, 1538.906
473.6557, 1536.104
474.1378, 1533.794
474.6199, 1534.835
475.1020, 1539.896
475.5841, 1541.486
476.0663, 1528.362
476.5484, 1506.135
477.0305, 1497.418
477.5126, 1506.839
477.9947, 1523.707
478.4768, 1540.728
478.9590, 1555.588
479.4411, 1562.021
479.9232, 1548.918
480.4053, 1531.226
480.8874, 1524.392
481.3695, 1528.073
481.8517, 1529.773
482.3338, 1526.095
482.8159, 1515.615
483.2980, 1494.826
483.7801, 1441.579
484.2622, 1410.820
484.7444, 1432.617
485.2265, 1487.704
485.7086, 1532.612
486.1907, 1560.182
486.6728, 1578.245
487.1549, 1589.080
487.6371, 1592.926
488.1192, 1586.974
488.6013, 1560.264
489.0834, 1535.639
489.5655, 1537.073
490.0476, 1576.102
490.5298, 1600.051
491.0119, 1597.275
491.4940, 1579.193
491.9761, 1576.294
492.4582, 1589.743
492.9403, 1607.335
493.4225, 1626.152
493.9046, 1644.340
494.3867, 1654.425
494.8688, 1655.739
495.3509, 1653.036
495.8330, 1644.033
496.3152, 1634.849
496.7973, 1641.341
497.2794, 1682.230
497.7615, 1723.563
498.2436, 1720.808
498.7257, 1688.251
499.2079, 1674.839
499.6900, 1731.985
500.1721, 1798.725
500.6542, 1830.200
501.1363, 1812.611
501.6184, 1797.996
502.1006, 1807.653
502.5827, 1825.218
503.0648, 1833.137
503.5469, 1817.253
504.0290, 1805.570
504.5111, 1802.841
504.9933, 1807.711
505.4754, 1811.816
505.9575, 1811.461
506.4396, 1816.455
506.9217, 1835.362
507.4038, 1873.394
507.8860, 1892.659
508.3681, 1888.298
508.8502, 1875.404
509.3323, 1872.300
509.8144, 1878.764
510.2965, 1891.799
510.7787, 1912.022
511.2608, 1936.917
511.7429, 1964.577
512.2250, 1993.905
512.7071, 2015.507
513.1892, 2017.025
513.6713, 2009.163
514.1534, 2005.099
514.6356, 2006.139
515.1177, 2012.576
515.5998, 2025.049
516.0819, 2042.938
516.5640, 2065.515
517.0461, 2094.059
517.5283, 2125.429
518.0104, 2165.002
518.4925, 2209.227
518.9746, 2237.950
519.4567, 2233.410
519.9388, 2224.752
520.4210, 2224.332
520.9031, 2234.222
521.3852, 2246.944
521.8673, 2263.890
522.3494, 2282.534
522.8315, 2303.015
523.3137, 2330.704
523.7958, 2337.526
524.2779, 2310.427
524.7600, 2261.570
525.2421, 2237.981
525.7242, 2240.481
526.2064, 2238.568
526.6885, 2204.143
527.1706, 2150.460
527.6527, 2117.659
528.1348, 2110.334
528.6169, 2108.519
529.0991, 2090.680
529.5812, 2065.650
530.0633, 2048.764
530.5454, 2054.171
531.0275, 2059.359
531.5096, 2045.736
531.9918, 2019.022
532.4739, 1998.121
532.9560, 1999.448
533.4381, 2001.154
533.9202, 1990.545
534.4023, 1961.470
534.8845, 1940.871
535.3666, 1941.590
535.8487, 1944.648
536.3308, 1931.635
536.8129, 1887.385
537.2950, 1860.926
537.7772, 1864.523
538.2593, 1886.410
538.7414, 1892.302
539.2235, 1878.875
539.7056, 1867.000
540.1877, 1863.741
540.6699, 1869.775
541.1520, 1896.970
541.6341, 1947.755
542.1162, 1990.843
542.5983, 1991.447
543.0804, 1962.829
543.5626, 1932.626
544.0447, 1904.352
544.5268, 1882.157
545.0089, 1865.030
545.4910, 1856.302
545.9731, 1863.073
546.4553, 1916.184
546.9374, 1961.379
547.4195, 1964.826
547.9016, 1924.445
548.3837, 1889.851
548.8658, 1879.965
549.3480, 1873.985
549.8301, 1858.175
550.3122, 1815.205
550.7943, 1794.221
551.2764, 1806.657
551.7585, 1833.045
552.2407, 1842.766
552.7228, 1834.038
553.2049, 1814.563
553.6870, 1780.692
554.1691, 1739.183
554.6512, 1717.751
555.1334, 1716.769
555.6155, 1724.283
556.0976, 1742.650
556.5797, 1762.001
557.0618, 1754.768
557.5439, 1715.293
558.0261, 1671.610
558.5082, 1644.163
558.9903, 1630.281
559.4724, 1625.414
559.9545, 1629.805
560.4366, 1640.994
560.9188, 1667.544
561.4009, 1701.693
561.8830, 1718.316
562.3651, 1701.260
562.8472, 1674.207
563.3293, 1640.207
563.8115, 1592.864
564.2936, 1575.889
564.7757, 1605.964
565.2578, 1647.840
565.7399, 1673.486
566.2220, 1680.550
566.7042, 1681.561
567.1863, 1678.518
567.6684, 1669.031
568.1505, 1641.140
568.6326, 1596.177
569.1147, 1564.368
569.5969, 1564.024
570.0790, 1582.507
570.5611, 1599.789
571.0432, 1615.073
571.5253, 1621.732
572.0074, 1603.030
572.4896, 1579.124
572.9717, 1573.781
573.4538, 1596.233
573.9359, 1616.502
574.4180, 1625.008
574.9001, 1622.353
575.3823, 1609.475
575.8644, 1564.740
576.3465, 1534.992
576.8286, 1534.900
577.3107, 1556.317
577.7928, 1569.509
578.2750, 1572.825
578.7571, 1571.008
579.2392, 1564.326
579.7213, 1552.501
580.2034, 1545.323
580.6855, 1543.062
581.1677, 1544.055
581.6498, 1551.846
582.1320, 1563.122
582.6141, 1559.518
583.0962, 1534.313
583.5783, 1504.128
584.0604, 1483.874
584.5425, 1473.189
585.0247, 1470.917
585.5068, 1484.151
585.9889, 1499.191
586.4710, 1506.455
586.9531, 1507.004
587.4352, 1508.585
587.9174, 1520.743
588.3995, 1529.082
588.8816, 1524.569
589.3637, 1500.166
589.8458, 1480.270
590.3279, 1457.357
590.8101, 1445.472
591.2922, 1464.645
591.7743, 1528.251
592.2564, 1570.618
592.7385, 1579.985
593.2206, 1566.375
593.7028, 1543.802
594.1849, 1513.110
594.6670, 1494.790
595.1491, 1506.960
595.6312, 1534.417
596.1133, 1549.318
596.5955, 1552.426
597.0776, 1551.796
597.5597, 1550.646
598.0418, 1549.832
598.5239, 1550.740
599.0060, 1554.547
599.4882, 1556.528
599.9703, 1549.917
600.4524, 1542.649
600.9345, 1543.555
601.4166, 1558.146
601.8987, 1576.207
602.3809, 1600.952
602.8630, 1627.822
603.3451, 1643.803
603.8272, 1645.880
604.3093, 1644.396
604.7914, 1639.645
605.2736, 1633.714
605.7557, 1646.440
606.2378, 1679.742
606.7199, 1709.566
607.2020, 1715.493
607.6841, 1703.921
608.1663, 1685.679
608.6484, 1659.699
609.1305, 1642.096
609.6126, 1653.365
610.0947, 1679.854
610.5768, 1702.404
611.0590, 1715.407
611.5411, 1722.458
612.0232, 1720.550
612.5053, 1713.197
612.9874, 1711.123
613.4695, 1723.457
613.9517, 1732.283
614.4338, 1730.165
614.9159, 1716.902
615.3980, 1715.902
615.8801, 1731.413
616.3622, 1748.464
616.8444, 1759.683
617.3265, 1764.662
617.8086, 1749.914
618.2907, 1709.537
618.7728, 1672.821
619.2549, 1677.854
619.7371, 1713.186
620.2192, 1753.406
620.7013, 1796.772
621.1834, 1833.357
621.6655, 1849.144
622.1476, 1852.154
622.6298, 1860.672
623.1119, 1891.017
623.5940, 1919.239
624.0761, 1926.528
624.5582, 1912.587
625.0403, 1932.813
625.5225, 2020.432
626.0046, 2104.378
626.4867, 2143.628
626.9688, 2124.510
627.4509, 2133.336
627.9330, 2175.941
628.4152, 2231.073
628.8973, 2273.096
629.3794, 2304.907
629.8615, 2350.204
630.3436, 2420.933
630.8257, 2489.903
631.3079, 2519.393
631.7900, 2520.905
632.2721, 2522.159
632.7542, 2529.378
633.2363, 2545.873
633.7184, 2576.286
634.2006, 2619.079
634.6827, 2664.417
635.1648, 2719.012
635.6469, 2767.628
636.1290, 2801.657
636.6111, 2817.515
637.0933, 2842.356
637.5754, 2881.087
638.0575, 2921.814
638.5396, 2954.322
639.0217, 2978.301
639.5038, 3004.205
639.9860, 3034.589
640.4681, 3062.809
640.9502, 3073.851
641.4323, 3073.595
641.9144, 3082.898
642.3965, 3115.336
642.8787, 3151.573
643.3608, 3168.201
643.8429, 3173.033
644.3250, 3187.169
644.8071, 3225.138
645.2892, 3269.550
645.7714, 3313.052
646.2535, 3355.193
646.7356, 3397.312
647.2177, 3425.178
647.6998, 3468.944
648.1819, 3546.839
648.6641, 3667.709
649.1462, 3779.202
649.6283, 3876.977
650.1104, 3980.080
650.5925, 4116.664
651.0746, 4281.192
651.5568, 4424.475
652.0389, 4531.590
652.5210, 4635.867
653.0031, 4787.126
653.4852, 4965.669
653.9673, 5129.643
654.4495, 5247.760
654.9316, 5359.244
655.4137, 5490.138
655.8958, 5633.153
656.3779, 5761.623
656.8600, 5869.060
657.3422, 5960.628
657.8243, 6035.048
658.3064, 6090.805
658.7885, 6159.392
659.2706, 6255.741
659.7527, 6330.941
660.2349, 6346.286
660.7170, 6304.677
661.1991, 6257.693
661.6812, 6209.613
662.1633, 6144.157
662.6454, 6040.372
663.1276, 5906.567
663.6097, 5758.721
664.0918, 5599.467
664.5739, 5430.211
665.0560, 5241.677
665.5381, 5045.092
666.0203, 4861.909
666.5024, 4720.044
666.9845, 4566.166
667.4666, 4371.648
667.9487, 4151.437
668.4308, 3966.147
668.9130, 3826.677
669.3951, 3696.212
669.8772, 3562.508
670.3593, 3426.406
670.8414, 3298.755
671.3235, 3178.983
671.8057, 3069.242
672.2878, 2975.275
672.7699, 2889.935
673.2520, 2797.721
673.7341, 2695.647
674.2162, 2599.416
674.6984, 2517.417
675.1805, 2447.057
675.6626, 2387.119
676.1447, 2340.295
676.6268, 2297.054
677.1089, 2255.291
677.5911, 2216.563
678.0732, 2183.008
678.5553, 2159.060
679.0374, 2131.315
679.5195, 2096.613
680.0016, 2057.856
680.4838, 2019.847
680.9659, 1982.680
681.4480, 1950.406
681.9301, 1927.568
682.4122, 1908.882
682.8943, 1880.082
683.3765, 1844.359
683.8586, 1820.959
684.3407, 1841.239
684.8228, 1863.574
685.3049, 1849.037
685.7870, 1792.539
686.2692, 1750.606
686.7513, 1746.660
687.2334, 1755.573
687.7155, 1763.836
688.1976, 1775.075
688.6797, 1773.692
689.1619, 1756.099
689.6440, 1732.072
690.1261, 1711.574
690.6082, 1694.286
691.0903, 1675.899
691.5724, 1653.555
692.0546, 1636.340
692.5367, 1643.306
693.0188, 1664.585
693.5009, 1677.832
693.9830, 1666.097
694.4651, 1653.546
694.9473, 1659.802
695.4294, 1676.175
695.9115, 1680.180
696.3936, 1656.147
696.8757, 1630.346
697.3578, 1606.938
697.8400, 1586.545
698.3221, 1575.570
698.8042, 1574.883
699.2863, 1581.127
699.7684, 1596.120
700.2505, 1617.604
700.7327, 1629.695
701.2148, 1632.390
701.6969, 1634.027
702.1790, 1650.055
702.6611, 1665.129
703.1432, 1652.243
703.6254, 1602.695
704.1075, 1563.810
704.5896, 1571.066
705.0717, 1593.785
705.5538, 1605.047
706.0359, 1591.765
706.5181, 1581.400
707.0002, 1575.890
707.4823, 1571.984
707.9644, 1563.193
708.4465, 1547.628
708.9286, 1544.332
709.4108, 1561.534
709.8929, 1584.000
710.3750, 1582.347
710.8571, 1561.887
711.3392, 1542.692
711.8214, 1530.556
712.3035, 1525.820
712.7856, 1535.142
713.2677, 1552.728
713.7498, 1560.860
714.2319, 1534.650
714.7141, 1515.707
715.1962, 1527.781
715.6783, 1567.368
716.1604, 1588.251
716.6425, 1583.125
717.1246, 1574.196
717.6068, 1572.562
718.0889, 1577.544
718.5710, 1579.727
719.0531, 1579.043
719.5352, 1577.186
720.0173, 1572.178
720.4995, 1568.206
720.9816, 1573.705
721.4637, 1590.628
721.9458, 1606.942
722.4279, 1617.118
722.9100, 1622.539
723.3922, 1623.949
723.8743, 1618.079
724.3564, 1614.472
724.8385, 1615.129
725.3206, 1616.886
725.8027, 1616.504
726.2849, 1614.093
726.7670, 1607.076
727.2491, 1592.016
727.7312, 1578.212
728.2133, 1581.599
728.6954, 1599.171
729.1776, 1620.795
729.6597, 1649.448
730.1418, 1671.895
730.6239, 1671.033
731.1060, 1655.342
731.5881, 1644.561
732.0703, 1652.624
732.5524, 1658.703
733.0345, 1653.161
733.5166, 1639.815
733.9987, 1635.579
734.4808, 1645.644
734.9630, 1652.469
735.4451, 1647.192
735.9272, 1633.228
736.4093, 1626.875
736.8914, 1627.996
737.3735, 1632.115
737.8557, 1646.820
738.3378, 1657.234
738.8199, 1632.445
739.3020, 1573.333
739.7841, 1534.458
740.2662, 1563.487
740.7484, 1605.818
741.2305, 1625.407
741.7126, 1610.297
742.1947, 1603.566
742.6768, 1610.347
743.1589, 1618.608
743.6411, 1618.696
744.1232, 1610.233
744.6053, 1602.778
745.0874, 1597.080
745.5695, 1591.631
746.0516, 1579.622
746.5338, 1567.478
747.0159, 1571.956
747.4980, 1603.315
747.9801, 1629.343
748.4622, 1628.877
748.9443, 1612.328
749.4265, 1592.384
749.9086, 1561.163
750.3907, 1540.834
750.8728, 1536.893
751.3549, 1541.554
751.8370, 1544.629
752.3192, 1547.426
752.8013, 1537.012
753.2834, 1502.804
753.7655, 1467.145
754.2476, 1482.707
754.7297, 1533.977
755.2119, 1568.484
755.6940, 1547.116
756.1761, 1517.241
756.6582, 1513.524
757.1403, 1527.719
757.6224, 1536.658
758.1046, 1523.137
758.5867, 1516.106
759.0688, 1525.812
759.5509, 1547.994
760.0330, 1564.553
760.5151, 1576.525
760.9973, 1577.317
761.4794, 1557.126
761.9615, 1525.778
762.4436, 1515.701
762.9257, 1524.522
763.4078, 1533.315
763.8900, 1528.657
764.3721, 1519.953
764.8542, 1513.863
765.3363, 1510.921
765.8184, 1512.155
766.3005, 1530.218
766.7827, 1540.592
767.2648, 1527.962
767.7469, 1488.923
768.2290, 1469.763
768.7111, 1474.926
769.1932, 1485.511
769.6754, 1484.332
770.1575, 1476.351
770.6396, 1488.215
771.1217, 1521.616
771.6038, 1546.051
772.0859, 1522.340
772.5681, 1485.721
773.0502, 1474.930
773.5323, 1502.905
774.0144, 1524.983
774.4965, 1528.136
774.9786, 1522.290
775.4608, 1512.252
775.9429, 1491.662
776.4250, 1489.805
776.9071, 1512.792
777.3892, 1539.707
777.8713, 1543.858
778.3535, 1531.182
778.8356, 1526.970
779.3177, 1537.165
779.7998, 1546.430
780.2819, 1535.346
780.7640, 1517.444
781.2462, 1510.952
781.7283, 1534.679
782.2104, 1544.822
782.6925, 1515.719
783.1746, 1477.526
783.6567, 1462.747
784.1389, 1477.062
784.6210, 1496.167
785.1031, 1519.175
785.5852, 1542.293
786.0673, 1562.032
786.5494, 1577.387
787.0316, 1583.110
787.5137, 1573.411
787.9958, 1562.415
788.4779, 1561.292
788.9600, 1567.109
789.4421, 1575.051
789.9243, 1586.785
790.4064, 1596.998
790.8885, 1609.024
791.3706, 1617.316
791.8527, 1607.422
792.3348, 1572.927
792.8170, 1552.227
793.2991, 1556.959
793.7812, 1575.358
794.2633, 1590.627
794.7454, 1601.801
795.2275, 1605.486
795.7097, 1589.551
796.1918, 1577.711
796.6739, 1594.869
797.1560, 1627.730
797.6381, 1646.315
798.1202, 1641.361
798.6024, 1622.174
799.0845, 1576.993
799.5666, 1522.698
800.0487, 1516.842
800.5308, 1565.424
801.0129, 1604.605
801.4951, 1610.163
801.9772, 1595.107
802.4593, 1573.095
802.9414, 1549.015
803.4235, 1539.649
803.9056, 1571.483
804.3878, 1602.592
804.8699, 1607.138
805.3520, 1591.354
805.8341, 1582.146
806.3162, 1585.904
806.7983, 1589.299
807.2805, 1586.953
807.7626, 1582.300
808.2447, 1593.271
808.7268, 1619.669
809.2089, 1636.438
809.6910, 1624.380
810.1732, 1601.056
810.6553, 1589.507
811.1374, 1587.837
811.6195, 1589.337
812.1016, 1593.410
812.5837, 1597.467
813.0659, 1600.342
813.5480, 1602.138
814.0301, 1604.314
814.5122, 1608.824
814.9943, 1608.461
815.4764, 1596.566
815.9586, 1579.575
816.4407, 1584.225
816.9228, 1607.883
817.4049, 1627.370
817.8870, 1627.230
818.3691, 1618.381
818.8513, 1607.007
819.3334, 1594.724
819.8155, 1588.560
820.2976, 1594.815
820.7797, 1603.207
821.2618, 1613.660
821.7440, 1624.077
822.2261, 1618.108
822.7082, 1591.300
823.1903, 1569.869
823.6724, 1569.860
824.1545, 1581.002
824.6367, 1575.219
825.1188, 1557.203
825.6009, 1550.109
826.0830, 1585.303
826.5651, 1618.650
827.0472, 1616.655
827.5294, 1584.275
828.0115, 1566.311
828.4936, 1571.843
828.9757, 1584.001
829.4578, 1602.605
829.9399, 1623.358
830.4221, 1619.182
830.9042, 1590.213
831.3863, 1566.769
831.8684, 1571.010
832.3505, 1585.284
832.8326, 1582.045
833.3148, 1567.578
833.7969, 1565.592
834.2790, 1610.312
834.7611, 1644.907
835.2432, 1636.532
835.7253, 1596.981
836.2075, 1575.184
836.6896, 1574.045
837.1717, 1581.549
837.6538, 1597.481
838.1359, 1616.032
838.6180, 1621.946
839.1002, 1616.391
839.5823, 1605.823
840.0644, 1583.164
840.5465, 1566.184
841.0286, 1575.542
841.5107, 1602.284
841.9929, 1613.690
842.4750, 1596.648
842.9571, 1570.867
843.4392, 1530.795
843.9213, 1488.258
844.4034, 1489.176
844.8856, 1534.082
845.3677, 1574.299
845.8498, 1592.037
846.3319, 1593.273
846.8140, 1576.356
847.2961, 1549.668
847.7783, 1534.722
848.2604, 1558.666
848.7425, 1575.869
849.2246, 1559.461
849.7067, 1525.792
850.1888, 1517.831
850.6710, 1544.714
851.1531, 1567.736
851.6352, 1579.109
852.1173, 1580.392
852.5994, 1569.403
853.0815, 1550.049
853.5637, 1535.890
854.0458, 1528.221
854.5279, 1533.331
855.0100, 1573.388
855.4921, 1626.006
855.9742, 1648.213
856.4564, 1605.207
856.9385, 1571.211
857.4206, 1551.894
857.9027, 1546.883
858.3848, 1563.335
858.8669, 1599.289
859.3491, 1617.879
859.8312, 1605.917
860.3133, 1585.636
860.7954, 1573.906
861.2775, 1573.234
861.7596, 1588.920
862.2418, 1649.514
862.7239, 1685.753
863.2060, 1658.185
863.6881, 1612.190
864.1702, 1595.164
864.6523, 1612.237
865.1345, 1637.093
865.6166, 1671.115
866.0987, 1697.113
866.5808, 1680.851
867.0629, 1642.325
867.5450, 1625.743
868.0272, 1645.580
868.5093, 1666.817
868.9914, 1665.773
869.4735, 1659.503
869.9556, 1666.193
870.4377, 1700.334
870.9199, 1709.321
871.4020, 1684.334
871.8841, 1653.102
872.3662, 1641.345
872.8483, 1646.006
873.3304, 1654.105
873.8126, 1664.681
874.2947, 1675.656
874.7768, 1686.946
875.2589, 1696.758
875.7410, 1701.188
876.2231, 1696.724
876.7053, 1704.909
877.1874, 1736.672
877.6695, 1767.746
878.1516, 1783.856
878.6337, 1785.530
879.1158, 1785.788
879.5980, 1784.555
880.0801, 1785.722
880.5622, 1794.342
881.0443, 1805.534
881.5264, 1815.250
882.0085, 1822.954
882.4907, 1825.847
882.9728, 1819.139
883.4549, 1811.183
883.9370, 1802.895
884.4191, 1795.536
884.9012, 1801.264
885.3834, 1821.691
885.8655, 1839.737
886.3476, 1843.608
886.8297, 1842.733
887.3118, 1857.446
887.7939, 1882.108
888.2761, 1897.845
888.7582, 1889.720
889.2403, 1878.276
889.7224, 1870.036
890.2045, 1864.621
890.6866, 1861.478
891.1688, 1861.957
891.6509, 1857.865
892.1330, 1843.170
892.6151, 1829.649
893.0972, 1846.210
893.5793, 1882.233
894.0615, 1906.268
894.5436, 1902.684
895.0257, 1892.573
895.5078, 1885.705
895.9899, 1879.926
896.4720, 1871.465
896.9542, 1854.290
897.4363, 1848.995
897.9184, 1860.881
898.4005, 1877.391
898.8826, 1880.452
899.3647, 1873.940
899.8469, 1874.893
900.3290, 1887.408
900.8111, 1898.474
901.2932, 1892.340
901.7753, 1883.455
902.2574, 1888.601
902.7396, 1923.552
903.2217, 1929.156
903.7038, 1888.892
904.1859, 1846.546
904.6680, 1832.451
905.1501, 1845.086
905.6323, 1880.520
906.1144, 1937.813
906.5965, 1987.548
907.0786, 2005.932
907.5607, 2006.846
908.0428, 1994.762
908.5250, 1970.949
909.0071, 1963.445
909.4892, 1989.900
909.9713, 2012.180
910.4534, 2013.351
910.9355, 1999.714
911.4177, 2006.072
911.8998, 2030.839
912.3819, 2050.439
912.8640, 2047.772
913.3461, 2038.559
913.8282, 2037.666
914.3104, 2042.387
914.7925, 2045.782
915.2746, 2041.519
915.7567, 2042.017
916.2388, 2052.057
916.7209, 2065.824
917.2031, 2070.233
917.6852, 2065.591
918.1673, 2065.171
918.6494, 2073.595
919.1315, 2082.904
919.6136, 2086.992
920.0958, 2085.386
920.5779, 2076.628
921.0600, 2053.861
921.5421, 2037.153
922.0242, 2037.167
922.5063, 2036.302
922.9885, 2011.356
923.4706, 1959.744
923.9527, 1953.934
924.4348, 2000.714
924.9169, 2049.915
925.3990, 2051.434
925.8812, 2032.737
926.3633, 2028.830
926.8454, 2043.629
927.3275, 2049.409
927.8096, 2024.579
928.2917, 2003.638
928.7739, 2002.297
929.2560, 2018.161
929.7381, 2026.692
930.2202, 2027.900
930.7023, 2025.239
931.1844, 2012.111
931.6666, 2002.255
932.1487, 2016.901
932.6308, 2049.252
933.1129, 2079.019
933.5950, 2102.566
934.0771, 2118.303
934.5593, 2123.812
935.0414, 2123.421
935.5235, 2123.494
936.0056, 2123.950
936.4877, 2135.999
936.9698, 2165.497
937.4520, 2197.413
937.9341, 2211.384
938.4162, 2217.941
938.8983, 2232.454
939.3804, 2262.553
939.8625, 2291.789
940.3447, 2318.459
940.8268, 2342.034
941.3089, 2361.749
941.7910, 2377.346
942.2731, 2388.881
942.7552, 2395.206
943.2374, 2418.906
943.7195, 2503.935
944.2016, 2600.013
944.6837, 2651.311
945.1658, 2655.902
945.6479, 2644.941
946.1301, 2597.642
946.6122, 2571.424
947.0943, 2593.255
947.5764, 2649.296
948.0585, 2678.015
948.5406, 2680.356
949.0228, 2678.528
949.5049, 2682.752
949.9870, 2686.906
950.4691, 2687.610
950.9512, 2683.492
951.4333, 2671.806
951.9155, 2640.421
952.3976, 2617.236
952.8797, 2604.593
953.3618, 2600.637
953.8439, 2608.712
954.3260, 2625.921
954.8082, 2626.006
955.2903, 2603.305
955.7724, 2575.553
956.2545, 2557.255
956.7366, 2541.343
957.2188, 2520.604
957.7009, 2492.250
958.1830, 2467.515
958.6651, 2449.889
959.1472, 2429.867
959.6293, 2392.985
960.1115, 2348.922
960.5936, 2352.605
961.0757, 2397.720
961.5578, 2436.242
962.0399, 2438.169
962.5220, 2424.798
963.0042, 2397.293
963.4863, 2364.719
963.9684, 2358.345
964.4505, 2388.494
964.9326, 2422.225
965.4147, 2455.464
965.8969, 2485.905
966.3790, 2506.405
966.8611, 2520.334
967.3432, 2537.675
967.8253, 2560.853
968.3074, 2587.608
968.7896, 2617.785
969.2717, 2649.991
969.7538, 2681.095
970.2359, 2707.248
970.7180, 2749.462
971.2001, 2810.438
971.6823, 2876.189
972.1644, 2933.188
972.6465, 2988.833
973.1286, 3059.708
973.6107, 3145.429
974.0928, 3233.931
974.5750, 3317.510
975.0571, 3405.151
975.5392, 3502.391
976.0213, 3606.570
976.5034, 3701.299
976.9855, 3783.220
977.4677, 3889.576
977.9498, 4036.237
978.4319, 4201.270
978.9140, 4353.799
979.3961, 4507.762
979.8782, 4685.072
980.3604, 4907.953
980.8425, 5124.845
981.3246, 5321.981
981.8067, 5517.507
982.2888, 5722.778
982.7709, 5938.586
983.2531, 6152.608
983.7352, 6364.318
984.2173, 6585.202
984.6994, 6832.919
985.1815, 7087.536
985.6636, 7333.158
986.1458, 7566.959
986.6279, 7796.641
987.1100, 8035.107
987.5921, 8248.416
988.0742, 8426.406
988.5563, 8572.379
989.0385, 8698.437
989.5206, 8800.335
990.0027, 8865.188
990.4848, 8884.970
990.9669, 8872.855
991.4490, 8831.565
991.9312, 8765.548
992.4133, 8682.953
992.8954, 8602.444
993.3775, 8452.501
993.8596, 8218.805
994.3417, 7961.760
994.8239, 7745.819
995.3060, 7543.031
995.7881, 7293.533
996.2702, 6996.115
996.7523, 6694.681
997.2344, 6403.069
997.7166, 6123.682
998.1987, 5853.367
998.6808, 5592.564
999.1629, 5350.152
999.6450, 5125.301
1000.127, 4910.630
1000.609, 4701.817
1001.091, 4509.138
1001.573, 4353.050
1002.056, 4218.726
1002.538, 4083.805
1003.020, 3934.043
1003.502, 3803.930
1003.984, 3709.626
1004.466, 3616.444
1004.948, 3483.701
1005.430, 3320.546
1005.913, 3219.020
1006.395, 3178.910
1006.877, 3137.934
1007.359, 3045.957
1007.841, 2942.483
1008.323, 2848.140
1008.805, 2766.107
1009.287, 2711.923
1009.769, 2697.286
1010.252, 2673.157
1010.734, 2624.161
1011.216, 2563.705
1011.698, 2513.600
1012.180, 2471.521
1012.662, 2431.153
1013.144, 2389.227
1013.626, 2351.783
1014.109, 2318.323
1014.591, 2292.971
1015.073, 2283.091
1015.555, 2292.135
1016.037, 2275.996
1016.519, 2234.095
1017.001, 2185.500
1017.483, 2132.509
1017.965, 2088.120
1018.448, 2073.241
1018.930, 2081.275
1019.412, 2082.132
1019.894, 2065.297
1020.376, 2049.303
1020.858, 2038.858
1021.340, 2028.643
1021.822, 2005.213
1022.305, 1973.323
1022.787, 1951.246
1023.269, 1944.005
1023.751, 1942.607
1024.233, 1945.034
1024.715, 1948.506
1025.197, 1952.497
1025.679, 1957.918
1026.161, 1950.904
1026.644, 1929.735
1027.126, 1904.516
1027.608, 1874.055
1028.090, 1847.278
1028.572, 1844.856
1029.054, 1857.702
1029.536, 1860.991
1030.018, 1838.561
1030.500, 1813.917
1030.983, 1782.319
1031.465, 1759.972
1031.947, 1783.936
1032.429, 1844.784
1032.911, 1855.903
1033.393, 1803.927
1033.875, 1752.263
1034.357, 1753.997
1034.839, 1772.911
1035.322, 1783.616
1035.804, 1784.131
1036.286, 1780.418
1036.768, 1771.487
1037.250, 1760.872
1037.732, 1745.071
1038.214, 1734.554
1038.696, 1763.349
1039.179, 1810.272
1039.661, 1826.529
1040.143, 1769.033
1040.625, 1723.990
1041.107, 1714.651
1041.589, 1721.189
1042.071, 1729.179
1042.553, 1738.690
1043.036, 1752.086
1043.518, 1769.353
1044.000, 1776.617
1044.482, 1749.027
1044.964, 1720.235
1045.446, 1724.632
1045.928, 1753.927
1046.410, 1758.561
1046.892, 1723.797
1047.375, 1704.713
1047.857, 1717.029
1048.339, 1739.999
1048.821, 1741.465
1049.303, 1730.137
1049.785, 1723.118
1050.267, 1724.830
1050.749, 1726.208
1051.231, 1730.447
1051.714, 1726.316
1052.196, 1700.998
1052.678, 1659.292
1053.160, 1655.974
1053.642, 1687.614
1054.124, 1713.995
1054.606, 1708.179
1055.088, 1694.735
1055.571, 1690.388
1056.053, 1691.427
1056.535, 1689.952
1057.017, 1680.420
1057.499, 1684.233
1057.981, 1705.980
1058.463, 1729.542
1058.945, 1736.600
1059.427, 1734.662
1059.910, 1736.725
1060.392, 1743.515
1060.874, 1749.890
1061.356, 1762.716
1061.838, 1762.835
1062.320, 1738.017
1062.802, 1701.006
1063.284, 1689.004
1063.766, 1698.689
1064.249, 1706.069
1064.731, 1703.808
1065.213, 1700.569
1065.695, 1706.330
1066.177, 1711.732
1066.659, 1705.121
1067.141, 1683.248
1067.623, 1673.742
1068.106, 1678.260
1068.588, 1684.952
1069.070, 1689.709
1069.552, 1690.111
1070.034, 1673.197
1070.516, 1649.350
1070.998, 1644.696
1071.480, 1697.822
1071.963, 1725.851
1072.445, 1712.034
1072.927, 1684.596
1073.409, 1677.058
1073.891, 1684.619
1074.373, 1688.660
1074.855, 1687.482
1075.337, 1682.037
1075.819, 1667.585
1076.302, 1654.404
1076.784, 1648.830
1077.266, 1648.859
1077.748, 1647.322
1078.230, 1644.069
1078.712, 1643.314
1079.194, 1647.605
1079.676, 1650.391
1080.159, 1642.220
1080.641, 1629.949
1081.123, 1620.569
1081.605, 1613.874
1082.087, 1617.997
1082.569, 1637.288
1083.051, 1655.982
1083.533, 1665.905
1084.016, 1668.913
1084.498, 1667.667
1084.980, 1662.896
1085.462, 1656.774
1085.944, 1646.251
1086.426, 1640.090
1086.908, 1643.394
1087.390, 1647.773
1087.872, 1640.684
1088.354, 1624.339
1088.837, 1624.932
1089.319, 1643.496
1089.801, 1660.804
1090.283, 1661.108
1090.765, 1658.023
1091.247, 1664.212
1091.729, 1673.997
1092.211, 1663.130
1092.694, 1626.052
1093.176, 1608.615
1093.658, 1624.980
1094.140, 1646.628
1094.622, 1634.036
1095.104, 1611.537
1095.586, 1612.535
1096.068, 1647.541
1096.551, 1664.668
1097.033, 1654.478
1097.515, 1641.658
1097.997, 1639.116
1098.479, 1638.758
1098.961, 1610.364
1099.443, 1569.301
1099.925, 1557.122
1100.407, 1614.117
1100.890, 1655.382
1101.372, 1648.556
1101.854, 1628.528
1102.336, 1619.128
1102.818, 1619.889
1103.300, 1628.633
1103.782, 1644.118
1104.264, 1653.170
1104.746, 1646.585
1105.229, 1632.324
1105.711, 1605.564
1106.193, 1577.544
1106.675, 1571.116
1107.157, 1590.639
1107.639, 1603.060
1108.121, 1604.436
1108.603, 1601.715
1109.086, 1604.679
1109.568, 1604.747
1110.050, 1586.486
1110.532, 1551.139
1111.014, 1537.343
1111.496, 1552.346
1111.978, 1575.003
1112.460, 1603.347
1112.943, 1628.829
1113.425, 1638.211
1113.907, 1634.563
1114.389, 1620.556
1114.871, 1592.820
1115.353, 1573.916
1115.835, 1571.869
1116.317, 1575.800
1116.799, 1581.301
1117.281, 1588.648
1117.764, 1604.891
1118.246, 1624.944
1118.728, 1627.658
1119.210, 1592.789
1119.692, 1558.018
1120.174, 1539.292
1120.656, 1527.839
1121.138, 1514.109
1121.621, 1497.411
1122.103, 1500.488
1122.585, 1522.969
1123.067, 1544.672
1123.549, 1553.821
1124.031, 1556.681
1124.513, 1555.124
1124.995, 1551.016
1125.478, 1549.571
1125.960, 1553.106
1126.442, 1547.886
1126.924, 1531.624
1127.406, 1511.678
1127.888, 1483.254
1128.370, 1463.238
1128.852, 1479.041
1129.334, 1527.738
1129.817, 1556.760
1130.299, 1554.729
1130.781, 1551.901
1131.263, 1554.255
1131.745, 1560.924
1132.227, 1578.775
1132.709, 1597.144
1133.191, 1593.506
1133.673, 1560.003
1134.156, 1534.943
1134.638, 1525.786
1135.120, 1528.563
1135.602, 1548.199
1136.084, 1573.959
1136.566, 1573.700
1137.048, 1553.838
1137.530, 1533.099
1138.013, 1510.865
1138.495, 1504.418
1138.977, 1540.154
1139.459, 1575.224
1139.941, 1579.433
1140.423, 1556.200
1140.905, 1542.845
1141.387, 1538.311
1141.870, 1535.633
1142.352, 1534.959
1142.834, 1530.625
1143.316, 1514.576
1143.798, 1496.310
1144.280, 1488.882
1144.762, 1494.044
1145.244, 1488.074
1145.726, 1469.941
1146.208, 1461.323
1146.691, 1488.618
1147.173, 1522.256
1147.655, 1543.739
1148.137, 1552.589
1148.619, 1549.970
1149.101, 1530.713
1149.583, 1527.815
1150.065, 1547.725
1150.548, 1568.581
1151.030, 1568.976
1151.512, 1558.923
1151.994, 1547.277
1152.476, 1535.085
1152.958, 1524.466
1153.440, 1514.905
1153.922, 1508.361
1154.405, 1504.896
1154.887, 1505.759
1155.369, 1519.033
1155.851, 1534.908
1156.333, 1533.129
1156.815, 1507.094
1157.297, 1504.822
1157.779, 1544.787
1158.261, 1577.554
1158.744, 1583.862
1159.226, 1573.224
1159.708, 1561.868
1160.190, 1549.390
1160.672, 1533.431
1161.154, 1509.660
1161.636, 1495.249
1162.118, 1498.653
1162.600, 1503.773
1163.083, 1503.397
1163.565, 1497.569
1164.047, 1480.983
1164.529, 1458.729
1165.011, 1447.888
1165.493, 1464.145
1165.975, 1477.711
1166.457, 1476.873
1166.940, 1474.138
1167.422, 1479.110
1167.904, 1490.750
1168.386, 1503.741
1168.868, 1516.666
1169.350, 1521.003
1169.832, 1507.153
1170.314, 1489.732
1170.797, 1462.866
1171.279, 1443.935
1171.761, 1460.871
1172.243, 1510.173
1172.725, 1524.286
1173.207, 1502.145
1173.689, 1485.363
1174.171, 1515.392
1174.653, 1542.965
1175.135, 1531.137
1175.618, 1503.826
1176.100, 1504.783
1176.582, 1534.043
1177.064, 1535.145
1177.546, 1500.432
1178.028, 1476.396
1178.510, 1515.277
1178.992, 1561.974
1179.475, 1578.523
1179.957, 1572.137
1180.439, 1566.231
1180.921, 1560.817
1181.403, 1554.500
1181.885, 1547.137
1182.367, 1537.858
1182.849, 1514.191
1183.332, 1497.740
1183.814, 1517.774
1184.296, 1566.850
1184.778, 1579.132
1185.260, 1550.728
1185.742, 1527.181
1186.224, 1522.083
1186.706, 1522.753
1187.188, 1514.935
1187.671, 1507.517
1188.153, 1512.281
1188.635, 1530.244
1189.117, 1540.579
1189.599, 1543.453
1190.081, 1535.022
1190.563, 1507.554
1191.045, 1482.093
1191.527, 1482.367
1192.010, 1498.187
1192.492, 1520.898
1192.974, 1553.098
1193.456, 1565.578
1193.938, 1555.555
1194.420, 1543.986
1194.902, 1541.158
1195.384, 1541.647
1195.867, 1537.657
1196.349, 1533.194
1196.831, 1537.029
1197.313, 1560.102
1197.795, 1551.731
1198.277, 1505.260
1198.759, 1462.873
1199.241, 1450.700
1199.724, 1457.411
1200.206, 1476.599
1200.688, 1502.216
1201.170, 1523.407
1201.652, 1542.294
1202.134, 1545.561
1202.616, 1530.414
1203.098, 1512.618
1203.580, 1501.274
1204.063, 1496.285
1204.545, 1501.992
1205.027, 1513.391
1205.509, 1517.933
1205.991, 1512.182
1206.473, 1503.345
1206.955, 1490.196
1207.437, 1480.765
1207.919, 1484.946
1208.402, 1494.674
1208.884, 1500.322
1209.366, 1502.859
1209.848, 1507.355
1210.330, 1519.102
1210.812, 1519.396
1211.294, 1504.613
1211.776, 1486.489
1212.259, 1467.519
1212.741, 1457.716
1213.223, 1480.384
1213.705, 1526.623
1214.187, 1547.079
1214.669, 1525.640
1215.151, 1520.086
1215.633, 1542.867
1216.115, 1561.455
1216.598, 1522.075
1217.080, 1471.771
1217.562, 1479.089
1218.044, 1536.955
1218.526, 1557.325
1219.008, 1520.577
1219.490, 1495.264
1219.972, 1494.152
1220.454, 1503.600
1220.937, 1511.775
1221.419, 1519.143
1221.901, 1525.032
1222.383, 1529.922
1222.865, 1541.869
1223.347, 1567.045
1223.829, 1572.962
1224.311, 1548.387
1224.794, 1519.750
1225.276, 1521.973
1225.758, 1533.886
1226.240, 1530.632
1226.722, 1510.594
1227.204, 1499.540
1227.686, 1498.289
1228.168, 1504.609
1228.651, 1520.804
1229.133, 1533.989
1229.615, 1521.263
1230.097, 1503.363
1230.579, 1505.424
1231.061, 1528.887
1231.543, 1538.795
1232.025, 1533.477
1232.507, 1527.557
1232.990, 1525.407
1233.472, 1523.635
1233.954, 1514.719
1234.436, 1507.053
1234.918, 1512.343
1235.400, 1530.148
1235.882, 1536.498
1236.364, 1530.284
1236.846, 1528.939
1237.329, 1540.860
1237.811, 1551.271
1238.293, 1534.339
1238.775, 1518.212
1239.257, 1542.416
1239.739, 1602.164
1240.221, 1609.068
1240.703, 1563.329
1241.186, 1526.669
1241.668, 1522.932
1242.150, 1529.443
1242.632, 1537.593
1243.114, 1540.200
1243.596, 1526.837
1244.078, 1500.006
1244.560, 1495.481
1245.042, 1511.539
1245.525, 1528.361
1246.007, 1541.406
1246.489, 1546.719
1246.971, 1530.181
1247.453, 1515.600
1247.935, 1524.454
1248.417, 1552.376
1248.899, 1562.830
1249.381, 1558.078
1249.864, 1551.301
1250.346, 1543.433
1250.828, 1544.083
1251.310, 1571.651
1251.792, 1595.895
1252.274, 1595.925
1252.756, 1576.456
1253.238, 1554.933
1253.721, 1534.847
1254.203, 1531.803
1254.685, 1561.612
1255.167, 1586.242
1255.649, 1592.091
1256.131, 1590.703
1256.613, 1588.664
1257.095, 1584.182
1257.578, 1564.656
1258.060, 1537.061
1258.542, 1523.863
1259.024, 1542.723
1259.506, 1551.202
1259.988, 1536.161
1260.470, 1521.968
1260.952, 1527.018
1261.434, 1539.940
1261.917, 1524.885
1262.399, 1496.863
1262.881, 1491.394
1263.363, 1537.454
1263.845, 1559.403
1264.327, 1544.914
1264.809, 1528.604
1265.291, 1531.496
1265.773, 1544.769
1266.256, 1557.022
1266.738, 1567.746
1267.220, 1575.930
1267.702, 1580.807
1268.184, 1584.849
1268.666, 1588.618
1269.148, 1588.612
1269.630, 1578.983
1270.113, 1569.385
1270.595, 1576.107
1271.077, 1588.375
1271.559, 1587.677
1272.041, 1569.557
1272.523, 1560.808
1273.005, 1562.068
1273.487, 1563.626
1273.969, 1558.419
1274.452, 1554.459
1274.934, 1561.811
1275.416, 1571.983
1275.898, 1574.037
1276.380, 1567.366
1276.862, 1568.204
1277.344, 1575.956
1277.826, 1583.560
1278.308, 1592.244
1278.791, 1591.919
1279.273, 1564.096
1279.755, 1535.644
1280.237, 1527.124
1280.719, 1537.331
1281.201, 1568.626
1281.683, 1612.007
1282.165, 1622.605
1282.648, 1556.308
1283.130, 1505.695
1283.612, 1503.990
1284.094, 1523.662
1284.576, 1557.230
1285.058, 1595.865
1285.540, 1606.422
1286.022, 1597.719
1286.505, 1594.012
1286.987, 1611.662
1287.469, 1610.924
1287.951, 1580.254
1288.433, 1551.055
1288.915, 1541.179
1289.397, 1544.580
##END=



