##NAMES=Ferrierite-Mg
##RRUFFID=R060982
##IDEAL CHEMISTRY=[Mg_2_(K,Na)_2_Ca_0.5_](Si_29_Al_7_)O_72_&#183;18H_2_O
##LOCALITY=Monte Lake, British Columbia, Canada
##OWNER=RRUFF
##SOURCE=Bob Jenkins
##DESCRIPTION=Orange lath shaped crystals in radial aggregates associated with white calcite
##STATUS=The identification of this mineral is confirmed by single-crystal X-ray diffraction and chemical analysis.
##URL=rruff.info/R060982
##MEASURED CHEMISTRY=(Mg_1.70_K_0.83_Fe_0.49_Na_0.36_Ca_0.21_)_Σ=3.49_(Si_30.01_Al_5.99_)_Σ=36_O_72_·20.71H_2_O; = dark phase. Light phase is calcite: (Ca_0.96_Mn_0.02_Mg_0.01_Fe_0.01_)CO_3_
129.2419, 1994.159
129.7240, 2149.161
130.2061, 2294.610
130.6883, 2434.141
131.1704, 2574.940
131.6525, 2727.973
132.1346, 2879.671
132.6167, 3012.040
133.0988, 3122.929
133.5810, 3221.293
134.0631, 3313.334
134.5452, 3398.252
135.0273, 3470.394
135.5094, 3527.224
135.9915, 3569.965
136.4737, 3604.278
136.9558, 3637.365
137.4379, 3644.240
137.9200, 3603.470
138.4021, 3527.501
138.8842, 3440.597
139.3664, 3342.806
139.8485, 3241.450
140.3306, 3167.736
140.8127, 3128.560
141.2948, 3111.114
141.7769, 3101.184
142.2591, 3102.630
142.7412, 3125.567
143.2233, 3182.852
143.7054, 3272.110
144.1875, 3360.940
144.6696, 3442.718
145.1517, 3532.128
145.6339, 3637.070
146.1160, 3754.796
146.5981, 3876.804
147.0802, 3996.858
147.5623, 4114.649
148.0444, 4234.294
148.5266, 4368.117
149.0087, 4491.139
149.4908, 4592.702
149.9729, 4674.412
150.4550, 4743.926
150.9371, 4812.342
151.4193, 4883.070
151.9014, 4925.850
152.3835, 4938.351
152.8656, 4923.695
153.3477, 4874.300
153.8298, 4794.559
154.3120, 4699.334
154.7941, 4600.645
155.2762, 4494.174
155.7583, 4401.707
156.2404, 4325.934
156.7225, 4259.940
157.2047, 4204.043
157.6868, 4156.228
158.1689, 4110.683
158.6510, 4058.128
159.1331, 3987.822
159.6152, 3947.528
160.0974, 3950.523
160.5795, 3967.136
161.0616, 3987.271
161.5437, 4006.762
162.0258, 4021.939
162.5079, 4029.141
162.9901, 4030.359
163.4722, 4015.075
163.9543, 3975.727
164.4364, 3929.031
164.9185, 3883.490
165.4007, 3841.011
165.8828, 3800.973
166.3649, 3762.237
166.8470, 3724.808
167.3291, 3689.718
167.8112, 3657.356
168.2933, 3626.880
168.7755, 3598.548
169.2576, 3572.131
169.7397, 3546.271
170.2218, 3518.468
170.7039, 3485.037
171.1860, 3461.163
171.6682, 3456.743
172.1503, 3454.406
172.6324, 3441.662
173.1145, 3416.473
173.5966, 3384.506
174.0787, 3352.486
174.5609, 3320.288
175.0430, 3288.511
175.5251, 3257.225
176.0072, 3226.315
176.4893, 3195.439
176.9714, 3164.677
177.4536, 3133.900
177.9357, 3102.396
178.4178, 3067.550
178.8999, 3040.839
179.3820, 3031.613
179.8641, 3024.584
180.3463, 3002.541
180.8284, 2963.659
181.3105, 2926.548
181.7926, 2914.941
182.2747, 2941.551
182.7568, 2955.833
183.2390, 2950.319
183.7211, 2936.985
184.2032, 2923.913
184.6853, 2912.896
185.1674, 2905.564
185.6495, 2905.796
186.1317, 2918.590
186.6138, 2916.864
187.0959, 2886.888
187.5780, 2850.270
188.0601, 2824.928
188.5422, 2813.736
189.0244, 2809.869
189.5065, 2807.969
189.9886, 2809.405
190.4707, 2803.273
190.9528, 2780.213
191.4349, 2755.059
191.9170, 2741.100
192.3992, 2739.947
192.8813, 2744.784
193.3634, 2750.954
193.8455, 2759.203
194.3276, 2758.189
194.8097, 2734.679
195.2919, 2710.044
195.7740, 2705.604
196.2561, 2722.759
196.7382, 2742.537
197.2203, 2747.202
197.7024, 2734.705
198.1846, 2725.697
198.6667, 2722.772
199.1488, 2721.872
199.6309, 2719.969
200.1130, 2716.799
200.5951, 2713.084
201.0773, 2707.920
201.5594, 2701.749
202.0415, 2703.937
202.5236, 2727.099
203.0057, 2749.452
203.4878, 2751.844
203.9700, 2734.761
204.4521, 2715.857
204.9342, 2708.346
205.4163, 2712.312
205.8984, 2714.856
206.3805, 2716.288
206.8627, 2716.051
207.3448, 2714.294
207.8269, 2710.805
208.3090, 2703.896
208.7911, 2691.086
209.2732, 2673.449
209.7554, 2660.101
210.2375, 2659.204
210.7196, 2655.202
211.2017, 2632.680
211.6838, 2596.070
212.1659, 2568.343
212.6480, 2566.337
213.1302, 2584.730
213.6123, 2592.048
214.0944, 2578.749
214.5765, 2564.844
215.0586, 2561.966
215.5407, 2567.155
216.0229, 2569.400
216.5050, 2561.742
216.9871, 2547.570
217.4692, 2539.961
217.9513, 2540.175
218.4334, 2544.336
218.9156, 2557.548
219.3977, 2574.229
219.8798, 2577.899
220.3619, 2557.729
220.8440, 2524.114
221.3261, 2508.012
221.8083, 2515.520
222.2904, 2526.563
222.7725, 2535.833
223.2546, 2544.229
223.7367, 2554.579
224.2188, 2569.066
224.7010, 2583.431
225.1831, 2586.464
225.6652, 2573.192
226.1473, 2561.605
226.6294, 2563.750
227.1115, 2567.941
227.5937, 2553.574
228.0758, 2512.727
228.5579, 2460.393
229.0400, 2422.350
229.5221, 2400.983
230.0042, 2385.877
230.4864, 2379.076
230.9685, 2376.476
231.4506, 2374.263
231.9327, 2371.509
232.4148, 2367.058
232.8969, 2357.728
233.3791, 2338.186
233.8612, 2332.447
234.3433, 2359.649
234.8254, 2390.374
235.3075, 2395.272
235.7896, 2370.661
236.2717, 2337.473
236.7539, 2317.377
237.2360, 2313.783
237.7181, 2310.828
238.2002, 2308.662
238.6823, 2307.013
239.1644, 2305.681
239.6466, 2304.674
240.1287, 2304.475
240.6108, 2306.117
241.0929, 2310.022
241.5750, 2308.454
242.0571, 2293.967
242.5393, 2281.730
243.0214, 2279.939
243.5035, 2287.205
243.9856, 2297.962
244.4677, 2308.885
244.9498, 2319.826
245.4320, 2327.193
245.9141, 2334.661
246.3962, 2335.494
246.8783, 2325.187
247.3604, 2306.795
247.8425, 2284.546
248.3247, 2259.628
248.8068, 2234.817
249.2889, 2223.036
249.7710, 2244.200
250.2531, 2255.156
250.7352, 2240.592
251.2174, 2215.319
251.6995, 2199.616
252.1816, 2202.346
252.6637, 2216.215
253.1458, 2223.047
253.6279, 2213.430
254.1101, 2209.174
254.5922, 2217.076
255.0743, 2227.089
255.5564, 2230.128
256.0385, 2223.622
256.5206, 2211.031
257.0027, 2197.284
257.4849, 2179.510
257.9670, 2166.809
258.4491, 2156.770
258.9312, 2152.552
259.4133, 2161.616
259.8954, 2181.823
260.3776, 2199.131
260.8597, 2195.089
261.3418, 2161.904
261.8239, 2143.169
262.3060, 2150.930
262.7881, 2161.795
263.2703, 2167.835
263.7524, 2168.423
264.2345, 2165.281
264.7166, 2158.322
265.1987, 2147.694
265.6808, 2144.874
266.1630, 2163.009
266.6451, 2174.892
267.1272, 2168.703
267.6093, 2151.337
268.0914, 2134.943
268.5735, 2126.284
269.0557, 2124.471
269.5378, 2116.986
270.0199, 2130.239
270.5020, 2137.448
270.9841, 2138.940
271.4662, 2117.584
271.9484, 2125.730
272.4305, 2122.053
272.9126, 2117.892
273.3947, 2130.190
273.8768, 2112.158
274.3589, 2128.105
274.8411, 2126.543
275.3232, 2122.775
275.8053, 2121.178
276.2874, 2122.694
276.7695, 2126.397
277.2516, 2132.581
277.7338, 2141.442
278.2159, 2147.326
278.6980, 2146.305
279.1801, 2144.580
279.6622, 2145.855
280.1443, 2150.363
280.6265, 2158.319
281.1086, 2174.707
281.5907, 2195.865
282.0728, 2203.573
282.5549, 2187.917
283.0370, 2173.686
283.5192, 2182.941
284.0013, 2209.936
284.4834, 2236.681
284.9655, 2260.568
285.4476, 2278.473
285.9297, 2281.502
286.4119, 2266.633
286.8940, 2253.848
287.3761, 2255.098
287.8582, 2268.850
288.3403, 2291.190
288.8224, 2330.368
289.3046, 2370.337
289.7867, 2394.862
290.2688, 2406.273
290.7509, 2422.237
291.2330, 2453.731
291.7151, 2493.708
292.1972, 2524.659
292.6794, 2548.122
293.1615, 2561.349
293.6436, 2557.591
294.1257, 2543.291
294.6078, 2531.035
295.0899, 2524.749
295.5721, 2522.848
296.0542, 2523.610
296.5363, 2528.969
297.0184, 2530.934
297.5005, 2528.651
297.9826, 2522.397
298.4648, 2509.600
298.9469, 2490.700
299.4290, 2473.984
299.9111, 2469.792
300.3932, 2482.384
300.8753, 2482.905
301.3575, 2466.016
301.8396, 2443.360
302.3217, 2415.649
302.8038, 2386.800
303.2859, 2366.334
303.7680, 2362.105
304.2502, 2372.321
304.7323, 2376.378
305.2144, 2374.151
305.6965, 2365.801
306.1786, 2344.604
306.6607, 2319.241
307.1429, 2301.161
307.6250, 2295.833
308.1071, 2299.163
308.5892, 2302.062
309.0713, 2306.729
309.5534, 2306.619
310.0356, 2297.549
310.5177, 2286.734
310.9998, 2278.705
311.4819, 2274.743
311.9640, 2274.522
312.4461, 2278.307
312.9283, 2286.759
313.4104, 2295.680
313.8925, 2311.062
314.3746, 2321.094
314.8567, 2318.286
315.3388, 2305.173
315.8210, 2290.050
316.3031, 2274.992
316.7852, 2262.389
317.2673, 2265.836
317.7494, 2296.844
318.2315, 2321.509
318.7137, 2316.650
319.1958, 2297.870
319.6779, 2287.845
320.1600, 2297.868
320.6421, 2313.787
321.1242, 2314.143
321.6064, 2297.721
322.0885, 2288.764
322.5706, 2299.358
323.0527, 2320.333
323.5348, 2340.160
324.0169, 2359.653
324.4991, 2373.181
324.9812, 2372.106
325.4633, 2362.444
325.9454, 2360.292
326.4275, 2369.862
326.9096, 2386.148
327.3918, 2407.175
327.8739, 2433.255
328.3560, 2449.477
328.8381, 2443.974
329.3202, 2433.131
329.8023, 2433.624
330.2845, 2445.950
330.7666, 2459.751
331.2487, 2467.945
331.7308, 2470.561
332.2129, 2470.787
332.6950, 2469.198
333.1772, 2465.094
333.6593, 2457.758
334.1414, 2447.784
334.6235, 2434.908
335.1056, 2418.577
335.5877, 2402.277
336.0698, 2394.656
336.5519, 2405.398
337.0341, 2411.965
337.5162, 2413.651
337.9983, 2411.613
338.4804, 2404.827
338.9625, 2394.130
339.4446, 2384.140
339.9268, 2380.696
340.4089, 2385.279
340.8910, 2387.923
341.3731, 2389.453
341.8552, 2388.061
342.3373, 2380.262
342.8195, 2368.919
343.3016, 2360.548
343.7837, 2360.319
344.2658, 2364.897
344.7479, 2361.864
345.2300, 2346.465
345.7122, 2333.712
346.1943, 2333.322
346.6764, 2335.485
347.1585, 2328.654
347.6406, 2308.409
348.1227, 2287.875
348.6049, 2281.601
349.0870, 2289.096
349.5691, 2299.107
350.0512, 2314.213
350.5333, 2324.698
351.0154, 2319.082
351.4976, 2298.547
351.9797, 2279.824
352.4618, 2269.672
352.9439, 2265.846
353.4260, 2266.006
353.9081, 2270.186
354.3903, 2275.221
354.8724, 2281.074
355.3545, 2285.920
355.8366, 2281.492
356.3187, 2259.146
356.8008, 2235.970
357.2830, 2217.663
357.7651, 2205.314
358.2472, 2203.388
358.7293, 2215.401
359.2114, 2232.895
359.6935, 2237.162
360.1757, 2219.797
360.6578, 2202.069
361.1399, 2180.905
361.6220, 2162.031
362.1041, 2152.176
362.5862, 2151.108
363.0684, 2151.132
363.5505, 2142.998
364.0326, 2124.696
364.5147, 2119.608
364.9968, 2143.754
365.4789, 2164.761
365.9611, 2173.256
366.4432, 2172.053
366.9253, 2166.087
367.4074, 2157.334
367.8895, 2147.489
368.3716, 2140.006
368.8538, 2133.793
369.3359, 2133.033
369.8180, 2148.604
370.3001, 2163.492
370.7822, 2161.944
371.2643, 2142.231
371.7465, 2122.489
372.2286, 2118.608
372.7107, 2128.097
373.1928, 2137.558
373.6749, 2144.620
374.1570, 2153.748
374.6392, 2173.858
375.1213, 2199.646
375.6034, 2215.165
376.0855, 2208.107
376.5676, 2194.698
377.0497, 2190.063
377.5319, 2193.373
378.0140, 2198.770
378.4961, 2204.869
378.9782, 2209.853
379.4603, 2207.246
379.9424, 2188.825
380.4246, 2180.051
380.9066, 2194.539
381.3888, 2217.890
381.8709, 2233.684
382.3530, 2238.533
382.8351, 2238.739
383.3172, 2240.700
383.7993, 2244.264
384.2815, 2250.937
384.7636, 2267.226
385.2457, 2279.562
385.7278, 2278.203
386.2099, 2269.600
386.6920, 2265.966
387.1742, 2274.102
387.6563, 2291.036
388.1384, 2309.678
388.6205, 2332.712
389.1026, 2351.014
389.5847, 2358.621
390.0669, 2364.289
390.5490, 2374.806
391.0311, 2390.838
391.5132, 2407.436
391.9953, 2422.184
392.4774, 2434.416
392.9596, 2437.895
393.4417, 2425.685
393.9238, 2418.240
394.4059, 2433.285
394.8880, 2462.887
395.3701, 2491.492
395.8523, 2513.889
396.3344, 2535.290
396.8165, 2560.857
397.2986, 2589.798
397.7807, 2617.884
398.2628, 2643.900
398.7450, 2667.472
399.2271, 2687.152
399.7092, 2701.715
400.1913, 2717.078
400.6734, 2731.652
401.1555, 2748.917
401.6377, 2772.093
402.1198, 2801.271
402.6019, 2835.210
403.0840, 2872.645
403.5661, 2913.719
404.0482, 2957.653
404.5304, 3008.875
405.0125, 3058.312
405.4946, 3102.984
405.9767, 3145.328
406.4588, 3187.999
406.9409, 3232.036
407.4231, 3276.800
407.9052, 3324.351
408.3873, 3377.997
408.8694, 3416.651
409.3515, 3418.364
409.8336, 3423.457
410.3158, 3463.169
410.7979, 3527.435
411.2800, 3577.905
411.7621, 3583.243
412.2442, 3565.857
412.7263, 3571.694
413.2085, 3604.161
413.6906, 3627.942
414.1727, 3625.786
414.6548, 3603.632
415.1369, 3573.393
415.6190, 3524.162
416.1012, 3493.772
416.5833, 3517.436
417.0654, 3563.564
417.5475, 3581.416
418.0296, 3560.845
418.5117, 3526.441
418.9939, 3501.980
419.4760, 3488.297
419.9581, 3477.285
420.4402, 3467.607
420.9223, 3461.553
421.4044, 3462.032
421.8866, 3466.373
422.3687, 3470.098
422.8508, 3471.167
423.3329, 3470.942
423.8150, 3472.004
424.2971, 3474.111
424.7793, 3478.201
425.2614, 3486.550
425.7435, 3495.061
426.2256, 3502.187
426.7077, 3507.542
427.1898, 3510.841
427.6719, 3512.176
428.1541, 3511.221
428.6362, 3506.022
429.1183, 3495.400
429.6004, 3485.943
430.0825, 3480.457
430.5646, 3478.308
431.0468, 3479.475
431.5289, 3487.171
432.0110, 3489.405
432.4931, 3473.301
432.9752, 3449.456
433.4573, 3437.970
433.9395, 3443.018
434.4216, 3452.504
434.9037, 3454.629
435.3858, 3448.667
435.8679, 3444.546
436.3500, 3446.894
436.8322, 3445.928
437.3143, 3431.669
437.7964, 3413.108
438.2785, 3406.889
438.7606, 3420.060
439.2427, 3440.900
439.7249, 3446.404
440.2070, 3428.699
440.6891, 3418.978
441.1712, 3431.382
441.6533, 3441.070
442.1354, 3429.568
442.6176, 3403.796
443.0997, 3387.917
443.5818, 3403.302
444.0639, 3432.184
444.5460, 3435.571
445.0281, 3410.450
445.5103, 3386.633
445.9924, 3379.213
446.4745, 3377.127
446.9566, 3360.233
447.4387, 3323.042
447.9208, 3295.094
448.4030, 3299.697
448.8851, 3313.646
449.3672, 3303.260
449.8493, 3266.237
450.3314, 3229.594
450.8135, 3216.925
451.2957, 3225.225
451.7778, 3212.072
452.2599, 3154.697
452.7420, 3105.102
453.2241, 3076.530
453.7062, 3058.969
454.1884, 3044.403
454.6705, 3029.367
455.1526, 3008.272
455.6347, 2968.964
456.1168, 2908.063
456.5989, 2867.562
457.0811, 2863.849
457.5632, 2859.252
458.0453, 2834.780
458.5274, 2798.231
459.0095, 2763.479
459.4916, 2735.775
459.9738, 2710.022
460.4559, 2680.134
460.9380, 2647.061
461.4201, 2617.785
461.9022, 2595.341
462.3843, 2574.204
462.8665, 2547.389
463.3486, 2514.584
463.8307, 2481.281
464.3128, 2439.857
464.7949, 2405.259
465.2770, 2393.411
465.7592, 2396.973
466.2413, 2395.693
466.7234, 2378.924
467.2055, 2353.431
467.6876, 2335.996
468.1697, 2334.799
468.6519, 2325.443
469.1340, 2298.757
469.6161, 2271.697
470.0982, 2255.725
470.5803, 2248.922
471.0624, 2240.716
471.5445, 2223.434
472.0266, 2200.554
472.5088, 2179.313
472.9909, 2159.128
473.4730, 2144.338
473.9551, 2140.922
474.4372, 2140.571
474.9193, 2130.176
475.4015, 2107.316
475.8836, 2088.626
476.3657, 2085.232
476.8478, 2086.742
477.3299, 2082.525
477.8120, 2071.152
478.2942, 2050.490
478.7763, 2015.557
479.2584, 1972.405
479.7405, 1954.827
480.2226, 1993.712
480.7047, 2019.845
481.1869, 2021.760
481.6690, 2012.653
482.1511, 2000.728
482.6332, 1989.130
483.1153, 1981.721
483.5974, 1985.215
484.0796, 1997.163
484.5617, 1995.341
485.0438, 1970.606
485.5259, 1952.370
486.0080, 1963.345
486.4901, 1984.130
486.9723, 1990.940
487.4544, 1976.768
487.9365, 1963.774
488.4186, 1971.644
488.9007, 1988.357
489.3828, 1987.806
489.8650, 1965.979
490.3471, 1944.984
490.8292, 1944.049
491.3113, 1961.576
491.7934, 1969.888
492.2755, 1962.998
492.7577, 1955.712
493.2398, 1953.658
493.7219, 1951.586
494.2040, 1941.167
494.6861, 1921.642
495.1682, 1902.861
495.6504, 1897.124
496.1325, 1904.417
496.6146, 1906.015
497.0967, 1899.750
497.5788, 1891.222
498.0609, 1881.318
498.5431, 1871.237
499.0252, 1862.915
499.5073, 1857.154
499.9894, 1851.713
500.4715, 1845.065
500.9536, 1837.524
501.4358, 1830.109
501.9179, 1823.111
502.4000, 1814.776
502.8821, 1803.410
503.3642, 1789.175
503.8463, 1774.585
504.3285, 1758.137
504.8106, 1743.239
505.2927, 1726.132
505.7748, 1713.285
506.2569, 1716.709
506.7390, 1737.311
507.2212, 1758.768
507.7033, 1761.264
508.1854, 1744.675
508.6675, 1733.654
509.1496, 1732.130
509.6317, 1729.707
510.1139, 1719.703
510.5960, 1707.173
511.0781, 1698.319
511.5602, 1694.351
512.0423, 1694.455
512.5244, 1703.215
513.0065, 1714.665
513.4886, 1713.940
513.9708, 1698.426
514.4529, 1681.425
514.9350, 1673.815
515.4171, 1674.830
515.8992, 1674.826
516.3813, 1675.390
516.8635, 1673.090
517.3456, 1661.140
517.8277, 1649.419
518.3098, 1650.452
518.7919, 1665.120
519.2740, 1681.473
519.7562, 1688.320
520.2383, 1686.238
520.7204, 1680.214
521.2025, 1666.994
521.6846, 1657.265
522.1667, 1658.345
522.6489, 1664.336
523.1310, 1669.991
523.6131, 1675.420
524.0952, 1676.725
524.5773, 1667.408
525.0594, 1654.635
525.5416, 1650.445
526.0237, 1655.311
526.5058, 1659.469
526.9879, 1655.322
527.4700, 1645.806
527.9521, 1644.843
528.4343, 1667.461
528.9164, 1678.474
529.3985, 1664.717
529.8806, 1647.540
530.3627, 1647.093
530.8448, 1661.310
531.3270, 1670.463
531.8091, 1656.165
532.2912, 1628.736
532.7733, 1619.449
533.2554, 1631.544
533.7375, 1641.932
534.2197, 1640.942
534.7018, 1636.047
535.1839, 1636.325
535.6660, 1641.668
536.1481, 1651.729
536.6302, 1672.502
537.1124, 1693.125
537.5945, 1701.395
538.0766, 1700.721
538.5587, 1704.537
539.0408, 1719.943
539.5229, 1740.972
540.0051, 1753.728
540.4872, 1753.657
540.9693, 1756.313
541.4514, 1768.871
541.9335, 1777.557
542.4156, 1771.150
542.8978, 1756.186
543.3799, 1748.033
543.8620, 1754.892
544.3441, 1768.262
544.8262, 1780.606
545.3083, 1791.194
545.7905, 1794.154
546.2726, 1786.271
546.7547, 1777.255
547.2368, 1777.793
547.7189, 1788.516
548.2010, 1794.077
548.6832, 1785.250
549.1653, 1781.858
549.6474, 1799.370
550.1295, 1823.030
550.6116, 1830.616
551.0938, 1817.338
551.5759, 1799.733
552.0580, 1796.803
552.5401, 1808.106
553.0222, 1819.528
553.5043, 1834.775
553.9865, 1842.766
554.4686, 1830.481
554.9507, 1811.464
555.4328, 1802.373
555.9149, 1807.011
556.3970, 1811.924
556.8792, 1810.589
557.3613, 1805.686
557.8434, 1800.960
558.3255, 1796.497
558.8076, 1788.938
559.2897, 1775.075
559.7719, 1758.753
560.2540, 1753.714
560.7361, 1771.567
561.2182, 1780.614
561.7003, 1778.355
562.1824, 1768.994
562.6646, 1750.701
563.1467, 1727.173
563.6288, 1707.745
564.1109, 1698.253
564.5930, 1694.408
565.0751, 1691.972
565.5573, 1690.436
566.0394, 1683.661
566.5215, 1668.615
567.0036, 1651.623
567.4857, 1639.273
567.9678, 1631.978
568.4500, 1626.583
568.9321, 1621.296
569.4142, 1619.914
569.8963, 1627.805
570.3784, 1638.939
570.8605, 1645.028
571.3427, 1643.873
571.8248, 1639.427
572.3069, 1635.943
572.7890, 1633.296
573.2711, 1628.956
573.7532, 1622.177
574.2354, 1615.614
574.7175, 1610.633
575.1996, 1606.480
575.6817, 1601.356
576.1638, 1594.061
576.6459, 1591.213
577.1281, 1605.581
577.6102, 1618.859
578.0923, 1603.009
578.5744, 1565.080
579.0565, 1541.490
579.5386, 1553.857
580.0208, 1586.942
580.5029, 1604.509
580.9850, 1602.513
581.4671, 1595.119
581.9492, 1571.863
582.4313, 1553.740
582.9134, 1555.115
583.3955, 1568.421
583.8776, 1575.226
584.3597, 1566.244
584.8419, 1554.544
585.3240, 1552.994
585.8061, 1558.173
586.2882, 1560.452
586.7703, 1557.861
587.2524, 1553.477
587.7346, 1549.199
588.2167, 1545.328
588.6988, 1546.425
589.1809, 1562.428
589.6630, 1570.565
590.1451, 1562.835
590.6273, 1550.126
591.1094, 1539.905
591.5915, 1533.799
592.0736, 1532.053
592.5557, 1537.922
593.0378, 1546.012
593.5200, 1542.480
594.0021, 1527.475
594.4842, 1519.790
594.9663, 1527.098
595.4484, 1540.973
595.9305, 1551.946
596.4127, 1560.049
596.8948, 1563.526
597.3769, 1557.775
597.8590, 1552.384
598.3411, 1551.210
598.8232, 1553.054
599.3054, 1555.964
599.7875, 1559.357
600.2696, 1563.845
600.7517, 1571.042
601.2338, 1580.434
601.7159, 1586.811
602.1981, 1589.494
602.6802, 1591.470
603.1623, 1592.995
603.6444, 1595.327
604.1265, 1600.808
604.6086, 1610.243
605.0908, 1618.980
605.5729, 1625.891
606.0550, 1631.712
606.5371, 1637.132
607.0192, 1641.913
607.5013, 1645.563
607.9835, 1647.836
608.4656, 1648.490
608.9477, 1645.552
609.4298, 1637.806
609.9119, 1637.355
610.3940, 1647.863
610.8762, 1660.427
611.3583, 1671.940
611.8404, 1681.729
612.3225, 1688.860
612.8046, 1694.015
613.2867, 1694.247
613.7689, 1685.831
614.2510, 1673.177
614.7331, 1661.951
615.2152, 1651.943
615.6973, 1638.572
616.1794, 1618.356
616.6616, 1595.360
617.1437, 1580.625
617.6258, 1577.531
618.1079, 1571.612
618.5900, 1557.964
619.0721, 1545.353
619.5543, 1539.708
620.0364, 1538.578
620.5185, 1536.187
621.0006, 1530.710
621.4827, 1524.333
621.9648, 1519.530
622.4470, 1514.349
622.9291, 1504.101
623.4112, 1488.923
623.8933, 1475.607
624.3754, 1470.128
624.8575, 1469.521
625.3397, 1460.471
625.8218, 1435.565
626.3039, 1418.534
626.7860, 1418.417
627.2681, 1421.761
627.7502, 1421.475
628.2324, 1418.400
628.7145, 1416.648
629.1966, 1419.549
629.6787, 1421.531
630.1608, 1418.521
630.6429, 1411.124
631.1251, 1397.584
631.6072, 1378.355
632.0893, 1364.962
632.5714, 1368.956
633.0535, 1386.860
633.5356, 1394.123
634.0178, 1383.968
634.4999, 1375.329
634.9820, 1367.782
635.4641, 1364.969
635.9462, 1373.565
636.4283, 1390.151
636.9105, 1400.676
637.3926, 1397.947
637.8747, 1388.530
638.3568, 1372.510
638.8389, 1355.101
639.3210, 1350.842
639.8032, 1362.730
640.2853, 1379.522
640.7674, 1391.827
641.2495, 1399.444
641.7316, 1398.871
642.2137, 1383.473
642.6959, 1371.319
643.1780, 1366.814
643.6601, 1365.001
644.1422, 1364.278
644.6243, 1363.515
645.1064, 1358.941
645.5886, 1343.537
646.0707, 1329.510
646.5528, 1330.982
647.0349, 1342.458
647.5170, 1351.261
647.9991, 1354.307
648.4813, 1353.428
648.9634, 1349.984
649.4455, 1344.204
649.9276, 1338.270
650.4097, 1330.098
650.8918, 1325.582
651.3740, 1327.950
651.8561, 1332.343
652.3382, 1336.102
652.8203, 1338.900
653.3024, 1340.565
653.7845, 1340.697
654.2667, 1340.011
654.7488, 1338.246
655.2309, 1336.268
655.7130, 1335.623
656.1951, 1336.725
656.6772, 1340.217
657.1594, 1347.253
657.6415, 1356.945
658.1236, 1363.134
658.6057, 1365.672
659.0878, 1364.988
659.5699, 1356.976
660.0521, 1349.222
660.5342, 1347.858
661.0163, 1351.587
661.4984, 1354.068
661.9805, 1353.711
662.4626, 1351.027
662.9448, 1344.797
663.4269, 1337.073
663.9090, 1330.075
664.3911, 1324.756
664.8732, 1323.555
665.3553, 1329.146
665.8375, 1339.493
666.3196, 1346.580
666.8017, 1350.696
667.2838, 1350.314
667.7659, 1342.751
668.2480, 1333.189
668.7302, 1321.986
669.2123, 1311.535
669.6944, 1311.209
670.1765, 1335.161
670.6586, 1352.694
671.1407, 1343.452
671.6229, 1323.497
672.1050, 1310.899
672.5870, 1307.988
673.0692, 1310.727
673.5513, 1317.551
674.0334, 1324.539
674.5155, 1318.740
674.9976, 1297.618
675.4797, 1289.607
675.9619, 1304.350
676.4440, 1322.454
676.9261, 1332.162
677.4082, 1333.396
677.8903, 1326.329
678.3724, 1299.661
678.8546, 1282.898
679.3367, 1288.714
679.8188, 1303.109
680.3009, 1320.202
680.7830, 1334.907
681.2651, 1336.077
681.7473, 1315.866
682.2294, 1290.705
682.7115, 1287.764
683.1936, 1304.031
683.6757, 1314.592
684.1578, 1316.480
684.6400, 1314.187
685.1221, 1309.692
685.6042, 1303.517
686.0863, 1296.674
686.5684, 1284.056
687.0505, 1280.789
687.5327, 1297.828
688.0148, 1313.744
688.4969, 1315.715
688.9790, 1308.577
689.4611, 1301.679
689.9432, 1298.144
690.4254, 1296.235
690.9075, 1295.912
691.3896, 1295.629
691.8717, 1289.462
692.3538, 1278.042
692.8359, 1273.994
693.3181, 1284.782
693.8002, 1300.413
694.2823, 1302.250
694.7644, 1284.402
695.2465, 1277.971
695.7286, 1296.659
696.2108, 1310.117
696.6929, 1305.520
697.1750, 1293.532
697.6571, 1286.153
698.1392, 1285.167
698.6213, 1286.176
699.1035, 1289.939
699.5856, 1292.343
700.0677, 1285.325
700.5498, 1274.005
701.0319, 1273.884
701.5140, 1289.042
701.9962, 1304.745
702.4783, 1304.318
702.9604, 1289.188
703.4425, 1271.834
703.9246, 1248.080
704.4067, 1235.261
704.8889, 1244.346
705.3710, 1259.847
705.8531, 1264.956
706.3352, 1261.246
706.8173, 1262.840
707.2994, 1279.813
707.7816, 1292.717
708.2637, 1292.292
708.7458, 1284.767
709.2279, 1273.452
709.7100, 1261.473
710.1921, 1256.780
710.6743, 1266.536
711.1564, 1282.394
711.6385, 1290.130
712.1206, 1290.024
712.6027, 1283.717
713.0848, 1269.918
713.5670, 1258.799
714.0491, 1258.663
714.5312, 1266.895
715.0133, 1272.668
715.4954, 1276.911
715.9775, 1276.995
716.4597, 1268.405
716.9418, 1260.226
717.4239, 1257.869
717.9060, 1259.463
718.3881, 1261.215
718.8702, 1262.160
719.3524, 1262.003
719.8345, 1259.264
720.3166, 1255.969
720.7987, 1254.635
721.2808, 1255.568
721.7629, 1260.270
722.2451, 1269.695
722.7272, 1278.255
723.2093, 1275.861
723.6914, 1261.327
724.1735, 1252.712
724.6556, 1251.369
725.1378, 1253.344
725.6199, 1260.872
726.1020, 1268.412
726.5841, 1268.391
727.0662, 1260.438
727.5483, 1254.220
728.0305, 1247.884
728.5126, 1247.766
728.9947, 1262.851
729.4768, 1282.970
729.9589, 1294.838
730.4410, 1296.813
730.9232, 1296.691
731.4053, 1301.794
731.8874, 1306.448
732.3695, 1295.209
732.8516, 1271.000
733.3337, 1257.935
733.8159, 1261.700
734.2980, 1271.772
734.7801, 1280.705
735.2622, 1288.197
735.7443, 1292.862
736.2264, 1292.968
736.7086, 1293.256
737.1907, 1289.320
737.6728, 1290.226
738.1549, 1309.029
738.6370, 1334.194
739.1191, 1340.901
739.6013, 1318.178
740.0834, 1296.242
740.5655, 1292.717
741.0476, 1297.816
741.5297, 1302.771
742.0118, 1306.682
742.4940, 1311.259
742.9761, 1317.064
743.4582, 1318.850
743.9403, 1306.529
744.4224, 1282.178
744.9045, 1267.656
745.3867, 1263.696
745.8688, 1265.784
746.3509, 1273.681
746.8330, 1285.031
747.3151, 1298.785
747.7972, 1315.688
748.2794, 1323.172
748.7615, 1312.724
749.2436, 1304.414
749.7257, 1307.129
750.2078, 1310.505
750.6899, 1299.554
751.1721, 1279.245
751.6542, 1273.957
752.1363, 1303.246
752.6184, 1336.445
753.1005, 1342.162
753.5826, 1332.636
754.0648, 1332.367
754.5469, 1342.810
755.0290, 1348.953
755.5111, 1341.180
755.9932, 1326.236
756.4753, 1317.922
756.9575, 1316.951
757.4396, 1316.314
757.9217, 1315.065
758.4038, 1315.911
758.8859, 1320.995
759.3680, 1328.446
759.8502, 1335.683
760.3323, 1343.358
760.8144, 1347.509
761.2965, 1344.050
761.7786, 1341.317
762.2607, 1343.055
762.7428, 1347.279
763.2249, 1352.706
763.7070, 1358.409
764.1891, 1361.374
764.6713, 1358.042
765.1534, 1352.707
765.6355, 1351.465
766.1176, 1352.348
766.5997, 1349.063
767.0818, 1340.845
767.5640, 1332.152
768.0461, 1324.776
768.5282, 1323.370
769.0103, 1347.665
769.4924, 1406.590
769.9745, 1439.681
770.4567, 1430.432
770.9388, 1416.809
771.4209, 1420.968
771.9030, 1435.532
772.3851, 1443.437
772.8672, 1441.280
773.3494, 1444.252
773.8315, 1461.004
774.3136, 1475.710
774.7957, 1479.991
775.2778, 1477.794
775.7599, 1472.403
776.2421, 1465.571
776.7242, 1464.008
777.2063, 1475.121
777.6884, 1491.684
778.1705, 1507.261
778.6526, 1520.756
779.1348, 1528.564
779.6169, 1530.284
780.0990, 1530.370
780.5811, 1532.060
781.0632, 1535.483
781.5453, 1541.618
782.0275, 1551.067
782.5096, 1558.065
782.9917, 1559.764
783.4738, 1564.727
783.9559, 1584.730
784.4380, 1608.762
784.9202, 1605.496
785.4023, 1555.085
785.8844, 1532.177
786.3665, 1565.247
786.8486, 1598.066
787.3307, 1607.000
787.8129, 1601.218
788.2950, 1591.796
788.7771, 1581.342
789.2592, 1571.814
789.7413, 1562.971
790.2234, 1556.830
790.7056, 1558.508
791.1877, 1563.489
791.6698, 1564.166
792.1519, 1558.616
792.6340, 1545.407
793.1161, 1521.954
793.5983, 1494.749
794.0804, 1479.435
794.5625, 1475.773
795.0446, 1471.981
795.5267, 1467.361
796.0089, 1459.502
796.4910, 1446.839
796.9731, 1430.280
797.4552, 1411.042
797.9373, 1386.109
798.4194, 1368.201
798.9016, 1361.841
799.3837, 1357.256
799.8658, 1354.852
800.3479, 1351.075
800.8300, 1340.453
801.3121, 1323.483
801.7943, 1310.018
802.2764, 1300.375
802.7585, 1298.596
803.2406, 1315.179
803.7227, 1335.982
804.2048, 1344.008
804.6870, 1338.850
805.1691, 1327.519
805.6512, 1312.456
806.1333, 1300.511
806.6154, 1305.694
807.0975, 1321.183
807.5797, 1323.170
808.0618, 1310.842
808.5439, 1298.797
809.0260, 1293.370
809.5081, 1293.650
809.9902, 1299.574
810.4724, 1311.505
810.9545, 1316.562
811.4366, 1313.428
811.9187, 1306.556
812.4008, 1294.324
812.8829, 1281.863
813.3651, 1273.528
813.8472, 1269.222
814.3293, 1268.066
814.8114, 1275.539
815.2935, 1278.368
815.7756, 1269.175
816.2578, 1259.656
816.7399, 1256.142
817.2220, 1258.829
817.7041, 1269.760
818.1862, 1291.184
818.6683, 1303.944
819.1505, 1289.988
819.6326, 1265.438
820.1147, 1242.326
820.5968, 1224.326
821.0789, 1220.517
821.5610, 1231.684
822.0432, 1243.790
822.5253, 1244.779
823.0074, 1237.136
823.4895, 1223.756
823.9716, 1205.749
824.4537, 1199.032
824.9359, 1207.486
825.4180, 1216.839
825.9001, 1217.670
826.3822, 1212.337
826.8643, 1206.435
827.3464, 1198.631
827.8286, 1195.157
828.3107, 1201.843
828.7928, 1203.412
829.2749, 1186.381
829.7570, 1165.967
830.2391, 1164.036
830.7213, 1181.226
831.2034, 1187.240
831.6855, 1168.002
832.1676, 1150.097
832.6497, 1140.447
833.1318, 1137.189
833.6140, 1142.626
834.0961, 1152.691
834.5782, 1156.435
835.0603, 1147.847
835.5424, 1137.901
836.0245, 1134.708
836.5067, 1135.159
836.9888, 1136.225
837.4709, 1137.261
837.9530, 1137.417
838.4351, 1136.433
838.9172, 1135.091
839.3994, 1134.819
839.8815, 1134.509
840.3636, 1129.671
840.8457, 1120.795
841.3278, 1113.918
841.8099, 1110.326
842.2921, 1109.494
842.7742, 1111.351
843.2563, 1115.160
843.7384, 1118.757
844.2205, 1122.409
844.7026, 1124.653
845.1848, 1124.417
845.6669, 1124.711
846.1490, 1128.311
846.6311, 1132.211
847.1132, 1131.607
847.5953, 1126.171
848.0775, 1120.217
848.5596, 1113.739
849.0417, 1106.987
849.5238, 1096.812
850.0059, 1088.956
850.4880, 1090.496
850.9702, 1098.694
851.4523, 1103.896
851.9343, 1102.305
852.4164, 1099.298
852.8986, 1098.458
853.3807, 1097.167
853.8628, 1091.400
854.3449, 1083.436
854.8270, 1077.994
855.3091, 1076.618
855.7913, 1078.258
856.2734, 1082.085
856.7555, 1088.298
857.2376, 1100.809
857.7197, 1116.100
858.2018, 1120.619
858.6840, 1112.510
859.1661, 1100.693
859.6482, 1090.596
860.1303, 1083.690
860.6124, 1084.722
861.0945, 1093.806
861.5767, 1099.270
862.0588, 1100.297
862.5409, 1099.240
863.0230, 1096.254
863.5051, 1093.405
863.9872, 1093.782
864.4694, 1097.406
864.9515, 1097.896
865.4336, 1092.419
865.9157, 1089.048
866.3978, 1080.861
866.8799, 1095.040
867.3621, 1103.176
867.8442, 1105.593
868.3263, 1085.163
868.8084, 1094.235
869.2905, 1091.484
869.7726, 1088.249
870.2548, 1101.473
870.7369, 1084.366
871.2190, 1097.329
871.7011, 1098.289
872.1832, 1088.175
872.6653, 1089.610
873.1475, 1098.493
873.6296, 1105.570
874.1117, 1101.333
874.5938, 1093.772
875.0759, 1094.484
875.5580, 1100.790
876.0402, 1101.315
876.5223, 1091.255
877.0044, 1078.792
877.4865, 1068.703
877.9686, 1063.751
878.4507, 1075.268
878.9329, 1097.094
879.4150, 1103.235
879.8971, 1088.676
880.3792, 1074.935
880.8613, 1079.911
881.3434, 1095.211
881.8256, 1100.188
882.3077, 1095.275
882.7898, 1090.789
883.2719, 1087.409
883.7540, 1086.507
884.2361, 1089.391
884.7183, 1092.860
885.2004, 1091.687
885.6825, 1085.788
886.1646, 1086.012
886.6467, 1097.516
887.1288, 1100.747
887.6110, 1086.537
888.0931, 1071.139
888.5752, 1065.797
889.0573, 1068.777
889.5394, 1075.084
890.0215, 1089.527
890.5037, 1096.603
890.9858, 1088.165
891.4679, 1082.053
891.9500, 1087.548
892.4321, 1096.474
892.9142, 1101.964
893.3964, 1102.943
893.8785, 1096.539
894.3606, 1067.916
894.8427, 1050.743
895.3248, 1069.046
895.8069, 1091.903
896.2891, 1091.501
896.7712, 1076.357
897.2533, 1067.796
897.7354, 1071.894
898.2175, 1078.784
898.6996, 1084.864
899.1818, 1088.675
899.6639, 1086.710
900.1460, 1082.599
900.6281, 1083.513
901.1102, 1088.925
901.5923, 1091.032
902.0745, 1084.816
902.5566, 1076.565
903.0387, 1073.817
903.5208, 1074.638
904.0029, 1075.709
904.4850, 1076.612
904.9672, 1076.410
905.4493, 1074.919
905.9314, 1074.304
906.4135, 1077.070
906.8956, 1081.674
907.3777, 1084.781
907.8599, 1086.175
908.3420, 1081.483
908.8241, 1069.919
909.3062, 1064.041
909.7883, 1071.449
910.2704, 1084.203
910.7526, 1089.635
911.2347, 1087.778
911.7168, 1080.697
912.1989, 1065.691
912.6810, 1060.755
913.1631, 1074.584
913.6453, 1087.463
914.1274, 1081.878
914.6095, 1064.069
915.0916, 1056.179
915.5737, 1061.461
916.0558, 1068.114
916.5380, 1079.835
917.0201, 1086.441
917.5022, 1081.349
917.9843, 1071.849
918.4664, 1066.760
918.9485, 1065.798
919.4307, 1060.475
919.9128, 1041.621
920.3949, 1032.044
920.8770, 1042.168
921.3591, 1053.104
921.8412, 1053.890
922.3234, 1049.327
922.8055, 1047.217
923.2876, 1048.418
923.7697, 1051.612
924.2518, 1059.702
924.7339, 1065.710
925.2161, 1068.223
925.6982, 1066.491
926.1803, 1056.278
926.6624, 1041.702
927.1445, 1033.735
927.6266, 1036.621
928.1088, 1041.195
928.5909, 1041.661
929.0730, 1043.477
929.5551, 1051.273
930.0372, 1062.772
930.5193, 1078.120
931.0015, 1094.299
931.4836, 1099.629
931.9657, 1084.331
932.4478, 1065.912
932.9299, 1057.532
933.4120, 1055.609
933.8942, 1057.409
934.3763, 1061.380
934.8584, 1065.976
935.3405, 1070.288
935.8226, 1071.103
936.3047, 1063.072
936.7869, 1054.134
937.2690, 1056.865
937.7511, 1066.687
938.2332, 1075.134
938.7153, 1080.652
939.1974, 1082.158
939.6796, 1079.177
940.1617, 1074.097
940.6438, 1068.654
941.1259, 1063.699
941.6080, 1062.551
942.0901, 1064.074
942.5722, 1061.714
943.0543, 1054.796
943.5364, 1051.024
944.0186, 1055.476
944.5007, 1064.039
944.9828, 1072.051
945.4649, 1078.394
945.9470, 1071.020
946.4291, 1050.291
946.9113, 1039.455
947.3934, 1045.418
947.8755, 1055.368
948.3576, 1059.179
948.8397, 1057.640
949.3218, 1050.524
949.8040, 1037.216
950.2861, 1035.886
950.7682, 1049.139
951.2503, 1063.162
951.7324, 1073.802
952.2145, 1079.689
952.6967, 1078.766
953.1788, 1071.996
953.6609, 1063.968
954.1430, 1052.424
954.6251, 1052.760
955.1072, 1072.551
955.5894, 1084.793
956.0715, 1073.886
956.5536, 1052.839
957.0357, 1039.006
957.5178, 1032.357
957.9999, 1034.876
958.4821, 1053.102
958.9642, 1063.372
959.4463, 1059.452
959.9284, 1052.173
960.4105, 1045.666
960.8926, 1041.606
961.3748, 1043.689
961.8569, 1052.949
962.3390, 1061.729
962.8211, 1071.895
963.3032, 1078.419
963.7853, 1080.574
964.2675, 1078.463
964.7496, 1069.216
965.2317, 1056.352
965.7138, 1049.162
966.1959, 1048.477
966.6780, 1051.055
967.1602, 1061.075
967.6423, 1068.795
968.1244, 1071.264
968.6065, 1070.978
969.0886, 1068.458
969.5707, 1064.834
970.0529, 1064.265
970.5350, 1069.484
971.0171, 1072.068
971.4992, 1066.727
971.9813, 1064.289
972.4634, 1073.000
972.9456, 1083.351
973.4277, 1085.721
973.9098, 1080.676
974.3919, 1074.046
974.8740, 1062.989
975.3561, 1057.080
975.8383, 1062.427
976.3204, 1068.097
976.8025, 1068.717
977.2846, 1066.658
977.7667, 1064.043
978.2488, 1061.491
978.7310, 1061.657
979.2131, 1066.627
979.6952, 1072.071
980.1773, 1081.607
980.6594, 1086.354
981.1415, 1073.886
981.6237, 1056.883
982.1058, 1056.729
982.5879, 1074.441
983.0700, 1084.396
983.5521, 1069.978
984.0342, 1059.277
984.5164, 1068.333
984.9985, 1078.033
985.4806, 1071.232
985.9627, 1056.495
986.4448, 1050.590
986.9269, 1056.125
987.4091, 1058.774
987.8912, 1048.394
988.3733, 1040.803
988.8554, 1047.203
989.3375, 1054.975
989.8196, 1053.000
990.3018, 1023.350
990.7839, 1051.076
991.2660, 1066.716
991.7481, 1070.919
992.2302, 1029.429
992.7123, 1046.942
993.1945, 1040.809
993.6766, 1033.707
994.1587, 1059.524
994.6408, 1024.680
995.1229, 1054.698
995.6050, 1056.447
996.0872, 1054.509
996.5693, 1044.132
997.0514, 1038.053
997.5335, 1049.752
998.0156, 1063.824
998.4977, 1062.885
998.9799, 1051.585
999.4620, 1044.876
999.9441, 1047.092
1000.426, 1050.235
1000.908, 1049.509
1001.390, 1050.047
1001.873, 1055.494
1002.355, 1063.242
1002.837, 1072.807
1003.319, 1081.860
1003.801, 1086.253
1004.283, 1085.210
1004.765, 1076.333
1005.247, 1047.354
1005.729, 1023.194
1006.212, 1021.961
1006.694, 1030.797
1007.176, 1037.617
1007.658, 1041.424
1008.140, 1044.683
1008.622, 1048.243
1009.104, 1050.457
1009.586, 1051.225
1010.069, 1049.693
1010.551, 1039.592
1011.033, 1031.262
1011.515, 1040.715
1011.997, 1061.460
1012.479, 1071.966
1012.961, 1065.069
1013.443, 1053.706
1013.925, 1038.501
1014.408, 1025.981
1014.890, 1020.354
1015.372, 1018.926
1015.854, 1020.067
1016.336, 1022.611
1016.818, 1024.092
1017.300, 1023.338
1017.782, 1024.304
1018.265, 1032.811
1018.747, 1038.270
1019.229, 1033.755
1019.711, 1024.469
1020.193, 1013.389
1020.675, 1002.625
1021.157, 997.0118
1021.639, 999.2567
1022.121, 999.2085
1022.604, 988.8893
1023.086, 981.3234
1023.568, 985.0918
1024.050, 992.4156
1024.532, 996.6939
1025.014, 997.8931
1025.496, 996.7408
1025.978, 991.0572
1026.460, 993.4863
1026.943, 1020.774
1027.425, 1039.579
1027.907, 1026.911
1028.389, 1008.325
1028.871, 1008.110
1029.353, 1020.721
1029.835, 1026.632
1030.317, 1020.320
1030.800, 1019.836
1031.282, 1037.943
1031.764, 1049.701
1032.246, 1040.851
1032.728, 1028.206
1033.210, 1023.848
1033.692, 1026.591
1034.174, 1032.607
1034.656, 1042.556
1035.139, 1051.515
1035.621, 1064.397
1036.103, 1068.876
1036.585, 1055.010
1037.067, 1038.429
1037.549, 1027.612
1038.031, 1022.800
1038.513, 1025.385
1038.995, 1038.180
1039.478, 1045.650
1039.960, 1045.476
1040.442, 1043.376
1040.924, 1038.365
1041.406, 1033.771
1041.888, 1029.673
1042.370, 1028.547
1042.852, 1037.463
1043.335, 1059.404
1043.817, 1066.248
1044.299, 1048.348
1044.781, 1035.180
1045.263, 1030.383
1045.745, 1032.873
1046.227, 1046.287
1046.709, 1062.201
1047.192, 1066.612
1047.674, 1059.377
1048.156, 1048.268
1048.638, 1029.233
1049.120, 1020.613
1049.602, 1029.067
1050.084, 1035.381
1050.566, 1027.338
1051.048, 1017.511
1051.531, 1026.119
1052.013, 1049.971
1052.495, 1052.117
1052.977, 1017.707
1053.459, 1045.613
1053.941, 1061.432
1054.423, 1065.815
1054.905, 1024.505
1055.387, 1042.197
1055.870, 1036.244
1056.352, 1029.321
1056.834, 1055.318
1057.316, 1020.654
1057.798, 1046.128
1058.280, 1047.597
1058.762, 1060.052
1059.244, 1021.260
1059.727, 1013.888
1060.209, 1023.800
1060.691, 1041.056
1061.173, 1037.421
1061.655, 1018.085
1062.137, 1009.902
1062.619, 1013.705
1063.101, 1025.227
1063.583, 1042.121
1064.066, 1049.818
1064.548, 1035.110
1065.030, 1013.496
1065.512, 1011.227
1065.994, 1020.984
1066.476, 1025.607
1066.958, 1025.852
1067.440, 1027.838
1067.922, 1032.195
1068.405, 1032.320
1068.887, 1023.006
1069.369, 1017.124
1069.851, 1038.797
1070.333, 1064.909
1070.815, 1057.410
1071.297, 1031.884
1071.779, 1019.515
1072.262, 1021.923
1072.744, 1022.973
1073.226, 1015.626
1073.708, 1008.017
1074.190, 1005.060
1074.672, 1005.665
1075.154, 1012.870
1075.636, 1020.164
1076.118, 1015.238
1076.601, 1004.326
1077.083, 1008.145
1077.565, 1032.692
1078.047, 1049.019
1078.529, 1034.832
1079.011, 1021.183
1079.493, 1025.678
1079.975, 1034.319
1080.458, 1037.735
1080.940, 1036.013
1081.422, 1028.076
1081.904, 1014.280
1082.386, 1009.235
1082.868, 1024.836
1083.350, 1036.314
1083.832, 1036.613
1084.314, 1034.308
1084.797, 1032.288
1085.279, 1031.143
1085.761, 1033.625
1086.243, 1038.648
1086.725, 1034.926
1087.207, 1010.513
1087.689, 1001.597
1088.171, 1021.599
1088.653, 1032.522
1089.136, 1014.515
1089.618, 995.1823
1090.100, 1002.160
1090.582, 1025.232
1091.064, 1028.844
1091.546, 1006.931
1092.028, 1003.583
1092.510, 1023.314
1092.993, 1041.621
1093.475, 1054.527
1093.957, 1053.527
1094.439, 1029.572
1094.921, 1000.200
1095.403, 999.7287
1095.885, 1023.483
1096.367, 1034.418
1096.849, 1033.324
1097.332, 1028.727
1097.814, 1022.443
1098.296, 1021.799
1098.778, 1030.360
1099.260, 1038.492
1099.742, 1034.977
1100.224, 1024.380
1100.706, 1015.809
1101.188, 1008.067
1101.671, 993.5244
1102.153, 976.8173
1102.635, 978.9678
1103.117, 1003.406
1103.599, 1023.130
1104.081, 1016.699
1104.563, 1006.023
1105.045, 1016.202
1105.528, 1032.075
1106.010, 1037.208
1106.492, 1034.250
1106.974, 1027.214
1107.456, 1018.647
1107.938, 1014.915
1108.420, 1020.574
1108.902, 1022.102
1109.385, 1005.546
1109.867, 991.7018
1110.349, 992.3017
1110.831, 1001.522
1111.313, 1019.366
1111.795, 1039.427
1112.277, 1046.946
1112.759, 1038.012
1113.241, 1031.089
1113.724, 1029.819
1114.206, 1028.886
1114.688, 1023.947
1115.170, 1023.402
1115.652, 1038.490
1116.134, 1054.294
1116.616, 1047.751
1117.098, 1021.204
1117.580, 1005.240
1118.063, 1000.123
1118.545, 1006.826
1119.027, 1030.718
1119.509, 1046.032
1119.991, 1042.012
1120.473, 1034.014
1120.955, 1035.986
1121.437, 1043.495
1121.920, 1044.812
1122.402, 1040.657
1122.884, 1040.509
1123.366, 1044.172
1123.848, 1047.459
1124.330, 1049.663
1124.812, 1053.952
1125.294, 1062.292
1125.776, 1069.658
1126.259, 1068.548
1126.741, 1063.443
1127.223, 1063.433
1127.705, 1065.283
1128.187, 1059.710
1128.669, 1050.032
1129.151, 1050.645
1129.633, 1064.288
1130.115, 1073.081
1130.598, 1060.360
1131.080, 1049.800
1131.562, 1063.657
1132.044, 1081.463
1132.526, 1085.583
1133.008, 1081.979
1133.490, 1080.672
1133.972, 1081.478
1134.455, 1076.430
1134.937, 1059.117
1135.419, 1050.631
1135.901, 1059.259
1136.383, 1071.866
1136.865, 1097.183
1137.347, 1111.472
1137.829, 1084.406
1138.312, 1043.666
1138.794, 1045.663
1139.276, 1093.187
1139.758, 1111.474
1140.240, 1091.499
1140.722, 1072.175
1141.204, 1055.324
1141.686, 1050.111
1142.168, 1062.838
1142.651, 1078.703
1143.133, 1083.264
1143.615, 1078.010
1144.097, 1060.987
1144.579, 1036.557
1145.061, 1039.361
1145.543, 1065.271
1146.025, 1079.876
1146.507, 1076.683
1146.990, 1071.160
1147.472, 1072.039
1147.954, 1074.039
1148.436, 1072.398
1148.918, 1067.560
1149.400, 1055.735
1149.882, 1043.986
1150.364, 1044.113
1150.847, 1053.369
1151.329, 1064.386
1151.811, 1074.536
1152.293, 1077.835
1152.775, 1063.873
1153.257, 1055.822
1153.739, 1071.671
1154.221, 1086.511
1154.703, 1084.414
1155.186, 1074.248
1155.668, 1066.492
1156.150, 1060.260
1156.632, 1047.527
1157.114, 1021.646
1157.596, 1014.551
1158.078, 1037.250
1158.560, 1054.312
1159.042, 1059.327
1159.525, 1056.766
1160.007, 1046.910
1160.489, 1036.106
1160.971, 1033.237
1161.453, 1037.328
1161.935, 1047.281
1162.417, 1061.681
1162.899, 1054.778
1163.382, 1028.181
1163.864, 1019.114
1164.346, 1036.607
1164.828, 1052.772
1165.310, 1047.733
1165.792, 1036.442
1166.274, 1037.658
1166.756, 1043.667
1167.238, 1043.820
1167.721, 1040.708
1168.203, 1039.855
1168.685, 1040.095
1169.167, 1034.643
1169.649, 1021.986
1170.131, 1015.264
1170.613, 1031.743
1171.095, 1038.946
1171.578, 1011.115
1172.060, 986.3163
1172.542, 993.7097
1173.024, 1011.934
1173.506, 1013.376
1173.988, 1002.441
1174.470, 1000.501
1174.952, 1009.739
1175.434, 1020.059
1175.917, 1033.679
1176.399, 1041.489
1176.881, 1042.134
1177.363, 1032.680
1177.845, 1008.670
1178.327, 987.5072
1178.809, 994.8286
1179.291, 1020.143
1179.773, 1030.911
1180.256, 1029.264
1180.738, 1022.513
1181.220, 1012.236
1181.702, 999.9635
1182.184, 987.2992
1182.666, 979.3476
1183.148, 978.8764
1183.630, 985.6973
1184.113, 1009.352
1184.595, 1029.634
1185.077, 1022.184
1185.559, 1006.954
1186.041, 1010.310
1186.523, 1022.943
1187.005, 1016.310
1187.487, 987.2947
1187.969, 979.3250
1188.452, 1032.276
1188.934, 1054.696
1189.416, 1011.814
1189.898, 978.3672
1190.380, 984.1430
1190.862, 996.6606
1191.344, 987.7368
1191.826, 969.6212
1192.308, 971.4791
1192.791, 992.1711
1193.273, 1000.970
1193.755, 998.1983
1194.237, 993.1196
1194.719, 987.1417
1195.201, 981.4971
1195.683, 976.7031
1196.165, 973.4528
1196.648, 972.8025
1197.130, 972.4191
1197.612, 967.6940
1198.094, 962.7845
1198.576, 964.2987
1199.058, 968.8679
1199.540, 972.4042
1200.022, 973.2651
1200.505, 967.7912
1200.987, 954.3676
1201.469, 946.0029
1201.951, 951.9965
1202.433, 955.7529
1202.915, 951.3691
1203.397, 945.7859
1203.879, 939.3441
1204.361, 936.9624
1204.844, 947.5502
1205.326, 963.7638
1205.808, 958.9929
1206.290, 930.6268
1206.772, 912.5941
1207.254, 904.7229
1207.736, 917.4412
1208.218, 951.6461
1208.700, 976.1754
1209.183, 976.7025
1209.665, 968.7944
1210.147, 966.9816
1210.629, 966.1405
1211.111, 957.7349
1211.593, 946.4563
1212.075, 937.1577
1212.557, 931.2352
1213.040, 931.5700
1213.522, 936.8276
1214.004, 942.4901
1214.486, 947.8985
1214.968, 948.3204
1215.450, 936.5588
1215.932, 927.9963
1216.414, 929.3160
1216.896, 931.6177
1217.379, 930.5074
1217.861, 928.4745
1218.343, 927.8538
1218.825, 928.6527
1219.307, 931.8478
1219.789, 937.8943
1220.271, 937.4813
1220.753, 930.7015
1221.235, 920.6405
1221.718, 908.5302
1222.200, 903.0721
1222.682, 907.9388
1223.164, 913.7377
1223.646, 912.1913
1224.128, 907.1260
1224.610, 900.7558
1225.092, 895.5278
1225.575, 893.7974
1226.057, 895.5002
1226.539, 904.0376
1227.021, 915.3256
1227.503, 915.6975
1227.985, 900.6307
1228.467, 889.4581
1228.949, 882.4781
1229.432, 885.0265
1229.914, 903.2528
1230.396, 921.3314
1230.878, 935.6962
1231.360, 941.3514
1231.842, 931.3702
1232.324, 913.7389
1232.806, 910.4024
1233.288, 917.9765
1233.771, 906.0275
1234.253, 879.9617
1234.735, 866.6032
1235.217, 867.6304
1235.699, 874.2533
1236.181, 882.0812
1236.663, 881.3246
1237.145, 860.6738
1237.627, 842.9666
1238.110, 849.2486
1238.592, 859.8156
1239.074, 860.8141
1239.556, 858.5903
1240.038, 859.4277
1240.520, 862.8691
1241.002, 865.8566
1241.484, 868.2371
1241.967, 877.8485
1242.449, 899.3696
1242.931, 912.2654
1243.413, 914.6802
1243.895, 910.3135
1244.377, 899.0768
1244.859, 897.9313
1245.341, 920.0569
1245.823, 942.8705
1246.306, 929.4094
1246.788, 901.2241
1247.270, 897.0328
1247.752, 909.1151
1248.234, 935.9500
1248.716, 963.1124
1249.198, 958.7358
1249.680, 924.6977
1250.162, 898.2472
##END=



