##NAMES=Ferrierite-Mg
##RRUFFID=R070119
##IDEAL CHEMISTRY=[Mg_2_(K,Na)_2_Ca_0.5_](Si_29_Al_7_)O_72_&#183;18H_2_O
##LOCALITY=Libous, Chomutov, Ústí Region, Bohemia (Böhmen; Boehmen), Czech Republic
##OWNER=RRUFF
##SOURCE=Michael Scott
##DESCRIPTION=Radiating aggregate of tan colored fibrous crystals associated with calcite
##STATUS=The identification of this mineral is confirmed by single-crystal X-ray diffraction and chemical analysis.
##URL=rruff.info/R070119
##MEASURED CHEMISTRY=(K_0.84_Ca_0.03_[box]_0.13_)_Σ=1_(Mg_1.60_Fe^2+^_0.40_)_Σ=2_Ca_0.50_(Si_30.10_Al_5.90_)O_72_·22.91H_2_O ; H_2_O estimated by difference
188.3242, 81507.38
188.8063, 81642.58
189.2884, 81875.63
189.7706, 82125.70
190.2527, 82318.43
190.7348, 82427.98
191.2169, 82509.90
191.6990, 82645.78
192.1811, 82853.19
192.6633, 83031.91
193.1454, 83104.34
193.6275, 83161.20
194.1096, 83276.13
194.5917, 83469.72
195.0738, 83684.99
195.5560, 83842.05
196.0381, 83923.28
196.5202, 84035.91
197.0023, 84256.38
197.4844, 84486.36
197.9665, 84652.73
198.4487, 84741.79
198.9308, 84817.98
199.4129, 84961.67
199.8950, 85186.48
200.3771, 85392.94
200.8592, 85551.00
201.3414, 85691.66
201.8235, 85839.89
202.3056, 85994.79
202.7877, 86124.66
203.2698, 86181.87
203.7519, 86155.47
204.2341, 86145.99
204.7162, 86172.19
205.1983, 86212.65
205.6804, 86260.57
206.1625, 86314.25
206.6446, 86371.79
207.1267, 86439.49
207.6089, 86520.41
208.0910, 86570.41
208.5731, 86551.70
209.0552, 86533.21
209.5373, 86550.74
210.0194, 86598.53
210.5016, 86647.15
210.9837, 86673.34
211.4658, 86677.11
211.9479, 86674.30
212.4300, 86643.59
212.9121, 86630.23
213.3943, 86657.17
213.8764, 86715.95
214.3585, 86783.16
214.8406, 86837.16
215.3227, 86882.68
215.8048, 86970.27
216.2870, 87157.24
216.7691, 87312.12
217.2512, 87353.77
217.7333, 87335.00
218.2154, 87352.41
218.6975, 87475.06
219.1797, 87672.98
219.6618, 87816.24
220.1439, 87860.89
220.6260, 87915.58
221.1081, 88054.26
221.5902, 88211.18
222.0724, 88290.94
222.5545, 88231.99
223.0366, 88094.38
223.5187, 88037.30
224.0008, 88093.02
224.4829, 88170.95
224.9651, 88268.31
225.4472, 88362.88
225.9293, 88428.40
226.4114, 88453.72
226.8935, 88456.69
227.3756, 88472.25
227.8578, 88511.26
228.3399, 88533.07
228.8220, 88514.05
229.3041, 88484.43
229.7862, 88459.18
230.2683, 88442.80
230.7505, 88449.02
231.2326, 88511.63
231.7147, 88653.98
232.1968, 88752.82
232.6789, 88733.00
233.1610, 88701.96
233.6432, 88734.38
234.1253, 88835.09
234.6074, 88936.92
235.0895, 88949.18
235.5716, 88856.13
236.0537, 88833.52
236.5358, 88978.53
237.0180, 89129.10
237.5001, 89189.61
237.9822, 89172.12
238.4643, 89155.84
238.9464, 89212.73
239.4285, 89339.84
239.9107, 89453.36
240.3928, 89558.13
240.8749, 89639.35
241.3570, 89681.57
241.8391, 89696.03
242.3212, 89709.86
242.8034, 89747.05
243.2855, 89797.21
243.7676, 89807.53
244.2497, 89733.77
244.7318, 89699.18
245.2139, 89806.66
245.6961, 89973.32
246.1782, 90067.54
246.6603, 90002.36
247.1424, 89858.18
247.6245, 89810.63
248.1066, 89897.06
248.5888, 89972.98
249.0709, 89967.46
249.5530, 89927.39
250.0351, 89898.84
250.5172, 89897.53
250.9993, 89904.18
251.4815, 89887.64
251.9636, 89842.08
252.4457, 89816.46
252.9278, 89829.84
253.4099, 89869.66
253.8920, 89938.02
254.3742, 90039.40
254.8563, 90126.70
255.3384, 90140.27
255.8205, 90085.80
256.3026, 90067.42
256.7847, 90128.45
257.2668, 90210.87
257.7490, 90261.59
258.2311, 90281.74
258.7132, 90299.32
259.1953, 90327.79
259.6774, 90366.70
260.1595, 90420.27
260.6417, 90503.31
261.1238, 90572.40
261.6059, 90583.27
262.0880, 90550.41
262.5701, 90517.56
263.0522, 90492.05
263.5344, 90480.30
264.0165, 90502.81
264.4986, 90568.69
264.9807, 90627.62
265.4628, 90632.66
265.9449, 90606.34
266.4271, 90596.26
266.9092, 90630.22
267.3913, 90667.67
267.8734, 90661.76
268.3555, 90614.12
268.8376, 90573.49
269.3198, 90567.45
269.8019, 90583.12
270.2840, 90588.45
270.7661, 90580.16
271.2482, 90567.33
271.7303, 90550.38
272.2125, 90532.27
272.6946, 90519.35
273.1767, 90507.10
273.6588, 90512.44
274.1409, 90575.30
274.6230, 90707.91
275.1052, 90823.48
275.5873, 90891.30
276.0694, 90926.25
276.5515, 90953.66
277.0336, 90979.92
277.5157, 90989.35
277.9979, 90953.73
278.4800, 90866.27
278.9621, 90805.24
279.4442, 90776.56
279.9263, 90777.85
280.4084, 90815.88
280.8906, 90887.45
281.3727, 90972.42
281.8548, 91063.75
282.3369, 91157.99
282.8190, 91194.23
283.3011, 91128.45
283.7833, 91055.18
284.2654, 91022.15
284.7475, 91017.38
285.2296, 90998.41
285.7117, 90935.13
286.1938, 90853.25
286.6760, 90854.95
287.1581, 91033.55
287.6402, 91174.35
288.1223, 91247.14
288.6044, 91265.48
289.0865, 91233.49
289.5687, 91153.70
290.0508, 91055.62
290.5329, 90989.79
291.0150, 90971.02
291.4971, 90959.55
291.9792, 90962.69
292.4614, 90967.18
292.9435, 90965.15
293.4256, 90955.01
293.9077, 90938.45
294.3898, 90918.12
294.8719, 90895.65
295.3541, 90856.20
295.8362, 90737.05
296.3183, 90664.32
296.8004, 90742.50
297.2825, 90901.03
297.7646, 90980.87
298.2468, 90862.75
298.7289, 90599.93
299.2110, 90473.87
299.6931, 90608.44
300.1752, 90715.85
300.6573, 90718.60
301.1395, 90681.33
301.6216, 90681.37
302.1037, 90748.17
302.5858, 90835.16
303.0679, 90850.47
303.5500, 90755.58
304.0321, 90708.89
304.5143, 90772.20
304.9964, 90859.37
305.4785, 90927.66
305.9606, 90970.07
306.4427, 90994.24
306.9248, 91008.45
307.4070, 91012.43
307.8891, 90993.19
308.3712, 90929.59
308.8533, 90868.96
309.3354, 90823.84
309.8175, 90799.84
310.2997, 90811.57
310.7818, 90894.73
311.2639, 91005.12
311.7460, 91040.43
312.2281, 90982.14
312.7102, 90920.42
313.1924, 90924.26
313.6745, 90941.73
314.1566, 90898.71
314.6387, 90756.34
315.1208, 90608.46
315.6029, 90533.60
316.0851, 90526.38
316.5672, 90556.12
317.0493, 90640.84
317.5314, 90724.21
318.0135, 90723.20
318.4956, 90632.20
318.9778, 90542.08
319.4599, 90474.93
319.9420, 90434.11
320.4241, 90436.21
320.9062, 90487.53
321.3883, 90542.46
321.8705, 90556.41
322.3526, 90529.05
322.8347, 90507.86
323.3168, 90487.01
323.7989, 90479.39
324.2810, 90514.73
324.7632, 90577.70
325.2453, 90598.79
325.7274, 90523.73
326.2095, 90389.32
326.6916, 90359.20
327.1737, 90552.88
327.6559, 90687.63
328.1380, 90668.61
328.6201, 90578.38
329.1022, 90515.13
329.5843, 90510.65
330.0664, 90544.28
330.5486, 90586.09
331.0307, 90639.23
331.5128, 90692.73
331.9949, 90772.97
332.4770, 90831.63
332.9591, 90813.57
333.4413, 90739.44
333.9234, 90693.66
334.4055, 90760.17
334.8876, 90929.48
335.3697, 90971.58
335.8518, 90749.34
336.3340, 90552.74
336.8161, 90441.40
337.2982, 90389.47
337.7803, 90361.44
338.2624, 90342.80
338.7445, 90333.41
339.2267, 90340.95
339.7088, 90382.50
340.1909, 90386.34
340.6730, 90288.26
341.1551, 90185.44
341.6372, 90146.70
342.1194, 90173.59
342.6015, 90206.07
343.0836, 90183.48
343.5657, 90117.38
344.0478, 90088.55
344.5299, 90112.88
345.0121, 90155.03
345.4942, 90194.20
345.9763, 90233.18
346.4584, 90281.45
346.9405, 90374.46
347.4226, 90449.88
347.9048, 90409.76
348.3869, 90254.94
348.8690, 90108.95
349.3511, 90013.50
349.8332, 89969.92
350.3153, 89975.74
350.7975, 90045.97
351.2796, 90118.70
351.7617, 90167.59
352.2438, 90200.94
352.7259, 90237.59
353.2080, 90283.47
353.6902, 90313.76
354.1723, 90289.32
354.6544, 90194.16
355.1365, 90164.43
355.6186, 90294.82
356.1007, 90409.03
356.5829, 90375.09
357.0650, 90224.03
357.5471, 90069.21
358.0292, 89977.38
358.5113, 89941.77
358.9934, 89933.85
359.4755, 90013.45
359.9576, 90046.89
360.4398, 89987.91
360.9219, 89895.81
361.4040, 89832.78
361.8861, 89813.48
362.3682, 89805.29
362.8503, 89761.25
363.3325, 89666.74
363.8146, 89597.46
364.2967, 89580.25
364.7788, 89563.51
365.2609, 89516.51
365.7430, 89453.88
366.2252, 89412.02
366.7073, 89416.89
367.1894, 89454.54
367.6715, 89484.55
368.1536, 89506.13
368.6357, 89521.52
369.1179, 89510.56
369.6000, 89504.87
370.0821, 89547.41
370.5642, 89651.23
371.0463, 89741.20
371.5284, 89739.33
372.0106, 89660.84
372.4927, 89592.35
372.9748, 89544.54
373.4569, 89515.69
373.9390, 89518.07
374.4211, 89542.49
374.9033, 89547.95
375.3854, 89501.12
375.8675, 89446.16
376.3496, 89434.17
376.8317, 89460.21
377.3138, 89475.07
377.7960, 89450.43
378.2781, 89397.95
378.7602, 89351.13
379.2423, 89279.01
379.7244, 89260.40
380.2065, 89384.47
380.6887, 89538.49
381.1708, 89571.94
381.6529, 89458.30
382.1350, 89306.12
382.6171, 89243.86
383.0992, 89297.21
383.5814, 89287.80
384.0635, 89168.21
384.5456, 89044.85
385.0277, 88952.19
385.5098, 88886.75
385.9919, 88836.41
386.4741, 88795.17
386.9562, 88762.20
387.4383, 88731.99
387.9204, 88690.95
388.4025, 88685.13
388.8846, 88796.87
389.3668, 88888.17
389.8489, 88829.67
390.3310, 88627.84
390.8131, 88438.87
391.2952, 88408.55
391.7773, 88511.73
392.2595, 88599.31
392.7416, 88662.48
393.2237, 88723.84
393.7058, 88820.66
394.1879, 88920.10
394.6700, 88960.76
395.1522, 88896.97
395.6343, 88820.05
396.1164, 88819.60
396.5985, 88878.96
397.0806, 88925.02
397.5627, 88941.38
398.0449, 88921.52
398.5270, 88836.09
399.0091, 88672.07
399.4912, 88551.58
399.9733, 88507.72
400.4554, 88503.93
400.9376, 88530.22
401.4197, 88574.20
401.9018, 88591.88
402.3839, 88547.75
402.8660, 88455.23
403.3481, 88401.76
403.8303, 88446.47
404.3124, 88456.97
404.7945, 88392.39
405.2766, 88300.66
405.7587, 88229.62
406.2408, 88191.02
406.7230, 88164.41
407.2051, 88122.25
407.6872, 88059.71
408.1693, 88018.48
408.6514, 88014.53
409.1335, 88016.20
409.6157, 88033.18
410.0978, 88044.11
410.5799, 88003.99
411.0620, 87873.68
411.5441, 87723.30
412.0262, 87676.16
412.5083, 87741.21
412.9904, 87787.69
413.4726, 87769.21
413.9547, 87726.22
414.4368, 87700.09
414.9189, 87690.95
415.4010, 87695.21
415.8831, 87727.59
416.3653, 87764.93
416.8474, 87770.95
417.3295, 87743.88
417.8116, 87713.98
418.2937, 87697.50
418.7758, 87695.32
419.2580, 87711.89
419.7401, 87777.29
420.2222, 87821.56
420.7043, 87824.43
421.1864, 87798.52
421.6685, 87749.63
422.1507, 87682.55
422.6328, 87619.51
423.1149, 87591.54
423.5970, 87609.42
424.0791, 87594.40
424.5612, 87516.55
425.0434, 87437.38
425.5255, 87372.06
426.0076, 87319.05
426.4897, 87272.16
426.9718, 87228.86
427.4539, 87191.58
427.9361, 87160.19
428.4182, 87131.29
428.9003, 87133.54
429.3824, 87224.55
429.8645, 87297.07
430.3466, 87250.08
430.8288, 87102.67
431.3109, 86981.35
431.7930, 86963.54
432.2751, 86998.96
432.7572, 87021.02
433.2393, 87028.05
433.7215, 87010.62
434.2036, 86950.32
434.6857, 86871.85
435.1678, 86846.05
435.6499, 86905.61
436.1320, 86937.18
436.6142, 86889.54
437.0963, 86811.66
437.5784, 86748.26
438.0605, 86709.59
438.5426, 86704.00
439.0247, 86748.34
439.5069, 86841.28
439.9890, 86864.21
440.4711, 86713.03
440.9532, 86611.36
441.4353, 86638.73
441.9174, 86718.55
442.3996, 86771.95
442.8817, 86772.60
443.3638, 86726.38
443.8459, 86613.05
444.3280, 86424.43
444.8102, 86326.18
445.2923, 86403.49
445.7744, 86469.09
446.2565, 86389.32
446.7386, 86227.09
447.2207, 86115.92
447.7029, 86119.34
448.1850, 86162.96
448.6671, 86184.80
449.1492, 86183.77
449.6313, 86146.87
450.1134, 86057.89
450.5956, 85958.65
451.0777, 85908.87
451.5598, 85913.43
452.0419, 85924.24
452.5240, 85954.71
453.0061, 85974.97
453.4883, 85948.24
453.9704, 85891.74
454.4525, 85863.42
454.9346, 85898.70
455.4167, 85965.21
455.8988, 85967.62
456.3810, 85847.74
456.8631, 85766.69
457.3452, 85772.41
457.8273, 85779.36
458.3094, 85732.35
458.7915, 85633.09
459.2737, 85509.59
459.7558, 85355.73
460.2379, 85206.30
460.7200, 85197.86
461.2021, 85377.63
461.6842, 85524.50
462.1664, 85539.42
462.6485, 85487.70
463.1306, 85433.45
463.6127, 85377.96
464.0948, 85342.67
464.5769, 85356.72
465.0591, 85390.05
465.5412, 85402.30
466.0233, 85388.48
466.5054, 85338.82
466.9875, 85229.16
467.4696, 85080.15
467.9517, 85022.29
468.4338, 85143.62
468.9160, 85229.84
469.3981, 85226.49
469.8802, 85181.13
470.3623, 85131.11
470.8444, 85089.37
471.3265, 85067.00
471.8087, 85081.64
472.2908, 85132.17
472.7729, 85154.73
473.2550, 85143.91
473.7371, 85110.91
474.2192, 85061.22
474.7014, 84993.68
475.1835, 84895.96
475.6656, 84760.81
476.1477, 84642.56
476.6298, 84613.70
477.1119, 84645.10
477.5941, 84615.70
478.0762, 84495.23
478.5583, 84377.27
479.0404, 84339.85
479.5225, 84370.37
480.0046, 84384.56
480.4868, 84356.34
480.9689, 84339.27
481.4510, 84388.88
481.9331, 84451.83
482.4152, 84436.09
482.8973, 84321.73
483.3795, 84176.44
483.8616, 84074.84
484.3437, 84018.00
484.8258, 83995.30
485.3079, 84069.95
485.7900, 84109.37
486.2722, 84042.10
486.7543, 83937.06
487.2364, 83891.05
487.7185, 83936.74
488.2006, 84008.59
488.6827, 84023.09
489.1649, 83986.75
489.6470, 83986.80
490.1291, 84048.64
490.6112, 84113.44
491.0933, 84141.94
491.5754, 84140.57
492.0576, 84118.72
492.5397, 84043.74
493.0218, 83992.07
493.5039, 84047.45
493.9860, 84149.03
494.4681, 84170.13
494.9503, 84077.98
495.4324, 83944.79
495.9145, 83852.24
496.3966, 83806.98
496.8787, 83736.88
497.3608, 83607.90
497.8430, 83495.13
498.3251, 83418.72
498.8072, 83370.09
499.2893, 83343.20
499.7714, 83334.95
500.2535, 83326.05
500.7357, 83287.45
501.2178, 83220.13
501.6999, 83169.06
502.1820, 83142.49
502.6641, 83121.63
503.1462, 83083.58
503.6284, 83045.08
504.1105, 83043.18
504.5926, 83110.54
505.0747, 83165.18
505.5568, 83145.40
506.0389, 83080.34
506.5211, 83024.24
507.0032, 82988.92
507.4853, 82958.37
507.9674, 82915.93
508.4495, 82861.45
508.9316, 82825.40
509.4138, 82798.81
509.8959, 82800.23
510.3780, 82857.30
510.8601, 82932.19
511.3422, 82988.30
511.8243, 83015.78
512.3065, 83020.55
512.7886, 83005.37
513.2707, 82971.20
513.7528, 82935.43
514.2349, 82911.00
514.7170, 82853.93
515.1992, 82699.57
515.6813, 82516.13
516.1634, 82395.34
516.6455, 82357.13
517.1276, 82346.88
517.6097, 82351.27
518.0919, 82361.08
518.5740, 82362.71
519.0561, 82354.73
519.5382, 82344.26
520.0203, 82338.61
520.5024, 82333.51
520.9846, 82304.94
521.4667, 82228.45
521.9488, 82158.93
522.4309, 82088.41
522.9130, 82033.52
523.3951, 82020.79
523.8773, 82041.77
524.3594, 82051.70
524.8415, 82012.06
525.3236, 81939.17
525.8057, 81884.10
526.2878, 81849.84
526.7700, 81818.61
527.2521, 81781.88
527.7342, 81748.00
528.2163, 81725.58
528.6984, 81714.68
529.1805, 81714.25
529.6627, 81748.60
530.1448, 81774.73
530.6269, 81742.92
531.1090, 81665.08
531.5911, 81587.42
532.0732, 81531.27
532.5554, 81496.03
533.0375, 81482.38
533.5196, 81504.72
534.0017, 81516.11
534.4838, 81509.42
534.9659, 81499.77
535.4481, 81506.69
535.9302, 81514.16
536.4123, 81480.13
536.8944, 81371.69
537.3765, 81261.97
537.8586, 81282.88
538.3408, 81416.16
538.8229, 81441.72
539.3050, 81278.83
539.7871, 81102.84
540.2692, 81093.91
540.7513, 81226.34
541.2335, 81277.45
541.7156, 81158.12
542.1977, 81044.17
542.6798, 81018.13
543.1619, 81036.51
543.6440, 81043.22
544.1262, 81023.13
544.6083, 80986.45
545.0904, 80944.66
545.5725, 80897.23
546.0546, 80823.98
546.5367, 80679.57
547.0189, 80585.52
547.5010, 80617.45
547.9831, 80686.63
548.4652, 80706.02
548.9473, 80662.52
549.4294, 80611.68
549.9115, 80603.78
550.3936, 80604.68
550.8757, 80541.77
551.3578, 80416.72
551.8400, 80308.41
552.3221, 80256.80
552.8042, 80249.45
553.2863, 80262.33
553.7684, 80334.38
554.2505, 80347.98
554.7327, 80250.47
555.2148, 80142.17
555.6969, 80081.37
556.1790, 80058.84
556.6611, 80034.69
557.1432, 79985.53
557.6254, 79945.34
558.1075, 79994.63
558.5896, 80141.48
559.0717, 80215.52
559.5538, 80158.84
560.0359, 80081.28
560.5181, 80087.73
561.0002, 80141.30
561.4823, 80137.72
561.9644, 80007.93
562.4465, 79887.71
562.9286, 79858.30
563.4108, 79877.74
563.8929, 79885.30
564.3750, 79868.77
564.8571, 79847.91
565.3392, 79842.94
565.8214, 79850.58
566.3035, 79833.06
566.7856, 79772.84
567.2677, 79715.80
567.7498, 79675.73
568.2319, 79637.78
568.7141, 79579.77
569.1962, 79506.02
569.6783, 79456.13
570.1604, 79484.60
570.6425, 79534.91
571.1246, 79508.74
571.6068, 79415.38
572.0889, 79350.59
572.5710, 79361.64
573.0531, 79380.77
573.5352, 79295.98
574.0173, 79058.84
574.4995, 78921.79
574.9816, 78957.70
575.4637, 79010.01
575.9458, 79027.07
576.4279, 79014.56
576.9100, 78974.35
577.3922, 78910.07
577.8743, 78862.26
578.3564, 78903.78
578.8385, 79018.96
579.3206, 79044.87
579.8027, 78944.77
580.2849, 78859.80
580.7670, 78879.70
581.2491, 78955.47
581.7312, 78981.65
582.2133, 78938.48
582.6954, 78908.45
583.1776, 78952.02
583.6597, 78990.93
584.1418, 78935.90
584.6239, 78807.41
585.1060, 78687.80
585.5881, 78621.19
586.0703, 78599.33
586.5524, 78622.54
587.0345, 78723.54
587.5166, 78733.74
587.9987, 78556.33
588.4808, 78386.19
588.9630, 78345.70
589.4451, 78381.05
589.9272, 78374.38
590.4093, 78271.22
590.8914, 78178.83
591.3735, 78197.17
591.8557, 78268.02
592.3378, 78280.51
592.8199, 78221.27
593.3020, 78149.92
593.7841, 78109.54
594.2662, 78096.05
594.7484, 78093.45
595.2305, 78130.02
595.7126, 78129.09
596.1947, 78060.56
596.6768, 77978.80
597.1589, 77910.01
597.6411, 77858.37
598.1232, 77825.55
598.6053, 77819.13
599.0874, 77820.45
599.5695, 77809.20
600.0516, 77785.88
600.5338, 77749.75
601.0159, 77698.62
601.4980, 77645.73
601.9801, 77596.14
602.4622, 77551.64
602.9443, 77556.88
603.4265, 77699.61
603.9086, 77772.74
604.3907, 77686.68
604.8728, 77553.78
605.3549, 77477.98
605.8370, 77463.74
606.3192, 77447.79
606.8013, 77382.32
607.2834, 77289.74
607.7655, 77216.43
608.2476, 77162.48
608.7297, 77130.75
609.2119, 77134.23
609.6940, 77136.05
610.1761, 77087.72
610.6582, 76988.57
611.1403, 76922.36
611.6224, 76913.41
612.1046, 76911.80
612.5867, 76898.23
613.0688, 76882.39
613.5509, 76881.01
614.0330, 76894.24
614.5151, 76902.96
614.9973, 76889.00
615.4794, 76857.35
615.9615, 76830.04
616.4436, 76810.98
616.9257, 76773.41
617.4078, 76692.80
617.8900, 76608.44
618.3721, 76575.70
618.8542, 76590.43
619.3363, 76574.52
619.8184, 76487.48
620.3005, 76395.80
620.7827, 76316.59
621.2648, 76263.47
621.7469, 76273.20
622.2290, 76345.69
622.7111, 76411.06
623.1932, 76390.95
623.6754, 76300.40
624.1575, 76255.99
624.6396, 76278.86
625.1217, 76283.56
625.6038, 76228.32
626.0859, 76157.16
626.5681, 76109.50
627.0502, 76085.32
627.5323, 76083.70
628.0144, 76124.29
628.4965, 76167.66
628.9786, 76202.98
629.4608, 76218.26
629.9429, 76183.19
630.4250, 76093.40
630.9071, 75991.79
631.3892, 75924.79
631.8713, 75889.23
632.3535, 75844.08
632.8356, 75780.98
633.3177, 75729.02
633.7998, 75723.45
634.2819, 75711.91
634.7640, 75621.02
635.2462, 75458.57
635.7283, 75363.40
636.2104, 75437.21
636.6925, 75538.28
637.1746, 75574.91
637.6567, 75559.24
638.1389, 75514.41
638.6210, 75448.86
639.1031, 75373.66
639.5852, 75295.02
640.0673, 75215.83
640.5494, 75182.48
641.0316, 75232.69
641.5137, 75242.74
641.9958, 75114.95
642.4779, 74984.60
642.9600, 74995.50
643.4421, 75130.40
643.9243, 75199.02
644.4064, 75082.43
644.8885, 74933.84
645.3706, 74845.16
645.8527, 74809.22
646.3348, 74833.50
646.8170, 74910.09
647.2991, 74959.92
647.7812, 74897.54
648.2633, 74741.77
648.7454, 74638.23
649.2275, 74601.00
649.7097, 74580.03
650.1918, 74572.45
650.6739, 74571.07
651.1560, 74569.80
651.6381, 74569.41
652.1202, 74574.59
652.6024, 74608.99
653.0845, 74625.84
653.5666, 74586.45
654.0487, 74514.16
654.5308, 74435.25
655.0129, 74360.18
655.4951, 74308.05
655.9772, 74296.52
656.4593, 74318.59
656.9414, 74352.12
657.4235, 74413.21
657.9056, 74431.19
658.3878, 74377.09
658.8699, 74293.72
659.3519, 74205.92
659.8340, 74115.84
660.3162, 74029.05
660.7983, 73918.05
661.2804, 73852.05
661.7625, 73909.66
662.2446, 74006.91
662.7267, 74034.45
663.2089, 73987.60
663.6910, 73926.99
664.1731, 73892.59
664.6552, 73876.55
665.1373, 73864.23
665.6194, 73859.62
666.1016, 73829.85
666.5837, 73757.27
667.0658, 73681.33
667.5479, 73627.36
668.0300, 73590.19
668.5121, 73559.19
668.9943, 73538.71
669.4764, 73513.85
669.9585, 73493.91
670.4406, 73456.83
670.9227, 73347.00
671.4048, 73201.37
671.8870, 73132.13
672.3691, 73199.05
672.8512, 73321.92
673.3333, 73369.63
673.8154, 73344.77
674.2975, 73340.91
674.7797, 73376.20
675.2618, 73391.20
675.7439, 73348.48
676.2260, 73267.36
676.7081, 73185.63
677.1902, 73098.16
677.6724, 73027.63
678.1545, 72985.93
678.6366, 72953.55
679.1187, 72922.16
679.6008, 72890.84
680.0829, 72853.75
680.5651, 72810.55
681.0472, 72783.61
681.5293, 72823.66
682.0114, 72898.71
682.4935, 72874.09
682.9756, 72742.09
683.4578, 72641.02
683.9399, 72631.98
684.4220, 72661.94
684.9041, 72656.69
685.3862, 72608.55
685.8683, 72574.62
686.3505, 72580.07
686.8326, 72567.98
687.3147, 72499.79
687.7968, 72420.52
688.2789, 72384.19
688.7610, 72391.53
689.2432, 72392.96
689.7253, 72352.23
690.2074, 72292.05
690.6895, 72240.63
691.1716, 72197.76
691.6537, 72163.90
692.1359, 72139.58
692.6180, 72111.82
693.1001, 72059.93
693.5822, 71995.38
694.0643, 72013.98
694.5464, 72207.50
695.0286, 72320.22
695.5107, 72269.41
695.9928, 72184.30
696.4749, 72127.72
696.9570, 72100.45
697.4391, 72093.89
697.9213, 72119.43
698.4034, 72133.65
698.8855, 72108.61
699.3676, 72053.40
699.8497, 71963.29
700.3318, 71850.39
700.8140, 71768.26
701.2961, 71749.92
701.7782, 71763.34
702.2603, 71734.41
702.7424, 71647.73
703.2245, 71629.06
703.7067, 71730.42
704.1888, 71809.52
704.6709, 71792.07
705.1530, 71710.41
705.6351, 71595.88
706.1172, 71429.66
706.5994, 71341.43
707.0815, 71463.30
707.5636, 71573.76
708.0457, 71490.29
708.5278, 71307.52
709.0099, 71197.22
709.4921, 71204.70
709.9742, 71241.46
710.4563, 71219.29
710.9384, 71159.44
711.4205, 71143.13
711.9026, 71172.27
712.3848, 71157.74
712.8669, 71063.31
713.3490, 70941.87
713.8311, 70839.08
714.3132, 70755.35
714.7953, 70719.20
715.2775, 70760.70
715.7596, 70806.59
716.2417, 70872.75
716.7238, 70918.71
717.2059, 70908.39
717.6880, 70850.02
718.1702, 70774.53
718.6523, 70686.80
719.1344, 70608.44
719.6165, 70562.34
720.0986, 70539.28
720.5807, 70528.23
721.0629, 70524.12
721.5450, 70500.76
722.0271, 70440.44
722.5092, 70363.33
722.9913, 70318.30
723.4734, 70319.77
723.9556, 70290.77
724.4377, 70209.26
724.9198, 70131.41
725.4019, 70088.67
725.8840, 70060.19
726.3661, 70014.07
726.8483, 69943.88
727.3304, 69906.27
727.8125, 69950.43
728.2946, 69998.79
728.7767, 70002.06
729.2589, 69975.92
729.7410, 69953.01
730.2231, 69937.70
730.7052, 69899.54
731.1873, 69801.06
731.6694, 69671.77
732.1516, 69588.59
732.6337, 69550.20
733.1158, 69519.33
733.5979, 69488.88
734.0800, 69459.65
734.5621, 69434.90
735.0443, 69411.95
735.5264, 69374.67
736.0085, 69280.77
736.4906, 69237.16
736.9727, 69299.93
737.4548, 69361.30
737.9370, 69366.14
738.4191, 69322.39
738.9012, 69246.27
739.3833, 69135.72
739.8654, 69034.19
740.3475, 68978.59
740.8297, 68944.27
741.3118, 68893.79
741.7939, 68834.24
742.2760, 68804.37
742.7581, 68818.41
743.2402, 68841.21
743.7224, 68824.89
744.2045, 68773.01
744.6866, 68735.70
745.1687, 68711.95
745.6508, 68709.45
746.1329, 68748.09
746.6151, 68786.51
747.0972, 68771.66
747.5793, 68708.63
748.0614, 68673.99
748.5435, 68708.31
749.0256, 68720.82
749.5078, 68676.91
749.9899, 68613.18
750.4720, 68553.34
750.9541, 68501.85
751.4362, 68463.54
751.9183, 68444.98
752.4005, 68419.13
752.8826, 68339.39
753.3647, 68236.95
753.8468, 68189.34
754.3289, 68196.02
754.8110, 68200.88
755.2932, 68178.29
755.7753, 68130.75
756.2574, 68057.22
756.7395, 67954.36
757.2216, 67867.59
757.7037, 67787.52
758.1859, 67745.30
758.6680, 67776.81
759.1501, 67830.56
759.6322, 67866.24
760.1143, 67881.52
760.5964, 67849.37
761.0786, 67725.19
761.5607, 67602.89
762.0428, 67515.68
762.5249, 67448.08
763.0070, 67374.65
763.4891, 67304.05
763.9713, 67278.59
764.4534, 67329.75
764.9355, 67391.21
765.4176, 67366.59
765.8997, 67286.65
766.3818, 67249.12
766.8640, 67259.61
767.3461, 67267.01
767.8282, 67246.63
768.3103, 67205.95
768.7924, 67153.74
769.2745, 67085.91
769.7566, 67041.63
770.2387, 67028.77
770.7208, 67025.79
771.2029, 67035.32
771.6851, 67045.27
772.1672, 67059.88
772.6493, 67072.88
773.1314, 67027.60
773.6135, 66836.68
774.0956, 66681.89
774.5778, 66661.12
775.0599, 66688.09
775.5420, 66682.34
776.0241, 66641.86
776.5062, 66597.53
776.9883, 66563.50
777.4705, 66534.66
777.9526, 66508.73
778.4347, 66482.22
778.9168, 66442.78
779.3989, 66391.03
779.8810, 66340.16
780.3632, 66294.69
780.8453, 66264.93
781.3274, 66274.15
781.8095, 66325.13
782.2916, 66312.64
782.7737, 66191.93
783.2559, 66109.14
783.7380, 66129.80
784.2201, 66174.01
784.7022, 66177.02
785.1843, 66142.60
785.6664, 66087.81
786.1486, 65990.00
786.6307, 65906.98
787.1128, 65852.25
787.5949, 65820.27
788.0770, 65810.67
788.5591, 65819.59
789.0413, 65842.98
789.5234, 65879.88
790.0055, 65918.72
790.4876, 65969.20
790.9697, 66004.48
791.4518, 65970.07
791.9340, 65874.57
792.4161, 65752.98
792.8982, 65617.75
793.3803, 65493.41
793.8624, 65400.43
794.3445, 65343.86
794.8267, 65373.77
795.3088, 65520.36
795.7909, 65608.08
796.2730, 65586.04
796.7551, 65537.28
797.2372, 65533.56
797.7194, 65550.05
798.2015, 65493.26
798.6836, 65322.32
799.1657, 65170.93
799.6478, 65035.52
800.1299, 64936.22
800.6121, 64897.95
801.0942, 64895.26
801.5763, 64898.68
802.0584, 64901.39
802.5405, 64899.51
803.0226, 64893.05
803.5048, 64879.00
803.9869, 64858.20
804.4690, 64826.43
804.9511, 64764.50
805.4332, 64677.63
805.9153, 64608.68
806.3975, 64588.32
806.8796, 64597.72
807.3617, 64604.23
807.8438, 64607.90
808.3259, 64603.02
808.8080, 64585.63
809.2902, 64602.04
809.7723, 64694.89
810.2544, 64790.17
810.7365, 64755.87
811.2186, 64568.15
811.7007, 64439.05
812.1829, 64400.32
812.6650, 64373.61
813.1471, 64328.63
813.6292, 64299.26
814.1113, 64345.82
814.5934, 64439.00
815.0756, 64441.57
815.5577, 64246.73
816.0398, 64095.24
816.5219, 64111.52
817.0040, 64171.11
817.4861, 64186.54
817.9683, 64157.25
818.4504, 64095.54
818.9325, 64006.90
819.4146, 63926.05
819.8967, 63885.53
820.3788, 63870.89
820.8610, 63863.34
821.3431, 63860.76
821.8252, 63868.69
822.3073, 63885.23
822.7894, 63860.90
823.2715, 63742.90
823.7537, 63576.25
824.2358, 63500.13
824.7179, 63520.16
825.2000, 63583.86
825.6821, 63712.30
826.1642, 63791.46
826.6464, 63734.71
827.1285, 63616.07
827.6106, 63587.54
828.0927, 63694.51
828.5748, 63692.92
829.0569, 63454.57
829.5391, 63273.29
830.0212, 63255.89
830.5033, 63289.50
830.9854, 63282.42
831.4675, 63235.01
831.9496, 63182.11
832.4318, 63115.71
832.9139, 63076.29
833.3960, 63108.66
833.8781, 63154.13
834.3602, 63161.93
834.8423, 63136.67
835.3245, 63101.47
835.8066, 63064.05
836.2887, 63013.81
836.7708, 62906.02
837.2529, 62799.05
837.7350, 62829.73
838.2172, 62951.37
838.6993, 62991.64
839.1814, 62913.67
839.6635, 62805.61
840.1456, 62733.70
840.6277, 62691.50
841.1099, 62666.65
841.5920, 62660.40
842.0741, 62650.55
842.5562, 62634.47
843.0383, 62619.77
843.5204, 62612.56
844.0026, 62605.18
844.4847, 62587.83
844.9668, 62562.03
845.4489, 62511.30
845.9310, 62397.26
846.4131, 62314.90
846.8953, 62292.25
847.3774, 62294.58
847.8595, 62319.56
848.3416, 62349.02
848.8237, 62329.87
849.3058, 62235.54
849.7880, 62137.53
850.2701, 62023.75
850.7522, 61947.09
851.2343, 61975.56
851.7164, 62051.55
852.1985, 62090.49
852.6807, 62073.29
853.1628, 62023.96
853.6449, 61931.64
854.1270, 61844.02
854.6091, 61821.89
855.0912, 61838.22
855.5734, 61842.91
856.0555, 61831.92
856.5376, 61830.80
857.0197, 61854.72
857.5018, 61878.13
857.9839, 61861.13
858.4661, 61809.80
858.9482, 61749.04
859.4303, 61680.21
859.9124, 61631.92
860.3945, 61614.57
860.8766, 61612.61
861.3588, 61614.57
861.8409, 61615.77
862.3230, 61585.64
862.8051, 61509.54
863.2872, 61455.18
863.7693, 61436.55
864.2515, 61427.29
864.7336, 61425.14
865.2157, 61415.81
865.6978, 61362.10
866.1799, 61241.59
866.6620, 61188.02
867.1442, 61261.91
867.6263, 61323.82
868.1084, 61339.86
868.5905, 61331.09
869.0726, 61304.27
869.5547, 61268.39
870.0369, 61251.30
870.5190, 61280.94
871.0011, 61273.74
871.4832, 61157.75
871.9653, 61027.41
872.4474, 60948.86
872.9296, 60910.46
873.4117, 60884.37
873.8938, 60864.03
874.3759, 60858.37
874.8580, 60888.27
875.3401, 60916.32
875.8223, 60898.96
876.3044, 60849.86
876.7865, 60779.93
877.2686, 60702.00
877.7507, 60656.17
878.2328, 60662.93
878.7149, 60697.05
879.1970, 60734.77
879.6791, 60771.21
880.1613, 60795.24
880.6434, 60804.29
881.1255, 60750.32
881.6076, 60616.69
882.0897, 60493.63
882.5718, 60459.22
883.0540, 60490.45
883.5361, 60525.53
884.0182, 60573.12
884.5003, 60562.98
884.9824, 60476.07
885.4645, 60374.66
885.9467, 60270.48
886.4288, 60186.07
886.9109, 60154.43
887.3930, 60176.38
887.8751, 60207.78
888.3572, 60281.63
888.8394, 60310.75
889.3215, 60229.64
889.8036, 60157.47
890.2857, 60191.64
890.7678, 60270.48
891.2499, 60268.88
891.7321, 60162.26
892.2142, 60053.58
892.6963, 59934.41
893.1784, 59849.63
893.6605, 59837.76
894.1426, 59854.35
894.6248, 59847.75
895.1069, 59826.18
895.5890, 59846.04
896.0711, 59952.57
896.5532, 60028.68
897.0353, 59990.57
897.5175, 59907.05
897.9996, 59808.90
898.4817, 59725.79
898.9638, 59724.01
899.4459, 59802.65
899.9280, 59843.66
900.4102, 59740.38
900.8923, 59599.93
901.3744, 59553.63
901.8565, 59560.69
902.3386, 59544.99
902.8207, 59501.75
903.3029, 59454.97
903.7850, 59415.12
904.2671, 59376.36
904.7492, 59321.04
905.2313, 59265.90
905.7134, 59281.18
906.1956, 59350.91
906.6777, 59354.57
907.1598, 59269.41
907.6419, 59199.09
908.1240, 59219.58
908.6061, 59273.21
909.0883, 59225.23
909.5704, 59072.29
910.0525, 59012.01
910.5346, 59062.38
911.0167, 59085.29
911.4988, 59026.87
911.9810, 58968.16
912.4631, 58998.50
912.9452, 59087.78
913.4273, 59083.86
913.9094, 58934.16
914.3915, 58862.02
914.8737, 58925.50
915.3558, 58971.84
915.8379, 58920.26
916.3200, 58832.35
916.8021, 58791.67
917.2842, 58799.65
917.7664, 58781.63
918.2485, 58679.44
918.7306, 58637.72
919.2127, 58729.61
919.6948, 58820.17
920.1769, 58838.68
920.6591, 58807.00
921.1412, 58760.13
921.6233, 58699.18
922.1054, 58636.56
922.5875, 58552.14
923.0696, 58495.46
923.5518, 58494.95
924.0339, 58519.93
924.5160, 58566.77
924.9981, 58613.29
925.4802, 58608.04
925.9623, 58529.04
926.4445, 58442.11
926.9266, 58354.91
927.4087, 58290.41
927.8908, 58276.97
928.3729, 58287.05
928.8550, 58287.36
929.3372, 58274.38
929.8193, 58263.57
930.3014, 58270.74
930.7835, 58252.91
931.2656, 58142.81
931.7477, 58019.33
932.2299, 57972.57
932.7120, 57981.24
933.1941, 57996.44
933.6762, 58004.30
934.1583, 58009.79
934.6404, 58016.90
935.1226, 58022.03
935.6047, 58031.33
936.0868, 58030.61
936.5689, 57985.50
937.0510, 57904.80
937.5331, 57818.22
938.0153, 57739.44
938.4974, 57690.69
938.9795, 57698.49
939.4616, 57743.74
939.9437, 57811.37
940.4258, 57882.98
940.9080, 57882.14
941.3901, 57807.84
941.8722, 57726.93
942.3543, 57671.28
942.8364, 57632.36
943.3185, 57602.99
943.8007, 57579.67
944.2828, 57545.02
944.7649, 57500.87
945.2470, 57474.18
945.7291, 57470.16
946.2112, 57451.43
946.6934, 57392.16
947.1755, 57322.97
947.6576, 57305.47
948.1397, 57335.79
948.6218, 57334.81
949.1039, 57302.21
949.5861, 57231.78
950.0682, 57110.27
950.5503, 57018.56
951.0324, 57021.85
951.5145, 57086.22
951.9966, 57137.62
952.4788, 57181.95
952.9609, 57151.70
953.4430, 57013.98
953.9251, 56938.89
954.4072, 57003.22
954.8893, 57075.13
955.3715, 57028.09
955.8536, 56901.90
956.3357, 56849.33
956.8178, 56905.05
957.2999, 56918.82
957.7820, 56867.62
958.2642, 56825.64
958.7463, 56825.45
959.2284, 56833.71
959.7105, 56811.39
960.1926, 56766.70
960.6747, 56754.50
961.1569, 56807.24
961.6390, 56822.24
962.1211, 56771.00
962.6032, 56722.26
963.0853, 56715.04
963.5674, 56712.50
964.0496, 56662.70
964.5317, 56570.87
965.0138, 56515.72
965.4959, 56533.47
965.9780, 56530.89
966.4601, 56489.65
966.9423, 56445.77
967.4244, 56406.87
967.9065, 56378.03
968.3886, 56380.93
968.8707, 56413.76
969.3528, 56389.96
969.8350, 56243.61
970.3171, 56130.57
970.7992, 56072.61
971.2813, 56048.91
971.7634, 56072.43
972.2455, 56111.37
972.7277, 56117.20
973.2098, 56086.66
973.6919, 56069.28
974.1740, 56052.95
974.6561, 56078.07
975.1382, 56242.44
975.6204, 56359.36
976.1025, 56260.39
976.5846, 56059.00
977.0667, 55948.27
977.5488, 55951.75
978.0309, 55956.76
978.5131, 55919.80
978.9952, 55905.39
979.4773, 55977.20
979.9594, 56035.97
980.4415, 55989.37
980.9236, 55886.11
981.4058, 55819.07
981.8879, 55803.67
982.3700, 55799.33
982.8521, 55807.71
983.3342, 55807.01
983.8163, 55789.12
984.2985, 55758.54
984.7806, 55704.52
985.2627, 55645.25
985.7448, 55614.56
986.2269, 55619.33
986.7090, 55642.59
987.1912, 55717.34
987.6733, 55759.51
988.1554, 55722.99
988.6375, 55644.59
989.1196, 55520.02
989.6017, 55391.29
990.0838, 55346.74
990.5659, 55410.06
991.0480, 55455.31
991.5302, 55422.56
992.0123, 55371.31
992.4944, 55308.04
992.9765, 55259.76
993.4586, 55276.38
993.9407, 55320.88
994.4229, 55291.45
994.9050, 55159.13
995.3871, 55089.53
995.8692, 55233.87
996.3513, 55361.38
996.8334, 55331.59
997.3156, 55240.41
997.7977, 55155.56
998.2798, 55094.06
998.7619, 55076.28
999.2440, 55108.68
999.7261, 55132.51
1000.208, 55130.34
1000.690, 55101.21
1001.172, 55005.14
1001.655, 54915.13
1002.137, 54923.97
1002.619, 54990.28
1003.101, 55009.57
1003.583, 54955.12
1004.065, 54888.83
1004.547, 54817.46
1005.029, 54766.73
1005.512, 54755.58
1005.994, 54766.91
1006.476, 54805.77
1006.958, 54847.34
1007.440, 54836.86
1007.922, 54760.74
1008.404, 54693.25
1008.886, 54662.86
1009.368, 54653.20
1009.851, 54673.87
1010.333, 54695.82
1010.815, 54702.07
1011.297, 54685.91
1011.779, 54631.07
1012.261, 54534.46
1012.743, 54449.97
1013.225, 54388.55
1013.708, 54358.26
1014.190, 54385.84
1014.672, 54425.23
1015.154, 54455.82
1015.636, 54461.21
1016.118, 54403.73
1016.600, 54279.07
1017.082, 54181.96
1017.564, 54161.89
1018.047, 54156.64
1018.529, 54151.32
1019.011, 54141.33
1019.493, 54120.23
1019.975, 54093.46
1020.457, 54068.40
1020.939, 54046.50
1021.421, 54032.52
1021.904, 54022.20
1022.386, 54028.18
1022.868, 54071.61
1023.350, 54115.33
1023.832, 54145.96
1024.314, 54153.70
1024.796, 54120.06
1025.278, 54046.12
1025.760, 53971.21
1026.243, 53898.80
1026.725, 53835.29
1027.207, 53769.78
1027.689, 53726.91
1028.171, 53742.61
1028.653, 53775.93
1029.135, 53766.30
1029.617, 53715.57
1030.099, 53687.73
1030.582, 53724.27
1031.064, 53732.49
1031.546, 53684.47
1032.028, 53620.81
1032.510, 53523.90
1032.992, 53446.92
1033.474, 53467.57
1033.956, 53570.56
1034.439, 53639.18
1034.921, 53658.88
1035.403, 53654.23
1035.885, 53599.71
1036.367, 53555.25
1036.849, 53578.67
1037.331, 53591.75
1037.813, 53483.34
1038.296, 53294.60
1038.778, 53220.35
1039.260, 53341.29
1039.742, 53377.38
1040.224, 53250.42
1040.706, 53156.23
1041.188, 53167.50
1041.670, 53203.52
1042.152, 53206.71
1042.635, 53183.57
1043.117, 53151.25
1043.599, 53105.35
1044.081, 53068.14
1044.563, 53036.80
1045.045, 53021.64
1045.527, 53035.05
1046.009, 53045.70
1046.491, 53023.32
1046.974, 52994.48
1047.456, 53028.57
1047.938, 53139.65
1048.420, 53107.51
1048.902, 52860.18
1049.384, 52737.69
1049.866, 52838.23
1050.348, 52946.92
1050.830, 52945.61
1051.313, 52875.59
1051.795, 52785.44
1052.277, 52683.05
1052.759, 52692.01
1053.241, 52832.85
1053.723, 52895.68
1054.205, 52844.96
1054.687, 52791.68
1055.170, 52788.63
1055.652, 52791.78
1056.134, 52746.99
1056.616, 52667.97
1057.098, 52604.32
1057.580, 52556.34
1058.062, 52528.48
1058.544, 52520.93
1059.026, 52532.28
1059.509, 52562.52
1059.991, 52582.57
1060.473, 52563.24
1060.955, 52526.04
1061.437, 52522.54
1061.919, 52541.23
1062.401, 52537.19
1062.883, 52507.88
1063.365, 52431.18
1063.848, 52312.57
1064.330, 52263.83
1064.812, 52369.07
1065.294, 52509.93
1065.776, 52525.90
1066.258, 52457.54
1066.740, 52356.42
1067.222, 52250.75
1067.705, 52223.45
1068.187, 52267.10
1068.669, 52280.57
1069.151, 52214.81
1069.633, 52141.15
1070.115, 52139.67
1070.597, 52154.78
1071.079, 52108.27
1071.562, 52040.83
1072.044, 52017.46
1072.526, 52032.25
1073.008, 52049.40
1073.490, 52057.43
1073.972, 52064.55
1074.454, 52076.86
1074.936, 52088.59
1075.418, 52103.46
1075.901, 52108.83
1076.383, 52094.48
1076.865, 52060.72
1077.347, 51988.70
1077.829, 51889.14
1078.311, 51854.27
1078.793, 51973.02
1079.275, 52049.31
1079.757, 51953.47
1080.240, 51862.57
1080.722, 51912.89
1081.204, 51999.96
1081.686, 51986.86
1082.168, 51894.82
1082.650, 51854.19
1083.132, 51912.08
1083.614, 51935.18
1084.097, 51865.11
1084.579, 51817.36
1085.061, 51834.57
1085.543, 51875.75
1086.025, 51931.73
1086.507, 51982.16
1086.989, 51985.00
1087.471, 51939.79
1087.953, 51842.10
1088.436, 51634.91
1088.918, 51519.46
1089.400, 51559.30
1089.882, 51614.59
1090.364, 51621.86
1090.846, 51592.66
1091.328, 51534.42
1091.810, 51455.32
1092.292, 51422.84
1092.775, 51444.15
1093.257, 51436.96
1093.739, 51392.50
1094.221, 51351.54
1094.703, 51328.53
1095.185, 51315.28
1095.667, 51308.35
1096.149, 51293.66
1096.632, 51215.31
1097.114, 51098.24
1097.596, 51105.22
1098.078, 51213.96
1098.560, 51266.58
1099.042, 51233.45
1099.524, 51166.75
1100.006, 51094.17
1100.489, 51034.89
1100.971, 51001.31
1101.453, 51003.59
1101.935, 51094.04
1102.417, 51217.36
1102.899, 51266.00
1103.381, 51241.46
1103.863, 51182.56
1104.345, 51105.67
1104.828, 51036.31
1105.310, 50988.69
1105.792, 50957.48
1106.274, 50954.34
1106.756, 50950.47
1107.238, 50883.10
1107.720, 50814.69
1108.202, 50882.33
1108.684, 51060.73
1109.167, 51135.20
1109.649, 50995.30
1110.131, 50883.34
1110.613, 50923.52
1111.095, 50949.61
1111.577, 50862.26
1112.059, 50752.17
1112.541, 50684.91
1113.024, 50660.66
1113.506, 50683.64
1113.988, 50772.44
1114.470, 50792.72
1114.952, 50699.79
1115.434, 50620.38
1115.916, 50570.20
1116.398, 50533.95
1116.880, 50504.17
1117.363, 50485.12
1117.845, 50482.61
1118.327, 50495.69
1118.809, 50523.90
1119.291, 50572.17
1119.773, 50591.72
1120.255, 50578.53
1120.737, 50549.73
1121.219, 50507.12
1121.702, 50496.12
1122.184, 50556.29
1122.666, 50634.40
1123.148, 50616.68
1123.630, 50539.93
1124.112, 50578.45
1124.594, 50685.09
1125.076, 50653.29
1125.559, 50482.55
1126.041, 50320.20
1126.523, 50228.38
1127.005, 50217.06
1127.487, 50335.86
1127.969, 50470.82
1128.451, 50485.75
1128.933, 50443.00
1129.416, 50428.74
1129.898, 50417.92
1130.380, 50320.58
1130.862, 50154.76
1131.344, 50081.90
1131.826, 50201.75
1132.308, 50286.75
1132.790, 50196.35
1133.272, 50093.03
1133.755, 50043.96
1134.237, 50034.98
1134.719, 50081.13
1135.201, 50145.73
1135.683, 50142.31
1136.165, 50053.70
1136.647, 50008.63
1137.129, 50017.16
1137.611, 50062.06
1138.094, 50202.54
1138.576, 50263.45
1139.058, 50130.47
1139.540, 49961.74
1140.022, 49928.10
1140.504, 49986.95
1140.986, 49985.16
1141.468, 49917.58
1141.951, 49871.83
1142.433, 49849.63
1142.915, 49817.28
1143.397, 49767.51
1143.879, 49753.57
1144.361, 49808.38
1144.843, 49879.23
1145.325, 49904.16
1145.807, 49893.38
1146.290, 49864.35
1146.772, 49820.55
1147.254, 49750.25
1147.736, 49675.12
1148.218, 49668.24
1148.700, 49737.18
1149.182, 49798.30
1149.664, 49801.96
1150.146, 49793.23
1150.629, 49828.02
1151.111, 49839.74
1151.593, 49747.01
1152.075, 49622.61
1152.557, 49532.96
1153.039, 49490.44
1153.521, 49525.48
1154.003, 49655.98
1154.485, 49694.28
1154.968, 49492.11
1155.450, 49368.41
1155.932, 49459.26
1156.414, 49529.13
1156.896, 49448.81
1157.378, 49343.53
1157.860, 49352.55
1158.342, 49442.61
1158.825, 49481.70
1159.307, 49458.50
1159.789, 49468.14
1160.271, 49516.64
1160.753, 49537.51
1161.235, 49516.29
1161.717, 49483.84
1162.199, 49458.35
1162.682, 49414.07
1163.164, 49299.93
1163.646, 49171.70
1164.128, 49180.36
1164.610, 49264.02
1165.092, 49265.63
1165.574, 49199.41
1166.056, 49129.56
1166.538, 49081.87
1167.021, 49095.14
1167.503, 49204.69
1167.985, 49294.16
1168.467, 49264.79
1168.949, 49205.66
1169.431, 49165.20
1169.913, 49139.89
1170.395, 49121.46
1170.877, 49114.80
1171.360, 49144.75
1171.842, 49212.75
1172.324, 49224.78
1172.806, 49123.60
1173.288, 49042.82
1173.770, 48984.65
1174.252, 48952.76
1174.734, 48957.98
1175.217, 48971.07
1175.699, 48966.10
1176.181, 48957.48
1176.663, 48983.14
1177.145, 49037.98
1177.627, 49034.54
1178.109, 48976.62
1178.591, 48961.11
1179.073, 48994.83
1179.556, 48998.02
1180.038, 48943.79
1180.520, 48907.43
1181.002, 48960.03
1181.484, 49024.62
1181.966, 48989.66
1182.448, 48916.31
1182.930, 48892.80
1183.412, 48890.68
1183.895, 48852.55
1184.377, 48786.50
1184.859, 48741.26
1185.341, 48730.47
1185.823, 48712.14
1186.305, 48640.78
1186.787, 48603.67
1187.269, 48665.16
1187.752, 48722.29
1188.234, 48727.01
1188.716, 48693.20
1189.198, 48610.46
1189.680, 48510.10
1190.162, 48492.70
1190.644, 48567.86
1191.126, 48657.48
1191.609, 48776.83
1192.091, 48796.84
1192.573, 48691.62
1193.055, 48558.63
1193.537, 48438.84
1194.019, 48362.47
1194.501, 48366.53
1194.983, 48413.52
1195.465, 48449.94
1195.948, 48470.22
1196.430, 48453.16
1196.912, 48414.31
1197.394, 48386.27
1197.876, 48372.36
1198.358, 48362.46
1198.840, 48353.13
1199.322, 48343.91
1199.804, 48331.51
1200.287, 48323.62
1200.769, 48326.52
1201.251, 48331.77
1201.733, 48347.74
1202.215, 48352.86
1202.697, 48305.75
1203.179, 48229.59
1203.661, 48202.63
1204.144, 48236.38
1204.626, 48240.49
1205.108, 48209.28
1205.590, 48172.71
1206.072, 48134.37
1206.554, 48090.79
1207.036, 48038.32
1207.518, 48009.24
1208.000, 48040.08
1208.483, 48096.12
1208.965, 48126.65
1209.447, 48126.38
1209.929, 48066.64
1210.411, 47973.55
1210.893, 47896.58
1211.375, 47844.86
1211.857, 47821.17
1212.339, 47824.60
1212.822, 47818.45
1213.304, 47769.96
1213.786, 47731.19
1214.268, 47724.98
1214.750, 47731.98
1215.232, 47758.75
1215.714, 47778.24
1216.196, 47758.67
1216.679, 47715.39
1217.161, 47683.70
1217.643, 47664.39
1218.125, 47636.98
1218.607, 47599.76
1219.089, 47561.53
1219.571, 47521.67
1220.053, 47508.61
1220.536, 47532.20
1221.018, 47574.21
1221.500, 47625.40
1221.982, 47657.85
1222.464, 47612.03
1222.946, 47537.34
1223.428, 47526.15
1223.910, 47535.74
1224.392, 47493.18
1224.875, 47409.25
1225.357, 47316.89
1225.839, 47227.80
1226.321, 47165.45
1226.803, 47134.99
1227.285, 47137.10
1227.767, 47230.46
1228.249, 47274.00
1228.731, 47195.07
1229.214, 47086.45
1229.696, 46979.84
1230.178, 46906.55
1230.660, 46924.76
1231.142, 47007.99
1231.624, 47014.05
1232.106, 46946.41
1232.588, 46898.21
1233.071, 46870.68
1233.553, 46822.05
1234.035, 46753.24
1234.517, 46745.51
1234.999, 46837.10
1235.481, 46923.29
1235.963, 46914.31
1236.445, 46858.63
1236.927, 46758.08
1237.410, 46673.19
1237.892, 46673.07
1238.374, 46714.46
##END=



