##NAMES=Ferri-winchite
##RRUFFID=R060038
##IDEAL CHEMISTRY=[box]NaCa(Mg_4_Fe^3+^)Si_8_O_22_(OH)_2_
##LOCALITY=Imerina, Madagascar
##OWNER=RRUFF
##SOURCE=University of Arizona Mineral Museum
##DESCRIPTION=Deep black-blue bladed single crystals embedded in dolomite
##STATUS=The identification of this mineral is confirmed by single-crystal X-ray diffraction and chemical analysis.
##URL=rruff.info/R060038
##MEASURED CHEMISTRY=([box]_0.70_Na_0.21_K_0.09_)_Σ=1_(Na_1.40_Ca_0.60_)_Σ=2_(Mg_3.56_Fe^3+^_1.06_Fe^2+^_0.28_Al_0.08_Ti_0.01_)_Σ=5_(Si_7.96_Al_0.04_)_Σ=8.00_O_22_((OH)_1.85_F_0.15_)_Σ=2_
123.3791, 141.7827
123.8613, 141.5634
124.3434, 141.6725
124.8255, 142.0871
125.3076, 142.5199
125.7897, 142.7063
126.2718, 142.6185
126.7540, 142.6422
127.2361, 142.9378
127.7182, 143.3103
128.2003, 143.6541
128.6824, 143.9524
129.1645, 144.2699
129.6467, 144.7330
130.1288, 145.4677
130.6109, 146.0923
131.0930, 146.4874
131.5751, 146.8202
132.0572, 147.2514
132.5394, 147.8488
133.0215, 148.5353
133.5036, 149.0706
133.9857, 149.3448
134.4678, 149.5769
134.9499, 149.7553
135.4321, 149.9085
135.9142, 150.0776
136.3963, 150.2868
136.8784, 150.5321
137.3605, 150.7812
137.8426, 151.0611
138.3248, 151.3221
138.8069, 151.5193
139.2890, 151.6674
139.7711, 151.8414
140.2532, 152.0867
140.7353, 152.4102
141.2175, 152.7862
141.6996, 153.1975
142.1817, 153.6709
142.6638, 154.2170
143.1459, 154.8193
143.6280, 155.5641
144.1102, 156.5982
144.5923, 157.8099
145.0744, 159.0389
145.5565, 160.1787
146.0386, 161.2841
146.5207, 162.5329
147.0029, 163.9674
147.4850, 165.5071
147.9671, 167.0654
148.4492, 168.6755
148.9313, 170.4095
149.4134, 172.3219
149.8955, 174.4140
150.3777, 176.6236
150.8598, 179.2251
151.3419, 181.7172
151.8240, 184.0154
152.3061, 186.0731
152.7882, 187.8263
153.2704, 189.2294
153.7525, 190.2996
154.2346, 190.8913
154.7167, 190.8432
155.1988, 190.5666
155.6809, 190.2022
156.1631, 189.8152
156.6452, 189.4949
157.1273, 189.3580
157.6094, 189.4394
158.0915, 189.6948
158.5736, 190.0454
159.0558, 190.5990
159.5379, 191.5226
160.0200, 192.8703
160.5021, 194.4371
160.9842, 195.8666
161.4663, 197.1396
161.9485, 198.3790
162.4306, 199.6164
162.9127, 200.8388
163.3948, 202.0249
163.8769, 203.1454
164.3590, 204.2674
164.8412, 205.4803
165.3233, 206.7895
165.8054, 208.1637
166.2875, 209.7084
166.7696, 211.3761
167.2517, 212.7611
167.7339, 213.6704
168.2160, 214.2531
168.6981, 214.7396
169.1802, 215.1811
169.6623, 215.3160
170.1444, 214.9661
170.6266, 214.1735
171.1087, 212.6310
171.5908, 209.8142
172.0729, 206.4399
172.5550, 202.7849
173.0371, 198.9119
173.5193, 195.0913
174.0014, 191.7638
174.4835, 189.2178
174.9656, 186.5837
175.4477, 183.4862
175.9298, 180.3588
176.4120, 177.5581
176.8941, 175.2332
177.3762, 173.3070
177.8583, 171.5830
178.3404, 170.0120
178.8225, 168.7588
179.3047, 167.9313
179.7868, 167.3725
180.2689, 166.9225
180.7510, 166.5065
181.2331, 166.1090
181.7152, 165.6676
182.1974, 165.0080
182.6795, 164.4977
183.1616, 164.3231
183.6437, 164.3279
184.1258, 164.2122
184.6079, 163.7772
185.0900, 163.1083
185.5722, 162.7818
186.0543, 163.0039
186.5364, 163.2603
187.0185, 163.3621
187.5006, 163.3417
187.9827, 163.2993
188.4649, 163.2551
188.9470, 163.2595
189.4291, 163.4697
189.9112, 164.0756
190.3933, 164.7102
190.8754, 165.1115
191.3576, 165.2973
191.8397, 165.4689
192.3218, 165.6804
192.8039, 165.9927
193.2860, 166.5061
193.7681, 167.2047
194.2503, 168.1367
194.7324, 169.5451
195.2145, 171.5541
195.6966, 173.2477
196.1787, 173.7198
196.6608, 173.6579
197.1430, 173.8267
197.6251, 174.4899
198.1072, 175.4541
198.5893, 176.4138
199.0714, 177.3670
199.5535, 178.3314
200.0357, 179.3324
200.5178, 180.3412
200.9999, 181.3245
201.4820, 182.2616
201.9641, 183.1783
202.4462, 184.1591
202.9284, 185.3054
203.4105, 186.3437
203.8926, 187.1969
204.3747, 187.9203
204.8568, 188.5688
205.3389, 189.1560
205.8211, 189.7080
206.3032, 190.3412
206.7853, 191.2882
207.2674, 192.0212
207.7495, 192.3318
208.2316, 192.4003
208.7138, 192.4977
209.1959, 192.7993
209.6780, 193.2504
210.1601, 193.4382
210.6422, 193.0504
211.1243, 192.7140
211.6065, 192.5873
212.0886, 192.5786
212.5707, 192.5184
213.0528, 192.2926
213.5349, 191.9253
214.0170, 191.6572
214.4992, 191.5189
214.9813, 191.4343
215.4634, 191.4333
215.9455, 191.4734
216.4276, 191.4695
216.9097, 191.3631
217.3919, 191.1666
217.8740, 190.9994
218.3561, 191.0240
218.8382, 190.9093
219.3203, 190.4890
219.8024, 189.8203
220.2845, 189.0882
220.7667, 188.4230
221.2488, 187.7657
221.7309, 186.8443
222.2130, 185.5367
222.6951, 184.1247
223.1772, 182.7003
223.6594, 181.2697
224.1415, 179.8810
224.6236, 178.6180
225.1057, 177.3755
225.5878, 175.8518
226.0699, 173.8534
226.5521, 171.7903
227.0342, 169.8953
227.5163, 168.1582
227.9984, 166.5228
228.4805, 164.9906
228.9626, 163.5262
229.4448, 162.0491
229.9269, 160.5435
230.4090, 159.0518
230.8911, 157.5577
231.3732, 156.0661
231.8553, 154.7258
232.3375, 153.6993
232.8196, 152.8267
233.3017, 151.9117
233.7838, 150.9055
234.2659, 149.9153
234.7480, 149.0506
235.2302, 148.3151
235.7123, 147.6740
236.1944, 147.1874
236.6765, 146.7579
237.1586, 146.3107
237.6407, 145.8309
238.1229, 145.3361
238.6050, 144.8046
239.0871, 144.2023
239.5692, 143.7611
240.0513, 143.7363
240.5334, 143.7854
241.0156, 143.6826
241.4977, 143.3761
241.9798, 142.9606
242.4619, 142.5329
242.9440, 142.0661
243.4261, 141.6858
243.9083, 141.3986
244.3904, 141.2113
244.8725, 141.1692
245.3546, 141.2700
245.8367, 141.4213
246.3188, 141.5023
246.8010, 141.4981
247.2831, 141.4654
247.7652, 141.3330
248.2473, 141.2291
248.7294, 141.2543
249.2115, 141.4132
249.6937, 141.6166
250.1758, 141.7512
250.6579, 141.7988
251.1400, 141.8240
251.6221, 141.8484
252.1042, 141.8385
252.5864, 141.7772
253.0685, 141.6610
253.5506, 141.4940
254.0327, 141.2716
254.5148, 140.9661
254.9969, 140.6960
255.4790, 140.5033
255.9612, 140.3039
256.4433, 140.0921
256.9254, 139.8446
257.4075, 139.4906
257.8896, 138.9236
258.3718, 138.0379
258.8539, 137.4285
259.3360, 137.2632
259.8181, 137.1654
260.3002, 136.9280
260.7823, 136.5650
261.2645, 136.2297
261.7466, 136.0747
262.2287, 136.1342
262.7108, 136.1238
263.1929, 136.0444
263.6750, 135.9131
264.1572, 135.6888
264.6393, 135.4060
265.1214, 135.1732
265.6035, 135.0885
266.0856, 135.1599
266.5677, 135.1212
267.0499, 134.9033
267.5320, 134.6696
268.0141, 134.4526
268.4962, 134.2718
268.9783, 134.1632
269.4604, 134.1541
269.9426, 134.2404
270.4247, 134.3648
270.9068, 134.5590
271.3889, 134.7494
271.8710, 134.9303
272.3531, 135.0876
272.8352, 135.1846
273.3174, 135.1920
273.7995, 135.1307
274.2816, 135.1031
274.7637, 135.0640
275.2458, 135.0986
275.7279, 135.2991
276.2101, 135.5917
276.6922, 135.7985
277.1743, 135.8163
277.6564, 135.7442
278.1385, 135.8964
278.6206, 136.4088
279.1028, 136.8409
279.5849, 137.0133
280.0670, 137.0310
280.5491, 137.0609
281.0312, 137.1501
281.5133, 137.3152
281.9955, 137.6439
282.4776, 138.2263
282.9597, 138.6360
283.4418, 138.6378
283.9239, 138.4385
284.4060, 138.3652
284.8882, 138.5098
285.3703, 138.7565
285.8524, 138.9527
286.3345, 139.0954
286.8166, 139.2463
287.2987, 139.4219
287.7809, 139.6104
288.2630, 139.7855
288.7451, 139.9375
289.2272, 140.1175
289.7093, 140.3874
290.1914, 140.7442
290.6736, 141.1171
291.1557, 141.5556
291.6378, 141.9760
292.1199, 142.2715
292.6020, 142.4288
293.0841, 142.5494
293.5663, 142.6807
294.0484, 142.8398
294.5305, 143.0957
295.0126, 143.5742
295.4947, 144.0697
295.9768, 144.4072
296.4590, 144.5848
296.9411, 144.6758
297.4232, 144.7054
297.9053, 144.6760
298.3874, 144.6130
298.8695, 144.4525
299.3517, 144.3284
299.8338, 144.3949
300.3159, 144.6171
300.7980, 144.7538
301.2801, 144.6838
301.7622, 144.4616
302.2444, 144.2296
302.7265, 144.0029
303.2086, 143.7336
303.6907, 143.3637
304.1728, 142.9214
304.6549, 142.4860
305.1371, 142.0146
305.6192, 141.6665
306.1013, 141.7494
306.5834, 142.3222
307.0655, 142.7541
307.5476, 142.6289
308.0298, 142.1733
308.5119, 141.9234
308.9940, 142.0246
309.4761, 142.2612
309.9582, 142.4112
310.4403, 142.4873
310.9225, 142.5478
311.4046, 142.6021
311.8867, 142.6551
312.3688, 142.7252
312.8509, 142.8221
313.3330, 142.8933
313.8152, 142.8774
314.2973, 142.7955
314.7794, 142.7110
315.2615, 142.5619
315.7436, 142.4594
316.2257, 142.5445
316.7079, 142.8250
317.1900, 143.1680
317.6721, 143.5424
318.1542, 143.9089
318.6363, 144.1844
319.1184, 144.3541
319.6006, 144.4406
320.0827, 144.4357
320.5648, 144.3488
321.0469, 144.2471
321.5290, 144.1460
322.0111, 144.0563
322.4933, 143.9896
322.9754, 143.9429
323.4575, 143.9250
323.9396, 143.9433
324.4217, 143.9942
324.9038, 144.0728
325.3860, 144.1902
325.8681, 144.3110
326.3502, 144.3916
326.8323, 144.4361
327.3144, 144.4459
327.7965, 144.3597
328.2787, 144.2552
328.7608, 144.2929
329.2429, 144.5219
329.7250, 144.7707
330.2071, 144.8718
330.6892, 144.8445
331.1714, 144.7755
331.6535, 144.5730
332.1356, 144.3998
332.6177, 144.4964
333.0998, 144.8731
333.5819, 145.1983
334.0641, 145.2439
334.5462, 145.0468
335.0283, 144.8304
335.5104, 144.6366
335.9925, 144.3887
336.4746, 143.9925
336.9568, 143.4812
337.4389, 143.0045
337.9210, 142.5981
338.4031, 142.2988
338.8852, 142.2015
339.3673, 142.4004
339.8495, 142.5457
340.3316, 142.4895
340.8137, 142.2836
341.2958, 142.0005
341.7779, 141.6385
342.2600, 141.2884
342.7421, 141.1015
343.2242, 141.0896
343.7064, 141.0805
344.1885, 141.0181
344.6706, 140.9554
345.1527, 140.9525
345.6348, 141.0179
346.1169, 141.1275
346.5991, 141.2757
347.0812, 141.4633
347.5633, 141.5970
348.0454, 141.6068
348.5275, 141.6217
349.0096, 141.7057
349.4918, 141.8656
349.9739, 142.1146
350.4560, 142.4760
350.9381, 142.9275
351.4202, 143.3578
351.9023, 143.7703
352.3845, 144.1584
352.8666, 144.5318
353.3487, 144.8790
353.8308, 145.1613
354.3129, 145.3566
354.7950, 145.5226
355.2772, 145.7838
355.7593, 146.2212
356.2414, 146.5734
356.7235, 146.6867
357.2056, 146.7755
357.6877, 147.0763
358.1699, 147.6229
358.6520, 148.2479
359.1341, 148.7723
359.6162, 149.1696
360.0983, 149.6033
360.5804, 150.0519
361.0626, 150.5520
361.5447, 151.1314
362.0268, 151.7855
362.5089, 152.5014
362.9910, 153.2791
363.4731, 154.1087
363.9553, 154.8664
364.4374, 155.4854
364.9195, 156.1250
365.4016, 156.8020
365.8837, 157.5236
366.3658, 158.3255
366.8480, 159.2238
367.3301, 160.1394
367.8122, 160.8928
368.2943, 161.3442
368.7764, 161.8394
369.2585, 162.4929
369.7407, 163.1089
370.2228, 163.5950
370.7049, 163.9081
371.1870, 163.9820
371.6691, 163.7118
372.1512, 163.0343
372.6334, 162.4030
373.1155, 162.0791
373.5976, 161.5471
374.0797, 160.5010
374.5618, 159.0987
375.0439, 157.6578
375.5261, 156.3683
376.0082, 155.2331
376.4903, 154.2611
376.9724, 153.5369
377.4545, 152.8654
377.9366, 152.1630
378.4188, 151.5127
378.9009, 151.0278
379.3830, 150.7426
379.8651, 150.5379
380.3472, 150.2108
380.8293, 149.6900
381.3115, 149.2761
381.7936, 149.0174
382.2757, 148.8534
382.7578, 148.7844
383.2399, 148.7935
383.7220, 148.8258
384.2042, 148.7927
384.6863, 148.7121
385.1684, 148.8757
385.6505, 149.5675
386.1326, 150.0980
386.6147, 149.9658
387.0969, 149.5554
387.5790, 149.5364
388.0611, 150.3267
388.5432, 151.4216
389.0253, 151.8849
389.5074, 151.6016
389.9896, 151.1989
390.4717, 150.7936
390.9538, 150.4046
391.4359, 150.0706
391.9180, 149.8000
392.4001, 149.5032
392.8823, 149.0681
393.3644, 148.5259
393.8465, 148.0798
394.3286, 147.8283
394.8107, 147.5724
395.2928, 147.1091
395.7750, 146.4953
396.2571, 145.9340
396.7392, 145.5236
397.2213, 145.2009
397.7034, 144.8793
398.1855, 144.5581
398.6677, 144.2321
399.1498, 143.8088
399.6319, 143.4211
400.1140, 143.3718
400.5961, 143.8959
401.0782, 144.3730
401.5604, 144.3878
402.0425, 144.0650
402.5246, 143.7662
403.0067, 143.6027
403.4888, 143.5053
403.9709, 143.3605
404.4531, 143.1502
404.9352, 143.0250
405.4173, 143.0743
405.8994, 143.1828
406.3815, 143.2155
406.8636, 143.1701
407.3458, 143.1691
407.8279, 143.3202
408.3100, 143.6142
408.7921, 143.8625
409.2742, 144.0972
409.7563, 144.2591
410.2385, 144.3347
410.7206, 144.3200
411.2027, 144.1815
411.6848, 143.9004
412.1669, 143.5591
412.6490, 143.3303
413.1311, 143.3327
413.6133, 143.2465
414.0954, 143.0398
414.5775, 142.7720
415.0596, 142.4747
415.5417, 142.1575
416.0238, 141.8235
416.5060, 141.4757
416.9881, 141.1156
417.4702, 140.7324
417.9523, 140.3099
418.4344, 139.8777
418.9165, 139.4552
419.3987, 139.0238
419.8808, 138.5470
420.3629, 138.0105
420.8450, 137.4399
421.3271, 136.8890
421.8092, 136.3477
422.2914, 135.8591
422.7735, 135.3849
423.2556, 134.9914
423.7377, 134.7659
424.2198, 134.6879
424.7019, 134.6177
425.1841, 134.4326
425.6662, 134.1424
426.1483, 133.8488
426.6304, 133.5140
427.1125, 133.2441
427.5946, 133.1162
428.0768, 133.0676
428.5589, 132.9975
429.0410, 132.8448
429.5231, 132.7159
430.0052, 132.8112
430.4873, 133.1396
430.9695, 133.3123
431.4516, 133.1235
431.9337, 132.8156
432.4158, 132.6703
432.8979, 132.6892
433.3800, 132.7085
433.8622, 132.5967
434.3443, 132.4496
434.8264, 132.4832
435.3085, 132.7432
435.7906, 132.9609
436.2727, 132.9238
436.7549, 132.6663
437.2370, 132.4103
437.7191, 132.1245
438.2012, 131.8801
438.6833, 131.7673
439.1654, 131.7243
439.6476, 131.5825
440.1297, 131.2670
440.6118, 130.8787
441.0939, 130.5804
441.5760, 130.3677
442.0581, 130.2731
442.5403, 130.4436
443.0224, 130.6268
443.5045, 130.6068
443.9866, 130.3967
444.4687, 130.1616
444.9508, 130.0332
445.4330, 129.9968
445.9151, 129.8753
446.3972, 129.3822
446.8793, 129.1494
447.3614, 129.5403
447.8435, 130.1236
448.3257, 130.3787
448.8078, 130.1546
449.2899, 129.7325
449.7720, 129.5382
450.2541, 129.6773
450.7362, 129.6786
451.2184, 129.3719
451.7005, 129.0843
452.1826, 128.9550
452.6647, 128.9520
453.1468, 128.9693
453.6289, 128.9372
454.1111, 128.8908
454.5932, 128.9521
455.0753, 129.1886
455.5574, 129.3293
456.0395, 129.1755
456.5216, 128.9486
457.0038, 128.8132
457.4859, 128.7916
457.9680, 128.8336
458.4501, 128.9364
458.9322, 129.0761
459.4143, 129.1425
459.8965, 129.0863
460.3786, 129.0600
460.8607, 129.2187
461.3428, 129.5031
461.8249, 129.7695
462.3070, 130.0370
462.7892, 130.2364
463.2713, 130.2653
463.7534, 130.1695
464.2355, 130.1252
464.7176, 130.2066
465.1997, 130.3502
465.6819, 130.4425
466.1640, 130.4591
466.6461, 130.5213
467.1282, 130.7392
467.6103, 130.9386
468.0924, 130.9260
468.5746, 130.7309
469.0567, 130.5691
469.5388, 130.6082
470.0209, 130.8096
470.5030, 130.9073
470.9851, 130.8019
471.4673, 130.7099
471.9494, 130.6924
472.4315, 130.6796
472.9136, 130.5755
473.3957, 130.3687
473.8778, 130.1602
474.3600, 130.0878
474.8421, 130.1788
475.3242, 130.2033
475.8063, 130.1597
476.2884, 130.0417
476.7705, 129.7902
477.2527, 129.4751
477.7348, 129.2027
478.2169, 129.0171
478.6990, 128.9060
479.1811, 128.8799
479.6632, 128.9563
480.1454, 128.9673
480.6275, 128.8566
481.1096, 128.6800
481.5917, 128.4484
482.0738, 128.1774
482.5559, 127.9820
483.0380, 127.9741
483.5201, 128.0521
484.0023, 128.0316
484.4844, 127.9018
484.9665, 127.8308
485.4486, 127.9545
485.9307, 128.1789
486.4128, 128.2490
486.8950, 128.1019
487.3771, 127.9459
487.8592, 127.8144
488.3413, 127.7315
488.8234, 127.7507
489.3055, 127.8768
489.7877, 128.0246
490.2698, 128.1051
490.7519, 128.1122
491.2340, 128.1780
491.7161, 128.3348
492.1982, 128.5028
492.6804, 128.6736
493.1625, 128.8354
493.6446, 128.9745
494.1267, 129.0861
494.6088, 129.1767
495.0909, 129.2355
495.5731, 129.2081
496.0552, 129.3239
496.5373, 129.7210
497.0194, 130.1353
497.5015, 130.4875
497.9836, 130.7719
498.4658, 130.9951
498.9479, 131.1555
499.4300, 131.2666
499.9121, 131.3306
500.3942, 131.3272
500.8763, 131.4019
501.3585, 131.6270
501.8406, 131.9237
502.3227, 132.2414
502.8048, 132.5755
503.2869, 132.8681
503.7690, 133.0280
504.2512, 133.1573
504.7333, 133.4288
505.2154, 133.8534
505.6975, 134.2888
506.1796, 134.6579
506.6617, 134.9747
507.1439, 135.2870
507.6260, 135.6096
508.1081, 135.9064
508.5902, 136.1672
509.0723, 136.3974
509.5544, 136.5703
510.0366, 136.6964
510.5187, 136.8817
511.0008, 137.2385
511.4829, 137.7662
511.9650, 138.2200
512.4471, 138.5438
512.9293, 138.8616
513.4114, 139.2451
513.8935, 139.6125
514.3756, 139.8506
514.8577, 139.9344
515.3398, 139.9697
515.8220, 140.0626
516.3041, 140.2053
516.7862, 140.5041
517.2683, 141.1595
517.7504, 141.7043
518.2325, 141.8940
518.7147, 141.8508
519.1968, 141.7768
519.6789, 141.7400
520.1610, 141.6982
520.6431, 141.5500
521.1252, 141.3240
521.6074, 141.2750
522.0895, 141.5132
522.5716, 141.8440
523.0537, 142.0482
523.5358, 142.1468
524.0179, 142.2995
524.5001, 142.5959
524.9822, 142.9004
525.4643, 143.0721
525.9464, 143.1675
526.4285, 143.3722
526.9106, 143.7761
527.3928, 144.2700
527.8749, 144.6394
528.3570, 144.7508
528.8391, 145.0641
529.3212, 145.7176
529.8033, 146.4279
530.2855, 147.0526
530.7676, 147.6028
531.2497, 148.1497
531.7318, 148.7396
532.2139, 149.3365
532.6960, 149.8448
533.1782, 150.2498
533.6603, 150.6079
534.1424, 150.8631
534.6245, 151.1253
535.1066, 151.4625
535.5887, 151.8675
536.0709, 152.2976
536.5530, 152.8024
537.0351, 153.2771
537.5172, 153.5073
537.9993, 153.4842
538.4814, 153.3972
538.9636, 153.3284
539.4457, 153.2298
539.9278, 153.0387
540.4099, 152.7677
540.8920, 152.3679
541.3741, 151.7103
541.8563, 150.9925
542.3384, 150.4323
542.8205, 150.0164
543.3026, 149.5929
543.7847, 149.0755
544.2668, 148.4672
544.7490, 147.7898
545.2311, 146.9610
545.7132, 146.1741
546.1953, 145.4538
546.6774, 144.7599
547.1595, 144.0295
547.6417, 143.2855
548.1238, 142.6311
548.6059, 142.1425
549.0880, 141.8019
549.5701, 141.5534
550.0522, 141.4688
550.5344, 141.2935
551.0165, 140.8976
551.4986, 140.4117
551.9807, 139.8841
552.4628, 139.3283
552.9449, 138.8757
553.4271, 138.6855
553.9092, 138.6178
554.3913, 138.3984
554.8734, 138.0146
555.3555, 137.6943
555.8376, 137.6053
556.3198, 137.6239
556.8019, 137.3912
557.2840, 136.7463
557.7661, 136.2973
558.2482, 136.3207
558.7303, 136.4770
559.2125, 136.4623
559.6946, 136.2711
560.1767, 136.0700
560.6588, 135.9804
561.1409, 135.9624
561.6230, 135.8322
562.1052, 135.4294
562.5873, 135.1903
563.0694, 135.3026
563.5515, 135.4557
564.0336, 135.4171
564.5157, 135.1956
564.9979, 134.9586
565.4800, 134.8251
565.9621, 134.7566
566.4442, 134.6603
566.9263, 134.5367
567.4084, 134.3785
567.8906, 134.1456
568.3727, 133.9096
568.8548, 133.7604
569.3369, 133.7004
569.8190, 133.6801
570.3011, 133.6638
570.7833, 133.6945
571.2654, 133.9165
571.7475, 134.2615
572.2296, 134.3694
572.7117, 134.0153
573.1938, 133.4181
573.6760, 133.1077
574.1581, 133.3096
574.6402, 133.3951
575.1223, 133.2858
575.6044, 133.1388
576.0865, 133.0324
576.5687, 132.9670
577.0508, 132.9282
577.5329, 132.9178
578.0150, 132.8890
578.4971, 132.7147
578.9792, 132.3584
579.4614, 132.0631
579.9435, 131.8811
580.4256, 131.7647
580.9077, 131.6914
581.3898, 131.6526
581.8719, 131.6155
582.3541, 131.5618
582.8362, 131.5117
583.3183, 131.5354
583.8004, 131.5902
584.2825, 131.4958
584.7646, 131.1782
585.2468, 130.7702
585.7289, 130.4308
586.2110, 130.1709
586.6931, 129.9434
587.1752, 129.7523
587.6573, 129.5895
588.1394, 129.5212
588.6215, 129.4564
589.1036, 129.2440
589.5858, 128.8365
590.0679, 128.3431
590.5500, 127.9052
591.0321, 127.5274
591.5142, 127.1505
591.9963, 126.7663
592.4785, 126.3945
592.9606, 126.0068
593.4427, 125.6434
593.9248, 125.3659
594.4069, 125.1922
594.8890, 125.0764
595.3712, 125.0436
595.8533, 125.0323
596.3354, 124.8663
596.8175, 124.5146
597.2996, 124.1717
597.7817, 123.9669
598.2639, 123.8895
598.7460, 123.8906
599.2281, 124.0855
599.7102, 124.1937
600.1923, 124.1576
600.6744, 124.0305
601.1566, 123.8144
601.6387, 123.5435
602.1208, 123.3090
602.6029, 123.1750
603.0850, 123.1387
603.5671, 123.2146
604.0493, 123.4796
604.5314, 123.6506
605.0135, 123.6350
605.4956, 123.5237
605.9777, 123.3210
606.4598, 123.0560
606.9420, 122.8614
607.4241, 122.8610
607.9062, 122.9226
608.3883, 122.8676
608.8704, 122.7218
609.3525, 122.6381
609.8347, 122.6808
610.3168, 122.7674
610.7989, 122.7785
611.2810, 122.6878
611.7631, 122.6576
612.2452, 122.7622
612.7274, 122.8452
613.2095, 122.8150
613.6916, 122.7296
614.1737, 122.6842
614.6558, 122.7095
615.1379, 122.7542
615.6201, 122.7314
616.1022, 122.6360
616.5843, 122.6544
617.0664, 122.8331
617.5485, 123.0430
618.0306, 123.2940
618.5128, 123.5100
618.9949, 123.5649
619.4770, 123.4083
619.9591, 123.2762
620.4412, 123.3545
620.9233, 123.5163
621.4055, 123.5593
621.8876, 123.4744
622.3697, 123.3755
622.8518, 123.3282
623.3339, 123.3212
623.8160, 123.3236
624.2982, 123.3790
624.7803, 123.3699
625.2624, 123.1707
625.7445, 123.0227
626.2266, 123.1282
626.7087, 123.4049
627.1909, 123.6257
627.6730, 123.6607
628.1551, 123.6340
628.6372, 123.7794
629.1193, 124.1034
629.6014, 124.3561
630.0836, 124.4648
630.5657, 124.5540
631.0478, 124.7734
631.5299, 125.0497
632.0120, 125.1848
632.4941, 125.0572
632.9763, 124.9186
633.4584, 124.8824
633.9405, 124.9184
634.4226, 124.9718
634.9047, 125.0387
635.3868, 125.1820
635.8690, 125.4697
636.3511, 125.8720
636.8332, 126.1824
637.3153, 126.3714
637.7974, 126.5122
638.2795, 126.5923
638.7617, 126.6497
639.2438, 126.6743
639.7259, 126.6931
640.2080, 126.7950
640.6901, 127.0658
641.1722, 127.4090
641.6544, 127.6536
642.1365, 127.8163
642.6186, 128.0871
643.1007, 128.5633
643.5828, 129.0345
644.0649, 129.2392
644.5471, 129.1596
645.0292, 129.2222
645.5113, 129.4640
645.9934, 129.8035
646.4755, 130.2759
646.9576, 130.7997
647.4398, 131.2639
647.9219, 131.6524
648.4040, 132.0299
648.8861, 132.4450
649.3682, 132.9023
649.8503, 133.4495
650.3325, 134.1184
650.8146, 134.7790
651.2967, 135.3644
651.7788, 135.9417
652.2609, 136.5450
652.7430, 137.1809
653.2252, 137.9375
653.7073, 138.9339
654.1894, 139.9914
654.6715, 140.9349
655.1536, 141.8019
655.6357, 142.7212
656.1179, 143.7375
656.6000, 144.7911
657.0821, 145.7882
657.5642, 146.7116
658.0463, 147.8140
658.5284, 149.2670
659.0106, 150.7085
659.4927, 152.0142
659.9748, 153.3069
660.4569, 154.7513
660.9390, 156.3517
661.4211, 157.9275
661.9033, 159.2917
662.3854, 160.5411
662.8675, 161.9063
663.3496, 163.3898
663.8317, 164.7725
664.3138, 165.9079
664.7960, 167.0200
665.2781, 168.4874
665.7602, 170.3987
666.2423, 172.1423
666.7244, 173.6612
667.2065, 175.0548
667.6887, 176.2693
668.1708, 177.4311
668.6529, 178.7252
669.1350, 180.1933
669.6171, 181.7445
670.0992, 183.3585
670.5814, 184.9971
671.0635, 186.2613
671.5456, 187.1434
672.0277, 187.6837
672.5098, 187.8126
672.9919, 187.6552
673.4741, 187.4442
673.9562, 187.1903
674.4383, 186.5463
674.9204, 185.3684
675.4025, 183.7983
675.8846, 181.9129
676.3668, 179.7292
676.8489, 177.1785
677.3310, 174.2642
677.8131, 171.2326
678.2952, 168.4090
678.7773, 165.8007
679.2595, 163.1837
679.7416, 160.4044
680.2237, 157.8979
680.7058, 155.8874
681.1879, 154.1183
681.6700, 152.4040
682.1522, 150.7155
682.6343, 149.0285
683.1164, 147.2810
683.5985, 145.5768
684.0806, 144.0101
684.5627, 142.5965
685.0449, 141.4591
685.5270, 140.6525
686.0091, 139.9709
686.4912, 139.1606
686.9733, 138.2101
687.4554, 137.2668
687.9376, 136.2267
688.4197, 135.3176
688.9018, 134.5887
689.3839, 134.0069
689.8660, 133.6130
690.3481, 133.3662
690.8303, 133.0437
691.3124, 132.3817
691.7945, 131.6167
692.2766, 131.2457
692.7587, 131.2289
693.2408, 131.0760
693.7230, 130.6068
694.2051, 130.0541
694.6872, 129.6840
695.1693, 129.5057
695.6514, 129.3187
696.1335, 129.1465
696.6157, 128.9362
697.0978, 128.6516
697.5799, 128.3364
698.0620, 128.0135
698.5441, 127.7004
699.0262, 127.4264
699.5084, 127.1877
699.9905, 127.0321
700.4726, 127.1336
700.9547, 127.5000
701.4368, 127.7252
701.9189, 127.6849
702.4011, 127.5347
702.8832, 127.4300
703.3653, 127.2336
703.8474, 127.1643
704.3295, 126.7432
704.8116, 126.3510
705.2938, 125.9916
705.7759, 125.7427
706.2580, 125.7556
706.7401, 125.9784
707.2222, 126.1595
707.7043, 126.1201
708.1865, 125.9630
708.6686, 125.9258
709.1507, 126.0192
709.6328, 126.1030
710.1149, 126.1606
710.5970, 126.1953
711.0792, 126.1993
711.5613, 126.1818
712.0434, 126.1742
712.5255, 126.2083
713.0076, 126.1972
713.4897, 126.0257
713.9719, 125.8573
714.4540, 125.8943
714.9361, 126.0924
715.4182, 126.2427
715.9003, 126.2246
716.3824, 126.1310
716.8646, 126.1386
717.3467, 126.2560
717.8288, 126.3911
718.3109, 126.5803
718.7930, 126.7092
719.2751, 126.6444
719.7573, 126.5019
720.2394, 126.4757
720.7215, 126.5992
721.2036, 126.7554
721.6857, 126.9435
722.1678, 127.1168
722.6500, 127.2481
723.1321, 127.3292
723.6142, 127.3299
724.0963, 127.2396
724.5784, 127.1321
725.0605, 127.1113
725.5427, 127.1788
726.0248, 127.2713
726.5069, 127.4096
726.9890, 127.5248
727.4711, 127.5610
727.9532, 127.5780
728.4354, 127.6459
728.9175, 127.7677
729.3995, 127.8936
729.8817, 128.0739
730.3638, 128.1900
730.8459, 128.0499
731.3280, 127.8170
731.8101, 127.8093
732.2922, 128.1002
732.7744, 128.5151
733.2565, 128.9064
733.7386, 129.2618
734.2207, 129.4870
734.7028, 129.5627
735.1849, 129.5701
735.6671, 129.4866
736.1492, 129.3850
736.6313, 129.3017
737.1134, 129.2483
737.5955, 129.2819
738.0776, 129.5270
738.5598, 129.7181
739.0419, 129.6099
739.5240, 129.4368
740.0061, 129.5532
740.4882, 129.9395
740.9703, 130.2710
741.4525, 130.3225
741.9346, 130.2146
742.4167, 130.2234
742.8988, 130.3515
743.3809, 130.5968
743.8630, 131.0853
744.3452, 131.4750
744.8273, 131.4827
745.3094, 131.2639
745.7915, 131.1026
746.2736, 131.0345
746.7557, 130.9650
747.2379, 130.8188
747.7200, 130.6981
748.2021, 130.7340
748.6842, 130.8610
749.1663, 130.9103
749.6484, 130.8160
750.1306, 130.6723
750.6127, 130.6011
751.0948, 130.5975
751.5769, 130.5878
752.0590, 130.5704
752.5411, 130.5607
753.0233, 130.6112
753.5054, 130.6280
753.9875, 130.4453
754.4696, 130.0669
754.9517, 129.7741
755.4338, 129.5974
755.9160, 129.5196
756.3981, 129.5769
756.8802, 129.7054
757.3623, 129.8752
757.8444, 130.0475
758.3265, 130.1114
758.8087, 129.9593
759.2908, 129.6842
759.7729, 129.4846
760.2550, 129.3612
760.7371, 129.2935
761.2192, 129.3105
761.7014, 129.2820
762.1835, 129.0722
762.6656, 128.7370
763.1477, 128.5183
763.6298, 128.4043
764.1119, 128.4139
764.5941, 128.7133
765.0762, 128.9856
765.5583, 128.9691
766.0404, 128.7751
766.5225, 128.6564
767.0046, 128.7091
767.4868, 128.8110
767.9689, 128.8562
768.4510, 128.8439
768.9331, 128.7253
769.4152, 128.4980
769.8973, 128.4043
770.3795, 128.5878
770.8616, 128.8302
771.3437, 128.7901
771.8258, 128.4000
772.3079, 128.2224
772.7900, 128.4747
773.2722, 128.6523
773.7543, 128.5662
774.2364, 128.4178
774.7185, 128.4151
775.2006, 128.5469
775.6827, 128.6436
776.1649, 128.6278
776.6470, 128.5225
777.1291, 128.2541
777.6112, 127.9277
778.0933, 127.8419
778.5754, 128.0401
779.0576, 128.3597
779.5397, 128.7125
780.0218, 129.0431
780.5039, 129.1657
780.9860, 128.9883
781.4681, 128.8493
781.9503, 128.8029
782.4324, 128.7414
782.9145, 128.6078
783.3966, 128.4382
783.8787, 128.2607
784.3608, 128.0717
784.8430, 127.9761
785.3251, 128.1205
785.8072, 128.2957
786.2893, 128.2729
786.7714, 128.1314
787.2535, 128.0955
787.7357, 128.2210
788.2178, 128.3390
788.6999, 128.2746
789.1820, 128.0542
789.6641, 127.7874
790.1462, 127.4234
790.6284, 127.2486
791.1105, 127.3451
791.5926, 127.6183
792.0747, 128.0913
792.5568, 128.6899
793.0389, 129.1093
793.5211, 129.2686
794.0032, 129.3556
794.4853, 129.3795
794.9674, 129.3764
795.4495, 129.3926
795.9316, 129.4035
796.4138, 129.3551
796.8959, 129.2250
797.3780, 129.0159
797.8601, 128.6301
798.3422, 128.1713
798.8243, 128.0647
799.3065, 128.3266
799.7886, 128.4949
800.2707, 128.3599
800.7528, 128.1477
801.2349, 128.1496
801.7170, 128.3785
802.1992, 128.6191
802.6813, 129.0023
803.1634, 129.2223
803.6455, 129.1671
804.1276, 128.9957
804.6097, 128.7684
805.0919, 128.5329
805.5740, 128.3960
806.0561, 128.4176
806.5382, 128.5008
807.0203, 128.5908
807.5024, 128.6810
807.9846, 128.7501
808.4667, 128.8051
808.9488, 128.8929
809.4309, 129.0398
809.9130, 129.2042
810.3951, 129.3056
810.8773, 129.3352
811.3594, 129.4373
811.8415, 129.6476
812.3236, 129.8423
812.8057, 129.9677
813.2878, 130.0631
813.7700, 130.2110
814.2521, 130.4012
814.7342, 130.4400
815.2163, 130.1999
815.6984, 129.9292
816.1805, 129.6437
816.6627, 129.4253
817.1448, 129.3785
817.6269, 129.4826
818.1090, 129.6476
818.5911, 129.8396
819.0732, 130.0042
819.5554, 130.0186
820.0375, 129.9408
820.5196, 130.0212
821.0017, 130.2809
821.4838, 130.5324
821.9659, 130.6889
822.4481, 130.7685
822.9302, 130.7850
823.4123, 130.7118
823.8944, 130.7581
824.3765, 131.1539
824.8586, 131.3460
825.3408, 131.1008
825.8229, 130.7070
826.3050, 130.3219
826.7871, 129.9954
827.2692, 129.8686
827.7513, 130.1192
828.2335, 130.3745
828.7156, 130.3649
829.1977, 130.2515
829.6798, 130.2217
830.1619, 130.2967
830.6440, 130.4766
831.1262, 130.7660
831.6083, 131.0249
832.0904, 130.9701
832.5725, 130.6389
833.0546, 130.5593
833.5367, 130.7747
834.0189, 131.0300
834.5010, 131.2692
834.9831, 131.4368
835.4652, 131.4594
835.9473, 131.3335
836.4294, 131.1539
836.9116, 130.7148
837.3937, 130.5071
837.8758, 130.7871
838.3579, 131.1697
838.8400, 131.3626
839.3221, 131.4136
839.8043, 131.5331
840.2864, 131.8235
840.7685, 132.0621
841.2506, 132.0053
841.7327, 131.8352
842.2148, 131.7972
842.6970, 131.8917
843.1791, 132.0668
843.6612, 132.3007
844.1433, 132.5184
844.6254, 132.6235
845.1075, 132.6317
845.5897, 132.6581
846.0718, 132.7041
846.5539, 132.7677
847.0360, 132.8769
847.5181, 132.9541
848.0002, 132.9220
848.4824, 132.8027
848.9645, 132.7003
849.4466, 132.6056
849.9287, 132.5449
850.4108, 132.5361
850.8929, 132.5470
851.3751, 132.5233
851.8572, 132.5226
852.3393, 132.6681
852.8214, 132.9772
853.3035, 133.2543
853.7856, 133.3444
854.2678, 133.3418
854.7499, 133.3521
855.2320, 133.3681
855.7141, 133.3475
856.1962, 133.2905
856.6783, 133.2974
857.1605, 133.4580
857.6426, 133.6940
858.1247, 133.7903
858.6068, 133.7290
859.0889, 133.6592
859.5710, 133.5686
860.0532, 133.5265
860.5353, 133.5753
861.0174, 133.6870
861.4995, 133.8537
861.9816, 134.1100
862.4637, 134.1692
862.9459, 133.7128
863.4280, 133.4450
863.9101, 133.7388
864.3922, 134.2039
864.8743, 134.4695
865.3564, 134.5546
865.8386, 134.7045
866.3207, 135.0634
866.8028, 135.4027
867.2849, 135.5200
867.7670, 135.4967
868.2491, 135.4045
868.7313, 135.2880
869.2134, 135.2840
869.6955, 135.4468
870.1776, 135.6544
870.6597, 135.7432
871.1418, 135.9099
871.6239, 136.0681
872.1060, 136.1404
872.5881, 136.3455
873.0703, 136.3930
873.5524, 136.4474
874.0345, 136.6857
874.5166, 137.0380
874.9987, 137.1927
875.4808, 136.9123
875.9630, 136.8532
876.4451, 137.2323
876.9272, 137.5953
877.4093, 137.7245
877.8914, 137.7272
878.3735, 137.6964
878.8557, 137.6639
879.3378, 137.7937
879.8199, 138.3828
880.3020, 138.9363
880.7841, 138.9636
881.2662, 138.7526
881.7484, 138.7054
882.2305, 138.8786
882.7126, 139.2116
883.1947, 139.6849
883.6768, 140.1432
884.1589, 140.3204
884.6411, 140.2638
885.1232, 140.1964
885.6053, 140.1230
886.0874, 140.2305
886.5695, 140.6112
887.0516, 141.1246
887.5338, 141.6375
888.0159, 142.1437
888.4980, 142.4921
888.9801, 142.6808
889.4622, 142.7131
889.9443, 142.4415
890.4265, 142.1703
890.9086, 142.1018
891.3907, 142.1347
891.8728, 142.0503
892.3549, 141.7758
892.8370, 141.6466
893.3192, 141.9567
893.8013, 142.2149
894.2834, 142.0488
894.7655, 141.7120
895.2476, 141.5364
895.7297, 141.5549
896.2119, 141.6109
896.6940, 141.6408
897.1761, 141.5997
897.6582, 141.3924
898.1403, 141.0882
898.6224, 140.8418
899.1046, 140.6590
899.5867, 140.4549
900.0688, 140.1896
900.5509, 139.9874
901.0330, 140.0307
901.5151, 140.2913
901.9973, 140.5499
902.4794, 140.8349
902.9615, 140.9454
903.4436, 140.8227
903.9257, 140.5424
904.4078, 140.1022
904.8900, 139.5721
905.3721, 139.1818
905.8542, 138.9734
906.3363, 138.8193
906.8184, 138.7029
907.3005, 138.6569
907.7827, 138.7214
908.2648, 138.8428
908.7469, 138.9956
909.2290, 139.1609
909.7111, 139.2402
910.1932, 139.1287
910.6754, 139.0249
911.1575, 139.0927
911.6396, 139.1772
912.1217, 139.0615
912.6038, 138.8233
913.0859, 138.7094
913.5681, 138.8106
914.0502, 138.9668
914.5323, 139.0932
915.0144, 139.1302
915.4965, 138.8596
915.9786, 138.3775
916.4608, 138.0942
916.9429, 138.1000
917.4250, 138.2607
917.9071, 138.4982
918.3892, 138.7489
918.8713, 138.8177
919.3535, 138.6714
919.8356, 138.7433
920.3177, 139.1220
920.7998, 139.4718
921.2819, 139.7104
921.7640, 139.7813
922.2462, 139.5615
922.7283, 139.0597
923.2104, 138.7042
923.6925, 138.5194
924.1746, 138.4506
924.6567, 138.6716
925.1389, 138.8229
925.6210, 138.5968
926.1031, 138.2115
926.5852, 138.0485
927.0673, 138.1776
927.5494, 138.3384
928.0316, 138.5048
928.5137, 138.6025
928.9958, 138.5414
929.4779, 138.4155
929.9600, 138.3062
930.4421, 138.2439
930.9243, 138.2965
931.4064, 138.0095
931.8885, 138.2795
932.3706, 138.4045
932.8527, 137.9501
933.3348, 138.2438
933.8170, 138.2377
934.2991, 138.2194
934.7812, 138.6184
935.2633, 138.2483
935.7454, 138.6407
936.2275, 138.7287
936.7097, 138.9561
937.1918, 138.8817
937.6739, 138.9006
938.1560, 139.2212
938.6381, 139.3747
939.1202, 139.2656
939.6024, 139.5019
940.0845, 139.1211
940.5666, 139.2818
941.0487, 139.6760
941.5308, 140.1778
942.0129, 140.4426
942.4951, 140.4573
942.9772, 140.4852
943.4593, 140.7573
943.9414, 141.1498
944.4235, 141.4133
944.9056, 141.5208
945.3878, 141.5723
945.8699, 141.4086
946.3520, 141.4011
946.8341, 141.8147
947.3162, 142.3578
947.7983, 142.7459
948.2805, 142.9927
948.7626, 143.2690
949.2447, 143.6542
949.7268, 144.0152
950.2089, 144.1949
950.6910, 144.3813
951.1732, 144.7952
951.6553, 145.3399
952.1374, 145.8152
952.6195, 146.1755
953.1016, 146.4857
953.5837, 146.7684
954.0659, 147.0763
954.5480, 147.4777
955.0301, 147.9626
955.5122, 148.5529
955.9943, 149.2171
956.4764, 149.7766
956.9586, 150.1550
957.4407, 150.5027
957.9228, 151.0093
958.4049, 151.6255
958.8870, 152.1131
959.3691, 152.4676
959.8513, 153.0492
960.3334, 153.9635
960.8155, 154.8220
961.2976, 155.4153
961.7797, 155.7699
962.2618, 155.8902
962.7440, 155.7189
963.2261, 155.9085
963.7082, 156.6221
964.1903, 157.3156
964.6724, 157.8853
965.1545, 158.3705
965.6367, 158.8319
966.1188, 159.0460
966.6009, 159.4069
967.0830, 159.2582
967.5651, 159.1813
968.0472, 159.1115
968.5294, 159.2134
969.0115, 159.8408
969.4936, 160.4403
969.9757, 160.4064
970.4578, 159.8440
970.9399, 159.3490
971.4221, 159.1449
971.9042, 158.8317
972.3863, 158.1236
972.8684, 157.3924
973.3505, 156.9602
973.8326, 156.6495
974.3148, 156.1766
974.7969, 155.5050
975.2790, 154.7766
975.7611, 153.9851
976.2432, 153.3154
976.7253, 153.0728
977.2075, 152.9493
977.6896, 152.4926
978.1717, 151.7811
978.6538, 151.1301
979.1359, 150.6405
979.6180, 150.2173
980.1002, 149.7875
980.5823, 149.3612
981.0644, 148.9520
981.5465, 148.5572
982.0286, 148.1016
982.5107, 147.6138
982.9929, 147.3453
983.4750, 147.4127
983.9571, 147.6745
984.4392, 148.0309
984.9213, 148.3900
985.4034, 148.2846
985.8856, 147.7168
986.3677, 147.0880
986.8498, 146.4497
987.3319, 145.9213
987.8140, 145.5917
988.2961, 145.3606
988.7783, 145.0193
989.2604, 144.9530
989.7425, 144.4822
990.2246, 144.9450
990.7067, 145.3315
991.1888, 145.5758
991.6710, 145.5651
992.1531, 145.1001
992.6352, 144.4058
993.1173, 144.0424
993.5994, 144.0880
994.0815, 144.1574
994.5637, 144.2918
995.0458, 144.3873
995.5279, 144.4049
996.0100, 144.3896
996.4921, 144.3583
996.9742, 144.3233
997.4564, 144.3186
997.9385, 144.3544
998.4206, 144.4002
998.9027, 144.4854
999.3848, 144.5419
999.8669, 144.5557
1000.349, 144.5210
1000.831, 144.3729
1001.313, 144.1702
1001.795, 144.1240
1002.278, 144.3447
1002.760, 144.5344
1003.242, 144.5252
1003.724, 144.5143
1004.206, 144.6418
1004.688, 144.8313
1005.170, 144.9672
1005.652, 145.0537
1006.134, 145.1950
1006.617, 145.4623
1007.099, 145.7009
1007.581, 145.7814
1008.063, 145.8067
1008.545, 145.8758
1009.027, 145.9677
1009.509, 146.0281
1009.991, 146.0541
1010.474, 146.0946
1010.956, 146.1872
1011.438, 146.2768
1011.920, 146.3072
1012.402, 146.2976
1012.884, 146.2392
1013.366, 146.1722
1013.848, 146.2107
1014.330, 146.3712
1014.813, 146.5349
1015.295, 146.5871
1015.777, 146.6773
1016.259, 147.1459
1016.741, 147.8024
1017.223, 148.1239
1017.705, 148.1318
1018.187, 148.1012
1018.669, 148.1261
1019.152, 148.2127
1019.634, 148.3737
1020.116, 148.5796
1020.598, 148.8262
1021.080, 149.0730
1021.562, 148.9970
1022.044, 148.6002
1022.526, 148.3716
1023.008, 148.4912
1023.491, 148.6872
1023.973, 148.6927
1024.455, 148.5697
1024.937, 148.4947
1025.419, 148.4683
1025.901, 148.5237
1026.383, 148.6703
1026.865, 148.8199
1027.348, 148.9363
1027.830, 149.0538
1028.312, 149.2176
1028.794, 149.4022
1029.276, 149.5061
1029.758, 149.5357
1030.240, 149.3704
1030.722, 148.8684
1031.204, 148.7083
1031.687, 149.2666
1032.169, 150.0207
1032.651, 150.4226
1033.133, 150.5043
1033.615, 150.3979
1034.097, 149.8883
1034.579, 149.9462
1035.061, 151.0282
1035.544, 151.7395
1036.026, 151.3978
1036.508, 150.6471
1036.990, 150.1072
1037.472, 149.7814
1037.954, 149.7040
1038.436, 150.0327
1038.918, 150.2728
1039.401, 150.3841
1039.883, 150.4550
1040.365, 150.4914
1040.847, 150.5279
1041.329, 150.6237
1041.811, 150.6248
1042.293, 150.8073
1042.775, 150.6623
1043.257, 150.5992
1043.740, 150.6113
1044.222, 150.7122
1044.704, 150.9958
1045.186, 151.3016
1045.668, 151.5045
1046.150, 151.5951
1046.632, 151.5368
1047.114, 151.2458
1047.596, 150.9710
1048.079, 150.6631
1048.561, 150.4566
1049.043, 150.4348
1049.525, 150.5128
1050.007, 150.6447
1050.489, 150.8053
1050.971, 150.9040
1051.453, 150.8906
1051.936, 150.9099
1052.418, 151.1054
1052.900, 151.1911
1053.382, 150.9163
1053.864, 150.5770
1054.346, 150.4622
1054.828, 150.5448
1055.310, 150.6439
1055.792, 150.6884
1056.275, 150.8766
1056.757, 151.4264
1057.239, 151.9212
1057.721, 152.2487
1058.203, 152.3759
1058.685, 152.1768
1059.167, 151.7676
1059.649, 151.4395
1060.131, 151.2147
1060.614, 151.2527
1061.096, 151.9011
1061.578, 152.4572
1062.060, 152.6162
1062.542, 152.5085
1063.024, 152.1833
1063.506, 151.7236
1063.988, 151.2540
1064.471, 150.7866
1064.953, 150.4639
1065.435, 150.4593
1065.917, 150.4651
1066.399, 150.2834
1066.881, 150.0852
1067.363, 150.0531
1067.845, 150.1286
1068.328, 150.1461
1068.810, 150.0664
1069.292, 150.0113
1069.774, 150.0403
1070.256, 150.0898
1070.738, 150.1311
1071.220, 150.1758
1071.702, 150.2299
1072.184, 150.2973
1072.667, 150.3786
1073.149, 150.4745
1073.631, 150.6011
1074.113, 150.8972
1074.595, 151.0520
1075.077, 150.7164
1075.559, 150.3658
1076.041, 150.4973
1076.523, 150.8541
1077.006, 150.9557
1077.488, 150.7427
1077.970, 150.5227
1078.452, 150.4025
1078.934, 150.3296
1079.416, 150.3006
1079.898, 150.2898
1080.380, 150.2764
1080.863, 150.2690
1081.345, 150.2623
1081.827, 150.2706
1082.309, 150.3678
1082.791, 150.6345
1083.273, 150.8563
1083.755, 150.8902
1084.237, 150.8890
1084.719, 150.9476
1085.202, 151.0398
1085.684, 151.1474
1086.166, 151.2489
1086.648, 151.2753
1087.130, 151.1688
1087.612, 151.1325
1088.094, 151.3617
1088.576, 151.5652
1089.058, 151.4660
1089.541, 151.3263
1090.023, 151.4608
1090.505, 151.8053
1090.987, 152.1282
1091.469, 152.3860
1091.951, 152.5069
1092.433, 152.3987
1092.915, 152.2295
1093.397, 151.9651
1093.880, 151.7814
1094.362, 151.7840
1094.844, 152.0046
1095.326, 152.5678
1095.808, 153.4973
1096.290, 154.2123
1096.772, 154.6353
1097.254, 154.6504
1097.737, 153.9641
1098.219, 153.1015
1098.701, 152.3553
1099.183, 151.7449
1099.665, 151.2823
1100.147, 150.9548
1100.629, 150.6345
1101.111, 150.2112
1101.594, 149.9230
1102.076, 149.8510
1102.558, 149.9177
1103.040, 150.1720
1103.522, 150.4782
1104.004, 150.7420
1104.486, 150.9193
1104.968, 150.8545
1105.450, 150.3623
1105.932, 150.0278
1106.415, 150.1336
1106.897, 150.2087
1107.379, 150.0208
1107.861, 149.7568
1108.343, 149.5137
1108.825, 149.3470
1109.307, 149.3973
1109.789, 149.7261
1110.272, 150.0499
1110.754, 150.3162
1111.236, 150.6024
1111.718, 150.9995
1112.200, 151.3484
1112.682, 151.6439
1113.164, 151.7767
1113.646, 151.4689
1114.129, 150.6673
1114.611, 150.1016
1115.093, 149.8215
1115.575, 149.7432
1116.057, 150.0535
1116.539, 150.3208
1117.021, 150.3170
1117.503, 150.2031
1117.985, 150.1558
1118.468, 150.1702
1118.950, 150.2131
1119.432, 150.3261
1119.914, 150.3705
1120.396, 150.2638
1120.878, 150.2435
1121.360, 150.4651
1121.842, 150.6744
1122.324, 150.5654
1122.807, 150.3254
1123.289, 150.5694
1123.771, 151.4802
1124.253, 151.8661
1124.735, 151.5543
1125.217, 151.2097
1125.699, 150.9251
1126.181, 150.7431
1126.664, 150.6838
1127.146, 150.7607
1127.628, 151.0375
1128.110, 151.0542
1128.592, 151.1782
1129.074, 151.3980
1129.556, 151.3882
1130.038, 151.7342
1130.521, 151.9898
1131.003, 151.9404
1131.485, 151.8158
1131.967, 151.8677
1132.449, 152.0460
1132.931, 152.1986
1133.413, 152.3245
1133.895, 152.3853
1134.377, 152.3804
1134.859, 152.1602
1135.342, 151.6727
1135.824, 151.3352
1136.306, 151.4668
1136.788, 151.8344
1137.270, 152.1007
1137.752, 152.2366
1138.234, 151.9658
1138.716, 151.3943
1139.199, 151.2374
1139.681, 151.5577
1140.163, 151.7690
1140.645, 151.5977
1141.127, 151.4112
1141.609, 151.6328
1142.091, 152.0658
1142.573, 152.4210
1143.056, 152.6431
1143.538, 152.5005
1144.020, 152.0944
1144.502, 151.8210
1144.984, 151.7806
1145.466, 151.8013
1145.948, 151.7741
1146.430, 151.7293
1146.912, 151.7153
1147.395, 151.6916
1147.877, 151.5320
1148.359, 151.3536
1148.841, 151.4370
1149.323, 151.7271
1149.805, 151.8931
1150.287, 151.8016
1150.769, 151.6816
1151.251, 151.6364
1151.734, 151.6874
1152.216, 151.9162
1152.698, 152.1961
1153.180, 152.4962
1153.662, 152.7018
1154.144, 152.5831
1154.626, 152.1374
1155.108, 151.6822
1155.591, 151.2050
1156.073, 150.9986
1156.555, 151.4371
1157.037, 151.8789
1157.519, 151.8795
1158.001, 151.7294
1158.483, 151.7672
1158.965, 151.9541
1159.448, 152.0589
1159.930, 152.0075
1160.412, 152.0549
1160.894, 152.4518
1161.376, 152.6406
1161.858, 152.2267
1162.340, 151.8573
1162.822, 151.9878
1163.304, 152.3636
1163.786, 152.6473
1164.269, 152.8399
1164.751, 152.9098
1165.233, 152.8423
1165.715, 152.6661
1166.197, 152.2467
1166.679, 152.0560
1167.161, 152.3370
1167.643, 152.7301
1168.126, 152.9254
1168.608, 152.9971
1169.090, 153.1538
1169.572, 153.4066
1170.054, 153.4317
1170.536, 153.1850
1171.018, 153.2656
1171.500, 153.8190
1171.983, 154.1656
1172.465, 153.9324
1172.947, 153.5641
1173.429, 153.5976
1173.911, 153.9141
1174.393, 154.2373
1174.875, 154.5341
1175.357, 154.5836
1175.839, 154.4213
1176.322, 154.3227
1176.804, 154.3589
1177.286, 154.4373
1177.768, 154.5036
1178.250, 154.5297
1178.732, 154.3427
1179.214, 154.1957
1179.696, 154.6340
1180.178, 155.3491
1180.661, 155.8227
1181.143, 155.9973
1181.625, 155.9400
1182.107, 155.6885
1182.589, 155.3772
1183.071, 155.0165
1183.553, 154.7448
1184.035, 154.6774
1184.518, 154.7240
1185.000, 154.8885
1185.482, 155.0621
1185.964, 155.0532
1186.446, 154.9189
1186.928, 154.9375
1187.410, 155.2079
1187.892, 155.4581
1188.375, 155.6792
1188.857, 155.7806
1189.339, 155.6192
1189.821, 155.4496
1190.303, 155.4549
1190.785, 155.5514
1191.267, 155.5983
1191.749, 155.6014
1192.231, 155.6557
1192.714, 155.8031
1193.196, 155.8997
1193.678, 155.8801
1194.160, 155.9702
1194.642, 156.3065
1195.124, 156.5979
1195.606, 156.5991
1196.088, 156.4607
1196.570, 156.4817
1197.053, 156.6496
1197.535, 156.7934
1198.017, 156.9140
1198.499, 156.9289
1198.981, 156.8292
1199.463, 156.8053
1199.945, 156.9309
1200.427, 157.1431
1200.910, 157.4095
1201.392, 157.6371
1201.874, 157.6202
1202.356, 157.4528
1202.838, 157.3308
1203.320, 157.2788
1203.802, 157.3803
1204.284, 157.6033
1204.766, 157.7563
1205.249, 157.7702
1205.731, 157.8559
1206.213, 158.2499
1206.695, 158.6645
1207.177, 158.9679
1207.659, 159.0585
1208.141, 158.5338
1208.623, 157.9018
1209.105, 158.0870
1209.588, 158.9494
1210.070, 159.4441
1210.552, 159.2349
1211.034, 158.9697
1211.516, 158.7965
1211.998, 158.6546
1212.480, 158.5549
1212.962, 158.4512
1213.445, 158.2304
1213.927, 158.0396
1214.409, 158.0956
1214.891, 158.3774
1215.373, 158.7230
1215.855, 159.2355
1216.337, 159.4911
1216.819, 159.3853
1217.302, 159.3500
1217.784, 159.5339
1218.266, 159.6552
1218.748, 159.5271
1219.230, 159.2249
1219.712, 158.8060
1220.194, 158.3633
1220.676, 158.4007
1221.158, 158.8433
1221.641, 159.1284
1222.123, 159.2282
1222.605, 159.3135
1223.087, 159.4278
1223.569, 159.4610
1224.051, 159.3341
1224.533, 159.1915
1225.015, 159.1918
1225.497, 159.2810
1225.979, 159.3662
1226.462, 159.5054
1226.944, 159.8020
1227.426, 160.2233
1227.908, 160.7489
1228.390, 161.3235
1228.872, 161.6459
1229.354, 161.4362
1229.836, 161.3434
1230.319, 161.8140
1230.801, 162.2286
1231.283, 162.1550
1231.765, 161.9995
1232.247, 162.2816
1232.729, 162.6916
1233.211, 162.4358
1233.693, 161.4927
1234.176, 160.9838
1234.658, 161.0804
1235.140, 161.1913
1235.622, 161.2989
1236.104, 161.3883
1236.586, 161.4532
1237.068, 161.5024
1237.550, 161.5319
1238.032, 161.5850
1238.515, 161.7272
1238.997, 161.9674
1239.479, 162.4806
1239.961, 163.1575
1240.443, 163.2571
1240.925, 162.8067
1241.407, 162.3381
1241.889, 162.0421
1242.371, 161.9537
1242.854, 162.1170
1243.336, 162.3640
1243.818, 162.5668
1244.300, 162.7159
1244.782, 162.7561
1245.264, 162.7704
1245.746, 162.8583
1246.228, 163.0116
1246.711, 163.2215
1247.193, 163.4677
1247.675, 163.6051
1248.157, 163.5452
1248.639, 163.4745
1249.121, 163.3185
1249.603, 163.3147
1250.085, 163.6476
1250.568, 164.0611
1251.050, 164.4460
1251.532, 164.7486
1252.014, 164.8610
1252.496, 164.7995
1252.978, 164.7555
1253.460, 164.7321
1253.942, 164.7080
1254.424, 164.6848
1254.906, 164.5930
1255.389, 164.4088
1255.871, 164.3436
1256.353, 164.5342
1256.835, 164.8162
1257.317, 164.9972
1257.799, 165.0995
1258.281, 165.1557
1258.763, 165.1690
1259.246, 165.0874
1259.728, 164.9868
1260.210, 165.0855
1260.692, 165.3656
1261.174, 165.5591
1261.656, 165.5496
1262.138, 165.5379
1262.620, 165.6228
1263.103, 165.7404
1263.585, 165.8914
1264.067, 166.0305
1264.549, 166.0847
1265.031, 166.1368
1265.513, 166.2609
1265.995, 166.4812
1266.477, 166.9175
1266.959, 167.6746
1267.442, 168.1341
1267.924, 168.2399
1268.406, 168.2331
1268.888, 168.1282
1269.370, 168.0207
1269.852, 167.9465
1270.334, 167.9246
1270.816, 167.9690
1271.298, 168.0902
1271.781, 168.4034
1272.263, 168.3609
1272.745, 168.7348
1273.227, 168.4495
1273.709, 168.3361
1274.191, 168.4143
1274.673, 168.5832
1275.155, 168.7783
1275.638, 168.7670
1276.120, 168.2886
1276.602, 167.9408
1277.084, 168.1157
1277.566, 168.4578
1278.048, 168.7394
1278.530, 169.1071
1279.012, 169.8951
1279.495, 170.7847
1279.977, 171.1335
1280.459, 170.9709
1280.941, 170.7371
1281.423, 170.4324
1281.905, 170.0193
1282.387, 169.3940
1282.869, 169.1318
1283.351, 169.4107
1283.833, 169.8202
1284.316, 170.1503
1284.798, 170.3021
1285.280, 170.1109
1285.762, 169.7656
1286.244, 169.6089
1286.726, 169.6381
1287.208, 169.8381
1287.690, 170.2080
##END=



