##NAMES=Ferrowyllieite
##RRUFFID=R060178
##IDEAL CHEMISTRY=NaNaFe^2+^(Fe^2+^Al)(PO_4_)_3_
##LOCALITY=Victory mine, Custer County, South Dakota, USA
##OWNER=RRUFF
##SOURCE=Marcus Origlieri
##DESCRIPTION=Dark gray massive associated with muscovite
##STATUS=The identification of this mineral has been confirmed by X-ray diffraction and chemical analysis
##URL=rruff.info/R060178
##MEASURED CHEMISTRY=(Na_1.30_[box]_0.35_Mn^2+^_0.27_Ca_0.08_)_2_(Fe^2+^_1.78_Mg_0.22_)_Σ=2_(Al_0.75_Fe^3+^_0.25_)_Σ=1_(P_1.00_O_4_)_3_
92.02539, 110.1557
92.50751, 111.6259
92.98962, 113.1191
93.47174, 112.8894
93.95386, 112.0121
94.43597, 110.6857
94.91809, 109.3038
95.40021, 107.7472
95.88232, 105.0016
96.36444, 99.83595
96.84656, 95.23058
97.32867, 92.32019
97.81078, 90.50745
98.29290, 88.74966
98.77502, 86.12452
99.25713, 82.35205
99.73925, 79.16425
100.2214, 76.80659
100.7035, 74.64314
101.1856, 72.30632
101.6677, 69.79448
102.1498, 67.42699
102.6320, 65.59368
103.1141, 64.44475
103.5962, 63.55792
104.0783, 63.03092
104.5604, 62.70654
105.0425, 62.45943
105.5247, 62.27342
106.0068, 62.05801
106.4889, 61.70379
106.9710, 61.29689
107.4531, 60.53320
107.9352, 59.02962
108.4173, 56.93396
108.8995, 55.04684
109.3816, 53.63530
109.8637, 52.59953
110.3458, 51.84446
110.8279, 51.39920
111.3100, 51.07668
111.7922, 50.63810
112.2743, 50.02678
112.7564, 49.48967
113.2385, 49.14110
113.7206, 48.87028
114.2027, 48.57806
114.6849, 48.21633
115.1670, 47.81945
115.6491, 47.51369
116.1312, 47.30651
116.6133, 47.19822
117.0954, 47.32836
117.5776, 47.53748
118.0597, 47.57268
118.5418, 47.23637
119.0239, 46.51911
119.5060, 46.03001
119.9881, 45.78081
120.4703, 45.68865
120.9524, 45.84661
121.4345, 46.18519
121.9166, 46.45182
122.3987, 46.40343
122.8808, 45.97503
123.3630, 45.53098
123.8451, 45.10219
124.3272, 44.64098
124.8093, 43.99018
125.2914, 43.06392
125.7735, 42.30471
126.2557, 42.52066
126.7378, 43.49006
127.2199, 44.19042
127.7020, 44.10426
128.1841, 43.42574
128.6662, 42.74627
129.1483, 42.06704
129.6305, 41.53435
130.1126, 41.31383
130.5947, 41.37049
131.0768, 41.39819
131.5589, 41.06417
132.0410, 40.30288
132.5232, 39.71928
133.0053, 39.40789
133.4874, 39.28638
133.9695, 39.46215
134.4516, 39.90919
134.9337, 40.34395
135.4159, 40.28878
135.8980, 39.34359
136.3801, 38.64864
136.8622, 38.28110
137.3443, 38.12853
137.8264, 38.16917
138.3086, 38.38279
138.7907, 38.66254
139.2728, 38.70867
139.7549, 38.34503
140.2370, 37.93461
140.7191, 37.38592
141.2013, 36.82333
141.6834, 36.44709
142.1655, 36.38184
142.6476, 36.55420
143.1297, 36.63593
143.6118, 36.70695
144.0939, 36.63553
144.5761, 36.20562
145.0582, 35.51594
145.5403, 35.04961
146.0224, 35.24807
146.5045, 35.84109
146.9866, 35.99080
147.4688, 35.33784
147.9509, 34.50160
148.4330, 34.06128
148.9151, 34.05332
149.3972, 34.21350
149.8793, 34.58451
150.3615, 34.99017
150.8436, 35.18198
151.3257, 34.98119
151.8078, 34.55512
152.2899, 34.30401
152.7720, 34.35191
153.2542, 34.35369
153.7363, 34.17388
154.2184, 33.86519
154.7005, 33.49287
155.1826, 33.06920
155.6647, 32.60904
156.1469, 32.28135
156.6290, 32.29280
157.1111, 32.24139
157.5932, 31.94046
158.0753, 31.48529
158.5574, 31.08591
159.0396, 30.92202
159.5217, 31.01629
160.0038, 31.15026
160.4859, 31.40812
160.9680, 31.62618
161.4501, 31.74729
161.9323, 31.76391
162.4144, 31.68046
162.8965, 31.48341
163.3786, 31.11585
163.8607, 30.90098
164.3428, 31.00617
164.8250, 31.13631
165.3071, 31.04261
165.7892, 30.69455
166.2713, 30.29241
166.7534, 30.06717
167.2355, 30.03766
167.7177, 30.07929
168.1998, 30.30987
168.6819, 30.56023
169.1640, 30.59546
169.6461, 30.34649
170.1282, 29.95987
170.6104, 29.55733
171.0925, 29.14088
171.5746, 28.81290
172.0567, 28.57488
172.5388, 28.45249
173.0209, 28.57757
173.5031, 29.18026
173.9852, 29.73978
174.4673, 29.76046
174.9494, 29.29076
175.4315, 28.78290
175.9136, 28.59684
176.3958, 28.71841
176.8779, 28.72288
177.3600, 28.28093
177.8421, 27.94675
178.3242, 28.21867
178.8063, 29.03945
179.2885, 29.78008
179.7706, 29.65554
180.2527, 28.37977
180.7348, 27.48656
181.2169, 27.36192
181.6990, 27.42521
182.1812, 27.40715
182.6633, 27.25539
183.1454, 27.06486
183.6275, 26.97139
184.1096, 27.02736
184.5917, 27.07575
185.0738, 27.10283
185.5560, 27.13107
186.0381, 27.22327
186.5202, 27.37749
187.0023, 27.48193
187.4844, 27.32726
187.9665, 26.51589
188.4487, 26.09413
188.9308, 26.33019
189.4129, 26.80619
189.8950, 27.15034
190.3771, 27.23791
190.8592, 27.17771
191.3414, 27.18067
191.8235, 27.34366
192.3056, 27.38460
192.7877, 27.15705
193.2698, 26.82299
193.7519, 26.60707
194.2341, 26.59799
194.7162, 26.70082
195.1983, 26.71957
195.6804, 26.62913
196.1625, 26.56502
196.6446, 26.58443
197.1268, 26.65983
197.6089, 26.72903
198.0910, 26.76996
198.5731, 26.79835
199.0552, 26.82679
199.5373, 26.84375
200.0195, 26.90923
200.5016, 27.13867
200.9837, 27.47915
201.4658, 27.65571
201.9479, 27.56304
202.4300, 27.27664
202.9122, 26.82827
203.3943, 26.18715
203.8764, 25.69287
204.3585, 25.71641
204.8406, 26.25378
205.3227, 26.67377
205.8048, 26.73186
206.2870, 26.68230
206.7691, 26.70887
207.2512, 26.83146
207.7333, 26.95273
208.2154, 26.99323
208.6975, 26.96199
209.1797, 26.79380
209.6618, 26.20080
210.1439, 25.65300
210.6260, 25.44444
211.1081, 25.61395
211.5902, 25.96116
212.0724, 26.26785
212.5545, 26.57266
213.0366, 26.70184
213.5187, 26.55997
214.0008, 26.31753
214.4829, 25.99322
214.9651, 25.62696
215.4472, 25.34991
215.9293, 25.40924
216.4114, 26.13990
216.8935, 26.49917
217.3756, 26.28367
217.8578, 25.90884
218.3399, 25.60883
218.8220, 25.45675
219.3041, 25.43119
219.7862, 25.50692
220.2683, 25.73452
220.7505, 25.97828
221.2326, 26.29892
221.7147, 26.59822
222.1968, 26.80624
222.6789, 26.90496
223.1610, 26.91089
223.6432, 26.83734
224.1253, 26.58932
224.6074, 26.46871
225.0895, 26.58990
225.5716, 26.77305
226.0537, 26.85052
226.5358, 26.78433
227.0180, 26.66071
227.5001, 26.60974
227.9822, 26.68733
228.4643, 26.64705
228.9464, 26.28938
229.4285, 25.89187
229.9107, 25.75727
230.3928, 25.95456
230.8749, 26.35290
231.3570, 26.88849
231.8391, 27.60861
232.3212, 27.99096
232.8034, 27.34234
233.2855, 27.80961
233.7676, 28.07453
234.2497, 28.14797
234.7318, 27.45644
235.2139, 27.75271
235.6961, 27.65311
236.1782, 27.53728
236.6603, 27.97258
237.1424, 27.39231
237.6245, 27.81887
238.1066, 27.84352
238.5888, 28.05212
239.0709, 27.86240
239.5530, 27.79571
240.0351, 27.89246
240.5172, 28.34868
240.9993, 28.60254
241.4815, 28.66493
241.9636, 27.96235
242.4457, 28.24757
242.9278, 28.13692
243.4099, 28.01004
243.8920, 28.91418
244.3742, 28.67148
244.8563, 27.86063
245.3384, 27.31628
245.8205, 27.12574
246.3026, 27.01494
246.7847, 26.88872
247.2668, 26.72695
247.7490, 26.47443
248.2311, 26.01699
248.7132, 25.49716
249.1953, 25.31989
249.6774, 25.72420
250.1595, 25.98173
250.6417, 25.69956
251.1238, 25.13465
251.6059, 24.61213
252.0880, 24.29724
252.5701, 24.09126
253.0522, 23.73541
253.5344, 23.16661
254.0165, 22.56760
254.4986, 21.77527
254.9807, 20.69488
255.4628, 21.12572
255.9449, 21.35421
256.4271, 21.39121
256.9092, 20.66325
257.3913, 20.92309
257.8734, 20.78707
258.3555, 20.63481
258.8376, 21.03368
259.3198, 20.41698
259.8019, 20.80711
260.2840, 20.79533
260.7661, 20.96750
261.2482, 20.74135
261.7303, 20.63824
262.2125, 20.93355
262.6946, 21.00825
263.1767, 20.73625
263.6588, 20.92011
264.1409, 20.28950
264.6230, 20.37360
265.1052, 20.76605
265.5873, 20.51408
266.0694, 20.70522
266.5515, 20.72760
267.0336, 19.98304
267.5157, 20.57227
267.9979, 20.58467
268.4800, 20.00480
268.9621, 20.54833
269.4442, 20.05012
269.9263, 19.92374
270.4084, 20.07720
270.8906, 19.93893
271.3727, 20.26060
271.8548, 20.06152
272.3369, 20.07192
272.8190, 20.03888
273.3011, 19.92082
273.7833, 19.50525
274.2654, 19.19436
274.7475, 19.29269
275.2296, 19.75684
275.7117, 20.29763
276.1938, 20.64623
276.6760, 20.80372
277.1581, 20.73080
277.6402, 20.20163
278.1223, 19.70550
278.6044, 19.41815
279.0865, 19.35877
279.5686, 19.53299
280.0508, 19.99440
280.5329, 20.75676
281.0150, 21.09351
281.4971, 20.73688
281.9792, 20.32125
282.4613, 20.02052
282.9435, 19.84574
283.4256, 19.78251
283.9077, 19.83148
284.3898, 19.97889
284.8719, 20.09985
285.3540, 20.23082
285.8362, 20.30116
286.3183, 20.24166
286.8004, 20.11317
287.2825, 20.05314
287.7646, 20.14942
288.2467, 20.31037
288.7289, 20.20221
289.2110, 19.38616
289.6931, 18.86068
290.1752, 18.97559
290.6573, 19.42286
291.1394, 19.82090
291.6216, 20.03187
292.1037, 20.03950
292.5858, 19.75993
293.0679, 18.85772
293.5500, 18.32255
294.0321, 18.52055
294.5143, 19.01704
294.9964, 19.30076
295.4785, 19.23593
295.9606, 19.09361
296.4427, 19.30084
296.9248, 20.09924
297.4070, 20.47777
297.8891, 20.16192
298.3712, 19.55556
298.8533, 18.92181
299.3354, 18.32716
299.8175, 17.86506
300.2997, 17.63139
300.7818, 17.66217
301.2639, 17.84241
301.7460, 18.39185
302.2281, 18.91480
302.7102, 19.12104
303.1924, 19.01886
303.6745, 18.82956
304.1566, 18.72292
304.6387, 18.68707
305.1208, 18.53019
305.6029, 18.07242
306.0851, 17.67725
306.5672, 17.55175
307.0493, 17.64693
307.5314, 17.79613
308.0135, 17.91405
308.4956, 18.00784
308.9778, 18.10814
309.4599, 18.25771
309.9420, 18.36198
310.4241, 18.36651
310.9062, 18.30652
311.3883, 18.26548
311.8705, 18.29030
312.3526, 18.31114
312.8347, 18.13047
313.3168, 17.57619
313.7989, 17.24826
314.2810, 17.44978
314.7632, 17.87982
315.2453, 18.16074
315.7274, 18.19054
316.2095, 18.04038
316.6916, 17.74546
317.1737, 17.21872
317.6559, 16.95747
318.1380, 17.26942
318.6201, 17.70466
319.1022, 17.83191
319.5843, 17.60205
320.0664, 17.24309
320.5485, 16.90821
321.0306, 16.60517
321.5128, 16.60573
321.9949, 17.19456
322.4770, 17.83729
322.9591, 18.27492
323.4412, 18.47827
323.9233, 18.39701
324.4055, 17.91454
324.8876, 17.12681
325.3697, 16.74131
325.8518, 17.12721
326.3339, 17.44747
326.8160, 17.30820
327.2982, 16.87453
327.7803, 16.49128
328.2624, 16.30436
328.7445, 16.29628
329.2266, 16.44591
329.7087, 16.84198
330.1909, 17.21020
330.6730, 17.64193
331.1551, 17.96782
331.6372, 17.89574
332.1193, 17.33591
332.6014, 16.58262
333.0836, 16.02457
333.5657, 15.66554
334.0478, 15.56730
334.5299, 15.92576
335.0120, 16.42013
335.4941, 16.83680
335.9763, 17.13088
336.4584, 17.29649
336.9405, 17.30499
337.4226, 17.13737
337.9047, 17.03959
338.3868, 17.05677
338.8690, 17.09147
339.3511, 17.13565
339.8332, 17.16153
340.3153, 17.08414
340.7974, 16.82924
341.2795, 16.44213
341.7617, 16.22391
342.2438, 16.26093
342.7259, 16.33668
343.2080, 16.42631
343.6901, 16.51959
344.1722, 16.58014
344.6544, 16.58976
345.1365, 16.61831
345.6186, 16.82128
346.1007, 17.54537
346.5828, 17.89647
347.0649, 17.58329
347.5471, 17.05968
348.0292, 16.70134
348.5113, 16.58802
348.9934, 16.59337
349.4755, 16.57747
349.9576, 16.54225
350.4398, 16.46994
350.9219, 16.37520
351.4040, 16.23755
351.8861, 15.99496
352.3682, 15.69123
352.8503, 15.43928
353.3325, 15.32177
353.8146, 15.33652
354.2967, 15.45998
354.7788, 15.97071
355.2609, 16.27205
355.7430, 16.06327
356.2252, 15.61388
356.7073, 15.29626
357.1894, 15.28788
357.6715, 15.50468
358.1536, 15.74178
358.6357, 16.03697
359.1179, 16.29304
359.5999, 16.62949
360.0821, 16.85427
360.5642, 16.73869
361.0463, 16.27449
361.5284, 15.71872
362.0105, 15.40363
362.4926, 15.41743
362.9748, 15.33130
363.4569, 14.92531
363.9390, 14.62990
364.4211, 14.74532
364.9032, 15.14739
365.3853, 15.47640
365.8675, 15.44341
366.3496, 15.09319
366.8317, 14.84759
367.3138, 14.64849
367.7959, 14.65278
368.2780, 15.11281
368.7602, 15.70746
369.2423, 16.00168
369.7244, 15.79593
370.2065, 15.36423
370.6886, 15.29972
371.1707, 15.85941
371.6529, 16.12931
372.1350, 15.67822
372.6171, 15.13283
373.0992, 14.93357
373.5813, 15.12301
374.0634, 15.39324
374.5456, 15.38765
375.0277, 15.08547
375.5098, 14.96848
375.9919, 15.19881
376.4740, 15.46026
376.9561, 15.64030
377.4383, 15.73777
377.9204, 15.75705
378.4025, 15.67340
378.8846, 15.52910
379.3667, 15.46005
379.8488, 15.52119
380.3310, 15.51347
380.8131, 15.32988
381.2952, 15.05044
381.7773, 14.72458
382.2594, 14.34651
382.7415, 14.00866
383.2237, 13.78704
383.7058, 13.68109
384.1879, 13.77214
384.6700, 14.29832
385.1521, 14.79871
385.6342, 14.78876
386.1164, 14.30562
386.5985, 13.89930
387.0806, 13.92499
387.5627, 14.24274
388.0448, 14.57202
388.5269, 14.94273
389.0091, 15.14481
389.4912, 14.82705
389.9733, 14.22348
390.4554, 13.86521
390.9375, 14.10863
391.4196, 14.40661
391.9018, 14.13234
392.3839, 13.36282
392.8660, 12.83767
393.3481, 12.96555
393.8302, 13.44914
394.3123, 13.67649
394.7945, 13.56444
395.2766, 13.49447
395.7587, 13.69021
396.2408, 14.00642
396.7229, 14.19917
397.2050, 14.21409
397.6872, 14.11408
398.1693, 13.90049
398.6514, 13.55341
399.1335, 13.49299
399.6156, 14.11793
400.0977, 14.72845
400.5798, 14.69067
401.0620, 14.13147
401.5441, 13.72069
402.0262, 13.90510
402.5083, 14.54094
402.9904, 14.89841
403.4725, 14.82958
403.9547, 14.71303
404.4368, 14.61983
404.9189, 14.51718
405.4010, 14.34260
405.8831, 14.08161
406.3652, 13.80490
406.8474, 13.60818
407.3295, 13.47684
407.8116, 13.49356
408.2937, 13.85449
408.7758, 14.17283
409.2579, 14.18537
409.7401, 13.94912
410.2222, 13.69846
410.7043, 13.60255
411.1864, 13.64643
411.6685, 13.69421
412.1506, 13.79314
412.6328, 13.83379
413.1149, 13.69235
413.5970, 13.53352
414.0791, 13.59307
414.5612, 13.93959
415.0433, 14.33843
415.5255, 14.39254
416.0076, 13.97704
416.4897, 13.64824
416.9718, 13.34689
417.4539, 13.22347
417.9360, 13.50874
418.4182, 14.07730
418.9003, 14.51398
419.3824, 14.45481
419.8645, 14.03155
420.3466, 13.85037
420.8287, 14.02368
421.3109, 14.20982
421.7930, 14.31541
422.2751, 14.34085
422.7572, 14.25724
423.2393, 14.03748
423.7214, 13.80036
424.2036, 13.66438
424.6857, 13.62836
425.1678, 13.65362
425.6499, 13.74912
426.1320, 13.88537
426.6141, 14.07477
427.0963, 14.30128
427.5784, 14.42951
428.0605, 14.39004
428.5426, 14.22318
429.0247, 13.90927
429.5068, 13.42668
429.9890, 13.12613
430.4711, 13.34561
430.9532, 13.89274
431.4353, 14.12106
431.9174, 13.86183
432.3995, 13.53148
432.8817, 13.24713
433.3638, 13.05064
433.8459, 13.08679
434.3280, 13.42863
434.8101, 13.83128
435.2922, 13.93138
435.7744, 13.62109
436.2565, 13.43887
436.7386, 13.53942
437.2207, 13.66371
437.7028, 13.58269
438.1849, 13.34124
438.6671, 13.17892
439.1492, 13.27391
439.6313, 13.56357
440.1134, 13.67704
440.5955, 13.51601
441.0776, 13.29520
441.5598, 12.92486
442.0418, 12.56264
442.5240, 12.36144
443.0061, 12.36394
443.4882, 12.52963
443.9703, 12.85529
444.4524, 13.43683
444.9345, 13.72976
445.4167, 13.42345
445.8988, 13.13118
446.3809, 13.07965
446.8630, 13.20339
447.3451, 13.34015
447.8272, 13.39187
448.3094, 13.41535
448.7915, 13.60786
449.2736, 14.11859
449.7557, 14.36803
450.2378, 13.87173
450.7199, 13.29093
451.2021, 13.13951
451.6842, 13.45820
452.1663, 13.84179
452.6484, 13.93971
453.1305, 13.82676
453.6126, 13.85120
454.0948, 14.09486
454.5769, 14.33024
455.0590, 14.40088
455.5411, 14.35730
456.0232, 14.27315
456.5053, 14.17170
456.9875, 14.02458
457.4696, 13.76835
457.9517, 13.43303
458.4338, 13.15792
458.9159, 13.00169
459.3980, 12.89880
459.8802, 12.69940
460.3623, 12.36178
460.8444, 12.27571
461.3265, 12.78659
461.8086, 13.39023
462.2907, 13.59368
462.7729, 13.41321
463.2550, 13.18956
463.7371, 13.14591
464.2192, 13.25548
464.7013, 13.36489
465.1834, 13.37984
465.6656, 13.51345
466.1477, 13.98865
466.6298, 14.50256
467.1119, 14.70658
467.5940, 14.53244
468.0761, 14.17559
468.5583, 13.84072
469.0404, 13.49966
469.5225, 13.35149
470.0046, 13.69730
470.4867, 13.92464
470.9688, 13.73880
471.4510, 13.33129
471.9331, 13.01423
472.4152, 12.93370
472.8973, 13.02223
473.3794, 13.17201
473.8615, 13.39873
474.3437, 13.62123
474.8258, 13.93380
475.3079, 14.14064
475.7900, 13.97896
476.2721, 13.53650
476.7542, 13.28695
477.2364, 13.79254
477.7185, 14.64006
478.2006, 14.80408
478.6827, 14.17048
479.1648, 13.51116
479.6469, 13.20261
480.1291, 13.12936
480.6112, 13.07632
481.0933, 13.04421
481.5754, 13.00631
482.0575, 12.88625
482.5396, 12.76576
483.0217, 12.86053
483.5038, 13.22570
483.9860, 13.54662
484.4681, 13.48447
484.9502, 13.02049
485.4323, 12.75013
485.9144, 12.82507
486.3965, 12.91963
486.8787, 12.85925
487.3608, 12.72814
487.8429, 12.72702
488.3250, 12.93574
488.8071, 13.17875
489.2892, 13.10671
489.7714, 12.42170
490.2535, 12.16530
490.7356, 12.78079
491.2177, 13.33968
491.6998, 13.24348
492.1819, 12.69208
492.6641, 12.26688
493.1462, 12.35501
493.6283, 12.77302
494.1104, 12.97455
494.5925, 12.87148
495.0746, 12.79018
495.5568, 12.75618
496.0389, 12.80692
496.5210, 13.06533
497.0031, 13.50225
497.4852, 13.80554
497.9673, 13.66079
498.4495, 13.22078
498.9316, 12.90087
499.4137, 12.72592
499.8958, 12.61430
500.3779, 12.47721
500.8600, 12.39345
501.3422, 12.55224
501.8243, 13.14453
502.3064, 13.58273
502.7885, 13.42992
503.2706, 12.96366
503.7527, 12.69645
504.2349, 12.74123
504.7170, 12.86122
505.1991, 12.80578
505.6812, 12.55881
506.1633, 12.51484
506.6454, 13.00850
507.1276, 13.31247
507.6097, 12.93746
508.0918, 12.26349
508.5739, 11.91321
509.0560, 12.11101
509.5381, 12.55734
510.0203, 12.77858
510.5024, 12.70909
510.9845, 12.63976
511.4666, 12.56069
511.9487, 12.49180
512.4308, 12.42627
512.9130, 12.37839
513.3951, 12.38585
513.8772, 12.48290
514.3593, 12.59875
514.8414, 12.58004
515.3235, 12.40114
515.8057, 12.28469
516.2878, 12.31452
516.7699, 12.39141
517.2520, 12.46666
517.7341, 12.52733
518.2162, 12.49384
518.6984, 12.23724
519.1805, 11.92242
519.6626, 11.78773
520.1447, 11.82250
520.6268, 11.81603
521.1089, 11.63365
521.5911, 11.39035
522.0732, 11.37768
522.5553, 11.67621
523.0374, 11.92015
523.5195, 12.08566
524.0016, 12.14615
524.4838, 12.03137
524.9659, 11.77092
525.4480, 11.49203
525.9301, 11.28380
526.4122, 11.13872
526.8943, 11.00865
527.3765, 10.76857
527.8586, 10.73995
528.3407, 11.20770
528.8228, 11.70647
529.3049, 11.77124
529.7870, 11.41327
530.2692, 11.08723
530.7513, 11.27747
531.2334, 11.85427
531.7155, 11.97780
532.1976, 11.39060
532.6797, 10.95090
533.1619, 11.24241
533.6440, 11.75766
534.1261, 11.98221
534.6082, 11.81783
535.0903, 11.55027
535.5724, 11.30103
536.0546, 11.09371
536.5367, 11.00191
537.0188, 11.04277
537.5009, 11.08056
537.9830, 10.98883
538.4651, 10.81084
538.9473, 10.78324
539.4294, 10.99690
539.9115, 11.23107
540.3936, 11.54675
540.8757, 11.79290
541.3578, 11.67260
541.8400, 11.18233
542.3221, 10.74465
542.8042, 10.82901
543.2863, 11.44753
543.7684, 11.83356
544.2505, 11.75762
544.7326, 11.71259
545.2147, 11.80779
545.6968, 11.97160
546.1790, 12.16518
546.6611, 12.36617
547.1432, 12.46533
547.6253, 12.23646
548.1074, 11.72754
548.5895, 11.53347
549.0717, 11.78901
549.5538, 12.11885
550.0359, 12.40241
550.5180, 12.59035
551.0001, 12.55492
551.4822, 12.16575
551.9644, 11.82050
552.4465, 11.83634
552.9286, 12.05958
553.4107, 12.13782
553.8928, 11.99858
554.3749, 11.91424
554.8571, 12.18902
555.3392, 12.80351
555.8213, 13.01514
556.3034, 12.47932
556.7855, 12.02413
557.2676, 11.88661
557.7498, 11.93176
558.2319, 12.02429
558.7140, 12.11815
559.1961, 12.19096
559.6782, 12.18896
560.1603, 12.10866
560.6425, 12.26458
561.1246, 13.06787
561.6067, 13.48403
562.0888, 12.80813
562.5709, 11.81563
563.0530, 11.46509
563.5352, 12.00456
564.0173, 12.64458
564.4994, 12.61212
564.9815, 12.13472
565.4636, 11.99514
565.9457, 12.31821
566.4279, 12.72077
566.9100, 13.03747
567.3921, 13.21062
567.8742, 13.07904
568.3563, 12.32442
568.8384, 11.79617
569.3206, 11.98243
569.8027, 12.45115
570.2848, 12.68587
570.7669, 12.61050
571.2490, 12.42004
571.7311, 12.26219
572.2133, 12.14588
572.6954, 12.18328
573.1775, 12.63446
573.6596, 12.87715
574.1417, 12.64275
574.6238, 12.30468
575.1060, 12.20145
575.5881, 12.36041
576.0702, 12.56356
576.5523, 12.63917
577.0344, 12.61343
577.5165, 12.55587
577.9987, 12.43645
578.4808, 12.42813
578.9629, 12.73718
579.4450, 13.10625
579.9271, 13.13579
580.4092, 12.76098
580.8914, 12.46871
581.3735, 12.49130
581.8556, 12.65848
582.3377, 12.78992
582.8198, 12.87951
583.3019, 13.01552
583.7841, 13.27065
584.2662, 13.55084
584.7483, 13.59343
585.2304, 13.20643
585.7125, 12.88799
586.1946, 12.58745
586.6768, 12.39328
587.1589, 12.39093
587.6410, 12.54211
588.1231, 12.74986
588.6052, 12.96647
589.0873, 13.18110
589.5695, 13.38464
590.0516, 13.58835
590.5337, 13.69714
591.0158, 13.66552
591.4979, 13.56210
591.9800, 13.44084
592.4622, 13.30079
592.9443, 13.13619
593.4264, 12.82268
593.9085, 12.59491
594.3906, 12.74017
594.8727, 13.12946
595.3549, 13.38994
595.8370, 13.39715
596.3191, 13.33603
596.8012, 13.44909
597.2833, 13.78432
597.7654, 13.94988
598.2476, 13.76499
598.7297, 13.64570
599.2118, 13.74038
599.6939, 13.48209
600.1760, 13.90640
600.6581, 14.12838
601.1403, 14.15885
601.6224, 13.42438
602.1045, 13.67769
602.5866, 13.53515
603.0687, 13.37637
603.5508, 13.76872
604.0330, 13.14549
604.5151, 13.49591
604.9972, 13.49455
605.4793, 13.66726
605.9614, 13.79153
606.4435, 13.67673
606.9257, 13.48621
607.4078, 13.51262
607.8899, 13.74468
608.3720, 13.85223
608.8541, 13.60448
609.3362, 13.12104
609.8184, 12.77534
610.3005, 12.52105
610.7826, 12.49799
611.2647, 12.99143
611.7468, 13.45832
612.2289, 13.47353
612.7111, 13.16013
613.1932, 12.91632
613.6753, 12.96721
614.1574, 13.21024
614.6395, 13.51697
615.1216, 13.90803
615.6038, 14.08184
616.0859, 13.87534
616.5680, 13.59317
617.0501, 13.51566
617.5322, 13.57886
618.0143, 13.56653
618.4965, 13.38234
618.9786, 13.17093
619.4607, 12.99271
619.9428, 12.85412
620.4249, 12.79546
620.9070, 12.81931
621.3892, 12.80183
621.8713, 12.57576
622.3534, 12.14824
622.8355, 12.10756
623.3176, 12.94134
623.7997, 13.53964
624.2819, 13.68185
624.7640, 13.56112
625.2461, 13.24336
625.7282, 12.79997
626.2103, 12.47059
626.6924, 12.50258
627.1745, 12.75776
627.6566, 12.93693
628.1387, 13.04703
628.6208, 12.94097
629.1030, 12.40408
629.5851, 11.81174
630.0672, 11.83969
630.5493, 12.52659
631.0314, 12.94313
631.5135, 12.76165
631.9957, 12.45473
632.4778, 12.25856
632.9599, 12.17589
633.4420, 12.19610
633.9241, 12.31034
634.4063, 12.44418
634.8884, 12.50892
635.3705, 12.51399
635.8526, 12.35327
636.3347, 11.80871
636.8168, 11.40949
637.2990, 11.37137
637.7811, 11.54607
638.2632, 11.81042
638.7453, 12.14907
639.2274, 12.38196
639.7095, 12.26916
640.1917, 12.00960
640.6738, 12.02222
641.1559, 12.31701
641.6380, 12.48283
642.1201, 12.25860
642.6022, 11.83601
643.0844, 11.64117
643.5665, 11.71285
644.0486, 11.96677
644.5307, 12.72888
645.0128, 13.35729
645.4949, 13.43653
645.9771, 13.12360
646.4592, 12.72734
646.9413, 12.37879
647.4234, 12.14150
647.9055, 12.19902
648.3876, 12.54086
648.8698, 12.58211
649.3519, 12.10839
649.8340, 11.72312
650.3161, 11.98553
650.7982, 12.54212
651.2803, 12.63802
651.7625, 11.99419
652.2446, 11.48253
652.7267, 11.62496
653.2088, 11.95759
653.6909, 11.89617
654.1730, 11.48434
654.6552, 11.21649
655.1373, 11.41269
655.6194, 11.85766
656.1015, 11.96641
656.5836, 11.53936
657.0657, 11.29194
657.5479, 11.27030
658.0300, 11.43569
658.5121, 12.03584
658.9942, 12.77203
659.4763, 13.00423
659.9584, 12.38986
660.4406, 11.66685
660.9227, 11.55483
661.4048, 11.84050
661.8869, 11.96785
662.3690, 11.85388
662.8511, 11.68229
663.3333, 11.56656
663.8154, 11.50395
664.2975, 11.48400
664.7796, 11.52965
665.2617, 11.58703
665.7438, 11.64556
666.2260, 11.72394
666.7081, 11.89079
667.1902, 12.08671
667.6723, 12.15537
668.1544, 12.00055
668.6365, 11.75276
669.1187, 11.61474
669.6008, 11.58180
670.0829, 11.53298
670.5650, 11.42204
671.0471, 11.37141
671.5292, 11.46664
672.0114, 11.70045
672.4935, 12.04826
672.9756, 12.81049
673.4577, 13.15982
673.9398, 12.46471
674.4219, 11.50940
674.9041, 10.94307
675.3862, 10.85304
675.8683, 11.23260
676.3504, 12.14264
676.8325, 13.18872
677.3146, 13.32646
677.7968, 12.30395
678.2789, 11.60262
678.7610, 11.51490
679.2431, 11.59011
679.7252, 11.55612
680.2073, 11.48003
680.6895, 11.50631
681.1716, 11.69585
681.6537, 11.91190
682.1358, 12.12861
682.6179, 12.29882
683.1000, 12.31791
683.5822, 12.20009
684.0643, 12.10304
684.5464, 12.13292
685.0285, 12.24028
685.5106, 12.28274
685.9927, 12.23233
686.4749, 12.18267
686.9570, 12.15396
687.4391, 12.10958
687.9212, 11.99364
688.4033, 11.85981
688.8854, 11.81083
689.3676, 11.89044
689.8497, 12.01090
690.3318, 12.10945
690.8139, 12.19230
691.2960, 12.28231
691.7781, 12.38025
692.2603, 12.44295
692.7424, 12.44927
693.2245, 12.39414
693.7066, 12.25117
694.1887, 11.86911
694.6708, 11.71185
695.1530, 11.95766
695.6351, 12.22736
696.1172, 12.29925
696.5993, 12.27986
697.0814, 12.43468
697.5635, 12.87190
698.0457, 13.19296
698.5278, 12.81542
699.0099, 12.00228
699.4920, 11.65730
699.9741, 11.87127
700.4562, 12.08754
700.9384, 11.97982
701.4205, 11.74302
701.9026, 11.81136
702.3847, 12.37857
702.8668, 12.72738
703.3489, 12.70475
703.8311, 12.61192
704.3132, 12.56671
704.7953, 12.56173
705.2774, 12.58677
705.7595, 12.63285
706.2416, 12.63625
706.7238, 12.51674
707.2059, 12.29517
707.6880, 12.03013
708.1701, 11.70392
708.6522, 11.48258
709.1343, 11.43371
709.6164, 11.52729
710.0985, 11.76649
710.5806, 12.19159
711.0627, 12.46251
711.5449, 12.53363
712.0270, 12.47208
712.5091, 12.18179
712.9912, 11.83491
713.4733, 11.63220
713.9554, 11.63392
714.4376, 11.84375
714.9197, 12.39171
715.4018, 13.11162
715.8839, 13.30342
716.3660, 12.89946
716.8481, 12.44393
717.3303, 12.02451
717.8124, 11.72870
718.2945, 11.72196
718.7766, 11.97952
719.2587, 12.15538
719.7408, 12.29997
720.2230, 12.26410
720.7051, 11.68163
721.1872, 11.06129
721.6693, 11.10830
722.1514, 11.81850
722.6335, 12.56984
723.1157, 12.91611
723.5978, 12.92988
724.0799, 12.68954
724.5620, 12.13416
725.0441, 11.99640
725.5262, 12.66016
726.0084, 13.33210
726.4905, 13.26287
726.9726, 12.64777
727.4547, 12.25043
727.9368, 12.16784
728.4189, 12.21194
728.9011, 12.48208
729.3832, 12.74149
729.8653, 12.69188
730.3474, 12.40928
730.8295, 12.21765
731.3116, 12.30122
731.7938, 12.52166
732.2759, 12.65208
732.7580, 12.69128
733.2401, 12.70992
733.7222, 12.74074
734.2043, 12.66955
734.6865, 12.30448
735.1686, 11.84768
735.6507, 11.75366
736.1328, 12.13360
736.6149, 12.48715
737.0970, 12.76739
737.5792, 12.93953
738.0613, 12.89618
738.5434, 12.74791
739.0255, 12.74182
739.5076, 12.95151
739.9897, 13.13976
740.4719, 12.93588
740.9540, 12.42859
741.4361, 12.30660
741.9182, 12.65501
742.4003, 12.95356
742.8824, 12.98015
743.3646, 12.90378
743.8467, 12.96984
744.3288, 13.18178
744.8109, 13.28210
745.2930, 13.20195
745.7751, 13.06278
746.2573, 12.84431
746.7394, 12.63281
747.2215, 12.55999
747.7036, 12.61707
748.1857, 12.64421
748.6678, 12.50000
749.1500, 12.28321
749.6321, 12.21440
750.1142, 12.29368
750.5963, 12.45742
751.0784, 12.74774
751.5605, 12.95308
752.0427, 12.83362
752.5248, 12.47613
753.0069, 12.36760
753.4890, 12.74291
753.9711, 12.97972
754.4532, 12.97194
754.9354, 12.82588
755.4175, 12.51169
755.8996, 12.13795
756.3817, 11.90183
756.8638, 11.88607
757.3459, 12.02537
757.8281, 12.31693
758.3102, 12.70285
758.7923, 12.94815
759.2744, 13.03472
759.7565, 13.07118
760.2386, 13.10550
760.7208, 13.12538
761.2029, 13.10418
761.6850, 13.02313
762.1671, 12.97839
762.6492, 12.96518
763.1313, 12.99116
763.6135, 13.13327
764.0956, 13.27133
764.5777, 13.25664
765.0598, 13.08282
765.5419, 12.88371
766.0240, 12.66676
766.5062, 12.54423
766.9883, 12.78638
767.4704, 13.28485
767.9525, 13.57581
768.4346, 13.54665
768.9167, 13.35240
769.3989, 13.09200
769.8810, 12.80350
770.3631, 12.74015
770.8452, 13.05936
771.3273, 13.31903
771.8094, 13.59184
772.2916, 13.69957
772.7737, 13.29115
773.2558, 12.69271
773.7379, 12.66832
774.2200, 13.60325
774.7021, 14.37740
775.1843, 14.00246
775.6664, 13.17803
776.1485, 12.85179
776.6306, 13.00024
777.1127, 13.19979
777.5948, 13.26393
778.0770, 13.25221
778.5591, 13.25303
779.0412, 13.26854
779.5233, 13.22586
780.0054, 12.99983
780.4875, 12.98779
780.9697, 13.62192
781.4518, 14.29408
781.9339, 14.30702
782.4160, 13.72050
782.8981, 13.32671
783.3802, 13.49548
783.8624, 13.69456
784.3445, 13.59558
784.8266, 13.40092
785.3087, 13.36686
785.7908, 13.51937
786.2729, 13.77022
786.7551, 14.08210
787.2372, 14.37232
787.7193, 14.45897
788.2014, 14.34349
788.6835, 14.15499
789.1656, 13.86753
789.6478, 13.65108
790.1299, 13.63174
790.6120, 13.74062
791.0941, 13.82718
791.5762, 13.92248
792.0583, 13.90555
792.5404, 13.58210
793.0225, 13.35038
793.5046, 13.44018
793.9868, 13.71227
794.4689, 14.03351
794.9510, 14.34487
795.4331, 14.50776
795.9152, 14.30362
796.3973, 13.96701
796.8795, 13.96385
797.3616, 14.20263
797.8437, 14.14841
798.3258, 13.65135
798.8079, 13.29048
799.2900, 13.65429
799.7722, 14.54334
800.2543, 14.80371
800.7364, 14.01987
801.2185, 13.45978
801.7006, 13.30359
802.1827, 13.30972
802.6649, 13.41039
803.1470, 13.58892
803.6291, 13.87443
804.1112, 14.32905
804.5933, 14.58156
805.0754, 14.24296
805.5576, 13.77268
806.0397, 13.60271
806.5218, 13.68995
807.0039, 13.89606
807.4860, 14.16094
807.9681, 14.40647
808.4503, 14.56550
808.9324, 14.62517
809.4145, 14.45997
809.8966, 14.01155
810.3787, 13.71312
810.8608, 13.74386
811.3430, 13.81960
811.8251, 13.62385
812.3072, 13.22739
812.7893, 13.11594
813.2714, 13.53441
813.7535, 13.86746
814.2357, 14.05460
814.7178, 14.10582
815.1999, 13.89327
815.6820, 13.57914
816.1641, 13.50424
816.6462, 13.79131
817.1284, 14.12065
817.6105, 14.21573
818.0926, 14.14520
818.5747, 13.96338
819.0568, 13.71507
819.5389, 13.68868
820.0211, 14.00016
820.5032, 14.32778
820.9853, 14.28908
821.4674, 13.91042
821.9495, 13.59667
822.4316, 13.33315
822.9138, 13.15780
823.3959, 12.95865
823.8780, 12.97584
824.3601, 13.52115
824.8422, 14.38774
825.3243, 15.04634
825.8065, 15.42249
826.2886, 15.54627
826.7707, 15.25408
827.2528, 14.86286
827.7349, 14.64575
828.2170, 14.56205
828.6992, 14.43797
829.1813, 14.22148
829.6634, 14.08953
830.1455, 14.30263
830.6276, 14.73748
831.1097, 14.98488
831.5919, 15.04556
832.0740, 14.98023
832.5561, 14.76357
833.0382, 14.61540
833.5203, 14.81185
834.0024, 15.26742
834.4846, 15.31946
834.9667, 14.55857
835.4488, 14.06469
835.9309, 13.99942
836.4130, 14.08344
836.8951, 14.28200
837.3773, 14.49443
837.8594, 14.54187
838.3415, 14.36637
838.8236, 14.19327
839.3057, 14.09651
839.7878, 14.09086
840.2700, 14.23680
840.7521, 14.47441
841.2342, 14.71999
841.7163, 14.93071
842.1984, 14.99315
842.6805, 14.75249
843.1627, 14.35298
843.6448, 14.26975
844.1269, 14.51418
844.6090, 14.67890
845.0911, 14.70009
845.5732, 14.59748
846.0554, 14.30899
846.5375, 13.95458
847.0196, 13.89513
847.5017, 14.31926
847.9838, 14.61038
848.4659, 14.78572
848.9481, 14.81453
849.4302, 14.62826
849.9123, 14.32179
850.3944, 13.95115
850.8765, 13.54827
851.3586, 13.27010
851.8408, 13.14134
852.3229, 13.22153
852.8050, 13.71716
853.2871, 14.39190
853.7692, 14.89907
854.2513, 15.16019
854.7335, 15.12535
855.2156, 14.73288
855.6977, 14.23098
856.1798, 14.15699
856.6619, 14.48955
857.1440, 14.51900
857.6262, 14.14841
858.1083, 13.79584
858.5904, 13.60298
859.0725, 13.58795
859.5546, 13.84548
860.0367, 14.42528
860.5189, 14.68202
861.0010, 14.29302
861.4831, 14.03237
861.9652, 14.16439
862.4473, 14.34241
862.9294, 14.28383
863.4116, 14.04915
863.8937, 13.83757
864.3758, 13.66708
864.8579, 13.67266
865.3400, 14.07266
865.8221, 14.59436
866.3043, 15.03176
866.7864, 15.30980
867.2685, 15.21835
867.7506, 14.72116
868.2327, 14.19870
868.7148, 14.07359
869.1970, 14.22010
869.6791, 14.19104
870.1612, 13.98629
870.6433, 13.91214
871.1254, 14.05887
871.6075, 14.22894
872.0897, 14.30119
872.5718, 14.25787
873.0539, 14.01439
873.5360, 13.33593
874.0181, 12.99677
874.5002, 13.25502
874.9823, 13.56337
875.4644, 13.89710
875.9465, 14.09872
876.4286, 13.88411
876.9108, 13.26958
877.3929, 12.85620
877.8750, 12.93660
878.3571, 13.16815
878.8392, 13.44658
879.3214, 13.71723
879.8035, 13.94154
880.2856, 14.09811
880.7677, 14.17438
881.2498, 14.17072
881.7319, 13.99916
882.2141, 13.37561
882.6962, 12.52161
883.1783, 12.16125
883.6604, 12.28252
884.1425, 12.46204
884.6246, 12.55718
885.1068, 12.59428
885.5889, 12.59956
886.0710, 12.57350
886.5531, 12.51499
887.0352, 12.40790
887.5173, 12.30572
887.9995, 12.13088
888.4816, 12.08357
888.9637, 12.49612
889.4458, 13.05823
889.9279, 13.07314
890.4100, 12.32471
890.8922, 11.87320
891.3743, 12.18046
891.8564, 12.45034
892.3385, 12.20160
892.8206, 11.79904
893.3027, 11.72486
893.7849, 11.95889
894.2670, 12.07567
894.7491, 11.78964
895.2312, 11.47319
895.7133, 11.51329
896.1954, 11.72772
896.6776, 11.84707
897.1597, 11.85030
897.6418, 11.75735
898.1239, 11.58114
898.6060, 11.46007
899.0881, 11.60476
899.5703, 11.95097
900.0524, 12.16579
900.5345, 12.24492
901.0166, 12.25472
901.4987, 12.19656
901.9808, 12.13343
902.4630, 12.13691
902.9451, 12.15893
903.4272, 12.01046
903.9093, 11.49757
904.3914, 11.26746
904.8735, 11.59694
905.3557, 11.86478
905.8378, 11.75165
906.3199, 11.53660
906.8020, 11.54739
907.2841, 11.78530
907.7662, 11.96840
908.2484, 11.95251
908.7305, 11.96783
909.2126, 12.28430
909.6947, 12.52924
910.1768, 12.21286
910.6589, 11.54565
911.1411, 11.10372
911.6232, 11.10593
912.1053, 11.26231
912.5874, 11.36734
913.0695, 11.44300
913.5516, 11.52739
914.0338, 11.61114
914.5159, 11.68684
914.9980, 11.74271
915.4801, 11.67802
915.9622, 11.38365
916.4443, 11.01376
916.9265, 10.97062
917.4086, 11.25312
917.8907, 11.46628
918.3728, 11.58699
918.8549, 11.60429
919.3370, 11.48135
919.8192, 11.31878
920.3013, 11.24523
920.7834, 11.26045
921.2655, 11.37965
921.7476, 11.82637
922.2297, 11.98984
922.7119, 11.52328
923.1940, 11.01048
923.6761, 10.75222
924.1582, 10.69504
924.6403, 10.75294
925.1224, 10.96587
925.6046, 11.06571
926.0867, 10.89543
926.5688, 10.69840
927.0509, 10.46572
927.5330, 10.36548
928.0151, 10.72482
928.4973, 11.43790
928.9794, 11.94329
929.4615, 11.92588
929.9436, 11.73143
930.4257, 11.55149
930.9078, 11.44907
931.3900, 11.58722
931.8721, 11.88702
932.3542, 12.12181
932.8363, 12.20332
933.3184, 12.08187
933.8005, 11.60735
934.2827, 11.00519
934.7648, 10.95036
935.2469, 11.38180
935.7290, 11.72585
936.2111, 11.89072
936.6932, 11.96875
937.1754, 12.00576
937.6575, 12.01366
938.1396, 12.01636
938.6217, 12.01647
939.1038, 11.95829
939.5859, 11.76395
940.0681, 11.74155
940.5502, 11.67504
941.0323, 12.13383
941.5144, 12.39027
941.9965, 12.45523
942.4786, 11.75522
942.9608, 12.04301
943.4429, 11.93493
943.9250, 11.81063
944.4071, 12.23745
944.8892, 11.64870
945.3713, 12.06678
945.8535, 12.08296
946.3356, 12.31045
946.8177, 12.38170
947.2998, 12.10329
947.7819, 12.00992
948.2640, 12.72427
948.7462, 13.43218
949.2283, 13.19630
949.7104, 12.38448
950.1925, 11.86647
950.6746, 11.89948
951.1567, 12.13592
951.6389, 12.42656
952.1210, 12.66651
952.6031, 12.62319
953.0852, 12.45558
953.5673, 12.55110
954.0494, 12.91767
954.5316, 13.27817
955.0137, 13.48670
955.4958, 13.58201
955.9779, 13.62013
956.4600, 13.59472
956.9421, 13.44327
957.4242, 13.17096
957.9063, 12.91734
958.3884, 12.70535
958.8705, 12.66346
959.3527, 12.91378
959.8348, 13.37227
960.3169, 13.82586
960.7990, 14.32317
961.2811, 14.52007
961.7632, 14.26581
962.2454, 14.13155
962.7275, 14.42684
963.2096, 14.78388
963.6917, 14.74494
964.1738, 14.36435
964.6559, 14.25362
965.1381, 14.69497
965.6202, 14.94982
966.1023, 14.72481
966.5844, 14.62314
967.0665, 15.02982
967.5486, 15.64470
968.0308, 16.11906
968.5129, 16.42454
968.9950, 16.49963
969.4771, 16.16983
969.9592, 15.82222
970.4413, 15.40534
970.9235, 15.18468
971.4056, 15.50688
971.8877, 16.15269
972.3698, 16.68354
972.8519, 16.98189
973.3340, 17.19309
973.8162, 17.33697
974.2983, 17.49084
974.7804, 17.83377
975.2625, 18.15894
975.7446, 18.03977
976.2267, 17.60040
976.7089, 17.45364
977.1910, 17.90306
977.6731, 18.39922
978.1552, 18.18300
978.6373, 17.74724
979.1194, 18.11779
979.6016, 19.01181
980.0837, 19.48893
980.5658, 19.36653
981.0479, 18.48050
981.5300, 18.89914
982.0121, 19.11543
982.4943, 19.14023
982.9764, 18.40007
983.4585, 18.64771
983.9406, 18.49949
984.4227, 18.33503
984.9048, 18.72170
985.3870, 18.09279
985.8691, 18.47073
986.3512, 18.44675
986.8333, 17.97650
987.3154, 18.41898
987.7975, 18.65911
988.2797, 18.70776
988.7618, 17.99144
989.2439, 18.26292
989.7260, 18.13853
990.2081, 17.99791
990.6902, 18.40842
991.1724, 17.80335
991.6545, 17.48083
992.1366, 16.85218
992.6187, 16.79907
993.1008, 16.81992
993.5829, 16.70296
994.0651, 16.52181
994.5472, 16.40907
995.0293, 16.36877
995.5114, 16.15305
995.9935, 15.53271
996.4756, 15.06449
996.9578, 14.79043
997.4399, 14.71783
997.9220, 15.10611
998.4041, 15.58170
998.8862, 15.45892
999.3683, 14.65062
999.8505, 14.12595
1000.333, 14.31139
1000.815, 14.57421
1001.297, 14.72773
1001.779, 14.82661
1002.261, 14.97254
1002.743, 15.08536
1003.225, 14.97222
1003.707, 14.58357
1004.190, 14.17692
1004.672, 13.70776
1005.154, 13.45901
1005.636, 13.91025
1006.118, 14.48329
1006.600, 14.40690
1007.082, 13.82576
1007.564, 13.34085
1008.046, 13.16918
1008.529, 13.16727
1009.011, 13.40666
1009.493, 13.59446
1009.975, 13.28185
1010.457, 12.73769
1010.939, 12.39375
1011.421, 12.32057
1011.903, 12.52716
1012.385, 13.03117
1012.868, 13.40291
1013.350, 12.98794
1013.832, 12.22348
1014.314, 11.94561
1014.796, 12.02067
1015.278, 11.98163
1015.760, 11.78071
1016.242, 11.41856
1016.725, 11.91823
1017.207, 12.21548
1017.689, 12.32125
1018.171, 11.66205
1018.653, 11.99064
1019.135, 11.92337
1019.617, 11.83987
1020.099, 12.30750
1020.581, 11.75956
1021.064, 12.21852
1021.546, 12.27550
1022.028, 11.99591
1022.510, 11.78591
1022.992, 11.61299
1023.474, 11.47449
1023.956, 11.60061
1024.438, 12.08053
1024.921, 12.51640
1025.403, 12.59657
1025.885, 12.46952
1026.367, 12.51692
1026.849, 12.76539
1027.331, 12.70684
1027.813, 12.26605
1028.295, 11.97102
1028.777, 12.01958
1029.260, 12.04006
1029.742, 11.68833
1030.224, 11.14575
1030.706, 10.95427
1031.188, 11.20018
1031.670, 11.32224
1032.152, 11.26655
1032.634, 11.25421
1033.116, 11.39191
1033.599, 11.49562
1034.081, 11.35640
1034.563, 11.09901
1035.045, 11.14193
1035.527, 11.64308
1036.009, 11.89361
1036.491, 11.82288
1036.973, 11.61863
1037.456, 11.12272
1037.938, 10.78400
1038.420, 11.14559
1038.902, 11.93320
1039.384, 12.19521
1039.866, 11.69326
1040.348, 11.32825
1040.830, 11.05654
1041.313, 10.98778
1041.795, 11.40440
1042.277, 11.80562
1042.759, 11.65044
1043.241, 11.16049
1043.723, 11.06155
1044.205, 11.57373
1044.687, 11.88622
1045.169, 11.86091
1045.651, 11.77053
1046.134, 11.53071
1046.616, 11.39447
1047.098, 11.72920
1047.580, 12.32038
1048.062, 12.52305
1048.544, 12.17890
1049.026, 11.81234
1049.508, 11.32766
1049.991, 11.04162
1050.473, 11.32243
1050.955, 11.61244
1051.437, 11.29315
1051.919, 10.62393
1052.401, 10.37368
1052.883, 10.74558
1053.365, 11.10362
1053.848, 11.38161
1054.330, 11.53828
1054.812, 11.56344
1055.294, 11.45639
1055.776, 11.11341
1056.258, 10.65862
1056.740, 10.35524
1057.222, 10.23558
1057.704, 10.36290
1058.187, 11.10911
1058.669, 11.65446
1059.151, 11.37756
1059.633, 10.98904
1060.115, 11.17357
1060.597, 11.73573
1061.079, 12.21589
1061.561, 12.55064
1062.043, 12.44624
1062.526, 11.23940
1063.008, 10.29273
1063.490, 10.39362
1063.972, 10.85913
1064.454, 11.19755
1064.936, 11.38184
1065.418, 11.46624
1065.900, 11.46173
1066.383, 11.45015
1066.865, 11.53419
1067.347, 11.52685
1067.829, 11.15780
1068.311, 10.82685
1068.793, 11.03139
1069.275, 11.47936
1069.757, 11.53110
1070.240, 11.08357
1070.722, 10.75327
1071.204, 10.90123
1071.686, 11.08456
1072.168, 11.11668
1072.650, 11.08026
1073.132, 10.92992
1073.614, 10.81282
1074.096, 11.08250
1074.578, 11.72480
1075.061, 12.04541
1075.543, 11.44263
1076.025, 10.96592
1076.507, 11.32413
1076.989, 11.80433
1077.471, 11.81494
1077.953, 11.58087
1078.435, 11.48904
1078.918, 11.58821
1079.400, 11.73894
1079.882, 12.01119
1080.364, 12.06488
1080.846, 11.38676
1081.328, 10.79873
1081.810, 11.05670
1082.292, 11.68111
1082.774, 12.00884
1083.257, 12.00189
1083.739, 11.99103
1084.221, 12.09108
1084.703, 12.18900
1085.185, 12.34563
1085.667, 12.35778
1086.149, 11.99412
1086.631, 11.48051
1087.114, 10.97811
1087.596, 10.57962
1088.078, 10.50060
1088.560, 10.88818
1089.042, 11.17223
1089.524, 10.93253
1090.006, 10.74395
1090.488, 11.00862
1090.970, 11.42625
1091.453, 11.79888
1091.935, 12.03232
1092.417, 11.91859
1092.899, 11.36661
1093.381, 10.94859
1093.863, 10.94733
1094.345, 11.03482
1094.827, 11.13034
1095.309, 11.18913
1095.792, 11.17172
1096.274, 11.09367
1096.756, 10.96665
1097.238, 10.79421
1097.720, 10.68347
1098.202, 10.70241
1098.684, 10.74006
1099.166, 10.84567
1099.649, 10.86820
1100.131, 10.58115
1100.613, 10.20909
1101.095, 10.08979
1101.577, 10.24601
1102.059, 10.46689
1102.541, 10.83750
1103.023, 11.04655
1103.505, 10.82591
1103.988, 10.65039
1104.470, 10.93660
1104.952, 11.29216
1105.434, 11.15767
1105.916, 10.63375
1106.398, 10.39233
1106.880, 10.66304
1107.362, 10.90917
1107.844, 11.09516
1108.327, 11.18260
1108.809, 11.18274
1109.291, 11.05666
1109.773, 10.63049
1110.255, 10.06509
1110.737, 9.827182
1111.219, 9.997094
1111.701, 10.30159
1112.184, 11.14528
1112.666, 11.52855
1113.148, 10.71559
1113.630, 9.904138
1114.112, 10.04416
1114.594, 10.65382
1115.076, 10.79464
1115.558, 10.39586
1116.041, 10.24125
1116.523, 10.66779
1117.005, 10.75000
1117.487, 10.07021
1117.969, 9.492724
1118.451, 9.452203
1118.933, 9.711619
1119.415, 10.02791
1119.897, 10.38283
1120.380, 10.58506
1120.862, 10.58856
1121.344, 10.54704
1121.826, 10.44729
1122.308, 10.33327
1122.790, 10.17464
1123.272, 10.09193
1123.754, 10.23458
1124.236, 10.52070
1124.719, 10.68081
1125.201, 10.71834
1125.683, 10.58510
1126.165, 10.20980
1126.647, 9.933451
1127.129, 9.833848
1127.611, 9.881483
1128.093, 10.10357
1128.576, 10.34589
1129.058, 10.25547
1129.540, 9.867329
1130.022, 10.08998
1130.504, 11.01726
1130.986, 11.35268
1131.468, 10.84249
1131.950, 10.37532
1132.432, 10.38262
1132.915, 10.60206
1133.397, 10.74871
1133.879, 10.80561
1134.361, 10.68558
1134.843, 10.40252
1135.325, 10.09734
1135.807, 9.789918
1136.289, 9.670642
1136.771, 9.794368
1137.254, 9.793641
1137.736, 9.333957
1138.218, 8.750715
1138.700, 8.688686
1139.182, 9.003991
1139.664, 9.236752
1140.146, 9.396902
1140.628, 9.648876
1141.111, 9.978494
1141.593, 10.03781
1142.075, 9.637893
1142.557, 9.207042
1143.039, 9.368735
1143.521, 9.701957
1144.003, 9.325827
1144.485, 8.657151
1144.968, 8.633088
1145.450, 9.141104
1145.932, 9.479681
1146.414, 9.438618
1146.896, 9.342723
1147.378, 9.379808
1147.860, 9.538847
1148.342, 10.01409
1148.824, 10.43354
1149.307, 10.20424
1149.789, 9.663974
1150.271, 9.459153
1150.753, 9.630633
1151.235, 9.803763
1151.717, 9.832898
1152.199, 9.813523
1152.681, 9.691196
1153.163, 9.665609
1153.646, 10.14249
1154.128, 10.56015
1154.610, 10.08142
1155.092, 9.128354
1155.574, 8.841086
1156.056, 9.456258
1156.538, 9.829587
1157.020, 9.369536
1157.503, 9.001212
1157.985, 9.101447
1158.467, 9.244465
1158.949, 9.243794
1159.431, 9.090652
1159.913, 8.521982
1160.395, 7.686368
1160.877, 7.841881
1161.359, 10.12212
1161.842, 11.23954
1162.324, 10.53361
1162.806, 9.607318
1163.288, 8.534690
1163.770, 7.849860
1164.252, 8.146890
1164.734, 8.967804
1165.216, 9.289723
1165.698, 9.069796
1166.181, 8.885509
1166.663, 8.683961
1167.145, 8.764711
1167.627, 9.284628
1168.109, 9.660152
1168.591, 9.600198
1169.073, 9.309743
1169.555, 8.973983
1170.037, 8.673079
1170.520, 8.789728
1171.002, 9.307199
1171.484, 9.534894
1171.966, 9.448210
1172.448, 9.345798
1172.930, 9.307559
1173.412, 9.281001
1173.894, 9.227262
1174.377, 9.199792
1174.859, 9.290371
1175.341, 9.464585
1175.823, 9.754804
1176.305, 10.02347
1176.787, 9.673179
1177.269, 8.842566
1177.751, 8.421225
1178.234, 8.702509
1178.716, 9.194711
1179.198, 9.618745
1179.680, 9.863008
1180.162, 9.697831
1180.644, 9.368772
1181.126, 9.124215
1181.608, 8.981892
1182.090, 8.987796
1182.573, 9.092188
1183.055, 9.123905
1183.537, 9.022259
1184.019, 8.824025
1184.501, 8.173681
1184.983, 7.904606
1185.465, 9.083873
1185.947, 10.27512
1186.429, 9.971918
1186.912, 8.899348
1187.394, 8.543200
1187.876, 9.024560
1188.358, 9.233038
1188.840, 8.456762
1189.322, 8.255401
1189.804, 9.498975
1190.286, 10.40108
1190.769, 10.17021
1191.251, 9.546309
1191.733, 9.039601
1192.215, 8.663984
1192.697, 8.457190
1193.179, 8.425964
1193.661, 8.539743
1194.143, 8.882895
1194.625, 9.032049
1195.108, 8.877749
1195.590, 8.744781
1196.072, 8.819769
1196.554, 8.820762
1197.036, 8.352407
1197.518, 7.690615
1198.000, 7.832379
1198.482, 8.651392
1198.964, 8.967041
1199.447, 8.791280
1199.929, 8.686442
1200.411, 8.772236
1200.893, 8.809270
1201.375, 8.655354
1201.857, 8.519651
1202.339, 8.753042
1202.821, 9.059821
1203.304, 8.847903
1203.786, 8.422174
1204.268, 8.379307
1204.750, 8.597391
1205.232, 8.558530
1205.714, 8.208332
1206.196, 8.093059
1206.678, 8.597266
1207.161, 9.049368
1207.643, 8.933508
1208.125, 8.732939
1208.607, 8.910293
1209.089, 9.073663
1209.571, 8.552579
1210.053, 7.738242
1210.535, 7.698768
1211.017, 8.637275
1211.500, 9.271005
1211.982, 9.226335
1212.464, 9.157118
1212.946, 9.036269
1213.428, 9.059808
1213.910, 9.432051
1214.392, 9.822452
1214.874, 9.909165
1215.356, 9.772220
1215.839, 9.656815
1216.321, 9.573449
1216.803, 9.376263
1217.285, 9.019448
1217.767, 8.881640
1218.249, 9.047733
1218.731, 9.245376
1219.213, 9.353560
1219.696, 9.341119
1220.178, 9.143494
1220.660, 8.874087
1221.142, 8.864149
1221.624, 8.990004
1222.106, 8.714995
1222.588, 8.200033
1223.070, 8.151506
1223.552, 8.601665
1224.035, 8.985824
1224.517, 9.040522
1224.999, 8.921238
1225.481, 8.681616
1225.963, 8.414429
1226.445, 8.126969
1226.927, 7.927421
1227.409, 7.984935
1227.891, 8.185894
1228.374, 8.345273
1228.856, 8.444491
1229.338, 8.570350
1229.820, 8.778864
1230.302, 8.898087
1230.784, 8.781309
1231.266, 8.718237
1231.748, 8.938765
1232.231, 9.080607
1232.713, 8.813028
1233.195, 8.426934
1233.677, 8.339822
1234.159, 8.521832
1234.641, 8.725210
1235.123, 8.985452
1235.605, 9.084457
1236.088, 8.987353
1236.570, 8.916652
1237.052, 8.939409
1237.534, 8.876237
1238.016, 8.594072
1238.498, 8.308925
1238.980, 8.350564
1239.462, 8.594177
1239.944, 8.697228
1240.427, 8.720654
1240.909, 8.886251
1241.391, 9.141811
1241.873, 9.261477
1242.355, 9.202576
1242.837, 9.084456
1243.319, 8.972013
1243.801, 8.797253
1244.283, 8.299368
1244.766, 7.963329
1245.248, 8.325294
1245.730, 8.880278
1246.212, 9.184341
1246.694, 9.277333
1247.176, 9.231187
1247.658, 9.089190
1248.140, 9.121313
1248.622, 9.582259
1249.105, 9.757004
1249.587, 9.416247
1250.069, 9.090554
1250.551, 8.865302
1251.033, 8.731247
1251.515, 8.640481
1251.997, 8.739158
1252.479, 9.374723
1252.962, 10.32254
1253.444, 10.09450
1253.926, 8.726196
1254.408, 8.289113
1254.890, 8.820572
1255.372, 8.982680
1255.854, 8.503039
1256.336, 8.359316
1256.818, 9.125582
1257.301, 9.933476
1257.783, 9.692698
1258.265, 9.106823
1258.747, 9.196016
1259.229, 9.495039
1259.711, 9.303567
1260.193, 8.838680
1260.675, 8.589024
1261.157, 8.599766
1261.640, 8.625604
1262.122, 8.573534
1262.604, 8.626249
1263.086, 9.089263
1263.568, 9.314282
1264.050, 8.661066
1264.532, 8.214794
1265.014, 8.892005
1265.497, 9.844678
1265.979, 10.10463
1266.461, 9.807947
1266.943, 9.499746
1267.425, 9.171359
1267.907, 8.897195
1268.389, 8.673304
1268.871, 8.551713
1269.354, 8.542236
1269.836, 8.587721
1270.318, 8.662122
1270.800, 8.838868
1271.282, 9.251339
1271.764, 9.619445
1272.246, 9.345232
1272.728, 8.815513
1273.210, 8.709378
1273.693, 8.873766
1274.175, 9.018411
1274.657, 9.092660
1275.139, 9.151669
1275.621, 9.202117
1276.103, 9.052942
1276.585, 8.263741
1277.067, 7.861268
1277.549, 8.557138
1278.032, 9.243439
1278.514, 9.379944
1278.996, 9.280774
1279.478, 9.140803
1279.960, 9.026579
1280.442, 9.106625
1280.924, 9.367609
1281.406, 9.341735
1281.889, 8.983890
1282.371, 8.629934
1282.853, 8.287062
1283.335, 8.396221
1283.817, 9.075374
1284.299, 9.591170
1284.781, 9.472309
1285.263, 8.997573
1285.745, 8.450153
1286.228, 7.828843
##END=



