##NAMES=Ferrosilite
##RRUFFID=R070386
##IDEAL CHEMISTRY=Fe^2+^_2_Si_2_O_6_
##LOCALITY=Greenland
##OWNER=RRUFF
##SOURCE=Subrata Ghose, collected by Ramberg
##DESCRIPTION=Unconsolidated brown transparent cleavage fragments
##STATUS=The identification of this mineral is confirmed by single-crystal X-ray diffraction and chemical analysis.
##URL=rruff.info/R070386
##MEASURED CHEMISTRY=(Fe^2+^_1.64_Mg_0.32_Al_0.02_Ca_0.02_)_Σ=2_(Si_1.98_Al_0.02_)_Σ=2_O_6_
170.5756, 4655.064
171.0577, 4630.942
171.5398, 4636.765
172.0219, 4648.384
172.5040, 4640.549
172.9861, 4611.793
173.4683, 4591.532
173.9504, 4607.588
174.4325, 4618.860
174.9146, 4586.253
175.3967, 4503.713
175.8788, 4419.709
176.3610, 4391.273
176.8431, 4425.686
177.3252, 4441.022
177.8073, 4391.685
178.2894, 4337.158
178.7715, 4317.419
179.2537, 4337.374
179.7358, 4367.303
180.2179, 4375.104
180.7000, 4357.523
181.1821, 4341.648
181.6642, 4338.217
182.1464, 4333.255
182.6285, 4314.105
183.1106, 4280.667
183.5927, 4250.868
184.0748, 4248.476
184.5569, 4278.930
185.0391, 4300.819
185.5212, 4306.891
186.0033, 4304.242
186.4854, 4292.004
186.9675, 4271.657
187.4496, 4251.557
187.9318, 4242.021
188.4139, 4245.734
188.8960, 4244.396
189.3781, 4229.805
189.8602, 4214.855
190.3423, 4205.908
190.8245, 4203.113
191.3066, 4202.046
191.7887, 4198.423
192.2708, 4191.938
192.7529, 4184.653
193.2350, 4175.525
193.7172, 4166.398
194.1993, 4155.168
194.6814, 4143.523
195.1635, 4137.565
195.6456, 4147.653
196.1277, 4178.305
196.6099, 4193.733
197.0920, 4186.780
197.5741, 4169.625
198.0562, 4137.435
198.5383, 4096.191
199.0204, 4063.451
199.5026, 4061.156
199.9847, 4094.010
200.4668, 4101.313
200.9489, 4044.650
201.4310, 3995.009
201.9131, 3984.847
202.3953, 4003.839
202.8774, 4019.048
203.3595, 4000.169
203.8416, 3946.446
204.3237, 3908.963
204.8058, 3899.453
205.2880, 3896.705
205.7701, 3899.286
206.2522, 3903.881
206.7343, 3905.192
207.2164, 3898.847
207.6985, 3885.233
208.1807, 3871.446
208.6628, 3853.624
209.1449, 3839.963
209.6270, 3832.021
210.1091, 3829.684
210.5912, 3832.442
211.0734, 3839.965
211.5555, 3852.241
212.0376, 3871.566
212.5197, 3928.655
213.0018, 3952.606
213.4839, 3895.825
213.9661, 3803.691
214.4482, 3744.008
214.9303, 3758.253
215.4124, 3825.229
215.8945, 3858.028
216.3766, 3825.072
216.8587, 3801.842
217.3409, 3811.415
217.8230, 3835.351
218.3051, 3852.799
218.7872, 3854.132
219.2693, 3842.811
219.7514, 3825.271
220.2336, 3786.682
220.7157, 3769.226
221.1978, 3793.038
221.6799, 3831.477
222.1620, 3859.330
222.6441, 3867.366
223.1263, 3863.101
223.6084, 3861.593
224.0905, 3866.649
224.5726, 3865.990
225.0547, 3838.490
225.5368, 3817.109
226.0190, 3838.260
226.5011, 3909.084
226.9832, 3989.622
227.4653, 4016.950
227.9474, 3972.828
228.4296, 3928.240
228.9117, 3879.250
229.3938, 3839.164
229.8759, 3817.965
230.3580, 3816.529
230.8401, 3827.164
231.3223, 3845.444
231.8044, 3876.147
232.2865, 3892.376
232.7686, 3872.827
233.2507, 3854.329
233.7328, 3854.799
234.2150, 3873.744
234.6971, 3898.554
235.1792, 3920.684
235.6613, 3940.749
236.1434, 3949.355
236.6255, 3931.710
237.1077, 3916.260
237.5898, 3913.756
238.0719, 3922.852
238.5540, 3938.390
239.0361, 3962.234
239.5182, 3991.756
240.0004, 3996.650
240.4825, 3951.520
240.9646, 3914.101
241.4467, 3908.966
241.9288, 3925.707
242.4109, 3946.903
242.8931, 3967.391
243.3752, 3982.520
243.8573, 3972.127
244.3394, 3916.280
244.8215, 3872.271
245.3036, 3868.022
245.7858, 3883.130
246.2679, 3892.485
246.7500, 3885.084
247.2321, 3868.578
247.7142, 3856.840
248.1963, 3850.627
248.6785, 3846.949
249.1606, 3857.189
249.6427, 3863.354
250.1248, 3843.084
250.6069, 3786.408
251.0890, 3725.070
251.5712, 3702.437
252.0533, 3724.185
252.5354, 3740.916
253.0175, 3745.517
253.4996, 3735.637
253.9817, 3699.839
254.4639, 3636.283
254.9460, 3580.900
255.4281, 3574.968
255.9102, 3614.823
256.3923, 3634.473
256.8745, 3607.557
257.3566, 3574.121
257.8387, 3566.344
258.3208, 3582.607
258.8029, 3604.427
259.2850, 3627.995
259.7672, 3649.368
260.2493, 3652.663
260.7314, 3630.926
261.2135, 3601.330
261.6956, 3573.121
262.1777, 3547.263
262.6599, 3527.376
263.1420, 3518.453
263.6241, 3515.351
264.1062, 3508.483
264.5883, 3496.246
265.0704, 3486.921
265.5526, 3494.799
266.0347, 3508.826
266.5168, 3504.313
266.9989, 3453.487
267.4810, 3401.511
267.9631, 3401.206
268.4453, 3450.701
268.9274, 3493.592
269.4095, 3497.876
269.8916, 3478.007
270.3737, 3471.091
270.8558, 3481.422
271.3380, 3497.709
271.8201, 3516.372
272.3022, 3536.295
272.7843, 3554.080
273.2664, 3569.465
273.7485, 3580.575
274.2307, 3582.980
274.7128, 3575.099
275.1949, 3566.759
275.6770, 3562.595
276.1591, 3559.469
276.6412, 3549.459
277.1234, 3529.320
277.6055, 3512.107
278.0876, 3517.432
278.5697, 3550.559
279.0518, 3574.591
279.5339, 3569.584
280.0161, 3564.948
280.4982, 3596.589
280.9803, 3664.178
281.4624, 3726.304
281.9445, 3745.130
282.4266, 3717.422
282.9088, 3697.995
283.3909, 3682.936
283.8730, 3678.737
284.3551, 3697.825
284.8372, 3731.570
285.3193, 3753.940
285.8015, 3744.970
286.2836, 3714.593
286.7657, 3723.803
287.2478, 3814.089
287.7299, 3891.585
288.2120, 3932.889
288.6942, 3952.709
289.1763, 3968.759
289.6584, 3988.283
290.1405, 4012.855
290.6226, 4047.022
291.1047, 4108.379
291.5869, 4152.055
292.0690, 4161.899
292.5511, 4165.660
293.0332, 4185.631
293.5153, 4225.419
293.9974, 4273.046
294.4796, 4313.229
294.9617, 4342.701
295.4438, 4378.269
295.9259, 4418.653
296.4080, 4465.873
296.8901, 4521.169
297.3723, 4584.268
297.8544, 4655.431
298.3365, 4740.060
298.8186, 4834.812
299.3007, 4895.920
299.7828, 4883.354
300.2650, 4888.542
300.7471, 4945.666
301.2292, 5031.959
301.7113, 5116.415
302.1934, 5185.216
302.6755, 5242.961
303.1577, 5297.972
303.6398, 5348.389
304.1219, 5401.332
304.6040, 5467.580
305.0861, 5531.731
305.5682, 5581.958
306.0504, 5615.490
306.5325, 5637.110
307.0146, 5646.966
307.4967, 5645.265
307.9788, 5650.003
308.4609, 5674.177
308.9431, 5693.713
309.4252, 5689.038
309.9073, 5662.540
310.3894, 5632.296
310.8715, 5603.759
311.3536, 5578.902
311.8358, 5566.919
312.3179, 5574.004
312.8000, 5574.963
313.2821, 5551.130
313.7642, 5507.127
314.2463, 5450.102
314.7285, 5363.296
315.2106, 5277.534
315.6927, 5225.665
316.1748, 5204.833
316.6569, 5185.195
317.1390, 5152.666
317.6212, 5111.601
318.1033, 5073.847
318.5854, 5040.245
319.0675, 5008.207
319.5496, 4979.604
320.0317, 4951.394
320.5139, 4915.439
320.9960, 4868.359
321.4781, 4820.935
321.9602, 4790.202
322.4423, 4782.733
322.9244, 4771.665
323.4066, 4757.606
323.8887, 4738.396
324.3708, 4712.888
324.8529, 4680.712
325.3350, 4639.651
325.8171, 4584.932
326.2993, 4515.554
326.7814, 4471.040
327.2635, 4469.607
327.7456, 4469.378
328.2277, 4463.890
328.7098, 4449.490
329.1920, 4418.834
329.6741, 4367.317
330.1562, 4304.638
330.6383, 4259.473
331.1204, 4248.889
331.6025, 4228.875
332.0847, 4186.068
332.5668, 4140.024
333.0489, 4107.630
333.5310, 4091.802
334.0131, 4080.570
334.4952, 4060.079
334.9774, 4029.256
335.4595, 3996.328
335.9416, 3955.611
336.4237, 3918.430
336.9058, 3888.757
337.3879, 3866.459
337.8701, 3850.362
338.3522, 3840.159
338.8343, 3835.380
339.3164, 3835.072
339.7985, 3840.328
340.2806, 3847.105
340.7627, 3857.482
341.2448, 3866.878
341.7270, 3868.025
342.2091, 3856.252
342.6912, 3844.319
343.1733, 3843.311
343.6554, 3852.787
344.1375, 3871.899
344.6197, 3909.382
345.1018, 3944.481
345.5839, 3948.631
346.0660, 3921.334
346.5481, 3894.357
347.0302, 3879.219
347.5124, 3870.806
347.9945, 3859.298
348.4766, 3843.352
348.9587, 3836.606
349.4408, 3855.778
349.9229, 3898.800
350.4051, 3918.889
350.8872, 3895.322
351.3693, 3870.432
351.8514, 3869.951
352.3335, 3884.327
352.8156, 3889.163
353.2978, 3872.375
353.7799, 3840.952
354.2620, 3812.536
354.7441, 3787.596
355.2262, 3765.478
355.7083, 3747.912
356.1905, 3732.060
356.6726, 3715.172
357.1547, 3696.962
357.6368, 3679.042
358.1189, 3661.745
358.6010, 3643.423
359.0832, 3638.630
359.5653, 3674.177
360.0474, 3696.485
360.5295, 3679.210
361.0116, 3637.541
361.4937, 3599.334
361.9759, 3579.020
362.4580, 3573.568
362.9401, 3579.536
363.4222, 3606.894
363.9043, 3618.552
364.3864, 3592.320
364.8686, 3554.196
365.3507, 3520.102
365.8328, 3493.140
366.3149, 3475.971
366.7970, 3472.438
367.2791, 3481.322
367.7613, 3499.081
368.2434, 3534.252
368.7255, 3560.899
369.2076, 3550.421
369.6897, 3512.791
370.1718, 3479.006
370.6540, 3454.925
371.1361, 3440.235
371.6182, 3439.864
372.1003, 3451.837
372.5824, 3458.491
373.0645, 3450.117
373.5467, 3430.892
374.0288, 3412.456
374.5109, 3392.115
374.9930, 3377.069
375.4751, 3371.226
375.9572, 3370.793
376.4394, 3373.446
376.9215, 3378.047
377.4036, 3378.646
377.8857, 3367.114
378.3678, 3339.476
378.8499, 3319.452
379.3321, 3311.717
379.8142, 3305.585
380.2963, 3293.282
380.7784, 3279.155
381.2605, 3275.608
381.7426, 3291.479
382.2248, 3316.383
382.7069, 3315.040
383.1890, 3270.339
383.6711, 3231.740
384.1532, 3192.475
384.6353, 3170.450
385.1175, 3192.122
385.5996, 3256.681
386.0817, 3319.748
386.5638, 3335.861
387.0459, 3308.241
387.5280, 3277.091
388.0102, 3235.775
388.4923, 3205.861
388.9744, 3208.626
389.4565, 3230.897
389.9386, 3244.629
390.4207, 3237.277
390.9029, 3221.486
391.3850, 3209.499
391.8671, 3201.066
392.3492, 3194.247
392.8313, 3188.518
393.3134, 3183.793
393.7956, 3180.098
394.2777, 3177.519
394.7598, 3175.281
395.2419, 3176.463
395.7240, 3176.163
396.2061, 3166.885
396.6883, 3148.632
397.1704, 3130.632
397.6525, 3122.086
398.1346, 3123.099
398.6167, 3114.028
399.0988, 3083.293
399.5810, 3057.111
400.0631, 3042.431
400.5452, 3036.836
401.0273, 3040.500
401.5094, 3053.080
401.9915, 3063.343
402.4737, 3048.041
402.9558, 2993.117
403.4379, 2954.113
403.9200, 2945.863
404.4021, 2943.608
404.8842, 2937.141
405.3664, 2926.264
405.8485, 2914.752
406.3306, 2907.002
406.8127, 2899.517
407.2948, 2880.011
407.7769, 2843.773
408.2591, 2812.783
408.7412, 2803.950
409.2233, 2802.206
409.7054, 2785.227
410.1875, 2743.950
410.6696, 2712.420
411.1518, 2719.951
411.6339, 2751.533
412.1160, 2774.466
412.5981, 2782.535
413.0802, 2779.183
413.5623, 2764.032
414.0445, 2735.887
414.5266, 2719.500
415.0087, 2729.694
415.4908, 2737.032
415.9729, 2717.319
416.4550, 2683.567
416.9372, 2667.438
417.4193, 2684.492
417.9014, 2719.037
418.3835, 2735.090
418.8656, 2715.251
419.3477, 2707.447
419.8299, 2725.675
420.3120, 2743.326
420.7941, 2742.659
421.2762, 2724.817
421.7583, 2702.287
422.2404, 2683.664
422.7226, 2668.698
423.2047, 2655.383
423.6868, 2643.064
424.1689, 2634.053
424.6510, 2624.877
425.1331, 2621.447
425.6153, 2633.838
426.0974, 2666.648
426.5795, 2698.577
427.0616, 2709.662
427.5437, 2706.018
428.0258, 2711.568
428.5080, 2734.609
428.9901, 2751.435
429.4722, 2732.952
429.9543, 2683.085
430.4364, 2652.758
430.9185, 2652.613
431.4007, 2665.498
431.8828, 2693.867
432.3649, 2727.118
432.8470, 2739.669
433.3291, 2719.851
433.8112, 2683.198
434.2934, 2659.584
434.7755, 2651.845
435.2576, 2652.931
435.7397, 2673.471
436.2218, 2692.565
436.7039, 2697.194
437.1861, 2689.233
437.6682, 2677.926
438.1503, 2669.317
438.6324, 2662.571
439.1145, 2652.667
439.5966, 2633.420
440.0788, 2626.928
440.5609, 2658.389
441.0430, 2694.078
441.5251, 2704.783
442.0072, 2686.374
442.4893, 2661.105
442.9715, 2638.251
443.4536, 2620.278
443.9357, 2617.189
444.4178, 2632.735
444.8999, 2642.740
445.3820, 2624.109
445.8642, 2584.545
446.3463, 2565.960
446.8284, 2577.202
447.3105, 2598.633
447.7926, 2637.581
448.2747, 2677.373
448.7569, 2690.068
449.2390, 2668.287
449.7211, 2628.482
450.2032, 2587.889
450.6853, 2540.962
451.1674, 2523.264
451.6496, 2570.659
452.1317, 2607.706
452.6138, 2592.106
453.0959, 2551.747
453.5780, 2539.884
454.0602, 2583.819
454.5423, 2644.333
455.0244, 2649.167
455.5065, 2589.166
455.9886, 2546.435
456.4707, 2538.513
456.9529, 2549.100
457.4350, 2570.277
457.9171, 2599.242
458.3992, 2622.177
458.8813, 2637.724
459.3634, 2641.852
459.8456, 2620.614
460.3277, 2578.446
460.8098, 2550.201
461.2919, 2553.667
461.7740, 2577.702
462.2561, 2600.058
462.7383, 2627.559
463.2204, 2638.058
463.7025, 2609.023
464.1846, 2577.568
464.6667, 2575.614
465.1488, 2600.468
465.6310, 2629.160
466.1131, 2645.568
466.5952, 2651.370
467.0773, 2654.982
467.5594, 2659.623
468.0415, 2655.853
468.5237, 2632.551
469.0058, 2607.625
469.4879, 2596.390
469.9700, 2600.272
470.4521, 2607.872
470.9342, 2610.192
471.4164, 2609.354
471.8985, 2612.966
472.3806, 2622.425
472.8627, 2630.468
473.3448, 2634.269
473.8269, 2632.821
474.3091, 2623.647
474.7912, 2597.127
475.2733, 2580.978
475.7554, 2593.817
476.2375, 2619.810
476.7196, 2637.992
477.2018, 2644.649
477.6839, 2647.612
478.1660, 2654.229
478.6481, 2664.492
479.1302, 2672.312
479.6123, 2685.966
480.0945, 2686.935
480.5766, 2665.774
481.0587, 2633.228
481.5408, 2594.391
482.0229, 2552.450
482.5050, 2524.221
482.9872, 2535.990
483.4693, 2584.608
483.9514, 2619.378
484.4335, 2633.696
484.9156, 2642.402
485.3977, 2658.165
485.8799, 2674.061
486.3620, 2674.704
486.8441, 2644.228
487.3262, 2621.412
487.8083, 2640.764
488.2904, 2683.616
488.7726, 2711.016
489.2547, 2713.672
489.7368, 2705.828
490.2189, 2700.991
490.7010, 2698.995
491.1831, 2702.658
491.6653, 2715.473
492.1474, 2729.109
492.6295, 2746.501
493.1116, 2761.096
493.5937, 2760.365
494.0758, 2741.240
494.5580, 2721.790
495.0401, 2731.938
495.5222, 2774.100
496.0043, 2790.853
496.4864, 2756.985
496.9685, 2733.526
497.4507, 2769.330
497.9328, 2835.327
498.4149, 2877.259
498.8970, 2872.303
499.3791, 2859.739
499.8612, 2872.058
500.3434, 2899.320
500.8255, 2916.992
501.3076, 2919.271
501.7897, 2912.311
502.2718, 2899.911
502.7539, 2880.921
503.2361, 2874.934
503.7182, 2886.272
504.2003, 2903.636
504.6824, 2928.688
505.1645, 2955.545
505.6466, 2976.885
506.1288, 2990.448
506.6109, 3000.179
507.0930, 3011.842
507.5751, 3025.796
508.0572, 3032.695
508.5393, 3026.164
509.0215, 3022.618
509.5036, 3034.621
509.9857, 3053.569
510.4678, 3065.354
510.9499, 3064.073
511.4320, 3062.313
511.9142, 3067.316
512.3963, 3078.670
512.8784, 3098.205
513.3605, 3126.591
513.8427, 3151.975
514.3248, 3161.453
514.8069, 3155.474
515.2890, 3163.844
515.7711, 3212.167
516.2532, 3241.707
516.7354, 3222.929
517.2175, 3187.592
517.6996, 3169.610
518.1817, 3176.794
518.6638, 3195.775
519.1459, 3214.424
519.6281, 3232.701
520.1102, 3252.728
520.5923, 3279.590
521.0744, 3296.737
521.5565, 3288.237
522.0386, 3268.814
522.5208, 3257.320
523.0029, 3259.033
523.4850, 3255.496
523.9671, 3232.297
524.4492, 3199.930
524.9313, 3170.636
525.4135, 3146.813
525.8956, 3135.128
526.3777, 3142.147
526.8598, 3163.771
527.3419, 3178.565
527.8240, 3183.080
528.3062, 3184.715
528.7883, 3184.892
529.2704, 3181.628
529.7525, 3173.817
530.2346, 3161.104
530.7167, 3142.740
531.1989, 3115.702
531.6810, 3084.063
532.1631, 3058.790
532.6452, 3039.873
533.1273, 3027.044
533.6094, 3021.640
534.0916, 3021.234
534.5737, 3023.069
535.0558, 3027.296
535.5379, 3031.173
536.0200, 3034.523
536.5021, 3036.766
536.9843, 3035.417
537.4664, 3032.308
537.9485, 3033.299
538.4306, 3041.450
538.9127, 3053.687
539.3948, 3064.860
539.8770, 3079.856
540.3591, 3081.684
540.8412, 3059.104
541.3233, 3034.382
541.8054, 3007.340
542.2875, 2986.583
542.7697, 2991.824
543.2518, 3040.359
543.7339, 3094.312
544.2160, 3104.333
544.6981, 3078.168
545.1802, 3057.427
545.6624, 3050.805
546.1445, 3050.543
546.6266, 3049.109
547.1087, 3054.243
547.5908, 3052.035
548.0729, 3071.569
548.5551, 3089.804
549.0372, 3104.327
549.5193, 3113.317
550.0014, 3111.036
550.4835, 3098.116
550.9656, 3086.785
551.4478, 3091.019
551.9299, 3109.415
552.4120, 3124.775
552.8941, 3142.385
553.3762, 3145.507
553.8583, 3108.542
554.3405, 3063.604
554.8226, 3045.680
555.3047, 3060.551
555.7868, 3075.936
556.2689, 3071.715
556.7510, 3061.979
557.2332, 3066.561
557.7153, 3084.324
558.1974, 3101.488
558.6795, 3111.661
559.1616, 3113.250
559.6437, 3100.308
560.1259, 3048.493
560.6080, 3028.784
561.0901, 3067.468
561.5722, 3108.792
562.0543, 3130.030
562.5364, 3129.508
563.0186, 3107.066
563.5007, 3057.296
563.9828, 3001.044
564.4649, 2968.443
564.9470, 2957.098
565.4291, 2944.490
565.9113, 2923.498
566.3934, 2909.460
566.8755, 2922.804
567.3576, 2960.352
567.8397, 2974.303
568.3218, 2936.127
568.8040, 2908.438
569.2861, 2922.154
569.7682, 2952.335
570.2503, 2973.457
570.7324, 2978.700
571.2145, 2968.341
571.6967, 2938.571
572.1788, 2893.745
572.6609, 2865.018
573.1430, 2858.381
573.6251, 2851.362
574.1072, 2835.203
574.5894, 2816.471
575.0715, 2801.051
575.5536, 2789.180
576.0357, 2779.859
576.5178, 2774.846
576.9999, 2770.638
577.4821, 2766.853
577.9642, 2761.242
578.4463, 2747.836
578.9284, 2724.098
579.4105, 2689.932
579.8926, 2640.289
580.3748, 2559.974
580.8569, 2522.324
581.3390, 2585.196
581.8211, 2630.702
582.3032, 2606.023
582.7853, 2546.275
583.2675, 2505.261
583.7496, 2500.371
584.2317, 2500.018
584.7138, 2473.062
585.1959, 2430.683
585.6780, 2398.763
586.1602, 2380.011
586.6422, 2376.765
587.1243, 2396.573
587.6064, 2428.563
588.0886, 2435.310
588.5707, 2399.479
589.0528, 2363.175
589.5349, 2314.065
590.0170, 2275.754
590.4991, 2272.724
590.9813, 2294.568
591.4634, 2311.554
591.9455, 2306.931
592.4276, 2290.948
592.9097, 2280.590
593.3918, 2275.544
593.8740, 2265.415
594.3561, 2246.055
594.8382, 2226.486
595.3203, 2214.599
595.8024, 2209.643
596.2845, 2203.918
596.7667, 2190.296
597.2488, 2184.395
597.7309, 2201.650
598.2130, 2222.972
598.6951, 2224.144
599.1772, 2204.562
599.6594, 2183.174
600.1415, 2174.732
600.6236, 2177.209
601.1057, 2185.074
601.5878, 2200.986
602.0699, 2211.429
602.5521, 2216.670
603.0342, 2210.969
603.5163, 2179.710
603.9984, 2127.669
604.4805, 2097.543
604.9626, 2114.406
605.4448, 2141.321
605.9269, 2159.473
606.4090, 2169.970
606.8911, 2175.272
607.3732, 2176.299
607.8553, 2174.219
608.3375, 2169.798
608.8196, 2163.202
609.3017, 2158.172
609.7838, 2154.852
610.2659, 2152.839
610.7480, 2150.619
611.2302, 2150.581
611.7123, 2162.096
612.1944, 2184.613
612.6765, 2186.065
613.1586, 2122.758
613.6407, 2055.211
614.1229, 2050.304
614.6050, 2093.185
615.0871, 2136.942
615.5692, 2164.192
616.0513, 2176.984
616.5334, 2174.760
617.0156, 2153.319
617.4977, 2151.673
617.9798, 2193.052
618.4619, 2223.492
618.9440, 2209.987
619.4261, 2187.805
619.9083, 2204.573
620.3904, 2268.290
620.8725, 2318.840
621.3546, 2303.208
621.8367, 2262.632
622.3188, 2254.344
622.8010, 2276.524
623.2831, 2303.613
623.7652, 2324.455
624.2473, 2344.956
624.7294, 2377.628
625.2115, 2430.983
625.6937, 2461.801
626.1758, 2453.882
626.6579, 2440.789
627.1400, 2425.135
627.6221, 2413.061
628.1042, 2409.762
628.5864, 2416.283
629.0685, 2438.471
629.5506, 2496.640
630.0327, 2566.937
630.5148, 2602.371
630.9969, 2604.258
631.4791, 2607.622
631.9612, 2629.010
632.4433, 2662.073
632.9254, 2694.895
633.4075, 2726.979
633.8896, 2760.390
634.3718, 2801.870
634.8539, 2837.246
635.3360, 2856.290
635.8181, 2867.942
636.3002, 2887.083
636.7823, 2918.167
637.2645, 2944.934
637.7466, 2948.186
638.2287, 2940.067
638.7108, 2946.562
639.1929, 2968.112
639.6750, 2989.732
640.1572, 3005.473
640.6393, 3013.346
641.1214, 3007.947
641.6035, 2979.637
642.0856, 2965.865
642.5677, 2977.849
643.0499, 2990.914
643.5320, 2987.246
644.0141, 2982.333
644.4962, 3003.426
644.9783, 3058.990
645.4604, 3114.090
645.9426, 3131.500
646.4247, 3132.254
646.9068, 3158.950
647.3889, 3211.890
647.8710, 3266.754
648.3531, 3311.230
648.8353, 3351.520
649.3174, 3398.934
649.7995, 3454.143
650.2816, 3513.625
650.7637, 3589.424
651.2458, 3655.486
651.7280, 3684.659
652.2101, 3706.531
652.6922, 3767.568
653.1743, 3879.574
653.6564, 3989.349
654.1385, 4049.219
654.6207, 4086.473
655.1028, 4148.680
655.5849, 4234.424
656.0670, 4315.272
656.5491, 4378.166
657.0313, 4431.620
657.5134, 4491.713
657.9955, 4567.092
658.4776, 4610.162
658.9597, 4587.271
659.4418, 4570.629
659.9240, 4600.078
660.4061, 4635.429
660.8882, 4622.150
661.3703, 4551.269
661.8524, 4481.315
662.3345, 4458.820
662.8167, 4449.013
663.2988, 4412.773
663.7809, 4349.945
664.2630, 4260.828
664.7451, 4144.856
665.2272, 4023.305
665.7094, 3927.349
666.1915, 3859.776
666.6736, 3782.248
667.1557, 3691.079
667.6378, 3595.442
668.1199, 3487.530
668.6021, 3383.397
669.0842, 3303.162
669.5663, 3246.979
670.0484, 3187.870
670.5305, 3100.596
671.0126, 3017.814
671.4948, 2976.938
671.9769, 2961.832
672.4590, 2934.224
672.9411, 2883.426
673.4232, 2823.252
673.9053, 2767.131
674.3875, 2715.402
674.8696, 2671.532
675.3517, 2639.376
675.8338, 2604.848
676.3159, 2554.613
676.7980, 2509.550
677.2802, 2495.364
677.7623, 2506.823
678.2444, 2502.833
678.7265, 2457.157
679.2086, 2411.887
679.6907, 2391.332
680.1729, 2384.199
680.6550, 2377.034
681.1371, 2366.258
681.6192, 2351.205
682.1013, 2330.944
682.5834, 2306.841
683.0656, 2281.467
683.5477, 2253.750
684.0298, 2232.333
684.5119, 2216.423
684.9940, 2211.798
685.4761, 2232.262
685.9583, 2270.447
686.4404, 2286.968
686.9225, 2263.733
687.4046, 2242.816
687.8867, 2237.269
688.3688, 2235.063
688.8510, 2225.013
689.3331, 2208.586
689.8152, 2192.361
690.2973, 2178.605
690.7794, 2172.560
691.2615, 2192.289
691.7437, 2230.223
692.2258, 2232.376
692.7079, 2187.620
693.1900, 2149.753
693.6721, 2156.307
694.1542, 2189.225
694.6364, 2198.902
695.1185, 2170.987
695.6006, 2147.674
696.0827, 2128.984
696.5648, 2114.924
697.0469, 2107.821
697.5291, 2104.515
698.0112, 2099.640
698.4933, 2091.483
698.9754, 2085.421
699.4575, 2090.854
699.9396, 2098.564
700.4218, 2087.013
700.9039, 2060.323
701.3860, 2049.370
701.8681, 2068.222
702.3502, 2096.055
702.8323, 2101.245
703.3145, 2080.762
703.7966, 2070.685
704.2787, 2080.716
704.7608, 2085.552
705.2429, 2071.852
705.7250, 2053.775
706.2072, 2041.956
706.6893, 2037.465
707.1714, 2042.630
707.6535, 2075.145
708.1356, 2100.503
708.6177, 2081.952
709.0999, 2044.997
709.5820, 2035.004
710.0641, 2058.319
710.5462, 2085.548
711.0283, 2092.585
711.5104, 2084.425
711.9926, 2074.881
712.4747, 2063.070
712.9568, 2058.761
713.4389, 2065.654
713.9210, 2076.779
714.4031, 2086.834
714.8853, 2096.327
715.3674, 2108.013
715.8495, 2127.579
716.3316, 2141.005
716.8137, 2146.266
717.2958, 2144.775
717.7780, 2135.171
718.2601, 2120.005
718.7422, 2102.822
719.2243, 2084.185
719.7064, 2070.875
720.1885, 2069.657
720.6707, 2079.329
721.1528, 2102.615
721.6349, 2138.029
722.1170, 2159.927
722.5991, 2153.262
723.0812, 2135.276
723.5634, 2138.861
724.0455, 2172.123
724.5276, 2187.426
725.0097, 2169.676
725.4918, 2154.729
725.9739, 2159.276
726.4561, 2168.446
726.9382, 2164.659
727.4203, 2146.794
727.9024, 2132.552
728.3845, 2134.462
728.8666, 2136.635
729.3488, 2128.675
729.8309, 2112.586
730.3130, 2085.072
730.7951, 2049.761
731.2772, 2030.283
731.7593, 2050.882
732.2415, 2095.340
732.7236, 2116.086
733.2057, 2111.956
733.6878, 2105.569
734.1699, 2100.642
734.6520, 2095.587
735.1342, 2090.354
735.6163, 2083.944
736.0984, 2071.292
736.5805, 2038.593
737.0626, 2021.135
737.5447, 2025.013
738.0269, 2040.628
738.5090, 2075.789
738.9911, 2114.975
739.4732, 2127.335
739.9553, 2100.850
740.4374, 2070.253
740.9196, 2064.707
741.4017, 2071.585
741.8838, 2074.999
742.3659, 2072.746
742.8480, 2059.715
743.3301, 2033.675
743.8123, 2001.427
744.2944, 1968.950
744.7765, 1936.674
745.2586, 1928.384
745.7407, 1956.738
746.2228, 1974.879
746.7050, 1959.957
747.1871, 1938.988
747.6692, 1944.406
748.1513, 1971.929
748.6334, 1984.659
749.1155, 1962.569
749.5977, 1945.382
750.0798, 1949.766
750.5619, 1961.672
751.0440, 1971.892
751.5261, 1976.915
752.0082, 1971.044
752.4904, 1949.055
752.9725, 1924.652
753.4546, 1917.118
753.9367, 1920.521
754.4188, 1916.717
754.9009, 1904.284
755.3831, 1890.483
755.8652, 1877.848
756.3473, 1871.430
756.8294, 1884.162
757.3115, 1923.606
757.7936, 1938.829
758.2758, 1913.187
758.7579, 1889.689
759.2400, 1887.426
759.7221, 1892.060
760.2042, 1887.025
760.6863, 1872.033
761.1685, 1867.804
761.6506, 1890.032
762.1327, 1911.769
762.6148, 1920.450
763.0969, 1920.574
763.5790, 1914.569
764.0612, 1905.446
764.5433, 1902.034
765.0254, 1912.618
765.5075, 1924.458
765.9896, 1910.832
766.4717, 1880.112
766.9539, 1874.874
767.4360, 1900.747
767.9181, 1920.263
768.4002, 1909.296
768.8823, 1881.136
769.3644, 1865.248
769.8466, 1863.857
770.3287, 1866.463
770.8108, 1871.950
771.2929, 1883.126
771.7750, 1919.793
772.2571, 1951.355
772.7393, 1933.890
773.2214, 1864.059
773.7035, 1813.293
774.1856, 1805.336
774.6677, 1815.609
775.1498, 1839.495
775.6320, 1869.244
776.1141, 1900.919
776.5962, 1930.116
777.0783, 1944.157
777.5604, 1930.267
778.0425, 1908.482
778.5247, 1913.521
779.0068, 1937.608
779.4889, 1948.182
779.9710, 1941.293
780.4531, 1935.024
780.9352, 1941.008
781.4174, 1951.574
781.8995, 1947.879
782.3816, 1922.760
782.8637, 1916.741
783.3458, 1939.271
783.8279, 1965.385
784.3101, 1993.173
784.7922, 2014.855
785.2743, 2017.090
785.7564, 1999.341
786.2385, 1992.029
786.7206, 2011.159
787.2028, 2028.906
787.6849, 2037.922
788.1670, 2036.951
788.6491, 2014.275
789.1312, 1979.107
789.6133, 1967.413
790.0955, 2007.033
790.5776, 2052.275
791.0597, 2045.172
791.5418, 2004.489
792.0239, 1968.391
792.5060, 1942.613
792.9882, 1936.362
793.4703, 1955.964
793.9524, 1983.388
794.4345, 1987.697
794.9166, 1967.697
795.3987, 1954.109
795.8809, 1950.004
796.3630, 1942.270
796.8451, 1919.267
797.3272, 1899.611
797.8093, 1909.357
798.2914, 1948.328
798.7736, 1969.992
799.2557, 1969.498
799.7378, 1958.324
800.2199, 1926.413
800.7020, 1895.051
801.1841, 1877.706
801.6663, 1874.614
802.1484, 1885.628
802.6305, 1915.260
803.1126, 1938.716
803.5947, 1933.597
804.0768, 1916.276
804.5590, 1903.597
805.0411, 1897.111
805.5232, 1898.830
806.0053, 1908.735
806.4874, 1917.443
806.9695, 1913.517
807.4517, 1900.545
807.9338, 1891.714
808.4159, 1886.989
808.8980, 1887.524
809.3801, 1894.485
809.8622, 1903.488
810.3444, 1913.232
810.8265, 1920.771
811.3086, 1911.824
811.7907, 1874.539
812.2728, 1845.823
812.7549, 1827.782
813.2371, 1818.023
813.7192, 1812.336
814.2013, 1815.449
814.6834, 1841.324
815.1655, 1896.138
815.6476, 1929.059
816.1298, 1913.963
816.6119, 1886.997
817.0940, 1853.261
817.5761, 1827.691
818.0582, 1837.702
818.5403, 1877.872
819.0225, 1904.801
819.5046, 1886.708
819.9867, 1856.739
820.4688, 1859.682
820.9509, 1879.534
821.4330, 1873.355
821.9152, 1841.994
822.3973, 1825.574
822.8794, 1846.198
823.3615, 1878.932
823.8436, 1879.865
824.3257, 1850.095
824.8079, 1841.501
825.2900, 1858.739
825.7721, 1873.380
826.2542, 1876.461
826.7363, 1872.975
827.2184, 1867.420
827.7006, 1859.906
828.1827, 1851.689
828.6648, 1833.176
829.1469, 1828.928
829.6290, 1863.692
830.1111, 1889.514
830.5933, 1870.837
831.0754, 1826.138
831.5575, 1790.133
832.0396, 1766.606
832.5217, 1761.047
833.0038, 1788.901
833.4860, 1821.717
833.9681, 1846.308
834.4502, 1859.661
834.9323, 1852.050
835.4144, 1826.643
835.8965, 1810.598
836.3787, 1829.714
836.8608, 1855.870
837.3429, 1845.598
837.8250, 1814.191
838.3071, 1798.152
838.7892, 1802.065
839.2714, 1821.919
839.7535, 1857.649
840.2356, 1888.649
840.7177, 1870.563
841.1998, 1805.181
841.6819, 1768.750
842.1641, 1762.722
842.6462, 1782.053
843.1283, 1836.690
843.6104, 1887.514
844.0925, 1888.917
844.5746, 1845.006
845.0568, 1814.545
845.5389, 1793.906
846.0210, 1793.021
846.5031, 1835.905
846.9852, 1875.077
847.4673, 1886.094
847.9495, 1876.424
848.4316, 1854.069
848.9137, 1810.735
849.3958, 1798.673
849.8779, 1874.007
850.3600, 1935.260
850.8422, 1913.958
851.3243, 1856.737
851.8064, 1816.663
852.2885, 1802.709
852.7706, 1803.252
853.2527, 1819.536
853.7349, 1834.438
854.2170, 1824.206
854.6991, 1806.615
855.1812, 1814.989
855.6633, 1843.879
856.1454, 1861.014
856.6276, 1852.322
857.1097, 1833.555
857.5918, 1823.520
858.0739, 1819.500
858.5560, 1810.048
859.0381, 1795.919
859.5203, 1789.454
860.0024, 1794.541
860.4845, 1798.016
860.9666, 1787.254
861.4487, 1768.201
861.9308, 1764.598
862.4130, 1782.145
862.8951, 1786.313
863.3772, 1765.070
863.8593, 1753.892
864.3414, 1774.945
864.8235, 1810.960
865.3057, 1838.215
865.7878, 1857.415
866.2699, 1861.547
866.7520, 1829.664
867.2341, 1811.847
867.7162, 1830.525
868.1984, 1854.048
868.6805, 1858.745
869.1626, 1849.027
869.6447, 1840.796
870.1268, 1837.395
870.6089, 1835.247
871.0911, 1833.596
871.5732, 1832.275
872.0553, 1829.164
872.5374, 1827.249
873.0195, 1830.501
873.5016, 1839.820
873.9838, 1855.071
874.4659, 1884.588
874.9480, 1908.710
875.4301, 1896.237
875.9122, 1869.546
876.3943, 1872.074
876.8765, 1900.756
877.3586, 1921.444
877.8407, 1917.554
878.3228, 1899.760
878.8049, 1867.702
879.2870, 1834.568
879.7692, 1858.874
880.2513, 1932.415
880.7334, 1977.183
881.2155, 1971.808
881.6976, 1950.480
882.1797, 1941.900
882.6619, 1941.723
883.1440, 1934.997
883.6261, 1920.090
884.1082, 1913.596
884.5903, 1918.192
885.0724, 1926.601
885.5546, 1938.005
886.0367, 1947.507
886.5188, 1947.353
887.0009, 1937.016
887.4830, 1926.366
887.9651, 1905.308
888.4473, 1902.183
888.9294, 1952.627
889.4115, 1990.271
889.8936, 1954.450
890.3757, 1877.203
890.8578, 1834.110
891.3400, 1834.231
891.8221, 1853.104
892.3042, 1908.026
892.7863, 1956.538
893.2684, 1986.290
893.7505, 1996.721
894.2327, 1978.134
894.7148, 1937.762
895.1969, 1913.717
895.6790, 1933.886
896.1611, 1946.480
896.6432, 1905.812
897.1254, 1861.179
897.6075, 1864.974
898.0896, 1900.004
898.5717, 1923.000
899.0538, 1921.814
899.5359, 1918.520
900.0181, 1932.969
900.5002, 1951.189
900.9823, 1952.491
901.4644, 1946.897
901.9465, 1958.685
902.4286, 1985.819
902.9108, 1999.624
903.3929, 1983.606
903.8750, 1960.791
904.3571, 1965.695
904.8392, 1987.573
905.3214, 1992.278
905.8035, 1982.153
906.2856, 1981.342
906.7677, 1996.411
907.2498, 2009.537
907.7319, 2004.707
908.2141, 1988.391
908.6962, 1976.402
909.1783, 1968.750
909.6604, 1974.793
910.1425, 1998.208
910.6246, 2009.480
911.1068, 1991.568
911.5889, 1969.013
912.0710, 1977.542
912.5531, 2014.627
913.0352, 2025.512
913.5173, 1999.528
913.9995, 1982.468
914.4816, 1985.761
914.9637, 1990.110
915.4458, 1982.142
915.9279, 1967.879
916.4100, 1960.230
916.8922, 1959.752
917.3743, 1963.373
917.8564, 1965.123
918.3385, 1979.517
918.8206, 2034.510
919.3027, 2081.948
919.7849, 2078.724
920.2670, 2036.201
920.7491, 1996.417
921.2312, 1952.048
921.7133, 1933.393
922.1954, 1969.386
922.6776, 2003.205
923.1597, 2004.552
923.6418, 1991.308
924.1239, 1987.047
924.6060, 1992.282
925.0881, 1989.678
925.5703, 1966.526
926.0524, 1945.629
926.5345, 1934.300
927.0166, 1930.664
927.4987, 1933.827
927.9808, 1943.367
928.4630, 1963.322
928.9451, 1993.393
929.4272, 2012.750
929.9093, 2006.395
930.3914, 1987.923
930.8735, 1956.105
931.3557, 1925.941
931.8378, 1917.598
932.3199, 1929.385
932.8020, 1952.150
933.2841, 1982.715
933.7662, 2005.353
934.2484, 1998.089
934.7305, 1981.126
935.2126, 1984.531
935.6947, 1998.893
936.1768, 2000.119
936.6589, 1986.663
937.1411, 1975.897
937.6232, 1978.065
938.1053, 1989.177
938.5874, 2009.099
939.0695, 2032.070
939.5516, 2040.892
940.0338, 2039.181
940.5159, 2049.489
940.9980, 2076.570
941.4801, 2095.931
941.9622, 2085.510
942.4443, 2058.750
942.9265, 2043.069
943.4086, 2036.751
943.8907, 2023.295
944.3728, 2003.553
944.8549, 2019.041
945.3370, 2087.917
945.8192, 2165.613
946.3013, 2206.400
946.7834, 2212.231
947.2655, 2181.582
947.7476, 2114.366
948.2297, 2074.953
948.7119, 2072.723
949.1940, 2088.591
949.6761, 2116.549
950.1582, 2142.954
950.6403, 2146.950
951.1224, 2129.552
951.6046, 2105.827
952.0867, 2072.286
952.5688, 2054.156
953.0509, 2057.743
953.5330, 2072.058
954.0151, 2093.486
954.4973, 2115.800
954.9794, 2126.533
955.4615, 2125.424
955.9436, 2113.255
956.4257, 2081.543
956.9078, 2063.652
957.3900, 2073.682
957.8721, 2087.473
958.3542, 2087.360
958.8363, 2076.805
959.3184, 2065.988
959.8005, 2055.414
960.2827, 2041.833
960.7648, 2014.582
961.2469, 2004.357
961.7290, 2032.228
962.2111, 2066.213
962.6932, 2077.085
963.1754, 2069.812
963.6575, 2067.778
964.1396, 2076.733
964.6217, 2078.949
965.1038, 2062.212
965.5859, 2054.706
966.0681, 2077.574
966.5502, 2105.501
967.0323, 2108.115
967.5144, 2089.892
967.9965, 2087.380
968.4786, 2102.258
968.9608, 2131.793
969.4429, 2198.574
969.9250, 2253.423
970.4071, 2268.923
970.8892, 2265.418
971.3713, 2262.355
971.8535, 2261.711
972.3356, 2274.461
972.8177, 2320.962
973.2998, 2352.737
973.7819, 2346.676
974.2640, 2340.895
974.7462, 2352.372
975.2283, 2379.181
975.7104, 2423.024
976.1925, 2482.967
976.6746, 2531.039
977.1567, 2545.915
977.6389, 2570.202
978.1210, 2626.700
978.6031, 2683.955
979.0852, 2711.344
979.5673, 2729.029
980.0494, 2771.707
980.5316, 2844.343
981.0137, 2927.564
981.4958, 3033.639
981.9779, 3125.975
982.4600, 3180.740
982.9421, 3228.452
983.4243, 3287.703
983.9064, 3359.520
984.3885, 3447.276
984.8706, 3553.119
985.3527, 3645.348
985.8348, 3705.265
986.3170, 3760.526
986.7991, 3832.403
987.2812, 3896.659
987.7633, 3916.890
988.2454, 3915.824
988.7275, 3952.065
989.2097, 4042.449
989.6918, 4109.711
990.1739, 4121.550
990.6560, 4105.533
991.1381, 4053.634
991.6202, 3998.607
992.1024, 3982.053
992.5845, 3985.968
993.0666, 3960.715
993.5487, 3892.389
994.0308, 3813.723
994.5129, 3735.866
994.9951, 3654.909
995.4772, 3567.733
995.9593, 3476.892
996.4414, 3375.106
996.9235, 3272.620
997.4056, 3197.910
997.8878, 3163.081
998.3699, 3118.677
998.8520, 3041.704
999.3341, 2949.753
999.8162, 2829.312
1000.298, 2717.471
1000.780, 2661.022
1001.263, 2646.440
1001.745, 2627.705
1002.227, 2591.059
1002.709, 2554.014
1003.191, 2530.099
1003.673, 2501.504
1004.155, 2446.030
1004.637, 2389.074
1005.120, 2364.173
1005.602, 2361.844
1006.084, 2344.267
1006.566, 2296.711
1007.048, 2259.605
1007.530, 2263.790
1008.012, 2268.683
1008.494, 2250.373
1008.976, 2220.142
1009.459, 2188.321
1009.941, 2156.607
1010.423, 2123.655
1010.905, 2087.643
1011.387, 2059.059
1011.869, 2053.071
1012.351, 2043.091
1012.833, 1996.931
1013.315, 1952.634
1013.798, 1963.834
1014.280, 2010.268
1014.762, 2022.521
1015.244, 1976.616
1015.726, 1937.462
1016.208, 1931.353
1016.690, 1936.932
1017.172, 1956.951
1017.655, 1971.967
1018.137, 1957.492
1018.619, 1922.966
1019.101, 1894.259
1019.583, 1875.073
1020.065, 1875.452
1020.547, 1935.130
1021.029, 1969.568
1021.511, 1909.962
1021.994, 1833.515
1022.476, 1812.153
1022.958, 1832.284
1023.440, 1848.470
1023.922, 1852.584
1024.404, 1850.509
1024.886, 1841.055
1025.368, 1829.361
1025.851, 1807.415
1026.333, 1793.192
1026.815, 1817.024
1027.297, 1855.766
1027.779, 1848.652
1028.261, 1775.961
1028.743, 1740.025
1029.225, 1797.026
1029.708, 1844.644
1030.190, 1845.027
1030.672, 1832.740
1031.154, 1830.360
1031.636, 1835.216
1032.118, 1844.180
1032.600, 1860.540
1033.082, 1850.203
1033.564, 1769.851
1034.047, 1718.423
1034.529, 1740.800
1035.011, 1772.246
1035.493, 1769.796
1035.975, 1750.231
1036.457, 1744.377
1036.939, 1754.463
1037.421, 1764.808
1037.903, 1772.686
1038.386, 1784.444
1038.868, 1814.878
1039.350, 1832.484
1039.832, 1805.066
1040.314, 1765.554
1040.796, 1768.144
1041.278, 1814.155
1041.760, 1834.863
1042.243, 1813.573
1042.725, 1799.874
1043.207, 1804.410
1043.689, 1805.982
1044.171, 1792.260
1044.653, 1773.393
1045.135, 1763.248
1045.617, 1760.804
1046.099, 1752.187
1046.582, 1731.469
1047.064, 1722.086
1047.546, 1728.151
1048.028, 1739.776
1048.510, 1755.902
1048.992, 1770.377
1049.474, 1776.597
1049.956, 1775.066
1050.438, 1765.717
1050.921, 1744.225
1051.403, 1743.425
1051.885, 1772.061
1052.367, 1784.074
1052.849, 1759.267
1053.331, 1731.223
1053.813, 1731.787
1054.295, 1751.552
1054.778, 1763.788
1055.260, 1768.506
1055.742, 1765.701
1056.224, 1754.938
1056.706, 1746.819
1057.188, 1744.704
1057.670, 1737.732
1058.152, 1716.229
1058.635, 1690.868
1059.117, 1685.660
1059.599, 1696.870
1060.081, 1699.727
1060.563, 1694.753
1061.045, 1688.014
1061.527, 1681.141
1062.009, 1677.169
1062.491, 1677.938
1062.974, 1681.945
1063.456, 1688.356
1063.938, 1695.891
1064.420, 1702.970
1064.902, 1708.017
1065.384, 1703.175
1065.866, 1689.894
1066.348, 1683.022
1066.830, 1689.098
1067.313, 1692.853
1067.795, 1673.867
1068.277, 1648.188
1068.759, 1638.851
1069.241, 1640.289
1069.723, 1643.515
1070.205, 1647.620
1070.687, 1657.357
1071.170, 1672.730
1071.652, 1676.524
1072.134, 1643.943
1072.616, 1614.621
1073.098, 1638.178
1073.580, 1673.039
1074.062, 1665.482
1074.544, 1634.933
1075.026, 1626.995
1075.509, 1647.023
1075.991, 1660.449
1076.473, 1648.414
1076.955, 1634.524
1077.437, 1635.144
1077.919, 1633.747
1078.401, 1608.781
1078.883, 1581.383
1079.365, 1584.869
1079.848, 1613.232
1080.330, 1625.850
1080.812, 1607.747
1081.294, 1591.525
1081.776, 1580.976
1082.258, 1578.670
1082.740, 1596.716
1083.222, 1613.638
1083.704, 1609.577
1084.187, 1589.887
1084.669, 1568.491
1085.151, 1542.344
1085.633, 1530.954
1086.115, 1546.910
1086.597, 1556.844
1087.079, 1549.613
1087.561, 1544.160
1088.044, 1557.791
1088.526, 1573.137
1089.008, 1558.279
1089.490, 1513.946
1089.972, 1493.390
1090.454, 1501.463
1090.936, 1516.484
1091.418, 1539.352
1091.901, 1557.884
1092.383, 1567.012
1092.865, 1569.137
1093.347, 1566.441
1093.829, 1559.598
1094.311, 1548.941
1094.793, 1534.746
1095.275, 1531.477
1095.757, 1539.675
1096.240, 1556.229
1096.722, 1580.014
1097.204, 1588.866
1097.686, 1564.515
1098.168, 1524.902
1098.650, 1497.271
1099.132, 1479.393
1099.614, 1462.473
1100.096, 1449.449
1100.579, 1454.026
1101.061, 1475.097
1101.543, 1496.443
1102.025, 1510.235
1102.507, 1516.508
1102.989, 1506.923
1103.471, 1497.662
1103.953, 1520.919
1104.436, 1549.036
1104.918, 1534.670
1105.400, 1490.760
1105.882, 1456.368
1106.364, 1442.281
1106.846, 1441.641
1107.328, 1458.709
1107.810, 1475.454
1108.292, 1481.797
1108.775, 1484.071
1109.257, 1483.881
1109.739, 1484.721
1110.221, 1495.495
1110.703, 1512.638
1111.185, 1513.172
1111.667, 1479.808
1112.149, 1462.101
1112.631, 1479.175
1113.114, 1498.426
1113.596, 1516.983
1114.078, 1525.629
1114.560, 1511.229
1115.042, 1484.570
1115.524, 1469.650
1116.006, 1466.712
1116.488, 1475.117
1116.971, 1503.726
1117.453, 1516.788
1117.935, 1503.495
1118.417, 1491.242
1118.899, 1495.330
1119.381, 1502.161
1119.863, 1493.710
1120.345, 1473.755
1120.828, 1457.775
1121.310, 1445.999
1121.792, 1448.949
1122.274, 1466.316
1122.756, 1467.454
1123.238, 1443.825
1123.720, 1429.225
1124.202, 1450.372
1124.684, 1487.123
1125.167, 1516.058
1125.649, 1532.824
1126.131, 1514.606
1126.613, 1479.615
1127.095, 1480.922
1127.577, 1515.189
1128.059, 1534.551
1128.541, 1519.550
1129.023, 1495.230
1129.506, 1475.277
1129.988, 1460.266
1130.470, 1451.393
1130.952, 1447.075
1131.434, 1446.125
1131.916, 1448.263
1132.398, 1457.828
1132.880, 1472.712
1133.363, 1471.275
1133.845, 1424.352
1134.327, 1404.805
1134.809, 1465.442
1135.291, 1513.421
1135.773, 1500.838
1136.255, 1463.421
1136.737, 1424.481
1137.219, 1390.768
1137.702, 1381.827
1138.184, 1403.486
1138.666, 1417.231
1139.148, 1424.218
1139.630, 1417.649
1140.112, 1389.773
1140.594, 1370.792
1141.076, 1379.214
1141.558, 1395.154
1142.041, 1391.319
1142.523, 1400.809
1143.005, 1408.801
1143.487, 1407.251
1143.969, 1421.243
1144.451, 1422.570
1144.933, 1421.354
1145.415, 1420.343
1145.898, 1415.776
1146.380, 1404.903
1146.862, 1390.536
1147.344, 1363.841
1147.826, 1345.446
1148.308, 1386.821
1148.790, 1449.097
1149.272, 1456.657
1149.755, 1420.333
1150.237, 1400.611
1150.719, 1415.321
1151.201, 1426.835
1151.683, 1405.572
1152.165, 1389.718
1152.647, 1409.151
1153.129, 1427.565
1153.611, 1408.842
1154.094, 1381.437
1154.576, 1388.590
1155.058, 1424.549
1155.540, 1442.264
1156.022, 1429.204
1156.504, 1421.520
1156.986, 1422.686
1157.468, 1422.941
1157.950, 1422.825
1158.433, 1414.451
1158.915, 1387.778
1159.397, 1360.818
1159.879, 1364.782
1160.361, 1393.915
1160.843, 1406.769
1161.325, 1403.828
1161.807, 1401.231
1162.290, 1400.240
1162.772, 1395.428
1163.254, 1385.574
1163.736, 1382.446
1164.218, 1396.561
1164.700, 1412.241
1165.182, 1408.838
1165.664, 1392.467
1166.146, 1362.632
1166.629, 1332.839
1167.111, 1329.103
1167.593, 1347.899
1168.075, 1373.525
1168.557, 1400.377
1169.039, 1411.429
1169.521, 1375.844
1170.003, 1353.797
1170.485, 1390.946
1170.968, 1427.955
1171.450, 1417.883
1171.932, 1391.695
1172.414, 1395.544
1172.896, 1377.387
1173.378, 1355.066
1173.860, 1354.268
1174.342, 1317.312
1174.825, 1302.900
1175.307, 1305.740
1175.789, 1329.892
1176.271, 1355.892
1176.753, 1374.502
1177.235, 1383.957
1177.717, 1379.329
1178.199, 1390.556
1178.682, 1392.968
1179.164, 1393.106
1179.646, 1399.191
1180.128, 1392.508
1180.610, 1388.839
1181.092, 1390.423
1181.574, 1381.400
1182.056, 1350.999
1182.538, 1324.500
1183.021, 1331.415
1183.503, 1346.991
1183.985, 1348.747
1184.467, 1344.357
1184.949, 1340.392
1185.431, 1338.928
1185.913, 1344.773
1186.395, 1357.233
1186.877, 1360.237
1187.360, 1333.431
1187.842, 1326.942
1188.324, 1373.825
1188.806, 1404.507
1189.288, 1385.666
1189.770, 1363.523
1190.252, 1378.257
1190.734, 1348.788
1191.217, 1385.959
1191.699, 1327.333
1192.181, 1307.539
1192.663, 1327.156
1193.145, 1330.377
1193.627, 1312.422
1194.109, 1304.694
1194.591, 1317.335
1195.073, 1326.924
1195.556, 1313.223
1196.038, 1299.625
1196.520, 1322.364
1197.002, 1359.945
1197.484, 1392.681
1197.966, 1411.472
1198.448, 1392.260
1198.930, 1350.548
1199.412, 1333.203
1199.895, 1350.380
1200.377, 1357.892
1200.859, 1326.599
1201.341, 1303.653
1201.823, 1297.626
1202.305, 1306.667
1202.787, 1353.662
1203.269, 1391.461
1203.752, 1371.582
1204.234, 1320.909
1204.716, 1305.083
1205.198, 1325.041
1205.680, 1337.900
1206.162, 1342.896
1206.644, 1351.779
1207.126, 1366.050
1207.609, 1373.393
1208.091, 1369.315
1208.573, 1360.062
1209.055, 1349.584
1209.537, 1342.154
1210.019, 1348.817
1210.501, 1358.652
1210.983, 1350.121
1211.465, 1335.211
1211.948, 1333.366
1212.430, 1344.651
1212.912, 1367.845
1213.394, 1401.214
1213.876, 1409.167
1214.358, 1348.425
1214.840, 1307.795
1215.322, 1329.559
1215.804, 1348.915
1216.287, 1334.610
1216.769, 1310.909
1217.251, 1293.999
1217.733, 1284.329
1218.215, 1283.116
1218.697, 1290.293
1219.179, 1308.737
1219.661, 1338.994
1220.144, 1338.627
1220.626, 1306.153
1221.108, 1307.335
1221.590, 1360.978
1222.072, 1402.899
1222.554, 1383.621
1223.036, 1345.584
1223.518, 1333.008
1224.000, 1334.994
1224.483, 1347.898
1224.965, 1359.809
1225.447, 1351.139
1225.929, 1330.422
1226.411, 1315.706
1226.893, 1310.887
1227.375, 1320.674
1227.857, 1365.447
1228.339, 1389.296
1228.822, 1375.966
1229.304, 1359.076
1229.786, 1344.559
1230.268, 1332.905
1230.750, 1323.271
1231.232, 1319.828
1231.714, 1332.715
1232.196, 1321.115
1232.679, 1347.607
1233.161, 1318.154
1233.643, 1311.186
1234.125, 1322.542
1234.607, 1311.610
1235.089, 1275.800
1235.571, 1261.350
1236.053, 1293.304
1236.536, 1326.050
1237.018, 1318.826
1237.500, 1307.882
1237.982, 1322.441
1238.464, 1338.936
1238.946, 1331.954
1239.428, 1345.239
1239.910, 1325.110
1240.392, 1349.423
1240.875, 1358.347
1241.357, 1349.028
1241.839, 1335.911
1242.321, 1315.759
1242.803, 1307.164
1243.285, 1314.872
1243.767, 1318.370
1244.249, 1308.078
1244.731, 1301.510
1245.214, 1318.313
1245.696, 1339.151
1246.178, 1324.598
1246.660, 1297.379
1247.142, 1298.297
1247.624, 1315.915
1248.106, 1332.753
1248.588, 1343.800
1249.071, 1343.070
1249.553, 1329.817
1250.035, 1319.026
1250.517, 1313.192
1250.999, 1313.905
1251.481, 1334.154
1251.963, 1341.854
1252.445, 1317.787
1252.927, 1296.218
1253.410, 1304.218
1253.892, 1321.225
1254.374, 1312.507
1254.856, 1284.841
1255.338, 1266.365
1255.820, 1258.544
1256.302, 1279.497
1256.784, 1320.312
1257.266, 1339.096
1257.749, 1330.515
1258.231, 1320.072
1258.713, 1319.255
##END=



