##NAMES=Ferroericssonite
##RRUFFID=R070406
##IDEAL CHEMISTRY=BaFe^2+^_2_Fe^3+^(Si_2_O_7_)O(OH)
##LOCALITY=Big Creek, Fresno County, California, USA
##OWNER=RRUFF
##SOURCE=Michael Scott
##DESCRIPTION=Dark reddish brown platy crystals, associated with dark brown titantaramellite, prismatic pale-green ferro-actinolite, quartz, and devitoite, R120091.
##STATUS=The identification of this mineral has been confirmed by single-crystal X-ray diffraction.
##URL=rruff.info/R070406
148.6976, 870.0856
149.1797, 872.6267
149.6618, 874.9033
150.1439, 881.4408
150.6261, 898.7054
151.1082, 914.3525
151.5903, 923.9033
152.0724, 921.5225
152.5545, 925.9365
153.0366, 944.2614
153.5188, 970.0577
154.0009, 990.5801
154.4830, 1001.925
154.9651, 1009.397
155.4472, 1015.646
155.9293, 1023.276
156.4115, 1026.326
156.8936, 1019.022
157.3757, 1005.036
157.8578, 996.9666
158.3399, 1003.141
158.8221, 1013.703
159.3042, 1022.282
159.7863, 1026.531
160.2684, 1029.389
160.7505, 1029.749
161.2326, 1028.342
161.7148, 1030.855
162.1969, 1045.045
162.6790, 1062.298
163.1611, 1074.130
163.6432, 1075.322
164.1253, 1072.480
164.6075, 1065.917
165.0896, 1055.532
165.5717, 1051.094
166.0538, 1062.688
166.5359, 1082.893
167.0180, 1101.067
167.5002, 1112.657
167.9823, 1120.813
168.4644, 1127.153
168.9465, 1131.488
169.4286, 1136.147
169.9107, 1142.294
170.3929, 1149.969
170.8750, 1159.427
171.3571, 1173.029
171.8392, 1187.409
172.3213, 1198.394
172.8034, 1204.498
173.2856, 1210.013
173.7677, 1219.549
174.2498, 1232.065
174.7319, 1243.809
175.2140, 1251.005
175.6961, 1256.354
176.1783, 1264.040
176.6604, 1275.090
177.1425, 1288.031
177.6246, 1302.209
178.1067, 1317.171
178.5888, 1330.934
179.0710, 1339.502
179.5531, 1345.605
180.0352, 1355.316
180.5173, 1370.707
180.9994, 1389.645
181.4815, 1409.885
181.9637, 1431.490
182.4458, 1450.853
182.9279, 1462.578
183.4100, 1468.964
183.8921, 1479.258
184.3742, 1499.036
184.8564, 1523.157
185.3385, 1538.459
185.8206, 1544.618
186.3027, 1547.464
186.7848, 1550.731
187.2669, 1554.905
187.7491, 1563.545
188.2312, 1576.755
188.7133, 1595.242
189.1954, 1628.071
189.6775, 1679.258
190.1596, 1725.735
190.6418, 1732.931
191.1239, 1701.778
191.6060, 1673.322
192.0881, 1666.310
192.5702, 1678.151
193.0524, 1685.325
193.5345, 1686.240
194.0166, 1686.560
194.4987, 1697.409
194.9808, 1719.714
195.4629, 1738.600
195.9451, 1744.721
196.4272, 1738.471
196.9093, 1736.182
197.3914, 1738.950
197.8735, 1744.761
198.3556, 1749.977
198.8378, 1754.445
199.3199, 1759.158
199.8020, 1765.549
200.2841, 1773.905
200.7662, 1778.706
201.2483, 1779.145
201.7305, 1776.306
202.2126, 1772.132
202.6947, 1766.009
203.1768, 1760.849
203.6589, 1759.394
204.1410, 1762.590
204.6232, 1762.709
205.1053, 1758.389
205.5874, 1750.854
206.0695, 1743.729
206.5516, 1736.610
207.0337, 1730.962
207.5159, 1729.840
207.9980, 1735.938
208.4801, 1733.487
208.9622, 1718.619
209.4443, 1693.768
209.9264, 1669.408
210.4086, 1643.171
210.8907, 1622.129
211.3728, 1613.860
211.8549, 1622.852
212.3370, 1629.565
212.8191, 1633.375
213.3013, 1633.278
213.7834, 1618.055
214.2655, 1579.139
214.7476, 1538.760
215.2297, 1518.056
215.7118, 1524.507
216.1940, 1529.218
216.6761, 1525.967
217.1582, 1515.289
217.6403, 1510.506
218.1224, 1516.061
218.6045, 1521.658
219.0867, 1516.273
219.5688, 1494.658
220.0509, 1474.406
220.5330, 1458.992
221.0151, 1448.231
221.4972, 1441.863
221.9794, 1442.531
222.4615, 1444.582
222.9436, 1441.032
223.4257, 1427.089
223.9078, 1417.523
224.3899, 1417.040
224.8721, 1426.557
225.3542, 1433.058
225.8363, 1436.228
226.3184, 1436.747
226.8005, 1435.066
227.2827, 1429.732
227.7648, 1425.031
228.2469, 1422.494
228.7290, 1422.677
229.2111, 1420.612
229.6932, 1414.972
230.1754, 1408.188
230.6575, 1403.233
231.1396, 1400.139
231.6217, 1398.976
232.1038, 1400.514
232.5859, 1405.765
233.0681, 1408.159
233.5502, 1406.607
234.0323, 1402.990
234.5144, 1399.730
234.9965, 1396.054
235.4786, 1394.157
235.9608, 1395.497
236.4429, 1401.458
236.9250, 1403.998
237.4071, 1401.597
237.8892, 1396.689
238.3713, 1393.085
238.8535, 1391.327
239.3356, 1390.020
239.8177, 1389.366
240.2998, 1390.575
240.7819, 1387.337
241.2640, 1376.912
241.7462, 1363.584
242.2283, 1355.002
242.7104, 1354.235
243.1925, 1353.146
243.6746, 1348.619
244.1567, 1338.895
244.6389, 1331.649
245.1210, 1327.196
245.6031, 1325.025
246.0852, 1324.396
246.5673, 1325.653
247.0494, 1327.883
247.5316, 1331.022
248.0137, 1335.622
248.4958, 1339.145
248.9779, 1340.764
249.4600, 1341.756
249.9421, 1345.174
250.4243, 1354.427
250.9064, 1360.080
251.3885, 1358.614
251.8706, 1348.952
252.3527, 1334.313
252.8348, 1309.197
253.3170, 1282.519
253.7991, 1272.729
254.2812, 1287.205
254.7633, 1304.618
255.2454, 1317.167
255.7275, 1323.227
256.2097, 1330.563
256.6918, 1341.562
257.1739, 1352.123
257.6560, 1353.614
258.1381, 1341.501
258.6202, 1329.646
259.1024, 1323.422
259.5845, 1324.288
260.0666, 1324.604
260.5487, 1322.792
261.0308, 1321.642
261.5129, 1327.588
261.9951, 1344.419
262.4772, 1359.183
262.9593, 1366.844
263.4414, 1366.777
263.9235, 1362.148
264.4056, 1350.701
264.8878, 1336.735
265.3699, 1328.142
265.8520, 1326.830
266.3341, 1325.251
266.8162, 1320.546
267.2983, 1312.481
267.7805, 1302.328
268.2626, 1288.298
268.7447, 1274.281
269.2268, 1268.646
269.7089, 1274.452
270.1910, 1277.642
270.6732, 1271.024
271.1553, 1253.060
271.6374, 1240.432
272.1195, 1233.273
272.6016, 1231.248
273.0837, 1235.275
273.5659, 1246.569
274.0480, 1257.820
274.5301, 1267.903
275.0122, 1276.969
275.4943, 1276.345
275.9764, 1262.513
276.4586, 1245.608
276.9407, 1242.172
277.4228, 1253.746
277.9049, 1265.625
278.3870, 1272.313
278.8691, 1273.982
279.3513, 1274.369
279.8334, 1273.225
280.3155, 1271.439
280.7976, 1269.215
281.2798, 1266.420
281.7619, 1266.730
282.2440, 1272.957
282.7261, 1284.117
283.2082, 1292.458
283.6903, 1297.526
284.1725, 1301.450
284.6546, 1307.077
285.1367, 1314.276
285.6188, 1320.943
286.1009, 1327.416
286.5830, 1332.854
287.0652, 1331.696
287.5473, 1322.788
288.0294, 1314.242
288.5115, 1317.892
288.9936, 1331.963
289.4757, 1341.532
289.9579, 1339.613
290.4400, 1330.164
290.9221, 1323.000
291.4042, 1318.046
291.8863, 1316.345
292.3684, 1322.141
292.8506, 1333.162
293.3327, 1339.283
293.8148, 1333.643
294.2969, 1323.294
294.7790, 1322.565
295.2611, 1331.492
295.7433, 1343.345
296.2254, 1355.116
296.7075, 1365.614
297.1896, 1371.169
297.6717, 1370.377
298.1538, 1364.616
298.6360, 1352.745
299.1181, 1335.436
299.6002, 1321.922
300.0823, 1322.690
300.5644, 1331.776
301.0465, 1337.596
301.5287, 1335.168
302.0108, 1330.697
302.4929, 1332.436
302.9750, 1339.185
303.4571, 1343.972
303.9392, 1341.573
304.4214, 1334.576
304.9035, 1325.809
305.3856, 1314.237
305.8677, 1304.141
306.3498, 1300.735
306.8319, 1302.520
307.3141, 1304.154
307.7962, 1303.448
308.2783, 1300.618
308.7604, 1294.665
309.2425, 1282.445
309.7246, 1273.852
310.2068, 1280.784
310.6889, 1296.983
311.1710, 1306.295
311.6531, 1291.727
312.1352, 1272.909
312.6173, 1266.213
313.0995, 1279.412
313.5816, 1289.838
314.0637, 1281.929
314.5458, 1264.178
315.0279, 1252.528
315.5100, 1261.909
315.9922, 1272.349
316.4743, 1270.429
316.9564, 1249.766
317.4385, 1236.865
317.9206, 1249.148
318.4027, 1272.459
318.8849, 1287.018
319.3670, 1282.508
319.8491, 1272.755
320.3312, 1260.712
320.8133, 1245.342
321.2954, 1235.467
321.7776, 1238.546
322.2597, 1245.659
322.7418, 1247.300
323.2239, 1232.261
323.7060, 1221.450
324.1881, 1221.436
324.6703, 1233.381
325.1524, 1243.566
325.6345, 1252.183
326.1166, 1257.980
326.5987, 1259.996
327.0808, 1254.839
327.5630, 1249.852
328.0451, 1244.523
328.5272, 1239.080
329.0093, 1238.779
329.4914, 1247.176
329.9735, 1257.465
330.4557, 1265.449
330.9378, 1271.535
331.4199, 1274.533
331.9020, 1273.758
332.3841, 1269.746
332.8662, 1264.702
333.3484, 1257.185
333.8305, 1250.894
334.3126, 1247.504
334.7947, 1246.683
335.2768, 1250.581
335.7589, 1262.169
336.2411, 1276.943
336.7232, 1282.568
337.2053, 1275.785
337.6874, 1269.247
338.1695, 1269.187
338.6516, 1276.313
339.1338, 1284.455
339.6159, 1294.672
340.0980, 1303.930
340.5801, 1304.525
341.0622, 1295.088
341.5443, 1289.962
342.0265, 1299.654
342.5086, 1321.391
342.9907, 1327.231
343.4728, 1314.234
343.9549, 1296.672
344.4370, 1292.845
344.9192, 1301.484
345.4013, 1310.555
345.8834, 1315.723
346.3655, 1318.267
346.8476, 1319.810
347.3297, 1320.178
347.8119, 1323.876
348.2940, 1338.972
348.7761, 1361.355
349.2582, 1378.012
349.7403, 1382.876
350.2225, 1383.208
350.7046, 1389.645
351.1867, 1401.557
351.6688, 1413.648
352.1509, 1422.687
352.6331, 1429.345
353.1152, 1434.587
353.5973, 1438.572
354.0794, 1441.298
354.5615, 1446.154
355.0436, 1450.477
355.5258, 1446.165
356.0079, 1415.979
356.4900, 1382.299
356.9721, 1367.280
357.4542, 1380.043
357.9363, 1392.059
358.4185, 1384.986
358.9006, 1366.590
359.3827, 1350.307
359.8648, 1336.426
360.3469, 1329.927
360.8290, 1337.297
361.3112, 1361.778
361.7933, 1379.991
362.2754, 1380.802
362.7575, 1373.063
363.2396, 1366.367
363.7217, 1358.622
364.2039, 1356.458
364.6860, 1365.572
365.1681, 1386.143
365.6502, 1399.140
366.1323, 1394.252
366.6144, 1386.164
367.0966, 1385.021
367.5787, 1399.315
368.0608, 1410.464
368.5429, 1413.957
369.0250, 1412.359
369.5071, 1419.153
369.9893, 1441.624
370.4714, 1463.954
370.9535, 1477.729
371.4356, 1476.454
371.9177, 1481.777
372.3998, 1498.244
372.8820, 1519.315
373.3641, 1528.584
373.8462, 1520.366
374.3283, 1515.138
374.8104, 1523.144
375.2925, 1546.211
375.7747, 1560.455
376.2568, 1562.962
376.7389, 1562.658
377.2210, 1571.645
377.7031, 1590.391
378.1852, 1611.833
378.6674, 1635.397
379.1495, 1659.871
379.6316, 1680.895
380.1137, 1698.132
380.5958, 1713.372
381.0779, 1728.622
381.5601, 1743.467
382.0422, 1754.046
382.5243, 1757.337
383.0064, 1759.109
383.4885, 1769.798
383.9706, 1788.579
384.4528, 1808.590
384.9349, 1828.233
385.4170, 1845.422
385.8991, 1855.859
386.3812, 1857.071
386.8633, 1857.815
387.3455, 1870.472
387.8276, 1889.125
388.3097, 1900.383
388.7918, 1891.746
389.2739, 1876.514
389.7560, 1863.166
390.2382, 1851.961
390.7203, 1847.503
391.2024, 1861.804
391.6845, 1880.983
392.1666, 1889.182
392.6487, 1881.194
393.1309, 1860.986
393.6130, 1823.013
394.0951, 1769.451
394.5772, 1725.058
395.0593, 1699.198
395.5414, 1682.477
396.0236, 1669.339
396.5057, 1667.692
396.9878, 1659.230
397.4699, 1638.655
397.9520, 1609.569
398.4341, 1583.481
398.9163, 1560.922
399.3984, 1540.849
399.8805, 1523.025
400.3626, 1507.781
400.8447, 1493.639
401.3268, 1479.369
401.8090, 1467.129
402.2911, 1461.132
402.7732, 1465.588
403.2553, 1465.210
403.7374, 1454.186
404.2195, 1433.317
404.7017, 1418.059
405.1838, 1410.177
405.6659, 1402.994
406.1480, 1387.898
406.6301, 1364.580
407.1122, 1349.748
407.5944, 1348.363
408.0765, 1355.152
408.5586, 1358.100
409.0407, 1357.283
409.5228, 1355.575
410.0049, 1355.876
410.4871, 1356.793
410.9692, 1353.379
411.4513, 1344.087
411.9334, 1334.652
412.4155, 1331.429
412.8976, 1333.299
413.3798, 1337.034
413.8619, 1344.446
414.3440, 1351.100
414.8261, 1350.950
415.3082, 1343.924
415.7903, 1337.608
416.2725, 1337.867
416.7546, 1341.206
417.2367, 1343.633
417.7188, 1341.772
418.2009, 1341.050
418.6830, 1346.473
419.1652, 1355.787
419.6473, 1360.515
420.1294, 1351.668
420.6115, 1342.074
421.0937, 1339.345
421.5758, 1349.284
422.0579, 1355.821
422.5400, 1355.310
423.0221, 1350.511
423.5042, 1345.856
423.9864, 1339.209
424.4685, 1335.347
424.9506, 1335.931
425.4327, 1341.316
425.9148, 1346.888
426.3969, 1354.519
426.8791, 1360.212
427.3612, 1359.026
427.8433, 1346.997
428.3254, 1341.198
428.8075, 1346.728
429.2896, 1359.060
429.7718, 1360.860
430.2539, 1349.806
430.7360, 1340.546
431.2181, 1344.118
431.7002, 1359.369
432.1823, 1369.125
432.6645, 1371.948
433.1466, 1371.242
433.6287, 1371.627
434.1108, 1372.639
434.5929, 1371.780
435.0750, 1364.711
435.5572, 1356.570
436.0393, 1358.476
436.5214, 1369.946
437.0035, 1380.737
437.4856, 1378.622
437.9677, 1372.007
438.4499, 1373.353
438.9320, 1389.953
439.4141, 1408.192
439.8962, 1419.099
440.3783, 1424.105
440.8604, 1427.225
441.3426, 1424.680
441.8247, 1424.886
442.3068, 1433.811
442.7889, 1453.968
443.2710, 1473.798
443.7531, 1491.541
444.2353, 1506.830
444.7174, 1519.567
445.1995, 1522.073
445.6816, 1530.210
446.1637, 1547.822
446.6458, 1574.051
447.1280, 1602.146
447.6101, 1632.016
448.0922, 1663.992
448.5743, 1697.559
449.0564, 1731.760
449.5385, 1771.793
450.0207, 1820.380
450.5028, 1872.319
450.9849, 1914.885
451.4670, 1944.253
451.9491, 1981.788
452.4312, 2038.220
452.9134, 2110.919
453.3955, 2181.153
453.8776, 2248.345
454.3597, 2315.409
454.8418, 2381.344
455.3239, 2448.365
455.8061, 2523.404
456.2882, 2610.797
456.7703, 2704.128
457.2524, 2797.458
457.7345, 2889.656
458.2166, 2978.375
458.6988, 3060.587
459.1809, 3138.546
459.6630, 3211.410
460.1451, 3278.759
460.6272, 3349.305
461.1093, 3441.915
461.5915, 3536.607
462.0736, 3606.543
462.5557, 3635.296
463.0378, 3645.417
463.5199, 3648.648
464.0020, 3642.628
464.4842, 3608.299
464.9663, 3532.601
465.4484, 3434.275
465.9305, 3321.503
466.4126, 3181.405
466.8947, 3047.937
467.3769, 2922.441
467.8590, 2803.479
468.3411, 2685.767
468.8232, 2563.722
469.3053, 2455.370
469.7874, 2365.739
470.2696, 2294.254
470.7517, 2231.795
471.2338, 2180.301
471.7159, 2132.334
472.1980, 2080.233
472.6801, 2024.101
473.1623, 1978.122
473.6444, 1946.152
474.1265, 1920.763
474.6086, 1888.077
475.0907, 1849.583
475.5728, 1814.910
476.0550, 1789.080
476.5371, 1770.259
477.0192, 1758.433
477.5013, 1753.656
477.9834, 1746.733
478.4655, 1732.242
478.9477, 1710.736
479.4298, 1682.265
479.9119, 1634.885
480.3940, 1595.221
480.8761, 1584.150
481.3582, 1592.860
481.8404, 1596.236
482.3225, 1577.980
482.8046, 1559.237
483.2867, 1550.627
483.7688, 1556.887
484.2509, 1559.946
484.7331, 1554.556
485.2152, 1547.229
485.6973, 1544.450
486.1794, 1552.378
486.6615, 1554.051
487.1436, 1545.078
487.6258, 1527.955
488.1079, 1514.267
488.5900, 1504.526
489.0721, 1497.061
489.5542, 1491.490
490.0363, 1487.804
490.5185, 1483.476
491.0006, 1477.944
491.4827, 1473.560
491.9648, 1475.359
492.4470, 1481.920
492.9291, 1485.424
493.4112, 1482.837
493.8933, 1476.011
494.3754, 1465.214
494.8575, 1451.404
495.3397, 1441.249
495.8218, 1442.180
496.3039, 1447.462
496.7860, 1449.819
497.2681, 1447.811
497.7502, 1444.422
498.2324, 1439.942
498.7145, 1435.397
499.1966, 1432.098
499.6787, 1429.394
500.1608, 1429.090
500.6429, 1435.063
501.1251, 1446.416
501.6072, 1449.271
502.0893, 1433.082
502.5714, 1416.730
503.0535, 1409.102
503.5356, 1413.437
504.0178, 1419.023
504.4999, 1426.707
504.9820, 1434.822
505.4641, 1441.088
505.9462, 1445.438
506.4283, 1448.166
506.9105, 1448.983
507.3926, 1448.295
507.8747, 1447.195
508.3568, 1445.600
508.8389, 1445.158
509.3210, 1447.276
509.8032, 1451.487
510.2853, 1456.895
510.7674, 1463.716
511.2495, 1470.306
511.7316, 1473.756
512.2137, 1475.806
512.6959, 1479.920
513.1780, 1498.982
513.6601, 1511.140
514.1422, 1494.628
514.6243, 1454.193
515.1064, 1422.753
515.5886, 1419.851
516.0707, 1425.229
516.5528, 1426.290
517.0349, 1416.944
517.5170, 1412.683
517.9991, 1420.851
518.4813, 1432.621
518.9634, 1436.705
519.4455, 1429.391
519.9276, 1420.362
520.4097, 1409.043
520.8918, 1397.120
521.3740, 1397.517
521.8561, 1415.058
522.3382, 1428.948
522.8203, 1421.616
523.3024, 1394.783
523.7845, 1376.570
524.2667, 1368.491
524.7488, 1369.037
525.2309, 1382.218
525.7130, 1403.547
526.1951, 1417.231
526.6772, 1417.013
527.1594, 1407.413
527.6415, 1385.246
528.1236, 1355.352
528.6057, 1338.675
529.0878, 1362.432
529.5699, 1394.186
530.0521, 1407.508
530.5342, 1394.556
531.0163, 1384.116
531.4984, 1386.794
531.9805, 1395.973
532.4626, 1404.601
532.9448, 1414.125
533.4269, 1420.200
533.9090, 1422.535
534.3911, 1421.090
534.8732, 1413.762
535.3553, 1392.220
535.8375, 1380.640
536.3196, 1395.819
536.8017, 1440.324
537.2838, 1458.171
537.7659, 1444.349
538.2480, 1420.889
538.7302, 1409.843
539.2123, 1409.987
539.6944, 1414.505
540.1765, 1424.123
540.6586, 1433.411
541.1407, 1433.750
541.6229, 1427.036
542.1050, 1420.143
542.5871, 1416.000
543.0692, 1413.821
543.5513, 1412.403
544.0334, 1411.730
544.5156, 1414.399
544.9977, 1423.734
545.4798, 1435.707
545.9619, 1447.020
546.4440, 1455.630
546.9261, 1465.691
547.4083, 1484.127
547.8904, 1503.066
548.3725, 1507.426
548.8546, 1486.939
549.3367, 1468.484
549.8188, 1456.710
550.3010, 1451.940
550.7831, 1460.534
551.2652, 1486.302
551.7473, 1512.807
552.2294, 1528.992
552.7115, 1535.408
553.1937, 1534.392
553.6758, 1524.308
554.1579, 1514.374
554.6400, 1518.206
555.1221, 1531.715
555.6042, 1542.849
556.0864, 1543.536
556.5685, 1543.968
557.0506, 1556.398
557.5327, 1577.596
558.0148, 1595.363
558.4969, 1599.789
558.9791, 1601.972
559.4612, 1608.486
559.9433, 1620.522
560.4254, 1634.092
560.9075, 1651.012
561.3896, 1667.683
561.8718, 1681.391
562.3539, 1693.180
562.8360, 1699.502
563.3181, 1695.759
563.8002, 1688.390
564.2823, 1695.214
564.7645, 1719.932
565.2466, 1741.855
565.7287, 1751.168
566.2108, 1750.781
566.6929, 1756.097
567.1750, 1767.425
567.6572, 1776.440
568.1393, 1773.803
568.6214, 1764.108
569.1035, 1756.865
569.5856, 1754.123
570.0677, 1751.353
570.5499, 1744.336
571.0320, 1734.851
571.5141, 1725.680
571.9962, 1720.978
572.4783, 1713.665
572.9604, 1699.206
573.4426, 1679.114
573.9247, 1660.881
574.4068, 1646.266
574.8889, 1633.425
575.3710, 1621.928
575.8531, 1612.117
576.3353, 1602.512
576.8174, 1592.923
577.2995, 1583.957
577.7816, 1576.431
578.2637, 1570.579
578.7458, 1563.285
579.2280, 1552.674
579.7101, 1543.038
580.1922, 1544.997
580.6743, 1556.265
581.1564, 1563.935
581.6385, 1558.109
582.1207, 1547.412
582.6028, 1543.628
583.0849, 1545.978
583.5670, 1548.080
584.0491, 1548.112
584.5313, 1545.156
585.0134, 1537.260
585.4955, 1521.530
585.9776, 1509.540
586.4597, 1506.949
586.9418, 1508.547
587.4240, 1508.398
587.9061, 1503.549
588.3882, 1501.321
588.8703, 1503.833
589.3524, 1509.103
589.8345, 1511.339
590.3167, 1510.184
590.7988, 1507.252
591.2809, 1502.274
591.7630, 1495.983
592.2451, 1492.647
592.7272, 1492.337
593.2094, 1493.200
593.6915, 1493.303
594.1736, 1493.561
594.6557, 1497.438
595.1378, 1507.364
595.6199, 1512.522
596.1021, 1498.154
596.5842, 1475.608
597.0663, 1461.015
597.5485, 1466.224
598.0306, 1473.612
598.5127, 1477.560
598.9948, 1479.066
599.4769, 1482.989
599.9590, 1495.434
600.4412, 1503.270
600.9233, 1499.719
601.4054, 1483.425
601.8875, 1477.790
602.3696, 1485.473
602.8517, 1497.434
603.3339, 1507.867
603.8160, 1516.599
604.2981, 1519.219
604.7802, 1514.703
605.2623, 1505.790
605.7444, 1492.268
606.2266, 1476.885
606.7087, 1467.684
607.1908, 1470.471
607.6729, 1477.301
608.1550, 1481.884
608.6371, 1485.258
609.1193, 1490.956
609.6014, 1504.884
610.0835, 1517.579
610.5656, 1524.444
611.0477, 1524.840
611.5298, 1521.863
612.0120, 1512.002
612.4941, 1502.522
612.9762, 1498.903
613.4583, 1503.466
613.9404, 1505.150
614.4225, 1502.482
614.9047, 1498.668
615.3868, 1498.682
615.8689, 1502.225
616.3510, 1505.240
616.8331, 1506.155
617.3152, 1506.439
617.7974, 1506.240
618.2795, 1506.813
618.7616, 1512.915
619.2437, 1536.375
619.7258, 1559.464
620.2079, 1567.243
620.6901, 1558.996
621.1722, 1550.583
621.6543, 1547.871
622.1364, 1546.507
622.6185, 1542.978
623.1006, 1531.881
623.5828, 1530.851
624.0649, 1546.581
624.5470, 1566.237
625.0291, 1573.072
625.5112, 1564.073
625.9933, 1558.542
626.4755, 1560.549
626.9576, 1567.110
627.4397, 1574.364
627.9218, 1581.666
628.4039, 1584.100
628.8860, 1572.655
629.3682, 1558.384
629.8503, 1558.043
630.3324, 1570.074
630.8145, 1582.534
631.2966, 1587.027
631.7787, 1590.334
632.2609, 1596.764
632.7430, 1606.689
633.2251, 1620.571
633.7072, 1645.862
634.1893, 1670.447
634.6714, 1683.623
635.1536, 1677.775
635.6357, 1677.499
636.1178, 1685.773
636.5999, 1699.090
637.0820, 1711.113
637.5641, 1721.691
638.0463, 1733.655
638.5284, 1748.999
639.0105, 1765.460
639.4926, 1778.433
639.9747, 1788.471
640.4568, 1798.396
640.9390, 1806.366
641.4211, 1817.498
641.9032, 1839.355
642.3853, 1872.328
642.8674, 1901.657
643.3495, 1919.714
643.8317, 1933.149
644.3138, 1946.673
644.7959, 1960.808
645.2780, 1974.592
645.7601, 1986.324
646.2422, 1999.125
646.7244, 2016.533
647.2065, 2038.329
647.6886, 2066.111
648.1707, 2102.434
648.6528, 2141.241
649.1349, 2170.686
649.6171, 2191.489
650.0992, 2209.742
650.5813, 2222.073
651.0634, 2237.258
651.5455, 2268.021
652.0276, 2312.496
652.5098, 2359.232
652.9919, 2408.368
653.4740, 2453.102
653.9561, 2488.956
654.4382, 2514.858
654.9203, 2535.610
655.4025, 2547.125
655.8846, 2557.557
656.3667, 2572.660
656.8488, 2595.245
657.3309, 2614.408
657.8130, 2630.137
658.2952, 2641.960
658.7773, 2647.393
659.2594, 2647.113
659.7415, 2649.388
660.2236, 2658.607
660.7057, 2667.649
661.1879, 2670.703
661.6700, 2665.715
662.1521, 2646.717
662.6342, 2593.872
663.1163, 2540.738
663.5984, 2511.927
664.0806, 2504.539
664.5627, 2490.871
665.0448, 2461.216
665.5269, 2426.536
666.0090, 2390.778
666.4911, 2353.949
666.9733, 2318.163
667.4554, 2283.211
667.9375, 2249.717
668.4196, 2218.605
668.9017, 2189.678
669.3839, 2160.889
669.8660, 2132.290
670.3481, 2103.219
670.8302, 2069.041
671.3123, 2034.239
671.7944, 2008.992
672.2766, 2000.597
672.7587, 1996.256
673.2408, 1991.006
673.7229, 1983.378
674.2050, 1970.421
674.6871, 1947.170
675.1693, 1922.883
675.6514, 1896.970
676.1335, 1871.029
676.6156, 1856.267
677.0977, 1860.839
677.5798, 1857.677
678.0620, 1828.562
678.5441, 1777.961
679.0262, 1755.931
679.5083, 1763.826
679.9904, 1775.116
680.4725, 1767.143
680.9547, 1748.526
681.4368, 1734.076
681.9189, 1725.850
682.4010, 1719.500
682.8831, 1711.385
683.3652, 1704.120
683.8474, 1700.856
684.3295, 1708.352
684.8116, 1710.214
685.2937, 1699.053
685.7758, 1683.221
686.2579, 1674.024
686.7401, 1674.624
687.2222, 1673.267
687.7043, 1667.863
688.1864, 1659.337
688.6685, 1647.656
689.1506, 1633.304
689.6328, 1624.165
690.1149, 1626.285
690.5970, 1633.959
691.0791, 1640.476
691.5612, 1645.473
692.0433, 1647.018
692.5255, 1643.382
693.0076, 1636.597
693.4897, 1626.081
693.9718, 1611.167
694.4539, 1601.424
694.9360, 1599.046
695.4182, 1601.324
695.9003, 1608.126
696.3824, 1621.497
696.8645, 1630.320
697.3466, 1634.319
697.8287, 1634.491
698.3109, 1631.727
698.7930, 1626.029
699.2751, 1615.599
699.7572, 1598.040
700.2393, 1583.775
700.7214, 1589.939
701.2036, 1605.623
701.6857, 1612.502
702.1678, 1595.211
702.6499, 1578.339
703.1320, 1569.900
703.6141, 1568.643
704.0963, 1571.826
704.5784, 1584.728
705.0605, 1593.419
705.5426, 1594.705
706.0247, 1589.512
706.5068, 1580.382
706.9890, 1566.414
707.4711, 1555.582
707.9532, 1551.558
708.4353, 1553.846
708.9174, 1564.304
709.3995, 1581.958
709.8817, 1596.858
710.3638, 1601.295
710.8459, 1600.388
711.3280, 1598.603
711.8101, 1596.658
712.2922, 1591.625
712.7744, 1573.206
713.2565, 1558.552
713.7386, 1560.642
714.2207, 1592.484
714.7028, 1605.152
715.1849, 1590.421
715.6671, 1571.019
716.1492, 1576.848
716.6313, 1605.019
717.1134, 1620.525
717.5955, 1615.637
718.0776, 1601.864
718.5598, 1587.433
719.0419, 1575.140
719.5240, 1570.606
720.0061, 1581.339
720.4882, 1593.464
720.9703, 1602.656
721.4525, 1608.522
721.9346, 1610.171
722.4167, 1602.330
722.8988, 1597.224
723.3809, 1598.949
723.8630, 1604.914
724.3452, 1603.963
724.8273, 1595.199
725.3094, 1585.972
725.7915, 1578.903
726.2736, 1574.188
726.7557, 1572.641
727.2379, 1574.109
727.7200, 1577.407
728.2021, 1580.886
728.6842, 1586.461
729.1663, 1598.213
729.6484, 1616.703
730.1306, 1629.105
730.6127, 1627.404
731.0948, 1622.062
731.5769, 1618.720
732.0590, 1617.719
732.5411, 1617.263
733.0233, 1617.466
733.5054, 1617.960
733.9875, 1619.326
734.4696, 1621.087
734.9517, 1618.734
735.4338, 1611.034
735.9160, 1603.622
736.3981, 1603.803
736.8802, 1607.471
737.3623, 1608.331
737.8444, 1602.883
738.3266, 1597.966
738.8087, 1594.925
739.2908, 1594.375
739.7729, 1597.212
740.2551, 1602.973
740.7372, 1613.474
741.2193, 1632.622
741.7014, 1653.528
742.1835, 1660.904
742.6656, 1654.583
743.1478, 1643.793
743.6299, 1627.958
744.1120, 1613.627
744.5941, 1614.255
745.0762, 1625.609
745.5583, 1634.550
746.0405, 1632.533
746.5226, 1628.165
747.0047, 1623.057
747.4868, 1618.602
747.9689, 1622.493
748.4510, 1644.178
748.9332, 1663.245
749.4153, 1673.966
749.8974, 1676.516
750.3795, 1672.566
750.8616, 1661.469
751.3438, 1649.130
751.8259, 1635.532
752.3080, 1624.240
752.7901, 1625.494
753.2722, 1639.003
753.7543, 1654.492
754.2365, 1670.559
754.7186, 1682.029
755.2007, 1681.664
755.6828, 1665.497
756.1649, 1657.213
756.6470, 1667.178
757.1292, 1680.394
757.6113, 1688.658
758.0934, 1691.795
758.5755, 1689.376
759.0576, 1679.565
759.5397, 1670.274
760.0219, 1671.528
760.5040, 1680.138
760.9861, 1684.945
761.4682, 1683.051
761.9503, 1683.500
762.4324, 1699.620
762.9146, 1719.526
763.3967, 1728.984
763.8788, 1718.143
764.3609, 1707.138
764.8430, 1699.314
765.3251, 1692.919
765.8073, 1685.851
766.2894, 1677.794
766.7715, 1669.701
767.2536, 1660.327
767.7357, 1653.695
768.2178, 1662.561
768.7000, 1681.623
769.1821, 1687.460
769.6642, 1665.021
770.1463, 1638.992
770.6284, 1629.245
771.1105, 1631.428
771.5927, 1637.126
772.0748, 1650.416
772.5569, 1659.140
773.0390, 1657.492
773.5211, 1649.928
774.0032, 1648.015
774.4854, 1653.457
774.9675, 1658.439
775.4496, 1661.654
775.9317, 1662.020
776.4138, 1653.948
776.8959, 1639.354
777.3781, 1628.247
777.8602, 1627.571
778.3423, 1631.277
778.8244, 1637.091
779.3065, 1643.586
779.7886, 1645.176
780.2708, 1635.260
780.7529, 1625.229
781.2350, 1618.736
781.7171, 1615.450
782.1992, 1612.097
782.6813, 1608.380
783.1635, 1605.818
783.6456, 1603.688
784.1277, 1603.539
784.6098, 1614.265
785.0919, 1634.328
785.5740, 1649.011
786.0562, 1644.036
786.5383, 1633.243
787.0204, 1627.868
787.5025, 1628.613
787.9846, 1629.816
788.4667, 1630.663
788.9489, 1631.100
789.4310, 1630.114
789.9131, 1627.332
790.3952, 1632.349
790.8773, 1647.530
791.3594, 1659.287
791.8416, 1650.943
792.3237, 1632.113
792.8058, 1632.451
793.2879, 1653.007
793.7700, 1669.137
794.2521, 1653.976
794.7343, 1633.732
795.2164, 1633.366
795.6985, 1663.105
796.1806, 1678.331
796.6627, 1665.328
797.1448, 1647.153
797.6270, 1638.432
798.1091, 1640.447
798.5912, 1641.942
799.0733, 1642.935
799.5554, 1642.926
800.0375, 1637.825
800.5197, 1632.298
801.0018, 1637.496
801.4839, 1656.311
801.9660, 1673.720
802.4481, 1682.273
802.9302, 1684.410
803.4124, 1681.477
803.8945, 1669.552
804.3766, 1661.395
804.8587, 1656.159
805.3408, 1655.824
805.8229, 1666.331
806.3051, 1687.529
806.7872, 1692.180
807.2693, 1675.238
807.7514, 1658.536
808.2335, 1674.296
808.7156, 1701.562
809.1978, 1705.988
809.6799, 1673.261
810.1620, 1641.823
810.6441, 1626.610
811.1262, 1620.875
811.6083, 1618.222
812.0905, 1618.576
812.5726, 1621.899
813.0547, 1630.006
813.5368, 1637.514
814.0189, 1637.165
814.5010, 1630.163
814.9832, 1623.363
815.4653, 1617.830
815.9474, 1612.925
816.4295, 1606.982
816.9116, 1601.718
817.3937, 1599.947
817.8759, 1607.103
818.3580, 1608.367
818.8401, 1593.337
819.3222, 1575.981
819.8043, 1569.919
820.2864, 1577.759
820.7686, 1585.135
821.2507, 1590.828
821.7328, 1595.532
822.2149, 1600.559
822.6970, 1605.187
823.1791, 1606.808
823.6613, 1603.266
824.1434, 1601.888
824.6255, 1613.506
825.1076, 1627.239
825.5897, 1630.789
826.0718, 1602.052
826.5540, 1593.375
827.0361, 1615.207
827.5182, 1645.078
828.0003, 1655.193
828.4824, 1645.724
828.9645, 1637.813
829.4467, 1634.445
829.9288, 1633.722
830.4109, 1633.451
830.8930, 1634.398
831.3751, 1638.668
831.8572, 1650.472
832.3394, 1657.080
832.8215, 1647.206
833.3036, 1633.666
833.7857, 1631.459
834.2678, 1646.814
834.7499, 1654.547
835.2321, 1650.965
835.7142, 1644.506
836.1963, 1647.010
836.6784, 1655.792
837.1605, 1659.994
837.6426, 1656.234
838.1248, 1653.626
838.6069, 1658.659
839.0890, 1668.997
839.5711, 1682.980
840.0532, 1710.052
840.5353, 1721.612
841.0175, 1707.776
841.4996, 1686.976
841.9817, 1679.187
842.4638, 1685.066
842.9459, 1685.437
843.4280, 1677.753
843.9102, 1668.331
844.3923, 1662.317
844.8744, 1659.793
845.3565, 1661.834
845.8386, 1670.212
846.3207, 1677.158
846.8029, 1677.163
847.2850, 1675.890
847.7671, 1678.904
848.2492, 1690.379
848.7313, 1693.527
849.2134, 1684.930
849.6956, 1676.674
850.1777, 1683.639
850.6598, 1701.183
851.1419, 1713.471
851.6240, 1718.596
852.1061, 1718.962
852.5883, 1711.286
853.0704, 1702.910
853.5525, 1701.998
854.0346, 1715.037
854.5167, 1717.966
854.9988, 1701.329
855.4810, 1685.055
855.9631, 1685.095
856.4452, 1701.790
856.9273, 1712.803
857.4094, 1717.287
857.8915, 1720.110
858.3737, 1726.679
858.8558, 1733.452
859.3379, 1735.419
859.8200, 1731.721
860.3021, 1727.239
860.7842, 1723.837
861.2664, 1720.102
861.7485, 1714.075
862.2306, 1704.727
862.7127, 1703.847
863.1948, 1712.506
863.6769, 1724.890
864.1591, 1740.092
864.6412, 1755.261
865.1233, 1762.677
865.6054, 1762.732
866.0875, 1762.797
866.5696, 1764.846
867.0518, 1770.405
867.5339, 1785.030
868.0160, 1809.635
868.4981, 1814.193
868.9802, 1785.500
869.4623, 1764.779
869.9445, 1775.752
870.4266, 1810.375
870.9087, 1831.430
871.3908, 1840.146
871.8729, 1846.901
872.3550, 1855.538
872.8372, 1867.117
873.3193, 1881.842
873.8014, 1900.140
874.2835, 1923.547
874.7656, 1957.263
875.2477, 1990.877
875.7299, 2024.323
876.2120, 2055.096
876.6941, 2071.450
877.1762, 2073.374
877.6583, 2077.385
878.1404, 2087.597
878.6226, 2106.813
879.1047, 2142.862
879.5869, 2190.855
880.0690, 2239.058
880.5511, 2274.594
881.0332, 2319.597
881.5153, 2387.731
881.9974, 2467.028
882.4796, 2533.764
882.9617, 2585.031
883.4438, 2640.098
883.9259, 2702.450
884.4080, 2771.436
884.8901, 2849.253
885.3723, 2932.386
885.8544, 3013.081
886.3365, 3088.598
886.8186, 3160.022
887.3007, 3223.298
887.7828, 3283.756
888.2650, 3349.217
888.7471, 3422.075
889.2292, 3492.788
889.7113, 3562.267
890.1934, 3625.846
890.6755, 3677.889
891.1577, 3719.623
891.6398, 3758.264
892.1219, 3796.608
892.6040, 3822.181
893.0861, 3824.076
893.5682, 3810.024
894.0504, 3787.689
894.5325, 3762.629
895.0146, 3715.211
895.4967, 3640.373
895.9788, 3552.808
896.4609, 3463.752
896.9431, 3373.015
897.4252, 3281.765
897.9073, 3190.090
898.3894, 3096.458
898.8715, 2987.823
899.3536, 2883.076
899.8358, 2801.029
900.3179, 2746.441
900.8000, 2682.075
901.2821, 2594.145
901.7642, 2511.421
902.2463, 2445.780
902.7285, 2396.851
903.2106, 2357.042
903.6927, 2326.071
904.1748, 2292.563
904.6569, 2243.970
905.1390, 2193.148
905.6212, 2150.318
906.1033, 2116.359
906.5854, 2091.120
907.0675, 2082.750
907.5496, 2074.167
908.0317, 2061.518
908.5139, 2045.878
908.9960, 2029.749
909.4781, 2013.192
909.9602, 1996.991
910.4423, 1980.077
910.9244, 1966.123
911.4066, 1960.539
911.8887, 1961.058
912.3708, 1963.472
912.8529, 1970.820
913.3350, 1974.169
913.8171, 1970.693
914.2993, 1963.508
914.7814, 1956.347
915.2635, 1949.224
915.7456, 1940.681
916.2277, 1929.210
916.7098, 1921.965
917.1920, 1933.651
917.6741, 1952.499
918.1562, 1960.516
918.6383, 1951.422
919.1204, 1940.687
919.6025, 1930.255
920.0847, 1921.943
920.5668, 1916.507
921.0489, 1913.568
921.5310, 1918.937
922.0131, 1934.069
922.4952, 1945.340
922.9774, 1935.021
923.4595, 1917.061
923.9416, 1910.722
924.4237, 1917.176
924.9058, 1932.746
925.3879, 1972.576
925.8701, 2003.846
926.3522, 2010.105
926.8343, 1995.063
927.3164, 1989.105
927.7985, 1993.139
928.2806, 1997.524
928.7628, 1997.153
929.2449, 1995.205
929.7270, 1996.909
930.2091, 2001.171
930.6912, 2005.082
931.1733, 2011.009
931.6555, 2012.153
932.1376, 2004.381
932.6197, 1991.440
933.1018, 1979.811
933.5839, 1970.185
934.0660, 1954.922
934.5482, 1930.836
935.0303, 1905.918
935.5124, 1889.728
935.9945, 1879.828
936.4766, 1871.661
936.9587, 1862.631
937.4409, 1859.044
937.9230, 1869.445
938.4051, 1881.109
938.8872, 1884.437
939.3693, 1878.429
939.8514, 1867.693
940.3336, 1851.051
940.8157, 1839.373
941.2978, 1849.498
941.7799, 1866.355
942.2620, 1863.973
942.7441, 1842.338
943.2263, 1828.494
943.7084, 1842.790
944.1905, 1856.974
944.6726, 1859.700
945.1547, 1852.564
945.6368, 1844.231
946.1190, 1834.385
946.6011, 1827.834
947.0832, 1828.974
947.5653, 1832.072
948.0474, 1829.423
948.5295, 1822.680
949.0117, 1815.689
949.4938, 1804.420
949.9759, 1800.365
950.4580, 1809.258
950.9401, 1823.336
951.4222, 1831.870
951.9044, 1834.917
952.3865, 1829.904
952.8686, 1813.747
953.3507, 1802.392
953.8328, 1821.323
954.3149, 1851.142
954.7971, 1866.537
955.2792, 1858.520
955.7613, 1851.174
956.2434, 1850.485
956.7255, 1848.734
957.2076, 1837.784
957.6898, 1818.338
958.1719, 1820.046
958.6540, 1842.603
959.1361, 1864.292
959.6182, 1870.625
960.1003, 1869.086
960.5825, 1863.385
961.0646, 1855.077
961.5467, 1851.423
962.0288, 1853.892
962.5109, 1861.670
962.9930, 1877.945
963.4752, 1896.431
963.9573, 1897.991
964.4394, 1885.602
964.9215, 1878.115
965.4036, 1883.978
965.8857, 1892.166
966.3679, 1896.906
966.8500, 1897.344
967.3321, 1891.839
967.8142, 1871.814
968.2963, 1861.927
968.7784, 1864.917
969.2606, 1872.888
969.7427, 1879.778
970.2248, 1885.025
970.7069, 1884.464
971.1890, 1877.908
971.6711, 1875.266
972.1533, 1888.165
972.6354, 1902.933
973.1175, 1911.708
973.5996, 1913.947
974.0817, 1905.511
974.5638, 1879.496
975.0460, 1868.697
975.5281, 1896.408
976.0102, 1938.920
976.4923, 1941.855
976.9744, 1916.627
977.4565, 1896.773
977.9387, 1900.556
978.4208, 1907.945
978.9029, 1913.699
979.3850, 1918.273
979.8671, 1921.839
980.3492, 1923.781
980.8314, 1928.551
981.3135, 1937.018
981.7956, 1946.711
982.2777, 1956.867
982.7598, 1965.746
983.2419, 1969.143
983.7241, 1965.246
984.2062, 1966.364
984.6883, 1980.830
985.1704, 1996.563
985.6525, 2008.556
986.1346, 2017.113
986.6168, 2025.779
987.0989, 2034.489
987.5810, 2041.237
988.0631, 2043.880
988.5452, 2044.870
989.0273, 2046.343
989.5095, 2047.993
989.9916, 2048.934
990.4737, 2047.135
990.9558, 2047.457
991.4379, 2050.146
991.9200, 2055.621
992.4022, 2065.786
992.8843, 2079.501
993.3664, 2094.119
993.8485, 2110.462
994.3306, 2118.379
994.8127, 2106.686
995.2949, 2086.210
995.7770, 2062.162
996.2591, 2031.599
996.7412, 2026.607
997.2233, 2053.550
997.7054, 2083.009
998.1876, 2099.259
998.6697, 2104.605
999.1518, 2100.886
999.6339, 2090.329
1000.116, 2081.832
1000.598, 2079.985
1001.080, 2080.157
1001.562, 2081.868
1002.044, 2084.026
1002.527, 2085.820
1003.009, 2087.633
1003.491, 2081.272
1003.973, 2062.870
1004.455, 2046.558
1004.937, 2056.762
1005.419, 2074.287
1005.901, 2071.352
1006.384, 2034.657
1006.866, 2014.776
1007.348, 2024.782
1007.830, 2040.899
1008.312, 2050.972
1008.794, 2055.766
1009.276, 2062.695
1009.758, 2070.374
1010.240, 2067.822
1010.723, 2037.471
1011.205, 2005.875
1011.687, 1992.460
1012.169, 1990.516
1012.651, 1980.420
1013.133, 1957.376
1013.615, 1937.638
1014.097, 1921.938
1014.580, 1914.724
1015.062, 1932.652
1015.544, 1960.643
1016.026, 1966.554
1016.508, 1940.066
1016.990, 1917.609
1017.472, 1916.583
1017.954, 1921.562
1018.436, 1924.361
1018.919, 1925.044
1019.401, 1924.338
1019.883, 1922.233
1020.365, 1923.316
1020.847, 1935.976
1021.329, 1948.315
1021.811, 1947.566
1022.293, 1937.226
1022.776, 1925.630
1023.258, 1907.703
1023.740, 1901.259
1024.222, 1913.418
1024.704, 1928.609
1025.186, 1923.065
1025.668, 1902.413
1026.150, 1885.793
1026.632, 1875.949
1027.115, 1868.128
1027.597, 1863.083
1028.079, 1855.858
1028.561, 1836.430
1029.043, 1806.296
1029.525, 1814.373
1030.007, 1866.930
1030.489, 1904.151
1030.972, 1890.077
1031.454, 1854.960
1031.936, 1834.194
1032.418, 1825.767
1032.900, 1825.541
1033.382, 1839.193
1033.864, 1851.383
1034.346, 1860.213
1034.828, 1867.441
1035.311, 1876.776
1035.793, 1886.881
1036.275, 1886.428
1036.757, 1874.460
1037.239, 1862.479
1037.721, 1855.932
1038.203, 1854.584
1038.685, 1860.966
1039.167, 1873.808
1039.650, 1881.729
1040.132, 1883.701
1040.614, 1885.107
1041.096, 1888.230
1041.578, 1890.808
1042.060, 1888.208
1042.542, 1882.599
1043.024, 1878.068
1043.507, 1876.865
1043.989, 1874.602
1044.471, 1867.209
1044.953, 1862.193
1045.435, 1867.938
1045.917, 1883.090
1046.399, 1888.725
1046.881, 1884.860
1047.364, 1879.913
1047.846, 1874.685
1048.328, 1874.839
1048.810, 1892.055
1049.292, 1918.949
1049.774, 1923.739
1050.256, 1898.788
1050.738, 1877.621
1051.220, 1866.434
1051.703, 1862.860
1052.185, 1869.317
1052.667, 1879.273
1053.149, 1879.755
1053.631, 1864.870
1054.113, 1856.749
1054.595, 1867.097
1055.077, 1878.844
1055.559, 1882.004
1056.042, 1878.799
1056.524, 1888.553
1057.006, 1909.031
1057.488, 1921.981
1057.970, 1912.340
1058.452, 1897.314
1058.934, 1882.295
1059.416, 1870.977
1059.899, 1870.728
1060.381, 1885.611
1060.863, 1897.422
1061.345, 1905.101
1061.827, 1907.920
1062.309, 1903.307
1062.791, 1894.338
1063.273, 1884.887
1063.755, 1875.317
1064.238, 1867.035
1064.720, 1855.118
1065.202, 1852.472
1065.684, 1867.789
1066.166, 1891.510
1066.648, 1893.043
1067.130, 1877.467
1067.612, 1869.062
1068.094, 1878.607
1068.577, 1889.686
1069.059, 1897.466
1069.541, 1898.359
1070.023, 1886.123
1070.505, 1854.951
1070.987, 1848.431
1071.469, 1868.809
1071.951, 1890.854
1072.434, 1892.520
1072.916, 1889.720
1073.398, 1907.764
1073.880, 1938.444
1074.362, 1952.025
1074.844, 1930.185
1075.326, 1910.290
1075.808, 1893.856
1076.291, 1886.032
1076.773, 1902.485
1077.255, 1932.592
1077.737, 1942.021
1078.219, 1924.661
1078.701, 1911.709
1079.183, 1925.775
1079.665, 1941.656
1080.147, 1947.578
1080.630, 1944.394
1081.112, 1934.860
1081.594, 1919.324
1082.076, 1908.968
1082.558, 1910.424
1083.040, 1913.966
1083.522, 1910.497
1084.004, 1904.002
1084.486, 1899.837
1084.969, 1898.962
1085.451, 1899.861
1085.933, 1903.736
1086.415, 1904.841
1086.897, 1891.925
1087.379, 1876.734
1087.861, 1886.118
1088.343, 1913.562
1088.826, 1929.982
1089.308, 1915.735
1089.790, 1900.752
1090.272, 1888.782
1090.754, 1880.687
1091.236, 1879.695
1091.718, 1884.120
1092.200, 1884.506
1092.682, 1878.794
1093.165, 1878.662
1093.647, 1905.193
1094.129, 1926.760
1094.611, 1919.039
1095.093, 1887.352
1095.575, 1868.895
1096.057, 1864.088
1096.539, 1862.444
1097.022, 1861.207
1097.504, 1859.479
1097.986, 1854.428
1098.468, 1849.130
1098.950, 1848.675
1099.432, 1858.700
1099.914, 1858.808
1100.396, 1845.737
1100.879, 1833.351
1101.361, 1831.114
1101.843, 1836.731
1102.325, 1849.427
1102.807, 1866.611
1103.289, 1878.655
1103.771, 1882.827
1104.253, 1879.419
1104.735, 1865.329
1105.218, 1848.485
1105.700, 1837.785
1106.182, 1833.768
1106.664, 1843.233
1107.146, 1867.275
1107.628, 1886.130
1108.110, 1888.723
1108.592, 1881.500
1109.074, 1861.096
1109.557, 1834.314
1110.039, 1831.772
1110.521, 1853.801
1111.003, 1874.109
1111.485, 1886.691
1111.967, 1889.600
1112.449, 1868.515
1112.931, 1843.779
1113.414, 1839.948
1113.896, 1864.750
1114.378, 1882.214
1114.860, 1891.683
1115.342, 1896.698
1115.824, 1899.577
1116.306, 1898.933
1116.788, 1889.473
1117.271, 1875.158
1117.753, 1864.686
1118.235, 1861.847
1118.717, 1862.028
1119.199, 1865.463
1119.681, 1870.582
1120.163, 1878.814
1120.645, 1887.040
1121.127, 1883.475
1121.609, 1869.022
1122.092, 1856.845
1122.574, 1852.778
1123.056, 1853.402
1123.538, 1858.058
1124.020, 1865.705
1124.502, 1876.280
1124.984, 1888.874
1125.466, 1895.634
1125.949, 1894.860
1126.431, 1889.839
1126.913, 1876.391
1127.395, 1865.069
1127.877, 1865.267
1128.359, 1875.299
1128.841, 1883.071
1129.323, 1888.627
1129.806, 1891.184
1130.288, 1889.856
1130.770, 1886.760
1131.252, 1887.127
1131.734, 1885.513
1132.216, 1871.975
1132.698, 1836.560
1133.180, 1824.686
1133.662, 1840.983
1134.145, 1861.737
1134.627, 1876.597
1135.109, 1883.583
1135.591, 1872.437
1136.073, 1851.118
1136.555, 1840.076
1137.037, 1855.766
1137.519, 1866.752
1138.001, 1871.929
1138.484, 1870.484
1138.966, 1852.863
1139.448, 1830.177
1139.930, 1836.572
1140.412, 1869.789
1140.894, 1892.655
1141.376, 1871.495
1141.858, 1863.285
1142.341, 1891.101
1142.823, 1930.760
1143.305, 1937.573
1143.787, 1916.854
1144.269, 1887.345
1144.751, 1849.910
1145.233, 1829.717
1145.715, 1857.597
1146.198, 1890.545
1146.680, 1907.009
1147.162, 1908.532
1147.644, 1895.796
1148.126, 1870.679
1148.608, 1860.599
1149.090, 1879.698
1149.572, 1900.999
1150.054, 1902.898
1150.536, 1898.159
1151.019, 1899.725
1151.501, 1908.723
1151.983, 1910.705
1152.465, 1905.230
1152.947, 1904.002
1153.429, 1919.977
1153.911, 1935.542
1154.393, 1926.972
1154.876, 1908.395
1155.358, 1906.104
1155.840, 1929.568
1156.322, 1943.670
1156.804, 1946.462
1157.286, 1947.109
1157.768, 1957.911
1158.250, 1967.371
1158.733, 1952.953
1159.215, 1923.419
1159.697, 1914.188
1160.179, 1945.514
1160.661, 1962.803
1161.143, 1957.152
1161.625, 1943.652
1162.107, 1939.126
1162.589, 1938.933
1163.072, 1933.648
1163.554, 1923.220
1164.036, 1919.674
1164.518, 1933.982
1165.000, 1941.365
1165.482, 1933.724
1165.964, 1919.857
1166.446, 1915.108
1166.928, 1916.717
1167.411, 1919.863
1167.893, 1924.564
1168.375, 1923.717
1168.857, 1911.408
1169.339, 1896.888
1169.821, 1880.691
1170.303, 1866.936
1170.785, 1872.275
1171.268, 1890.602
1171.750, 1901.270
1172.232, 1894.047
1172.714, 1888.057
1173.196, 1893.537
1173.678, 1900.052
1174.160, 1901.404
1174.642, 1898.320
1175.125, 1893.667
1175.607, 1888.296
1176.089, 1887.241
1176.571, 1899.378
1177.053, 1907.690
1177.535, 1900.389
1178.017, 1888.934
1178.499, 1882.404
1178.981, 1880.786
1179.464, 1891.420
1179.946, 1912.956
1180.428, 1923.980
1180.910, 1898.593
1181.392, 1872.727
1181.874, 1867.294
1182.356, 1872.596
1182.838, 1873.476
1183.320, 1869.681
1183.803, 1869.472
1184.285, 1873.561
1184.767, 1879.340
1185.249, 1884.710
1185.731, 1891.260
1186.213, 1903.974
1186.695, 1918.019
1187.177, 1916.896
1187.660, 1898.825
1188.142, 1895.675
1188.624, 1914.515
1189.106, 1933.350
1189.588, 1930.915
1190.070, 1921.951
1190.552, 1919.859
1191.034, 1923.173
1191.516, 1914.857
1191.999, 1892.646
1192.481, 1881.176
1192.963, 1888.315
1193.445, 1901.122
1193.927, 1908.982
1194.409, 1914.405
1194.891, 1920.167
1195.373, 1926.540
1195.855, 1930.513
1196.338, 1932.447
1196.820, 1927.829
1197.302, 1910.062
1197.784, 1895.213
1198.266, 1906.172
1198.748, 1927.765
1199.230, 1941.509
1199.712, 1945.057
1200.195, 1940.739
1200.677, 1926.601
1201.159, 1918.777
1201.641, 1931.741
1202.123, 1948.066
1202.605, 1947.991
1203.087, 1937.432
1203.569, 1924.553
1204.052, 1903.445
1204.534, 1904.770
1205.016, 1932.976
1205.498, 1957.021
1205.980, 1948.209
1206.462, 1929.747
1206.944, 1930.732
1207.426, 1942.553
1207.908, 1943.802
1208.391, 1924.169
1208.873, 1920.717
1209.355, 1938.099
1209.837, 1954.714
1210.319, 1949.257
1210.801, 1935.280
1211.283, 1928.900
1211.765, 1927.406
1212.247, 1917.452
1212.730, 1887.785
1213.212, 1886.610
1213.694, 1924.900
1214.176, 1963.222
1214.658, 1958.566
1215.140, 1936.882
1215.622, 1926.824
1216.104, 1927.824
1216.587, 1925.636
1217.069, 1917.008
1217.551, 1914.147
1218.033, 1920.564
1218.515, 1926.505
1218.997, 1915.968
1219.479, 1902.446
1219.961, 1904.230
1220.443, 1921.057
1220.926, 1927.424
1221.408, 1919.404
1221.890, 1912.319
1222.372, 1908.971
1222.854, 1910.340
1223.336, 1921.181
1223.818, 1935.120
1224.300, 1943.831
1224.782, 1946.231
1225.265, 1955.511
1225.747, 1974.869
1226.229, 1985.545
1226.711, 1980.287
1227.193, 1968.211
1227.675, 1954.469
1228.157, 1943.663
1228.639, 1943.835
1229.122, 1957.242
1229.604, 1960.183
1230.086, 1950.355
1230.568, 1946.581
1231.050, 1960.446
1231.532, 1974.297
1232.014, 1955.215
1232.496, 1931.299
1232.979, 1945.027
1233.461, 2006.352
1233.943, 2029.946
1234.425, 2012.349
1234.907, 1989.235
1235.389, 1973.232
1235.871, 1965.565
1236.353, 1973.571
1236.835, 1986.949
1237.318, 1991.387
1237.800, 1985.130
1238.282, 1980.084
1238.764, 1976.176
1239.246, 1976.080
1239.728, 1988.341
1240.210, 1996.133
1240.692, 1975.042
1241.175, 1946.317
1241.657, 1939.146
1242.139, 1956.669
1242.621, 1983.073
1243.103, 2018.808
1243.585, 2037.271
1244.067, 2008.627
1244.549, 1972.402
1245.031, 1947.929
1245.514, 1936.771
1245.996, 1942.236
1246.478, 1966.915
1246.960, 1974.710
1247.442, 1965.804
1247.924, 1955.857
1248.406, 1953.855
1248.888, 1954.915
1249.370, 1959.296
1249.853, 1963.314
1250.335, 1961.693
1250.817, 1954.666
1251.299, 1947.149
1251.781, 1939.711
1252.263, 1936.640
1252.745, 1943.553
1253.227, 1951.978
1253.710, 1958.068
1254.192, 1963.701
1254.674, 1970.478
1255.156, 1978.749
1255.638, 1995.920
1256.120, 2020.539
1256.602, 2031.652
1257.084, 2004.820
1257.567, 1978.290
1258.049, 1962.318
1258.531, 1955.259
1259.013, 1957.547
1259.495, 1966.897
1259.977, 1976.211
1260.459, 1984.626
1260.941, 1989.909
1261.423, 1992.264
1261.906, 1987.976
1262.388, 1971.505
1262.870, 1956.195
1263.352, 1966.403
1263.834, 1991.130
1264.316, 2006.363
1264.798, 2009.969
1265.280, 2007.012
1265.762, 1990.932
1266.245, 1982.254
1266.727, 1986.728
1267.209, 1994.887
1267.691, 1994.135
1268.173, 1988.018
1268.655, 1978.766
1269.137, 1967.592
1269.619, 1971.801
1270.102, 2002.600
1270.584, 2020.108
1271.066, 2013.422
1271.548, 1999.645
1272.030, 1997.070
1272.512, 2001.863
1272.994, 2015.121
1273.476, 2034.375
1273.958, 2032.250
1274.441, 2001.618
1274.923, 1983.231
1275.405, 1987.725
1275.887, 1999.265
1276.369, 2002.171
1276.851, 2003.516
1277.333, 2011.780
1277.815, 2025.278
1278.297, 2032.644
1278.780, 2033.882
1279.262, 2025.273
1279.744, 2003.666
1280.226, 1986.781
1280.708, 1995.506
1281.190, 2008.191
1281.672, 2006.047
1282.154, 1995.356
1282.637, 2004.383
1283.119, 2029.831
1283.601, 2036.861
1284.083, 2015.037
1284.565, 1998.021
1285.047, 2018.152
1285.529, 2034.312
1286.011, 2023.222
1286.494, 1996.594
1286.976, 1986.354
1287.458, 1989.296
1287.940, 1996.321
1288.422, 2006.340
1288.904, 2013.812
1289.386, 2018.515
1289.868, 2016.340
1290.350, 2001.375
1290.833, 1985.113
1291.315, 1995.262
1291.797, 2019.958
1292.279, 2037.487
1292.761, 2044.297
1293.243, 2037.901
1293.725, 2010.459
1294.207, 1993.477
1294.689, 1999.996
1295.172, 2014.967
1295.654, 2014.414
1296.136, 2009.915
1296.618, 2022.337
1297.100, 2056.892
1297.582, 2056.515
1298.064, 2013.516
1298.546, 1986.725
1299.029, 1999.056
1299.511, 2018.962
1299.993, 2009.310
1300.475, 1993.948
1300.957, 2001.929
1301.439, 2028.148
1301.921, 2031.213
1302.403, 2012.081
1302.885, 1999.572
1303.368, 2002.674
##END=



