##NAMES=Ferrostrunzite
##RRUFFID=R100079
##IDEAL CHEMISTRY=Fe^2+^Fe^3+^_2_(P^5+^O_4_)_2_(OH)_2_&#183;6H_2_O
##LOCALITY=Hornerstown, Monmouth County, New Jersey, USA
##OWNER=RRUFF
##SOURCE=Jeff Weissman
##DESCRIPTION=Radial sprays of colorless acicular crystals
##STATUS=The identification of this mineral has been confirmed only by single crystal X-ray diffraction.
##URL=rruff.info/R100079
157.9885, 367.3497
158.4706, 375.6553
158.9528, 383.9181
159.4349, 392.5869
159.9170, 401.1598
160.3991, 410.3816
160.8812, 421.1131
161.3633, 434.1234
161.8455, 448.2787
162.3276, 463.2660
162.8097, 478.9128
163.2918, 495.0921
163.7739, 511.9712
164.2560, 528.6197
164.7382, 541.0801
165.2203, 554.4472
165.7024, 565.6873
166.1845, 571.9394
166.6666, 572.1890
167.1487, 570.1114
167.6309, 567.4749
168.1130, 564.0300
168.5951, 559.2831
169.0772, 551.1821
169.5593, 542.6340
170.0414, 536.2160
170.5236, 532.7966
171.0057, 530.4290
171.4878, 527.9601
171.9699, 525.3940
172.4520, 522.8035
172.9341, 519.3441
173.4163, 516.1547
173.8984, 514.7365
174.3805, 516.0153
174.8626, 518.0930
175.3447, 519.0647
175.8268, 519.1829
176.3090, 519.6475
176.7911, 521.5232
177.2732, 524.2167
177.7553, 526.7953
178.2374, 529.1078
178.7195, 531.1137
179.2017, 532.6625
179.6838, 533.8016
180.1659, 534.8503
180.6480, 536.0692
181.1301, 537.3904
181.6122, 538.7308
182.0944, 540.3416
182.5765, 541.7575
183.0586, 542.1409
183.5407, 541.4981
184.0228, 540.3462
184.5049, 538.8713
184.9871, 537.1963
185.4692, 535.8484
185.9513, 535.2144
186.4334, 534.9201
186.9155, 533.6568
187.3976, 531.2961
187.8798, 529.5111
188.3619, 530.6424
188.8440, 534.2322
189.3261, 537.2341
189.8082, 538.0951
190.2903, 537.6038
190.7725, 538.7298
191.2546, 541.6519
191.7367, 545.3168
192.2188, 548.5790
192.7009, 551.4940
193.1830, 554.6112
193.6652, 558.5760
194.1473, 563.0975
194.6294, 565.7317
195.1115, 566.0621
195.5936, 565.9005
196.0757, 567.6892
196.5579, 571.4753
197.0400, 575.7111
197.5221, 580.1057
198.0042, 584.5875
198.4863, 588.1988
198.9684, 590.8190
199.4506, 592.8080
199.9327, 594.6367
200.4148, 596.3283
200.8969, 597.7516
201.3790, 598.9431
201.8611, 599.9066
202.3433, 600.2891
202.8254, 600.1172
203.3075, 599.3051
203.7896, 597.6285
204.2717, 594.9787
204.7538, 591.9494
205.2360, 588.9147
205.7181, 585.9717
206.2002, 581.8404
206.6823, 575.9120
207.1644, 569.5214
207.6465, 565.2216
208.1287, 563.4091
208.6108, 562.4209
209.0929, 561.9030
209.5750, 562.1808
210.0571, 561.1019
210.5392, 558.3076
211.0214, 554.5032
211.5035, 551.0358
211.9856, 547.9240
212.4677, 545.2128
212.9498, 542.9716
213.4319, 541.3047
213.9141, 539.7385
214.3962, 538.1819
214.8783, 536.7674
215.3604, 535.8806
215.8425, 535.6868
216.3246, 535.6035
216.8068, 535.2232
217.2889, 534.1937
217.7710, 534.1087
218.2531, 535.3015
218.7352, 537.2726
219.2173, 538.8841
219.6995, 540.0665
220.1816, 541.0135
220.6637, 541.7430
221.1458, 542.0272
221.6279, 542.7580
222.1100, 543.9762
222.5922, 545.6456
223.0743, 547.8574
223.5564, 551.1182
224.0385, 554.0359
224.5206, 555.5988
225.0027, 554.5892
225.4849, 555.7755
225.9670, 560.4297
226.4491, 566.9187
226.9312, 570.7471
227.4133, 570.1062
227.8954, 569.6960
228.3776, 571.8742
228.8597, 578.1298
229.3418, 583.3818
229.8239, 587.4354
230.3060, 590.4837
230.7881, 592.8326
231.2703, 593.9082
231.7524, 595.1607
232.2345, 597.3329
232.7166, 601.1708
233.1987, 604.3268
233.6808, 607.2086
234.1630, 609.2955
234.6451, 608.9363
235.1272, 604.5707
235.6093, 600.1166
236.0914, 597.4093
236.5735, 597.5174
237.0557, 596.8890
237.5378, 594.8273
238.0199, 592.2552
238.5020, 591.6376
238.9841, 594.1259
239.4662, 596.8770
239.9484, 598.6321
240.4305, 598.7239
240.9126, 599.3392
241.3947, 600.5541
241.8768, 602.2545
242.3589, 604.1857
242.8411, 606.3727
243.3232, 608.7194
243.8053, 611.2473
244.2874, 614.2959
244.7695, 616.6586
245.2516, 618.0778
245.7338, 618.9265
246.2159, 620.1097
246.6980, 622.1307
247.1801, 623.7029
247.6622, 624.1204
248.1443, 622.5170
248.6265, 622.2682
249.1086, 623.7974
249.5907, 626.4740
250.0728, 629.1022
250.5549, 631.9614
251.0370, 634.2953
251.5192, 635.6700
252.0013, 635.6240
252.4834, 636.1024
252.9655, 637.2270
253.4476, 638.7794
253.9297, 640.5817
254.4119, 643.3986
254.8940, 644.9642
255.3761, 644.0090
255.8582, 639.4452
256.3403, 636.9109
256.8224, 637.5653
257.3046, 639.3641
257.7867, 638.7087
258.2688, 634.4307
258.7509, 630.1873
259.2330, 627.3660
259.7151, 626.3246
260.1973, 624.4689
260.6794, 621.4734
261.1615, 618.0397
261.6436, 615.2190
262.1257, 613.0421
262.6078, 611.3409
263.0900, 610.0485
263.5721, 609.1264
264.0542, 608.9159
264.5363, 609.6688
265.0184, 610.8111
265.5005, 611.6031
265.9827, 611.8771
266.4648, 612.2416
266.9469, 612.8633
267.4290, 613.7375
267.9111, 614.7180
268.3932, 615.9172
268.8754, 617.0280
269.3575, 617.5760
269.8396, 617.3250
270.3217, 617.4089
270.8038, 618.1249
271.2859, 619.4610
271.7681, 621.0272
272.2502, 622.8583
272.7323, 624.8539
273.2144, 626.9875
273.6965, 629.3832
274.1786, 631.2806
274.6608, 632.3611
275.1429, 632.7743
275.6250, 633.8336
276.1071, 635.8581
276.5892, 637.6205
277.0714, 637.6819
277.5535, 635.8135
278.0356, 634.4525
278.5177, 634.2371
278.9998, 634.8290
279.4819, 634.9785
279.9641, 634.7649
280.4462, 633.8121
280.9283, 631.4187
281.4104, 627.5446
281.8925, 624.3435
282.3746, 622.3156
282.8568, 621.0410
283.3389, 619.3029
283.8210, 617.0405
284.3031, 614.7484
284.7852, 612.8922
285.2673, 611.4368
285.7495, 609.4896
286.2316, 606.7549
286.7137, 603.7186
287.1958, 601.6400
287.6779, 600.5530
288.1600, 599.1248
288.6422, 596.1486
289.1243, 591.8699
289.6064, 588.2516
290.0885, 585.3806
290.5706, 583.2704
291.0527, 582.3500
291.5349, 582.5326
292.0170, 582.4630
292.4991, 581.3193
292.9812, 579.3168
293.4633, 577.1682
293.9454, 574.8518
294.4276, 572.6089
294.9097, 570.7303
295.3918, 569.2025
295.8739, 567.9977
296.3560, 567.6535
296.8381, 567.5670
297.3203, 565.9257
297.8024, 562.5175
298.2845, 559.2194
298.7666, 558.3967
299.2487, 559.3935
299.7308, 560.1774
300.2130, 559.7665
300.6951, 558.6892
301.1772, 557.5123
301.6593, 556.2435
302.1414, 555.5992
302.6235, 556.8860
303.1057, 559.2413
303.5878, 560.8673
304.0699, 560.7057
304.5520, 559.9207
305.0341, 560.1093
305.5162, 561.1182
305.9984, 561.6235
306.4805, 559.6378
306.9626, 556.8181
307.4447, 555.6157
307.9268, 557.4645
308.4089, 560.0634
308.8911, 561.7938
309.3732, 562.6614
309.8553, 562.7059
310.3374, 561.0788
310.8195, 559.0342
311.3016, 557.9014
311.7838, 558.2444
312.2659, 558.9250
312.7480, 559.2889
313.2301, 559.4359
313.7122, 559.6149
314.1943, 560.1207
314.6765, 560.6000
315.1586, 560.6533
315.6407, 559.9743
316.1228, 559.7730
316.6049, 561.2662
317.0870, 563.5392
317.5692, 565.0646
318.0513, 564.9433
318.5334, 564.2402
319.0155, 563.2736
319.4976, 561.9728
319.9797, 561.0356
320.4619, 561.0951
320.9440, 561.4811
321.4261, 561.4457
321.9082, 560.5446
322.3903, 559.4429
322.8724, 558.2335
323.3546, 556.9218
323.8367, 555.8259
324.3188, 555.6910
324.8009, 555.4350
325.2830, 554.2408
325.7651, 551.2365
326.2473, 548.1708
326.7294, 545.2546
327.2115, 542.4872
327.6936, 539.7788
328.1757, 536.7798
328.6578, 534.1308
329.1400, 532.1492
329.6221, 531.4151
330.1042, 530.5872
330.5863, 529.5259
331.0684, 528.3495
331.5505, 527.4348
332.0327, 526.8716
332.5148, 526.4375
332.9969, 526.0926
333.4790, 525.9995
333.9611, 525.4955
334.4432, 524.2177
334.9254, 522.7293
335.4075, 522.0736
335.8896, 522.6651
336.3717, 523.2260
336.8538, 523.1554
337.3359, 522.2911
337.8181, 522.7194
338.3002, 524.8492
338.7823, 527.6506
339.2644, 530.1256
339.7465, 532.4338
340.2286, 533.7117
340.7108, 533.2874
341.1929, 531.5502
341.6750, 531.5502
342.1571, 533.7178
342.6392, 535.9962
343.1213, 536.2782
343.6035, 534.5126
344.0856, 533.8918
344.5677, 535.2908
345.0498, 537.7656
345.5319, 538.6962
346.0140, 538.0151
346.4962, 537.7093
346.9783, 539.5236
347.4604, 542.9771
347.9425, 545.6194
348.4246, 547.1896
348.9067, 548.1172
349.3889, 548.6506
349.8710, 548.9378
350.3531, 549.7742
350.8352, 552.3629
351.3173, 555.5975
351.7994, 557.1190
352.2816, 556.7340
352.7637, 555.9566
353.2458, 556.2691
353.7279, 557.2756
354.2100, 558.1136
354.6921, 558.0491
355.1743, 557.9230
355.6564, 558.8699
356.1385, 560.7728
356.6206, 562.4850
357.1027, 563.1731
357.5848, 563.2396
358.0670, 563.1912
358.5491, 563.3212
359.0312, 563.1185
359.5133, 561.9957
359.9954, 560.2159
360.4775, 558.5915
360.9597, 557.3710
361.4418, 556.5281
361.9239, 556.1429
362.4060, 556.4601
362.8881, 556.5409
363.3702, 555.6953
363.8524, 554.4548
364.3345, 553.6346
364.8166, 554.2053
365.2987, 554.5750
365.7808, 553.8930
366.2629, 551.9308
366.7451, 550.5892
367.2272, 550.7929
367.7093, 551.4470
368.1914, 551.5897
368.6735, 550.5072
369.1556, 549.6172
369.6378, 549.2941
370.1199, 549.4420
370.6020, 549.2341
371.0841, 548.7289
371.5662, 547.8112
372.0483, 546.2992
372.5305, 543.1044
373.0126, 541.4269
373.4947, 542.1360
373.9768, 544.1224
374.4589, 544.6296
374.9410, 542.7754
375.4232, 541.2552
375.9053, 541.2130
376.3874, 542.8737
376.8695, 544.3127
377.3516, 545.6052
377.8337, 546.5780
378.3159, 546.8824
378.7980, 546.3977
379.2801, 546.1779
379.7622, 546.5536
380.2443, 547.4117
380.7264, 548.2755
381.2086, 549.1297
381.6907, 550.0519
382.1728, 551.3712
382.6549, 552.9420
383.1370, 553.6244
383.6191, 552.9207
384.1013, 551.8008
384.5834, 552.0965
385.0655, 553.6227
385.5476, 554.9702
386.0297, 554.7125
386.5118, 553.8832
386.9940, 554.7305
387.4761, 557.6765
387.9582, 560.5772
388.4403, 561.2360
388.9224, 560.3766
389.4045, 559.5149
389.8867, 559.0865
390.3688, 559.0519
390.8509, 559.6743
391.3330, 560.8622
391.8151, 561.6864
392.2972, 561.2667
392.7794, 560.3566
393.2615, 559.6650
393.7436, 559.3790
394.2257, 559.3450
394.7078, 559.9452
395.1899, 560.7978
395.6721, 560.8992
396.1542, 558.7751
396.6363, 556.7575
397.1184, 556.1216
397.6005, 557.5673
398.0826, 558.6105
398.5648, 558.6862
399.0469, 558.2328
399.5290, 557.7819
400.0111, 557.5756
400.4932, 557.1483
400.9753, 556.2910
401.4575, 555.0017
401.9396, 554.0145
402.4217, 553.3459
402.9038, 552.9417
403.3859, 552.8547
403.8680, 553.4509
404.3502, 553.4356
404.8323, 552.5053
405.3144, 551.0058
405.7965, 549.7773
406.2786, 548.7158
406.7607, 548.2439
407.2428, 548.8842
407.7249, 550.7000
408.2071, 551.5236
408.6892, 551.2761
409.1713, 550.2911
409.6534, 548.4535
410.1355, 545.8651
410.6176, 544.4548
411.0998, 545.2794
411.5819, 547.3181
412.0640, 548.0761
412.5461, 547.5864
413.0282, 546.8425
413.5103, 546.4072
413.9925, 546.2919
414.4746, 546.5892
414.9567, 547.4191
415.4388, 548.3545
415.9209, 549.0185
416.4030, 549.4490
416.8852, 549.7587
417.3673, 550.2241
417.8494, 550.4426
418.3315, 549.6788
418.8136, 547.8787
419.2957, 546.8229
419.7779, 548.3008
420.2600, 550.6959
420.7421, 552.3646
421.2242, 551.8752
421.7063, 551.6143
422.1884, 552.5844
422.6706, 554.4688
423.1527, 556.0987
423.6348, 557.0781
424.1169, 557.8378
424.5990, 558.5742
425.0811, 559.3073
425.5633, 560.0057
426.0454, 560.6376
426.5275, 561.2499
427.0096, 561.8778
427.4917, 562.2022
427.9738, 563.0432
428.4560, 564.7316
428.9381, 567.2309
429.4202, 569.3831
429.9023, 571.0557
430.3844, 572.5696
430.8665, 574.1876
431.3487, 575.9846
431.8308, 577.3300
432.3129, 577.9977
432.7950, 578.3983
433.2771, 579.3553
433.7592, 580.8677
434.2414, 582.6379
434.7235, 584.9227
435.2056, 587.3981
435.6877, 588.3759
436.1698, 587.7194
436.6519, 587.1699
437.1341, 588.9422
437.6162, 592.2008
438.0983, 594.7559
438.5804, 595.7148
439.0625, 596.1586
439.5446, 597.2560
440.0268, 598.8901
440.5089, 600.6234
440.9910, 602.6169
441.4731, 604.3594
441.9552, 605.2416
442.4373, 605.0121
442.9195, 604.9453
443.4016, 605.8053
443.8837, 607.1580
444.3658, 608.4740
444.8479, 609.4813
445.3300, 610.5489
445.8122, 612.0933
446.2943, 613.9742
446.7764, 615.0878
447.2585, 614.3846
447.7406, 613.5530
448.2227, 613.4510
448.7049, 614.4833
449.1870, 615.4901
449.6691, 616.5499
450.1512, 617.5399
450.6333, 618.2244
451.1154, 618.4815
451.5976, 618.7122
452.0797, 619.0790
452.5618, 619.5510
453.0439, 619.5957
453.5260, 619.1091
454.0081, 618.5162
454.4903, 617.9708
454.9724, 617.4856
455.4545, 617.8404
455.9366, 619.3825
456.4187, 621.2706
456.9008, 621.9182
457.3830, 621.4750
457.8651, 621.0494
458.3472, 621.3153
458.8293, 621.9026
459.3114, 622.1342
459.7935, 622.0059
460.2757, 621.7709
460.7578, 621.6880
461.2399, 621.6077
461.7220, 621.3740
462.2041, 621.1583
462.6862, 620.4025
463.1684, 617.9025
463.6505, 614.5449
464.1326, 612.4483
464.6147, 613.2554
465.0968, 614.8692
465.5789, 616.4973
466.0611, 618.1635
466.5432, 619.0613
467.0253, 618.0735
467.5074, 616.7428
467.9895, 616.3708
468.4716, 618.6658
468.9538, 619.7760
469.4359, 618.6605
469.9180, 616.2150
470.4001, 615.4445
470.8822, 617.3801
471.3643, 619.1920
471.8465, 619.6879
472.3286, 618.7463
472.8107, 617.6901
473.2928, 616.2947
473.7749, 615.3821
474.2570, 616.1904
474.7392, 618.7094
475.2213, 621.0565
475.7034, 622.8802
476.1855, 624.2348
476.6676, 625.0148
477.1497, 625.2892
477.6319, 625.6946
478.1140, 626.8863
478.5961, 628.3663
479.0782, 629.2016
479.5603, 629.2833
480.0424, 629.3183
480.5246, 629.9826
481.0067, 630.9291
481.4888, 631.6534
481.9709, 631.6326
482.4530, 631.7675
482.9352, 632.6461
483.4173, 634.0762
483.8994, 635.4532
484.3815, 636.6020
484.8636, 637.6295
485.3457, 638.4781
485.8279, 638.9716
486.3100, 639.9710
486.7921, 641.9920
487.2742, 644.3084
487.7563, 646.3308
488.2384, 648.1083
488.7206, 649.4647
489.2027, 650.0274
489.6848, 650.2129
490.1669, 651.7100
490.6490, 654.9950
491.1311, 658.1185
491.6133, 659.8544
492.0954, 660.2487
492.5775, 661.7406
493.0596, 664.5386
493.5417, 667.5410
494.0238, 669.3002
494.5060, 670.1340
494.9881, 671.5959
495.4702, 674.4164
495.9523, 677.4685
496.4344, 678.8017
496.9165, 678.8420
497.3987, 679.1895
497.8808, 680.6413
498.3629, 682.8863
498.8450, 686.1074
499.3271, 690.4163
499.8092, 693.7316
500.2914, 694.5961
500.7735, 694.1201
501.2556, 693.3642
501.7377, 691.7433
502.2198, 690.8809
502.7019, 691.8654
503.1841, 693.9014
503.6662, 694.8248
504.1483, 693.7053
504.6304, 692.2730
505.1125, 691.0571
505.5946, 690.1175
506.0768, 688.6416
506.5589, 686.3297
507.0410, 683.9606
507.5231, 682.2853
508.0052, 681.4792
508.4873, 680.2227
508.9695, 678.2479
509.4516, 676.0059
509.9337, 674.4349
510.4158, 673.4962
510.8979, 672.4889
511.3800, 671.1032
511.8622, 669.4222
512.3443, 667.5579
512.8264, 665.5291
513.3085, 663.4748
513.7906, 661.0950
514.2728, 658.9079
514.7549, 657.8412
515.2370, 658.5662
515.7191, 658.9005
516.2012, 656.7192
516.6833, 653.4327
517.1655, 651.1716
517.6476, 651.7826
518.1297, 652.3911
518.6118, 651.7961
519.0939, 650.1191
519.5760, 648.9646
520.0582, 649.2475
520.5403, 649.4761
521.0224, 648.9385
521.5045, 647.1654
521.9866, 646.0391
522.4688, 645.9234
522.9509, 646.0421
523.4330, 645.4230
523.9151, 643.9672
524.3972, 642.2130
524.8793, 640.0457
525.3615, 637.8603
525.8436, 636.9307
526.3257, 637.2334
526.8078, 637.4254
527.2899, 636.6790
527.7720, 635.2635
528.2542, 633.6339
528.7363, 631.8043
529.2184, 630.2390
529.7005, 629.9219
530.1826, 629.9474
530.6647, 628.9645
531.1469, 625.8458
531.6290, 622.9228
532.1111, 621.6867
532.5932, 621.5773
533.0753, 621.4549
533.5574, 621.2972
534.0396, 620.7621
534.5217, 619.4677
535.0038, 617.3466
535.4859, 615.8424
535.9680, 615.1882
536.4501, 614.9570
536.9323, 614.9992
537.4144, 615.6044
537.8965, 615.6024
538.3786, 614.7526
538.8607, 613.5948
539.3428, 612.9365
539.8250, 612.7979
540.3071, 612.9435
540.7892, 613.6249
541.2713, 614.3068
541.7534, 613.2870
542.2355, 610.7283
542.7177, 608.3289
543.1998, 607.3938
543.6819, 607.2000
544.1640, 606.7031
544.6461, 605.8239
545.1282, 604.6788
545.6104, 603.0585
546.0925, 601.3416
546.5746, 599.9293
547.0567, 598.6854
547.5388, 598.0956
548.0209, 598.9806
548.5031, 600.6100
548.9852, 601.3968
549.4673, 600.0000
549.9494, 598.9070
550.4315, 598.9571
550.9136, 600.1430
551.3958, 600.5652
551.8779, 599.9532
552.3600, 599.0354
552.8421, 598.2170
553.3242, 597.4988
553.8063, 596.9014
554.2885, 596.4528
554.7706, 596.0511
555.2527, 595.5336
555.7348, 594.9261
556.2169, 594.3360
556.6990, 593.5800
557.1812, 593.1438
557.6633, 594.0310
558.1454, 595.9344
558.6275, 597.7052
559.1096, 598.8770
559.5917, 599.5040
560.0739, 599.3471
560.5560, 598.3809
561.0381, 597.7800
561.5202, 598.2170
562.0023, 599.0918
562.4844, 599.9938
562.9666, 601.3205
563.4487, 601.9402
563.9308, 601.0696
564.4129, 599.7797
564.8950, 599.8001
565.3771, 601.7817
565.8593, 603.6038
566.3414, 604.8342
566.8235, 605.5266
567.3056, 605.9591
567.7877, 606.1193
568.2698, 606.0579
568.7520, 605.4503
569.2341, 604.6033
569.7162, 604.9439
570.1983, 606.5866
570.6804, 608.2308
571.1625, 608.6976
571.6447, 608.3405
572.1268, 607.5918
572.6089, 606.1540
573.0910, 605.2250
573.5731, 606.1584
574.0552, 608.0332
574.5374, 609.2571
575.0195, 609.1129
575.5016, 608.4407
575.9837, 607.2947
576.4658, 605.7484
576.9479, 604.4688
577.4301, 603.5994
577.9122, 602.8623
578.3943, 602.0023
578.8764, 600.8268
579.3585, 600.8303
579.8406, 602.4199
580.3228, 604.2787
580.8049, 605.1231
581.2870, 604.9752
581.7691, 604.1287
582.2512, 602.3798
582.7333, 600.5338
583.2155, 599.9326
583.6976, 600.2662
584.1797, 600.5490
584.6618, 599.8114
585.1439, 599.1836
585.6260, 600.3461
586.1082, 602.7999
586.5903, 604.0400
587.0724, 601.9025
587.5545, 598.9959
588.0366, 596.7108
588.5187, 595.2920
589.0009, 594.1481
589.4830, 592.8099
589.9651, 592.0075
590.4472, 592.5495
590.9293, 595.8974
591.4114, 597.0409
591.8936, 594.9081
592.3757, 591.2733
592.8578, 589.3373
593.3399, 589.2004
593.8220, 589.3505
594.3041, 589.3575
594.7863, 589.2953
595.2684, 589.4241
595.7505, 589.6964
596.2326, 589.7725
596.7147, 589.4968
597.1968, 588.8801
597.6790, 587.7426
598.1611, 586.0641
598.6432, 584.6542
599.1253, 584.1786
599.6074, 584.0614
600.0895, 583.8164
600.5717, 583.1853
601.0538, 582.7313
601.5359, 582.7526
602.0180, 582.9169
602.5001, 582.7828
602.9822, 582.1845
603.4644, 581.5984
603.9465, 581.0272
604.4286, 580.5402
604.9107, 580.4717
605.3928, 580.8806
605.8749, 581.1179
606.3571, 580.9091
606.8392, 580.2686
607.3213, 578.8258
607.8034, 576.6434
608.2855, 575.2181
608.7676, 576.5023
609.2498, 578.9022
609.7319, 580.3557
610.2140, 580.4483
610.6961, 580.1765
611.1782, 579.7003
611.6603, 579.3189
612.1425, 579.3471
612.6246, 580.8132
613.1067, 581.5382
613.5888, 580.7961
614.0709, 579.2299
614.5530, 578.0656
615.0352, 577.4219
615.5173, 576.9816
615.9994, 576.6918
616.4815, 576.5399
616.9636, 576.4685
617.4457, 576.4910
617.9279, 576.4923
618.4100, 576.3381
618.8921, 576.1168
619.3742, 576.0844
619.8563, 576.2529
620.3384, 576.4630
620.8206, 576.2975
621.3027, 576.2170
621.7848, 576.9539
622.2669, 579.1590
622.7490, 580.8268
623.2311, 580.4045
623.7133, 579.1865
624.1954, 578.8279
624.6775, 581.0807
625.1596, 582.3777
625.6417, 581.9667
626.1238, 580.3779
626.6060, 578.9503
627.0881, 577.4342
627.5702, 576.8801
628.0523, 578.1422
628.5344, 580.6658
629.0165, 581.4031
629.4987, 580.3166
629.9808, 579.1384
630.4629, 579.1907
630.9450, 579.9748
631.4271, 580.6497
631.9092, 581.1541
632.3914, 581.4030
632.8735, 581.0862
633.3556, 580.5967
633.8377, 580.3751
634.3198, 580.7892
634.8019, 580.9272
635.2841, 580.0169
635.7662, 578.8740
636.2483, 578.6830
636.7304, 580.4545
637.2125, 581.4756
637.6946, 581.0367
638.1768, 579.7617
638.6589, 579.5500
639.1410, 580.5912
639.6231, 581.3969
640.1052, 581.3168
640.5873, 580.6041
641.0695, 579.9442
641.5516, 579.3389
642.0337, 578.7831
642.5158, 578.4179
642.9979, 578.0344
643.4800, 577.2312
643.9622, 575.9413
644.4443, 575.0668
644.9264, 575.3857
645.4085, 576.0944
645.8906, 576.5201
646.3727, 576.1784
646.8549, 576.2528
647.3370, 577.1955
647.8191, 578.2816
648.3012, 578.5741
648.7833, 577.7734
649.2654, 577.1216
649.7476, 576.7868
650.2297, 576.6920
650.7118, 576.7908
651.1939, 577.0498
651.6760, 577.0563
652.1581, 576.2131
652.6402, 575.3660
653.1223, 576.4708
653.6044, 578.9291
654.0865, 580.2499
654.5687, 577.7414
655.0508, 574.6561
655.5329, 573.0634
656.0150, 573.1671
656.4971, 573.6445
656.9792, 574.6151
657.4614, 575.5464
657.9435, 576.2007
658.4256, 576.6506
658.9077, 576.4944
659.3898, 575.5373
659.8719, 574.3041
660.3541, 573.2667
660.8362, 572.4258
661.3183, 571.7791
661.8004, 571.3321
662.2825, 571.0946
662.7646, 571.4124
663.2468, 571.9553
663.7289, 571.8522
664.2110, 570.0432
664.6931, 568.4439
665.1752, 569.1473
665.6573, 571.0865
666.1395, 571.7421
666.6216, 568.2853
667.1037, 565.5724
667.5858, 565.8400
668.0679, 568.5474
668.5500, 569.8442
669.0322, 568.9945
669.5143, 568.2037
669.9964, 568.5154
670.4785, 569.8474
670.9606, 570.9327
671.4427, 571.7543
671.9249, 572.4757
672.4070, 573.6317
672.8891, 574.7098
673.3712, 574.1362
673.8533, 571.5600
674.3354, 569.6299
674.8176, 571.0546
675.2997, 573.7333
675.7818, 575.4575
676.2639, 575.4838
676.7460, 575.0601
677.2281, 574.1025
677.7103, 573.0090
678.1924, 572.2430
678.6745, 571.7916
679.1566, 571.7737
679.6387, 572.3943
680.1208, 573.2859
680.6030, 573.6993
681.0851, 573.6270
681.5672, 573.1470
682.0493, 571.8269
682.5314, 570.5507
683.0135, 571.4429
683.4957, 573.9192
683.9778, 575.6539
684.4599, 574.7563
684.9420, 573.1839
685.4241, 572.0070
685.9063, 571.3149
686.3884, 571.2715
686.8705, 572.7913
687.3526, 574.1937
687.8347, 574.6276
688.3168, 573.8829
688.7990, 573.8093
689.2811, 574.7531
689.7632, 575.6174
690.2453, 575.3469
690.7274, 574.0572
691.2095, 573.2398
691.6917, 572.9975
692.1738, 573.1741
692.6559, 573.7899
693.1380, 574.6617
693.6201, 575.4951
694.1022, 576.2372
694.5844, 576.8604
695.0665, 577.2382
695.5486, 577.5087
696.0307, 577.8521
696.5128, 579.0068
696.9949, 579.2795
697.4771, 578.0404
697.9592, 576.0510
698.4413, 574.8170
698.9234, 574.4374
699.4055, 574.4572
699.8876, 574.8365
700.3698, 575.4758
700.8519, 576.1564
701.3340, 576.8774
701.8161, 577.5927
702.2982, 578.5375
702.7803, 579.3014
703.2625, 579.3168
703.7446, 578.7007
704.2267, 578.0482
704.7088, 577.2255
705.1909, 576.7825
705.6730, 577.3436
706.1552, 579.0692
706.6373, 579.6036
707.1194, 577.9518
707.6015, 576.4856
708.0836, 576.7255
708.5657, 578.7844
709.0479, 579.9678
709.5300, 580.1869
710.0121, 579.9939
710.4942, 579.5727
710.9763, 579.1514
711.4584, 579.4666
711.9406, 580.7293
712.4227, 581.7224
712.9048, 581.0818
713.3869, 579.9424
713.8690, 579.5235
714.3511, 580.5472
714.8333, 581.5113
715.3154, 582.2614
715.7975, 582.7713
716.2796, 582.9777
716.7617, 582.7969
717.2438, 582.6317
717.7260, 582.5834
718.2081, 582.5214
718.6902, 581.9388
719.1723, 580.9792
719.6544, 580.9070
720.1365, 582.7159
720.6187, 584.6391
721.1008, 584.1631
721.5829, 582.1732
722.0650, 580.7395
722.5471, 580.8753
723.0292, 581.6249
723.5114, 583.1118
723.9935, 584.9800
724.4756, 585.7421
724.9577, 584.6168
725.4398, 583.5154
725.9219, 582.9096
726.4041, 582.7820
726.8862, 583.1661
727.3683, 584.1221
727.8504, 584.9926
728.3325, 585.2516
728.8146, 585.2305
729.2968, 585.9344
729.7789, 587.2230
730.2610, 587.7826
730.7431, 585.6770
731.2252, 583.3619
731.7073, 582.8618
732.1895, 584.5132
732.6716, 585.7742
733.1537, 585.6980
733.6358, 585.5530
734.1179, 586.0507
734.6000, 587.3972
735.0822, 588.0654
735.5643, 587.9271
736.0464, 587.5446
736.5285, 587.3904
737.0106, 587.4152
737.4927, 587.4825
737.9749, 587.6020
738.4570, 587.5805
738.9391, 586.9005
739.4212, 586.1663
739.9033, 586.2463
740.3854, 588.0252
740.8676, 588.9031
741.3497, 586.8873
741.8318, 584.3458
742.3139, 583.7697
742.7960, 586.1657
743.2781, 588.0197
743.7603, 589.0757
744.2424, 589.5654
744.7245, 589.6582
745.2066, 589.3992
745.6887, 589.2159
746.1708, 589.1520
746.6530, 589.3008
747.1351, 589.8713
747.6172, 590.7006
748.0993, 591.5113
748.5814, 592.3385
749.0635, 592.9666
749.5457, 593.4219
750.0278, 593.6191
750.5099, 593.3285
750.9920, 592.0084
751.4741, 591.3471
751.9562, 592.0126
752.4384, 593.2637
752.9205, 592.8624
753.4026, 590.8724
753.8847, 589.5754
754.3668, 590.2496
754.8489, 591.6540
755.3311, 591.8314
755.8132, 591.2159
756.2953, 591.0700
756.7774, 592.8975
757.2595, 594.4359
757.7416, 594.3311
758.2238, 592.8730
758.7059, 591.8542
759.1880, 591.4898
759.6701, 591.3811
760.1522, 591.4655
760.6343, 591.7078
761.1165, 591.9401
761.5986, 592.1599
762.0807, 592.3603
762.5628, 592.5031
763.0449, 592.6352
763.5270, 592.9212
764.0092, 593.3049
764.4913, 593.4987
764.9734, 592.9075
765.4555, 592.4484
765.9376, 592.9072
766.4197, 594.3153
766.9019, 595.0433
767.3840, 594.5742
767.8661, 594.0592
768.3482, 594.0121
768.8303, 594.4138
769.3124, 594.6500
769.7946, 594.6885
770.2767, 594.9597
770.7588, 596.1846
771.2409, 597.6953
771.7230, 598.3508
772.2051, 598.1066
772.6873, 597.2260
773.1694, 594.3594
773.6515, 592.0592
774.1336, 592.5908
774.6157, 596.9036
775.0978, 599.1790
775.5800, 598.0792
776.0621, 596.4763
776.5442, 596.0245
777.0263, 596.7751
777.5084, 597.5997
777.9905, 598.5308
778.4727, 599.2514
778.9548, 599.4167
779.4369, 599.2137
779.9190, 598.8230
780.4011, 598.2491
780.8832, 598.0463
781.3654, 599.2103
781.8475, 600.4094
782.3296, 600.4387
782.8117, 598.3708
783.2938, 597.8720
783.7759, 600.0020
784.2581, 602.2440
784.7402, 602.4877
785.2223, 600.7367
785.7044, 599.3141
786.1865, 598.2950
786.6686, 597.8278
787.1508, 598.2816
787.6329, 599.2932
788.1150, 600.3977
788.5971, 601.5722
789.0792, 602.4915
789.5613, 602.6158
790.0435, 602.6733
790.5256, 603.3884
791.0077, 605.4435
791.4898, 606.2462
791.9719, 605.2332
792.4540, 603.8874
792.9362, 603.7061
793.4183, 604.5682
793.9004, 605.0765
794.3825, 605.1209
794.8646, 604.9092
795.3467, 604.4468
795.8289, 603.9434
796.3110, 603.7280
796.7931, 603.9383
797.2752, 604.0945
797.7573, 604.1143
798.2394, 603.9539
798.7216, 603.4830
799.2037, 602.1497
799.6858, 602.1426
800.1679, 603.9180
800.6500, 605.9797
801.1321, 606.8477
801.6143, 606.6973
802.0964, 606.3531
802.5785, 605.8744
803.0606, 605.4805
803.5427, 605.0898
804.0248, 605.0303
804.5070, 605.8309
804.9891, 608.0634
805.4712, 609.6689
805.9533, 610.0186
806.4354, 609.7272
806.9175, 609.1136
807.3997, 608.0217
807.8818, 607.3237
808.3639, 607.0812
808.8460, 607.1308
809.3281, 607.3923
809.8102, 607.8103
810.2924, 608.3543
810.7745, 609.0765
811.2566, 609.4037
811.7387, 608.2227
812.2208, 606.8902
812.7029, 606.7299
813.1851, 608.5654
813.6672, 609.8564
814.1493, 610.3240
814.6314, 610.4064
815.1135, 610.3066
815.5956, 609.9949
816.0778, 610.2568
816.5599, 611.1962
817.0420, 612.0956
817.5241, 612.1189
818.0062, 611.7054
818.4883, 611.6074
818.9705, 611.9861
819.4526, 612.1442
819.9347, 611.4265
820.4168, 610.6015
820.8989, 610.2236
821.3810, 610.3376
821.8632, 610.7432
822.3453, 611.4429
822.8274, 612.4414
823.3095, 614.2070
823.7916, 616.4026
824.2737, 616.8546
824.7559, 615.4577
825.2380, 613.4796
825.7201, 611.0567
826.2022, 609.1282
826.6843, 608.9700
827.1664, 610.9450
827.6486, 612.5141
828.1307, 612.6938
828.6128, 612.7187
829.0949, 613.3054
829.5770, 614.5403
830.0591, 614.8803
830.5413, 614.2390
831.0234, 613.2068
831.5055, 611.5494
831.9876, 610.0282
832.4697, 610.4996
832.9518, 612.8929
833.4340, 615.2977
833.9161, 616.9417
834.3982, 617.9247
834.8803, 618.2949
835.3624, 618.0160
835.8445, 616.9700
836.3267, 614.3031
836.8088, 612.5902
837.2909, 613.6826
837.7730, 616.8814
838.2551, 617.6240
838.7372, 616.0823
839.2194, 614.9146
839.7015, 616.3311
840.1836, 618.5967
840.6657, 620.4926
841.1478, 621.8557
841.6299, 621.9591
842.1121, 618.7023
842.5942, 616.2185
843.0763, 616.2804
843.5584, 618.2942
844.0405, 618.7811
844.5226, 617.5059
845.0048, 616.2936
845.4869, 615.8286
845.9690, 615.9999
846.4511, 616.9593
846.9332, 618.4276
847.4153, 619.4879
847.8975, 619.3946
848.3796, 619.0862
848.8617, 618.8273
849.3438, 618.7113
849.8259, 619.0502
850.3080, 620.3217
850.7902, 620.9676
851.2723, 620.4258
851.7544, 619.3328
852.2365, 619.2863
852.7186, 620.0732
853.2007, 620.3218
853.6829, 619.0341
854.1650, 617.8701
854.6471, 618.7164
855.1292, 620.5838
855.6113, 621.8109
856.0934, 621.5443
856.5756, 621.0924
857.0577, 620.5491
857.5398, 619.9440
858.0219, 619.0136
858.5040, 617.6648
858.9861, 617.8981
859.4683, 620.4013
859.9504, 623.2381
860.4325, 624.0651
860.9146, 623.5261
861.3967, 622.5869
861.8788, 621.2644
862.3610, 620.1779
862.8431, 619.1957
863.3252, 618.8302
863.8073, 619.5573
864.2894, 621.7570
864.7715, 624.2186
865.2537, 627.3578
865.7358, 629.4050
866.2179, 627.4645
866.7000, 623.1602
867.1821, 621.1234
867.6642, 621.8844
868.1464, 623.0342
868.6285, 623.3694
869.1106, 623.1874
869.5927, 622.5341
870.0748, 621.1917
870.5569, 620.6381
871.0391, 620.9432
871.5212, 621.9107
872.0033, 623.8275
872.4854, 626.4329
872.9675, 627.7510
873.4496, 627.8249
873.9318, 627.1503
874.4139, 624.9518
874.8960, 622.9933
875.3781, 623.4437
875.8602, 625.9446
876.3423, 627.3055
876.8245, 625.4671
877.3066, 623.9082
877.7887, 623.6070
878.2708, 624.2937
878.7529, 624.8632
879.2350, 625.3204
879.7172, 625.9365
880.1993, 627.1684
880.6814, 628.2276
881.1635, 627.6666
881.6456, 626.1389
882.1277, 625.1612
882.6099, 625.8607
883.0920, 626.5291
883.5741, 626.7979
884.0562, 626.7299
884.5383, 626.3161
885.0204, 625.4618
885.5026, 624.8468
885.9847, 624.5740
886.4668, 624.6229
886.9489, 625.1778
887.4310, 625.9936
887.9131, 626.5259
888.3953, 626.4941
888.8774, 626.5731
889.3595, 627.1917
889.8416, 627.9729
890.3237, 628.6077
890.8058, 629.2515
891.2880, 629.1235
891.7701, 627.9863
892.2522, 626.8075
892.7343, 626.4192
893.2164, 626.6815
893.6985, 627.2961
894.1807, 628.2319
894.6628, 629.3047
895.1449, 630.5233
895.6270, 631.7194
896.1091, 632.8275
896.5912, 633.8323
897.0734, 634.6593
897.5555, 635.4941
898.0376, 635.6599
898.5197, 634.6084
899.0018, 632.7024
899.4839, 630.7413
899.9661, 628.9420
900.4482, 628.5627
900.9303, 632.1620
901.4124, 635.6609
901.8945, 635.9079
902.3766, 633.8350
902.8588, 632.6735
903.3409, 633.4132
903.8230, 633.8367
904.3051, 633.4151
904.7872, 632.6452
905.2693, 632.5223
905.7515, 632.9626
906.2336, 633.4451
906.7157, 633.8007
907.1978, 634.2141
907.6799, 635.0881
908.1620, 635.9940
908.6442, 636.3832
909.1263, 635.4393
909.6084, 635.3202
910.0905, 636.7043
910.5726, 638.0526
911.0547, 637.7479
911.5369, 635.9655
912.0190, 634.6657
912.5011, 633.9694
912.9832, 633.7724
913.4653, 634.2398
913.9474, 635.0004
914.4296, 635.6825
914.9117, 636.2400
915.3938, 637.0236
915.8759, 638.2864
916.3580, 639.4924
916.8401, 640.4935
917.3223, 641.2460
917.8044, 641.3906
918.2865, 640.9595
918.7686, 640.5972
919.2507, 640.8987
919.7328, 641.2080
920.2150, 640.7427
920.6971, 639.7859
921.1792, 639.0289
921.6613, 638.7874
922.1434, 638.5685
922.6255, 638.0325
923.1077, 637.7341
923.5898, 638.9786
924.0719, 641.6420
924.5540, 643.7697
925.0361, 645.0870
925.5182, 645.2914
926.0004, 642.6705
926.4825, 639.4489
926.9646, 638.5237
927.4467, 641.5316
927.9288, 643.6692
928.4109, 643.9724
928.8931, 643.8328
929.3752, 644.2164
929.8573, 645.1061
930.3394, 645.6728
930.8215, 645.9164
931.3036, 645.9387
931.7858, 645.8079
932.2679, 645.5124
932.7500, 644.9046
933.2321, 644.0711
933.7142, 643.5107
934.1964, 643.3760
934.6785, 643.5029
935.1606, 643.8444
935.6427, 644.4326
936.1248, 645.5986
936.6069, 647.2618
937.0891, 648.2403
937.5712, 647.8700
938.0533, 647.2034
938.5354, 647.1289
939.0175, 647.4601
939.4996, 647.9311
939.9818, 648.8635
940.4639, 649.2900
940.9460, 648.8552
941.4281, 648.3486
941.9102, 648.7278
942.3923, 649.8653
942.8745, 650.5402
943.3566, 650.6644
943.8387, 650.5741
944.3208, 649.9949
944.8029, 649.7312
945.2850, 650.7180
945.7672, 653.0739
946.2493, 655.0267
946.7314, 656.7770
947.2135, 657.4802
947.6956, 656.3863
948.1777, 654.1857
948.6599, 653.6182
949.1420, 654.4054
949.6241, 654.9615
950.1062, 653.8221
950.5883, 653.0653
951.0704, 654.8301
951.5526, 657.8350
952.0347, 659.5426
952.5168, 658.8367
952.9989, 658.7684
953.4810, 659.7095
953.9631, 661.0502
954.4453, 662.1130
954.9274, 662.9384
955.4095, 663.6384
955.8916, 664.2126
956.3737, 664.7807
956.8558, 665.0107
957.3380, 665.5745
957.8201, 667.3043
958.3022, 670.3401
958.7843, 672.1031
959.2664, 672.1527
959.7485, 672.3400
960.2307, 673.9200
960.7128, 676.0330
961.1949, 676.0966
961.6770, 674.8027
962.1591, 674.5781
962.6412, 678.1770
963.1234, 681.2541
963.6055, 681.1807
964.0876, 679.8245
964.5697, 680.4920
965.0518, 683.7793
965.5339, 686.2161
966.0161, 687.2178
966.4982, 687.9492
966.9803, 689.5440
967.4624, 691.9257
967.9445, 695.0536
968.4266, 699.0169
968.9088, 703.0533
969.3909, 707.3947
969.8730, 711.2313
970.3551, 714.0830
970.8372, 715.9602
971.3193, 717.8383
971.8015, 719.6719
972.2836, 722.1577
972.7657, 725.9943
973.2478, 730.3624
973.7299, 734.7497
974.2120, 738.9052
974.6942, 742.2605
975.1763, 743.6603
975.6584, 745.6032
976.1405, 748.7498
976.6226, 752.2408
977.1047, 754.6743
977.5869, 756.2050
978.0690, 758.3651
978.5511, 761.4111
979.0332, 764.5325
979.5153, 767.0734
979.9974, 769.3867
980.4796, 771.7810
980.9617, 774.2988
981.4438, 776.9484
981.9259, 780.0732
982.4080, 782.6672
982.8901, 784.2302
983.3723, 784.9795
983.8544, 785.4739
984.3365, 785.7385
984.8186, 785.8821
985.3007, 785.0842
985.7828, 785.1338
986.2650, 788.2211
986.7471, 792.1910
987.2292, 793.2459
987.7113, 790.1422
988.1934, 788.6478
988.6755, 789.4650
989.1577, 791.0727
989.6398, 791.9950
990.1219, 792.4590
990.6040, 793.0578
991.0861, 793.8713
991.5682, 793.6706
992.0504, 791.2980
992.5325, 788.4717
993.0146, 785.9150
993.4967, 783.6173
993.9788, 781.1077
994.4609, 778.3994
994.9431, 776.2030
995.4252, 775.0444
995.9073, 774.1935
996.3894, 772.6700
996.8715, 770.9504
997.3536, 769.7807
997.8358, 769.6638
998.3179, 769.7401
998.8000, 770.1653
999.2821, 770.4743
999.7642, 769.9600
1000.246, 768.8545
1000.728, 768.6448
1001.211, 769.3552
1001.693, 769.9760
1002.175, 769.5184
1002.657, 769.0223
1003.139, 769.3333
1003.621, 770.3025
1004.103, 770.7277
1004.585, 770.5536
1005.068, 769.8704
1005.550, 768.2809
1006.032, 767.0295
1006.514, 769.3654
1006.996, 773.2791
1007.478, 774.4370
1007.960, 770.1027
1008.442, 766.8697
1008.924, 767.5400
1009.407, 769.3772
1009.889, 770.6933
1010.371, 771.4542
1010.853, 772.6302
1011.335, 774.2403
1011.817, 775.6494
1012.299, 775.9890
1012.781, 776.3199
1013.263, 777.6475
1013.746, 779.8063
1014.228, 782.1947
1014.710, 785.1088
1015.192, 787.4180
1015.674, 788.6108
1016.156, 789.6965
1016.638, 792.4747
1017.120, 796.4388
1017.603, 800.0372
1018.085, 803.0315
1018.567, 805.6963
1019.049, 807.2362
1019.531, 809.3394
1020.013, 813.5214
1020.495, 819.6541
1020.977, 824.9852
1021.459, 829.5516
1021.942, 832.9153
1022.424, 834.4665
1022.906, 835.1826
1023.388, 836.4348
1023.870, 837.8942
1024.352, 838.9120
1024.834, 838.9476
1025.316, 839.1276
1025.799, 840.2665
1026.281, 840.6794
1026.763, 838.2396
1027.245, 833.4011
1027.727, 828.6784
1028.209, 824.2222
1028.691, 820.0408
1029.173, 816.9052
1029.656, 813.3291
1030.138, 807.5719
1030.620, 803.8949
1031.102, 795.4636
1031.584, 793.9023
1032.066, 790.7957
1032.548, 784.4167
1033.030, 777.1640
1033.512, 772.5950
1033.995, 769.6934
1034.477, 767.0411
1034.959, 764.7037
1035.441, 761.1409
1035.923, 754.3069
1036.405, 748.0744
1036.887, 744.8087
1037.369, 744.1326
1037.851, 742.5062
1038.334, 740.0081
1038.816, 737.0576
1039.298, 733.1922
1039.780, 729.6838
1040.262, 727.3262
1040.744, 725.9396
1041.226, 725.1801
1041.708, 725.3724
1042.191, 725.0862
1042.673, 724.1745
1043.155, 722.9512
1043.637, 721.5182
1044.119, 720.0739
1044.601, 718.8492
1045.083, 717.8671
1045.565, 717.4349
1046.047, 718.8668
1046.530, 719.2758
1047.012, 717.0298
1047.494, 713.6027
1047.976, 713.5258
1048.458, 716.3701
1048.940, 718.7386
1049.422, 719.7928
1049.904, 719.8620
1050.386, 718.1844
1050.869, 716.2722
1051.351, 715.7797
1051.833, 716.9906
1052.315, 718.1676
1052.797, 719.2965
1053.279, 720.4561
1053.761, 721.7818
1054.243, 723.1268
1054.726, 724.3290
1055.208, 725.3461
1055.690, 726.0740
1056.172, 725.8345
1056.654, 726.2407
1057.136, 727.8070
1057.618, 729.6821
1058.100, 730.9961
1058.583, 731.7589
1059.065, 731.6874
1059.547, 730.7961
1060.029, 730.5057
1060.511, 732.3546
1060.993, 734.6004
1061.475, 736.3139
1061.957, 737.5123
1062.439, 738.2995
1062.922, 738.5745
1063.404, 739.0711
1063.886, 739.9462
1064.368, 741.1730
1064.850, 743.4155
1065.332, 745.6727
1065.814, 746.1149
1066.296, 743.4708
1066.778, 743.4820
1067.261, 747.9879
1067.743, 752.6523
1068.225, 755.2955
1068.707, 756.4346
1069.189, 757.2010
1069.671, 757.8380
1070.153, 759.2404
1070.635, 762.5031
1071.118, 765.6555
1071.600, 767.5035
1072.082, 769.0673
1072.564, 771.3408
1073.046, 774.3458
1073.528, 777.6031
1074.010, 781.0751
1074.492, 784.5655
1074.974, 788.2620
1075.457, 791.5654
1075.939, 793.3587
1076.421, 794.1924
1076.903, 796.5411
1077.385, 801.3701
1077.867, 805.2415
1078.349, 807.3613
1078.831, 808.9174
1079.313, 811.8367
1079.796, 815.1773
1080.278, 817.2490
1080.760, 817.8101
1081.242, 817.6558
1081.724, 816.4114
1082.206, 815.2462
1082.688, 814.8107
1083.170, 814.6293
1083.653, 812.8441
1084.135, 809.8051
1084.617, 807.4861
1085.099, 806.9660
1085.581, 806.1741
1086.063, 803.4070
1086.545, 800.1171
1087.027, 797.6141
1087.510, 796.0226
1087.992, 794.4832
1088.474, 793.0436
1088.956, 791.0551
1089.438, 786.8571
1089.920, 783.0067
1090.402, 783.1791
1090.884, 785.5121
1091.366, 785.9805
1091.849, 782.4852
1092.331, 780.0463
1092.813, 779.1237
1093.295, 778.6026
1093.777, 777.2715
1094.259, 775.5644
1094.741, 774.3396
1095.223, 773.6095
1095.705, 773.0911
1096.188, 773.0293
1096.670, 772.7330
1097.152, 771.9883
1097.634, 771.0048
1098.116, 770.2150
1098.598, 769.5457
1099.080, 768.5363
1099.562, 767.1046
1100.045, 765.4984
1100.527, 763.4514
1101.009, 761.6908
1101.491, 760.9781
1101.973, 761.0275
1102.455, 760.0541
1102.937, 758.0064
1103.419, 756.2073
1103.901, 755.2900
1104.384, 754.3132
1104.866, 751.5543
1105.348, 748.5888
1105.830, 747.5900
1106.312, 749.6934
1106.794, 749.9318
1107.276, 747.8473
1107.758, 745.4680
1108.240, 743.8962
1108.723, 742.7871
1109.205, 741.4055
1109.687, 739.9633
1110.169, 738.9355
1110.651, 739.6141
1111.133, 738.9057
1111.615, 736.0262
1112.097, 732.7225
1112.580, 730.4203
1113.062, 729.0295
1113.544, 728.4010
1114.026, 728.4327
1114.508, 728.5519
1114.990, 728.9529
1115.472, 728.7672
1115.954, 727.1542
1116.437, 725.1917
1116.919, 724.5571
1117.401, 725.1697
1117.883, 726.1904
1118.365, 727.5673
1118.847, 727.9420
1119.329, 724.7199
1119.811, 721.5501
1120.293, 721.8375
1120.776, 724.4637
1121.258, 724.3773
1121.740, 721.1804
1122.222, 719.0295
1122.704, 719.0236
1123.186, 719.7521
1123.668, 720.1205
1124.150, 720.1662
1124.632, 719.8675
1125.115, 719.1807
1125.597, 718.6021
1126.079, 718.1882
1126.561, 717.7439
1127.043, 717.1674
1127.525, 716.5717
1128.007, 716.2013
1128.489, 715.9228
1128.972, 715.4359
1129.454, 714.3616
1129.936, 714.0516
1130.418, 715.0378
1130.900, 715.9365
1131.382, 715.7170
1131.864, 714.8885
1132.346, 715.1473
1132.828, 716.1173
1133.311, 716.6131
1133.793, 715.5805
1134.275, 714.7963
1134.757, 714.7028
1135.239, 714.9141
1135.721, 715.1304
1136.203, 715.3605
1136.685, 715.7083
1137.167, 716.1699
1137.650, 716.6813
1138.132, 717.6942
1138.614, 718.2018
1139.096, 717.2160
1139.578, 715.7286
1140.060, 715.0516
1140.542, 715.1870
1141.024, 716.0770
1141.507, 717.7495
1141.989, 718.2682
1142.471, 714.2943
1142.953, 710.4077
1143.435, 710.5433
1143.917, 713.4545
1144.399, 714.3962
1144.881, 712.9942
1145.364, 712.5274
1145.846, 713.6796
1146.328, 715.0909
1146.810, 715.5084
1147.292, 715.4240
1147.774, 715.1799
1148.256, 714.8366
1148.738, 714.7829
1149.220, 715.0628
1149.703, 715.5349
1150.185, 716.2845
1150.667, 716.8469
1151.149, 716.1238
1151.631, 715.0701
1152.113, 715.2682
1152.595, 717.2693
1153.077, 717.9103
1153.559, 716.4432
1154.042, 715.0706
1154.524, 714.5370
1155.006, 714.7899
1155.488, 716.3086
1155.970, 718.3996
1156.452, 719.6391
1156.934, 719.4590
1157.416, 719.0463
1157.898, 718.3005
1158.381, 717.9083
1158.863, 718.7312
1159.345, 719.9023
1159.827, 717.9661
1160.309, 714.3083
1160.791, 712.8544
1161.273, 716.9244
1161.755, 719.9160
1162.238, 720.3324
1162.720, 719.6179
1163.202, 718.3907
1163.684, 716.8898
1164.166, 716.5248
1164.648, 717.0582
1165.130, 717.4376
1165.612, 716.5008
1166.094, 716.1880
1166.577, 717.7896
1167.059, 719.5704
1167.541, 719.3574
1168.023, 717.5167
1168.505, 718.1066
1168.987, 720.8712
1169.469, 722.6429
1169.951, 720.0568
1170.433, 717.7902
1170.916, 718.2695
1171.398, 720.0724
1171.880, 721.7368
1172.362, 723.2395
1172.844, 723.7756
1173.326, 723.2950
1173.808, 722.0402
1174.290, 718.7800
1174.773, 716.2587
1175.255, 716.8157
1175.737, 718.9927
1176.219, 720.1630
1176.701, 720.3367
1177.183, 720.1874
1177.665, 719.7806
1178.147, 719.4479
1178.630, 719.0126
1179.112, 719.1453
1179.594, 721.0883
1180.076, 723.9424
1180.558, 724.6191
1181.040, 722.9852
1181.522, 721.7572
1182.004, 721.4415
1182.486, 721.6337
1182.969, 722.3060
1183.451, 723.0439
1183.933, 723.2017
1184.415, 722.9996
1184.897, 724.5081
1185.379, 728.0561
1185.861, 729.4255
1186.343, 727.0891
1186.825, 724.1412
1187.308, 723.2099
1187.790, 723.4321
1188.272, 724.5062
1188.754, 726.2890
1189.236, 726.1976
1189.718, 723.9329
1190.200, 722.8567
1190.682, 724.4194
1191.165, 726.5053
1191.647, 727.2047
1192.129, 727.0018
1192.611, 726.1658
1193.093, 724.6730
1193.575, 723.9551
1194.057, 724.1080
1194.539, 724.1816
1195.021, 723.4765
1195.504, 723.1760
1195.986, 725.3475
1196.468, 728.3313
1196.950, 729.8900
1197.432, 729.5876
1197.914, 729.4437
1198.396, 729.4731
1198.878, 729.5131
1199.360, 729.3754
1199.843, 729.3885
1200.325, 730.2297
1200.807, 731.3412
1201.289, 731.9160
1201.771, 731.8088
1202.253, 731.4608
1202.735, 730.8463
##END=



