##NAMES=Ferro-edenite
##RRUFFID=R060044
##IDEAL CHEMISTRY=NaCa_2_Fe^2+^_5_(Si_7_Al)O_22_(OH)_2_
##LOCALITY=Barkevik, Norway
##OWNER=RRUFF
##SOURCE=University of Arizona Mineral Museum
##DESCRIPTION=Black cleavage fragment
##STATUS=The identification of this mineral has been confirmed by X-ray diffraction and chemical analysis
##URL=rruff.info/R060044
##MEASURED CHEMISTRY=(Na_0.68_K_0.32_)(Ca_1.50_Na_0.50_)_Σ=2_(Fe^2+^_3.50_Mg_0.75_Fe^3+^_0.25_Ti_0.25_Mn_0.20_Al_0.05_)_Σ=5_(Si_6.64_Al_1.36_)_Σ=8_O_22_(OH)_2_
181.7152, 54.24508
182.1974, 54.30042
182.6795, 54.27500
183.1616, 54.06938
183.6437, 53.78844
184.1258, 53.61115
184.6079, 53.64502
185.0900, 53.86071
185.5722, 54.07367
186.0543, 54.43030
186.5364, 54.63900
187.0185, 54.44763
187.5006, 53.98487
187.9827, 53.66637
188.4649, 53.79776
188.9470, 54.26555
189.4291, 54.49493
189.9112, 54.30952
190.3933, 54.05725
190.8754, 53.95259
191.3576, 53.98737
191.8397, 54.05309
192.3218, 54.05851
192.8039, 54.06343
193.2860, 54.19828
193.7681, 54.56336
194.2503, 54.98852
194.7324, 55.30355
195.2145, 55.50200
195.6966, 55.64299
196.1787, 55.76925
196.6608, 55.85363
197.1430, 55.84512
197.6251, 55.69878
198.1072, 55.48167
198.5893, 55.26693
199.0714, 54.98769
199.5535, 54.89661
200.0357, 55.27712
200.5178, 55.83142
200.9999, 56.19889
201.4820, 56.17417
201.9641, 55.92128
202.4462, 55.90451
202.9284, 56.24644
203.4105, 56.63973
203.8926, 57.07440
204.3747, 57.47899
204.8568, 57.76051
205.3389, 57.85887
205.8211, 57.80704
206.3032, 57.74425
206.7853, 57.58058
207.2674, 57.52635
207.7495, 57.68962
208.2316, 57.96818
208.7138, 58.21447
209.1959, 58.33434
209.6780, 58.35494
210.1601, 58.46980
210.6422, 58.91530
211.1243, 59.20643
211.6065, 59.12827
212.0886, 58.85114
212.5707, 58.66131
213.0528, 58.74781
213.5349, 59.07727
214.0170, 59.32838
214.4992, 59.53422
214.9813, 59.63668
215.4634, 59.53645
215.9455, 59.31704
216.4276, 59.15110
216.9097, 59.15614
217.3919, 59.30906
217.8740, 59.39061
218.3561, 59.38939
218.8382, 59.34788
219.3203, 59.22430
219.8024, 59.06233
220.2845, 58.99663
220.7667, 59.13935
221.2488, 59.43496
221.7309, 59.56895
222.2130, 59.45220
222.6951, 59.28280
223.1772, 59.15251
223.6594, 59.05236
224.1415, 58.93586
224.6236, 58.77186
225.1057, 58.57186
225.5878, 58.38252
226.0699, 58.20008
226.5521, 58.03068
227.0342, 57.90393
227.5163, 57.81113
227.9984, 57.65458
228.4805, 57.31384
228.9626, 56.91323
229.4448, 56.69527
229.9269, 56.75590
230.4090, 56.87794
230.8911, 56.88289
231.3732, 56.77018
231.8553, 56.63906
232.3375, 56.57885
232.8196, 56.49327
233.3017, 56.22588
233.7838, 55.67554
234.2659, 55.14503
234.7480, 55.04890
235.2302, 55.45025
235.7123, 55.67358
236.1944, 55.28632
236.6765, 54.70557
237.1586, 54.25538
237.6407, 54.00151
238.1229, 53.86981
238.6050, 53.79264
239.0871, 53.78007
239.5692, 53.77016
240.0513, 53.82353
240.5334, 53.82673
241.0156, 53.66307
241.4977, 53.30654
241.9798, 52.89840
242.4619, 52.62998
242.9440, 52.53694
243.4261, 52.44493
243.9083, 52.37594
244.3904, 52.26508
244.8725, 52.03635
245.3546, 51.68440
245.8367, 51.31297
246.3188, 51.06169
246.8010, 50.95371
247.2831, 50.90013
247.7652, 51.01820
248.2473, 51.09575
248.7294, 50.97793
249.2115, 50.65373
249.6937, 50.24829
250.1758, 49.89173
250.6579, 49.51985
251.1400, 49.38565
251.6221, 49.73162
252.1042, 50.09687
252.5864, 50.20512
253.0685, 50.03801
253.5506, 49.76766
254.0327, 49.60446
254.5148, 49.60773
254.9969, 49.52884
255.4790, 49.34477
255.9612, 49.11375
256.4433, 48.82582
256.9254, 48.50645
257.4075, 48.22562
257.8896, 48.06352
258.3718, 48.04286
258.8539, 48.04894
259.3360, 48.07970
259.8181, 48.13221
260.3002, 47.96083
260.7823, 48.27184
261.2645, 48.44250
261.7466, 48.48038
262.2287, 47.98775
262.7108, 48.18016
263.1929, 48.09805
263.6750, 48.00467
264.1572, 48.29350
264.6393, 47.87803
265.1214, 48.16079
265.6035, 48.16484
266.0856, 48.29645
266.5677, 48.15182
267.0499, 48.09252
267.5320, 48.30954
268.0141, 48.37355
268.4962, 48.19713
268.9783, 48.33685
269.4604, 47.91173
269.9426, 47.98226
270.4247, 48.26664
270.9068, 48.10411
271.3889, 48.24888
271.8710, 48.27661
272.3531, 47.77246
272.8352, 48.19330
273.3174, 48.21411
273.7995, 47.82418
274.2816, 48.04201
274.7637, 47.89162
275.2458, 47.76926
275.7279, 47.80890
276.2101, 47.93433
276.6922, 47.97942
277.1743, 47.85950
277.6564, 47.63073
278.1385, 47.44219
278.6206, 47.28320
279.1028, 47.16972
279.5849, 47.09240
280.0670, 47.06599
280.5491, 47.14317
281.0312, 47.36530
281.5133, 47.63185
281.9955, 47.75316
282.4776, 47.74688
282.9597, 47.60964
283.4418, 47.19061
283.9239, 46.67510
284.4060, 46.37620
284.8882, 46.39272
285.3703, 46.54274
285.8524, 46.55610
286.3345, 46.41027
286.8166, 46.38159
287.2987, 46.73864
287.7809, 47.16071
288.2630, 47.15240
288.7451, 46.59310
289.2272, 45.94880
289.7093, 45.75403
290.1914, 45.97855
290.6736, 46.13326
291.1557, 46.13929
291.6378, 46.04538
292.1199, 45.83867
292.6020, 45.51157
293.0841, 45.28659
293.5663, 45.44512
294.0484, 45.88855
294.5305, 46.08781
295.0126, 45.71914
295.4947, 45.27196
295.9768, 45.24083
296.4590, 45.61761
296.9411, 45.95044
297.4232, 45.94288
297.9053, 45.67362
298.3874, 45.44051
298.8695, 45.25948
299.3517, 45.10750
299.8338, 44.97670
300.3159, 44.86501
300.7980, 44.76130
301.2801, 44.66294
301.7622, 44.56898
302.2444, 44.48014
302.7265, 44.40547
303.2086, 44.31504
303.6907, 44.13439
304.1728, 43.91007
304.6549, 43.83659
305.1371, 44.03699
305.6192, 44.32892
306.1013, 44.44797
306.5834, 44.38998
307.0655, 44.27053
307.5476, 44.10378
308.0298, 43.91312
308.5119, 43.75479
308.9940, 43.64651
309.4761, 43.55701
309.9582, 43.44959
310.4403, 43.32658
310.9225, 43.21375
311.4046, 43.09896
311.8867, 43.00510
312.3688, 43.00647
312.8509, 43.13818
313.3330, 43.21128
313.8152, 42.94489
314.2973, 42.46523
314.7794, 42.20289
315.2615, 42.44321
315.7436, 42.82175
316.2257, 42.94076
316.7079, 42.78658
317.1900, 42.55372
317.6721, 42.31090
318.1542, 42.08648
318.6363, 41.94522
319.1184, 41.96248
319.6006, 41.97803
320.0827, 41.81982
320.5648, 41.51927
321.0469, 41.32610
321.5290, 41.40317
322.0111, 41.60180
322.4933, 41.62208
322.9754, 41.39253
323.4575, 41.20498
323.9396, 41.29599
324.4217, 41.56274
324.9038, 41.66312
325.3860, 41.44370
325.8681, 41.13725
326.3502, 41.11317
326.8323, 41.37532
327.3144, 41.50784
327.7965, 41.25751
328.2787, 40.81183
328.7608, 40.47125
329.2429, 40.28054
329.7250, 39.95347
330.2071, 40.25079
330.6892, 40.40778
331.1714, 40.43198
331.6535, 39.92567
332.1356, 40.10440
332.6177, 40.00860
333.0998, 39.90154
333.5819, 40.17669
334.0641, 39.74754
334.5462, 40.01662
335.0283, 40.00699
335.5104, 40.12492
335.9925, 39.96662
336.4746, 39.89363
336.9568, 40.09697
337.4389, 40.14730
337.9210, 39.95721
338.4031, 40.08324
338.8852, 39.64444
339.3673, 39.70129
339.8495, 39.85159
340.3316, 39.93255
340.8137, 39.97370
341.2958, 39.93921
341.7779, 39.80611
342.2600, 39.63886
342.7421, 39.52159
343.2242, 39.44980
343.7064, 39.43111
344.1885, 39.51761
344.6706, 39.63288
345.1527, 39.69894
345.6348, 39.70436
346.1169, 39.65992
346.5991, 39.56635
347.0812, 39.41939
347.5633, 39.27845
348.0454, 39.07404
348.5275, 38.93171
349.0096, 39.02742
349.4918, 39.29761
349.9739, 39.42800
350.4560, 39.19062
350.9381, 38.67820
351.4202, 38.36073
351.9023, 38.41258
352.3845, 38.42472
352.8666, 38.13941
353.3487, 37.74706
353.8308, 37.65592
354.3129, 38.05550
354.7950, 38.64516
355.2772, 38.81488
355.7593, 38.30248
356.2414, 37.94708
356.7235, 37.90067
357.2056, 38.00167
357.6877, 38.13924
358.1699, 38.27822
358.6520, 38.34828
359.1341, 38.25348
359.6162, 37.94269
360.0983, 37.74945
360.5804, 37.75265
361.0626, 37.78822
361.5447, 37.76760
362.0268, 37.69893
362.5089, 37.63011
362.9910, 37.58923
363.4731, 37.57965
363.9553, 37.63744
364.4374, 37.85862
364.9195, 38.03067
365.4016, 38.17704
365.8837, 38.22833
366.3658, 38.01987
366.8480, 37.48481
367.3301, 36.84364
367.8122, 36.58249
368.2943, 37.02718
368.7764, 37.37041
369.2585, 37.58587
369.7407, 37.72697
370.2228, 37.86244
370.7049, 37.98518
371.1870, 37.99490
371.6691, 37.74322
372.1512, 37.14972
372.6334, 36.79448
373.1155, 36.87708
373.5976, 36.98748
374.0797, 36.99126
374.5618, 36.90525
375.0439, 36.79932
375.5261, 36.72037
376.0082, 36.65580
376.4903, 36.54301
376.9724, 36.38811
377.4545, 36.16619
377.9366, 35.76532
378.4188, 35.35170
378.9009, 35.10364
379.3830, 35.07961
379.8651, 35.18383
380.3472, 35.27847
380.8293, 35.37276
381.3115, 35.42798
381.7936, 35.42187
382.2757, 35.39139
382.7578, 35.34876
383.2399, 35.29757
383.7220, 35.24341
384.2042, 35.21740
384.6863, 35.20980
385.1684, 35.05397
385.6505, 34.55339
386.1326, 34.18815
386.6147, 34.25691
387.0969, 34.54813
387.5790, 34.71312
388.0611, 34.57207
388.5432, 34.28361
389.0253, 34.16167
389.5074, 34.26443
389.9896, 34.27252
390.4717, 33.97242
390.9538, 33.59307
391.4359, 33.29651
391.9180, 33.10402
392.4001, 33.02530
392.8823, 33.14816
393.3644, 33.42589
393.8465, 33.55820
394.3286, 33.44652
394.8107, 33.26315
395.2928, 33.08433
395.7750, 32.93628
396.2571, 32.93935
396.7392, 33.38308
397.2213, 33.89374
397.7034, 33.81492
398.1855, 33.08537
398.6677, 32.46842
399.1498, 32.47834
399.6319, 32.88390
400.1140, 33.11861
400.5961, 33.10439
401.0782, 33.01341
401.5604, 32.92919
402.0425, 32.84571
402.5246, 32.74439
403.0067, 32.61880
403.4888, 32.47421
403.9709, 32.29351
404.4531, 32.05655
404.9352, 31.92414
405.4173, 32.01271
405.8994, 32.16591
406.3815, 32.21120
406.8636, 32.14248
407.3458, 32.09544
407.8279, 32.20057
408.3100, 32.43943
408.7921, 32.50906
409.2742, 32.23156
409.7563, 32.00461
410.2385, 32.00412
410.7206, 32.14964
411.2027, 32.30674
411.6848, 32.42072
412.1669, 32.48830
412.6490, 32.50010
413.1311, 32.41896
413.6133, 32.34036
414.0954, 32.26575
414.5775, 32.19265
415.0596, 32.08671
415.5417, 31.96654
416.0238, 31.92272
416.5060, 32.06141
416.9881, 32.39034
417.4702, 32.57624
417.9523, 32.44290
418.4344, 32.35370
418.9165, 32.45689
419.3987, 32.63859
419.8808, 32.72029
420.3629, 32.61798
420.8450, 32.41985
421.3271, 32.31689
421.8092, 32.35637
422.2914, 32.37340
422.7735, 32.30573
423.2556, 32.24488
423.7377, 32.24805
424.2198, 32.31764
424.7019, 32.42075
425.1841, 32.57598
425.6662, 32.76554
426.1483, 32.76673
426.6304, 32.43808
427.1125, 32.15091
427.5946, 32.12156
428.0768, 32.22382
428.5589, 32.26574
429.0410, 32.15910
429.5231, 32.01637
430.0052, 32.01917
430.4873, 32.17324
430.9695, 32.21197
431.4516, 31.98877
431.9337, 31.67945
432.4158, 31.46736
432.8979, 31.35238
433.3800, 31.30584
433.8622, 31.40170
434.3443, 31.53241
434.8264, 31.46053
435.3085, 31.13771
435.7906, 30.84397
436.2727, 30.84272
436.7549, 31.05145
437.2370, 31.06687
437.7191, 30.66282
438.2012, 30.28012
438.6833, 30.14771
439.1654, 30.21575
439.6476, 30.40726
440.1297, 30.72240
440.6118, 31.01752
441.0939, 31.02315
441.5760, 30.59341
442.0581, 30.27143
442.5403, 30.14618
443.0224, 30.09017
443.5045, 29.99552
443.9866, 29.86814
444.4687, 29.80267
444.9508, 29.89072
445.4330, 30.10618
445.9151, 30.15633
446.3972, 29.86029
446.8793, 29.61118
447.3614, 29.42036
447.8435, 29.32736
448.3257, 29.43659
448.8078, 29.75862
449.2899, 30.09590
449.7720, 30.11877
450.2541, 29.68561
450.7362, 29.43090
451.2184, 29.51569
451.7005, 29.63350
452.1826, 29.69122
452.6647, 29.68330
453.1468, 29.61956
453.6289, 29.48656
454.1111, 29.32427
454.5932, 29.24420
455.0753, 29.26159
455.5574, 29.31344
456.0395, 29.43455
456.5216, 29.54942
457.0038, 29.59939
457.4859, 29.57634
457.9680, 29.49590
458.4501, 29.32751
458.9322, 29.10491
459.4143, 28.96063
459.8965, 28.92116
460.3786, 28.92692
460.8607, 28.93760
461.3428, 28.95820
461.8249, 29.00796
462.3070, 29.16162
462.7892, 29.27573
463.2713, 29.20361
463.7534, 28.99010
464.2355, 28.79375
464.7176, 28.66247
465.1997, 28.60463
465.6819, 28.66990
466.1640, 28.92556
466.6461, 29.03848
467.1282, 28.81308
467.6103, 28.54450
468.0924, 28.48378
468.5746, 28.62814
469.0567, 28.83530
469.5388, 29.01107
470.0209, 29.15304
470.5030, 29.24667
470.9851, 29.28266
471.4673, 29.27787
471.9494, 29.20214
472.4315, 29.10311
472.9136, 29.02229
473.3957, 28.97234
473.8778, 28.94785
474.3600, 28.94671
474.8421, 28.97317
475.3242, 28.99034
475.8063, 28.94840
476.2884, 28.95281
476.7705, 29.09201
477.2527, 29.28944
477.7348, 29.41678
478.2169, 29.41131
478.6990, 29.32805
479.1811, 29.23557
479.6632, 29.12467
480.1454, 29.08216
480.6275, 29.15947
481.1096, 29.28564
481.5917, 29.40437
482.0738, 29.51532
482.5559, 29.62975
483.0380, 29.79533
483.5201, 29.95131
484.0023, 29.99710
484.4844, 29.92784
484.9665, 29.77320
485.4486, 29.45877
485.9307, 29.12272
486.4128, 29.13345
486.8950, 29.66273
487.3771, 30.14927
487.8592, 30.44357
488.3413, 30.56442
488.8234, 30.44992
489.3055, 30.10960
489.7877, 29.83548
490.2698, 29.95057
490.7519, 30.48728
491.2340, 30.77701
491.7161, 30.70111
492.1982, 30.56415
492.6804, 30.37784
493.1625, 30.21582
493.6446, 30.19817
494.1267, 30.36384
494.6088, 30.59738
495.0909, 30.69473
495.5731, 30.58580
496.0552, 30.56407
496.5373, 30.70980
497.0194, 30.86971
497.5015, 30.97932
497.9836, 31.05508
498.4658, 31.15174
498.9479, 31.31605
499.4300, 31.48484
499.9121, 31.50860
500.3942, 31.35622
500.8763, 31.24637
501.3585, 31.21207
501.8406, 31.27524
502.3227, 31.52206
502.8048, 31.93994
503.2869, 32.22010
503.7690, 32.10611
504.2512, 31.81170
504.7333, 31.63825
505.2154, 31.60177
505.6975, 31.68705
506.1796, 31.94823
506.6617, 32.29083
507.1439, 32.40238
507.6260, 32.13583
508.1081, 31.94939
508.5902, 32.03388
509.0723, 32.22697
509.5544, 32.33538
510.0366, 32.33176
510.5187, 32.32475
511.0008, 32.42084
511.4829, 32.61956
511.9650, 32.76793
512.4471, 32.82448
512.9293, 32.87999
513.4114, 32.92799
513.8935, 32.99479
514.3756, 33.12880
514.8577, 33.33686
515.3398, 33.54693
515.8220, 33.65269
516.3041, 33.64085
516.7862, 33.66580
517.2683, 33.72307
517.7504, 33.82908
518.2325, 34.07252
518.7147, 34.34662
519.1968, 34.45225
519.6789, 34.27876
520.1610, 34.02392
520.6431, 33.90290
521.1252, 33.90239
521.6074, 33.91053
522.0895, 33.89049
522.5716, 33.89296
523.0537, 34.00371
523.5358, 34.20514
524.0179, 34.35919
524.5001, 34.46131
524.9822, 34.49363
525.4643, 34.38448
525.9464, 34.18958
526.4285, 34.07875
526.9106, 34.13076
527.3928, 34.26266
527.8749, 34.31421
528.3570, 34.20568
528.8391, 34.20739
529.3212, 34.47693
529.8033, 34.70391
530.2855, 34.69411
530.7676, 34.49601
531.2497, 34.25158
531.7318, 34.03755
532.2139, 33.86057
532.6960, 33.73964
533.1782, 33.68143
533.6603, 33.66060
534.1424, 33.79112
534.6245, 33.86340
535.1066, 33.69444
535.5887, 33.33102
536.0709, 33.01078
536.5530, 32.88420
537.0351, 32.88409
537.5172, 32.89991
537.9993, 32.93269
538.4814, 32.96468
538.9636, 33.01568
539.4457, 33.03472
539.9278, 32.91874
540.4099, 32.64096
540.8920, 32.40905
541.3741, 32.27050
541.8563, 32.20957
542.3384, 32.26463
542.8205, 32.40305
543.3026, 32.46905
543.7847, 32.35801
544.2668, 32.11442
544.7490, 31.90094
545.2311, 31.72203
545.7132, 31.57083
546.1953, 31.44407
546.6774, 31.34651
547.1595, 31.30401
547.6417, 31.29999
548.1238, 31.27316
548.6059, 31.16849
549.0880, 31.01121
549.5701, 30.90255
550.0522, 30.85991
550.5344, 30.82264
551.0165, 30.80406
551.4986, 30.76289
551.9807, 30.64875
552.4628, 30.46180
552.9449, 30.28492
553.4271, 30.16832
553.9092, 30.09257
554.3913, 30.04163
554.8734, 30.01510
555.3555, 29.93229
555.8376, 29.70009
556.3198, 29.42319
556.8019, 29.41544
557.2840, 29.85917
557.7661, 30.07549
558.2482, 29.73826
558.7303, 29.25747
559.2125, 28.98125
559.6946, 28.92727
560.1767, 28.94991
560.6588, 28.95202
561.1409, 28.93859
561.6230, 28.92879
562.1052, 28.90053
562.5873, 28.91610
563.0694, 29.11785
563.5515, 29.25381
564.0336, 29.08347
564.5157, 28.64955
564.9979, 28.22209
565.4800, 27.97087
565.9621, 27.86890
566.4442, 27.88662
566.9263, 28.05118
567.4084, 28.14634
567.8906, 28.05142
568.3727, 27.88099
568.8548, 27.79911
569.3369, 27.81317
569.8190, 27.79141
570.3011, 27.56425
570.7833, 27.36703
571.2654, 27.55723
571.7475, 28.04754
572.2296, 28.35916
572.7117, 28.23159
573.1938, 27.80029
573.6760, 27.37850
574.1581, 26.87839
574.6402, 26.56715
575.1223, 26.55627
575.6044, 26.61917
576.0865, 26.66175
576.5687, 26.66311
577.0508, 26.60589
577.5329, 26.47122
578.0150, 26.30812
578.4971, 26.24716
578.9792, 26.32272
579.4614, 26.30120
579.9435, 26.05766
580.4256, 25.79503
580.9077, 25.65582
581.3898, 25.62377
581.8719, 25.62797
582.3541, 25.65451
582.8362, 25.69702
583.3183, 25.79481
583.8004, 25.91239
584.2825, 25.87817
584.7646, 25.60962
585.2468, 25.31466
585.7289, 25.28672
586.2110, 25.60450
586.6931, 25.72311
587.1752, 25.45103
587.6573, 25.20103
588.1394, 25.15817
588.6215, 25.24087
589.1036, 25.32837
589.5858, 25.37400
590.0679, 25.37304
590.5500, 25.28532
591.0321, 25.08993
591.5142, 25.03613
591.9963, 25.19699
592.4785, 25.39548
592.9606, 25.61625
593.4427, 25.80345
593.9248, 25.85441
594.4069, 25.71916
594.8890, 25.57887
595.3712, 25.61915
595.8533, 25.74499
596.3354, 25.70028
596.8175, 25.44327
597.2996, 25.20122
597.7817, 25.13343
598.2639, 25.21807
598.7460, 25.34392
599.2281, 25.46885
599.7102, 25.68480
600.1923, 26.20401
600.6744, 26.68367
601.1566, 26.73850
601.6387, 26.40700
602.1208, 26.04339
602.6029, 25.90471
603.0850, 25.96148
603.5671, 26.13578
604.0493, 26.53332
604.5314, 26.76469
605.0135, 26.56790
605.4956, 26.31148
605.9777, 26.22726
606.4598, 26.31403
606.9420, 26.46878
607.4241, 26.74499
607.9062, 26.99491
608.3883, 26.96540
608.8704, 26.71732
609.3525, 26.60376
609.8347, 26.76917
610.3168, 27.04507
610.7989, 27.20940
611.2810, 27.24542
611.7631, 27.23305
612.2452, 27.05595
612.7274, 26.95819
613.2095, 27.12992
613.6916, 27.41865
614.1737, 27.59478
614.6558, 27.58052
615.1379, 27.46094
615.6201, 27.28577
616.1022, 27.04777
616.5843, 27.06215
617.0664, 27.49446
617.5485, 27.88331
618.0306, 27.95378
618.5128, 27.88675
618.9949, 27.90273
619.4770, 28.04700
619.9591, 28.19565
620.4412, 28.27123
620.9233, 28.31104
621.4055, 28.36295
621.8876, 28.43323
622.3697, 28.52789
622.8518, 28.65287
623.3339, 28.80115
623.8160, 28.95329
624.2982, 29.13296
624.7803, 29.27577
625.2624, 29.32795
625.7445, 29.39311
626.2266, 29.55487
626.7087, 29.78106
627.1909, 29.98618
627.6730, 30.12496
628.1551, 30.21973
628.6372, 30.29398
629.1193, 30.34644
629.6014, 30.42565
630.0836, 30.52985
630.5657, 30.67662
631.0478, 30.92875
631.5299, 31.23464
632.0120, 31.46173
632.4941, 31.56403
632.9763, 31.62284
633.4584, 31.62330
633.9405, 31.62811
634.4226, 31.76078
634.9047, 32.02660
635.3868, 32.28160
635.8690, 32.39618
636.3511, 32.39773
636.8332, 32.47603
637.3153, 32.64915
637.7974, 32.87445
638.2795, 33.12812
638.7617, 33.43871
639.2438, 33.89850
639.7259, 34.45207
640.2080, 34.87837
640.6901, 35.00341
641.1722, 34.99092
641.6544, 35.05053
642.1365, 35.18665
642.6186, 35.46988
643.1007, 35.95757
643.5828, 36.49332
644.0649, 36.91980
644.5471, 37.23040
645.0292, 37.47954
645.5113, 37.54885
645.9934, 37.69482
646.4755, 38.11060
646.9576, 38.60721
647.4398, 38.90677
647.9219, 38.97736
648.4040, 39.03820
648.8861, 39.30385
649.3682, 39.74184
649.8503, 40.15888
650.3325, 40.55974
650.8146, 40.91818
651.2967, 41.20275
651.7788, 41.45481
652.2609, 41.72405
652.7430, 42.00667
653.2252, 42.24251
653.7073, 42.38540
654.1894, 42.49152
654.6715, 42.62952
655.1536, 42.77348
655.6357, 42.84738
656.1179, 42.82521
656.6000, 42.72550
657.0821, 42.55988
657.5642, 42.31516
658.0463, 42.12943
658.5284, 41.92482
659.0106, 41.88054
659.4927, 42.29459
659.9748, 42.73317
660.4569, 42.63321
660.9390, 41.96404
661.4211, 41.37732
661.9033, 41.56455
662.3854, 42.12683
662.8675, 42.13346
663.3496, 41.58319
663.8317, 41.07875
664.3138, 40.89172
664.7960, 40.77858
665.2781, 40.34521
665.7602, 39.49901
666.2423, 38.86749
666.7244, 38.64824
667.2065, 38.44734
667.6887, 38.02344
668.1708, 37.53095
668.6529, 37.25901
669.1350, 37.26177
669.6171, 37.24623
670.0992, 36.85379
670.5814, 36.13923
671.0635, 35.59068
671.5456, 35.22578
672.0277, 34.97455
672.5098, 34.95375
672.9919, 34.92250
673.4741, 34.50787
673.9562, 33.69009
674.4383, 33.10559
674.9204, 33.16248
675.4025, 33.30678
675.8846, 33.07279
676.3668, 32.59399
676.8489, 32.19998
677.3310, 32.00481
677.8131, 31.89802
678.2952, 31.75243
678.7773, 31.56832
679.2595, 31.32947
679.7416, 30.95586
680.2237, 30.66088
680.7058, 30.59115
681.1879, 30.56401
681.6700, 30.37344
682.1522, 30.01554
682.6343, 29.72726
683.1164, 29.69873
683.5985, 29.76512
684.0806, 29.71480
684.5627, 29.57799
685.0449, 29.51522
685.5270, 29.59020
686.0091, 29.66602
686.4912, 29.54730
686.9733, 29.20335
687.4554, 29.02056
687.9376, 29.14295
688.4197, 29.25204
688.9018, 29.33324
689.3839, 29.34583
689.8660, 29.19532
690.3481, 28.90629
690.8303, 28.68963
691.3124, 28.73981
691.7945, 28.92358
692.2766, 29.02736
692.7587, 29.05025
693.2408, 28.94681
693.7230, 28.65498
694.2051, 28.39922
694.6872, 28.47907
695.1693, 28.91938
695.6514, 29.14864
696.1335, 29.05901
696.6157, 28.91428
697.0978, 28.70978
697.5799, 28.52758
698.0620, 28.47007
698.5441, 28.52915
699.0262, 28.59411
699.5084, 28.59046
699.9905, 28.53111
700.4726, 28.41645
700.9547, 28.24328
701.4368, 28.16056
701.9189, 28.23030
702.4011, 28.34176
702.8832, 28.35423
703.3653, 28.29363
703.8474, 28.41589
704.3295, 29.01822
704.8116, 29.43192
705.2938, 29.37162
705.7759, 29.09615
706.2580, 28.78900
706.7401, 28.52125
707.2222, 28.38754
707.7043, 28.47439
708.1865, 28.66844
708.6686, 28.66844
709.1507, 28.44471
709.6328, 28.43273
710.1149, 28.83839
710.5970, 29.21557
711.0792, 29.13431
711.5613, 28.76052
712.0434, 28.60298
712.5255, 28.88087
713.0076, 29.04074
713.4897, 28.78058
713.9719, 28.41003
714.4540, 28.20689
714.9361, 28.18231
715.4182, 28.25064
715.9003, 28.36909
716.3824, 28.50447
716.8646, 28.61432
717.3467, 28.70913
717.8288, 28.65114
718.3109, 28.35143
718.7930, 28.04451
719.2751, 27.83271
719.7573, 27.71076
720.2394, 27.68750
720.7215, 27.79193
721.2036, 27.88520
721.6857, 27.92140
722.1678, 27.92649
722.6500, 27.86184
723.1321, 27.78909
723.6142, 27.91763
724.0963, 28.32657
724.5784, 28.71712
725.0605, 28.58322
725.5427, 27.90284
726.0248, 27.59890
726.5069, 27.83945
726.9890, 28.08081
727.4711, 28.11087
727.9532, 28.03153
728.4354, 27.94848
728.9175, 27.86524
729.3995, 27.78149
729.8817, 27.65699
730.3638, 27.57155
730.8459, 27.65369
731.3280, 27.79436
731.8101, 27.73939
732.2922, 27.44840
732.7744, 27.19768
733.2565, 27.29593
733.7386, 27.66450
734.2207, 27.78537
734.7028, 27.58106
735.1849, 27.38157
735.6671, 27.27244
736.1492, 27.18413
736.6313, 27.04947
737.1134, 26.88190
737.5955, 26.74022
738.0776, 26.57475
738.5598, 26.51640
739.0419, 26.75166
739.5240, 27.06410
740.0061, 27.16245
740.4882, 27.03918
740.9703, 26.87456
741.4525, 26.78645
741.9346, 26.74246
742.4167, 26.63694
742.8988, 26.43942
743.3809, 26.42166
743.8630, 26.72915
744.3452, 27.01609
744.8273, 27.02803
745.3094, 26.88352
745.7915, 26.78442
746.2736, 26.71891
746.7557, 26.77406
747.2379, 27.17181
747.7200, 27.53748
748.2021, 27.50108
748.6842, 27.17839
749.1663, 26.85282
749.6484, 26.64508
750.1306, 26.56005
750.6127, 26.62919
751.0948, 26.84238
751.5769, 27.08780
752.0590, 27.40703
752.5411, 27.60016
753.0233, 27.56738
753.5054, 27.39677
753.9875, 27.13932
754.4696, 26.79443
754.9517, 26.62465
755.4338, 26.77991
755.9160, 26.98162
756.3981, 27.18827
756.8802, 27.32830
757.3623, 27.26929
757.8444, 27.03372
758.3265, 26.81541
758.8087, 26.75715
759.2908, 26.81782
759.7729, 26.93863
760.2550, 27.11944
760.7371, 27.19321
761.2192, 27.08584
761.7014, 26.99469
762.1835, 27.08798
762.6656, 27.32084
763.1477, 27.49745
763.6298, 27.60344
764.1119, 27.68526
764.5941, 27.71560
765.0762, 27.75403
765.5583, 27.86484
766.0404, 28.00901
766.5225, 28.10183
767.0046, 28.11109
767.4868, 28.08791
767.9689, 28.09170
768.4510, 28.10619
768.9331, 28.05916
769.4152, 27.94753
769.8973, 27.89966
770.3795, 27.97829
770.8616, 28.11894
771.3437, 28.22816
771.8258, 28.29400
772.3079, 28.41184
772.7900, 28.74081
773.2722, 28.91577
773.7543, 28.74844
774.2364, 28.47289
774.7185, 28.26498
775.2006, 28.15764
775.6827, 28.16059
776.1649, 28.35424
776.6470, 28.54830
777.1291, 28.46293
777.6112, 28.21755
778.0933, 28.14702
778.5754, 28.30106
779.0576, 28.49537
779.5397, 28.60863
780.0218, 28.64631
780.5039, 28.61668
780.9860, 28.48368
781.4681, 28.37736
781.9503, 28.26406
782.4324, 28.22413
782.9145, 28.37642
783.3966, 28.58178
783.8787, 28.60129
784.3608, 28.37101
784.8430, 28.25171
785.3251, 28.56743
785.8072, 28.93229
786.2893, 28.97054
786.7714, 28.77456
787.2535, 28.55242
787.7357, 28.38061
788.2178, 28.31340
788.6999, 28.42463
789.1820, 28.68016
789.6641, 28.89447
790.1462, 29.06403
790.6284, 29.22029
791.1105, 29.43032
791.5926, 29.54089
792.0747, 29.31211
792.5568, 28.85749
793.0389, 28.63749
793.5211, 28.76909
794.0032, 28.98060
794.4853, 29.27569
794.9674, 29.56583
795.4495, 29.81792
795.9316, 30.00076
796.4138, 30.03991
796.8959, 29.90324
797.3780, 29.74286
797.8601, 29.76459
798.3422, 29.90369
798.8243, 29.91033
799.3065, 29.77527
799.7886, 29.70528
800.2707, 29.79528
800.7528, 29.93800
801.2349, 29.98636
801.7170, 29.92910
802.1992, 29.96167
802.6813, 30.24694
803.1634, 30.40752
803.6455, 30.32315
804.1276, 30.15603
804.6097, 29.97208
805.0919, 29.81579
805.5740, 29.79115
806.0561, 29.98572
806.5382, 30.20922
807.0203, 30.29476
807.5024, 30.31644
807.9846, 30.41903
808.4667, 30.58942
808.9488, 30.67830
809.4309, 30.60402
809.9130, 30.46681
810.3951, 30.43825
810.8773, 30.52680
811.3594, 30.59209
811.8415, 30.60275
812.3236, 30.67278
812.8057, 30.92930
813.2878, 31.18834
813.7700, 31.21686
814.2521, 31.02740
814.7342, 30.85958
815.2163, 30.84549
815.6984, 30.73498
816.1805, 30.22068
816.6627, 29.71213
817.1448, 29.72614
817.6269, 30.17005
818.1090, 30.54198
818.5911, 30.56967
819.0732, 30.44547
819.5554, 30.44440
820.0375, 30.51361
820.5196, 30.41413
821.0017, 30.12604
821.4838, 29.87694
821.9659, 29.78471
822.4481, 29.77228
822.9302, 29.70216
823.4123, 29.54559
823.8944, 29.53022
824.3765, 29.84277
824.8586, 30.03787
825.3408, 29.94786
825.8229, 29.76742
826.3050, 29.63739
826.7871, 29.56611
827.2692, 29.53034
827.7513, 29.55082
828.2335, 29.55964
828.7156, 29.46895
829.1977, 29.36925
829.6798, 29.43062
830.1619, 29.60868
830.6440, 29.66560
831.1262, 29.47666
831.6083, 29.22422
832.0904, 29.22626
832.5725, 29.45391
833.0546, 29.49554
833.5367, 29.31703
834.0189, 29.11680
834.5010, 28.93134
834.9831, 28.82666
835.4652, 28.93501
835.9473, 29.26944
836.4294, 29.37333
836.9116, 29.04102
837.3937, 28.77996
837.8758, 28.75879
838.3579, 28.75986
838.8400, 28.60717
839.3221, 28.34022
839.8043, 28.07519
840.2864, 27.82965
840.7685, 27.70458
841.2506, 27.84141
841.7327, 28.10954
842.2148, 28.36769
842.6970, 28.58533
843.1791, 28.70616
843.6612, 28.71063
844.1433, 28.62609
844.6254, 28.46962
845.1075, 28.25517
845.5897, 28.08563
846.0718, 27.95960
846.5539, 27.88904
847.0360, 27.89623
847.5181, 27.92731
848.0002, 27.97115
848.4824, 28.00351
848.9645, 27.90958
849.4466, 27.54958
849.9287, 27.32779
850.4108, 27.38992
850.8929, 27.49579
851.3751, 27.55073
851.8572, 27.54105
852.3393, 27.42112
852.8214, 27.19378
853.3035, 27.04317
853.7856, 27.17392
854.2678, 27.39470
854.7499, 27.47246
855.2320, 27.44062
855.7141, 27.37490
856.1962, 27.29720
856.6783, 27.23717
857.1605, 27.21817
857.6426, 27.22858
858.1247, 27.25669
858.6068, 27.31827
859.0889, 27.23979
859.5710, 26.91086
860.0532, 26.70569
860.5353, 26.92257
861.0174, 27.28648
861.4995, 27.29609
861.9816, 26.88704
862.4637, 26.61263
862.9459, 26.57299
863.4280, 26.57215
863.9101, 26.57377
864.3922, 26.57042
864.8743, 26.53674
865.3564, 26.49216
865.8386, 26.50553
866.3207, 26.62101
866.8028, 26.76011
867.2849, 26.90274
867.7670, 27.00130
868.2491, 26.93852
868.7313, 26.75210
869.2134, 26.62612
869.6955, 26.63461
870.1776, 26.67327
870.6597, 26.59306
871.1418, 26.42670
871.6239, 26.41811
872.1060, 26.58730
872.5881, 26.80454
873.0703, 27.12156
873.5524, 27.27572
874.0345, 26.96125
874.5166, 26.31408
874.9987, 25.92543
875.4808, 25.91855
875.9630, 25.96141
876.4451, 26.14492
876.9272, 26.27739
877.4093, 26.21248
877.8914, 26.07817
878.3735, 26.04974
878.8557, 26.14908
879.3378, 26.25900
879.8199, 26.38915
880.3020, 26.44125
880.7841, 26.22489
881.2662, 25.93548
881.7484, 25.90514
882.2305, 26.12541
882.7126, 26.35406
883.1947, 26.45613
883.6768, 26.45779
884.1589, 26.35743
884.6411, 26.18277
885.1232, 26.08464
885.6053, 26.06927
886.0874, 26.14973
886.5695, 26.35452
887.0516, 26.56788
887.5338, 26.65748
888.0159, 26.62848
888.4980, 26.56082
888.9801, 26.41416
889.4622, 26.31038
889.9443, 26.29819
890.4265, 26.29538
890.9086, 26.23978
891.3907, 26.16808
891.8728, 26.15454
892.3549, 26.21897
892.8370, 26.27644
893.3192, 26.33354
893.8013, 26.34430
894.2834, 26.22228
894.7655, 26.07236
895.2476, 26.03099
895.7297, 26.10715
896.2119, 26.23794
896.6940, 26.44310
897.1761, 26.54240
897.6582, 26.13883
898.1403, 25.53014
898.6224, 25.47786
899.1046, 25.94529
899.5867, 26.28915
900.0688, 26.22509
900.5509, 25.97423
901.0330, 25.80629
901.5151, 25.71909
901.9973, 25.70637
902.4794, 25.78489
902.9615, 25.83751
903.4436, 25.83301
903.9257, 25.81025
904.4078, 25.79349
904.8900, 25.78391
905.3721, 25.79030
905.8542, 25.85939
906.3363, 25.83825
906.8184, 25.56709
907.3005, 25.40057
907.7827, 25.58401
908.2648, 25.85564
908.7469, 25.88235
909.2290, 25.67907
909.7111, 25.59385
910.1932, 25.85464
910.6754, 26.10420
911.1575, 26.19160
911.6396, 26.14454
912.1217, 25.91074
912.6038, 25.57781
913.0859, 25.33977
913.5681, 25.27025
914.0502, 25.29950
914.5323, 25.40293
915.0144, 25.53610
915.4965, 25.61813
915.9786, 25.65167
916.4608, 25.64619
916.9429, 25.60509
917.4250, 25.54527
917.9071, 25.48030
918.3892, 25.40224
918.8713, 25.27679
919.3535, 25.09481
919.8356, 24.97535
920.3177, 24.92645
920.7998, 24.93815
921.2819, 25.05163
921.7640, 25.15363
922.2462, 25.08069
922.7283, 24.83846
923.2104, 24.71837
923.6925, 24.82403
924.1746, 24.90137
924.6567, 24.90905
925.1389, 24.91165
925.6210, 24.92434
926.1031, 24.96356
926.5852, 25.09905
927.0673, 25.35973
927.5494, 25.44409
928.0316, 25.04536
928.5137, 24.66635
928.9958, 24.64294
929.4779, 24.78323
929.9600, 24.87670
930.4421, 24.89491
930.9243, 24.87458
931.4064, 24.82614
931.8885, 24.79160
932.3706, 24.85113
932.8527, 24.93402
933.3348, 24.85665
933.8170, 24.68425
934.2991, 24.72645
934.7812, 25.05289
935.2633, 25.32850
935.7454, 25.23649
936.2275, 24.91358
936.7097, 24.70519
937.1918, 24.60964
937.6739, 24.60006
938.1560, 24.68780
938.6381, 24.75336
939.1202, 24.73232
939.6024, 24.67821
940.0845, 24.66922
940.5666, 24.70607
941.0487, 24.74790
941.5308, 24.80274
942.0129, 24.84397
942.4951, 24.85393
942.9772, 24.86421
943.4593, 24.90576
943.9414, 24.95956
944.4235, 24.97071
944.9056, 24.90015
945.3878, 24.93754
945.8699, 25.30062
946.3520, 25.53591
946.8341, 25.32804
947.3162, 25.01862
947.7983, 24.97479
948.2805, 25.15012
948.7626, 25.24014
949.2447, 25.11260
949.7268, 24.97983
950.2089, 25.04694
950.6910, 25.09699
951.1732, 24.80158
951.6553, 24.36968
952.1374, 24.26022
952.6195, 24.53543
953.1016, 24.83412
953.5837, 24.91795
954.0659, 24.86540
954.5480, 24.71267
955.0301, 24.52859
955.5122, 24.53450
955.9943, 24.70426
956.4764, 24.75091
956.9586, 24.55396
957.4407, 24.34213
957.9228, 24.41726
958.4049, 24.68310
958.8870, 24.70946
959.3691, 24.49156
959.8513, 24.29376
960.3334, 24.14945
960.8155, 24.09571
961.2976, 24.17179
961.7797, 24.31599
962.2618, 24.42907
962.7440, 24.52393
963.2261, 24.42380
963.7082, 23.96989
964.1903, 23.70160
964.6724, 23.85044
965.1545, 24.07639
965.6367, 24.10967
966.1188, 24.01404
966.6009, 24.00732
967.0830, 24.15407
967.5651, 24.21396
968.0472, 24.09741
968.5294, 23.99466
969.0115, 24.00521
969.4936, 24.03042
969.9757, 23.94456
970.4578, 23.78010
970.9399, 23.70969
971.4221, 23.85109
971.9042, 23.91036
972.3863, 23.66266
972.8684, 23.41133
973.3505, 23.38476
973.8326, 23.49192
974.3148, 23.60484
974.7969, 23.68748
975.2790, 23.71589
975.7611, 23.63268
976.2432, 23.57862
976.7253, 23.74142
977.2075, 23.96223
977.6896, 24.01205
978.1717, 23.92744
978.6538, 23.86111
979.1359, 23.86054
979.6180, 23.85446
980.1002, 23.74299
980.5823, 23.64144
981.0644, 23.84130
981.5465, 24.20908
982.0286, 24.27979
982.5107, 24.04212
982.9929, 23.85338
983.4750, 23.87838
983.9571, 24.00451
984.4392, 24.12268
984.9213, 24.20318
985.4034, 24.03053
985.8856, 23.60727
986.3677, 23.48522
986.8498, 23.78366
987.3319, 24.16712
987.8140, 24.46054
988.2961, 24.63714
988.7783, 24.63307
989.2604, 24.44275
989.7425, 24.20423
990.2246, 23.84321
990.7067, 23.72538
991.1888, 24.06239
991.6710, 24.37443
992.1531, 24.27884
992.6352, 23.94535
993.1173, 23.79222
993.5994, 23.86750
994.0815, 23.93246
994.5637, 23.99045
995.0458, 24.03265
995.5279, 24.05110
996.0100, 24.05831
996.4921, 24.06288
996.9742, 24.06385
997.4564, 24.05003
997.9385, 23.98964
998.4206, 24.00718
998.9027, 24.26699
999.3848, 24.42102
999.8669, 24.22688
1000.349, 23.95423
1000.831, 23.88618
1001.313, 23.97805
1001.795, 23.99570
1002.278, 23.85998
1002.760, 23.72150
1003.242, 23.58010
1003.724, 23.51176
1004.206, 23.59856
1004.688, 23.76551
1005.170, 23.97266
1005.652, 24.16996
1006.134, 24.21459
1006.617, 24.01447
1007.099, 23.75677
1007.581, 23.43131
1008.063, 23.22797
1008.545, 23.51026
1009.027, 23.98169
1009.509, 24.04206
1009.991, 23.66307
1010.474, 23.37778
1010.956, 23.52168
1011.438, 23.79784
1011.920, 23.96151
1012.402, 24.02207
1012.884, 23.93614
1013.366, 23.76783
1013.848, 23.69150
1014.330, 23.74129
1014.813, 23.79944
1015.295, 23.77078
1015.777, 23.72869
1016.259, 23.86893
1016.741, 24.06215
1017.223, 23.85585
1017.705, 23.33733
1018.187, 23.08486
1018.669, 23.27143
1019.152, 23.61826
1019.634, 23.91631
1020.116, 24.11693
1020.598, 24.06327
1021.080, 23.80185
1021.562, 23.60616
1022.044, 23.49309
1022.526, 23.41063
1023.008, 23.34061
1023.491, 23.28515
1023.973, 23.24275
1024.455, 23.22471
1024.937, 23.28022
1025.419, 23.41000
1025.901, 23.52868
1026.383, 23.63835
1026.865, 23.63866
1027.348, 23.47282
1027.830, 23.27042
1028.312, 23.17161
1028.794, 23.14806
1029.276, 23.06133
1029.758, 22.89041
1030.240, 22.78949
1030.722, 22.77073
1031.204, 22.82950
1031.687, 23.02064
1032.169, 23.15030
1032.651, 22.96278
1033.133, 22.53728
1033.615, 22.32768
1034.097, 22.35029
1034.579, 22.58150
1035.061, 23.22204
1035.544, 23.61644
1036.026, 23.42649
1036.508, 22.99283
1036.990, 22.61953
1037.472, 22.32767
1037.954, 22.28635
1038.436, 22.71819
1038.918, 22.91314
1039.401, 22.65765
1039.883, 22.48177
1040.365, 22.69802
1040.847, 22.97153
1041.329, 22.90758
1041.811, 22.56149
1042.293, 22.34521
1042.775, 22.41231
1043.257, 22.34286
1043.740, 21.94750
1044.222, 21.65104
1044.704, 21.64104
1045.186, 21.76069
1045.668, 21.92391
1046.150, 22.09586
1046.632, 22.09574
1047.114, 21.78321
1047.596, 21.56124
1048.079, 21.49465
1048.561, 21.47999
1049.043, 21.49211
1049.525, 21.52713
1050.007, 21.66933
1050.489, 21.84439
1050.971, 21.71070
1051.453, 20.99359
1051.936, 20.53781
1052.418, 20.66817
1052.900, 20.85632
1053.382, 20.91514
1053.864, 20.90035
1054.346, 20.85704
1054.828, 20.79664
1055.310, 20.74529
1055.792, 20.73264
1056.275, 20.64816
1056.757, 20.31461
1057.239, 20.08797
1057.721, 20.24498
1058.203, 20.48849
1058.685, 20.51913
1059.167, 20.38085
1059.649, 20.28051
1060.131, 20.27584
1060.614, 20.23876
1061.096, 20.09159
1061.578, 19.94948
1062.060, 19.87120
1062.542, 19.81929
1063.024, 19.75530
1063.506, 19.68631
1063.988, 19.65414
1064.471, 19.68133
1064.953, 19.63440
1065.435, 19.39734
1065.917, 19.15855
1066.399, 18.94426
1066.881, 18.82837
1067.363, 18.96878
1067.845, 19.23397
1068.328, 19.34067
1068.810, 19.22348
1069.292, 19.02196
1069.774, 18.68247
1070.256, 18.40930
1070.738, 18.32764
1071.220, 18.33376
1071.702, 18.38171
1072.184, 18.42751
1072.667, 18.39368
1073.149, 18.26958
1073.631, 18.16860
1074.113, 18.17873
1074.595, 18.16997
1075.077, 18.04958
1075.559, 17.91339
1076.041, 17.79032
1076.523, 17.73280
1077.006, 17.89557
1077.488, 18.25422
1077.970, 18.40687
1078.452, 18.07209
1078.934, 17.70710
1079.416, 17.49250
1079.898, 17.36996
1080.380, 17.28357
1080.863, 17.26613
1081.345, 17.43765
1081.827, 17.75452
1082.309, 17.92490
1082.791, 17.79597
1083.273, 17.62148
1083.755, 17.49739
1084.237, 17.39086
1084.719, 17.27919
1085.202, 17.17164
1085.684, 17.08012
1086.166, 17.00551
1086.648, 16.94079
1087.130, 16.87598
1087.612, 16.85359
1088.094, 16.97219
1088.576, 17.04624
1089.058, 16.89301
1089.541, 16.69045
1090.023, 16.66556
1090.505, 16.75848
1090.987, 16.73693
1091.469, 16.52490
1091.951, 16.35587
1092.433, 16.35099
1092.915, 16.37653
1093.397, 16.37086
1093.880, 16.36275
1094.362, 16.36075
1094.844, 16.38440
1095.326, 16.50420
1095.808, 16.73321
1096.290, 16.83080
1096.772, 16.61217
1097.254, 16.38909
1097.737, 16.27984
1098.219, 16.20886
1098.701, 16.13837
1099.183, 16.05966
1099.665, 15.94232
1100.147, 15.79571
1100.629, 15.73769
1101.111, 15.90253
1101.594, 15.98915
1102.076, 15.79532
1102.558, 15.63466
1103.040, 15.78475
1103.522, 15.99763
1104.004, 15.92472
1104.486, 15.61479
1104.968, 15.43418
1105.450, 15.50104
1105.932, 15.56162
1106.415, 15.62399
1106.897, 15.59637
1107.379, 15.33127
1107.861, 15.05497
1108.343, 14.95684
1108.825, 15.01651
1109.307, 15.17295
1109.789, 15.46589
1110.272, 15.64585
1110.754, 15.66523
1111.236, 15.59504
1111.718, 15.36405
1112.200, 15.13863
1112.682, 15.03282
1113.164, 15.00584
1113.646, 14.98668
1114.129, 14.97278
1114.611, 14.97290
1115.093, 15.09774
1115.575, 15.06428
1116.057, 14.64874
1116.539, 14.32289
1117.021, 14.32165
1117.503, 14.49564
1117.985, 14.73068
1118.468, 15.00079
1118.950, 15.07061
1119.432, 14.80464
1119.914, 14.62380
1120.396, 14.55291
1120.878, 14.53067
1121.360, 14.56550
1121.842, 14.60134
1122.324, 14.57499
1122.807, 14.52091
1123.289, 14.55350
1123.771, 14.70914
1124.253, 14.74317
1124.735, 14.59364
1125.217, 14.51027
1125.699, 14.57129
1126.181, 14.63946
1126.664, 14.63016
1127.146, 14.57555
1127.628, 14.52317
1128.110, 14.47478
1128.592, 14.47323
1129.074, 14.52870
1129.556, 14.56852
1130.038, 14.58417
1130.521, 14.58470
1131.003, 14.57267
1131.485, 14.55663
1131.967, 14.55546
1132.449, 14.54282
1132.931, 14.39120
1133.413, 14.10410
1133.895, 13.98448
1134.377, 14.04825
1134.859, 14.08800
1135.342, 14.04404
1135.824, 14.00321
1136.306, 14.02756
1136.788, 14.09891
1137.270, 14.21907
1137.752, 14.35761
1138.234, 14.32895
1138.716, 14.16935
1139.199, 14.11506
1139.681, 14.19016
1140.163, 14.23194
1140.645, 14.16413
1141.127, 14.06963
1141.609, 14.02560
1142.091, 14.03207
1142.573, 14.14159
1143.056, 14.28327
1143.538, 14.25434
1144.020, 14.08910
1144.502, 13.95678
1144.984, 13.90811
1145.466, 13.92034
1145.948, 13.99199
1146.430, 14.06016
1146.912, 14.03146
1147.395, 13.97543
1147.877, 14.00403
1148.359, 14.06930
1148.841, 14.09366
1149.323, 14.05637
1149.805, 13.90520
1150.287, 13.61227
1150.769, 13.44736
1151.251, 13.72384
1151.734, 14.04888
1152.216, 14.10136
1152.698, 14.06819
1153.180, 14.16562
1153.662, 14.33253
1154.144, 14.42008
1154.626, 14.40482
1155.108, 14.35583
1155.591, 14.28196
1156.073, 14.21186
1156.555, 14.17525
1157.037, 14.12421
1157.519, 13.99518
1158.001, 13.86379
1158.483, 13.79388
1158.965, 13.79677
1159.448, 13.91390
1159.930, 14.21875
1160.412, 14.34363
1160.894, 14.04563
1161.376, 13.83998
1161.858, 13.97632
1162.340, 14.09462
1162.822, 13.86908
1163.304, 13.56023
1163.786, 13.60458
1164.269, 13.98399
1164.751, 14.10704
1165.233, 13.82836
1165.715, 13.64876
1166.197, 13.61123
1166.679, 13.62950
1167.161, 13.70443
1167.643, 13.75251
1168.126, 13.67134
1168.608, 13.55126
1169.090, 13.66355
1169.572, 14.02841
1170.054, 14.09880
1170.536, 13.83065
1171.018, 13.80678
1171.500, 14.16216
1171.983, 14.31779
1172.465, 13.95017
1172.947, 13.51210
1173.429, 13.58323
1173.911, 13.95673
1174.393, 14.00702
1174.875, 13.80765
1175.357, 13.70375
1175.839, 13.71301
1176.322, 13.80554
1176.804, 13.95654
1177.286, 14.04003
1177.768, 13.96648
1178.250, 13.86461
1178.732, 13.96034
1179.214, 14.08019
1179.696, 13.81404
1180.178, 13.42724
1180.661, 13.50358
1181.143, 13.93718
1181.625, 14.21037
1182.107, 14.16504
1182.589, 14.02540
1183.071, 13.88388
1183.553, 13.77071
1184.035, 13.69515
1184.518, 13.66924
1185.000, 13.75318
1185.482, 13.86101
1185.964, 13.85969
1186.446, 13.76968
1186.928, 13.72071
1187.410, 13.74926
1187.892, 13.78617
1188.375, 13.82119
1188.857, 13.84986
1189.339, 13.87983
1189.821, 13.89342
1190.303, 13.82713
1190.785, 13.76549
1191.267, 13.87237
1191.749, 14.12986
1192.231, 14.28810
1192.714, 14.33539
1193.196, 14.29917
1193.678, 14.11122
1194.160, 14.00186
1194.642, 14.06467
1195.124, 14.16496
1195.606, 14.21493
1196.088, 14.21128
1196.570, 14.13747
1197.053, 14.00003
1197.535, 13.90559
1198.017, 13.85509
1198.499, 13.78047
1198.981, 13.67461
1199.463, 13.73269
1199.945, 14.03231
1200.427, 14.24943
1200.910, 14.07557
1201.392, 13.74620
1201.874, 13.69598
1202.356, 13.81057
1202.838, 13.78585
1203.320, 13.67352
1203.802, 13.63107
1204.284, 13.68188
1204.766, 13.81958
1205.249, 14.03332
1205.731, 14.17297
1206.213, 14.06254
1206.695, 13.92761
1207.177, 14.05386
1207.659, 14.17130
1208.141, 13.88323
1208.623, 13.46673
1209.105, 13.40389
1209.588, 13.66412
1210.070, 13.85250
1210.552, 13.86395
1211.034, 13.81360
1211.516, 13.60438
1211.998, 13.51976
1212.480, 13.77138
1212.962, 14.05101
1213.445, 14.18708
1213.927, 14.21101
1214.409, 14.16594
1214.891, 14.05779
1215.373, 13.93448
1215.855, 13.76373
1216.337, 13.66814
1216.819, 13.65448
1217.302, 13.70977
1217.784, 13.85709
1218.266, 13.97502
1218.748, 13.98223
1219.230, 13.91409
1219.712, 13.80320
1220.194, 13.68176
1220.676, 13.74639
1221.158, 13.95535
1221.641, 13.94091
1222.123, 13.72374
1222.605, 13.69725
1223.087, 13.94227
1223.569, 14.08883
1224.051, 13.88737
1224.533, 13.61909
1225.015, 13.63767
1225.497, 13.75212
1225.979, 13.68795
1226.462, 13.56248
1226.944, 13.52648
1227.426, 13.59725
1227.908, 13.82376
1228.390, 14.17265
1228.872, 14.36558
1229.354, 14.24166
1229.836, 14.06774
1230.319, 13.88541
1230.801, 13.76296
1231.283, 13.77964
1231.765, 13.83005
1232.247, 13.80205
1232.729, 13.74707
1233.211, 13.80347
1233.693, 13.97558
1234.176, 14.05245
1234.658, 13.99263
1235.140, 13.94520
1235.622, 13.92972
1236.104, 13.88595
1236.586, 13.77973
1237.068, 13.70166
1237.550, 13.73526
1238.032, 13.79101
1238.515, 13.67323
1238.997, 13.44017
1239.479, 13.41041
1239.961, 13.56525
1240.443, 13.89219
1240.925, 14.31306
1241.407, 14.39128
1241.889, 14.03941
1242.371, 13.74091
1242.854, 13.82904
1243.336, 13.98061
1243.818, 13.82981
1244.300, 13.59854
1244.782, 13.49496
1245.264, 13.48668
1245.746, 13.59964
1246.228, 13.73678
1246.711, 13.67471
1247.193, 13.40582
1247.675, 13.22943
1248.157, 13.20376
1248.639, 13.33847
1249.121, 13.86647
1249.603, 14.24677
1250.085, 14.20288
1250.568, 14.02620
1251.050, 13.87950
1251.532, 13.74892
1252.014, 13.60150
1252.496, 13.44635
1252.978, 13.40191
1253.460, 13.49107
1253.942, 13.52160
1254.424, 13.47679
1254.906, 13.46306
1255.389, 13.50894
1255.871, 13.58966
1256.353, 13.69182
1256.835, 13.79569
1257.317, 13.87250
1257.799, 13.93702
1258.281, 14.08130
1258.763, 14.19959
1259.246, 13.98973
1259.728, 13.59761
1260.210, 13.39898
1260.692, 13.44339
1261.174, 13.57539
1261.656, 13.74709
1262.138, 13.88171
1262.620, 13.93790
1263.103, 13.94893
1263.585, 13.90857
1264.067, 13.85270
1264.549, 13.78749
1265.031, 13.73421
1265.513, 13.73555
1265.995, 13.77200
1266.477, 13.74853
1266.959, 13.63019
1267.442, 13.63310
1267.924, 13.80445
1268.406, 13.92593
1268.888, 13.96580
1269.370, 13.93092
1269.852, 13.81323
1270.334, 13.70907
1270.816, 13.71436
1271.298, 13.78195
1271.781, 13.79862
1272.263, 13.80901
1272.745, 14.00716
1273.227, 14.28549
1273.709, 14.33790
1274.191, 14.18112
1274.673, 14.00113
1275.155, 13.85882
1275.638, 13.72398
1276.120, 13.55473
1276.602, 13.45822
1277.084, 13.49304
1277.566, 13.62077
1278.048, 13.91296
##END=



