##NAMES=Ferrimolybdite
##RRUFFID=R050566
##IDEAL CHEMISTRY=Fe^3+^_2_(Mo^6+^O_4_)_3_&#183;7H_2_O
##LOCALITY=Kingman, Arizona, USA
##OWNER=RRUFF
##SOURCE=University of Arizona Mineral Museum
##DESCRIPTION=Yellow fibrous aggregate
##STATUS=The identification of this mineral has been confirmed only by chemical analysis
##URL=rruff.info/R050566
##MEASURED CHEMISTRY=Wavelength dispersive spectroscopy (WDS) scanning shows Mo and Fe only.
92.06543, 2218.473
92.54755, 2214.157
93.02966, 2223.795
93.51178, 2222.077
93.99390, 2218.701
94.47601, 2232.265
94.95813, 2254.369
95.44025, 2262.634
95.92236, 2236.844
96.40448, 2172.861
96.88660, 2129.774
97.36871, 2114.153
97.85082, 2110.677
98.33294, 2113.435
98.81506, 2120.169
99.29717, 2119.274
99.77929, 2104.136
100.2614, 2077.049
100.7435, 2052.734
101.2256, 2034.867
101.7078, 2021.635
102.1899, 2009.410
102.6720, 1996.259
103.1541, 1985.503
103.6362, 1979.220
104.1183, 1977.212
104.6005, 1977.898
105.0826, 1981.994
105.5647, 1990.576
106.0468, 1993.720
106.5289, 1982.182
107.0110, 1968.300
107.4931, 1959.311
107.9753, 1957.201
108.4574, 1959.139
108.9395, 1959.954
109.4216, 1960.730
109.9037, 1957.973
110.3858, 1948.675
110.8680, 1936.959
111.3501, 1926.415
111.8322, 1918.814
112.3143, 1914.504
112.7964, 1916.261
113.2785, 1931.167
113.7607, 1944.057
114.2428, 1951.954
114.7249, 1954.821
115.2070, 1952.828
115.6891, 1944.874
116.1712, 1931.258
116.6534, 1922.763
117.1355, 1923.150
117.6176, 1925.684
118.0997, 1926.311
118.5818, 1924.790
119.0639, 1919.949
119.5461, 1907.148
120.0282, 1889.240
120.5103, 1875.306
120.9924, 1870.093
121.4745, 1870.652
121.9566, 1869.881
122.4388, 1865.738
122.9209, 1862.597
123.4030, 1864.056
123.8851, 1869.057
124.3672, 1873.953
124.8493, 1876.651
125.3315, 1877.239
125.8136, 1874.445
126.2957, 1860.610
126.7778, 1848.936
127.2599, 1847.010
127.7420, 1854.637
128.2242, 1864.752
128.7063, 1867.072
129.1884, 1854.724
129.6705, 1848.806
130.1526, 1855.263
130.6347, 1863.570
131.1169, 1864.918
131.5990, 1856.635
132.0811, 1843.485
132.5632, 1835.958
133.0453, 1836.875
133.5274, 1840.480
134.0096, 1848.921
134.4917, 1859.483
134.9738, 1868.557
135.4559, 1874.646
135.9380, 1877.882
136.4201, 1878.635
136.9023, 1877.445
137.3844, 1873.932
137.8665, 1865.096
138.3486, 1852.592
138.8307, 1844.339
139.3128, 1846.871
139.7950, 1856.136
140.2771, 1861.901
140.7592, 1862.396
141.2413, 1860.522
141.7234, 1859.174
142.2055, 1858.595
142.6877, 1857.275
143.1698, 1852.654
143.6519, 1847.235
144.1340, 1844.012
144.6161, 1844.453
145.0982, 1847.632
145.5803, 1851.217
146.0625, 1855.230
146.5446, 1859.651
147.0267, 1866.147
147.5088, 1872.802
147.9909, 1876.577
148.4730, 1874.984
148.9552, 1868.322
149.4373, 1862.859
149.9194, 1860.429
150.4015, 1857.525
150.8836, 1852.902
151.3657, 1847.002
151.8479, 1840.615
152.3300, 1833.939
152.8121, 1825.761
153.2942, 1825.346
153.7763, 1841.629
154.2584, 1856.307
154.7406, 1859.724
155.2227, 1851.568
155.7048, 1837.616
156.1869, 1822.901
156.6690, 1805.514
157.1511, 1797.828
157.6333, 1806.905
158.1154, 1821.467
158.5975, 1832.604
159.0796, 1838.495
159.5617, 1840.001
160.0438, 1835.810
160.5260, 1825.302
161.0081, 1819.296
161.4902, 1825.875
161.9723, 1837.805
162.4544, 1840.602
162.9365, 1828.071
163.4187, 1811.502
163.9008, 1803.061
164.3829, 1802.237
164.8650, 1805.762
165.3471, 1815.609
165.8292, 1830.139
166.3113, 1837.677
166.7935, 1830.016
167.2756, 1819.813
167.7577, 1817.531
168.2398, 1823.398
168.7219, 1830.296
169.2040, 1830.823
169.6862, 1823.854
170.1683, 1818.156
170.6504, 1814.614
171.1325, 1813.130
171.6146, 1814.729
172.0967, 1819.326
172.5789, 1824.672
173.0610, 1827.022
173.5431, 1823.677
174.0252, 1823.638
174.5073, 1831.676
174.9894, 1840.145
175.4716, 1842.892
175.9537, 1838.130
176.4358, 1829.197
176.9179, 1822.664
177.4000, 1818.198
177.8821, 1817.296
178.3643, 1825.375
178.8464, 1834.601
179.3285, 1835.769
179.8106, 1825.131
180.2927, 1807.800
180.7748, 1797.813
181.2570, 1802.191
181.7391, 1805.167
182.2212, 1804.321
182.7033, 1801.204
183.1854, 1798.026
183.6675, 1795.731
184.1497, 1794.136
184.6318, 1792.736
185.1139, 1791.734
185.5960, 1790.562
186.0781, 1788.928
186.5602, 1786.947
187.0423, 1784.914
187.5245, 1782.859
188.0066, 1780.955
188.4887, 1779.328
188.9708, 1777.266
189.4529, 1776.590
189.9350, 1779.451
190.4172, 1785.469
190.8993, 1790.878
191.3814, 1795.223
191.8635, 1796.974
192.3456, 1793.534
192.8277, 1782.214
193.3099, 1770.536
193.7920, 1766.437
194.2741, 1770.756
194.7562, 1776.423
195.2383, 1782.338
195.7204, 1787.484
196.2026, 1790.412
196.6847, 1790.293
197.1668, 1789.323
197.6489, 1792.233
198.1310, 1802.443
198.6131, 1806.451
199.0953, 1791.082
199.5774, 1772.648
200.0595, 1767.775
200.5416, 1783.738
201.0237, 1809.799
201.5058, 1821.565
201.9880, 1810.528
202.4701, 1799.653
202.9522, 1790.597
203.4343, 1784.799
203.9164, 1784.882
204.3985, 1792.171
204.8807, 1803.639
205.3628, 1810.034
205.8449, 1806.010
206.3270, 1803.487
206.8091, 1804.284
207.2912, 1807.014
207.7733, 1810.409
208.2555, 1813.866
208.7376, 1817.041
209.2197, 1818.617
209.7018, 1815.309
210.1839, 1814.093
210.6660, 1816.990
211.1482, 1822.137
211.6303, 1827.003
212.1124, 1830.307
212.5945, 1832.381
213.0766, 1834.615
213.5587, 1837.715
214.0409, 1840.152
214.5230, 1840.528
215.0051, 1840.122
215.4872, 1841.852
215.9693, 1847.786
216.4514, 1855.894
216.9336, 1857.925
217.4157, 1848.427
217.8978, 1841.321
218.3799, 1843.041
218.8620, 1850.785
219.3441, 1857.860
219.8263, 1861.518
220.3084, 1861.838
220.7905, 1859.092
221.2726, 1850.520
221.7547, 1843.843
222.2368, 1843.861
222.7190, 1849.316
223.2011, 1855.453
223.6832, 1861.403
224.1653, 1865.702
224.6474, 1865.745
225.1295, 1859.562
225.6117, 1853.885
226.0938, 1854.148
226.5759, 1859.624
227.0580, 1864.393
227.5401, 1867.257
228.0222, 1867.293
228.5043, 1862.704
228.9865, 1851.991
229.4686, 1842.404
229.9507, 1841.422
230.4328, 1848.967
230.9149, 1855.407
231.3970, 1858.535
231.8792, 1858.631
232.3613, 1854.824
232.8434, 1846.683
233.3255, 1838.927
233.8076, 1837.886
234.2897, 1844.507
234.7719, 1846.788
235.2540, 1838.828
235.7361, 1827.490
236.2182, 1816.558
236.7003, 1806.587
237.1824, 1796.585
237.6646, 1784.369
238.1467, 1768.730
238.6288, 1757.382
239.1109, 1755.481
239.5930, 1755.353
240.0751, 1753.066
240.5573, 1748.170
241.0394, 1742.723
241.5215, 1740.562
242.0036, 1744.266
242.4857, 1740.396
242.9678, 1716.339
243.4500, 1693.977
243.9321, 1686.172
244.4142, 1692.964
244.8963, 1704.266
245.3784, 1709.201
245.8605, 1706.893
246.3427, 1701.112
246.8248, 1688.272
247.3069, 1675.254
247.7890, 1664.536
248.2711, 1656.724
248.7532, 1651.962
249.2354, 1651.152
249.7175, 1656.352
250.1996, 1656.471
250.6817, 1649.728
251.1638, 1640.291
251.6459, 1627.124
252.1281, 1612.129
252.6102, 1600.762
253.0923, 1599.278
253.5744, 1610.508
254.0565, 1613.838
254.5386, 1603.894
255.0208, 1592.542
255.5029, 1583.006
255.9850, 1576.483
256.4671, 1574.787
256.9492, 1580.667
257.4313, 1595.617
257.9135, 1599.702
258.3956, 1585.447
258.8777, 1570.199
259.3598, 1560.684
259.8419, 1556.515
260.3240, 1554.207
260.8062, 1551.060
261.2883, 1547.109
261.7704, 1546.362
262.2525, 1553.157
262.7346, 1558.068
263.2167, 1555.666
263.6989, 1548.039
264.1810, 1541.783
264.6631, 1541.929
265.1452, 1546.954
265.6273, 1543.017
266.1094, 1520.102
266.5916, 1500.884
267.0737, 1494.888
267.5558, 1498.927
268.0379, 1505.410
268.5200, 1510.634
269.0021, 1514.827
269.4843, 1519.027
269.9664, 1525.051
270.4485, 1528.974
270.9306, 1527.311
271.4127, 1522.653
271.8948, 1521.051
272.3770, 1525.868
272.8591, 1533.994
273.3412, 1537.305
273.8233, 1535.333
274.3054, 1531.140
274.7875, 1524.213
275.2697, 1515.853
275.7518, 1508.053
276.2339, 1501.090
276.7160, 1496.049
277.1981, 1496.398
277.6802, 1503.244
278.1623, 1508.506
278.6444, 1510.387
279.1266, 1509.165
279.6087, 1503.667
280.0908, 1492.308
280.5729, 1481.522
281.0550, 1482.955
281.5371, 1496.693
282.0193, 1506.169
282.5014, 1503.616
282.9835, 1495.562
283.4656, 1491.766
283.9477, 1494.334
284.4298, 1498.422
284.9120, 1498.812
285.3941, 1496.016
285.8762, 1493.388
286.3583, 1491.539
286.8404, 1490.233
287.3225, 1489.420
287.8047, 1489.170
288.2868, 1488.572
288.7689, 1485.686
289.2510, 1481.689
289.7331, 1480.850
290.2152, 1487.921
290.6974, 1496.025
291.1795, 1496.887
291.6616, 1490.137
292.1437, 1483.833
292.6258, 1482.949
293.1079, 1486.184
293.5901, 1490.268
294.0722, 1496.890
294.5543, 1502.065
295.0364, 1500.133
295.5185, 1491.647
296.0006, 1487.087
296.4828, 1493.563
296.9649, 1505.750
297.4470, 1513.884
297.9291, 1516.859
298.4112, 1517.672
298.8933, 1517.023
299.3755, 1515.405
299.8576, 1516.006
300.3397, 1520.561
300.8218, 1527.214
301.3039, 1534.048
301.7860, 1541.445
302.2682, 1546.307
302.7503, 1546.385
303.2324, 1542.462
303.7145, 1536.416
304.1966, 1526.368
304.6787, 1518.252
305.1609, 1519.846
305.6430, 1529.969
306.1251, 1539.018
306.6072, 1542.322
307.0893, 1541.705
307.5714, 1541.064
308.0536, 1540.973
308.5357, 1540.432
309.0178, 1535.802
309.4999, 1529.474
309.9820, 1529.063
310.4641, 1543.441
310.9463, 1562.618
311.4284, 1569.663
311.9105, 1561.857
312.3926, 1555.152
312.8747, 1563.217
313.3568, 1578.927
313.8390, 1589.590
314.3211, 1590.770
314.8032, 1588.125
315.2853, 1586.816
315.7674, 1586.856
316.2495, 1587.923
316.7317, 1590.430
317.2138, 1593.645
317.6959, 1596.126
318.1780, 1597.134
318.6601, 1599.078
319.1422, 1607.507
319.6243, 1620.476
320.1064, 1622.451
320.5886, 1600.944
321.0707, 1575.128
321.5528, 1569.401
322.0349, 1584.694
322.5170, 1603.238
322.9991, 1617.266
323.4813, 1627.363
323.9634, 1635.239
324.4455, 1640.920
324.9276, 1644.865
325.4097, 1647.129
325.8918, 1647.983
326.3740, 1648.247
326.8561, 1645.611
327.3382, 1643.433
327.8203, 1649.194
328.3024, 1665.355
328.7845, 1679.609
329.2667, 1679.424
329.7488, 1670.146
330.2309, 1664.887
330.7130, 1666.773
331.1951, 1673.216
331.6772, 1684.850
332.1594, 1701.505
332.6415, 1712.026
333.1236, 1706.947
333.6057, 1693.270
334.0878, 1687.007
334.5699, 1692.331
335.0521, 1698.313
335.5342, 1696.767
336.0163, 1689.541
336.4984, 1685.208
336.9805, 1688.436
337.4626, 1693.410
337.9448, 1689.672
338.4269, 1675.642
338.9090, 1665.101
339.3911, 1667.302
339.8732, 1676.019
340.3553, 1678.920
340.8375, 1672.799
341.3196, 1663.878
341.8017, 1659.080
342.2838, 1657.967
342.7659, 1656.098
343.2480, 1648.757
343.7302, 1642.433
344.2123, 1647.154
344.6944, 1663.397
345.1765, 1677.055
345.6586, 1676.823
346.1407, 1664.289
346.6229, 1654.620
347.1050, 1651.449
347.5871, 1648.043
348.0692, 1637.447
348.5513, 1622.338
349.0334, 1613.781
349.5156, 1619.304
349.9977, 1632.658
350.4798, 1636.521
350.9619, 1628.161
351.4440, 1618.110
351.9261, 1607.062
352.4083, 1597.076
352.8904, 1592.780
353.3725, 1596.140
353.8546, 1601.464
354.3367, 1599.677
354.8188, 1588.095
355.3010, 1581.058
355.7831, 1585.737
356.2652, 1591.831
356.7473, 1588.123
357.2294, 1574.113
357.7115, 1560.281
358.1937, 1556.316
358.6758, 1562.793
359.1579, 1565.199
359.6400, 1560.864
360.1221, 1555.512
360.6042, 1550.552
361.0863, 1546.727
361.5685, 1546.272
362.0506, 1551.121
362.5327, 1559.046
363.0148, 1560.647
363.4969, 1551.922
363.9790, 1542.408
364.4612, 1531.679
364.9433, 1521.506
365.4254, 1514.427
365.9075, 1511.215
366.3896, 1510.351
366.8717, 1509.522
367.3539, 1508.955
367.8360, 1507.853
368.3181, 1505.028
368.8002, 1502.614
369.2823, 1503.012
369.7644, 1505.696
370.2466, 1507.645
370.7287, 1506.141
371.2108, 1501.060
371.6929, 1494.202
372.1750, 1481.875
372.6571, 1471.792
373.1393, 1467.700
373.6214, 1467.178
374.1035, 1465.974
374.5856, 1461.764
375.0677, 1455.272
375.5498, 1448.527
376.0320, 1438.250
376.5141, 1433.029
376.9962, 1438.907
377.4783, 1446.604
377.9604, 1447.663
378.4425, 1440.194
378.9247, 1428.790
379.4068, 1419.149
379.8889, 1411.173
380.3710, 1405.394
380.8531, 1404.463
381.3352, 1403.349
381.8174, 1399.346
382.2995, 1393.135
382.7816, 1387.080
383.2637, 1382.664
383.7458, 1379.949
384.2279, 1379.716
384.7101, 1384.025
385.1922, 1387.732
385.6743, 1390.317
386.1564, 1391.152
386.6385, 1389.476
387.1206, 1384.943
387.6028, 1378.013
388.0849, 1367.905
388.5670, 1353.007
389.0491, 1342.827
389.5312, 1343.139
390.0133, 1346.540
390.4955, 1349.680
390.9776, 1351.900
391.4597, 1351.505
391.9418, 1345.068
392.4239, 1334.037
392.9060, 1327.447
393.3882, 1327.581
393.8703, 1329.356
394.3524, 1329.447
394.8345, 1328.597
395.3166, 1328.698
395.7987, 1333.563
396.2809, 1337.245
396.7630, 1328.206
397.2451, 1305.199
397.7272, 1288.088
398.2093, 1289.679
398.6914, 1300.187
399.1736, 1303.593
399.6557, 1297.795
400.1378, 1290.155
400.6199, 1284.183
401.1020, 1279.693
401.5841, 1276.066
402.0662, 1273.013
402.5483, 1271.278
403.0305, 1273.255
403.5126, 1278.656
403.9947, 1280.603
404.4768, 1274.480
404.9589, 1266.629
405.4410, 1264.010
405.9232, 1266.373
406.4053, 1267.236
406.8874, 1261.457
407.3695, 1250.973
407.8516, 1245.760
408.3337, 1250.356
408.8159, 1254.185
409.2980, 1253.328
409.7801, 1249.754
410.2622, 1246.925
410.7443, 1246.048
411.2264, 1245.053
411.7086, 1239.789
412.1907, 1224.419
412.6728, 1220.530
413.1549, 1240.751
413.6370, 1262.057
414.1191, 1267.748
414.6013, 1258.857
415.0834, 1246.567
415.5655, 1239.245
416.0476, 1236.786
416.5297, 1237.955
417.0118, 1250.278
417.4940, 1257.594
417.9761, 1254.641
418.4582, 1246.105
418.9403, 1236.217
419.4224, 1226.813
419.9045, 1220.628
420.3867, 1224.552
420.8688, 1246.670
421.3509, 1257.038
421.8330, 1242.064
422.3151, 1226.211
422.7972, 1222.945
423.2794, 1231.233
423.7615, 1242.105
424.2436, 1249.340
424.7257, 1253.175
425.2078, 1254.936
425.6899, 1252.792
426.1721, 1251.808
426.6542, 1257.274
427.1363, 1263.428
427.6184, 1262.214
428.1005, 1250.088
428.5826, 1235.336
429.0648, 1228.064
429.5469, 1228.307
430.0290, 1229.895
430.5111, 1232.902
430.9932, 1235.282
431.4753, 1235.059
431.9575, 1232.504
432.4396, 1229.849
432.9217, 1229.207
433.4038, 1228.794
433.8859, 1224.659
434.3680, 1216.176
434.8502, 1208.672
435.3323, 1207.188
435.8144, 1208.714
436.2965, 1204.509
436.7786, 1188.881
437.2607, 1175.689
437.7429, 1174.190
438.2250, 1180.592
438.7071, 1186.833
439.1892, 1190.739
439.6713, 1192.286
440.1534, 1191.090
440.6356, 1186.571
441.1177, 1181.637
441.5998, 1176.243
442.0819, 1170.647
442.5640, 1164.587
443.0461, 1158.411
443.5282, 1153.259
444.0103, 1150.051
444.4925, 1148.393
444.9746, 1146.127
445.4567, 1141.847
445.9388, 1138.719
446.4209, 1137.326
446.9030, 1137.127
447.3852, 1138.069
447.8673, 1139.918
448.3494, 1141.498
448.8315, 1141.161
449.3136, 1138.427
449.7957, 1136.154
450.2779, 1136.859
450.7600, 1135.469
451.2421, 1126.943
451.7242, 1115.377
452.2063, 1109.188
452.6884, 1113.962
453.1706, 1124.107
453.6527, 1125.724
454.1348, 1115.821
454.6169, 1106.864
455.0990, 1101.711
455.5811, 1098.816
456.0633, 1098.212
456.5454, 1099.624
457.0275, 1100.456
457.5096, 1097.772
457.9917, 1092.869
458.4738, 1090.464
458.9560, 1091.255
459.4381, 1093.413
459.9202, 1097.894
460.4023, 1102.576
460.8844, 1103.022
461.3665, 1096.647
461.8487, 1088.460
462.3308, 1080.660
462.8129, 1073.869
463.2950, 1070.879
463.7771, 1073.334
464.2592, 1077.858
464.7414, 1079.947
465.2235, 1079.571
465.7056, 1077.371
466.1877, 1072.169
466.6698, 1066.086
467.1519, 1059.371
467.6341, 1052.940
468.1162, 1050.506
468.5983, 1055.215
469.0804, 1064.705
469.5625, 1067.889
470.0446, 1058.321
470.5268, 1050.512
471.0089, 1046.496
471.4910, 1044.158
471.9731, 1041.780
472.4552, 1038.904
472.9373, 1035.722
473.4195, 1032.293
473.9016, 1028.528
474.3837, 1025.744
474.8658, 1024.156
475.3479, 1023.427
475.8300, 1024.177
476.3122, 1025.491
476.7943, 1026.164
477.2764, 1025.693
477.7585, 1024.391
478.2406, 1022.754
478.7227, 1020.825
479.2049, 1017.998
479.6870, 1011.786
480.1691, 1007.231
480.6512, 1008.568
481.1333, 1014.895
481.6154, 1021.712
482.0976, 1028.289
482.5797, 1033.469
483.0618, 1035.464
483.5439, 1034.247
484.0260, 1030.146
484.5081, 1021.380
484.9902, 1011.148
485.4724, 1006.576
485.9545, 1009.830
486.4366, 1011.942
486.9187, 1007.963
487.4008, 1001.905
487.8829, 999.5974
488.3651, 1001.774
488.8472, 1004.621
489.3293, 1004.714
489.8114, 1002.078
490.2935, 1000.574
490.7756, 1001.142
491.2578, 1001.527
491.7399, 1003.019
492.2220, 1003.260
492.7041, 997.6415
493.1862, 985.0726
493.6683, 971.2806
494.1505, 964.6368
494.6326, 966.4180
495.1147, 970.3384
495.5968, 981.3350
496.0789, 989.5875
496.5610, 989.0969
497.0432, 983.4698
497.5253, 980.1600
498.0074, 983.5374
498.4895, 989.5136
498.9716, 990.1542
499.4537, 984.6124
499.9359, 978.9600
500.4180, 973.5462
500.9001, 969.4968
501.3822, 967.3406
501.8643, 967.1384
502.3464, 969.2838
502.8286, 976.9705
503.3107, 985.7648
503.7928, 988.1291
504.2749, 983.8301
504.7570, 979.0940
505.2391, 976.7795
505.7213, 976.5371
506.2034, 977.9880
506.6855, 983.6329
507.1676, 985.1363
507.6497, 977.4332
508.1318, 965.9781
508.6140, 954.8132
509.0961, 945.4359
509.5782, 941.9650
510.0603, 949.1448
510.5424, 966.1823
511.0245, 976.6652
511.5067, 975.7031
511.9888, 974.0176
512.4709, 974.9040
512.9530, 975.1762
513.4351, 969.2783
513.9172, 956.6314
514.3994, 944.7877
514.8815, 944.0886
515.3636, 955.6309
515.8457, 963.8075
516.3278, 969.5069
516.8099, 970.2414
517.2921, 960.3926
517.7742, 946.7819
518.2563, 941.1707
518.7384, 949.5889
519.2205, 959.5523
519.7026, 954.0380
520.1848, 935.7308
520.6669, 926.6705
521.1490, 934.2960
521.6311, 946.4267
522.1132, 949.9208
522.5953, 946.5887
523.0775, 946.1219
523.5596, 954.7041
524.0417, 962.5821
524.5238, 960.7753
525.0059, 952.4979
525.4880, 947.7023
525.9702, 950.7997
526.4523, 956.8018
526.9344, 956.9500
527.4165, 947.8001
527.8986, 941.6707
528.3807, 938.6938
528.8629, 938.3234
529.3450, 940.7039
529.8271, 945.4398
530.3092, 952.8418
530.7913, 963.5713
531.2734, 974.2789
531.7556, 975.0526
532.2377, 959.8770
532.7198, 951.8577
533.2019, 965.1477
533.6840, 977.5533
534.1661, 973.9398
534.6483, 957.2365
535.1304, 943.0306
535.6125, 942.3155
536.0946, 948.1861
536.5767, 947.0804
537.0588, 938.5427
537.5410, 933.1074
538.0231, 937.5060
538.5052, 944.5673
538.9873, 941.0258
539.4694, 924.7471
539.9515, 915.2228
540.4337, 923.9910
540.9158, 937.8942
541.3979, 943.4061
541.8800, 940.9045
542.3621, 938.3956
542.8442, 940.8250
543.3264, 946.7223
543.8085, 951.0789
544.2906, 952.4544
544.7726, 954.1859
545.2548, 956.0805
545.7369, 958.5126
546.2190, 962.1549
546.7011, 966.6809
547.1832, 971.2020
547.6653, 975.5129
548.1475, 978.8017
548.6296, 977.6600
549.1117, 971.4724
549.5938, 962.5140
550.0759, 943.1198
550.5580, 926.7363
551.0402, 926.6602
551.5223, 942.9857
552.0044, 958.9486
552.4865, 965.0347
552.9686, 964.4150
553.4507, 960.9449
553.9329, 954.7744
554.4150, 951.8936
554.8971, 957.0806
555.3792, 966.3178
555.8613, 968.7508
556.3434, 961.5107
556.8256, 956.1127
557.3077, 955.0705
557.7898, 956.5620
558.2719, 960.0717
558.7540, 964.8066
559.2361, 968.6698
559.7183, 970.2343
560.2004, 969.7584
560.6825, 968.3427
561.1646, 966.1668
561.6467, 962.6411
562.1288, 956.9463
562.6110, 950.6788
563.0931, 943.2689
563.5752, 935.8704
564.0573, 932.5272
564.5394, 937.9068
565.0215, 948.3503
565.5037, 954.6934
565.9858, 956.7239
566.4679, 956.1071
566.9500, 952.7078
567.4321, 947.4433
567.9142, 940.0439
568.3964, 929.9338
568.8785, 925.5677
569.3606, 934.7202
569.8427, 947.5896
570.3248, 954.2094
570.8069, 954.8885
571.2891, 954.6709
571.7712, 956.2495
572.2533, 958.6768
572.7354, 959.6548
573.2175, 959.4594
573.6996, 957.0730
574.1818, 945.5254
574.6639, 938.0488
575.1460, 949.2341
575.6281, 971.4710
576.1102, 983.1674
576.5923, 970.0286
577.0745, 944.5418
577.5566, 935.5252
578.0387, 946.5403
578.5208, 954.6110
579.0029, 953.8811
579.4850, 950.3477
579.9672, 948.9340
580.4493, 948.9310
580.9314, 947.0754
581.4135, 938.3112
581.8956, 930.4018
582.3777, 933.0135
582.8599, 943.4055
583.3420, 951.4372
583.8241, 953.8129
584.3062, 951.7461
584.7883, 945.8386
585.2704, 934.1845
585.7526, 928.7137
586.2347, 934.6993
586.7168, 940.7716
587.1989, 943.2634
587.6810, 942.2227
588.1631, 936.8426
588.6453, 927.1549
589.1274, 917.7042
589.6095, 915.9147
590.0916, 922.8253
590.5737, 927.5590
591.0558, 928.3140
591.5380, 929.3397
592.0201, 933.7776
592.5022, 939.3337
592.9843, 942.7092
593.4664, 943.1779
593.9485, 941.1118
594.4307, 933.8273
594.9128, 924.6356
595.3949, 922.9357
595.8770, 930.5393
596.3591, 937.4182
596.8412, 935.3805
597.3234, 925.8766
597.8055, 919.4850
598.2876, 916.7958
598.7697, 915.8896
599.2518, 918.7443
599.7339, 921.7619
600.2161, 919.3668
600.6982, 912.6601
601.1803, 910.2916
601.6624, 920.9999
602.1445, 940.1246
602.6266, 944.1241
603.1088, 925.0475
603.5909, 911.5399
604.0730, 916.1373
604.5551, 925.3010
605.0372, 929.6793
605.5193, 929.1157
606.0015, 927.9207
606.4836, 930.3707
606.9657, 931.8752
607.4478, 924.4503
607.9299, 909.8132
608.4120, 898.0391
608.8942, 892.9374
609.3763, 893.2605
609.8584, 898.0162
610.3405, 909.5921
610.8226, 916.5236
611.3047, 915.3768
611.7869, 913.4041
612.2690, 913.3933
612.7511, 915.0174
613.2332, 918.5126
613.7153, 923.7820
614.1974, 927.0328
614.6796, 919.5012
615.1617, 899.9797
615.6438, 896.1388
616.1259, 919.8879
616.6080, 939.9659
617.0901, 935.1362
617.5723, 918.5878
618.0544, 909.0818
618.5365, 911.1236
619.0186, 914.7880
619.5007, 914.5999
619.9828, 912.2887
620.4650, 909.4984
620.9471, 906.7836
621.4292, 907.5641
621.9113, 915.0468
622.3934, 926.6835
622.8755, 932.5580
623.3577, 928.4205
623.8398, 924.3058
624.3219, 918.7744
624.8040, 914.6672
625.2861, 914.5555
625.7682, 917.6135
626.2504, 921.2919
626.7325, 924.3828
627.2145, 926.5695
627.6967, 928.0978
628.1788, 929.1369
628.6609, 924.1841
629.1430, 907.4762
629.6251, 891.8940
630.1072, 891.3997
630.5894, 902.2161
631.0715, 911.4323
631.5536, 918.3000
632.0357, 921.9134
632.5178, 917.8492
632.9999, 911.6273
633.4821, 914.1840
633.9642, 926.8967
634.4463, 938.7540
634.9284, 938.4886
635.4105, 927.2302
635.8926, 921.9583
636.3748, 928.3817
636.8569, 931.7609
637.3390, 927.0488
637.8211, 920.4923
638.3032, 916.4005
638.7853, 915.3854
639.2675, 916.8039
639.7496, 923.5237
640.2317, 930.4455
640.7138, 927.0798
641.1959, 914.4001
641.6780, 904.6960
642.1602, 901.7783
642.6423, 904.6376
643.1244, 913.6737
643.6065, 930.7688
644.0886, 941.0547
644.5707, 940.7155
645.0529, 937.8451
645.5350, 934.9589
646.0171, 931.9248
646.4992, 927.6515
646.9813, 922.1282
647.4634, 917.4474
647.9456, 915.9359
648.4277, 917.4373
648.9098, 920.2755
649.3919, 924.8641
649.8740, 929.7379
650.3561, 935.6643
650.8383, 940.6856
651.3204, 941.9609
651.8025, 939.1556
652.2846, 936.7599
652.7667, 936.2813
653.2488, 937.1393
653.7310, 939.2899
654.2131, 942.3365
654.6952, 945.2592
655.1773, 947.6500
655.6594, 949.4926
656.1415, 950.9695
656.6237, 952.5691
657.1058, 951.5035
657.5879, 944.2508
658.0700, 938.1619
658.5521, 934.7686
659.0342, 933.8388
659.5164, 936.1424
659.9985, 941.7493
660.4806, 945.9180
660.9627, 942.1094
661.4448, 934.6437
661.9269, 934.0914
662.4091, 940.9923
662.8912, 950.0788
663.3733, 959.8839
663.8554, 968.8718
664.3375, 973.7704
664.8196, 973.1785
665.3018, 972.3415
665.7839, 971.8303
666.2660, 970.6423
666.7481, 965.9064
667.2302, 960.7631
667.7123, 961.6402
668.1945, 970.7262
668.6766, 981.3702
669.1587, 985.1096
669.6408, 982.3475
670.1229, 978.3608
670.6050, 971.5331
671.0872, 968.9092
671.5693, 977.2416
672.0514, 990.3020
672.5335, 996.8707
673.0156, 995.2261
673.4977, 994.8351
673.9799, 999.4984
674.4620, 1005.633
674.9441, 1011.860
675.4262, 1016.926
675.9083, 1017.895
676.3904, 1013.456
676.8726, 1006.337
677.3547, 1000.476
677.8368, 995.6817
678.3189, 993.5464
678.8010, 995.3997
679.2831, 998.0604
679.7653, 998.6284
680.2474, 1000.009
680.7295, 1007.890
681.2116, 1024.040
681.6937, 1035.276
682.1758, 1029.465
682.6580, 1017.565
683.1401, 1013.167
683.6222, 1016.258
684.1043, 1022.525
684.5864, 1030.284
685.0685, 1038.472
685.5507, 1045.300
686.0328, 1050.604
686.5149, 1055.132
686.9970, 1059.911
687.4791, 1062.663
687.9612, 1062.324
688.4434, 1059.743
688.9255, 1054.688
689.4076, 1047.294
689.8897, 1042.444
690.3718, 1044.152
690.8539, 1050.918
691.3361, 1062.535
691.8182, 1078.389
692.3003, 1087.332
692.7824, 1083.129
693.2645, 1073.638
693.7466, 1071.384
694.2288, 1078.343
694.7109, 1084.673
695.1930, 1089.862
695.6751, 1095.035
696.1572, 1102.021
696.6393, 1108.554
697.1215, 1111.607
697.6036, 1110.595
698.0857, 1107.548
698.5678, 1103.116
699.0499, 1098.211
699.5320, 1094.853
700.0142, 1092.962
700.4963, 1095.377
700.9784, 1104.540
701.4605, 1116.000
701.9426, 1123.683
702.4247, 1126.994
702.9069, 1130.595
703.3890, 1134.579
703.8711, 1138.831
704.3532, 1144.328
704.8353, 1149.553
705.3174, 1152.680
705.7996, 1153.404
706.2817, 1152.568
706.7638, 1149.854
707.2459, 1146.746
707.7280, 1148.602
708.2101, 1155.945
708.6923, 1163.435
709.1743, 1169.743
709.6564, 1175.490
710.1385, 1181.726
710.6207, 1188.287
711.1028, 1192.942
711.5849, 1194.655
712.0670, 1195.503
712.5491, 1196.674
713.0313, 1197.145
713.5134, 1193.828
713.9955, 1187.761
714.4776, 1185.647
714.9597, 1193.523
715.4418, 1206.976
715.9240, 1213.586
716.4061, 1212.411
716.8882, 1212.102
717.3703, 1213.367
717.8524, 1217.361
718.3345, 1227.856
718.8167, 1242.184
719.2988, 1250.899
719.7809, 1249.677
720.2630, 1248.210
720.7451, 1250.312
721.2272, 1253.366
721.7094, 1254.332
722.1915, 1253.568
722.6736, 1253.961
723.1557, 1257.439
723.6378, 1261.754
724.1199, 1260.538
724.6021, 1252.693
725.0842, 1254.126
725.5663, 1271.131
726.0484, 1287.838
726.5305, 1293.232
727.0126, 1292.031
727.4948, 1293.709
727.9769, 1299.632
728.4590, 1305.502
728.9411, 1310.350
729.4232, 1314.395
729.9053, 1317.859
730.3875, 1320.623
730.8696, 1322.020
731.3517, 1321.802
731.8338, 1321.425
732.3159, 1323.428
732.7980, 1327.803
733.2802, 1329.672
733.7623, 1327.253
734.2444, 1327.514
734.7265, 1335.048
735.2086, 1345.680
735.6907, 1353.766
736.1729, 1359.203
736.6550, 1363.342
737.1371, 1367.761
737.6192, 1369.634
738.1013, 1364.252
738.5834, 1356.317
739.0656, 1354.385
739.5477, 1359.815
740.0298, 1365.342
740.5119, 1363.127
740.9940, 1355.780
741.4761, 1354.501
741.9583, 1360.006
742.4404, 1367.990
742.9225, 1379.945
743.4046, 1390.410
743.8867, 1391.126
744.3688, 1384.484
744.8510, 1384.516
745.3331, 1400.273
745.8152, 1412.925
746.2973, 1413.783
746.7794, 1410.313
747.2615, 1409.572
747.7437, 1412.154
748.2258, 1415.894
748.7079, 1419.735
749.1900, 1422.789
749.6721, 1422.251
750.1542, 1418.238
750.6364, 1418.517
751.1185, 1425.409
751.6006, 1431.874
752.0827, 1432.420
752.5648, 1429.847
753.0469, 1432.518
753.5291, 1443.920
754.0112, 1450.817
754.4933, 1448.429
754.9754, 1444.106
755.4575, 1440.544
755.9396, 1438.873
756.4218, 1441.426
756.9039, 1448.656
757.3860, 1455.349
757.8681, 1455.688
758.3502, 1451.005
758.8323, 1444.974
759.3145, 1437.476
759.7966, 1432.531
760.2787, 1431.425
760.7608, 1434.090
761.2429, 1441.555
761.7250, 1454.623
762.2072, 1463.015
762.6893, 1467.369
763.1714, 1466.621
763.6535, 1456.293
764.1356, 1443.802
764.6177, 1435.354
765.0999, 1431.381
765.5820, 1429.335
766.0641, 1428.082
766.5462, 1427.492
767.0283, 1426.363
767.5104, 1425.645
767.9926, 1430.779
768.4747, 1442.863
768.9568, 1451.865
769.4389, 1450.073
769.9210, 1440.681
770.4031, 1434.424
770.8853, 1434.886
771.3674, 1431.383
771.8495, 1417.528
772.3316, 1406.764
772.8137, 1407.247
773.2958, 1413.599
773.7780, 1417.293
774.2601, 1416.258
774.7422, 1415.240
775.2243, 1419.785
775.7064, 1424.332
776.1885, 1420.094
776.6707, 1409.268
777.1528, 1400.435
777.6349, 1396.579
778.1170, 1394.923
778.5991, 1391.940
779.0812, 1387.834
779.5634, 1387.611
780.0455, 1393.960
780.5276, 1398.071
781.0097, 1395.773
781.4918, 1392.411
781.9739, 1393.198
782.4561, 1396.705
782.9382, 1396.733
783.4203, 1390.427
783.9024, 1382.571
784.3845, 1373.252
784.8666, 1364.965
785.3488, 1361.241
785.8309, 1361.564
786.3130, 1362.973
786.7951, 1363.912
787.2772, 1364.294
787.7593, 1364.570
788.2415, 1364.669
788.7236, 1359.983
789.2057, 1348.012
789.6878, 1340.400
790.1699, 1346.224
790.6520, 1356.562
791.1342, 1354.688
791.6162, 1337.764
792.0983, 1326.695
792.5804, 1327.432
793.0626, 1328.562
793.5447, 1326.291
794.0268, 1321.563
794.5089, 1313.661
794.9910, 1303.967
795.4731, 1298.684
795.9553, 1304.110
796.4374, 1313.054
796.9195, 1314.989
797.4016, 1310.796
797.8837, 1302.521
798.3658, 1290.285
798.8480, 1282.774
799.3301, 1287.869
799.8122, 1300.373
800.2943, 1302.292
800.7764, 1285.590
801.2585, 1275.602
801.7407, 1281.323
802.2228, 1284.309
802.7049, 1272.718
803.1870, 1256.339
803.6691, 1249.860
804.1512, 1256.119
804.6334, 1263.863
805.1155, 1270.501
805.5976, 1273.688
806.0797, 1268.075
806.5618, 1257.998
807.0439, 1253.865
807.5261, 1257.824
808.0082, 1261.159
808.4903, 1254.953
808.9724, 1242.475
809.4545, 1236.760
809.9366, 1238.900
810.4188, 1240.434
810.9009, 1240.401
811.3830, 1238.292
811.8651, 1231.709
812.3472, 1222.906
812.8293, 1220.502
813.3115, 1230.917
813.7936, 1234.021
814.2757, 1219.801
814.7578, 1204.606
815.2399, 1198.823
815.7220, 1199.067
816.2042, 1198.587
816.6863, 1195.476
817.1684, 1192.375
817.6505, 1190.607
818.1326, 1190.831
818.6147, 1196.951
819.0969, 1207.052
819.5790, 1210.074
820.0611, 1202.696
820.5432, 1191.220
821.0253, 1180.932
821.5074, 1172.232
821.9896, 1168.309
822.4717, 1171.966
822.9538, 1173.886
823.4359, 1170.868
823.9180, 1168.297
824.4001, 1173.209
824.8823, 1179.573
825.3644, 1173.701
825.8465, 1149.202
826.3286, 1130.375
826.8107, 1130.683
827.2928, 1136.396
827.7750, 1137.137
828.2571, 1134.438
828.7392, 1132.305
829.2213, 1132.087
829.7034, 1133.794
830.1855, 1138.584
830.6677, 1144.469
831.1498, 1145.231
831.6319, 1141.003
832.1140, 1136.171
832.5961, 1131.229
833.0782, 1128.124
833.5604, 1128.791
834.0425, 1132.404
834.5246, 1135.521
835.0067, 1138.411
835.4888, 1140.248
835.9709, 1142.776
836.4531, 1142.419
836.9352, 1136.537
837.4173, 1127.252
837.8994, 1116.027
838.3815, 1103.075
838.8636, 1095.455
839.3458, 1104.141
839.8279, 1113.015
840.3100, 1102.984
840.7921, 1083.378
841.2742, 1073.657
841.7563, 1077.245
842.2385, 1084.062
842.7206, 1086.337
843.2027, 1085.465
843.6848, 1084.107
844.1669, 1082.203
844.6490, 1084.451
845.1312, 1093.610
845.6133, 1098.450
846.0954, 1090.345
846.5775, 1075.274
847.0596, 1066.077
847.5417, 1064.241
848.0239, 1064.011
848.5060, 1066.619
848.9881, 1069.266
849.4702, 1072.304
849.9523, 1074.112
850.4344, 1073.045
850.9166, 1069.038
851.3987, 1062.923
851.8808, 1052.842
852.3629, 1043.905
852.8450, 1041.850
853.3271, 1043.014
853.8093, 1040.931
854.2914, 1035.703
854.7735, 1032.164
855.2556, 1033.106
855.7377, 1035.564
856.2198, 1034.109
856.7020, 1028.984
857.1841, 1026.519
857.6662, 1027.164
858.1483, 1028.669
858.6304, 1030.647
859.1125, 1032.365
859.5947, 1032.950
860.0768, 1032.394
860.5589, 1031.326
861.0410, 1031.788
861.5231, 1028.865
862.0052, 1016.587
862.4874, 1005.722
862.9695, 1004.359
863.4516, 1009.923
863.9337, 1016.551
864.4158, 1023.354
864.8979, 1026.922
865.3801, 1024.098
865.8622, 1017.825
866.3443, 1009.236
866.8264, 1000.193
867.3085, 993.9017
867.7906, 991.5646
868.2728, 994.7906
868.7549, 1007.377
869.2370, 1023.741
869.7191, 1026.365
870.2012, 1015.347
870.6833, 1004.458
871.1655, 995.1910
871.6476, 990.3492
872.1297, 993.2248
872.6118, 1000.317
873.0939, 1002.663
873.5760, 998.0297
874.0581, 995.2494
874.5402, 996.8059
875.0223, 997.2447
875.5045, 994.5311
875.9866, 990.3760
876.4687, 985.7164
876.9508, 981.0006
877.4329, 978.1707
877.9150, 978.8400
878.3972, 980.3029
878.8793, 978.6229
879.3614, 978.7214
879.8435, 989.4557
880.3256, 1007.096
880.8077, 1019.481
881.2899, 1021.128
881.7720, 1017.506
882.2541, 1013.563
882.7362, 1009.715
883.2183, 1007.401
883.7004, 1006.519
884.1826, 1005.823
884.6647, 1004.932
885.1468, 1004.276
885.6289, 1004.608
886.1110, 1001.283
886.5931, 1002.511
887.0753, 994.5272
887.5574, 988.2210
888.0395, 983.8965
888.5216, 981.7257
889.0037, 981.0352
889.4858, 982.9423
889.9680, 990.2591
890.4501, 1004.258
890.9322, 1015.850
891.4143, 1025.061
891.8964, 1030.128
892.3785, 1027.392
892.8607, 1022.126
893.3428, 1019.738
893.8249, 1020.269
894.3070, 1021.065
894.7891, 1021.346
895.2712, 1020.143
895.7534, 1015.137
896.2355, 1008.880
896.7176, 1006.321
897.1997, 1006.517
897.6818, 1003.016
898.1639, 993.7299
898.6461, 987.8847
899.1282, 998.6669
899.6103, 1020.340
900.0924, 1026.281
900.5745, 1015.634
901.0566, 1007.517
901.5388, 1005.092
902.0209, 1009.025
902.5030, 1022.866
902.9851, 1040.411
903.4672, 1043.056
903.9493, 1022.209
904.4315, 1010.827
904.9136, 1018.314
905.3957, 1023.168
905.8778, 1014.714
906.3599, 1003.640
906.8420, 999.4689
907.3242, 1002.612
907.8063, 1011.017
908.2884, 1034.110
908.7705, 1048.878
909.2526, 1039.041
909.7347, 1023.430
910.2169, 1018.300
910.6990, 1021.195
911.1811, 1023.162
911.6632, 1021.170
912.1453, 1018.439
912.6274, 1015.481
913.1096, 1014.864
913.5917, 1024.207
914.0738, 1038.834
914.5559, 1043.058
915.0380, 1034.962
915.5201, 1029.276
916.0023, 1037.089
916.4844, 1051.739
916.9665, 1058.695
917.4486, 1058.027
917.9307, 1057.827
918.4128, 1058.248
918.8950, 1060.823
919.3771, 1066.920
919.8592, 1073.664
920.3413, 1076.781
920.8234, 1076.494
921.3055, 1081.844
921.7877, 1100.249
922.2698, 1111.176
922.7519, 1108.210
923.2340, 1101.564
923.7161, 1092.328
924.1982, 1084.383
924.6804, 1085.254
925.1625, 1096.874
925.6446, 1109.191
926.1267, 1123.318
926.6088, 1133.399
927.0909, 1132.286
927.5731, 1128.381
928.0552, 1131.831
928.5373, 1141.857
929.0194, 1150.517
929.5015, 1153.906
929.9836, 1155.862
930.4658, 1161.646
930.9479, 1166.804
931.4300, 1161.234
931.9121, 1149.487
932.3942, 1146.745
932.8763, 1157.142
933.3585, 1171.451
933.8406, 1181.821
934.3227, 1188.938
934.8048, 1194.708
935.2869, 1198.941
935.7690, 1198.057
936.2512, 1191.168
936.7333, 1189.354
937.2154, 1199.440
937.6975, 1214.997
938.1796, 1225.421
938.6617, 1230.512
939.1439, 1235.501
939.6260, 1241.725
940.1081, 1243.590
940.5902, 1234.797
941.0723, 1228.656
941.5544, 1237.971
942.0366, 1257.918
942.5187, 1271.985
943.0008, 1278.636
943.4829, 1283.556
943.9650, 1282.616
944.4471, 1285.218
944.9293, 1295.380
945.4114, 1310.479
945.8935, 1330.816
946.3756, 1354.241
946.8577, 1370.326
947.3398, 1371.162
947.8220, 1372.707
948.3041, 1386.196
948.7862, 1400.508
949.2683, 1402.849
949.7504, 1398.988
950.2325, 1402.181
950.7147, 1415.560
951.1968, 1430.340
951.6789, 1443.068
952.1610, 1450.511
952.6431, 1446.527
953.1252, 1434.895
953.6074, 1424.040
954.0895, 1414.323
954.5716, 1399.145
955.0537, 1374.950
955.5358, 1352.110
956.0179, 1348.930
956.5000, 1359.184
956.9821, 1351.953
957.4642, 1328.038
957.9464, 1308.963
958.4285, 1300.109
958.9106, 1292.380
959.3927, 1278.554
959.8748, 1261.857
960.3569, 1252.228
960.8391, 1252.182
961.3212, 1244.259
961.8033, 1224.906
962.2854, 1207.991
962.7675, 1199.293
963.2496, 1193.569
963.7318, 1186.449
964.2139, 1177.760
964.6960, 1165.916
965.1781, 1148.927
965.6602, 1132.076
966.1423, 1108.450
966.6245, 1093.051
967.1066, 1100.114
967.5887, 1113.875
968.0708, 1114.061
968.5529, 1100.024
969.0350, 1086.703
969.5172, 1078.933
969.9993, 1069.923
970.4814, 1056.621
970.9635, 1042.125
971.4456, 1026.470
971.9277, 1012.334
972.4099, 1004.805
972.8920, 1005.039
973.3741, 1006.861
973.8562, 1011.447
974.3383, 1011.415
974.8204, 997.1614
975.3026, 976.8674
975.7847, 961.6536
976.2668, 951.5831
976.7489, 940.0010
977.2310, 923.8738
977.7131, 911.2386
978.1953, 913.8213
978.6774, 923.0717
979.1595, 925.0458
979.6416, 920.9381
980.1237, 916.1895
980.6058, 911.1534
981.0880, 897.8977
981.5701, 870.1439
982.0522, 841.2869
982.5343, 838.2522
983.0164, 855.4373
983.4985, 861.9919
983.9807, 857.3893
984.4628, 848.1057
984.9449, 835.5740
985.4270, 825.5217
985.9091, 823.3840
986.3912, 826.4348
986.8734, 827.9379
987.3555, 828.8469
987.8376, 817.1019
988.3197, 786.9332
988.8018, 766.3300
989.2839, 768.5529
989.7661, 778.4236
990.2482, 779.9022
990.7303, 774.1277
991.2124, 769.5555
991.6945, 767.4514
992.1766, 763.5088
992.6588, 756.6797
993.1409, 749.1955
993.6230, 740.8939
994.1051, 733.2636
994.5872, 728.9606
995.0693, 727.9194
995.5515, 725.1103
996.0336, 718.5292
996.5157, 713.0055
996.9978, 708.0324
997.4799, 705.3884
997.9620, 708.7869
998.4442, 713.7518
998.9263, 713.5009
999.4084, 707.3500
999.8905, 700.3857
1000.373, 689.9833
1000.855, 684.1555
1001.337, 691.9644
1001.819, 699.8278
1002.301, 694.5610
1002.783, 681.8344
1003.265, 674.0387
1003.747, 674.0332
1004.230, 674.5657
1004.712, 671.4269
1005.194, 668.3854
1005.676, 668.6975
1006.158, 669.8803
1006.640, 670.1633
1007.122, 668.4979
1007.604, 661.5806
1008.086, 648.3076
1008.569, 638.7630
1009.051, 644.9680
1009.533, 655.0077
1010.015, 655.1910
1010.497, 650.2411
1010.979, 647.7580
1011.461, 648.8008
1011.943, 652.2202
1012.426, 657.4923
1012.908, 663.0134
1013.390, 669.1086
1013.872, 673.1031
1014.354, 666.8525
1014.836, 654.7391
1015.318, 650.4745
1015.800, 655.2502
1016.282, 659.9332
1016.765, 659.3385
1017.247, 656.4084
1017.729, 654.4742
1018.211, 653.7371
1018.693, 656.2587
1019.175, 661.1444
1019.657, 661.4307
1020.139, 655.9090
1020.622, 652.4822
1021.104, 656.8630
1021.586, 662.9397
1022.068, 657.7637
1022.550, 642.9742
1023.032, 637.6940
1023.514, 642.1060
1023.996, 643.3155
1024.478, 637.6473
1024.961, 634.9748
1025.443, 643.4650
1025.925, 656.5831
1026.407, 658.6839
1026.889, 649.0251
1027.371, 644.5877
1027.853, 646.5431
1028.335, 646.0666
1028.818, 639.3605
1029.300, 635.4918
1029.782, 642.6531
1030.264, 656.0823
1030.746, 663.5546
1031.228, 664.9666
1031.710, 660.2266
1032.192, 646.1120
1032.674, 635.7785
1033.156, 635.0862
1033.639, 634.0701
1034.121, 622.3552
1034.603, 623.6922
1035.085, 623.4284
1035.567, 618.4534
1036.049, 627.2077
1036.531, 624.7296
1037.013, 623.8059
1037.496, 629.2614
1037.978, 635.4562
1038.460, 638.7319
1038.942, 639.0051
1039.424, 635.5974
1039.906, 626.6368
1040.388, 619.6515
1040.870, 611.8943
1041.353, 610.1553
1041.835, 622.9221
1042.317, 636.0106
1042.799, 637.1461
1043.281, 630.0125
1043.763, 624.5647
1044.245, 618.9735
1044.727, 621.1058
1045.209, 645.2974
1045.692, 658.6270
1046.174, 642.9788
1046.656, 621.5641
1047.138, 609.9639
1047.620, 607.6687
1048.102, 612.9839
1048.584, 629.7747
1049.066, 638.7172
1049.548, 630.3254
1050.031, 622.8271
1050.513, 622.9793
1050.995, 625.4679
1051.477, 626.5355
1051.959, 626.2208
1052.441, 625.4123
1052.923, 624.3226
1053.405, 622.2532
1053.888, 617.3992
1054.370, 613.6676
1054.852, 611.8028
1055.334, 612.2795
1055.816, 617.6802
1056.298, 625.1838
1056.780, 627.3589
1057.262, 621.6789
1057.745, 620.4521
1058.227, 633.5123
1058.709, 643.4805
1059.191, 643.6700
1059.673, 637.3464
1060.155, 621.7881
1060.637, 603.7422
1061.119, 597.8059
1061.601, 607.6318
1062.083, 615.8026
1062.566, 615.7474
1063.048, 613.6403
1063.530, 608.7781
1064.012, 606.0957
1064.494, 613.3621
1064.976, 624.8215
1065.458, 627.2607
1065.940, 618.1097
1066.423, 612.8190
1066.905, 622.1335
1067.387, 630.3934
1067.869, 630.7155
1068.351, 626.7415
1068.833, 617.8373
1069.315, 608.5141
1069.797, 607.0574
1070.280, 614.5394
1070.762, 621.3547
1071.244, 622.4188
1071.726, 623.4460
1072.208, 631.6600
1072.690, 636.5168
1073.172, 623.2065
1073.654, 603.3399
1074.136, 599.2747
1074.619, 612.4893
1075.101, 620.2196
1075.583, 607.9422
1076.065, 597.5154
1076.547, 602.0922
1077.029, 609.9011
1077.511, 612.3843
1077.993, 611.6805
1078.475, 611.1952
1078.958, 611.7986
1079.440, 614.6038
1079.922, 622.5280
1080.404, 627.0208
1080.886, 619.8729
1081.368, 612.2342
1081.850, 612.7925
1082.332, 617.3428
1082.814, 621.3516
1083.297, 623.3682
1083.779, 620.5294
1084.261, 608.7804
1084.743, 602.3792
1085.225, 615.2343
1085.707, 627.3040
1086.189, 623.8869
1086.671, 613.7405
1087.154, 604.5351
1087.636, 598.7747
1088.118, 600.2557
1088.600, 611.4797
1089.082, 622.0255
1089.564, 631.6454
1090.046, 634.6361
1090.528, 621.9315
1091.010, 605.8375
1091.493, 596.6536
1091.975, 594.8990
1092.457, 601.2220
1092.939, 616.8879
1093.421, 625.1518
1093.903, 614.3851
1094.385, 601.9482
1094.867, 592.6652
1095.349, 587.7556
1095.832, 590.6279
1096.314, 597.4929
1096.796, 601.6429
1097.278, 601.9693
1097.760, 601.8230
1098.242, 603.5313
1098.724, 603.1258
1099.206, 596.1686
1099.689, 589.9192
1100.171, 589.0938
1100.653, 592.2870
1101.135, 599.1315
1101.617, 608.5185
1102.099, 612.2410
1102.581, 603.4907
1103.063, 597.3387
1103.546, 601.0602
1104.028, 603.8718
1104.510, 595.8784
1104.992, 587.0255
1105.474, 592.2686
1105.956, 607.8802
1106.438, 612.6992
1106.920, 597.7366
1107.402, 586.8583
1107.885, 584.5077
1108.367, 585.8214
1108.849, 590.0666
1109.331, 596.3607
1109.813, 608.0714
1110.295, 620.6879
1110.777, 620.5868
1111.259, 602.5643
1111.741, 590.1521
1112.224, 584.4392
1112.706, 585.3313
1113.188, 601.3734
1113.670, 615.2316
1114.152, 611.3583
1114.634, 599.8557
1115.116, 599.5588
1115.598, 611.6809
1116.081, 620.2153
1116.563, 622.0408
1117.045, 625.8068
1117.527, 637.1361
1118.009, 643.3721
1118.491, 634.5131
1118.973, 621.4887
1119.455, 617.9052
1119.938, 622.8436
1120.420, 627.8847
1120.902, 634.5406
1121.384, 637.2717
1121.866, 634.4600
1122.348, 630.5382
1122.830, 625.1501
1123.312, 622.9614
1123.794, 631.1735
1124.276, 643.7100
1124.759, 639.5741
1125.241, 613.7841
1125.723, 601.1601
1126.205, 606.3409
1126.687, 605.9416
1127.169, 592.5173
1127.651, 579.5261
1128.133, 575.3625
1128.616, 578.7975
1129.098, 589.9457
1129.580, 607.5822
1130.062, 608.2560
1130.544, 589.9524
1131.026, 578.8246
1131.508, 578.7967
1131.990, 584.2750
1132.473, 593.3598
1132.955, 601.9749
1133.437, 605.1177
1133.919, 604.2132
1134.401, 604.0695
1134.883, 604.5410
1135.365, 603.1418
1135.847, 599.9860
1136.329, 601.4427
1136.812, 609.2783
1137.294, 612.3577
1137.776, 600.9652
1138.258, 584.6072
1138.740, 580.3317
1139.222, 585.0666
1139.704, 590.5895
1140.186, 595.7365
1140.668, 595.1190
1141.151, 589.1447
1141.633, 587.3069
1142.115, 594.5028
1142.597, 602.2748
1143.079, 600.2775
1143.561, 593.7199
1144.043, 591.2551
1144.525, 590.7612
1145.008, 586.0046
1145.490, 579.2289
1145.972, 581.2522
1146.454, 593.8069
1146.936, 601.2843
1147.418, 588.9051
1147.900, 576.3705
1148.382, 589.1661
1148.865, 606.4803
1149.347, 601.0848
1149.829, 583.7514
1150.311, 574.0311
1150.793, 574.6164
1151.275, 580.2100
1151.757, 589.7935
1152.239, 598.3229
1152.721, 603.5726
1153.203, 606.0992
1153.686, 603.8235
1154.168, 601.0217
1154.650, 605.3593
1155.132, 611.6845
1155.614, 605.8615
1156.096, 585.1296
1156.578, 570.9377
1157.060, 572.0381
1157.543, 576.6776
1158.025, 586.2757
1158.507, 593.3111
1158.989, 590.0301
1159.471, 584.0443
1159.953, 586.0567
1160.435, 594.9990
1160.917, 600.1582
1161.400, 598.2100
1161.882, 598.4454
1162.364, 604.3220
1162.846, 607.1995
1163.328, 604.2403
1163.810, 598.3281
1164.292, 590.0621
1164.774, 581.3122
1165.256, 575.3469
1165.739, 571.8948
1166.221, 578.6527
1166.703, 602.4394
1167.185, 608.0089
1167.667, 583.9644
1168.149, 568.5540
1168.631, 581.5551
1169.113, 602.4500
1169.595, 608.5803
1170.078, 603.8146
1170.560, 602.2184
1171.042, 603.5606
1171.524, 595.8093
1172.006, 579.0642
1172.488, 574.0054
1172.970, 585.6734
1173.452, 599.1934
1173.934, 605.2995
1174.417, 604.4423
1174.899, 593.7274
1175.381, 578.4511
1175.863, 572.3548
1176.345, 573.8350
1176.827, 580.6750
1177.309, 590.5002
1177.791, 596.1302
1178.274, 595.2921
1178.756, 591.2913
1179.238, 585.0244
1179.720, 580.5963
1180.202, 585.6971
1180.684, 592.4810
1181.166, 586.5582
1181.648, 577.4418
1182.130, 588.0759
1182.613, 613.3154
1183.095, 621.5170
1183.577, 599.2210
1184.059, 578.6984
1184.541, 577.8036
1185.023, 581.8200
1185.505, 584.3729
1185.987, 586.9247
1186.469, 592.3748
1186.952, 598.0930
1187.434, 599.6638
1187.916, 596.7454
1188.398, 591.6121
1188.880, 578.4543
1189.362, 573.6531
1189.844, 590.9807
1190.326, 600.6222
1190.809, 585.3876
1191.291, 567.2186
1191.773, 564.1678
1192.255, 570.8591
1192.737, 574.6877
1193.219, 575.3504
1193.701, 576.4037
1194.183, 578.0891
1194.666, 578.8925
1195.148, 577.9525
1195.630, 579.7747
1196.112, 587.6579
1196.594, 593.2480
1197.076, 586.4420
1197.558, 572.4617
1198.040, 566.5268
1198.522, 567.7963
1199.005, 569.3788
1199.487, 570.7943
1199.969, 570.6583
1200.451, 568.6316
1200.933, 563.6573
1201.415, 555.0660
1201.897, 548.6880
1202.379, 551.5834
1202.861, 560.0980
1203.344, 572.9730
1203.826, 584.5439
1204.308, 579.9639
1204.790, 566.7257
1205.272, 567.0725
1205.754, 583.0715
1206.236, 594.7182
1206.718, 591.6154
1207.201, 584.8010
1207.683, 576.8425
1208.165, 572.3585
1208.647, 575.6898
1209.129, 582.9628
1209.611, 593.9961
1210.093, 604.4716
1210.575, 605.1722
1211.057, 594.6249
1211.540, 585.8876
1212.022, 580.8099
1212.504, 577.6794
1212.986, 577.3372
1213.468, 577.5830
1213.950, 577.8471
1214.432, 578.1119
1214.914, 577.7828
1215.396, 577.8801
1215.879, 581.7754
1216.361, 590.0633
1216.843, 594.0579
1217.325, 593.2465
1217.807, 591.3668
1218.289, 588.8802
1218.771, 585.8542
1219.253, 582.0683
1219.736, 581.0471
1220.218, 587.4349
1220.700, 596.2480
1221.182, 594.4882
1221.664, 599.0791
1222.146, 588.7751
1222.628, 597.7266
1223.110, 599.2661
1223.593, 591.6630
1224.075, 578.6504
1224.557, 562.1302
1225.039, 553.5029
1225.521, 570.4648
1226.003, 588.2231
1226.485, 580.5113
1226.967, 565.9109
1227.449, 562.6074
1227.932, 566.5079
1228.414, 570.1788
1228.896, 572.2347
1229.378, 572.2383
1229.860, 568.3470
1230.342, 569.2985
1230.824, 586.1568
1231.306, 595.3151
1231.788, 582.7331
1232.271, 568.7015
1232.753, 564.6952
1233.235, 566.0842
1233.717, 567.7705
1234.199, 569.3991
1234.681, 568.1855
1235.163, 568.0419
1235.645, 566.8455
1236.128, 563.7460
1236.610, 563.6476
1237.092, 558.5745
1237.574, 557.3221
1238.056, 565.6639
1238.538, 575.5247
1239.020, 575.0206
1239.502, 569.9225
1239.984, 579.4618
1240.467, 595.2083
1240.949, 587.5834
1241.431, 564.1901
1241.913, 556.7045
1242.395, 568.8226
1242.877, 578.3817
1243.359, 574.3297
1243.841, 566.9006
1244.323, 559.8051
1244.806, 556.8278
1245.288, 566.3391
1245.770, 576.0264
1246.252, 571.3422
1246.734, 560.2955
1247.216, 557.6429
1247.698, 563.4265
1248.180, 565.5556
1248.662, 560.4105
1249.145, 556.4110
1249.627, 555.2985
1250.109, 553.0633
1250.591, 546.7693
1251.073, 543.2364
1251.555, 547.3932
1252.037, 554.4879
1252.519, 557.9014
1253.002, 558.7372
1253.484, 563.2653
1253.966, 571.2704
1254.448, 571.2043
1254.930, 563.5015
1255.412, 562.2447
1255.894, 569.8089
1256.376, 575.7618
1256.859, 574.5229
1257.341, 571.4390
1257.823, 572.9453
1258.305, 574.3049
1258.787, 566.2462
1259.269, 556.5870
1259.751, 556.8119
1260.233, 562.9531
1260.715, 568.0931
1261.198, 570.6078
1261.680, 569.4854
1262.162, 563.5278
1262.644, 560.3898
1263.126, 566.9662
1263.608, 570.1199
1264.090, 561.8947
1264.572, 554.1653
1265.054, 554.4129
1265.537, 557.0453
1266.019, 555.4417
1266.501, 551.9108
1266.983, 555.0978
1267.465, 566.1066
1267.947, 570.9148
1268.429, 568.8701
1268.911, 568.7866
1269.394, 572.0485
1269.876, 573.6381
1270.358, 571.4753
1270.840, 566.5986
1271.322, 558.8130
1271.804, 553.3150
1272.286, 563.2356
1272.768, 555.5433
1273.250, 571.0169
1273.733, 556.3280
1274.215, 554.1746
1274.697, 562.6227
1275.179, 568.9507
1275.661, 569.9594
1276.143, 569.6221
1276.625, 568.9625
1277.107, 568.2939
1277.589, 568.7762
1278.072, 567.8937
1278.554, 562.7809
1279.036, 557.6766
1279.518, 556.4027
1280.000, 556.7891
1280.482, 554.5875
1280.964, 550.3829
1281.446, 552.7040
1281.929, 548.0328
1282.411, 562.2037
1282.893, 547.0558
1283.375, 541.6459
1283.857, 551.6347
1284.339, 559.2827
1284.821, 554.1898
1285.303, 547.4417
1285.786, 549.6217
1286.268, 560.6820
##END=



