##NAMES=Ferroericssonite
##RRUFFID=R070406
##IDEAL CHEMISTRY=BaFe^2+^_2_Fe^3+^(Si_2_O_7_)O(OH)
##LOCALITY=Big Creek, Fresno County, California, USA
##OWNER=RRUFF
##SOURCE=Michael Scott
##DESCRIPTION=Dark reddish brown platy crystals, associated with dark brown titantaramellite, prismatic pale-green ferro-actinolite, quartz, and devitoite, R120091.
##STATUS=The identification of this mineral has been confirmed by single-crystal X-ray diffraction.
##URL=rruff.info/R070406
157.6603, 1490.507
158.1424, 1491.357
158.6245, 1503.585
159.1066, 1523.398
159.5887, 1542.121
160.0709, 1553.908
160.5530, 1564.719
161.0351, 1584.995
161.5172, 1617.597
161.9993, 1649.413
162.4814, 1674.977
162.9636, 1693.163
163.4457, 1699.365
163.9278, 1683.128
164.4099, 1656.219
164.8920, 1640.745
165.3741, 1639.918
165.8563, 1641.724
166.3384, 1637.349
166.8205, 1630.439
167.3026, 1627.282
167.7847, 1629.503
168.2668, 1637.372
168.7490, 1654.370
169.2311, 1687.613
169.7132, 1713.577
170.1953, 1716.610
170.6774, 1705.495
171.1595, 1692.422
171.6417, 1678.918
172.1238, 1668.685
172.6059, 1673.418
173.0880, 1701.754
173.5701, 1727.886
174.0522, 1739.255
174.5344, 1741.777
175.0165, 1743.158
175.4986, 1746.372
175.9807, 1751.362
176.4628, 1758.615
176.9449, 1770.467
177.4271, 1780.148
177.9092, 1781.318
178.3913, 1779.912
178.8734, 1784.633
179.3555, 1801.475
179.8376, 1825.654
180.3197, 1842.698
180.8019, 1848.136
181.2840, 1854.093
181.7661, 1862.302
182.2482, 1873.742
182.7303, 1890.497
183.2124, 1914.740
183.6946, 1943.082
184.1767, 1965.228
184.6588, 1976.074
185.1409, 1989.350
185.6230, 2008.550
186.1051, 2031.678
186.5873, 2057.880
187.0694, 2087.753
187.5515, 2117.625
188.0336, 2136.918
188.5157, 2135.805
188.9978, 2140.876
189.4800, 2164.097
189.9621, 2192.756
190.4442, 2213.817
190.9263, 2221.170
191.4084, 2219.107
191.8905, 2217.919
192.3727, 2219.260
192.8548, 2218.352
193.3369, 2209.565
193.8190, 2200.715
194.3011, 2201.500
194.7832, 2215.960
195.2654, 2235.664
195.7475, 2241.208
196.2296, 2221.877
196.7117, 2208.273
197.1938, 2205.813
197.6759, 2208.901
198.1581, 2213.692
198.6402, 2218.753
199.1223, 2223.377
199.6044, 2226.528
200.0865, 2229.248
200.5686, 2227.943
201.0508, 2217.750
201.5329, 2206.960
202.0150, 2203.368
202.4971, 2208.673
202.9792, 2216.824
203.4613, 2217.241
203.9435, 2204.003
204.4256, 2196.451
204.9077, 2202.282
205.3898, 2208.518
205.8719, 2207.540
206.3540, 2197.359
206.8362, 2179.489
207.3183, 2153.624
207.8004, 2112.918
208.2825, 2082.610
208.7646, 2067.736
209.2467, 2057.993
209.7289, 2049.533
210.2110, 2040.923
210.6931, 2030.864
211.1752, 2016.837
211.6573, 1996.264
212.1395, 1981.698
212.6216, 1979.934
213.1037, 1978.027
213.5858, 1967.703
214.0679, 1950.316
214.5500, 1934.255
215.0322, 1929.760
215.5143, 1940.460
215.9964, 1938.263
216.4785, 1905.884
216.9606, 1876.780
217.4427, 1864.921
217.9249, 1867.819
218.4070, 1875.009
218.8891, 1878.346
219.3712, 1877.770
219.8533, 1875.456
220.3354, 1869.040
220.8176, 1863.100
221.2997, 1860.123
221.7818, 1858.571
222.2639, 1854.724
222.7460, 1845.192
223.2281, 1831.002
223.7103, 1824.047
224.1924, 1830.136
224.6745, 1837.837
225.1566, 1848.944
225.6387, 1859.382
226.1208, 1862.547
226.6030, 1853.800
227.0851, 1836.808
227.5672, 1827.131
228.0493, 1830.272
228.5314, 1833.878
229.0135, 1834.005
229.4957, 1834.060
229.9778, 1838.901
230.4599, 1850.888
230.9420, 1866.455
231.4241, 1876.595
231.9062, 1877.286
232.3884, 1879.169
232.8705, 1883.803
233.3526, 1889.903
233.8347, 1897.952
234.3168, 1907.809
234.7989, 1915.797
235.2811, 1914.117
235.7632, 1896.029
236.2453, 1884.350
236.7274, 1883.830
237.2095, 1887.404
237.6916, 1892.210
238.1738, 1896.951
238.6559, 1899.411
239.1380, 1896.559
239.6201, 1887.378
240.1022, 1876.441
240.5843, 1860.188
241.0665, 1845.256
241.5486, 1836.636
242.0307, 1833.327
242.5128, 1829.318
242.9949, 1817.764
243.4770, 1797.709
243.9592, 1781.383
244.4413, 1772.141
244.9234, 1763.583
245.4055, 1752.362
245.8876, 1739.722
246.3697, 1729.423
246.8519, 1725.220
247.3340, 1726.084
247.8161, 1723.016
248.2982, 1714.697
248.7803, 1703.713
249.2624, 1686.926
249.7446, 1668.959
250.2267, 1657.935
250.7088, 1659.918
251.1909, 1669.676
251.6730, 1671.917
252.1551, 1663.864
252.6373, 1653.591
253.1194, 1638.475
253.6015, 1624.822
254.0836, 1621.695
254.5657, 1634.264
255.0478, 1651.167
255.5300, 1652.721
256.0121, 1634.373
256.4942, 1617.901
256.9763, 1609.834
257.4584, 1605.890
257.9406, 1604.424
258.4227, 1605.253
258.9048, 1605.176
259.3869, 1597.768
259.8690, 1582.318
260.3511, 1576.697
260.8333, 1592.422
261.3154, 1612.194
261.7975, 1625.375
262.2796, 1631.269
262.7617, 1631.049
263.2438, 1622.622
263.7260, 1607.618
264.2081, 1595.703
264.6902, 1588.469
265.1723, 1583.698
265.6544, 1582.132
266.1365, 1582.083
266.6187, 1577.585
267.1008, 1561.814
267.5829, 1540.412
268.0650, 1525.237
268.5471, 1517.266
269.0292, 1513.262
269.5114, 1515.406
269.9935, 1519.742
270.4756, 1518.700
270.9577, 1504.501
271.4398, 1488.909
271.9219, 1488.944
272.4041, 1505.230
272.8862, 1514.733
273.3683, 1500.103
273.8504, 1474.118
274.3325, 1462.480
274.8146, 1473.441
275.2968, 1485.876
275.7789, 1481.872
276.2610, 1466.259
276.7431, 1460.337
277.2252, 1475.295
277.7073, 1498.352
278.1895, 1506.658
278.6716, 1496.982
279.1537, 1490.958
279.6358, 1501.759
280.1179, 1520.055
280.6000, 1529.575
281.0822, 1526.387
281.5643, 1516.424
282.0464, 1502.983
282.5285, 1484.855
283.0106, 1479.659
283.4927, 1502.772
283.9749, 1531.213
284.4570, 1542.387
284.9391, 1535.363
285.4212, 1526.183
285.9033, 1528.132
286.3854, 1541.062
286.8676, 1549.204
287.3497, 1547.723
287.8318, 1546.610
288.3139, 1552.748
288.7960, 1563.415
289.2781, 1570.382
289.7603, 1568.489
290.2424, 1560.472
290.7245, 1557.932
291.2066, 1567.529
291.6887, 1573.993
292.1708, 1571.449
292.6530, 1565.810
293.1351, 1565.531
293.6172, 1573.458
294.0993, 1584.200
294.5814, 1587.955
295.0635, 1579.100
295.5457, 1573.646
296.0278, 1569.973
296.5099, 1570.552
296.9920, 1580.149
297.4741, 1597.471
297.9562, 1614.236
298.4384, 1621.340
298.9205, 1616.902
299.4026, 1615.902
299.8847, 1624.125
300.3668, 1629.919
300.8489, 1624.311
301.3311, 1613.163
301.8131, 1609.969
302.2953, 1625.151
302.7774, 1653.765
303.2595, 1670.383
303.7416, 1669.422
304.2237, 1663.547
304.7058, 1654.378
305.1880, 1642.736
305.6701, 1627.073
306.1522, 1606.481
306.6343, 1588.349
307.1164, 1587.624
307.5985, 1610.618
308.0807, 1627.471
308.5628, 1633.189
309.0449, 1630.657
309.5270, 1616.089
310.0091, 1590.978
310.4912, 1568.991
310.9734, 1566.235
311.4555, 1580.285
311.9376, 1583.324
312.4197, 1566.401
312.9018, 1548.305
313.3839, 1542.232
313.8661, 1544.351
314.3482, 1544.767
314.8303, 1537.172
315.3124, 1525.961
315.7945, 1519.468
316.2766, 1518.582
316.7588, 1517.130
317.2409, 1509.919
317.7230, 1500.750
318.2051, 1496.562
318.6872, 1501.496
319.1693, 1505.683
319.6515, 1500.424
320.1336, 1487.663
320.6157, 1475.380
321.0978, 1465.076
321.5799, 1458.410
322.0620, 1460.222
322.5442, 1472.365
323.0263, 1479.913
323.5084, 1472.968
323.9905, 1461.511
324.4726, 1461.433
324.9547, 1475.308
325.4369, 1487.354
325.9190, 1480.711
326.4011, 1452.978
326.8832, 1434.790
327.3653, 1431.595
327.8474, 1432.419
328.3296, 1432.887
328.8117, 1432.390
329.2938, 1430.144
329.7759, 1425.308
330.2580, 1419.006
330.7401, 1416.512
331.2223, 1421.141
331.7044, 1425.493
332.1865, 1429.297
332.6686, 1432.245
333.1507, 1434.247
333.6328, 1435.208
334.1150, 1434.639
334.5971, 1430.867
335.0792, 1419.873
335.5613, 1417.001
336.0434, 1433.809
336.5255, 1447.605
337.0077, 1442.791
337.4898, 1423.471
337.9719, 1405.637
338.4540, 1402.712
338.9361, 1412.766
339.4182, 1418.106
339.9004, 1414.019
340.3825, 1412.129
340.8646, 1417.230
341.3467, 1425.713
341.8288, 1433.062
342.3109, 1437.566
342.7931, 1440.592
343.2752, 1444.071
343.7573, 1448.080
344.2394, 1452.027
344.7215, 1455.829
345.2036, 1459.476
345.6858, 1461.440
346.1679, 1461.905
346.6500, 1466.481
347.1321, 1482.041
347.6142, 1504.348
348.0963, 1521.605
348.5785, 1531.963
349.0606, 1539.466
349.5427, 1545.341
350.0248, 1550.659
350.5069, 1558.901
350.9890, 1573.377
351.4712, 1588.910
351.9533, 1601.318
352.4354, 1611.042
352.9175, 1620.954
353.3996, 1633.273
353.8817, 1645.611
354.3639, 1650.670
354.8460, 1644.599
355.3281, 1641.001
355.8102, 1646.385
356.2923, 1654.244
356.7744, 1657.166
357.2566, 1653.531
357.7387, 1645.040
358.2208, 1632.206
358.7029, 1612.289
359.1850, 1604.322
359.6671, 1620.634
360.1493, 1634.848
360.6314, 1629.461
361.1135, 1612.898
361.5956, 1606.030
362.0777, 1622.241
362.5598, 1653.419
363.0420, 1669.406
363.5241, 1658.363
364.0062, 1650.573
364.4883, 1650.259
364.9704, 1653.883
365.4525, 1658.331
365.9347, 1662.989
366.4168, 1669.656
366.8989, 1683.289
367.3810, 1705.043
367.8631, 1715.073
368.3452, 1701.577
368.8274, 1689.353
369.3095, 1692.439
369.7916, 1706.375
370.2737, 1719.943
370.7558, 1726.557
371.2379, 1730.911
371.7201, 1742.111
372.2022, 1761.059
372.6843, 1777.993
373.1664, 1788.422
373.6485, 1794.452
374.1306, 1799.067
374.6128, 1801.471
375.0949, 1805.615
375.5770, 1813.456
376.0591, 1824.467
376.5412, 1836.958
377.0233, 1850.293
377.5055, 1867.783
377.9876, 1895.546
378.4697, 1935.005
378.9518, 1962.907
379.4339, 1968.787
379.9160, 1972.115
380.3982, 1983.710
380.8803, 2002.277
381.3624, 2023.228
381.8445, 2044.659
382.3266, 2064.747
382.8087, 2078.124
383.2909, 2076.095
383.7730, 2078.409
384.2551, 2084.612
384.7372, 2095.775
385.2193, 2114.445
385.7014, 2140.031
386.1836, 2167.989
386.6657, 2194.146
387.1478, 2218.442
387.6299, 2240.126
388.1120, 2258.270
388.5941, 2274.776
389.0763, 2291.100
389.5584, 2306.061
390.0405, 2317.464
390.5226, 2324.218
391.0047, 2327.876
391.4868, 2332.020
391.9690, 2337.315
392.4511, 2336.583
392.9332, 2327.059
393.4153, 2310.997
393.8974, 2291.181
394.3795, 2267.593
394.8617, 2240.012
395.3438, 2208.243
395.8259, 2172.499
396.3080, 2131.407
396.7901, 2084.612
397.2722, 2037.803
397.7544, 1992.926
398.2365, 1951.750
398.7186, 1919.780
399.2007, 1907.032
399.6828, 1892.392
400.1649, 1863.688
400.6471, 1828.705
401.1292, 1801.091
401.6113, 1785.226
402.0934, 1774.395
402.5755, 1758.604
403.0576, 1736.419
403.5398, 1713.430
404.0219, 1687.433
404.5040, 1662.555
404.9861, 1639.325
405.4682, 1618.885
405.9503, 1604.501
406.4325, 1599.238
406.9146, 1599.225
407.3967, 1590.165
407.8788, 1566.818
408.3609, 1545.105
408.8430, 1522.718
409.3252, 1506.369
409.8073, 1504.959
410.2894, 1518.724
410.7715, 1533.340
411.2536, 1536.461
411.7357, 1529.808
412.2179, 1520.858
412.7000, 1507.904
413.1821, 1497.997
413.6642, 1500.558
414.1463, 1509.395
414.6284, 1511.811
415.1106, 1500.818
415.5927, 1488.473
416.0748, 1483.365
416.5569, 1484.065
417.0390, 1486.899
417.5211, 1491.168
418.0033, 1495.029
418.4854, 1495.086
418.9675, 1489.034
419.4496, 1487.337
419.9317, 1497.816
420.4138, 1506.618
420.8960, 1501.919
421.3781, 1486.705
421.8602, 1472.367
422.3423, 1466.215
422.8244, 1466.631
423.3065, 1466.445
423.7887, 1462.815
424.2708, 1463.275
424.7529, 1473.326
425.2350, 1484.222
425.7171, 1489.229
426.1992, 1487.261
426.6814, 1480.996
427.1635, 1471.449
427.6456, 1458.982
428.1277, 1448.982
428.6098, 1442.283
429.0919, 1436.505
429.5741, 1429.309
430.0562, 1422.452
430.5383, 1418.908
431.0204, 1420.006
431.5025, 1423.172
431.9846, 1428.443
432.4668, 1434.386
432.9489, 1434.278
433.4310, 1424.616
433.9131, 1414.642
434.3952, 1416.257
434.8773, 1430.860
435.3595, 1442.982
435.8416, 1456.033
436.3237, 1462.555
436.8058, 1453.473
437.2879, 1434.046
437.7701, 1416.730
438.2522, 1407.729
438.7343, 1405.941
439.2164, 1408.950
439.6985, 1419.722
440.1806, 1430.184
440.6628, 1440.355
441.1449, 1450.120
441.6270, 1459.630
442.1091, 1468.721
442.5912, 1476.779
443.0733, 1482.499
443.5555, 1487.105
444.0376, 1495.723
444.5197, 1509.631
445.0018, 1523.971
445.4839, 1535.204
445.9660, 1547.035
446.4482, 1563.278
446.9303, 1584.515
447.4124, 1608.724
447.8945, 1633.480
448.3766, 1660.612
448.8587, 1696.679
449.3409, 1743.591
449.8230, 1786.353
450.3051, 1810.229
450.7872, 1818.254
451.2693, 1840.930
451.7514, 1888.832
452.2336, 1937.799
452.7157, 1976.111
453.1978, 2012.031
453.6799, 2058.171
454.1620, 2117.776
454.6441, 2182.371
455.1263, 2239.675
455.6084, 2285.880
456.0905, 2345.952
456.5726, 2428.214
457.0547, 2516.124
457.5368, 2607.395
458.0190, 2700.500
458.5011, 2793.170
458.9832, 2884.192
459.4653, 2976.397
459.9474, 3076.482
460.4295, 3184.241
460.9117, 3290.007
461.3938, 3400.016
461.8759, 3495.843
462.3580, 3561.023
462.8401, 3598.835
463.3222, 3622.988
463.8044, 3644.731
464.2865, 3648.633
464.7686, 3618.452
465.2507, 3557.688
465.7328, 3479.140
466.2149, 3387.168
466.6971, 3284.704
467.1792, 3178.930
467.6613, 3070.159
468.1434, 2956.012
468.6255, 2821.955
469.1076, 2694.972
469.5898, 2595.706
470.0719, 2519.288
470.5540, 2448.737
471.0361, 2372.235
471.5182, 2295.993
472.0003, 2238.325
472.4825, 2206.460
472.9646, 2174.494
473.4467, 2137.887
473.9288, 2098.945
474.4109, 2058.364
474.8930, 2016.502
475.3752, 1974.523
475.8573, 1928.700
476.3394, 1884.982
476.8215, 1856.436
477.3036, 1843.526
477.7857, 1828.812
478.2679, 1802.771
478.7500, 1770.159
479.2321, 1742.473
479.7142, 1722.202
480.1963, 1700.287
480.6784, 1672.705
481.1606, 1644.304
481.6427, 1618.935
482.1248, 1597.083
482.6069, 1578.079
483.0890, 1561.324
483.5711, 1546.895
484.0533, 1535.319
484.5354, 1531.275
485.0175, 1522.147
485.4996, 1500.659
485.9817, 1477.879
486.4638, 1463.917
486.9460, 1459.052
487.4281, 1454.702
487.9102, 1442.261
488.3923, 1425.250
488.8744, 1415.775
489.3565, 1415.524
489.8387, 1413.567
490.3208, 1404.023
490.8029, 1389.375
491.2850, 1374.531
491.7671, 1357.643
492.2492, 1345.701
492.7314, 1345.101
493.2135, 1348.534
493.6956, 1347.165
494.1777, 1340.612
494.6598, 1335.004
495.1419, 1335.764
495.6241, 1340.967
496.1062, 1337.804
496.5883, 1316.398
497.0704, 1300.418
497.5525, 1293.648
498.0346, 1291.866
498.5168, 1293.911
498.9989, 1298.271
499.4810, 1300.072
499.9631, 1293.681
500.4452, 1281.570
500.9273, 1273.177
501.4095, 1268.980
501.8916, 1266.602
502.3737, 1266.400
502.8558, 1266.606
503.3379, 1263.902
503.8200, 1257.049
504.3022, 1252.357
504.7843, 1255.330
505.2664, 1259.917
505.7485, 1259.772
506.2306, 1254.250
506.7127, 1243.081
507.1949, 1224.192
507.6770, 1202.075
508.1591, 1197.051
508.6412, 1230.935
509.1233, 1249.978
509.6054, 1238.986
510.0876, 1222.404
510.5697, 1218.942
511.0518, 1228.160
511.5339, 1237.273
512.0161, 1236.988
512.4982, 1230.089
512.9803, 1223.387
513.4624, 1216.634
513.9445, 1211.974
514.4266, 1211.121
514.9088, 1211.969
515.3909, 1212.589
515.8730, 1213.268
516.3551, 1210.437
516.8372, 1198.977
517.3193, 1186.523
517.8015, 1180.021
518.2836, 1179.095
518.7657, 1180.909
519.2478, 1184.436
519.7299, 1187.667
520.2120, 1185.371
520.6942, 1172.216
521.1763, 1163.728
521.6584, 1160.998
522.1405, 1161.301
522.6226, 1165.155
523.1047, 1170.813
523.5869, 1174.575
524.0690, 1174.325
524.5511, 1171.668
525.0332, 1168.507
525.5153, 1164.855
525.9974, 1162.941
526.4796, 1163.997
526.9617, 1165.793
527.4438, 1164.448
527.9259, 1160.649
528.4080, 1162.169
528.8901, 1175.962
529.3723, 1189.579
529.8544, 1196.880
530.3365, 1198.479
530.8186, 1194.445
531.3007, 1185.018
531.7828, 1174.810
532.2650, 1170.450
532.7471, 1173.019
533.2292, 1174.621
533.7113, 1174.625
534.1934, 1174.340
534.6755, 1175.895
535.1577, 1176.743
535.6398, 1172.115
536.1219, 1159.959
536.6040, 1148.704
537.0861, 1147.087
537.5682, 1152.710
538.0504, 1158.406
538.5325, 1163.489
539.0146, 1167.319
539.4967, 1169.026
539.9788, 1169.076
540.4609, 1169.836
540.9431, 1174.073
541.4252, 1175.196
541.9073, 1171.108
542.3894, 1163.829
542.8715, 1152.414
543.3536, 1138.780
543.8358, 1130.567
544.3179, 1135.482
544.8000, 1149.120
545.2821, 1150.095
545.7642, 1130.752
546.2463, 1119.837
546.7285, 1133.744
547.2106, 1152.083
547.6927, 1157.842
548.1748, 1151.579
548.6569, 1147.835
549.1390, 1156.474
549.6211, 1168.274
550.1032, 1172.865
550.5853, 1171.420
551.0674, 1169.453
551.5496, 1168.942
552.0317, 1170.103
552.5138, 1173.713
552.9959, 1181.680
553.4780, 1185.553
553.9601, 1182.140
554.4423, 1178.684
554.9244, 1175.698
555.4065, 1175.325
555.8886, 1181.489
556.3707, 1195.813
556.8528, 1212.379
557.3350, 1224.669
557.8171, 1232.938
558.2992, 1237.854
558.7813, 1237.113
559.2634, 1240.812
559.7455, 1259.570
560.2277, 1287.471
560.7098, 1304.943
561.1919, 1305.557
561.6740, 1306.857
562.1561, 1315.671
562.6382, 1327.043
563.1204, 1334.560
563.6025, 1338.623
564.0846, 1344.784
564.5667, 1356.807
565.0488, 1374.844
565.5309, 1402.235
566.0131, 1448.836
566.4952, 1479.794
566.9773, 1474.644
567.4594, 1463.437
567.9415, 1464.339
568.4236, 1476.118
568.9058, 1488.443
569.3879, 1496.798
569.8700, 1504.021
570.3521, 1517.349
570.8342, 1532.573
571.3163, 1533.157
571.7985, 1513.120
572.2806, 1486.565
572.7627, 1471.305
573.2448, 1469.480
573.7269, 1458.028
574.2090, 1426.724
574.6912, 1398.335
575.1733, 1378.777
575.6554, 1364.962
576.1375, 1355.146
576.6196, 1348.129
577.1017, 1338.610
577.5839, 1318.524
578.0660, 1292.108
578.5481, 1273.468
579.0302, 1263.095
579.5123, 1258.927
579.9944, 1263.824
580.4766, 1271.131
580.9587, 1266.597
581.4408, 1247.416
581.9229, 1230.797
582.4050, 1219.047
582.8871, 1210.695
583.3693, 1205.514
583.8514, 1202.900
584.3335, 1202.811
584.8156, 1205.295
585.2977, 1206.891
585.7798, 1199.677
586.2620, 1182.146
586.7441, 1174.863
587.2262, 1185.348
587.7083, 1195.281
588.1904, 1192.307
588.6725, 1182.437
589.1547, 1174.892
589.6368, 1170.614
590.1189, 1169.375
590.6010, 1173.581
591.0831, 1179.399
591.5652, 1182.083
592.0474, 1181.313
592.5295, 1178.491
593.0116, 1174.173
593.4937, 1169.528
593.9758, 1168.420
594.4579, 1172.803
594.9401, 1176.090
595.4222, 1178.963
595.9043, 1179.421
596.3864, 1173.675
596.8685, 1164.728
597.3506, 1160.295
597.8328, 1164.889
598.3149, 1171.630
598.7970, 1174.450
599.2791, 1174.563
599.7612, 1174.516
600.2433, 1174.795
600.7255, 1177.098
601.2076, 1183.500
601.6897, 1193.175
602.1718, 1199.329
602.6539, 1198.177
603.1360, 1198.594
603.6182, 1203.604
604.1003, 1208.532
604.5824, 1208.726
605.0645, 1205.221
605.5466, 1203.164
606.0287, 1204.971
606.5109, 1210.541
606.9930, 1222.395
607.4751, 1239.249
607.9572, 1249.913
608.4393, 1250.627
608.9214, 1248.560
609.4036, 1250.929
609.8857, 1257.764
610.3678, 1262.684
610.8499, 1266.343
611.3320, 1267.466
611.8141, 1259.999
612.2963, 1253.462
612.7784, 1258.680
613.2605, 1275.724
613.7426, 1295.613
614.2247, 1311.764
614.7068, 1325.797
615.1890, 1344.173
615.6711, 1367.511
616.1532, 1379.543
616.6353, 1370.781
617.1174, 1357.556
617.5995, 1358.276
618.0817, 1373.304
618.5638, 1388.821
619.0459, 1404.442
619.5280, 1420.285
620.0101, 1442.815
620.4922, 1462.391
620.9744, 1461.116
621.4565, 1439.454
621.9386, 1422.374
622.4207, 1434.538
622.9028, 1468.297
623.3849, 1493.018
623.8671, 1506.823
624.3492, 1523.304
624.8313, 1550.897
625.3134, 1577.947
625.7955, 1585.531
626.2776, 1575.012
626.7598, 1576.147
627.2419, 1602.343
627.7240, 1630.980
628.2061, 1653.485
628.6882, 1669.974
629.1703, 1679.293
629.6525, 1682.174
630.1346, 1684.302
630.6167, 1691.858
631.0988, 1703.332
631.5809, 1709.567
632.0630, 1708.828
632.5452, 1709.661
633.0273, 1714.534
633.5094, 1722.246
633.9915, 1732.914
634.4736, 1746.246
634.9557, 1755.940
635.4379, 1757.604
635.9200, 1758.528
636.4021, 1763.134
636.8842, 1769.551
637.3663, 1772.670
637.8484, 1772.321
638.3306, 1776.611
638.8127, 1794.643
639.2948, 1824.156
639.7769, 1849.679
640.2590, 1868.121
640.7411, 1894.735
641.2233, 1943.877
641.7054, 1993.054
642.1875, 2014.843
642.6696, 2011.953
643.1517, 2017.821
643.6339, 2044.900
644.1160, 2076.473
644.5981, 2101.600
645.0802, 2126.008
645.5623, 2160.419
646.0444, 2205.952
646.5266, 2251.934
647.0087, 2286.708
647.4908, 2314.333
647.9729, 2354.821
648.4550, 2410.018
648.9371, 2469.939
649.4193, 2533.733
649.9014, 2599.522
650.3835, 2666.370
650.8656, 2734.073
651.3477, 2803.207
651.8298, 2869.040
652.3120, 2942.101
652.7941, 3031.583
653.2762, 3129.633
653.7583, 3228.546
654.2404, 3325.200
654.7225, 3414.290
655.2047, 3489.513
655.6868, 3556.587
656.1689, 3635.494
656.6510, 3729.381
657.1331, 3815.540
657.6152, 3886.746
658.0974, 3951.915
658.5795, 4017.815
659.0616, 4084.071
659.5437, 4147.738
660.0258, 4220.262
660.5079, 4275.922
660.9901, 4306.510
661.4722, 4315.552
661.9543, 4301.201
662.4364, 4268.009
662.9185, 4231.152
663.4006, 4202.201
663.8828, 4171.194
664.3649, 4113.536
664.8470, 4028.394
665.3291, 3944.478
665.8112, 3867.573
666.2933, 3788.094
666.7755, 3697.016
667.2576, 3597.437
667.7397, 3502.114
668.2218, 3412.119
668.7039, 3325.070
669.1860, 3245.194
669.6682, 3164.446
670.1503, 3072.973
670.6324, 2974.269
671.1145, 2878.607
671.5966, 2790.230
672.0787, 2709.392
672.5609, 2638.841
673.0430, 2576.694
673.5251, 2509.074
674.0072, 2432.832
674.4893, 2360.197
674.9714, 2298.199
675.4536, 2244.762
675.9357, 2195.940
676.4178, 2155.424
676.8999, 2110.838
677.3820, 2059.779
677.8641, 2006.626
678.3463, 1951.025
678.8284, 1896.193
679.3105, 1846.769
679.7926, 1804.318
680.2747, 1767.139
680.7568, 1738.592
681.2390, 1713.338
681.7211, 1673.762
682.2032, 1620.717
682.6853, 1580.898
683.1674, 1567.833
683.6495, 1566.882
684.1317, 1555.117
684.6138, 1530.013
685.0959, 1507.626
685.5780, 1493.250
686.0601, 1474.905
686.5422, 1442.454
687.0244, 1409.026
687.5065, 1390.908
687.9886, 1388.678
688.4707, 1384.892
688.9528, 1364.702
689.4349, 1341.687
689.9171, 1331.370
690.3992, 1331.135
690.8813, 1335.748
691.3634, 1343.427
691.8455, 1345.086
692.3276, 1329.420
692.8098, 1299.714
693.2919, 1287.162
693.7740, 1303.932
694.2561, 1310.813
694.7382, 1293.965
695.2203, 1270.801
695.7025, 1249.683
696.1846, 1231.854
696.6667, 1221.066
697.1488, 1222.479
697.6309, 1224.741
698.1130, 1224.716
698.5952, 1220.499
699.0773, 1205.035
699.5594, 1181.656
700.0415, 1166.089
700.5236, 1168.618
701.0057, 1181.099
701.4879, 1188.339
701.9700, 1190.425
702.4521, 1185.319
702.9342, 1171.005
703.4163, 1153.776
703.8984, 1133.426
704.3806, 1114.298
704.8627, 1107.093
705.3448, 1115.376
705.8269, 1124.315
706.3090, 1133.477
706.7911, 1141.210
707.2733, 1148.874
707.7554, 1153.658
708.2375, 1149.858
708.7196, 1136.099
709.2017, 1119.730
709.6838, 1105.911
710.1660, 1095.192
710.6481, 1089.516
711.1302, 1088.741
711.6123, 1091.792
712.0944, 1100.060
712.5765, 1103.983
713.0587, 1089.071
713.5408, 1053.706
714.0229, 1034.127
714.5050, 1039.874
714.9871, 1048.996
715.4692, 1062.367
715.9514, 1074.393
716.4335, 1080.712
716.9156, 1081.442
717.3977, 1078.949
717.8798, 1073.437
718.3619, 1066.066
718.8441, 1054.839
719.3262, 1043.505
719.8083, 1039.528
720.2904, 1043.031
720.7725, 1048.028
721.2546, 1050.706
721.7368, 1051.395
722.2189, 1050.397
722.7010, 1047.254
723.1831, 1046.167
723.6652, 1050.089
724.1473, 1050.664
724.6295, 1038.578
725.1116, 1021.852
725.5937, 1018.209
726.0758, 1033.347
726.5579, 1041.800
727.0400, 1029.807
727.5222, 1019.195
728.0043, 1028.305
728.4864, 1045.637
728.9685, 1049.683
729.4506, 1035.802
729.9327, 1021.579
730.4149, 1027.387
730.8970, 1042.347
731.3791, 1038.463
731.8612, 1018.141
732.3433, 1004.493
732.8254, 1004.485
733.3076, 1011.417
733.7897, 1019.801
734.2718, 1029.085
734.7539, 1031.992
735.2360, 1022.683
735.7181, 1016.774
736.2003, 1021.019
736.6824, 1024.416
737.1645, 1016.693
737.6466, 1002.741
738.1287, 996.8647
738.6108, 1005.703
739.0930, 1016.104
739.5751, 1023.929
740.0572, 1027.209
740.5393, 1021.583
741.0214, 1009.095
741.5035, 995.3992
741.9857, 983.2003
742.4678, 974.5758
742.9499, 973.4765
743.4320, 979.4167
743.9141, 985.3489
744.3962, 990.9537
744.8784, 999.0147
745.3605, 1014.449
745.8426, 1026.943
746.3247, 1018.830
746.8068, 985.9932
747.2889, 971.9258
747.7711, 990.9163
748.2532, 1008.884
748.7353, 1022.060
749.2174, 1027.756
749.6995, 1020.196
750.1816, 1002.506
750.6638, 986.6860
751.1459, 977.3232
751.6280, 973.9231
752.1101, 981.2614
752.5922, 992.3969
753.0743, 992.7603
753.5565, 982.0090
754.0386, 969.8563
754.5207, 961.6959
755.0028, 957.7024
755.4849, 959.7894
755.9670, 969.1299
756.4492, 972.3397
756.9313, 965.0964
757.4134, 962.6234
757.8955, 977.6562
758.3776, 996.5214
758.8597, 994.2058
759.3419, 967.6152
759.8240, 955.4315
760.3061, 977.6755
760.7882, 994.5403
761.2703, 986.0649
761.7524, 968.0042
762.2346, 955.0849
762.7167, 950.0118
763.1988, 951.2868
763.6809, 960.8782
764.1630, 971.3966
764.6451, 974.2845
765.1273, 971.4647
765.6094, 965.6779
766.0915, 958.1801
766.5736, 955.9147
767.0557, 963.8698
767.5378, 976.4470
768.0200, 981.0737
768.5021, 976.2649
768.9842, 972.5510
769.4663, 971.2585
769.9484, 968.4183
770.4305, 960.1212
770.9127, 950.8306
771.3948, 946.9730
771.8769, 948.7537
772.3590, 952.3473
772.8411, 955.3194
773.3232, 962.4622
773.8054, 984.8286
774.2875, 1006.211
774.7696, 1004.631
775.2517, 983.2813
775.7338, 967.5036
776.2159, 973.9639
776.6981, 985.7174
777.1802, 979.6416
777.6623, 965.3523
778.1444, 967.8466
778.6265, 987.9139
779.1086, 1006.836
779.5908, 1014.268
780.0729, 1013.306
780.5550, 1009.229
781.0371, 1002.047
781.5192, 989.8070
782.0013, 966.6163
782.4835, 954.3682
782.9656, 965.9357
783.4477, 988.2031
783.9298, 1007.169
784.4119, 1023.008
784.8940, 1029.824
785.3762, 1018.841
785.8583, 1009.779
786.3404, 1009.513
786.8225, 1012.073
787.3046, 1011.985
787.7867, 1009.827
788.2689, 1009.169
788.7510, 1011.197
789.2331, 1016.118
789.7152, 1025.592
790.1973, 1037.342
790.6794, 1048.420
791.1616, 1058.393
791.6437, 1067.336
792.1258, 1075.355
792.6079, 1081.472
793.0900, 1084.647
793.5721, 1084.817
794.0543, 1080.346
794.5364, 1070.167
795.0185, 1061.435
795.5006, 1054.769
795.9827, 1053.613
796.4648, 1064.513
796.9470, 1085.434
797.4291, 1094.083
797.9112, 1076.764
798.3933, 1066.703
798.8754, 1073.025
799.3575, 1079.338
799.8397, 1071.738
800.3218, 1058.640
800.8039, 1058.461
801.2860, 1077.605
801.7681, 1093.732
802.2502, 1094.418
802.7324, 1088.256
803.2145, 1080.245
803.6966, 1072.173
804.1787, 1066.554
804.6608, 1063.875
805.1429, 1062.253
805.6251, 1059.629
806.1072, 1057.654
806.5893, 1061.479
807.0714, 1069.994
807.5535, 1073.826
808.0356, 1071.094
808.5178, 1068.967
808.9999, 1072.751
809.4820, 1079.231
809.9641, 1080.414
810.4462, 1075.869
810.9283, 1066.980
811.4105, 1048.046
811.8926, 1034.068
812.3747, 1035.996
812.8568, 1042.434
813.3389, 1038.100
813.8210, 1022.991
814.3032, 1016.349
814.7853, 1025.278
815.2674, 1037.635
815.7495, 1054.065
816.2316, 1068.398
816.7137, 1074.731
817.1959, 1073.966
817.6780, 1069.926
818.1601, 1063.368
818.6422, 1057.929
819.1243, 1056.828
819.6064, 1058.713
820.0886, 1062.348
820.5707, 1067.066
821.0528, 1071.358
821.5349, 1074.678
822.0170, 1076.941
822.4991, 1078.569
822.9813, 1078.818
823.4634, 1073.151
823.9455, 1061.076
824.4276, 1052.188
824.9097, 1048.216
825.3918, 1048.732
825.8740, 1053.742
826.3561, 1062.779
826.8382, 1075.309
827.3203, 1100.360
827.8024, 1107.735
828.2845, 1078.428
828.7667, 1054.735
829.2488, 1057.783
829.7309, 1070.950
830.2130, 1073.248
830.6951, 1063.505
831.1772, 1059.159
831.6594, 1074.076
832.1415, 1083.318
832.6236, 1069.698
833.1057, 1049.865
833.5878, 1039.185
834.0699, 1038.365
834.5521, 1042.945
835.0342, 1051.807
835.5163, 1060.622
835.9984, 1066.520
836.4805, 1069.174
836.9626, 1064.895
837.4448, 1056.637
837.9269, 1056.964
838.4090, 1069.485
838.8911, 1081.027
839.3732, 1076.535
839.8553, 1060.933
840.3375, 1051.444
840.8196, 1048.093
841.3017, 1050.786
841.7838, 1060.821
842.2659, 1070.580
842.7480, 1075.096
843.2302, 1075.589
843.7123, 1075.009
844.1944, 1072.943
844.6765, 1071.040
845.1586, 1067.423
845.6407, 1066.769
846.1229, 1073.891
846.6050, 1082.467
847.0871, 1085.810
847.5692, 1084.295
848.0513, 1083.898
848.5334, 1091.517
849.0156, 1092.100
849.4977, 1071.357
849.9798, 1051.190
850.4619, 1050.967
850.9440, 1064.291
851.4261, 1075.392
851.9083, 1079.523
852.3904, 1080.730
852.8725, 1081.525
853.3546, 1080.902
853.8367, 1075.299
854.3188, 1068.211
854.8010, 1068.161
855.2831, 1075.621
855.7652, 1081.794
856.2473, 1079.811
856.7294, 1074.122
857.2115, 1071.733
857.6937, 1072.448
858.1758, 1076.982
858.6579, 1085.094
859.1400, 1089.174
859.6221, 1085.358
860.1042, 1078.240
860.5864, 1073.861
861.0685, 1072.257
861.5506, 1074.875
862.0327, 1084.322
862.5148, 1086.822
862.9969, 1075.040
863.4791, 1064.020
863.9612, 1066.021
864.4433, 1078.031
864.9254, 1089.594
865.4075, 1105.154
865.8896, 1110.923
866.3718, 1095.145
866.8539, 1084.052
867.3360, 1091.304
867.8181, 1105.094
868.3002, 1111.818
868.7823, 1111.024
869.2645, 1111.438
869.7466, 1119.458
870.2287, 1123.629
870.7108, 1111.970
871.1929, 1100.917
871.6750, 1108.497
872.1572, 1128.282
872.6393, 1142.188
873.1214, 1143.954
873.6035, 1146.296
874.0856, 1161.715
874.5677, 1179.813
875.0499, 1189.974
875.5320, 1193.440
876.0141, 1189.888
876.4962, 1181.830
876.9783, 1181.292
877.4604, 1197.475
877.9426, 1220.924
878.4247, 1237.451
878.9068, 1248.145
879.3889, 1255.883
879.8710, 1261.270
880.3531, 1267.388
880.8353, 1275.211
881.3174, 1287.242
881.7995, 1305.919
882.2816, 1331.640
882.7637, 1370.478
883.2458, 1425.673
883.7280, 1466.160
884.2101, 1480.818
884.6922, 1500.180
885.1743, 1545.921
885.6564, 1606.373
886.1385, 1656.642
886.6207, 1694.880
887.1028, 1729.939
887.5849, 1754.403
888.0670, 1787.510
888.5491, 1834.132
889.0313, 1891.550
889.5134, 1960.574
889.9955, 2038.841
890.4776, 2116.719
890.9597, 2201.410
891.4418, 2270.745
891.9240, 2312.055
892.4061, 2348.184
892.8882, 2394.191
893.3703, 2441.150
893.8524, 2478.496
894.3345, 2504.155
894.8167, 2514.635
895.2988, 2509.843
895.7809, 2487.831
896.2630, 2435.407
896.7451, 2374.377
897.2272, 2332.361
897.7094, 2301.288
898.1915, 2253.225
898.6736, 2178.186
899.1557, 2099.217
899.6378, 2037.354
900.1199, 1980.059
900.6021, 1907.920
901.0842, 1829.450
901.5663, 1763.684
902.0484, 1712.834
902.5305, 1667.008
903.0126, 1620.578
903.4948, 1574.318
903.9769, 1527.155
904.4590, 1481.588
904.9411, 1449.746
905.4232, 1429.810
905.9053, 1403.446
906.3875, 1364.852
906.8696, 1332.167
907.3517, 1324.509
907.8338, 1333.468
908.3159, 1331.853
908.7980, 1319.608
909.2802, 1307.034
909.7623, 1295.449
910.2444, 1279.986
910.7265, 1255.764
911.2086, 1234.911
911.6907, 1237.543
912.1729, 1263.194
912.6550, 1272.172
913.1371, 1256.699
913.6192, 1250.292
914.1013, 1264.750
914.5834, 1277.627
915.0656, 1272.629
915.5477, 1256.799
916.0298, 1245.553
916.5119, 1238.126
916.9940, 1238.403
917.4761, 1255.977
917.9583, 1267.652
918.4404, 1260.976
918.9225, 1252.578
919.4046, 1256.817
919.8867, 1270.441
920.3688, 1281.265
920.8510, 1290.533
921.3331, 1292.240
921.8152, 1276.066
922.2973, 1263.082
922.7794, 1260.764
923.2615, 1268.311
923.7437, 1289.052
924.2258, 1320.107
924.7079, 1343.365
925.1900, 1346.795
925.6721, 1352.671
926.1542, 1376.970
926.6364, 1400.711
927.1185, 1405.346
927.6006, 1399.701
928.0827, 1399.222
928.5648, 1407.610
929.0469, 1422.036
929.5291, 1449.165
930.0112, 1472.192
930.4933, 1476.730
930.9754, 1471.241
931.4575, 1466.809
931.9396, 1462.097
932.4218, 1448.132
932.9039, 1421.797
933.3860, 1395.453
933.8681, 1379.793
934.3502, 1370.101
934.8323, 1360.815
935.3145, 1352.741
935.7966, 1352.129
936.2787, 1355.961
936.7608, 1346.365
937.2429, 1313.137
937.7250, 1275.526
938.2072, 1257.928
938.6893, 1252.924
939.1714, 1244.419
939.6535, 1232.811
940.1356, 1222.169
940.6177, 1212.908
941.0999, 1199.124
941.5820, 1175.734
942.0641, 1150.307
942.5462, 1138.172
943.0283, 1136.456
943.5104, 1128.293
943.9926, 1113.999
944.4747, 1108.471
944.9568, 1116.531
945.4389, 1124.757
945.9210, 1120.178
946.4031, 1108.970
946.8853, 1110.536
947.3674, 1124.774
947.8495, 1131.515
948.3316, 1129.708
948.8137, 1114.700
949.2958, 1081.660
949.7780, 1050.522
950.2601, 1045.504
950.7422, 1060.553
951.2243, 1061.911
951.7064, 1046.344
952.1885, 1039.318
952.6707, 1046.177
953.1528, 1050.338
953.6349, 1043.414
954.1170, 1031.190
954.5991, 1020.134
955.0812, 1010.604
955.5634, 1010.477
956.0455, 1025.159
956.5276, 1032.191
957.0097, 1026.155
957.4918, 1017.842
957.9739, 1012.884
958.4561, 1009.141
958.9382, 1002.150
959.4203, 991.1125
959.9024, 988.3134
960.3845, 998.4651
960.8666, 1007.738
961.3488, 1017.716
961.8309, 1021.230
962.3130, 1008.678
962.7951, 989.3447
963.2772, 982.1810
963.7593, 990.0416
964.2415, 994.8142
964.7236, 995.4740
965.2057, 994.5319
965.6878, 988.5381
966.1699, 984.8318
966.6520, 990.8396
967.1342, 1001.967
967.6163, 1008.008
968.0984, 1008.466
968.5805, 1004.867
969.0626, 989.3514
969.5447, 980.4089
970.0269, 988.7994
970.5090, 999.8512
970.9911, 1002.225
971.4732, 998.3700
971.9553, 995.2161
972.4374, 992.6577
972.9196, 993.4738
973.4017, 1004.311
973.8838, 1010.586
974.3659, 1000.398
974.8480, 989.1515
975.3301, 993.0531
975.8123, 1007.422
976.2944, 1015.896
976.7765, 1015.330
977.2586, 1010.748
977.7407, 996.0383
978.2228, 986.3216
978.7050, 993.1537
979.1871, 1004.352
979.6692, 1007.940
980.1513, 1004.856
980.6334, 1001.747
981.1155, 999.2170
981.5977, 999.2988
982.0798, 1003.426
982.5619, 1009.336
983.0440, 1019.100
983.5261, 1027.749
984.0082, 1027.075
984.4904, 1020.083
984.9725, 1020.284
985.4546, 1034.372
985.9367, 1046.415
986.4188, 1049.695
986.9009, 1050.483
987.3831, 1052.877
987.8652, 1054.545
988.3473, 1051.292
988.8294, 1044.275
989.3115, 1039.739
989.7936, 1040.751
990.2758, 1040.842
990.7579, 1035.242
991.2400, 1030.195
991.7221, 1029.909
992.2042, 1032.371
992.6863, 1036.233
993.1685, 1040.332
993.6506, 1041.800
994.1327, 1039.847
994.6148, 1034.697
995.0969, 1020.644
995.5790, 1009.650
996.0612, 1010.885
996.5433, 1019.378
997.0254, 1029.787
997.5075, 1040.880
997.9896, 1052.911
998.4717, 1069.064
998.9539, 1076.735
999.4360, 1062.518
999.9181, 1045.936
1000.400, 1036.660
1000.882, 1035.744
1001.364, 1048.727
1001.847, 1071.058
1002.329, 1083.948
1002.811, 1077.559
1003.293, 1071.812
1003.775, 1083.454
1004.257, 1090.960
1004.739, 1072.970
1005.221, 1046.333
1005.703, 1033.041
1006.186, 1032.824
1006.668, 1032.466
1007.150, 1028.053
1007.632, 1021.634
1008.114, 1006.606
1008.596, 998.2109
1009.078, 1015.387
1009.560, 1038.798
1010.043, 1043.531
1010.525, 1031.573
1011.007, 1021.431
1011.489, 1018.856
1011.971, 1017.993
1012.453, 1017.627
1012.935, 1016.693
1013.417, 1013.104
1013.899, 1009.645
1014.382, 1009.787
1014.864, 1012.983
1015.346, 1015.724
1015.828, 1015.950
1016.310, 1020.471
1016.792, 1036.313
1017.274, 1051.937
1017.756, 1066.945
1018.239, 1073.991
1018.721, 1060.057
1019.203, 1032.284
1019.685, 1011.387
1020.167, 1001.472
1020.649, 1001.965
1021.131, 1025.607
1021.613, 1043.554
1022.095, 1036.611
1022.578, 1022.990
1023.060, 1019.970
1023.542, 1024.471
1024.024, 1023.887
1024.506, 1014.041
1024.988, 1011.639
1025.470, 1033.253
1025.952, 1046.994
1026.435, 1033.115
1026.917, 1013.926
1027.399, 1006.760
1027.881, 1008.481
1028.363, 1011.700
1028.845, 1016.546
1029.327, 1013.319
1029.809, 993.4517
1030.292, 974.7739
1030.774, 957.9491
1031.256, 947.8687
1031.738, 951.6023
1032.220, 962.7194
1032.702, 970.8422
1033.184, 975.3132
1033.666, 975.2457
1034.148, 966.5414
1034.630, 959.1534
1035.113, 953.3239
1035.595, 950.6755
1036.077, 954.8879
1036.559, 961.3840
1037.041, 961.8749
1037.523, 955.9276
1038.005, 957.0170
1038.487, 979.2443
1038.970, 985.6761
1039.452, 961.5385
1039.934, 937.7109
1040.416, 928.0504
1040.898, 925.2305
1041.380, 919.3215
1041.862, 911.3988
1042.344, 914.3417
1042.826, 938.0346
1043.309, 950.3106
1043.791, 944.0613
1044.273, 937.4568
1044.755, 936.1967
1045.237, 938.8397
1045.719, 945.7555
1046.201, 954.8751
1046.683, 955.9589
1047.166, 945.3174
1047.648, 939.1241
1048.130, 937.8306
1048.612, 940.3127
1049.094, 947.2169
1049.576, 955.7743
1050.058, 965.0857
1050.540, 972.3508
1051.022, 968.1971
1051.505, 950.5931
1051.987, 942.7020
1052.469, 946.1668
1052.951, 949.0317
1053.433, 948.0532
1053.915, 949.3801
1054.397, 958.3203
1054.879, 968.2582
1055.361, 966.4528
1055.844, 953.8790
1056.326, 938.9963
1056.808, 921.7866
1057.290, 923.5420
1057.772, 948.1527
1058.254, 966.9377
1058.736, 964.6854
1059.218, 951.4519
1059.701, 938.4278
1060.183, 926.7899
1060.665, 921.0620
1061.147, 920.4931
1061.629, 920.5748
1062.111, 921.2211
1062.593, 928.2526
1063.075, 943.4487
1063.557, 954.7574
1064.040, 949.8333
1064.522, 935.1417
1065.004, 918.8703
1065.486, 903.4552
1065.968, 895.4149
1066.450, 894.0060
1066.932, 895.6450
1067.414, 898.9191
1067.896, 902.1984
1068.379, 904.0038
1068.861, 906.7407
1069.343, 915.9054
1069.825, 925.5732
1070.307, 926.4905
1070.789, 921.8226
1071.271, 918.3771
1071.753, 916.9431
1072.236, 913.3130
1072.718, 904.4516
1073.200, 901.4476
1073.682, 921.3266
1074.164, 940.7625
1074.646, 936.0062
1075.128, 922.5396
1075.610, 919.9249
1076.093, 926.0812
1076.575, 929.3368
1077.057, 926.5524
1077.539, 923.0161
1078.021, 918.2725
1078.503, 916.9147
1078.985, 921.3868
1079.467, 929.6701
1079.949, 946.4413
1080.432, 962.9055
1080.914, 963.2869
1081.396, 946.7062
1081.878, 932.1744
1082.360, 923.0912
1082.842, 916.1769
1083.324, 911.5518
1083.806, 908.3077
1084.288, 905.9019
1084.771, 904.8096
1085.253, 906.2805
1085.735, 909.6593
1086.217, 911.9315
1086.699, 913.8004
1087.181, 912.2806
1087.663, 903.5721
1088.145, 899.7371
1088.628, 907.4370
1089.110, 913.8345
1089.592, 907.6190
1090.074, 896.1254
1090.556, 896.5676
1091.038, 909.7100
1091.520, 911.0491
1092.002, 897.6269
1092.484, 892.3470
1092.967, 900.1190
1093.449, 907.9305
1093.931, 909.2340
1094.413, 907.6134
1094.895, 908.1081
1095.377, 908.9136
1095.859, 899.0461
1096.341, 881.6827
1096.823, 886.0901
1097.306, 911.7631
1097.788, 931.2935
1098.270, 935.7411
1098.752, 930.7990
1099.234, 919.0099
1099.716, 908.5161
1100.198, 918.1383
1100.680, 934.7448
1101.163, 927.7067
1101.645, 905.6215
1102.127, 890.8151
1102.609, 887.4500
1103.091, 892.7667
1103.573, 906.0908
1104.055, 916.7582
1104.537, 912.4540
1105.020, 905.2024
1105.502, 909.3434
1105.984, 914.4517
1106.466, 903.2927
1106.948, 883.6857
1107.430, 876.2838
1107.912, 884.8406
1108.394, 892.4073
1108.876, 892.5970
1109.359, 889.7926
1109.841, 880.5002
1110.323, 874.4420
1110.805, 880.6377
1111.287, 891.3561
1111.769, 898.5095
1112.251, 901.4022
1112.733, 899.4498
1113.215, 888.3712
1113.698, 882.9670
1114.180, 885.9211
1114.662, 890.9863
1115.144, 897.7981
1115.626, 905.2484
1116.108, 914.5961
1116.590, 922.0164
1117.072, 919.3860
1117.555, 906.6307
1118.037, 897.9142
1118.519, 893.7707
1119.001, 890.3705
1119.483, 886.9053
1119.965, 886.3734
1120.447, 889.8812
1120.929, 898.6885
1121.411, 915.7582
1121.894, 934.9200
1122.376, 939.0139
1122.858, 930.3528
1123.340, 917.9544
1123.822, 904.1090
1124.304, 900.0794
1124.786, 906.6924
1125.268, 907.9568
1125.750, 894.1535
1126.233, 882.3619
1126.715, 898.6272
1127.197, 922.5400
1127.679, 926.2568
1128.161, 917.7234
1128.643, 903.9850
1129.125, 891.2490
1129.607, 892.7206
1130.090, 910.2529
1130.572, 925.9892
1131.054, 933.1281
1131.536, 932.5437
1132.018, 914.8389
1132.500, 900.5148
1132.982, 911.5637
1133.464, 928.1949
1133.947, 923.2512
1134.429, 901.3615
1134.911, 889.1146
1135.393, 893.5754
1135.875, 894.3217
1136.357, 887.8162
1136.839, 880.2325
1137.321, 869.9047
1137.803, 862.7944
1138.286, 863.5023
1138.768, 867.8910
1139.250, 869.8355
1139.732, 869.7242
1140.214, 871.5258
1140.696, 875.6192
1141.178, 879.1994
1141.660, 882.3125
1142.142, 882.6810
1142.625, 879.6442
1143.107, 871.7028
1143.589, 856.6777
1144.071, 841.2714
1144.553, 837.6810
1145.035, 842.9573
1145.517, 853.2457
1145.999, 863.7410
1146.482, 855.5411
1146.964, 831.9577
1147.446, 815.5090
1147.928, 814.7269
1148.410, 822.6187
1148.892, 840.7103
1149.374, 853.9083
1149.856, 842.2520
1150.339, 825.2733
1150.821, 821.3037
1151.303, 825.9727
1151.785, 834.4708
1152.267, 843.3030
1152.749, 843.1564
1153.231, 828.9484
1153.713, 817.0873
1154.195, 811.6104
1154.677, 808.4520
1155.160, 804.0833
1155.642, 804.3943
1156.124, 815.5144
1156.606, 831.3065
1157.088, 843.5783
1157.570, 852.3066
1158.052, 857.5159
1158.534, 859.9125
1159.017, 854.5638
1159.499, 839.8309
1159.981, 825.1471
1160.463, 812.8979
1160.945, 804.6759
1161.427, 801.6110
1161.909, 802.9540
1162.391, 808.2009
1162.874, 816.4857
1163.356, 828.3326
1163.838, 840.1522
1164.320, 835.7637
1164.802, 818.9736
1165.284, 813.5673
1165.766, 825.3377
1166.248, 831.3358
1166.730, 811.2863
1167.213, 793.4243
1167.695, 812.3502
1168.177, 832.0599
1168.659, 809.3991
1169.141, 776.2615
1169.623, 779.1545
1170.105, 807.8747
1170.587, 819.8589
1171.069, 805.1554
1171.552, 794.9523
1172.034, 795.6656
1172.516, 799.6027
1172.998, 814.1608
1173.480, 818.7982
1173.962, 797.4279
1174.444, 772.6045
1174.926, 768.5969
1175.409, 779.5540
1175.891, 784.9001
1176.373, 783.8409
1176.855, 789.6532
1177.337, 802.5791
1177.819, 813.2092
1178.301, 819.6768
1178.783, 818.1136
1179.266, 806.6104
1179.748, 795.8052
1180.230, 797.0121
1180.712, 805.6668
1181.194, 818.6526
1181.676, 831.1291
1182.158, 834.2943
1182.640, 830.1948
1183.122, 821.8111
1183.604, 811.7357
1184.087, 805.5752
1184.569, 805.3495
1185.051, 809.4733
1185.533, 825.0829
1186.015, 834.1486
1186.497, 825.1166
1186.979, 811.1565
1187.461, 799.7808
1187.944, 790.1273
1188.426, 778.4677
1188.908, 766.3802
1189.390, 764.5087
1189.872, 775.8661
1190.354, 787.9025
1190.836, 802.6830
1191.318, 807.2586
1191.801, 796.8257
1192.283, 790.2083
1192.765, 798.6716
1193.247, 811.3487
1193.729, 814.5225
1194.211, 812.0700
1194.693, 813.1111
1195.175, 816.4160
1195.657, 820.1495
1196.140, 822.8501
1196.622, 818.7115
1197.104, 809.2801
1197.586, 808.3002
1198.068, 823.4176
1198.550, 830.6147
1199.032, 803.9006
1199.514, 779.1756
1199.996, 778.6952
1200.479, 786.3483
1200.961, 793.1436
1201.443, 797.3974
1201.925, 796.2746
1202.407, 790.9128
1202.889, 790.5869
1203.371, 798.7924
1203.853, 800.0816
1204.336, 790.6821
1204.818, 787.3639
1205.300, 795.0033
1205.782, 801.9274
1206.264, 801.8049
1206.746, 798.6361
1207.228, 796.7159
1207.710, 796.1425
1208.193, 797.2959
1208.675, 799.9381
1209.157, 805.2810
1209.639, 811.0605
1210.121, 809.3574
1210.603, 801.0100
1211.085, 796.1599
1211.567, 798.9427
1212.049, 798.7394
1212.531, 781.4072
1213.014, 769.6771
1213.496, 782.8494
1213.978, 797.7579
1214.460, 796.2590
1214.942, 788.6743
1215.424, 788.8843
1215.906, 794.8685
1216.388, 796.9196
1216.871, 793.8372
1217.353, 795.0259
1217.835, 802.8973
1218.317, 803.9348
1218.799, 795.1586
1219.281, 787.4545
1219.763, 785.3839
1220.245, 784.4157
1220.728, 779.9532
1221.210, 775.9367
1221.692, 782.0078
1222.174, 791.9420
1222.656, 791.5114
1223.138, 785.4760
1223.620, 783.3866
1224.102, 785.6693
1224.584, 791.1588
1225.067, 798.6057
1225.549, 798.6380
##END=



