##NAMES=Ferro-gedrite
##RRUFFID=R070531
##IDEAL CHEMISTRY=[box]Fe^2+^_2_(Fe^2+^_3_Al_2_)(Si_6_Al_2_)O_22_(OH)_2_
##LOCALITY=Ludvika, Dalarna District, Kopparberg, Sweden
##OWNER=RRUFF
##SOURCE=James Shigley
##DESCRIPTION=Flattened black prismatic crystals in semi-sheaflike aggregates, associated with quartz
##STATUS=The identification of this mineral is confirmed by single-crystal X-ray diffraction and chemical analysis.
##URL=rruff.info/R070531
##MEASURED CHEMISTRY=(Na_0.56_[box]_0.44_)_Σ=1_(Fe^2+^_1.94_Mn_0.05_Ca_0.01_)_Σ=2_(Fe^2+^_1.92_Mg_1.53_Al_1.52_Fe^3+^_0.02_Ti_0.01_)_Σ=5_(Si_5.88_Al_2.12_)_Σ=8_O_22_(OH)_2_; = light phase, and the dark phase is quartz
146.9519, 1947.789
147.4340, 1993.430
147.9162, 2046.580
148.3983, 2107.661
148.8804, 2172.653
149.3625, 2250.173
149.8446, 2329.928
150.3267, 2392.446
150.8089, 2428.944
151.2910, 2448.355
151.7731, 2467.628
152.2552, 2486.929
152.7373, 2505.862
153.2194, 2529.731
153.7016, 2553.772
154.1837, 2565.682
154.6658, 2560.829
155.1479, 2540.902
155.6300, 2508.448
156.1121, 2458.308
156.5943, 2411.245
157.0764, 2375.795
157.5585, 2351.556
158.0406, 2337.805
158.5227, 2337.083
159.0048, 2344.842
159.4870, 2350.742
159.9691, 2343.623
160.4512, 2332.685
160.9333, 2324.729
161.4154, 2319.053
161.8975, 2309.755
162.3797, 2289.156
162.8618, 2269.613
163.3439, 2268.872
163.8260, 2292.941
164.3081, 2316.656
164.7902, 2318.968
165.2724, 2301.775
165.7545, 2287.949
166.2366, 2289.228
166.7187, 2294.360
167.2008, 2288.613
167.6829, 2267.614
168.1651, 2249.570
168.6472, 2254.554
169.1293, 2282.399
169.6114, 2303.724
170.0935, 2305.024
170.5756, 2298.335
171.0578, 2294.693
171.5399, 2295.607
172.0220, 2298.127
172.5041, 2300.656
172.9862, 2303.408
173.4683, 2302.251
173.9505, 2292.136
174.4326, 2279.650
174.9147, 2269.680
175.3968, 2263.002
175.8789, 2258.636
176.3610, 2254.920
176.8432, 2251.386
177.3253, 2252.187
177.8074, 2270.368
178.2895, 2285.927
178.7716, 2279.794
179.2537, 2246.902
179.7359, 2209.826
180.2180, 2197.469
180.7001, 2214.626
181.1822, 2223.048
181.6643, 2201.435
182.1465, 2174.466
182.6286, 2157.733
183.1107, 2154.284
183.5928, 2157.571
184.0749, 2163.635
184.5570, 2174.892
185.0392, 2175.101
185.5213, 2149.285
186.0034, 2117.935
186.4855, 2091.593
186.9676, 2072.516
187.4497, 2059.336
187.9319, 2050.650
188.4140, 2046.258
188.8961, 2047.021
189.3782, 2057.405
189.8603, 2070.332
190.3424, 2082.932
190.8246, 2094.472
191.3067, 2103.995
191.7888, 2110.403
192.2709, 2113.525
192.7530, 2114.545
193.2351, 2110.017
193.7173, 2105.935
194.1994, 2105.557
194.6815, 2109.346
195.1636, 2115.604
195.6457, 2124.042
196.1278, 2135.920
196.6100, 2142.691
197.0921, 2136.885
197.5742, 2130.335
198.0563, 2128.091
198.5384, 2130.979
199.0205, 2137.883
199.5027, 2149.825
199.9848, 2168.401
200.4669, 2181.189
200.9490, 2176.343
201.4311, 2173.712
201.9132, 2185.727
202.3954, 2211.104
202.8775, 2236.754
203.3596, 2247.135
203.8417, 2239.665
204.3238, 2240.727
204.8059, 2259.591
205.2881, 2280.936
205.7702, 2300.411
206.2523, 2316.872
206.7344, 2329.170
207.2165, 2335.495
207.6986, 2335.522
208.1808, 2334.232
208.6629, 2327.681
209.1450, 2323.587
209.6271, 2326.588
210.1092, 2335.203
210.5913, 2344.268
211.0735, 2349.397
211.5556, 2350.650
212.0377, 2353.367
212.5198, 2360.648
213.0019, 2365.968
213.4840, 2367.057
213.9662, 2364.256
214.4483, 2358.650
214.9304, 2350.444
215.4125, 2339.934
215.8946, 2329.366
216.3767, 2317.082
216.8589, 2307.072
217.3410, 2303.823
217.8231, 2303.577
218.3052, 2298.991
218.7873, 2283.734
219.2694, 2260.870
219.7516, 2246.826
220.2337, 2256.197
220.7158, 2251.328
221.1979, 2211.641
221.6800, 2153.119
222.1621, 2098.848
222.6443, 2060.192
223.1264, 2034.352
223.6085, 2014.203
224.0906, 2004.745
224.5727, 1991.280
225.0548, 1964.097
225.5370, 1932.413
226.0191, 1907.532
226.5012, 1894.644
226.9833, 1889.239
227.4654, 1882.451
227.9475, 1874.408
228.4297, 1864.445
228.9118, 1852.518
229.3939, 1838.662
229.8760, 1822.102
230.3581, 1802.083
230.8402, 1781.531
231.3224, 1765.055
231.8045, 1753.472
232.2866, 1742.728
232.7687, 1729.995
233.2508, 1718.651
233.7329, 1712.819
234.2151, 1713.804
234.6972, 1715.040
235.1793, 1707.857
235.6614, 1691.142
236.1435, 1675.966
236.6256, 1663.492
237.1078, 1654.641
237.5899, 1651.938
238.0720, 1655.510
238.5541, 1658.804
239.0362, 1655.871
239.5183, 1646.836
240.0005, 1636.293
240.4826, 1622.041
240.9647, 1609.522
241.4468, 1602.635
241.9289, 1601.198
242.4111, 1602.239
242.8932, 1606.691
243.3753, 1613.025
243.8574, 1611.711
244.3395, 1597.614
244.8216, 1581.747
245.3038, 1570.208
245.7859, 1563.037
246.2680, 1560.906
246.7501, 1568.781
247.2322, 1581.734
247.7143, 1586.175
248.1965, 1578.780
248.6786, 1569.336
249.1607, 1563.481
249.6428, 1560.609
250.1249, 1560.110
250.6070, 1564.763
251.0892, 1570.464
251.5713, 1569.261
252.0534, 1559.500
252.5355, 1551.971
253.0176, 1557.164
253.4997, 1568.463
253.9819, 1573.305
254.4640, 1564.299
254.9461, 1553.136
255.4282, 1552.461
255.9103, 1561.989
256.3924, 1570.686
256.8745, 1573.234
257.3567, 1571.247
257.8388, 1568.292
258.3209, 1562.084
258.8030, 1559.004
259.2851, 1567.929
259.7672, 1585.061
260.2494, 1593.251
260.7315, 1583.443
261.2136, 1564.729
261.6957, 1552.920
262.1778, 1547.930
262.6599, 1548.057
263.1421, 1556.213
263.6242, 1568.599
264.1063, 1577.240
264.5884, 1579.526
265.0705, 1579.359
265.5526, 1583.148
266.0348, 1592.093
266.5169, 1596.827
266.9990, 1592.073
267.4811, 1583.886
267.9632, 1579.579
268.4453, 1580.412
268.9275, 1582.335
269.4096, 1580.706
269.8917, 1574.491
270.3738, 1572.798
270.8559, 1580.478
271.3380, 1589.020
271.8202, 1591.068
272.3023, 1587.315
272.7844, 1584.906
273.2665, 1590.095
273.7487, 1602.617
274.2308, 1609.098
274.7129, 1605.077
275.1950, 1600.707
275.6771, 1599.163
276.1592, 1600.381
276.6414, 1604.798
277.1235, 1613.421
277.6056, 1623.853
278.0877, 1625.353
278.5698, 1604.386
279.0519, 1590.983
279.5341, 1596.843
280.0162, 1609.669
280.4983, 1611.916
280.9804, 1596.896
281.4625, 1576.009
281.9446, 1572.966
282.4268, 1609.230
282.9089, 1629.742
283.3910, 1626.404
283.8731, 1614.047
284.3552, 1600.384
284.8373, 1588.531
285.3195, 1582.199
285.8016, 1587.768
286.2837, 1611.065
286.7658, 1624.319
287.2479, 1621.957
287.7300, 1615.318
288.2122, 1606.455
288.6943, 1597.240
289.1764, 1591.024
289.6585, 1591.431
290.1406, 1598.019
290.6227, 1601.288
291.1049, 1603.021
291.5870, 1598.582
292.0691, 1579.572
292.5512, 1555.114
293.0333, 1539.971
293.5154, 1543.322
293.9976, 1558.266
294.4797, 1566.705
294.9618, 1565.351
295.4439, 1564.998
295.9260, 1570.862
296.4081, 1578.079
296.8903, 1582.045
297.3724, 1581.295
297.8545, 1578.305
298.3366, 1575.661
298.8187, 1573.360
299.3008, 1571.483
299.7830, 1570.191
300.2651, 1569.263
300.7472, 1568.254
301.2293, 1567.170
301.7114, 1566.999
302.1935, 1570.358
302.6757, 1575.552
303.1578, 1574.920
303.6399, 1564.406
304.1220, 1554.349
304.6041, 1557.532
305.0862, 1569.823
305.5684, 1574.834
306.0505, 1556.855
306.5326, 1533.924
307.0147, 1533.597
307.4968, 1558.049
307.9789, 1580.262
308.4611, 1581.863
308.9432, 1566.782
309.4253, 1554.407
309.9074, 1545.008
310.3895, 1538.489
310.8716, 1535.280
311.3538, 1535.009
311.8359, 1536.379
312.3180, 1538.615
312.8001, 1542.512
313.2822, 1551.025
313.7643, 1569.080
314.2465, 1581.455
314.7286, 1584.159
315.2107, 1580.018
315.6928, 1570.417
316.1749, 1555.981
316.6570, 1541.230
317.1392, 1531.718
317.6213, 1527.934
318.1034, 1529.301
318.5855, 1541.479
319.0676, 1553.665
319.5497, 1557.346
320.0319, 1554.194
320.5140, 1553.242
320.9961, 1562.923
321.4782, 1582.498
321.9603, 1589.460
322.4424, 1565.169
322.9246, 1548.370
323.4067, 1552.904
323.8888, 1568.203
324.3709, 1578.005
324.8530, 1574.352
325.3351, 1563.575
325.8173, 1560.690
326.2994, 1568.932
326.7815, 1578.602
327.2636, 1598.716
327.7457, 1612.901
328.2278, 1603.492
328.7100, 1569.506
329.1921, 1533.192
329.6742, 1518.467
330.1563, 1525.938
330.6384, 1539.553
331.1205, 1569.400
331.6027, 1592.118
332.0848, 1589.876
332.5669, 1569.456
333.0490, 1552.323
333.5311, 1552.800
334.0132, 1563.957
334.4954, 1569.948
334.9775, 1569.826
335.4596, 1568.110
335.9417, 1567.276
336.4238, 1566.339
336.9059, 1563.373
337.3881, 1556.334
337.8702, 1549.990
338.3523, 1548.692
338.8344, 1551.624
339.3165, 1554.963
339.7986, 1557.663
340.2808, 1559.697
340.7629, 1560.217
341.2450, 1558.204
341.7271, 1559.297
342.2092, 1570.342
342.6913, 1582.886
343.1735, 1584.897
343.6556, 1574.679
344.1377, 1561.803
344.6198, 1554.885
345.1019, 1554.477
345.5840, 1557.559
346.0662, 1567.814
346.5483, 1577.663
347.0304, 1584.703
347.5125, 1588.461
347.9946, 1588.185
348.4767, 1583.163
348.9589, 1574.652
349.4410, 1567.279
349.9231, 1559.842
350.4052, 1555.414
350.8873, 1556.037
351.3694, 1558.668
351.8516, 1561.241
352.3337, 1562.971
352.8158, 1563.108
353.2979, 1559.660
353.7800, 1550.764
354.2621, 1546.057
354.7443, 1548.172
355.2264, 1552.480
355.7085, 1559.496
356.1906, 1567.499
356.6727, 1572.531
357.1548, 1571.575
357.6370, 1566.005
358.1191, 1559.712
358.6012, 1552.173
359.0833, 1545.319
359.5654, 1534.213
360.0475, 1526.568
360.5297, 1535.121
361.0118, 1568.658
361.4939, 1600.174
361.9760, 1600.230
362.4581, 1574.370
362.9402, 1556.700
363.4224, 1558.121
363.9045, 1567.200
364.3866, 1568.955
364.8687, 1563.354
365.3508, 1561.689
365.8329, 1572.974
366.3151, 1586.413
366.7972, 1587.529
367.2793, 1575.946
367.7614, 1564.981
368.2435, 1564.934
368.7256, 1574.806
369.2078, 1580.916
369.6899, 1579.377
370.1720, 1579.099
370.6541, 1583.339
371.1362, 1590.654
371.6183, 1599.359
372.1005, 1608.798
372.5826, 1617.462
373.0647, 1621.896
373.5468, 1616.305
374.0289, 1618.088
374.5110, 1633.627
374.9932, 1650.285
375.4753, 1658.864
375.9574, 1660.427
376.4395, 1663.339
376.9216, 1676.577
377.4037, 1698.395
377.8859, 1707.053
378.3680, 1689.555
378.8501, 1678.753
379.3322, 1691.067
379.8143, 1713.369
380.2964, 1728.428
380.7786, 1729.517
381.2607, 1725.309
381.7428, 1725.572
382.2249, 1730.303
382.7070, 1739.164
383.1891, 1758.167
383.6713, 1774.167
384.1534, 1770.915
384.6355, 1749.208
385.1176, 1732.506
385.5997, 1730.948
386.0818, 1739.680
386.5640, 1755.254
387.0461, 1777.427
387.5282, 1795.851
388.0103, 1803.266
388.4924, 1800.340
388.9745, 1794.213
389.4567, 1779.749
389.9388, 1768.075
390.4209, 1762.715
390.9030, 1762.846
391.3851, 1768.341
391.8672, 1779.121
392.3494, 1791.711
392.8315, 1800.715
393.3136, 1805.887
393.7957, 1807.526
394.2778, 1803.194
394.7599, 1798.070
395.2421, 1792.748
395.7242, 1788.967
396.2063, 1791.310
396.6884, 1805.201
397.1706, 1826.264
397.6527, 1831.880
398.1348, 1812.512
398.6169, 1794.886
399.0990, 1784.744
399.5811, 1780.026
400.0633, 1779.695
400.5454, 1783.644
401.0275, 1789.062
401.5096, 1793.089
401.9917, 1795.993
402.4738, 1801.071
402.9560, 1812.441
403.4381, 1819.484
403.9202, 1807.866
404.4023, 1782.866
404.8844, 1764.957
405.3665, 1761.143
405.8487, 1765.025
406.3308, 1772.305
406.8129, 1782.463
407.2950, 1794.980
407.7771, 1811.702
408.2592, 1827.485
408.7414, 1827.389
409.2235, 1801.308
409.7056, 1779.058
410.1877, 1762.596
410.6698, 1752.422
411.1519, 1751.817
411.6341, 1759.674
412.1162, 1768.337
412.5983, 1769.909
413.0804, 1764.096
413.5625, 1763.383
414.0446, 1781.427
414.5268, 1789.475
415.0089, 1773.241
415.4910, 1746.245
415.9731, 1726.082
416.4552, 1719.664
416.9373, 1720.906
417.4195, 1723.155
417.9016, 1727.268
418.3837, 1723.612
418.8658, 1704.410
419.3479, 1683.385
419.8300, 1670.107
420.3122, 1663.857
420.7943, 1660.052
421.2764, 1660.675
421.7585, 1660.636
422.2406, 1650.749
422.7227, 1631.091
423.2049, 1612.943
423.6870, 1603.129
424.1691, 1598.196
424.6512, 1587.721
425.1333, 1565.456
425.6154, 1550.256
426.0976, 1555.182
426.5797, 1565.681
427.0618, 1562.658
427.5439, 1543.675
428.0260, 1522.507
428.5081, 1513.578
428.9903, 1518.006
429.4724, 1517.180
429.9545, 1510.638
430.4366, 1499.301
430.9187, 1475.894
431.4008, 1450.169
431.8830, 1436.543
432.3651, 1440.926
432.8472, 1453.725
433.3293, 1461.435
433.8114, 1464.076
434.2935, 1460.908
434.7757, 1446.199
435.2578, 1431.405
435.7399, 1425.079
436.2220, 1425.361
436.7041, 1424.600
437.1862, 1417.302
437.6684, 1408.118
438.1505, 1404.301
438.6326, 1405.610
439.1147, 1406.293
439.5968, 1404.057
440.0789, 1399.284
440.5611, 1391.828
441.0432, 1378.915
441.5253, 1370.906
442.0074, 1375.696
442.4895, 1382.971
442.9716, 1380.065
443.4538, 1367.109
443.9359, 1355.884
444.4180, 1357.016
444.9001, 1369.569
445.3822, 1376.185
445.8643, 1373.654
446.3465, 1368.435
446.8286, 1355.435
447.3107, 1343.222
447.7928, 1343.812
448.2749, 1359.755
448.7570, 1376.730
449.2392, 1376.680
449.7213, 1359.834
450.2034, 1345.083
450.6855, 1332.055
451.1676, 1323.844
451.6497, 1325.341
452.1319, 1332.522
452.6140, 1336.800
453.0961, 1333.845
453.5782, 1329.650
454.0603, 1330.824
454.5424, 1335.447
455.0246, 1335.024
455.5067, 1325.396
455.9888, 1314.747
456.4709, 1315.915
456.9530, 1334.528
457.4352, 1344.548
457.9173, 1339.383
458.3994, 1331.228
458.8815, 1327.167
459.3636, 1326.326
459.8457, 1325.045
460.3279, 1321.257
460.8100, 1315.528
461.2921, 1308.681
461.7742, 1297.865
462.2563, 1292.566
462.7384, 1299.146
463.2206, 1307.052
463.7027, 1309.625
464.1848, 1307.023
464.6669, 1303.571
465.1490, 1302.346
465.6311, 1302.271
466.1133, 1300.550
466.5954, 1296.990
467.0775, 1293.454
467.5596, 1291.188
468.0417, 1289.238
468.5238, 1285.457
469.0060, 1278.729
469.4881, 1273.575
469.9702, 1271.439
470.4523, 1271.754
470.9344, 1275.638
471.4165, 1282.385
471.8987, 1286.752
472.3808, 1283.994
472.8629, 1274.913
473.3450, 1268.175
473.8271, 1262.822
474.3092, 1261.356
474.7914, 1268.397
475.2735, 1277.029
475.7556, 1280.666
476.2377, 1277.864
476.7198, 1271.599
477.2019, 1263.084
477.6841, 1252.776
478.1662, 1247.610
478.6483, 1249.666
479.1304, 1252.741
479.6125, 1251.759
480.0946, 1250.042
480.5768, 1253.421
481.0589, 1265.411
481.5410, 1277.059
482.0231, 1282.495
482.5052, 1283.423
482.9873, 1282.019
483.4695, 1278.615
483.9516, 1277.534
484.4337, 1284.401
484.9158, 1300.106
485.3979, 1307.521
485.8800, 1302.564
486.3622, 1295.553
486.8443, 1285.463
487.3264, 1276.808
487.8085, 1277.272
488.2906, 1288.799
488.7727, 1302.430
489.2549, 1304.040
489.7370, 1291.639
490.2191, 1289.231
490.7012, 1305.089
491.1833, 1320.391
491.6654, 1324.720
492.1476, 1322.182
492.6297, 1320.424
493.1118, 1321.953
493.5939, 1324.189
494.0760, 1322.698
494.5581, 1319.905
495.0403, 1326.088
495.5224, 1345.409
496.0045, 1363.902
496.4866, 1363.761
496.9687, 1341.717
497.4508, 1335.380
497.9330, 1361.326
498.4151, 1383.868
498.8972, 1386.198
499.3793, 1376.555
499.8614, 1366.810
500.3435, 1361.635
500.8257, 1361.580
501.3078, 1370.367
501.7899, 1391.141
502.2720, 1399.976
502.7541, 1385.675
503.2362, 1372.547
503.7184, 1373.538
504.2005, 1383.508
504.6826, 1392.698
505.1647, 1398.058
505.6468, 1401.791
506.1289, 1405.631
506.6111, 1409.492
507.0932, 1413.489
507.5753, 1417.848
508.0574, 1421.115
508.5395, 1421.550
509.0216, 1418.890
509.5038, 1416.557
509.9859, 1415.600
510.4680, 1413.826
510.9501, 1406.776
511.4322, 1399.704
511.9143, 1401.530
512.3965, 1414.775
512.8786, 1431.463
513.3607, 1441.109
513.8428, 1443.156
514.3250, 1443.193
514.8071, 1437.670
515.2892, 1435.378
515.7713, 1441.687
516.2534, 1453.247
516.7355, 1465.677
517.2177, 1479.825
517.6998, 1489.590
518.1819, 1486.415
518.6640, 1475.617
519.1461, 1470.689
519.6282, 1474.505
520.1104, 1479.810
520.5925, 1478.908
521.0746, 1471.924
521.5567, 1474.502
522.0388, 1503.182
522.5209, 1519.881
523.0031, 1501.781
523.4852, 1473.903
523.9673, 1467.174
524.4494, 1486.999
524.9315, 1511.512
525.4136, 1516.547
525.8958, 1503.956
526.3779, 1499.872
526.8600, 1507.110
527.3421, 1516.557
527.8242, 1526.541
528.3063, 1535.284
528.7885, 1540.321
529.2706, 1541.226
529.7527, 1539.241
530.2348, 1531.905
530.7169, 1523.447
531.1990, 1519.667
531.6812, 1521.156
532.1633, 1526.493
532.6454, 1535.259
533.1275, 1546.499
533.6096, 1555.453
534.0917, 1564.357
534.5739, 1567.354
535.0560, 1561.019
535.5381, 1551.216
536.0202, 1539.732
536.5023, 1528.477
536.9844, 1522.719
537.4666, 1530.562
537.9487, 1543.328
538.4308, 1537.581
538.9129, 1511.180
539.3950, 1486.817
539.8771, 1470.030
540.3593, 1461.174
540.8414, 1462.931
541.3235, 1476.059
541.8056, 1486.778
542.2877, 1492.343
542.7698, 1494.599
543.2520, 1495.784
543.7341, 1494.742
544.2162, 1486.655
544.6983, 1468.996
545.1804, 1448.667
545.6625, 1439.977
546.1447, 1448.784
546.6268, 1450.219
547.1089, 1433.707
547.5910, 1420.146
548.0731, 1422.112
548.5552, 1432.819
549.0374, 1438.168
549.5195, 1431.787
550.0016, 1422.094
550.4837, 1417.790
550.9658, 1416.817
551.4479, 1411.193
551.9301, 1398.628
552.4122, 1387.227
552.8943, 1385.137
553.3764, 1392.050
553.8585, 1394.125
554.3406, 1389.538
554.8228, 1383.216
555.3049, 1375.415
555.7870, 1366.867
556.2691, 1357.770
556.7512, 1348.480
557.2333, 1340.122
557.7155, 1332.726
558.1976, 1327.183
558.6797, 1330.734
559.1618, 1348.251
559.6439, 1356.284
560.1260, 1337.322
560.6082, 1309.951
561.0903, 1301.831
561.5724, 1316.524
562.0545, 1326.074
562.5366, 1319.768
563.0187, 1306.207
563.5009, 1287.671
563.9830, 1268.135
564.4651, 1259.278
564.9472, 1267.598
565.4293, 1284.005
565.9114, 1288.537
566.3936, 1274.649
566.8757, 1267.378
567.3578, 1278.700
567.8399, 1285.281
568.3220, 1271.417
568.8041, 1246.613
569.2863, 1231.258
569.7684, 1235.465
570.2505, 1242.922
570.7326, 1236.843
571.2147, 1221.821
571.6968, 1210.628
572.1790, 1205.701
572.6611, 1204.653
573.1432, 1206.221
573.6253, 1210.083
574.1074, 1212.320
574.5895, 1213.398
575.0717, 1212.336
575.5538, 1207.316
576.0359, 1201.244
576.5180, 1197.481
577.0001, 1195.728
577.4822, 1192.080
577.9644, 1182.255
578.4465, 1169.338
578.9286, 1162.310
579.4107, 1161.810
579.8928, 1159.533
580.3749, 1150.538
580.8571, 1141.403
581.3392, 1142.863
581.8213, 1155.079
582.3034, 1163.366
582.7855, 1165.924
583.2676, 1163.900
583.7498, 1154.892
584.2319, 1142.533
584.7140, 1133.003
585.1961, 1128.474
585.6782, 1126.461
586.1603, 1124.177
586.6425, 1121.652
587.1246, 1117.758
587.6067, 1111.542
588.0888, 1105.635
588.5709, 1099.926
589.0530, 1095.743
589.5352, 1096.014
590.0173, 1102.388
590.4994, 1106.411
590.9815, 1100.481
591.4636, 1092.285
591.9457, 1093.018
592.4279, 1101.333
592.9100, 1106.045
593.3921, 1100.360
593.8742, 1089.431
594.3563, 1086.183
594.8384, 1095.736
595.3206, 1100.554
595.8027, 1096.461
596.2848, 1091.026
596.7669, 1084.418
597.2490, 1079.280
597.7311, 1082.034
598.2133, 1098.541
598.6954, 1113.213
599.1775, 1108.318
599.6596, 1091.464
600.1417, 1081.012
600.6238, 1079.958
601.1060, 1085.280
601.5881, 1096.314
602.0702, 1111.196
602.5523, 1118.310
603.0344, 1111.735
603.5165, 1105.289
603.9987, 1098.573
604.4808, 1093.138
604.9629, 1090.374
605.4450, 1089.990
605.9271, 1090.423
606.4092, 1089.834
606.8914, 1091.054
607.3735, 1100.488
607.8556, 1116.695
608.3377, 1128.969
608.8198, 1134.480
609.3019, 1136.368
609.7841, 1137.677
610.2662, 1138.384
610.7483, 1135.952
611.2304, 1125.212
611.7125, 1118.221
612.1946, 1117.942
612.6768, 1122.572
613.1589, 1133.229
613.6410, 1147.979
614.1231, 1158.662
614.6052, 1156.930
615.0873, 1148.081
615.5695, 1145.235
616.0516, 1148.498
616.5337, 1155.213
617.0158, 1165.630
617.4979, 1177.307
617.9800, 1187.509
618.4622, 1196.237
618.9443, 1203.327
619.4264, 1205.694
619.9085, 1209.850
620.3906, 1220.552
620.8727, 1233.617
621.3549, 1243.650
621.8370, 1249.391
622.3191, 1252.881
622.8012, 1255.259
623.2833, 1257.102
623.7654, 1261.457
624.2476, 1268.827
624.7297, 1275.578
625.2118, 1278.777
625.6939, 1282.380
626.1760, 1294.712
626.6581, 1316.814
627.1403, 1329.543
627.6224, 1322.407
628.1045, 1313.297
628.5866, 1307.786
629.0687, 1308.305
629.5508, 1321.654
630.0330, 1348.383
630.5151, 1373.789
630.9972, 1379.908
631.4793, 1369.085
631.9614, 1359.732
632.4435, 1350.132
632.9257, 1348.668
633.4078, 1362.857
633.8899, 1383.653
634.3720, 1398.544
634.8541, 1407.417
635.3362, 1413.295
635.8184, 1416.595
636.3005, 1417.207
636.7826, 1411.700
637.2647, 1404.325
637.7468, 1403.743
638.2289, 1412.462
638.7111, 1423.262
639.1932, 1428.092
639.6753, 1427.120
640.1574, 1421.228
640.6395, 1407.749
641.1216, 1397.798
641.6038, 1396.101
642.0859, 1400.345
642.5680, 1408.965
643.0501, 1423.453
643.5322, 1430.640
644.0143, 1421.989
644.4965, 1410.987
644.9786, 1404.604
645.4607, 1402.587
645.9428, 1403.506
646.4249, 1406.833
646.9070, 1412.653
647.3892, 1423.390
647.8713, 1437.990
648.3534, 1442.265
648.8355, 1432.767
649.3176, 1425.286
649.7997, 1427.593
650.2819, 1434.125
650.7640, 1436.232
651.2461, 1433.274
651.7282, 1431.784
652.2103, 1433.923
652.6924, 1436.735
653.1746, 1439.602
653.6567, 1441.593
654.1388, 1439.816
654.6209, 1434.001
655.1030, 1430.350
655.5851, 1439.075
656.0673, 1456.846
656.5494, 1459.991
657.0315, 1445.117
657.5136, 1433.455
657.9957, 1434.496
658.4778, 1441.238
658.9600, 1444.841
659.4421, 1445.755
659.9242, 1440.913
660.4063, 1421.988
660.8884, 1405.952
661.3705, 1402.186
661.8527, 1405.787
662.3348, 1410.873
662.8169, 1415.393
663.2990, 1418.064
663.7811, 1417.821
664.2632, 1414.710
664.7454, 1408.316
665.2275, 1398.433
665.7096, 1388.014
666.1917, 1377.394
666.6738, 1367.987
667.1559, 1362.716
667.6381, 1362.612
668.1202, 1356.468
668.6023, 1338.160
669.0844, 1321.367
669.5665, 1309.930
670.0486, 1302.389
670.5308, 1298.607
671.0129, 1297.558
671.4950, 1295.286
671.9771, 1288.609
672.4592, 1279.103
672.9413, 1268.114
673.4235, 1256.200
673.9056, 1249.405
674.3877, 1250.615
674.8698, 1251.634
675.3519, 1243.010
675.8340, 1225.022
676.3162, 1213.038
676.7983, 1212.935
677.2804, 1211.234
677.7625, 1205.407
678.2446, 1198.033
678.7267, 1189.297
679.2089, 1180.691
679.6910, 1177.068
680.1731, 1184.654
680.6552, 1192.674
681.1373, 1186.224
681.6194, 1170.364
682.1016, 1159.374
682.5837, 1156.077
683.0658, 1157.014
683.5479, 1160.334
684.0300, 1164.749
684.5121, 1163.265
684.9943, 1150.649
685.4764, 1142.780
685.9585, 1148.238
686.4406, 1152.218
686.9227, 1144.310
687.4048, 1128.912
687.8870, 1117.396
688.3691, 1113.742
688.8512, 1112.713
689.3333, 1111.083
689.8154, 1110.083
690.2975, 1113.552
690.7797, 1120.151
691.2618, 1121.370
691.7439, 1111.730
692.2260, 1097.702
692.7081, 1093.698
693.1902, 1101.586
693.6724, 1107.208
694.1545, 1109.406
694.6366, 1110.129
695.1187, 1111.092
695.6008, 1110.947
696.0829, 1106.398
696.5651, 1095.016
697.0472, 1087.627
697.5293, 1090.853
698.0114, 1095.606
698.4935, 1095.449
698.9756, 1091.616
699.4578, 1087.743
699.9399, 1085.082
700.4220, 1081.606
700.9041, 1072.799
701.3862, 1060.661
701.8683, 1056.819
702.3505, 1062.162
702.8326, 1068.010
703.3147, 1071.968
703.7968, 1073.271
704.2789, 1070.047
704.7611, 1061.143
705.2432, 1055.675
705.7253, 1058.155
706.2075, 1058.341
706.6896, 1050.812
707.1717, 1041.186
707.6538, 1034.324
708.1359, 1031.278
708.6180, 1032.013
709.1002, 1039.004
709.5823, 1047.284
710.0644, 1050.228
710.5465, 1048.946
711.0286, 1047.216
711.5107, 1045.901
711.9929, 1043.162
712.4750, 1036.774
712.9571, 1028.041
713.4392, 1024.908
713.9213, 1030.720
714.4034, 1034.524
714.8856, 1033.201
715.3677, 1031.349
715.8498, 1032.775
716.3319, 1035.643
716.8140, 1034.801
717.2961, 1026.864
717.7783, 1020.401
718.2604, 1022.274
718.7425, 1025.792
719.2246, 1023.078
719.7067, 1015.221
720.1888, 1006.897
720.6710, 1000.287
721.1531, 997.7005
721.6352, 1006.498
722.1173, 1025.335
722.5994, 1030.113
723.0815, 1016.537
723.5637, 1004.802
724.0458, 1005.850
724.5279, 1012.262
725.0100, 1010.645
725.4921, 997.0496
725.9742, 991.1689
726.4564, 1002.378
726.9385, 1010.506
727.4206, 1004.495
727.9027, 993.5733
728.3848, 989.2864
728.8669, 992.8769
729.3491, 995.9224
729.8312, 992.0430
730.3133, 985.3652
730.7954, 980.9550
731.2775, 978.3458
731.7596, 975.0460
732.2418, 970.6227
732.7239, 970.3589
733.2060, 980.1310
733.6881, 996.7597
734.1702, 1003.569
734.6523, 996.2033
735.1345, 991.6062
735.6166, 994.2926
736.0987, 997.4291
736.5808, 995.9399
737.0629, 991.6575
737.5450, 989.0620
738.0272, 979.1193
738.5093, 991.7983
738.9914, 998.5769
739.4735, 999.7721
739.9556, 978.6611
740.4377, 986.3541
740.9199, 982.5034
741.4020, 978.1797
741.8841, 989.9266
742.3662, 972.0600
742.8483, 983.5520
743.3304, 983.3246
743.8126, 988.4607
744.2947, 981.9825
744.7768, 979.0916
745.2589, 987.8189
745.7410, 990.1131
746.2231, 982.2979
746.7053, 987.7749
747.1874, 969.5027
747.6695, 972.0709
748.1516, 983.6309
748.6337, 976.3995
749.1158, 982.0892
749.5980, 982.8575
750.0801, 961.2624
750.5622, 978.5601
751.0443, 979.0378
751.5264, 962.2452
752.0085, 978.2103
752.4907, 963.7984
752.9728, 960.2294
753.4549, 964.8201
753.9370, 966.8639
754.4191, 971.5280
754.9012, 975.5669
755.3834, 978.9729
755.8655, 981.7245
756.3476, 984.2261
756.8297, 983.2664
757.3118, 975.3680
757.7939, 965.5697
758.2761, 964.3738
758.7582, 977.0428
759.2403, 978.0934
759.7224, 953.3480
760.2045, 935.1689
760.6866, 936.5763
761.1688, 946.8691
761.6509, 956.5396
762.1330, 963.7627
762.6151, 967.5823
763.0972, 965.9691
763.5793, 962.3099
764.0615, 959.3009
764.5436, 956.2802
765.0257, 952.0748
765.5078, 946.5462
765.9899, 939.4753
766.4720, 930.0489
766.9542, 921.6628
767.4363, 923.5790
767.9184, 936.0267
768.4005, 945.3486
768.8826, 950.5724
769.3647, 950.8585
769.8469, 944.1850
770.3290, 933.5464
770.8111, 925.4090
771.2932, 919.9175
771.7753, 916.6680
772.2574, 915.8596
772.7396, 916.9166
773.2217, 921.3986
773.7038, 926.5964
774.1859, 929.4454
774.6680, 929.6095
775.1501, 928.9166
775.6323, 927.9260
776.1144, 926.7894
776.5965, 926.3813
777.0786, 925.6472
777.5607, 920.9506
778.0428, 912.9735
778.5250, 909.3924
779.0071, 916.6801
779.4892, 928.1106
779.9713, 927.2599
780.4534, 914.4510
780.9355, 908.1514
781.4177, 911.4179
781.8998, 915.4916
782.3819, 915.1722
782.8640, 912.9288
783.3461, 914.3906
783.8282, 922.3141
784.3104, 924.8799
784.7925, 916.3994
785.2746, 909.6089
785.7567, 910.3463
786.2388, 913.1812
786.7209, 912.8708
787.2031, 908.8211
787.6852, 902.1693
788.1673, 886.7833
788.6494, 876.0717
789.1315, 882.2504
789.6136, 896.6853
790.0958, 909.4385
790.5779, 918.0974
791.0600, 921.8172
791.5421, 919.7600
792.0242, 914.0517
792.5063, 906.0446
792.9885, 896.9108
793.4706, 895.6401
793.9527, 903.4264
794.4348, 904.3413
794.9169, 888.4609
795.3990, 868.0671
795.8812, 864.7254
796.3633, 881.7008
796.8454, 889.7260
797.3275, 881.8490
797.8096, 876.2908
798.2917, 881.6138
798.7739, 888.3834
799.2560, 888.3063
799.7381, 882.2874
800.2202, 877.4054
800.7023, 876.3660
801.1844, 874.9490
801.6666, 870.0663
802.1487, 865.4739
802.6308, 865.2801
803.1129, 868.3357
803.5950, 871.0662
804.0771, 872.0602
804.5593, 871.5753
805.0414, 868.3112
805.5235, 864.3870
806.0056, 864.8961
806.4877, 868.9979
806.9698, 871.3743
807.4520, 870.1561
807.9341, 867.8306
808.4162, 866.8741
808.8983, 867.4194
809.3804, 871.7308
809.8625, 881.9702
810.3447, 884.8065
810.8268, 874.5966
811.3089, 862.3566
811.7910, 855.6318
812.2731, 853.7500
812.7552, 854.2531
813.2374, 861.3555
813.7195, 863.2156
814.2016, 852.4458
814.6837, 844.1205
815.1658, 849.5067
815.6479, 859.7263
816.1301, 859.7938
816.6122, 847.3589
817.0943, 840.1050
817.5764, 853.8522
818.0585, 868.4609
818.5406, 867.2071
819.0228, 856.8946
819.5049, 846.2601
819.9870, 838.1365
820.4691, 835.3480
820.9512, 840.6896
821.4333, 849.2139
821.9155, 852.9661
822.3976, 852.9338
822.8797, 853.5477
823.3618, 855.1881
823.8439, 854.7057
824.3260, 850.0761
824.8082, 844.7941
825.2903, 844.7708
825.7724, 850.3346
826.2545, 855.7960
826.7366, 862.5250
827.2188, 865.7812
827.7009, 864.2813
828.1830, 858.7501
828.6651, 846.7617
829.1472, 830.0605
829.6293, 821.5552
830.1115, 828.4259
830.5936, 833.4145
831.0757, 833.1237
831.5578, 831.5075
832.0399, 829.7173
832.5220, 828.8276
833.0042, 830.8073
833.4863, 836.2816
833.9684, 841.6668
834.4505, 848.7679
834.9326, 851.3668
835.4147, 835.7841
835.8969, 814.4470
836.3790, 814.0631
836.8611, 836.1737
837.3432, 853.7760
837.8253, 844.9877
838.3074, 825.9528
838.7896, 826.6708
839.2717, 842.2875
839.7538, 851.0966
840.2359, 850.6478
840.7180, 846.1370
841.2001, 839.7784
841.6823, 833.1906
842.1644, 828.4683
842.6465, 825.4039
843.1286, 829.8496
843.6107, 845.9761
844.0928, 856.6940
844.5750, 854.6503
845.0571, 848.9103
845.5392, 848.0146
846.0213, 851.3275
846.5034, 853.3680
846.9855, 856.1706
847.4677, 854.7038
847.9498, 843.0600
848.4319, 832.9546
848.9140, 832.4940
849.3961, 837.0297
849.8782, 837.7143
850.3604, 832.5449
850.8425, 831.0532
851.3246, 843.2073
851.8067, 853.7899
852.2888, 849.7969
852.7709, 839.5408
853.2531, 834.2454
853.7352, 835.0709
854.2173, 837.4145
854.6994, 839.2123
855.1815, 839.5438
855.6636, 835.2532
856.1458, 829.4368
856.6279, 830.2006
857.1100, 836.5737
857.5921, 839.1886
858.0742, 834.1510
858.5563, 829.3058
859.0385, 835.3896
859.5206, 849.9842
860.0027, 859.9011
860.4848, 865.0980
860.9669, 867.3545
861.4490, 867.4201
861.9312, 862.1903
862.4133, 847.0574
862.8954, 827.0580
863.3775, 818.8099
863.8596, 827.9100
864.3417, 833.1567
864.8239, 832.7205
865.3060, 831.1922
865.7881, 827.3839
866.2702, 825.4650
866.7523, 833.0035
867.2344, 849.9839
867.7166, 859.4093
868.1987, 854.0103
868.6808, 849.1791
869.1629, 849.2235
869.6450, 850.3942
870.1271, 849.7530
870.6093, 847.9702
871.0914, 847.1960
871.5735, 848.2078
872.0556, 848.9376
872.5377, 845.0598
873.0198, 843.6073
873.5020, 857.0167
873.9841, 873.9861
874.4662, 872.1351
874.9483, 851.1541
875.4304, 835.0040
875.9125, 841.3076
876.3947, 855.1735
876.8768, 857.7505
877.3589, 853.6230
877.8410, 853.3211
878.3231, 856.8428
878.8052, 857.8781
879.2874, 853.6316
879.7695, 847.4778
880.2516, 842.0228
880.7337, 838.5975
881.2158, 846.9717
881.6979, 866.8776
882.1801, 877.7782
882.6622, 874.5753
883.1443, 865.2374
883.6264, 854.2241
884.1085, 844.1356
884.5906, 843.4603
885.0728, 855.4446
885.5549, 861.9908
886.0370, 860.3641
886.5191, 859.4239
887.0012, 863.5746
887.4833, 868.7252
887.9655, 870.0250
888.4476, 867.5095
888.9297, 864.5981
889.4118, 861.1026
889.8939, 857.4836
890.3760, 850.7808
890.8582, 847.0214
891.3403, 851.1976
891.8224, 860.0361
892.3045, 868.8364
892.7866, 877.9686
893.2687, 880.8619
893.7509, 869.8140
894.2330, 859.4951
894.7151, 856.9528
895.1972, 858.3465
895.6793, 859.8148
896.1614, 861.0920
896.6436, 863.4980
897.1257, 867.7648
897.6078, 872.5248
898.0899, 877.7002
898.5720, 882.2157
899.0541, 886.0814
899.5363, 888.0494
900.0184, 884.2165
900.5005, 874.6409
900.9826, 866.8053
901.4647, 866.2887
901.9468, 870.5435
902.4290, 879.3057
902.9111, 889.2404
903.3932, 890.6407
903.8753, 884.4271
904.3574, 881.7579
904.8395, 887.9473
905.3217, 895.3962
905.8038, 892.7567
906.2859, 883.4123
906.7680, 881.7188
907.2501, 886.8913
907.7322, 889.1879
908.2144, 886.2714
908.6965, 884.0587
909.1786, 887.0988
909.6607, 893.1795
910.1428, 897.3460
910.6249, 899.6585
911.1071, 898.6594
911.5892, 893.4159
912.0713, 889.0697
912.5534, 887.2425
913.0355, 887.5814
913.5176, 890.1544
913.9998, 894.5679
914.4819, 897.7394
914.9640, 899.8644
915.4461, 900.1753
915.9282, 897.9200
916.4103, 894.8873
916.8925, 890.4893
917.3746, 886.8019
917.8567, 887.0220
918.3388, 891.3466
918.8209, 898.0181
919.3030, 910.5059
919.7852, 920.4963
920.2673, 932.1096
920.7494, 935.5612
921.2315, 913.9447
921.7136, 881.5651
922.1957, 872.5534
922.6779, 897.3403
923.1600, 917.9714
923.6421, 927.2825
924.1242, 929.5082
924.6063, 922.0851
925.0884, 911.7363
925.5706, 905.0393
926.0527, 901.8887
926.5348, 898.2637
927.0169, 891.4310
927.4990, 887.8477
927.9811, 894.0857
928.4633, 901.5731
928.9454, 902.5236
929.4275, 900.3068
929.9096, 900.5110
930.3917, 904.3036
930.8738, 910.4592
931.3560, 920.1268
931.8381, 928.7943
932.3202, 933.3513
932.8023, 934.0832
933.2844, 928.3527
933.7665, 919.5535
934.2487, 917.0831
934.7308, 923.6225
935.2129, 930.8788
935.6950, 931.1509
936.1771, 928.6304
936.6592, 927.9345
937.1414, 929.6442
937.6235, 938.7075
938.1056, 952.6014
938.5877, 956.8347
939.0698, 944.1711
939.5519, 925.9863
940.0341, 913.0273
940.5162, 906.5746
940.9983, 914.7889
941.4804, 933.5911
941.9625, 942.5366
942.4446, 937.9079
942.9268, 930.9268
943.4089, 929.0137
943.8910, 928.9454
944.3731, 922.4867
944.8552, 911.6792
945.3373, 915.1811
945.8195, 932.8109
946.3016, 939.2271
946.7837, 926.2812
947.2658, 912.6712
947.7479, 915.0007
948.2300, 928.0846
948.7122, 938.3563
949.1943, 945.9354
949.6764, 945.9585
950.1585, 936.8246
950.6406, 930.9401
951.1228, 933.7390
951.6049, 938.5919
952.0870, 937.4058
952.5692, 932.2444
953.0513, 937.0294
953.5334, 955.6572
954.0155, 964.0373
954.4976, 956.5349
954.9797, 950.0854
955.4619, 953.9153
955.9440, 960.3530
956.4261, 958.0137
956.9082, 947.2362
957.3903, 941.9906
957.8724, 943.7854
958.3546, 947.7833
958.8367, 957.2306
959.3188, 961.3318
959.8009, 950.1141
960.2830, 933.3936
960.7651, 928.9024
961.2473, 938.1693
961.7294, 945.9851
962.2115, 952.8398
962.6936, 957.3517
963.1757, 958.7274
963.6578, 958.3373
964.1400, 956.8561
964.6221, 954.2822
965.1042, 949.7158
965.5863, 941.0750
966.0684, 938.8222
966.5505, 951.1428
967.0327, 958.6196
967.5148, 950.8926
967.9969, 943.2330
968.4790, 949.6594
968.9611, 964.4453
969.4432, 971.5330
969.9254, 967.9780
970.4075, 963.9429
970.8896, 957.2677
971.3717, 954.0049
971.8538, 959.0288
972.3359, 965.7092
972.8181, 969.1365
973.3002, 969.2539
973.7823, 966.3525
974.2644, 957.3982
974.7465, 953.5817
975.2286, 961.8633
975.7108, 969.3986
976.1929, 971.4658
976.6750, 969.7432
977.1571, 963.7007
977.6392, 955.2829
978.1213, 952.2936
978.6035, 959.0911
979.0856, 964.7672
979.5677, 968.9606
980.0498, 968.8400
980.5319, 958.3298
981.0140, 945.8506
981.4962, 939.7277
981.9783, 940.8525
982.4604, 948.8076
982.9425, 971.8963
983.4246, 984.7528
983.9067, 969.0493
984.3889, 952.0944
984.8710, 950.9219
985.3531, 958.5521
985.8352, 966.7841
986.3173, 973.8502
986.7994, 977.3434
987.2816, 974.3049
987.7637, 971.6217
988.2458, 972.3342
988.7279, 973.7903
989.2100, 974.1127
989.6921, 974.0174
990.1743, 976.4398
990.6564, 980.6187
991.1385, 978.3535
991.6206, 959.4528
992.1027, 945.6915
992.5848, 952.5255
993.0670, 961.8489
993.5491, 958.3495
994.0312, 949.0252
994.5133, 946.0479
994.9954, 950.9063
995.4775, 956.7692
995.9597, 961.4524
996.4418, 965.9374
996.9239, 972.8207
997.4060, 977.6292
997.8881, 975.3956
998.3702, 969.2133
998.8524, 961.6616
999.3345, 954.4396
999.8166, 956.6339
1000.299, 982.7939
1000.781, 1003.139
1001.263, 999.2141
1001.745, 987.4800
1002.227, 977.8465
1002.709, 971.7081
1003.191, 970.7064
1003.674, 974.3938
1004.156, 976.0049
1004.638, 970.1756
1005.120, 965.3323
1005.602, 965.6900
1006.084, 968.3878
1006.566, 972.3566
1007.048, 976.3920
1007.530, 978.8925
1008.013, 979.6580
1008.495, 979.8284
1008.977, 981.8263
1009.459, 980.5139
1009.941, 971.3908
1010.423, 960.1320
1010.905, 949.1657
1011.387, 940.2831
1011.870, 937.5383
1012.352, 940.5980
1012.834, 939.5089
1013.316, 925.2450
1013.798, 913.7433
1014.280, 913.8180
1014.762, 917.1630
1015.244, 918.0623
1015.726, 917.7115
1016.209, 919.3178
1016.691, 922.9587
1017.173, 924.4117
1017.655, 920.8729
1018.137, 916.9861
1018.619, 914.2784
1019.101, 911.9851
1019.583, 910.1251
1020.065, 908.0195
1020.548, 903.9960
1021.030, 898.3182
1021.512, 894.9688
1021.994, 897.7995
1022.476, 898.7691
1022.958, 893.0766
1023.440, 887.2879
1023.922, 887.4700
1024.405, 888.8525
1024.887, 883.1796
1025.369, 871.0922
1025.851, 864.0875
1026.333, 870.0320
1026.815, 872.2267
1027.297, 861.4356
1027.779, 851.9788
1028.261, 853.2539
1028.744, 858.9691
1029.226, 860.6793
1029.708, 858.8289
1030.190, 861.0604
1030.672, 874.0978
1031.154, 880.8062
1031.636, 875.5586
1032.118, 867.1958
1032.600, 856.5317
1033.083, 846.9059
1033.565, 841.1769
1034.047, 839.4601
1034.529, 842.3562
1035.011, 856.5693
1035.493, 861.6550
1035.975, 844.7601
1036.457, 833.2418
1036.940, 843.6172
1037.422, 857.3111
1037.904, 856.2095
1038.386, 843.6146
1038.868, 832.7779
1039.350, 821.5045
1039.832, 817.5856
1040.314, 827.2126
1040.797, 834.7720
1041.279, 836.0328
1041.761, 834.0028
1042.243, 830.0477
1042.725, 824.9529
1043.207, 820.8018
1043.689, 817.0509
1044.171, 816.3977
1044.653, 818.6756
1045.135, 824.9571
1045.618, 838.8562
1046.100, 850.7628
1046.582, 853.7653
1047.064, 850.0732
1047.546, 843.6368
1048.028, 833.7769
1048.510, 829.0367
1048.992, 831.6513
1049.475, 831.2971
1049.957, 825.1582
1050.439, 818.3743
1050.921, 813.2716
1051.403, 811.0190
1051.885, 814.5645
1052.367, 823.4097
1052.849, 826.3491
1053.332, 822.9017
1053.814, 817.2660
1054.296, 809.5746
1054.778, 802.9625
1055.260, 798.8005
1055.742, 797.9825
1056.224, 803.3264
1056.706, 811.8137
1057.188, 806.1035
1057.671, 787.2798
1058.153, 779.4677
1058.635, 785.0359
1059.117, 795.6177
1059.599, 808.1597
1060.081, 816.6931
1060.563, 814.1448
1061.045, 805.2326
1061.527, 801.1537
1062.010, 800.7771
1062.492, 799.8972
1062.974, 797.9503
1063.456, 792.7814
1063.938, 784.1793
1064.420, 777.4982
1064.902, 777.1495
1065.384, 779.3566
1065.867, 777.4119
1066.349, 774.1902
1066.831, 777.6363
1067.313, 784.9805
1067.795, 787.0176
1068.277, 782.6339
1068.759, 776.5513
1069.241, 770.5464
1069.724, 770.0618
1070.206, 788.8593
1070.688, 809.1975
1071.170, 804.6337
1071.652, 787.8834
1072.134, 780.8599
1072.616, 784.2888
1073.098, 789.2489
1073.580, 792.5744
1074.063, 791.4860
1074.545, 778.4039
1075.027, 766.7446
1075.509, 767.8123
1075.991, 774.4811
1076.473, 781.2542
1076.955, 786.4622
1077.437, 788.0853
1077.920, 785.7900
1078.402, 783.8824
1078.884, 783.4561
1079.366, 784.5220
1079.848, 791.3996
1080.330, 795.2747
1080.812, 786.8072
1081.294, 773.3484
1081.776, 765.9285
1082.259, 765.0079
1082.741, 763.1246
1083.223, 754.0829
1083.705, 752.5682
1084.187, 768.2861
1084.669, 781.7261
1085.151, 785.4507
1085.633, 783.2212
1086.115, 775.6382
1086.598, 765.2150
1087.080, 762.7560
1087.562, 772.7609
1088.044, 775.6750
1088.526, 767.3986
1089.008, 761.6086
1089.490, 763.5210
1089.972, 764.0891
1090.455, 755.3119
1090.937, 743.6125
1091.419, 742.7424
1091.901, 752.7821
1092.383, 757.7361
1092.865, 756.6432
1093.347, 759.8706
1093.829, 769.7596
1094.312, 776.8698
1094.794, 776.2636
1095.276, 772.4810
1095.758, 771.3461
1096.240, 771.2321
1096.722, 765.3906
1097.204, 755.2088
1097.686, 749.6255
1098.168, 748.8212
1098.651, 747.5011
1099.133, 744.1375
1099.615, 742.9409
1100.097, 748.0731
1100.579, 753.8829
1101.061, 749.7623
1101.543, 741.7634
1102.025, 742.4153
1102.507, 748.3663
1102.990, 750.7878
1103.472, 748.3032
1103.954, 743.2251
1104.436, 736.3130
1104.918, 730.1165
1105.400, 724.9731
1105.882, 723.1557
1106.364, 730.6042
1106.847, 739.4658
1107.329, 739.3366
1107.811, 732.9933
1108.293, 728.7164
1108.775, 728.4108
1109.257, 729.5125
1109.739, 731.7205
1110.221, 734.2499
1110.703, 738.3444
1111.186, 740.9985
1111.668, 739.4199
1112.150, 735.8710
1112.632, 732.4736
1113.114, 729.6966
1113.596, 730.1010
1114.078, 736.6526
1114.560, 740.8880
1115.042, 742.0932
1115.525, 742.1345
1116.007, 741.2347
1116.489, 739.6248
1116.971, 736.6806
1117.453, 734.0540
1117.935, 736.9583
1118.417, 746.2349
1118.899, 741.5287
1119.382, 719.4993
1119.864, 707.2634
1120.346, 710.1542
1120.828, 714.5367
1121.310, 713.7654
1121.792, 710.9120
1122.274, 709.4216
1122.756, 709.1819
1123.239, 710.5090
1123.721, 712.8237
1124.203, 712.5351
1124.685, 710.3597
1125.167, 712.4649
1125.649, 719.6277
1126.131, 723.3160
1126.613, 717.0884
1127.095, 709.1870
1127.578, 710.4737
1128.060, 714.5092
1128.542, 711.8583
1129.024, 706.2438
1129.506, 703.6094
1129.988, 704.5681
1130.470, 709.2165
1130.952, 717.7148
1131.434, 721.0161
1131.917, 706.4608
1132.399, 696.1088
1132.881, 706.4804
1133.363, 719.3832
1133.845, 721.4915
1134.327, 716.6004
1134.809, 711.6826
1135.291, 706.9285
1135.774, 697.4903
1136.256, 673.7937
1136.738, 662.8751
1137.220, 674.4040
1137.702, 684.1788
1138.184, 684.9713
1138.666, 682.6946
1139.148, 680.7053
1139.630, 680.0556
1140.113, 683.9256
1140.595, 692.4601
1141.077, 695.2996
1141.559, 692.4409
1142.041, 680.7919
1142.523, 658.6851
1143.005, 649.3802
1143.487, 663.8125
1143.969, 684.1500
1144.452, 692.7997
1144.934, 692.5986
1145.416, 686.3673
1145.898, 677.3738
1146.380, 676.1934
1146.862, 680.6230
1147.344, 681.6292
1147.826, 678.0745
1148.309, 675.4697
1148.791, 676.6927
1149.273, 678.3983
1149.755, 678.5607
1150.237, 677.1862
1150.719, 673.1164
1151.201, 668.4799
1151.683, 665.1332
1152.166, 663.3459
1152.648, 664.1238
1153.130, 667.2678
1153.612, 667.6561
1154.094, 661.7976
1154.576, 656.5019
1155.058, 649.8968
1155.540, 648.0139
1156.022, 658.9139
1156.505, 670.1651
1156.987, 670.3831
1157.469, 663.3391
1157.951, 659.2390
1158.433, 658.4768
1158.915, 656.2751
1159.397, 651.2500
1159.879, 653.7050
1160.361, 666.8606
1160.844, 674.9773
1161.326, 670.2121
1161.808, 658.9703
1162.290, 646.7841
1162.772, 636.7601
1163.254, 639.1358
1163.736, 649.4146
1164.218, 653.2449
1164.701, 651.4153
1165.183, 648.8221
1165.665, 647.0261
1166.147, 647.2948
1166.629, 650.4002
1167.111, 653.7762
1167.593, 656.1085
1168.075, 657.0041
1168.557, 654.4019
1169.040, 651.7270
1169.522, 653.8801
1170.004, 658.0101
1170.486, 658.6289
1170.968, 655.1542
1171.450, 650.6570
1171.932, 644.5452
1172.414, 639.6593
1172.896, 633.9193
1173.379, 633.2686
1173.861, 644.8936
1174.343, 654.0424
1174.825, 647.2061
1175.307, 633.7498
1175.789, 632.9091
1176.271, 643.9881
1176.753, 649.4804
1177.236, 649.1983
1177.718, 645.5628
1178.200, 638.8832
1178.682, 638.0751
1179.164, 646.1889
1179.646, 650.2189
1180.128, 638.1932
1180.610, 621.9702
1181.093, 619.2864
1181.575, 624.4343
1182.057, 629.6422
1182.539, 633.6806
1183.021, 634.3036
1183.503, 632.3370
1183.985, 630.6945
1184.467, 630.2822
1184.949, 630.5079
1185.432, 630.6400
1185.914, 631.9852
1186.396, 638.4320
1186.878, 642.3830
1187.360, 632.1744
1187.842, 622.4949
1188.324, 637.7334
1188.806, 666.8887
1189.288, 669.9996
1189.771, 640.0509
1190.253, 625.2539
1190.735, 629.8396
1191.217, 634.6483
1191.699, 637.2032
1192.181, 637.2968
1192.663, 634.6541
1193.145, 630.2310
1193.628, 624.0294
1194.110, 619.4792
1194.592, 627.3758
1195.074, 642.3211
1195.556, 647.3085
1196.038, 645.0877
1196.520, 647.0069
1197.002, 653.0639
1197.484, 653.5885
1197.967, 644.7292
1198.449, 636.6288
1198.931, 637.6377
1199.413, 639.5058
1199.895, 637.7526
1200.377, 634.4755
1200.859, 628.4554
1201.341, 623.8555
1201.823, 628.6802
1202.306, 640.1889
1202.788, 642.9755
1203.270, 633.8741
1203.752, 627.5256
1204.234, 624.1285
1204.716, 623.4520
1205.198, 626.7089
1205.680, 628.2061
1206.163, 625.0651
1206.645, 619.3461
1207.127, 612.2815
1207.609, 606.5494
1208.091, 610.0200
1208.573, 620.2063
1209.055, 629.8902
1209.537, 638.2629
1210.020, 644.4209
1210.502, 648.0674
1210.984, 649.0104
1211.466, 647.1497
1211.948, 642.7230
1212.430, 633.2390
1212.912, 624.9844
1213.394, 621.7201
1213.876, 621.0734
1214.359, 624.3923
1214.841, 627.0091
1215.323, 621.6574
1215.805, 610.8120
1216.287, 604.5531
1216.769, 602.8052
1217.251, 607.8685
1217.733, 624.2640
1218.215, 631.1313
1218.698, 622.8777
1219.180, 619.5737
1219.662, 630.3292
1220.144, 641.7443
1220.626, 640.5620
1221.108, 635.4713
1221.590, 647.6873
1222.072, 666.8303
1222.555, 664.0703
1223.037, 647.9147
1223.519, 639.0616
1224.001, 638.0549
1224.483, 636.5663
1224.965, 632.0937
1225.447, 626.5765
1225.929, 618.5633
1226.411, 614.3774
1226.894, 616.6844
1227.376, 623.5101
1227.858, 642.3908
1228.340, 657.0678
1228.822, 648.1207
1229.304, 628.5310
1229.786, 622.8832
1230.268, 630.6725
1230.750, 636.5526
1231.233, 640.6892
1231.715, 641.1519
1232.197, 637.7648
1232.679, 631.1375
1233.161, 621.7765
1233.643, 619.2656
1234.125, 630.4003
1234.607, 641.6671
1235.090, 633.4084
1235.572, 619.0453
1236.054, 616.4396
1236.536, 618.9325
1237.018, 618.3675
1237.500, 615.6465
1237.982, 612.1138
1238.464, 609.4108
1238.947, 614.3915
1239.429, 633.6355
1239.911, 643.7957
1240.393, 634.0071
1240.875, 626.9868
1241.357, 628.7599
1241.839, 628.2004
1242.321, 618.5060
1242.803, 607.8756
1243.286, 605.2386
1243.768, 608.3685
1244.250, 612.4376
1244.732, 616.8679
1245.214, 617.6108
1245.696, 616.0513
1246.178, 618.9184
1246.660, 625.1779
1247.142, 626.5034
1247.625, 620.4887
1248.107, 613.1365
1248.589, 604.9053
1249.071, 603.2110
1249.553, 620.9470
1250.035, 635.7298
1250.517, 631.9410
1250.999, 621.3541
1251.482, 612.5363
1251.964, 606.1696
1252.446, 602.3886
1252.928, 601.3400
1253.410, 606.3064
1253.892, 618.9780
1254.374, 622.6553
1254.856, 616.2366
1255.339, 617.1478
1255.821, 628.8974
1256.303, 633.3884
1256.785, 620.7125
1257.267, 606.9961
1257.749, 609.6614
1258.231, 618.2158
1258.713, 623.0344
1259.195, 624.7990
1259.677, 622.1580
1260.160, 618.3633
1260.642, 617.5333
1261.124, 619.6873
1261.606, 624.6658
1262.088, 634.1733
1262.570, 633.0089
1263.052, 611.8740
1263.534, 602.7953
1264.017, 613.2427
1264.499, 617.6120
1264.981, 605.9072
1265.463, 596.0840
1265.945, 601.8745
1266.427, 613.6133
1266.909, 617.8951
1267.391, 616.2278
1267.874, 607.9163
1268.356, 598.5289
1268.838, 600.7972
1269.320, 609.4672
1269.802, 612.6741
1270.284, 608.7741
1270.766, 600.1343
1271.248, 584.9018
##END=



