##NAMES=Ferrobobfergusonite
##RRUFFID=R140993
##IDEAL CHEMISTRY=Na_2_Fe^2+^_5_Fe^3+^Al(PO_4_)_6_
##LOCALITY=Victory mine, Custer, Custer District, Custer County, South Dakota, USA
##OWNER=RRUFF
##SOURCE=Rock Currier
##DESCRIPTION=Dark green aggregates of blocky crystals, associated with quartz and muscovite. Four different dark green minerals are found: schorl, fillowite, ferrobobfergusonite, and ferrowyllieite. Light green crystals are arrojadite. This is the type sample
##STATUS=The identification of this mineral is confirmed by single-crystal X-ray diffraction and chemical analysis.
##URL=rruff.info/R140993
##MEASURED CHEMISTRY=(Na_1.73_Ca_0.13_)(Fe^2+^_3.51_Mn_0.89_Mg_0.43_)(Fe^3+^_0.77_Al_0.23_)Al(P_1.01_O_4_)_6_
8.813672e+001, 4.218981e+002
8.861884e+001, 4.293529e+002
8.910095e+001, 4.354816e+002
8.958307e+001, 4.400373e+002
9.006519e+001, 4.451020e+002
9.054730e+001, 4.532936e+002
9.102942e+001, 4.676205e+002
9.151154e+001, 4.800476e+002
9.199365e+001, 4.792225e+002
9.247577e+001, 4.673525e+002
9.295789e+001, 4.554966e+002
9.344000e+001, 4.524305e+002
9.392212e+001, 4.551723e+002
9.440424e+001, 4.559678e+002
9.488635e+001, 4.535804e+002
9.536847e+001, 4.493862e+002
9.585059e+001, 4.458734e+002
9.633270e+001, 4.429596e+002
9.681482e+001, 4.407236e+002
9.729694e+001, 4.386817e+002
9.777905e+001, 4.368354e+002
9.826117e+001, 4.376648e+002
9.874329e+001, 4.432310e+002
9.922540e+001, 4.524355e+002
9.970752e+001, 4.568815e+002
1.001896e+002, 4.554572e+002
1.006718e+002, 4.516696e+002
1.011539e+002, 4.496733e+002
1.016360e+002, 4.495864e+002
1.021181e+002, 4.507277e+002
1.026002e+002, 4.529592e+002
1.030823e+002, 4.563431e+002
1.035645e+002, 4.601652e+002
1.040466e+002, 4.636849e+002
1.045287e+002, 4.681089e+002
1.050108e+002, 4.760695e+002
1.054929e+002, 4.893408e+002
1.059750e+002, 5.034847e+002
1.064572e+002, 5.174201e+002
1.069393e+002, 5.355814e+002
1.074214e+002, 5.455773e+002
1.079035e+002, 5.436362e+002
1.083856e+002, 5.331536e+002
1.088677e+002, 5.260530e+002
1.093499e+002, 5.235942e+002
1.098320e+002, 5.234866e+002
1.103141e+002, 5.247455e+002
1.107962e+002, 5.282003e+002
1.112783e+002, 5.320801e+002
1.117604e+002, 5.361496e+002
1.122426e+002, 5.405096e+002
1.127247e+002, 5.455835e+002
1.132068e+002, 5.507419e+002
1.136889e+002, 5.570203e+002
1.141710e+002, 5.650891e+002
1.146531e+002, 5.793704e+002
1.151353e+002, 5.913859e+002
1.156174e+002, 5.977139e+002
1.160995e+002, 5.982902e+002
1.165816e+002, 5.991955e+002
1.170637e+002, 6.044938e+002
1.175458e+002, 6.107001e+002
1.180280e+002, 6.140850e+002
1.185101e+002, 6.102031e+002
1.189922e+002, 6.051329e+002
1.194743e+002, 6.022711e+002
1.199564e+002, 6.019008e+002
1.204385e+002, 6.029645e+002
1.209207e+002, 6.039072e+002
1.214028e+002, 6.058857e+002
1.218849e+002, 6.109109e+002
1.223670e+002, 6.257849e+002
1.228491e+002, 6.416749e+002
1.233312e+002, 6.483666e+002
1.238134e+002, 6.432598e+002
1.242955e+002, 6.345365e+002
1.247776e+002, 6.284320e+002
1.252597e+002, 6.247400e+002
1.257418e+002, 6.227132e+002
1.262239e+002, 6.219954e+002
1.267061e+002, 6.226725e+002
1.271882e+002, 6.250536e+002
1.276703e+002, 6.295566e+002
1.281524e+002, 6.351208e+002
1.286345e+002, 6.404527e+002
1.291166e+002, 6.455557e+002
1.295988e+002, 6.505254e+002
1.300809e+002, 6.563212e+002
1.305630e+002, 6.623002e+002
1.310451e+002, 6.655474e+002
1.315272e+002, 6.645196e+002
1.320093e+002, 6.610916e+002
1.324915e+002, 6.595464e+002
1.329736e+002, 6.599939e+002
1.334557e+002, 6.612885e+002
1.339378e+002, 6.623634e+002
1.344199e+002, 6.632216e+002
1.349020e+002, 6.646551e+002
1.353842e+002, 6.670328e+002
1.358663e+002, 6.701044e+002
1.363484e+002, 6.723212e+002
1.368305e+002, 6.729962e+002
1.373126e+002, 6.747314e+002
1.377947e+002, 6.818026e+002
1.382769e+002, 6.959609e+002
1.387590e+002, 7.064890e+002
1.392411e+002, 7.098356e+002
1.397232e+002, 7.058876e+002
1.402053e+002, 7.010820e+002
1.406874e+002, 6.949958e+002
1.411696e+002, 6.885366e+002
1.416517e+002, 6.829841e+002
1.421338e+002, 6.784984e+002
1.426159e+002, 6.745523e+002
1.430980e+002, 6.709004e+002
1.435801e+002, 6.674579e+002
1.440623e+002, 6.650290e+002
1.445444e+002, 6.638182e+002
1.450265e+002, 6.635544e+002
1.455086e+002, 6.639278e+002
1.459907e+002, 6.660160e+002
1.464728e+002, 6.673573e+002
1.469550e+002, 6.670629e+002
1.474371e+002, 6.643605e+002
1.479192e+002, 6.617995e+002
1.484013e+002, 6.593649e+002
1.488834e+002, 6.570824e+002
1.493655e+002, 6.549495e+002
1.498477e+002, 6.518340e+002
1.503298e+002, 6.498531e+002
1.508119e+002, 6.499568e+002
1.512940e+002, 6.550251e+002
1.517761e+002, 6.579191e+002
1.522583e+002, 6.566784e+002
1.527404e+002, 6.528675e+002
1.532225e+002, 6.509041e+002
1.537046e+002, 6.540596e+002
1.541867e+002, 6.570551e+002
1.546688e+002, 6.574564e+002
1.551510e+002, 6.532375e+002
1.556331e+002, 6.485800e+002
1.561152e+002, 6.435735e+002
1.565973e+002, 6.384651e+002
1.570794e+002, 6.343426e+002
1.575615e+002, 6.319067e+002
1.580437e+002, 6.302076e+002
1.585258e+002, 6.286511e+002
1.590079e+002, 6.271522e+002
1.594900e+002, 6.257408e+002
1.599721e+002, 6.241161e+002
1.604542e+002, 6.224339e+002
1.609364e+002, 6.215965e+002
1.614185e+002, 6.230536e+002
1.619006e+002, 6.249501e+002
1.623827e+002, 6.257938e+002
1.628648e+002, 6.244306e+002
1.633469e+002, 6.225532e+002
1.638291e+002, 6.208261e+002
1.643112e+002, 6.192442e+002
1.647933e+002, 6.175538e+002
1.652754e+002, 6.153776e+002
1.657575e+002, 6.131171e+002
1.662396e+002, 6.111949e+002
1.667218e+002, 6.097637e+002
1.672039e+002, 6.087130e+002
1.676860e+002, 6.078958e+002
1.681681e+002, 6.073290e+002
1.686502e+002, 6.072962e+002
1.691323e+002, 6.083971e+002
1.696145e+002, 6.100610e+002
1.700966e+002, 6.115041e+002
1.705787e+002, 6.130704e+002
1.710608e+002, 6.138911e+002
1.715429e+002, 6.127142e+002
1.720250e+002, 6.094231e+002
1.725072e+002, 6.062031e+002
1.729893e+002, 6.048309e+002
1.734714e+002, 6.046618e+002
1.739535e+002, 6.045027e+002
1.744356e+002, 6.037508e+002
1.749177e+002, 6.027640e+002
1.753999e+002, 6.019255e+002
1.758820e+002, 6.012418e+002
1.763641e+002, 6.007014e+002
1.768462e+002, 6.003753e+002
1.773283e+002, 6.001760e+002
1.778104e+002, 5.998847e+002
1.782926e+002, 5.994471e+002
1.787747e+002, 5.988294e+002
1.792568e+002, 5.978040e+002
1.797389e+002, 5.962751e+002
1.802210e+002, 5.949013e+002
1.807031e+002, 5.946154e+002
1.811853e+002, 5.951857e+002
1.816674e+002, 5.958054e+002
1.821495e+002, 5.963528e+002
1.826316e+002, 5.966419e+002
1.831137e+002, 5.960137e+002
1.835958e+002, 5.942596e+002
1.840780e+002, 5.923227e+002
1.845601e+002, 5.915086e+002
1.850422e+002, 5.916986e+002
1.855243e+002, 5.919512e+002
1.860064e+002, 5.921296e+002
1.864885e+002, 5.920486e+002
1.869707e+002, 5.907840e+002
1.874528e+002, 5.880086e+002
1.879349e+002, 5.848199e+002
1.884170e+002, 5.828184e+002
1.888991e+002, 5.819662e+002
1.893812e+002, 5.816107e+002
1.898634e+002, 5.817131e+002
1.903455e+002, 5.821321e+002
1.908276e+002, 5.818770e+002
1.913097e+002, 5.806818e+002
1.917918e+002, 5.792014e+002
1.922739e+002, 5.786746e+002
1.927561e+002, 5.791249e+002
1.932382e+002, 5.796300e+002
1.937203e+002, 5.797615e+002
1.942024e+002, 5.795199e+002
1.946845e+002, 5.788610e+002
1.951666e+002, 5.776579e+002
1.956488e+002, 5.762350e+002
1.961309e+002, 5.752241e+002
1.966130e+002, 5.746422e+002
1.970951e+002, 5.742625e+002
1.975772e+002, 5.740484e+002
1.980593e+002, 5.740067e+002
1.985415e+002, 5.737299e+002
1.990236e+002, 5.731095e+002
1.995057e+002, 5.723446e+002
1.999878e+002, 5.718554e+002
2.004699e+002, 5.716389e+002
2.009520e+002, 5.717166e+002
2.014342e+002, 5.723187e+002
2.019163e+002, 5.735422e+002
2.023984e+002, 5.740609e+002
2.028805e+002, 5.735654e+002
2.033626e+002, 5.725125e+002
2.038447e+002, 5.721224e+002
2.043269e+002, 5.725766e+002
2.048090e+002, 5.730358e+002
2.052911e+002, 5.728742e+002
2.057732e+002, 5.719166e+002
2.062553e+002, 5.716043e+002
2.067374e+002, 5.723114e+002
2.072196e+002, 5.735325e+002
2.077017e+002, 5.737800e+002
2.081838e+002, 5.727571e+002
2.086659e+002, 5.715817e+002
2.091480e+002, 5.709084e+002
2.096301e+002, 5.708524e+002
2.101123e+002, 5.707581e+002
2.105944e+002, 5.705847e+002
2.110765e+002, 5.703553e+002
2.115586e+002, 5.701568e+002
2.120407e+002, 5.700430e+002
2.125228e+002, 5.698380e+002
2.130050e+002, 5.693308e+002
2.134871e+002, 5.682922e+002
2.139692e+002, 5.678398e+002
2.144513e+002, 5.682111e+002
2.149334e+002, 5.691346e+002
2.154155e+002, 5.698256e+002
2.158977e+002, 5.702271e+002
2.163798e+002, 5.704909e+002
2.168619e+002, 5.707737e+002
2.173440e+002, 5.712842e+002
2.178261e+002, 5.710654e+002
2.183082e+002, 5.697361e+002
2.187904e+002, 5.677446e+002
2.192725e+002, 5.664526e+002
2.197546e+002, 5.659526e+002
2.202367e+002, 5.660035e+002
2.207188e+002, 5.666937e+002
2.212009e+002, 5.686721e+002
2.216831e+002, 5.695242e+002
2.221652e+002, 5.688696e+002
2.226473e+002, 5.671470e+002
2.231294e+002, 5.655780e+002
2.236115e+002, 5.640157e+002
2.240936e+002, 5.628515e+002
2.245758e+002, 5.623636e+002
2.250579e+002, 5.629903e+002
2.255400e+002, 5.632399e+002
2.260221e+002, 5.630272e+002
2.265042e+002, 5.624445e+002
2.269863e+002, 5.617061e+002
2.274685e+002, 5.606427e+002
2.279506e+002, 5.596754e+002
2.284327e+002, 5.590154e+002
2.289148e+002, 5.588106e+002
2.293969e+002, 5.585244e+002
2.298790e+002, 5.580287e+002
2.303612e+002, 5.574755e+002
2.308433e+002, 5.573311e+002
2.313254e+002, 5.580251e+002
2.318075e+002, 5.584544e+002
2.322896e+002, 5.580223e+002
2.327717e+002, 5.560860e+002
2.332539e+002, 5.548907e+002
2.337360e+002, 5.548389e+002
2.342181e+002, 5.553945e+002
2.347002e+002, 5.552966e+002
2.351823e+002, 5.541386e+002
2.356644e+002, 5.529256e+002
2.361466e+002, 5.520645e+002
2.366287e+002, 5.517138e+002
2.371108e+002, 5.512745e+002
2.375929e+002, 5.507263e+002
2.380750e+002, 5.501033e+002
2.385571e+002, 5.494877e+002
2.390393e+002, 5.489314e+002
2.395214e+002, 5.483091e+002
2.400035e+002, 5.475594e+002
2.404856e+002, 5.466029e+002
2.409677e+002, 5.457725e+002
2.414498e+002, 5.451259e+002
2.419320e+002, 5.445943e+002
2.424141e+002, 5.440093e+002
2.428962e+002, 5.432103e+002
2.433783e+002, 5.426490e+002
2.438604e+002, 5.425707e+002
2.443425e+002, 5.432162e+002
2.448247e+002, 5.434594e+002
2.453068e+002, 5.430598e+002
2.457889e+002, 5.424150e+002
2.462710e+002, 5.421882e+002
2.467531e+002, 5.427002e+002
2.472352e+002, 5.430685e+002
2.477174e+002, 5.429744e+002
2.481995e+002, 5.422975e+002
2.486816e+002, 5.417588e+002
2.491637e+002, 5.414969e+002
2.496458e+002, 5.412540e+002
2.501279e+002, 5.406050e+002
2.506101e+002, 5.391613e+002
2.510922e+002, 5.380209e+002
2.515743e+002, 5.375471e+002
2.520564e+002, 5.378242e+002
2.525385e+002, 5.381036e+002
2.530206e+002, 5.385095e+002
2.535028e+002, 5.388021e+002
2.539849e+002, 5.386203e+002
2.544670e+002, 5.376484e+002
2.549491e+002, 5.368809e+002
2.554312e+002, 5.366082e+002
2.559133e+002, 5.368657e+002
2.563955e+002, 5.370370e+002
2.568776e+002, 5.371118e+002
2.573597e+002, 5.371109e+002
2.578418e+002, 5.370601e+002
2.583239e+002, 5.369722e+002
2.588061e+002, 5.367977e+002
2.592882e+002, 5.365540e+002
2.597703e+002, 5.362350e+002
2.602524e+002, 5.356485e+002
2.607345e+002, 5.346707e+002
2.612166e+002, 5.335935e+002
2.616988e+002, 5.326190e+002
2.621809e+002, 5.317040e+002
2.626630e+002, 5.310944e+002
2.631451e+002, 5.309664e+002
2.636272e+002, 5.312404e+002
2.641093e+002, 5.311683e+002
2.645915e+002, 5.306599e+002
2.650736e+002, 5.299769e+002
2.655557e+002, 5.293020e+002
2.660378e+002, 5.286575e+002
2.665199e+002, 5.279975e+002
2.670020e+002, 5.272999e+002
2.674842e+002, 5.265849e+002
2.679663e+002, 5.260146e+002
2.684484e+002, 5.256652e+002
2.689305e+002, 5.252819e+002
2.694126e+002, 5.245969e+002
2.698947e+002, 5.234329e+002
2.703769e+002, 5.227538e+002
2.708590e+002, 5.228401e+002
2.713411e+002, 5.233723e+002
2.718232e+002, 5.232131e+002
2.723053e+002, 5.221088e+002
2.727874e+002, 5.210800e+002
2.732696e+002, 5.209098e+002
2.737517e+002, 5.218254e+002
2.742338e+002, 5.219975e+002
2.747159e+002, 5.210651e+002
2.751980e+002, 5.195800e+002
2.756801e+002, 5.189838e+002
2.761623e+002, 5.195080e+002
2.766444e+002, 5.199037e+002
2.771265e+002, 5.193069e+002
2.776086e+002, 5.175869e+002
2.780907e+002, 5.167527e+002
2.785728e+002, 5.171068e+002
2.790550e+002, 5.179508e+002
2.795371e+002, 5.179894e+002
2.800192e+002, 5.171246e+002
2.805013e+002, 5.162487e+002
2.809834e+002, 5.157446e+002
2.814655e+002, 5.156027e+002
2.819477e+002, 5.155768e+002
2.824298e+002, 5.157095e+002
2.829119e+002, 5.158281e+002
2.833940e+002, 5.156392e+002
2.838761e+002, 5.151282e+002
2.843582e+002, 5.146484e+002
2.848404e+002, 5.144101e+002
2.853225e+002, 5.143309e+002
2.858046e+002, 5.138270e+002
2.862867e+002, 5.128087e+002
2.867688e+002, 5.117950e+002
2.872509e+002, 5.114698e+002
2.877331e+002, 5.117850e+002
2.882152e+002, 5.120598e+002
2.886973e+002, 5.121399e+002
2.891794e+002, 5.120184e+002
2.896615e+002, 5.116435e+002
2.901436e+002, 5.110107e+002
2.906258e+002, 5.102335e+002
2.911079e+002, 5.092625e+002
2.915900e+002, 5.081802e+002
2.920721e+002, 5.074444e+002
2.925542e+002, 5.073481e+002
2.930363e+002, 5.075256e+002
2.935185e+002, 5.070342e+002
2.940006e+002, 5.058883e+002
2.944827e+002, 5.050078e+002
2.949648e+002, 5.054589e+002
2.954469e+002, 5.067746e+002
2.959290e+002, 5.074572e+002
2.964112e+002, 5.071086e+002
2.968933e+002, 5.062208e+002
2.973754e+002, 5.053276e+002
2.978575e+002, 5.044744e+002
2.983396e+002, 5.039478e+002
2.988217e+002, 5.042157e+002
2.993039e+002, 5.049045e+002
2.997860e+002, 5.052885e+002
3.002681e+002, 5.052668e+002
3.007502e+002, 5.049433e+002
3.012323e+002, 5.041862e+002
3.017144e+002, 5.031528e+002
3.021966e+002, 5.024306e+002
3.026787e+002, 5.025721e+002
3.031608e+002, 5.031024e+002
3.036429e+002, 5.033703e+002
3.041250e+002, 5.033005e+002
3.046071e+002, 5.031361e+002
3.050893e+002, 5.031370e+002
3.055714e+002, 5.032063e+002
3.060535e+002, 5.031422e+002
3.065356e+002, 5.028061e+002
3.070177e+002, 5.023246e+002
3.074998e+002, 5.017919e+002
3.079820e+002, 5.012081e+002
3.084641e+002, 5.006465e+002
3.089462e+002, 5.002370e+002
3.094283e+002, 4.998660e+002
3.099104e+002, 4.993797e+002
3.103925e+002, 4.983348e+002
3.108747e+002, 4.974759e+002
3.113568e+002, 4.976173e+002
3.118389e+002, 4.986048e+002
3.123210e+002, 4.992598e+002
3.128031e+002, 4.987076e+002
3.132852e+002, 4.976250e+002
3.137674e+002, 4.966348e+002
3.142495e+002, 4.957947e+002
3.147316e+002, 4.952390e+002
3.152137e+002, 4.951606e+002
3.156958e+002, 4.954552e+002
3.161779e+002, 4.957761e+002
3.166601e+002, 4.963080e+002
3.171422e+002, 4.965978e+002
3.176243e+002, 4.962497e+002
3.181064e+002, 4.948115e+002
3.185885e+002, 4.935379e+002
3.190706e+002, 4.928852e+002
3.195528e+002, 4.926773e+002
3.200349e+002, 4.925762e+002
3.205170e+002, 4.928150e+002
3.209991e+002, 4.928661e+002
3.214812e+002, 4.923937e+002
3.219633e+002, 4.911592e+002
3.224455e+002, 4.901844e+002
3.229276e+002, 4.897896e+002
3.234097e+002, 4.897196e+002
3.238918e+002, 4.896613e+002
3.243739e+002, 4.896280e+002
3.248560e+002, 4.895493e+002
3.253382e+002, 4.894220e+002
3.258203e+002, 4.892524e+002
3.263024e+002, 4.890009e+002
3.267845e+002, 4.883382e+002
3.272666e+002, 4.877744e+002
3.277487e+002, 4.877233e+002
3.282309e+002, 4.891918e+002
3.287130e+002, 4.899905e+002
3.291951e+002, 4.896462e+002
3.296772e+002, 4.882867e+002
3.301593e+002, 4.871849e+002
3.306414e+002, 4.863984e+002
3.311236e+002, 4.858212e+002
3.316057e+002, 4.854030e+002
3.320878e+002, 4.852394e+002
3.325699e+002, 4.850433e+002
3.330520e+002, 4.847637e+002
3.335341e+002, 4.844453e+002
3.340163e+002, 4.842276e+002
3.344984e+002, 4.841479e+002
3.349805e+002, 4.841020e+002
3.354626e+002, 4.840462e+002
3.359447e+002, 4.839710e+002
3.364268e+002, 4.839366e+002
3.369090e+002, 4.839839e+002
3.373911e+002, 4.840379e+002
3.378732e+002, 4.839884e+002
3.383553e+002, 4.838434e+002
3.388374e+002, 4.835800e+002
3.393195e+002, 4.831165e+002
3.398017e+002, 4.824755e+002
3.402838e+002, 4.821354e+002
3.407659e+002, 4.821579e+002
3.412480e+002, 4.823383e+002
3.417301e+002, 4.825147e+002
3.422122e+002, 4.826945e+002
3.426944e+002, 4.827353e+002
3.431765e+002, 4.825760e+002
3.436586e+002, 4.822648e+002
3.441407e+002, 4.819565e+002
3.446228e+002, 4.816491e+002
3.451049e+002, 4.813542e+002
3.455871e+002, 4.810911e+002
3.460692e+002, 4.808499e+002
3.465513e+002, 4.805632e+002
3.470334e+002, 4.801629e+002
3.475155e+002, 4.798271e+002
3.479977e+002, 4.800130e+002
3.484798e+002, 4.806466e+002
3.489619e+002, 4.811073e+002
3.494440e+002, 4.808898e+002
3.499261e+002, 4.802580e+002
3.504082e+002, 4.797788e+002
3.508904e+002, 4.794839e+002
3.513725e+002, 4.793683e+002
3.518546e+002, 4.794995e+002
3.523367e+002, 4.798137e+002
3.528188e+002, 4.801414e+002
3.533009e+002, 4.802527e+002
3.537831e+002, 4.804185e+002
3.542652e+002, 4.812123e+002
3.547473e+002, 4.825870e+002
3.552294e+002, 4.835735e+002
3.557115e+002, 4.830075e+002
3.561936e+002, 4.817711e+002
3.566758e+002, 4.810498e+002
3.571579e+002, 4.815420e+002
3.576400e+002, 4.821893e+002
3.581221e+002, 4.822117e+002
3.586042e+002, 4.817465e+002
3.590863e+002, 4.812850e+002
3.595685e+002, 4.808318e+002
3.600506e+002, 4.806288e+002
3.605327e+002, 4.809198e+002
3.610148e+002, 4.819193e+002
3.614969e+002, 4.829509e+002
3.619790e+002, 4.839667e+002
3.624612e+002, 4.847969e+002
3.629433e+002, 4.851739e+002
3.634254e+002, 4.843551e+002
3.639075e+002, 4.836395e+002
3.643896e+002, 4.836527e+002
3.648717e+002, 4.845430e+002
3.653539e+002, 4.852900e+002
3.658360e+002, 4.857506e+002
3.663181e+002, 4.859408e+002
3.668002e+002, 4.858889e+002
3.672823e+002, 4.851966e+002
3.677644e+002, 4.846952e+002
3.682466e+002, 4.846211e+002
3.687287e+002, 4.849259e+002
3.692108e+002, 4.850419e+002
3.696929e+002, 4.849194e+002
3.701750e+002, 4.846546e+002
3.706571e+002, 4.842830e+002
3.711393e+002, 4.836451e+002
3.716214e+002, 4.831895e+002
3.721035e+002, 4.829913e+002
3.725856e+002, 4.829559e+002
3.730677e+002, 4.828817e+002
3.735498e+002, 4.828029e+002
3.740320e+002, 4.826236e+002
3.745141e+002, 4.822667e+002
3.749962e+002, 4.816969e+002
3.754783e+002, 4.813285e+002
3.759604e+002, 4.812827e+002
3.764425e+002, 4.812484e+002
3.769247e+002, 4.807590e+002
3.774068e+002, 4.797117e+002
3.778889e+002, 4.788969e+002
3.783710e+002, 4.786330e+002
3.788531e+002, 4.787332e+002
3.793352e+002, 4.783308e+002
3.798174e+002, 4.773634e+002
3.802995e+002, 4.763383e+002
3.807816e+002, 4.756234e+002
3.812637e+002, 4.752004e+002
3.817458e+002, 4.750307e+002
3.822279e+002, 4.752116e+002
3.827101e+002, 4.754247e+002
3.831922e+002, 4.751105e+002
3.836743e+002, 4.743226e+002
3.841564e+002, 4.734487e+002
3.846385e+002, 4.725793e+002
3.851206e+002, 4.717884e+002
3.856028e+002, 4.713061e+002
3.860849e+002, 4.711727e+002
3.865670e+002, 4.709933e+002
3.870491e+002, 4.702578e+002
3.875312e+002, 4.692144e+002
3.880133e+002, 4.683507e+002
3.884955e+002, 4.678808e+002
3.889776e+002, 4.676323e+002
3.894597e+002, 4.675596e+002
3.899418e+002, 4.676219e+002
3.904239e+002, 4.675824e+002
3.909060e+002, 4.672567e+002
3.913882e+002, 4.667861e+002
3.918703e+002, 4.662715e+002
3.923524e+002, 4.656450e+002
3.928345e+002, 4.651570e+002
3.933166e+002, 4.649444e+002
3.937987e+002, 4.649534e+002
3.942809e+002, 4.650778e+002
3.947630e+002, 4.657124e+002
3.952451e+002, 4.660837e+002
3.957272e+002, 4.656715e+002
3.962093e+002, 4.642561e+002
3.966914e+002, 4.632375e+002
3.971736e+002, 4.631764e+002
3.976557e+002, 4.634925e+002
3.981378e+002, 4.636519e+002
3.986199e+002, 4.634628e+002
3.991020e+002, 4.632583e+002
3.995841e+002, 4.630955e+002
4.000663e+002, 4.629567e+002
4.005484e+002, 4.627271e+002
4.010305e+002, 4.623047e+002
4.015126e+002, 4.619036e+002
4.019947e+002, 4.616337e+002
4.024768e+002, 4.615584e+002
4.029590e+002, 4.614750e+002
4.034411e+002, 4.613261e+002
4.039232e+002, 4.612242e+002
4.044053e+002, 4.615102e+002
4.048874e+002, 4.625098e+002
4.053695e+002, 4.629016e+002
4.058517e+002, 4.619885e+002
4.063338e+002, 4.599144e+002
4.068159e+002, 4.587239e+002
4.072980e+002, 4.585306e+002
4.077801e+002, 4.588350e+002
4.082622e+002, 4.594146e+002
4.087444e+002, 4.602371e+002
4.092265e+002, 4.603988e+002
4.097086e+002, 4.594554e+002
4.101907e+002, 4.581064e+002
4.106728e+002, 4.579321e+002
4.111549e+002, 4.588269e+002
4.116371e+002, 4.596916e+002
4.121192e+002, 4.597737e+002
4.126013e+002, 4.593422e+002
4.130834e+002, 4.589142e+002
4.135655e+002, 4.585064e+002
4.140476e+002, 4.582531e+002
4.145298e+002, 4.584733e+002
4.150119e+002, 4.589301e+002
4.154940e+002, 4.591505e+002
4.159761e+002, 4.586983e+002
4.164582e+002, 4.581162e+002
4.169403e+002, 4.578398e+002
4.174225e+002, 4.578484e+002
4.179046e+002, 4.580215e+002
4.183867e+002, 4.587427e+002
4.188688e+002, 4.593520e+002
4.193509e+002, 4.591759e+002
4.198330e+002, 4.575968e+002
4.203152e+002, 4.562947e+002
4.207973e+002, 4.560356e+002
4.212794e+002, 4.564694e+002
4.217615e+002, 4.569512e+002
4.222436e+002, 4.573345e+002
4.227257e+002, 4.577285e+002
4.232079e+002, 4.582715e+002
4.236900e+002, 4.590300e+002
4.241721e+002, 4.594099e+002
4.246542e+002, 4.588591e+002
4.251363e+002, 4.582272e+002
4.256184e+002, 4.581453e+002
4.261006e+002, 4.590817e+002
4.265827e+002, 4.598320e+002
4.270648e+002, 4.602099e+002
4.275469e+002, 4.603340e+002
4.280290e+002, 4.606537e+002
4.285111e+002, 4.613518e+002
4.289933e+002, 4.618642e+002
4.294754e+002, 4.618294e+002
4.299575e+002, 4.611167e+002
4.304396e+002, 4.607859e+002
4.309217e+002, 4.608816e+002
4.314038e+002, 4.612404e+002
4.318860e+002, 4.617744e+002
4.323681e+002, 4.625002e+002
4.328502e+002, 4.629487e+002
4.333323e+002, 4.629087e+002
4.338144e+002, 4.625797e+002
4.342965e+002, 4.625323e+002
4.347787e+002, 4.627680e+002
4.352608e+002, 4.629801e+002
4.357429e+002, 4.627819e+002
4.362250e+002, 4.624127e+002
4.367071e+002, 4.625280e+002
4.371892e+002, 4.632869e+002
4.376714e+002, 4.642071e+002
4.381535e+002, 4.646407e+002
4.386356e+002, 4.648365e+002
4.391177e+002, 4.653372e+002
4.395998e+002, 4.667422e+002
4.400819e+002, 4.682964e+002
4.405641e+002, 4.692763e+002
4.410462e+002, 4.697285e+002
4.415283e+002, 4.702605e+002
4.420104e+002, 4.713106e+002
4.424925e+002, 4.725101e+002
4.429746e+002, 4.735313e+002
4.434568e+002, 4.742347e+002
4.439389e+002, 4.748839e+002
4.444210e+002, 4.754422e+002
4.449031e+002, 4.760089e+002
4.453852e+002, 4.767791e+002
4.458673e+002, 4.780604e+002
4.463495e+002, 4.792873e+002
4.468316e+002, 4.802193e+002
4.473137e+002, 4.807755e+002
4.477958e+002, 4.816576e+002
4.482779e+002, 4.831901e+002
4.487600e+002, 4.847797e+002
4.492422e+002, 4.859694e+002
4.497243e+002, 4.865538e+002
4.502064e+002, 4.871913e+002
4.506885e+002, 4.879698e+002
4.511706e+002, 4.888300e+002
4.516527e+002, 4.895977e+002
4.521349e+002, 4.902706e+002
4.526170e+002, 4.908656e+002
4.530991e+002, 4.913493e+002
4.535812e+002, 4.917306e+002
4.540633e+002, 4.921981e+002
4.545454e+002, 4.927769e+002
4.550276e+002, 4.933201e+002
4.555097e+002, 4.936898e+002
4.559918e+002, 4.938882e+002
4.564739e+002, 4.938923e+002
4.569560e+002, 4.936158e+002
4.574381e+002, 4.932624e+002
4.579203e+002, 4.932889e+002
4.584024e+002, 4.935848e+002
4.588845e+002, 4.936297e+002
4.593666e+002, 4.928774e+002
4.598488e+002, 4.918076e+002
4.603309e+002, 4.910313e+002
4.608130e+002, 4.906235e+002
4.612951e+002, 4.902530e+002
4.617772e+002, 4.898672e+002
4.622593e+002, 4.893402e+002
4.627415e+002, 4.885276e+002
4.632236e+002, 4.872187e+002
4.637057e+002, 4.857879e+002
4.641878e+002, 4.842290e+002
4.646699e+002, 4.826458e+002
4.651520e+002, 4.813653e+002
4.656342e+002, 4.804526e+002
4.661163e+002, 4.799161e+002
4.665984e+002, 4.798516e+002
4.670805e+002, 4.805411e+002
4.675626e+002, 4.809206e+002
4.680447e+002, 4.809242e+002
4.685269e+002, 4.806422e+002
4.690090e+002, 4.801172e+002
4.694911e+002, 4.790930e+002
4.699732e+002, 4.783214e+002
4.704553e+002, 4.779657e+002
4.709374e+002, 4.779355e+002
4.714196e+002, 4.778068e+002
4.719017e+002, 4.774942e+002
4.723838e+002, 4.773313e+002
4.728659e+002, 4.776364e+002
4.733480e+002, 4.784068e+002
4.738301e+002, 4.787007e+002
4.743123e+002, 4.784345e+002
4.747944e+002, 4.779498e+002
4.752765e+002, 4.777922e+002
4.757586e+002, 4.778358e+002
4.762407e+002, 4.773604e+002
4.767228e+002, 4.758132e+002
4.772050e+002, 4.740118e+002
4.776871e+002, 4.733938e+002
4.781692e+002, 4.737499e+002
4.786513e+002, 4.740725e+002
4.791334e+002, 4.737134e+002
4.796155e+002, 4.730137e+002
4.800977e+002, 4.722804e+002
4.805798e+002, 4.715344e+002
4.810619e+002, 4.709088e+002
4.815440e+002, 4.705871e+002
4.820261e+002, 4.704059e+002
4.825082e+002, 4.701719e+002
4.829904e+002, 4.696941e+002
4.834725e+002, 4.692975e+002
4.839546e+002, 4.691385e+002
4.844367e+002, 4.691586e+002
4.849188e+002, 4.691071e+002
4.854009e+002, 4.685948e+002
4.858831e+002, 4.683110e+002
4.863652e+002, 4.686215e+002
4.868473e+002, 4.698219e+002
4.873294e+002, 4.704848e+002
4.878115e+002, 4.703975e+002
4.882936e+002, 4.699533e+002
4.887758e+002, 4.695133e+002
4.892579e+002, 4.690249e+002
4.897400e+002, 4.687105e+002
4.902221e+002, 4.686956e+002
4.907042e+002, 4.688179e+002
4.911863e+002, 4.684757e+002
4.916685e+002, 4.676045e+002
4.921506e+002, 4.669276e+002
4.926327e+002, 4.670657e+002
4.931148e+002, 4.677974e+002
4.935969e+002, 4.680850e+002
4.940790e+002, 4.679118e+002
4.945612e+002, 4.674221e+002
4.950433e+002, 4.663119e+002
4.955254e+002, 4.650291e+002
4.960075e+002, 4.646360e+002
4.964896e+002, 4.659721e+002
4.969717e+002, 4.674547e+002
4.974539e+002, 4.673678e+002
4.979360e+002, 4.662059e+002
4.984181e+002, 4.652459e+002
4.989002e+002, 4.648476e+002
4.993823e+002, 4.650210e+002
4.998644e+002, 4.662414e+002
5.003466e+002, 4.686783e+002
5.008287e+002, 4.699263e+002
5.013108e+002, 4.681266e+002
5.017929e+002, 4.654931e+002
5.022750e+002, 4.637149e+002
5.027571e+002, 4.638505e+002
5.032393e+002, 4.637191e+002
5.037214e+002, 4.630997e+002
5.042035e+002, 4.621842e+002
5.046856e+002, 4.613666e+002
5.051677e+002, 4.606985e+002
5.056498e+002, 4.600366e+002
5.061320e+002, 4.592968e+002
5.066141e+002, 4.584884e+002
5.070962e+002, 4.579311e+002
5.075783e+002, 4.576547e+002
5.080604e+002, 4.575565e+002
5.085425e+002, 4.577088e+002
5.090247e+002, 4.580708e+002
5.095068e+002, 4.580142e+002
5.099889e+002, 4.574211e+002
5.104710e+002, 4.565524e+002
5.109531e+002, 4.555255e+002
5.114352e+002, 4.544746e+002
5.119174e+002, 4.538986e+002
5.123995e+002, 4.545733e+002
5.128816e+002, 4.554525e+002
5.133637e+002, 4.551602e+002
5.138458e+002, 4.538717e+002
5.143279e+002, 4.526629e+002
5.148101e+002, 4.522646e+002
5.152922e+002, 4.521349e+002
5.157743e+002, 4.518640e+002
5.162564e+002, 4.513867e+002
5.167385e+002, 4.507411e+002
5.172206e+002, 4.496035e+002
5.177028e+002, 4.484327e+002
5.181849e+002, 4.477590e+002
5.186670e+002, 4.483039e+002
5.191491e+002, 4.486133e+002
5.196312e+002, 4.484252e+002
5.201133e+002, 4.478373e+002
5.205955e+002, 4.472427e+002
5.210776e+002, 4.467321e+002
5.215597e+002, 4.460913e+002
5.220418e+002, 4.451340e+002
5.225239e+002, 4.437912e+002
5.230060e+002, 4.429815e+002
5.234882e+002, 4.427999e+002
5.239703e+002, 4.428916e+002
5.244524e+002, 4.429721e+002
5.249345e+002, 4.430316e+002
5.254166e+002, 4.429388e+002
5.258987e+002, 4.426785e+002
5.263809e+002, 4.422267e+002
5.268630e+002, 4.412579e+002
5.273451e+002, 4.399603e+002
5.278272e+002, 4.391379e+002
5.283093e+002, 4.396622e+002
5.287914e+002, 4.405751e+002
5.292736e+002, 4.407112e+002
5.297557e+002, 4.401050e+002
5.302378e+002, 4.396344e+002
5.307199e+002, 4.400036e+002
5.312020e+002, 4.405930e+002
5.316841e+002, 4.408900e+002
5.321663e+002, 4.407325e+002
5.326484e+002, 4.404355e+002
5.331305e+002, 4.399695e+002
5.336126e+002, 4.394478e+002
5.340947e+002, 4.390260e+002
5.345768e+002, 4.388946e+002
5.350590e+002, 4.386509e+002
5.355411e+002, 4.380924e+002
5.360232e+002, 4.373363e+002
5.365053e+002, 4.371395e+002
5.369874e+002, 4.377086e+002
5.374695e+002, 4.383981e+002
5.379517e+002, 4.388548e+002
5.384338e+002, 4.390658e+002
5.389159e+002, 4.395158e+002
5.393980e+002, 4.402711e+002
5.398801e+002, 4.409979e+002
5.403622e+002, 4.412247e+002
5.408444e+002, 4.410559e+002
5.413265e+002, 4.409969e+002
5.418086e+002, 4.411635e+002
5.422907e+002, 4.414653e+002
5.427728e+002, 4.417453e+002
5.432549e+002, 4.420557e+002
5.437371e+002, 4.425446e+002
5.442192e+002, 4.435349e+002
5.447013e+002, 4.445438e+002
5.451834e+002, 4.451166e+002
5.456655e+002, 4.452844e+002
5.461476e+002, 4.456042e+002
5.466298e+002, 4.463500e+002
5.471119e+002, 4.473073e+002
5.475940e+002, 4.483741e+002
5.480761e+002, 4.497264e+002
5.485582e+002, 4.508104e+002
5.490403e+002, 4.514850e+002
5.495225e+002, 4.519379e+002
5.500046e+002, 4.523273e+002
5.504867e+002, 4.524045e+002
5.509688e+002, 4.529480e+002
5.514509e+002, 4.542302e+002
5.519330e+002, 4.560351e+002
5.524152e+002, 4.576027e+002
5.528973e+002, 4.589428e+002
5.533794e+002, 4.600084e+002
5.538615e+002, 4.606754e+002
5.543436e+002, 4.610133e+002
5.548257e+002, 4.613893e+002
5.553079e+002, 4.617964e+002
5.557900e+002, 4.622606e+002
5.562721e+002, 4.628235e+002
5.567542e+002, 4.634521e+002
5.572363e+002, 4.641263e+002
5.577184e+002, 4.649221e+002
5.582006e+002, 4.655403e+002
5.586827e+002, 4.656015e+002
5.591648e+002, 4.653531e+002
5.596469e+002, 4.652126e+002
5.601290e+002, 4.656553e+002
5.606111e+002, 4.659260e+002
5.610933e+002, 4.655458e+002
5.615754e+002, 4.646405e+002
5.620575e+002, 4.640635e+002
5.625396e+002, 4.642607e+002
5.630217e+002, 4.645078e+002
5.635038e+002, 4.645601e+002
5.639860e+002, 4.644195e+002
5.644681e+002, 4.640357e+002
5.649502e+002, 4.633310e+002
5.654323e+002, 4.625014e+002
5.659144e+002, 4.617477e+002
5.663965e+002, 4.610756e+002
5.668787e+002, 4.603526e+002
5.673608e+002, 4.595404e+002
5.678429e+002, 4.587238e+002
5.683250e+002, 4.580633e+002
5.688071e+002, 4.575477e+002
5.692892e+002, 4.571514e+002
5.697714e+002, 4.569631e+002
5.702535e+002, 4.568270e+002
5.707356e+002, 4.564364e+002
5.712177e+002, 4.558532e+002
5.716998e+002, 4.554741e+002
5.721819e+002, 4.557061e+002
5.726641e+002, 4.561024e+002
5.731462e+002, 4.562885e+002
5.736283e+002, 4.561654e+002
5.741104e+002, 4.561156e+002
5.745925e+002, 4.562960e+002
5.750746e+002, 4.565716e+002
5.755568e+002, 4.568292e+002
5.760389e+002, 4.572780e+002
5.765210e+002, 4.573626e+002
5.770031e+002, 4.567838e+002
5.774852e+002, 4.559476e+002
5.779673e+002, 4.557766e+002
5.784495e+002, 4.565522e+002
5.789316e+002, 4.570819e+002
5.794137e+002, 4.568310e+002
5.798958e+002, 4.560858e+002
5.803779e+002, 4.562350e+002
5.808600e+002, 4.573231e+002
5.813422e+002, 4.582913e+002
5.818243e+002, 4.580270e+002
5.823064e+002, 4.571722e+002
5.827885e+002, 4.572277e+002
5.832706e+002, 4.583304e+002
5.837527e+002, 4.599087e+002
5.842349e+002, 4.624562e+002
5.847170e+002, 4.648487e+002
5.851991e+002, 4.655331e+002
5.856812e+002, 4.630160e+002
5.861633e+002, 4.606182e+002
5.866454e+002, 4.597433e+002
5.871276e+002, 4.599303e+002
5.876097e+002, 4.603516e+002
5.880918e+002, 4.608546e+002
5.885739e+002, 4.615860e+002
5.890560e+002, 4.627717e+002
5.895381e+002, 4.642901e+002
5.900203e+002, 4.651903e+002
5.905024e+002, 4.651606e+002
5.909845e+002, 4.651476e+002
5.914666e+002, 4.657171e+002
5.919487e+002, 4.668880e+002
5.924308e+002, 4.675371e+002
5.929130e+002, 4.675825e+002
5.933951e+002, 4.675714e+002
5.938772e+002, 4.681412e+002
5.943593e+002, 4.691093e+002
5.948414e+002, 4.698562e+002
5.953235e+002, 4.702409e+002
5.958057e+002, 4.704726e+002
5.962878e+002, 4.707021e+002
5.967699e+002, 4.709342e+002
5.972520e+002, 4.711745e+002
5.977341e+002, 4.714528e+002
5.982162e+002, 4.717076e+002
5.986984e+002, 4.719172e+002
5.991805e+002, 4.720709e+002
5.996626e+002, 4.721599e+002
6.001447e+002, 4.722296e+002
6.006268e+002, 4.721713e+002
6.011089e+002, 4.718632e+002
6.015911e+002, 4.712591e+002
6.020732e+002, 4.709728e+002
6.025553e+002, 4.711466e+002
6.030374e+002, 4.714176e+002
6.035195e+002, 4.715215e+002
6.040016e+002, 4.714428e+002
6.044838e+002, 4.714458e+002
6.049659e+002, 4.715785e+002
6.054480e+002, 4.716921e+002
6.059301e+002, 4.714589e+002
6.064122e+002, 4.710087e+002
6.068943e+002, 4.709020e+002
6.073765e+002, 4.714525e+002
6.078586e+002, 4.721280e+002
6.083407e+002, 4.722130e+002
6.088228e+002, 4.719479e+002
6.093049e+002, 4.719207e+002
6.097870e+002, 4.729639e+002
6.102692e+002, 4.738122e+002
6.107513e+002, 4.734247e+002
6.112334e+002, 4.719421e+002
6.117155e+002, 4.711989e+002
6.121976e+002, 4.723423e+002
6.126797e+002, 4.736080e+002
6.131619e+002, 4.741342e+002
6.136440e+002, 4.736744e+002
6.141261e+002, 4.736756e+002
6.146082e+002, 4.743317e+002
6.150903e+002, 4.751522e+002
6.155724e+002, 4.757749e+002
6.160546e+002, 4.762061e+002
6.165367e+002, 4.762163e+002
6.170188e+002, 4.756625e+002
6.175009e+002, 4.749935e+002
6.179830e+002, 4.748441e+002
6.184651e+002, 4.751305e+002
6.189473e+002, 4.755684e+002
6.194294e+002, 4.760609e+002
6.199115e+002, 4.766464e+002
6.203936e+002, 4.777019e+002
6.208757e+002, 4.789308e+002
6.213578e+002, 4.794694e+002
6.218400e+002, 4.784113e+002
6.223221e+002, 4.770252e+002
6.228042e+002, 4.757946e+002
6.232863e+002, 4.747440e+002
6.237684e+002, 4.741701e+002
6.242505e+002, 4.744117e+002
6.247327e+002, 4.748361e+002
6.252148e+002, 4.752597e+002
6.256969e+002, 4.758953e+002
6.261790e+002, 4.755757e+002
6.266611e+002, 4.740591e+002
6.271432e+002, 4.721111e+002
6.276254e+002, 4.704042e+002
6.281075e+002, 4.689456e+002
6.285896e+002, 4.678940e+002
6.290717e+002, 4.673406e+002
6.295538e+002, 4.670353e+002
6.300359e+002, 4.667913e+002
6.305181e+002, 4.665351e+002
6.310002e+002, 4.660746e+002
6.314823e+002, 4.651300e+002
6.319644e+002, 4.641494e+002
6.324465e+002, 4.634150e+002
6.329286e+002, 4.628937e+002
6.334108e+002, 4.624988e+002
6.338929e+002, 4.623267e+002
6.343750e+002, 4.621487e+002
6.348571e+002, 4.619180e+002
6.353392e+002, 4.616359e+002
6.358214e+002, 4.611189e+002
6.363035e+002, 4.602550e+002
6.367856e+002, 4.593225e+002
6.372677e+002, 4.585115e+002
6.377498e+002, 4.578758e+002
6.382319e+002, 4.569351e+002
6.387141e+002, 4.555825e+002
6.391962e+002, 4.543263e+002
6.396783e+002, 4.538602e+002
6.401604e+002, 4.539607e+002
6.406425e+002, 4.537178e+002
6.411246e+002, 4.528684e+002
6.416068e+002, 4.519561e+002
6.420889e+002, 4.513441e+002
6.425710e+002, 4.510858e+002
6.430531e+002, 4.512843e+002
6.435352e+002, 4.527922e+002
6.440173e+002, 4.539120e+002
6.444995e+002, 4.537372e+002
6.449816e+002, 4.526170e+002
6.454637e+002, 4.515621e+002
6.459458e+002, 4.508321e+002
6.464279e+002, 4.500724e+002
6.469100e+002, 4.491388e+002
6.473922e+002, 4.480565e+002
6.478743e+002, 4.473127e+002
6.483564e+002, 4.469842e+002
6.488385e+002, 4.467378e+002
6.493206e+002, 4.463173e+002
6.498027e+002, 4.457646e+002
6.502849e+002, 4.456164e+002
6.507670e+002, 4.459000e+002
6.512491e+002, 4.461187e+002
6.517312e+002, 4.457377e+002
6.522133e+002, 4.450219e+002
6.526954e+002, 4.443733e+002
6.531776e+002, 4.438615e+002
6.536597e+002, 4.434472e+002
6.541418e+002, 4.432628e+002
6.546239e+002, 4.430898e+002
6.551060e+002, 4.426731e+002
6.555881e+002, 4.416127e+002
6.560703e+002, 4.407207e+002
6.565524e+002, 4.402348e+002
6.570345e+002, 4.399575e+002
6.575166e+002, 4.395184e+002
6.579987e+002, 4.387448e+002
6.584808e+002, 4.382736e+002
6.589630e+002, 4.384097e+002
6.594451e+002, 4.388747e+002
6.599272e+002, 4.386060e+002
6.604093e+002, 4.376023e+002
6.608914e+002, 4.366407e+002
6.613735e+002, 4.361815e+002
6.618557e+002, 4.360326e+002
6.623378e+002, 4.359139e+002
6.628199e+002, 4.358087e+002
6.633020e+002, 4.355695e+002
6.637841e+002, 4.348984e+002
6.642662e+002, 4.341981e+002
6.647484e+002, 4.338221e+002
6.652305e+002, 4.338656e+002
6.657126e+002, 4.338968e+002
6.661947e+002, 4.335663e+002
6.666768e+002, 4.333612e+002
6.671589e+002, 4.336932e+002
6.676411e+002, 4.352600e+002
6.681232e+002, 4.357553e+002
6.686053e+002, 4.347675e+002
6.690874e+002, 4.332512e+002
6.695695e+002, 4.323521e+002
6.700516e+002, 4.320580e+002
6.705338e+002, 4.321261e+002
6.710159e+002, 4.326300e+002
6.714980e+002, 4.331882e+002
6.719801e+002, 4.331728e+002
6.724622e+002, 4.327399e+002
6.729443e+002, 4.323180e+002
6.734265e+002, 4.320360e+002
6.739086e+002, 4.318784e+002
6.743907e+002, 4.320442e+002
6.748728e+002, 4.323556e+002
6.753549e+002, 4.322611e+002
6.758370e+002, 4.312237e+002
6.763192e+002, 4.301291e+002
6.768013e+002, 4.292303e+002
6.772834e+002, 4.285267e+002
6.777655e+002, 4.280965e+002
6.782476e+002, 4.278805e+002
6.787297e+002, 4.280836e+002
6.792119e+002, 4.291251e+002
6.796940e+002, 4.309167e+002
6.801761e+002, 4.314829e+002
6.806582e+002, 4.307491e+002
6.811403e+002, 4.295014e+002
6.816224e+002, 4.279756e+002
6.821046e+002, 4.265045e+002
6.825867e+002, 4.259071e+002
6.830688e+002, 4.263730e+002
6.835509e+002, 4.268548e+002
6.840330e+002, 4.266429e+002
6.845151e+002, 4.260757e+002
6.849973e+002, 4.254562e+002
6.854794e+002, 4.244446e+002
6.859615e+002, 4.240502e+002
6.864436e+002, 4.250819e+002
6.869257e+002, 4.265034e+002
6.874078e+002, 4.270727e+002
6.878900e+002, 4.264543e+002
6.883721e+002, 4.258949e+002
6.888542e+002, 4.255772e+002
6.893363e+002, 4.254178e+002
6.898184e+002, 4.252271e+002
6.903005e+002, 4.250211e+002
6.907827e+002, 4.249960e+002
6.912648e+002, 4.253774e+002
6.917469e+002, 4.258252e+002
6.922290e+002, 4.257368e+002
6.927111e+002, 4.252727e+002
6.931932e+002, 4.249569e+002
6.936754e+002, 4.254846e+002
6.941575e+002, 4.258471e+002
6.946396e+002, 4.252505e+002
6.951217e+002, 4.237790e+002
6.956038e+002, 4.227227e+002
6.960859e+002, 4.225078e+002
6.965681e+002, 4.225183e+002
6.970502e+002, 4.225372e+002
6.975323e+002, 4.225584e+002
6.980144e+002, 4.227853e+002
6.984965e+002, 4.232649e+002
6.989786e+002, 4.237928e+002
6.994608e+002, 4.243908e+002
6.999429e+002, 4.249461e+002
7.004250e+002, 4.248194e+002
7.009071e+002, 4.239491e+002
7.013892e+002, 4.229531e+002
7.018713e+002, 4.221508e+002
7.023535e+002, 4.216372e+002
7.028356e+002, 4.216366e+002
7.033177e+002, 4.224215e+002
7.037998e+002, 4.229774e+002
7.042819e+002, 4.228487e+002
7.047640e+002, 4.223263e+002
7.052462e+002, 4.216921e+002
7.057283e+002, 4.206977e+002
7.062104e+002, 4.200619e+002
7.066925e+002, 4.198532e+002
7.071746e+002, 4.199742e+002
7.076567e+002, 4.203913e+002
7.081389e+002, 4.211349e+002
7.086210e+002, 4.215986e+002
7.091031e+002, 4.215773e+002
7.095852e+002, 4.213356e+002
7.100673e+002, 4.212931e+002
7.105494e+002, 4.213968e+002
7.110316e+002, 4.214832e+002
7.115137e+002, 4.215967e+002
7.119958e+002, 4.215616e+002
7.124779e+002, 4.211097e+002
7.129600e+002, 4.203958e+002
7.134421e+002, 4.199000e+002
7.139243e+002, 4.198365e+002
7.144064e+002, 4.199202e+002
7.148885e+002, 4.201284e+002
7.153706e+002, 4.204318e+002
7.158527e+002, 4.205901e+002
7.163348e+002, 4.205823e+002
7.168170e+002, 4.204839e+002
7.172991e+002, 4.202702e+002
7.177812e+002, 4.199872e+002
7.182633e+002, 4.198871e+002
7.187454e+002, 4.199662e+002
7.192275e+002, 4.201563e+002
7.197097e+002, 4.205995e+002
7.201918e+002, 4.210245e+002
7.206739e+002, 4.210440e+002
7.211560e+002, 4.206275e+002
7.216381e+002, 4.202234e+002
7.221202e+002, 4.199785e+002
7.226024e+002, 4.198729e+002
7.230845e+002, 4.199309e+002
7.235666e+002, 4.202567e+002
7.240487e+002, 4.204052e+002
7.245308e+002, 4.202337e+002
7.250129e+002, 4.200808e+002
7.254951e+002, 4.203629e+002
7.259772e+002, 4.211348e+002
7.264593e+002, 4.212110e+002
7.269414e+002, 4.203638e+002
7.274235e+002, 4.194711e+002
7.279056e+002, 4.196183e+002
7.283878e+002, 4.204649e+002
7.288699e+002, 4.213827e+002
7.293520e+002, 4.224290e+002
7.298341e+002, 4.229409e+002
7.303162e+002, 4.219069e+002
7.307983e+002, 4.202901e+002
7.312805e+002, 4.192915e+002
7.317626e+002, 4.198934e+002
7.322447e+002, 4.202061e+002
7.327268e+002, 4.198366e+002
7.332089e+002, 4.192080e+002
7.336910e+002, 4.190633e+002
7.341732e+002, 4.195446e+002
7.346553e+002, 4.198453e+002
7.351374e+002, 4.196842e+002
7.356195e+002, 4.194292e+002
7.361016e+002, 4.200330e+002
7.365837e+002, 4.212498e+002
7.370659e+002, 4.219994e+002
7.375480e+002, 4.214858e+002
7.380301e+002, 4.206718e+002
7.385122e+002, 4.205158e+002
7.389943e+002, 4.207495e+002
7.394764e+002, 4.206912e+002
7.399586e+002, 4.196634e+002
7.404407e+002, 4.187694e+002
7.409228e+002, 4.184797e+002
7.414049e+002, 4.186496e+002
7.418870e+002, 4.186368e+002
7.423691e+002, 4.183319e+002
7.428513e+002, 4.181484e+002
7.433334e+002, 4.183019e+002
7.438155e+002, 4.186942e+002
7.442976e+002, 4.188742e+002
7.447797e+002, 4.188589e+002
7.452618e+002, 4.188885e+002
7.457440e+002, 4.193073e+002
7.462261e+002, 4.197377e+002
7.467082e+002, 4.194170e+002
7.471903e+002, 4.184855e+002
7.476724e+002, 4.182901e+002
7.481545e+002, 4.204170e+002
7.486367e+002, 4.225933e+002
7.491188e+002, 4.235560e+002
7.496009e+002, 4.231328e+002
7.500830e+002, 4.226591e+002
7.505651e+002, 4.221528e+002
7.510472e+002, 4.215422e+002
7.515294e+002, 4.206753e+002
7.520115e+002, 4.195638e+002
7.524936e+002, 4.189619e+002
7.529757e+002, 4.188901e+002
7.534578e+002, 4.189164e+002
7.539399e+002, 4.185366e+002
7.544221e+002, 4.180789e+002
7.549042e+002, 4.181870e+002
7.553863e+002, 4.189931e+002
7.558684e+002, 4.195113e+002
7.563505e+002, 4.187884e+002
7.568326e+002, 4.178802e+002
7.573148e+002, 4.176652e+002
7.577969e+002, 4.186386e+002
7.582790e+002, 4.192210e+002
7.587611e+002, 4.192871e+002
7.592432e+002, 4.191387e+002
7.597253e+002, 4.189755e+002
7.602075e+002, 4.187900e+002
7.606896e+002, 4.187906e+002
7.611717e+002, 4.190052e+002
7.616538e+002, 4.193177e+002
7.621359e+002, 4.197946e+002
7.626180e+002, 4.202325e+002
7.631002e+002, 4.201361e+002
7.635823e+002, 4.191716e+002
7.640644e+002, 4.184872e+002
7.645465e+002, 4.192378e+002
7.650286e+002, 4.203397e+002
7.655107e+002, 4.206151e+002
7.659929e+002, 4.188289e+002
7.664750e+002, 4.178908e+002
7.669571e+002, 4.182073e+002
7.674392e+002, 4.189716e+002
7.679213e+002, 4.190546e+002
7.684034e+002, 4.184163e+002
7.688856e+002, 4.182845e+002
7.693677e+002, 4.189823e+002
7.698498e+002, 4.198202e+002
7.703319e+002, 4.199244e+002
7.708140e+002, 4.194969e+002
7.712961e+002, 4.189001e+002
7.717783e+002, 4.178956e+002
7.722604e+002, 4.173801e+002
7.727425e+002, 4.183109e+002
7.732246e+002, 4.198802e+002
7.737067e+002, 4.208658e+002
7.741888e+002, 4.207301e+002
7.746710e+002, 4.205793e+002
7.751531e+002, 4.204641e+002
7.756352e+002, 4.204199e+002
7.761173e+002, 4.205573e+002
7.765994e+002, 4.208844e+002
7.770815e+002, 4.211269e+002
7.775637e+002, 4.212119e+002
7.780458e+002, 4.212012e+002
7.785279e+002, 4.212024e+002
7.790100e+002, 4.211745e+002
7.794921e+002, 4.210235e+002
7.799742e+002, 4.206496e+002
7.804564e+002, 4.202138e+002
7.809385e+002, 4.196037e+002
7.814206e+002, 4.189971e+002
7.819027e+002, 4.188149e+002
7.823848e+002, 4.194190e+002
7.828669e+002, 4.198473e+002
7.833491e+002, 4.199150e+002
7.838312e+002, 4.197437e+002
7.843133e+002, 4.196170e+002
7.847954e+002, 4.195372e+002
7.852775e+002, 4.194347e+002
7.857596e+002, 4.193001e+002
7.862418e+002, 4.191212e+002
7.867239e+002, 4.187418e+002
7.872060e+002, 4.183061e+002
7.876881e+002, 4.181544e+002
7.881702e+002, 4.189181e+002
7.886523e+002, 4.194852e+002
7.891345e+002, 4.191624e+002
7.896166e+002, 4.182935e+002
7.900987e+002, 4.179254e+002
7.905808e+002, 4.183177e+002
7.910629e+002, 4.187290e+002
7.915450e+002, 4.190136e+002
7.920272e+002, 4.191850e+002
7.925093e+002, 4.192426e+002
7.929914e+002, 4.191952e+002
7.934735e+002, 4.191479e+002
7.939556e+002, 4.191018e+002
7.944377e+002, 4.191222e+002
7.949199e+002, 4.193932e+002
7.954020e+002, 4.198005e+002
7.958841e+002, 4.200310e+002
7.963662e+002, 4.197292e+002
7.968483e+002, 4.194858e+002
7.973304e+002, 4.195532e+002
7.978126e+002, 4.198408e+002
7.982947e+002, 4.200858e+002
7.987768e+002, 4.203269e+002
7.992589e+002, 4.204044e+002
7.997410e+002, 4.202040e+002
8.002231e+002, 4.198759e+002
8.007053e+002, 4.198928e+002
8.011874e+002, 4.201793e+002
8.016695e+002, 4.202982e+002
8.021516e+002, 4.196943e+002
8.026337e+002, 4.191366e+002
8.031158e+002, 4.194784e+002
8.035980e+002, 4.204239e+002
8.040801e+002, 4.211744e+002
8.045622e+002, 4.214493e+002
8.050443e+002, 4.215123e+002
8.055264e+002, 4.212752e+002
8.060085e+002, 4.209041e+002
8.064907e+002, 4.210567e+002
8.069728e+002, 4.218983e+002
8.074549e+002, 4.223603e+002
8.079370e+002, 4.219565e+002
8.084191e+002, 4.211056e+002
8.089012e+002, 4.205286e+002
8.093834e+002, 4.202345e+002
8.098655e+002, 4.202569e+002
8.103476e+002, 4.209843e+002
8.108297e+002, 4.216830e+002
8.113118e+002, 4.218646e+002
8.117939e+002, 4.216566e+002
8.122761e+002, 4.214316e+002
8.127582e+002, 4.211973e+002
8.132403e+002, 4.210255e+002
8.137224e+002, 4.209418e+002
8.142045e+002, 4.209277e+002
8.146866e+002, 4.208824e+002
8.151688e+002, 4.208032e+002
8.156509e+002, 4.209418e+002
8.161330e+002, 4.214842e+002
8.166151e+002, 4.221725e+002
8.170972e+002, 4.224845e+002
8.175793e+002, 4.226286e+002
8.180615e+002, 4.231559e+002
8.185436e+002, 4.249426e+002
8.190257e+002, 4.264626e+002
8.195078e+002, 4.271055e+002
8.199899e+002, 4.270067e+002
8.204720e+002, 4.265618e+002
8.209542e+002, 4.255092e+002
8.214363e+002, 4.247591e+002
8.219184e+002, 4.245675e+002
8.224005e+002, 4.247261e+002
8.228826e+002, 4.248427e+002
8.233647e+002, 4.249058e+002
8.238469e+002, 4.248174e+002
8.243290e+002, 4.243920e+002
8.248111e+002, 4.240215e+002
8.252932e+002, 4.242074e+002
8.257753e+002, 4.246920e+002
8.262574e+002, 4.249581e+002
8.267396e+002, 4.245522e+002
8.272217e+002, 4.243124e+002
8.277038e+002, 4.244313e+002
8.281859e+002, 4.247687e+002
8.286681e+002, 4.251037e+002
8.291502e+002, 4.254523e+002
8.296323e+002, 4.256468e+002
8.301144e+002, 4.256073e+002
8.305966e+002, 4.254768e+002
8.310787e+002, 4.253918e+002
8.315608e+002, 4.253911e+002
8.320429e+002, 4.255938e+002
8.325250e+002, 4.262400e+002
8.330071e+002, 4.267692e+002
8.334893e+002, 4.268269e+002
8.339714e+002, 4.266133e+002
8.344535e+002, 4.264533e+002
8.349356e+002, 4.265035e+002
8.354177e+002, 4.262987e+002
8.358998e+002, 4.256041e+002
8.363820e+002, 4.249169e+002
8.368641e+002, 4.251850e+002
8.373462e+002, 4.262651e+002
8.378283e+002, 4.268011e+002
8.383104e+002, 4.263269e+002
8.387925e+002, 4.259053e+002
8.392747e+002, 4.270678e+002
8.397568e+002, 4.287564e+002
8.402389e+002, 4.294706e+002
8.407210e+002, 4.281657e+002
8.412031e+002, 4.270697e+002
8.416852e+002, 4.266617e+002
8.421674e+002, 4.266336e+002
8.426495e+002, 4.267923e+002
8.431316e+002, 4.272118e+002
8.436137e+002, 4.273858e+002
8.440958e+002, 4.272372e+002
8.445779e+002, 4.270267e+002
8.450601e+002, 4.270428e+002
8.455422e+002, 4.272254e+002
8.460243e+002, 4.274608e+002
8.465064e+002, 4.277402e+002
8.469885e+002, 4.280069e+002
8.474706e+002, 4.283516e+002
8.479528e+002, 4.285888e+002
8.484349e+002, 4.285023e+002
8.489170e+002, 4.278707e+002
8.493991e+002, 4.275215e+002
8.498812e+002, 4.274759e+002
8.503633e+002, 4.276445e+002
8.508455e+002, 4.280913e+002
8.513276e+002, 4.287352e+002
8.518097e+002, 4.289616e+002
8.522918e+002, 4.287349e+002
8.527739e+002, 4.284782e+002
8.532560e+002, 4.286712e+002
8.537382e+002, 4.289126e+002
8.542203e+002, 4.287277e+002
8.547024e+002, 4.280148e+002
8.551845e+002, 4.275900e+002
8.556666e+002, 4.278386e+002
8.561487e+002, 4.281936e+002
8.566309e+002, 4.284288e+002
8.571130e+002, 4.285430e+002
8.575951e+002, 4.284935e+002
8.580772e+002, 4.282524e+002
8.585593e+002, 4.281783e+002
8.590414e+002, 4.286661e+002
8.595236e+002, 4.293944e+002
8.600057e+002, 4.299196e+002
8.604878e+002, 4.302239e+002
8.609699e+002, 4.303080e+002
8.614520e+002, 4.299695e+002
8.619341e+002, 4.296035e+002
8.624163e+002, 4.293223e+002
8.628984e+002, 4.291473e+002
8.633805e+002, 4.293097e+002
8.638626e+002, 4.299365e+002
8.643447e+002, 4.304830e+002
8.648268e+002, 4.307094e+002
8.653090e+002, 4.307387e+002
8.657911e+002, 4.308354e+002
8.662732e+002, 4.309932e+002
8.667553e+002, 4.311904e+002
8.672374e+002, 4.313327e+002
8.677195e+002, 4.315863e+002
8.682017e+002, 4.322670e+002
8.686838e+002, 4.331385e+002
8.691659e+002, 4.334677e+002
8.696480e+002, 4.328828e+002
8.701301e+002, 4.323663e+002
8.706122e+002, 4.321216e+002
8.710944e+002, 4.320197e+002
8.715765e+002, 4.317389e+002
8.720586e+002, 4.313228e+002
8.725407e+002, 4.310874e+002
8.730228e+002, 4.311814e+002
8.735049e+002, 4.313913e+002
8.739871e+002, 4.316512e+002
8.744692e+002, 4.318626e+002
8.749513e+002, 4.318744e+002
8.754334e+002, 4.313834e+002
8.759155e+002, 4.310685e+002
8.763976e+002, 4.310261e+002
8.768798e+002, 4.311394e+002
8.773619e+002, 4.312413e+002
8.778440e+002, 4.313155e+002
8.783261e+002, 4.316841e+002
8.788082e+002, 4.324281e+002
8.792903e+002, 4.332113e+002
8.797725e+002, 4.337620e+002
8.802546e+002, 4.340823e+002
8.807367e+002, 4.340926e+002
8.812188e+002, 4.336696e+002
8.817009e+002, 4.334483e+002
8.821830e+002, 4.339034e+002
8.826652e+002, 4.344289e+002
8.831473e+002, 4.345371e+002
8.836294e+002, 4.340911e+002
8.841115e+002, 4.341939e+002
8.845936e+002, 4.349440e+002
8.850757e+002, 4.357863e+002
8.855579e+002, 4.361938e+002
8.860400e+002, 4.364343e+002
8.865221e+002, 4.372787e+002
8.870042e+002, 4.386684e+002
8.874863e+002, 4.395313e+002
8.879684e+002, 4.387113e+002
8.884506e+002, 4.377298e+002
8.889327e+002, 4.375176e+002
8.894148e+002, 4.380355e+002
8.898969e+002, 4.382484e+002
8.903790e+002, 4.379875e+002
8.908611e+002, 4.379237e+002
8.913433e+002, 4.383669e+002
8.918254e+002, 4.391698e+002
8.923075e+002, 4.400620e+002
8.927896e+002, 4.410047e+002
8.932717e+002, 4.418264e+002
8.937538e+002, 4.425440e+002
8.942360e+002, 4.430149e+002
8.947181e+002, 4.428042e+002
8.952002e+002, 4.422855e+002
8.956823e+002, 4.424828e+002
8.961644e+002, 4.437920e+002
8.966465e+002, 4.450738e+002
8.971287e+002, 4.461661e+002
8.976108e+002, 4.471080e+002
8.980929e+002, 4.480433e+002
8.985750e+002, 4.489014e+002
8.990571e+002, 4.492650e+002
8.995392e+002, 4.488711e+002
9.000214e+002, 4.484437e+002
9.005035e+002, 4.484203e+002
9.009856e+002, 4.487596e+002
9.014677e+002, 4.494469e+002
9.019498e+002, 4.509640e+002
9.024319e+002, 4.519230e+002
9.029141e+002, 4.521735e+002
9.033962e+002, 4.520843e+002
9.038783e+002, 4.517120e+002
9.043604e+002, 4.511687e+002
9.048425e+002, 4.518144e+002
9.053246e+002, 4.537968e+002
9.058068e+002, 4.557135e+002
9.062889e+002, 4.562933e+002
9.067710e+002, 4.563626e+002
9.072531e+002, 4.567237e+002
9.077352e+002, 4.574887e+002
9.082173e+002, 4.579477e+002
9.086995e+002, 4.577038e+002
9.091816e+002, 4.575546e+002
9.096637e+002, 4.578300e+002
9.101458e+002, 4.584948e+002
9.106279e+002, 4.594255e+002
9.111100e+002, 4.606048e+002
9.115922e+002, 4.616480e+002
9.120743e+002, 4.619410e+002
9.125564e+002, 4.623180e+002
9.130385e+002, 4.639965e+002
9.135206e+002, 4.664976e+002
9.140027e+002, 4.683931e+002
9.144849e+002, 4.687935e+002
9.149670e+002, 4.691650e+002
9.154491e+002, 4.698349e+002
9.159312e+002, 4.705926e+002
9.164133e+002, 4.707891e+002
9.168954e+002, 4.704499e+002
9.173776e+002, 4.709048e+002
9.178597e+002, 4.726832e+002
9.183418e+002, 4.747136e+002
9.188239e+002, 4.760396e+002
9.193060e+002, 4.767789e+002
9.197881e+002, 4.770378e+002
9.202703e+002, 4.764572e+002
9.207524e+002, 4.761994e+002
9.212345e+002, 4.765542e+002
9.217166e+002, 4.771435e+002
9.221987e+002, 4.776054e+002
9.226808e+002, 4.779189e+002
9.231630e+002, 4.787403e+002
9.236451e+002, 4.801261e+002
9.241272e+002, 4.816469e+002
9.246093e+002, 4.830629e+002
9.250914e+002, 4.843320e+002
9.255735e+002, 4.853781e+002
9.260557e+002, 4.861891e+002
9.265378e+002, 4.869134e+002
9.270199e+002, 4.873677e+002
9.275020e+002, 4.880014e+002
9.279841e+002, 4.891143e+002
9.284662e+002, 4.905558e+002
9.289484e+002, 4.913697e+002
9.294305e+002, 4.915674e+002
9.299126e+002, 4.917138e+002
9.303947e+002, 4.919295e+002
9.308768e+002, 4.923829e+002
9.313589e+002, 4.934645e+002
9.318411e+002, 4.949230e+002
9.323232e+002, 4.961788e+002
9.328053e+002, 4.969121e+002
9.332874e+002, 4.976154e+002
9.337695e+002, 4.983511e+002
9.342516e+002, 4.991122e+002
9.347338e+002, 4.999247e+002
9.352159e+002, 5.007946e+002
9.356980e+002, 5.013711e+002
9.361801e+002, 5.015351e+002
9.366622e+002, 5.017417e+002
9.371443e+002, 5.025206e+002
9.376265e+002, 5.035743e+002
9.381086e+002, 5.045065e+002
9.385907e+002, 5.051796e+002
9.390728e+002, 5.060499e+002
9.395549e+002, 5.072613e+002
9.400370e+002, 5.085724e+002
9.405192e+002, 5.099081e+002
9.410013e+002, 5.112479e+002
9.414834e+002, 5.121812e+002
9.419655e+002, 5.127193e+002
9.424476e+002, 5.131895e+002
9.429297e+002, 5.135115e+002
9.434119e+002, 5.141028e+002
9.438940e+002, 5.158371e+002
9.443761e+002, 5.183305e+002
9.448582e+002, 5.198199e+002
9.453403e+002, 5.187455e+002
9.458224e+002, 5.182477e+002
9.463046e+002, 5.191759e+002
9.467867e+002, 5.208769e+002
9.472688e+002, 5.216644e+002
9.477509e+002, 5.216911e+002
9.482330e+002, 5.222413e+002
9.487151e+002, 5.238773e+002
9.491973e+002, 5.256013e+002
9.496794e+002, 5.265309e+002
9.501615e+002, 5.270193e+002
9.506436e+002, 5.274620e+002
9.511257e+002, 5.276688e+002
9.516078e+002, 5.284471e+002
9.520900e+002, 5.300705e+002
9.525721e+002, 5.318277e+002
9.530542e+002, 5.330587e+002
9.535363e+002, 5.338695e+002
9.540184e+002, 5.349308e+002
9.545005e+002, 5.362505e+002
9.549827e+002, 5.376137e+002
9.554648e+002, 5.385540e+002
9.559469e+002, 5.397316e+002
9.564290e+002, 5.417054e+002
9.569111e+002, 5.444672e+002
9.573932e+002, 5.473069e+002
9.578754e+002, 5.503665e+002
9.583575e+002, 5.530910e+002
9.588396e+002, 5.551788e+002
9.593217e+002, 5.569185e+002
9.598038e+002, 5.589340e+002
9.602859e+002, 5.611609e+002
9.607681e+002, 5.634005e+002
9.612502e+002, 5.659079e+002
9.617323e+002, 5.678602e+002
9.622144e+002, 5.680178e+002
9.626965e+002, 5.677247e+002
9.631786e+002, 5.688732e+002
9.636608e+002, 5.724776e+002
9.641429e+002, 5.745088e+002
9.646250e+002, 5.743206e+002
9.651071e+002, 5.742216e+002
9.655892e+002, 5.773217e+002
9.660714e+002, 5.820054e+002
9.665535e+002, 5.846820e+002
9.670356e+002, 5.850896e+002
9.675177e+002, 5.854212e+002
9.679998e+002, 5.866543e+002
9.684819e+002, 5.882473e+002
9.689641e+002, 5.899329e+002
9.694462e+002, 5.917150e+002
9.699283e+002, 5.937750e+002
9.704104e+002, 5.961152e+002
9.708925e+002, 5.986970e+002
9.713746e+002, 6.016874e+002
9.718568e+002, 6.046795e+002
9.723389e+002, 6.071363e+002
9.728210e+002, 6.091420e+002
9.733031e+002, 6.109059e+002
9.737852e+002, 6.120219e+002
9.742673e+002, 6.135431e+002
9.747495e+002, 6.160753e+002
9.752316e+002, 6.187651e+002
9.757137e+002, 6.206249e+002
9.761958e+002, 6.216283e+002
9.766779e+002, 6.229640e+002
9.771600e+002, 6.247443e+002
9.776422e+002, 6.266863e+002
9.781243e+002, 6.288638e+002
9.786064e+002, 6.309219e+002
9.790885e+002, 6.322970e+002
9.795706e+002, 6.329363e+002
9.800527e+002, 6.341377e+002
9.805349e+002, 6.368013e+002
9.810170e+002, 6.389797e+002
9.814991e+002, 6.398733e+002
9.819812e+002, 6.398519e+002
9.824633e+002, 6.402568e+002
9.829454e+002, 6.409739e+002
9.834276e+002, 6.412943e+002
9.839097e+002, 6.405742e+002
9.843918e+002, 6.398596e+002
9.848739e+002, 6.402502e+002
9.853560e+002, 6.410035e+002
9.858381e+002, 6.409117e+002
9.863203e+002, 6.394651e+002
9.868024e+002, 6.382148e+002
9.872845e+002, 6.373131e+002
9.877666e+002, 6.363941e+002
9.882487e+002, 6.349857e+002
9.887308e+002, 6.332879e+002
9.892130e+002, 6.318971e+002
9.896951e+002, 6.308526e+002
9.901772e+002, 6.294372e+002
9.906593e+002, 6.268972e+002
9.911414e+002, 6.242237e+002
9.916235e+002, 6.220751e+002
9.921057e+002, 6.203065e+002
9.925878e+002, 6.178023e+002
9.930699e+002, 6.144084e+002
9.935520e+002, 6.113492e+002
9.940341e+002, 6.092195e+002
9.945162e+002, 6.073145e+002
9.949984e+002, 6.044261e+002
9.954805e+002, 6.010552e+002
9.959626e+002, 5.981559e+002
9.964447e+002, 5.963965e+002
9.969268e+002, 5.944836e+002
9.974089e+002, 5.923351e+002
9.978911e+002, 5.898980e+002
9.983732e+002, 5.870565e+002
9.988553e+002, 5.838525e+002
9.993374e+002, 5.805374e+002
9.998195e+002, 5.771374e+002
1.000302e+003, 5.739863e+002
1.000784e+003, 5.713025e+002
1.001266e+003, 5.689669e+002
1.001748e+003, 5.670372e+002
1.002230e+003, 5.654189e+002
1.002712e+003, 5.633549e+002
1.003194e+003, 5.605109e+002
1.003676e+003, 5.578588e+002
1.004159e+003, 5.556454e+002
1.004641e+003, 5.537249e+002
1.005123e+003, 5.517304e+002
1.005605e+003, 5.497440e+002
1.006087e+003, 5.480068e+002
1.006569e+003, 5.465930e+002
1.007051e+003, 5.453884e+002
1.007533e+003, 5.446815e+002
1.008016e+003, 5.438912e+002
1.008498e+003, 5.424244e+002
1.008980e+003, 5.401069e+002
1.009462e+003, 5.382155e+002
1.009944e+003, 5.367761e+002
1.010426e+003, 5.354869e+002
1.010908e+003, 5.340388e+002
1.011390e+003, 5.326732e+002
1.011872e+003, 5.317341e+002
1.012355e+003, 5.311721e+002
1.012837e+003, 5.307294e+002
1.013319e+003, 5.306457e+002
1.013801e+003, 5.301884e+002
1.014283e+003, 5.290038e+002
1.014765e+003, 5.275568e+002
1.015247e+003, 5.269099e+002
1.015729e+003, 5.268888e+002
1.016211e+003, 5.259993e+002
1.016694e+003, 5.237101e+002
1.017176e+003, 5.218000e+002
1.017658e+003, 5.224085e+002
1.018140e+003, 5.236057e+002
1.018622e+003, 5.235273e+002
1.019104e+003, 5.217778e+002
1.019586e+003, 5.204764e+002
1.020068e+003, 5.197426e+002
1.020551e+003, 5.190836e+002
1.021033e+003, 5.181013e+002
1.021515e+003, 5.171009e+002
1.021997e+003, 5.169264e+002
1.022479e+003, 5.173274e+002
1.022961e+003, 5.175695e+002
1.023443e+003, 5.172068e+002
1.023925e+003, 5.167962e+002
1.024407e+003, 5.163668e+002
1.024890e+003, 5.160510e+002
1.025372e+003, 5.160659e+002
1.025854e+003, 5.164184e+002
1.026336e+003, 5.167736e+002
1.026818e+003, 5.171144e+002
1.027300e+003, 5.172651e+002
1.027782e+003, 5.169734e+002
1.028264e+003, 5.164869e+002
1.028746e+003, 5.158999e+002
1.029229e+003, 5.152413e+002
1.029711e+003, 5.151588e+002
1.030193e+003, 5.160278e+002
1.030675e+003, 5.166796e+002
1.031157e+003, 5.166601e+002
1.031639e+003, 5.162628e+002
1.032121e+003, 5.159437e+002
1.032603e+003, 5.158094e+002
1.033086e+003, 5.163112e+002
1.033568e+003, 5.182254e+002
1.034050e+003, 5.194299e+002
1.034532e+003, 5.182824e+002
1.035014e+003, 5.164833e+002
1.035496e+003, 5.155923e+002
1.035978e+003, 5.158088e+002
1.036460e+003, 5.154302e+002
1.036943e+003, 5.144022e+002
1.037425e+003, 5.137446e+002
1.037907e+003, 5.146864e+002
1.038389e+003, 5.160296e+002
1.038871e+003, 5.165037e+002
1.039353e+003, 5.162239e+002
1.039835e+003, 5.157719e+002
1.040317e+003, 5.150843e+002
1.040799e+003, 5.145056e+002
1.041281e+003, 5.140374e+002
1.041764e+003, 5.137558e+002
1.042246e+003, 5.138724e+002
1.042728e+003, 5.142739e+002
1.043210e+003, 5.147201e+002
1.043692e+003, 5.152423e+002
1.044174e+003, 5.152112e+002
1.044656e+003, 5.136124e+002
1.045138e+003, 5.119352e+002
1.045621e+003, 5.111720e+002
1.046103e+003, 5.112662e+002
1.046585e+003, 5.114551e+002
1.047067e+003, 5.117563e+002
1.047549e+003, 5.118971e+002
1.048031e+003, 5.117523e+002
1.048513e+003, 5.113923e+002
1.048995e+003, 5.106811e+002
1.049478e+003, 5.098736e+002
1.049960e+003, 5.094039e+002
1.050442e+003, 5.098491e+002
1.050924e+003, 5.099215e+002
1.051406e+003, 5.095449e+002
1.051888e+003, 5.089073e+002
1.052370e+003, 5.080205e+002
1.052852e+003, 5.070239e+002
1.053334e+003, 5.064051e+002
1.053817e+003, 5.061659e+002
1.054299e+003, 5.060912e+002
1.054781e+003, 5.063824e+002
1.055263e+003, 5.064681e+002
1.055745e+003, 5.059113e+002
1.056227e+003, 5.050118e+002
1.056709e+003, 5.045009e+002
1.057191e+003, 5.044048e+002
1.057673e+003, 5.040898e+002
1.058156e+003, 5.033485e+002
1.058638e+003, 5.026675e+002
1.059120e+003, 5.022881e+002
1.059602e+003, 5.023852e+002
1.060084e+003, 5.035292e+002
1.060566e+003, 5.062180e+002
1.061048e+003, 5.069067e+002
1.061530e+003, 5.046468e+002
1.062013e+003, 5.024391e+002
1.062495e+003, 5.017043e+002
1.062977e+003, 5.019980e+002
1.063459e+003, 5.025551e+002
1.063941e+003, 5.031979e+002
1.064423e+003, 5.034175e+002
1.064905e+003, 5.026369e+002
1.065387e+003, 5.019335e+002
1.065870e+003, 5.015387e+002
1.066352e+003, 5.014573e+002
1.066834e+003, 5.017925e+002
1.067316e+003, 5.025459e+002
1.067798e+003, 5.032324e+002
1.068280e+003, 5.038384e+002
1.068762e+003, 5.043157e+002
1.069244e+003, 5.046049e+002
1.069726e+003, 5.047839e+002
1.070208e+003, 5.047509e+002
1.070691e+003, 5.046392e+002
1.071173e+003, 5.050354e+002
1.071655e+003, 5.062321e+002
1.072137e+003, 5.069984e+002
1.072619e+003, 5.070332e+002
1.073101e+003, 5.068006e+002
1.073583e+003, 5.068302e+002
1.074065e+003, 5.070552e+002
1.074548e+003, 5.073901e+002
1.075030e+003, 5.078253e+002
1.075512e+003, 5.082942e+002
1.075994e+003, 5.088640e+002
1.076476e+003, 5.093278e+002
1.076958e+003, 5.094593e+002
1.077440e+003, 5.094765e+002
1.077922e+003, 5.104612e+002
1.078405e+003, 5.121600e+002
1.078887e+003, 5.133109e+002
1.079369e+003, 5.132253e+002
1.079851e+003, 5.128539e+002
1.080333e+003, 5.125324e+002
1.080815e+003, 5.123303e+002
1.081297e+003, 5.123105e+002
1.081779e+003, 5.124832e+002
1.082261e+003, 5.128015e+002
1.082744e+003, 5.132759e+002
1.083226e+003, 5.137862e+002
1.083708e+003, 5.142309e+002
1.084190e+003, 5.146744e+002
1.084672e+003, 5.153453e+002
1.085154e+003, 5.160834e+002
1.085636e+003, 5.163044e+002
1.086118e+003, 5.154341e+002
1.086601e+003, 5.151586e+002
1.087083e+003, 5.158485e+002
1.087565e+003, 5.167681e+002
1.088047e+003, 5.170143e+002
1.088529e+003, 5.167817e+002
1.089011e+003, 5.163862e+002
1.089493e+003, 5.158681e+002
1.089975e+003, 5.155355e+002
1.090458e+003, 5.157119e+002
1.090940e+003, 5.158835e+002
1.091422e+003, 5.158964e+002
1.091904e+003, 5.157483e+002
1.092386e+003, 5.153387e+002
1.092868e+003, 5.147250e+002
1.093350e+003, 5.142825e+002
1.093832e+003, 5.141099e+002
1.094314e+003, 5.141597e+002
1.094797e+003, 5.147747e+002
1.095279e+003, 5.153317e+002
1.095761e+003, 5.151473e+002
1.096243e+003, 5.141630e+002
1.096725e+003, 5.136080e+002
1.097207e+003, 5.135209e+002
1.097689e+003, 5.134769e+002
1.098171e+003, 5.133094e+002
1.098653e+003, 5.129989e+002
1.099136e+003, 5.123166e+002
1.099618e+003, 5.115166e+002
1.100100e+003, 5.111046e+002
1.100582e+003, 5.116732e+002
1.101064e+003, 5.116410e+002
1.101546e+003, 5.107505e+002
1.102028e+003, 5.097879e+002
1.102510e+003, 5.095890e+002
1.102993e+003, 5.097986e+002
1.103475e+003, 5.095107e+002
1.103957e+003, 5.088183e+002
1.104439e+003, 5.085302e+002
1.104921e+003, 5.096186e+002
1.105403e+003, 5.103299e+002
1.105885e+003, 5.101373e+002
1.106367e+003, 5.094630e+002
1.106849e+003, 5.089776e+002
1.107332e+003, 5.086660e+002
1.107814e+003, 5.084354e+002
1.108296e+003, 5.082734e+002
1.108778e+003, 5.081842e+002
1.109260e+003, 5.082580e+002
1.109742e+003, 5.083198e+002
1.110224e+003, 5.081571e+002
1.110706e+003, 5.078654e+002
1.111188e+003, 5.080781e+002
1.111671e+003, 5.088076e+002
1.112153e+003, 5.092271e+002
1.112635e+003, 5.089303e+002
1.113117e+003, 5.085907e+002
1.113599e+003, 5.090436e+002
1.114081e+003, 5.097370e+002
1.114563e+003, 5.099855e+002
1.115045e+003, 5.096143e+002
1.115528e+003, 5.093506e+002
1.116010e+003, 5.092128e+002
1.116492e+003, 5.090928e+002
1.116974e+003, 5.088380e+002
1.117456e+003, 5.086517e+002
1.117938e+003, 5.090976e+002
1.118420e+003, 5.098359e+002
1.118902e+003, 5.101342e+002
1.119385e+003, 5.092091e+002
1.119867e+003, 5.087469e+002
1.120349e+003, 5.090454e+002
1.120831e+003, 5.093972e+002
1.121313e+003, 5.090394e+002
1.121795e+003, 5.082447e+002
1.122277e+003, 5.077145e+002
1.122759e+003, 5.074794e+002
1.123241e+003, 5.075621e+002
1.123724e+003, 5.082031e+002
1.124206e+003, 5.089020e+002
1.124688e+003, 5.097779e+002
1.125170e+003, 5.103825e+002
1.125652e+003, 5.095771e+002
1.126134e+003, 5.076849e+002
1.126616e+003, 5.072614e+002
1.127098e+003, 5.086479e+002
1.127580e+003, 5.099871e+002
1.128063e+003, 5.100217e+002
1.128545e+003, 5.096150e+002
1.129027e+003, 5.091853e+002
1.129509e+003, 5.087778e+002
1.129991e+003, 5.085131e+002
1.130473e+003, 5.083989e+002
1.130955e+003, 5.083094e+002
1.131437e+003, 5.082448e+002
1.131920e+003, 5.080834e+002
1.132402e+003, 5.075172e+002
1.132884e+003, 5.069274e+002
1.133366e+003, 5.067171e+002
1.133848e+003, 5.069375e+002
1.134330e+003, 5.071826e+002
1.134812e+003, 5.074720e+002
1.135294e+003, 5.076598e+002
1.135776e+003, 5.076626e+002
1.136259e+003, 5.075497e+002
1.136741e+003, 5.072734e+002
1.137223e+003, 5.069900e+002
1.137705e+003, 5.069526e+002
1.138187e+003, 5.073473e+002
1.138669e+003, 5.077078e+002
1.139151e+003, 5.080563e+002
1.139633e+003, 5.082891e+002
1.140115e+003, 5.083187e+002
1.140598e+003, 5.081937e+002
1.141080e+003, 5.080395e+002
1.141562e+003, 5.078198e+002
1.142044e+003, 5.074286e+002
1.142526e+003, 5.065643e+002
1.143008e+003, 5.059473e+002
1.143490e+003, 5.058034e+002
1.143972e+003, 5.057010e+002
1.144455e+003, 5.050817e+002
1.144937e+003, 5.041678e+002
1.145419e+003, 5.037998e+002
1.145901e+003, 5.039238e+002
1.146383e+003, 5.038601e+002
1.146865e+003, 5.027071e+002
1.147347e+003, 5.020706e+002
1.147829e+003, 5.027198e+002
1.148312e+003, 5.038133e+002
1.148794e+003, 5.040072e+002
1.149276e+003, 5.034228e+002
1.149758e+003, 5.028161e+002
1.150240e+003, 5.022735e+002
1.150722e+003, 5.018067e+002
1.151204e+003, 5.013866e+002
1.151686e+003, 5.010789e+002
1.152168e+003, 5.008869e+002
1.152651e+003, 5.008344e+002
1.153133e+003, 5.011480e+002
1.153615e+003, 5.017964e+002
1.154097e+003, 5.020115e+002
1.154579e+003, 5.015423e+002
1.155061e+003, 5.010032e+002
1.155543e+003, 5.007279e+002
1.156025e+003, 5.007201e+002
1.156507e+003, 5.011816e+002
1.156990e+003, 5.020127e+002
1.157472e+003, 5.022524e+002
1.157954e+003, 5.018712e+002
1.158436e+003, 5.013535e+002
1.158918e+003, 5.007986e+002
1.159400e+003, 5.003412e+002
1.159882e+003, 5.002488e+002
1.160364e+003, 5.002577e+002
1.160847e+003, 5.000118e+002
1.161329e+003, 4.994107e+002
1.161811e+003, 4.990569e+002
1.162293e+003, 4.989677e+002
1.162775e+003, 4.990367e+002
1.163257e+003, 4.993080e+002
1.163739e+003, 4.995822e+002
1.164221e+003, 4.996976e+002
1.164703e+003, 4.996091e+002
1.165186e+003, 4.991967e+002
1.165668e+003, 4.980535e+002
1.166150e+003, 4.975559e+002
1.166632e+003, 4.978593e+002
1.167114e+003, 4.982387e+002
1.167596e+003, 4.980506e+002
1.168078e+003, 4.976797e+002
1.168560e+003, 4.978840e+002
1.169042e+003, 4.984253e+002
1.169525e+003, 4.986594e+002
1.170007e+003, 4.982210e+002
1.170489e+003, 4.977818e+002
1.170971e+003, 4.973656e+002
1.171453e+003, 4.969821e+002
1.171935e+003, 4.965955e+002
1.172417e+003, 4.962652e+002
1.172899e+003, 4.960848e+002
1.173382e+003, 4.960623e+002
1.173864e+003, 4.962125e+002
1.174346e+003, 4.970307e+002
1.174828e+003, 4.972386e+002
1.175310e+003, 4.964113e+002
1.175792e+003, 4.953831e+002
1.176274e+003, 4.953011e+002
1.176756e+003, 4.958196e+002
1.177239e+003, 4.961245e+002
1.177721e+003, 4.961537e+002
1.178203e+003, 4.962052e+002
1.178685e+003, 4.969160e+002
1.179167e+003, 4.968697e+002
1.179649e+003, 4.954120e+002
1.180131e+003, 4.934465e+002
1.180613e+003, 4.926564e+002
1.181095e+003, 4.926876e+002
1.181578e+003, 4.924998e+002
1.182060e+003, 4.919218e+002
1.182542e+003, 4.914318e+002
1.183024e+003, 4.911905e+002
1.183506e+003, 4.911722e+002
1.183988e+003, 4.914497e+002
1.184470e+003, 4.918705e+002
1.184952e+003, 4.920877e+002
1.185434e+003, 4.921124e+002
1.185917e+003, 4.919941e+002
1.186399e+003, 4.917654e+002
1.186881e+003, 4.912825e+002
1.187363e+003, 4.899793e+002
1.187845e+003, 4.889641e+002
1.188327e+003, 4.888785e+002
1.188809e+003, 4.894309e+002
1.189291e+003, 4.896098e+002
1.189774e+003, 4.894372e+002
1.190256e+003, 4.889784e+002
1.190738e+003, 4.880744e+002
1.191220e+003, 4.873929e+002
1.191702e+003, 4.875417e+002
1.192184e+003, 4.877321e+002
1.192666e+003, 4.873684e+002
1.193148e+003, 4.865988e+002
1.193630e+003, 4.865363e+002
1.194113e+003, 4.870511e+002
1.194595e+003, 4.873799e+002
1.195077e+003, 4.871317e+002
1.195559e+003, 4.867758e+002
1.196041e+003, 4.864507e+002
1.196523e+003, 4.862067e+002
1.197005e+003, 4.861943e+002
1.197487e+003, 4.863708e+002
1.197969e+003, 4.857024e+002
1.198452e+003, 4.843521e+002
1.198934e+003, 4.835205e+002
1.199416e+003, 4.845080e+002
1.199898e+003, 4.853112e+002
1.200380e+003, 4.845818e+002
1.200862e+003, 4.834914e+002
1.201344e+003, 4.832564e+002
1.201826e+003, 4.838716e+002
1.202309e+003, 4.841877e+002
1.202791e+003, 4.841909e+002
1.203273e+003, 4.838369e+002
1.203755e+003, 4.826847e+002
1.204237e+003, 4.816366e+002
1.204719e+003, 4.810107e+002
1.205201e+003, 4.808546e+002
1.205683e+003, 4.814522e+002
1.206166e+003, 4.827708e+002
1.206648e+003, 4.834013e+002
1.207130e+003, 4.833082e+002
1.207612e+003, 4.829840e+002
1.208094e+003, 4.823047e+002
1.208576e+003, 4.819558e+002
1.209058e+003, 4.827871e+002
1.209540e+003, 4.839180e+002
1.210022e+003, 4.840327e+002
1.210505e+003, 4.831730e+002
1.210987e+003, 4.824816e+002
1.211469e+003, 4.820420e+002
1.211951e+003, 4.818700e+002
1.212433e+003, 4.820569e+002
1.212915e+003, 4.824356e+002
1.213397e+003, 4.831866e+002
1.213879e+003, 4.839312e+002
1.214361e+003, 4.839102e+002
1.214844e+003, 4.831816e+002
1.215326e+003, 4.825132e+002
1.215808e+003, 4.819908e+002
1.216290e+003, 4.818342e+002
1.216772e+003, 4.826151e+002
1.217254e+003, 4.833473e+002
1.217736e+003, 4.833322e+002
1.218218e+003, 4.829775e+002
1.218701e+003, 4.832851e+002
1.219183e+003, 4.841521e+002
1.219665e+003, 4.843045e+002
1.220147e+003, 4.835104e+002
1.220629e+003, 4.827773e+002
1.221111e+003, 4.827442e+002
1.221593e+003, 4.829704e+002
1.222075e+003, 4.832324e+002
1.222557e+003, 4.835514e+002
1.223040e+003, 4.841493e+002
1.223522e+003, 4.849407e+002
1.224004e+003, 4.851653e+002
1.224486e+003, 4.846454e+002
1.224968e+003, 4.840717e+002
1.225450e+003, 4.838512e+002
1.225932e+003, 4.837098e+002
1.226414e+003, 4.833971e+002
1.226896e+003, 4.831052e+002
1.227379e+003, 4.836420e+002
1.227861e+003, 4.847931e+002
1.228343e+003, 4.853431e+002
1.228825e+003, 4.849430e+002
1.229307e+003, 4.844827e+002
1.229789e+003, 4.844032e+002
1.230271e+003, 4.844518e+002
1.230753e+003, 4.845362e+002
1.231236e+003, 4.846135e+002
1.231718e+003, 4.844930e+002
1.232200e+003, 4.842356e+002
1.232682e+003, 4.841168e+002
1.233164e+003, 4.842319e+002
1.233646e+003, 4.843562e+002
1.234128e+003, 4.842931e+002
1.234610e+003, 4.843330e+002
1.235093e+003, 4.846864e+002
1.235575e+003, 4.851967e+002
1.236057e+003, 4.853001e+002
1.236539e+003, 4.851161e+002
1.237021e+003, 4.850416e+002
1.237503e+003, 4.852324e+002
1.237985e+003, 4.853764e+002
1.238467e+003, 4.854865e+002
1.238949e+003, 4.853426e+002
1.239432e+003, 4.847479e+002
1.239914e+003, 4.838804e+002
1.240396e+003, 4.830971e+002
1.240878e+003, 4.825111e+002
1.241360e+003, 4.825272e+002
1.241842e+003, 4.834738e+002
1.242324e+003, 4.843419e+002
1.242806e+003, 4.849723e+002
1.243288e+003, 4.853794e+002
1.243771e+003, 4.855280e+002
1.244253e+003, 4.854980e+002
1.244735e+003, 4.853912e+002
1.245217e+003, 4.852912e+002
1.245699e+003, 4.854127e+002
1.246181e+003, 4.859165e+002
1.246663e+003, 4.863879e+002
1.247145e+003, 4.869023e+002
1.247628e+003, 4.871036e+002
1.248110e+003, 4.865908e+002
1.248592e+003, 4.858474e+002
1.249074e+003, 4.860208e+002
1.249556e+003, 4.867140e+002
1.250038e+003, 4.871676e+002
1.250520e+003, 4.871411e+002
1.251002e+003, 4.868194e+002
1.251484e+003, 4.859006e+002
1.251967e+003, 4.857122e+002
1.252449e+003, 4.876962e+002
1.252931e+003, 4.901286e+002
1.253413e+003, 4.898564e+002
1.253895e+003, 4.881706e+002
1.254377e+003, 4.873847e+002
1.254859e+003, 4.884058e+002
1.255341e+003, 4.890643e+002
1.255823e+003, 4.892983e+002
1.256306e+003, 4.894573e+002
1.256788e+003, 4.898621e+002
1.257270e+003, 4.901591e+002
1.257752e+003, 4.896818e+002
1.258234e+003, 4.888992e+002
1.258716e+003, 4.886023e+002
1.259198e+003, 4.889788e+002
1.259680e+003, 4.893579e+002
1.260163e+003, 4.897738e+002
1.260645e+003, 4.899242e+002
1.261127e+003, 4.893603e+002
1.261609e+003, 4.888159e+002
1.262091e+003, 4.891693e+002
1.262573e+003, 4.898416e+002
1.263055e+003, 4.899632e+002
1.263537e+003, 4.893781e+002
1.264020e+003, 4.893134e+002
1.264502e+003, 4.897596e+002
1.264984e+003, 4.903853e+002
1.265466e+003, 4.913130e+002
1.265948e+003, 4.919445e+002
1.266430e+003, 4.916500e+002
1.266912e+003, 4.909792e+002
1.267394e+003, 4.905580e+002
1.267876e+003, 4.903936e+002
1.268359e+003, 4.901579e+002
1.268841e+003, 4.898819e+002
1.269323e+003, 4.898531e+002
1.269805e+003, 4.906862e+002
1.270287e+003, 4.911937e+002
1.270769e+003, 4.901306e+002
1.271251e+003, 4.891598e+002
1.271733e+003, 4.898496e+002
1.272215e+003, 4.919316e+002
1.272698e+003, 4.932808e+002
1.273180e+003, 4.939258e+002
1.273662e+003, 4.939258e+002
1.274144e+003, 4.925758e+002
1.274626e+003, 4.916762e+002
1.275108e+003, 4.918326e+002
1.275590e+003, 4.921542e+002
1.276072e+003, 4.917719e+002
1.276555e+003, 4.910300e+002
1.277037e+003, 4.913528e+002
1.277519e+003, 4.923393e+002
1.278001e+003, 4.928119e+002
1.278483e+003, 4.915132e+002
1.278965e+003, 4.910342e+002
1.279447e+003, 4.918194e+002
1.279929e+003, 4.926861e+002
1.280411e+003, 4.925311e+002
1.280894e+003, 4.919619e+002
1.281376e+003, 4.922747e+002
1.281858e+003, 4.930443e+002
1.282340e+003, 4.932897e+002
1.282822e+003, 4.924444e+002
1.283304e+003, 4.917245e+002
1.283786e+003, 4.910439e+002
1.284268e+003, 4.909344e+002
1.284750e+003, 4.922821e+002
1.285233e+003, 4.939446e+002
1.285715e+003, 4.945011e+002
1.286197e+003, 4.944516e+002
1.286679e+003, 4.946863e+002
1.287161e+003, 4.953753e+002
1.287643e+003, 4.958309e+002
1.288125e+003, 4.960441e+002
1.288607e+003, 4.961447e+002
1.289090e+003, 4.961236e+002
1.289572e+003, 4.961075e+002
1.290054e+003, 4.962783e+002
1.290536e+003, 4.964308e+002
1.291018e+003, 4.962470e+002
1.291500e+003, 4.956979e+002
1.291982e+003, 4.956906e+002
1.292464e+003, 4.961774e+002
1.292947e+003, 4.967316e+002
1.293429e+003, 4.974035e+002
1.293911e+003, 4.977347e+002
1.294393e+003, 4.972289e+002
1.294875e+003, 4.965923e+002
1.295357e+003, 4.964099e+002
1.295839e+003, 4.965446e+002
1.296321e+003, 4.961050e+002
1.296803e+003, 4.953182e+002
1.297286e+003, 4.949779e+002
1.297768e+003, 4.957328e+002
1.298250e+003, 4.964102e+002
1.298732e+003, 4.967276e+002
1.299214e+003, 4.971693e+002
1.299696e+003, 4.983451e+002
1.300178e+003, 4.996629e+002
1.300660e+003, 5.002215e+002
##END=



