##NAMES=Ferro-holmquistite
##RRUFFID=R070005
##IDEAL CHEMISTRY=[box]Li_2_(Fe^2+^_3_Al_2_)Si_8_O_22_(OH)_2_
##LOCALITY=Mount Marrion, South Australia, Australia
##OWNER=RRUFF
##SOURCE=Michael Scott
##DESCRIPTION=Dark blue fractured prismatic crystals
##STATUS=The identification of this mineral is confirmed by single-crystal X-ray diffraction and chemical analysis.
##URL=rruff.info/R070005
##MEASURED CHEMISTRY=(Li_1.93_Na_0.03_Mn_0.02_[box]_0.02_)_Σ=2_((Fe^2+^_1.52_Mg_1.48_)_Σ=3_(Al_1.91_Fe^3+^_0.09_)_Σ=2_)_Σ=5_Si_8.00_O_22_(OH)_2_; Li estimated by difference Li=2-(Na+K+Ca+Mn) and charge balance; OH by charge balance
154.0939, 10912.62
154.5760, 10895.53
155.0581, 10879.20
155.5403, 10886.39
156.0224, 10929.38
156.5045, 10988.05
156.9866, 11041.70
157.4687, 11083.47
157.9508, 11125.38
158.4330, 11192.50
158.9151, 11310.92
159.3972, 11423.76
159.8793, 11515.13
160.3614, 11608.12
160.8435, 11729.15
161.3257, 11887.97
161.8078, 12067.37
162.2899, 12232.98
162.7720, 12363.73
163.2541, 12507.36
163.7362, 12669.74
164.2184, 12843.63
164.7005, 13023.49
165.1826, 13208.27
165.6647, 13393.31
166.1468, 13570.39
166.6289, 13736.62
167.1111, 13900.24
167.5932, 14058.37
168.0753, 14215.47
168.5574, 14377.76
169.0395, 14549.28
169.5216, 14723.88
170.0038, 14890.69
170.4859, 15051.27
170.9680, 15202.13
171.4501, 15326.08
171.9322, 15445.62
172.4143, 15600.26
172.8965, 15807.49
173.3786, 16030.78
173.8607, 16198.05
174.3428, 16286.89
174.8249, 16394.40
175.3070, 16550.03
175.7892, 16734.21
176.2713, 16919.09
176.7534, 17096.70
177.2355, 17269.48
177.7176, 17434.10
178.1997, 17586.16
178.6819, 17752.23
179.1640, 17934.91
179.6461, 18136.40
180.1282, 18363.68
180.6103, 18621.10
181.0924, 18894.36
181.5745, 19164.78
182.0567, 19432.36
182.5388, 19698.32
183.0209, 19960.76
183.5030, 20221.40
183.9851, 20480.12
184.4672, 20732.46
184.9494, 20992.22
185.4315, 21288.75
185.9136, 21620.58
186.3957, 21943.42
186.8778, 22250.25
187.3599, 22538.85
187.8421, 22809.22
188.3242, 23062.43
188.8063, 23293.83
189.2884, 23506.56
189.7705, 23703.61
190.2526, 23838.07
190.7348, 23904.31
191.2169, 23897.40
191.6990, 23800.87
192.1811, 23603.24
192.6632, 23344.76
193.1453, 23050.00
193.6275, 22724.08
194.1096, 22379.58
194.5917, 22006.20
195.0738, 21620.38
195.5559, 21246.04
196.0380, 20881.38
196.5202, 20536.76
197.0023, 20221.49
197.4844, 19931.43
197.9665, 19669.43
198.4486, 19441.04
198.9307, 19237.26
199.4129, 19043.34
199.8950, 18855.70
200.3771, 18685.85
200.8592, 18550.33
201.3413, 18439.04
201.8234, 18335.20
202.3056, 18237.27
202.7877, 18143.35
203.2698, 18049.31
203.7519, 17954.58
204.2340, 17863.93
204.7161, 17774.23
205.1983, 17692.00
205.6804, 17632.88
206.1625, 17614.02
206.6446, 17611.08
207.1267, 17599.37
207.6088, 17580.37
208.0910, 17541.56
208.5731, 17454.92
209.0552, 17348.72
209.5373, 17265.58
210.0194, 17218.84
210.5015, 17193.71
210.9837, 17181.08
211.4658, 17182.41
211.9479, 17176.38
212.4300, 17145.20
212.9121, 17103.72
213.3942, 17074.14
213.8764, 17065.68
214.3585, 17057.54
214.8406, 17022.92
215.3227, 16961.40
215.8048, 16914.77
216.2869, 16900.21
216.7691, 16910.03
217.2512, 16936.72
217.7333, 16985.55
218.2154, 17032.23
218.6975, 17055.69
219.1796, 17057.40
219.6618, 17055.04
220.1439, 17048.98
220.6260, 17045.77
221.1081, 17053.36
221.5902, 17073.16
222.0723, 17094.20
222.5545, 17111.35
223.0366, 17124.20
223.5187, 17129.74
224.0008, 17124.54
224.4829, 17114.69
224.9650, 17105.43
225.4472, 17096.70
225.9293, 17091.48
226.4114, 17091.79
226.8935, 17096.96
227.3756, 17107.72
227.8577, 17131.41
228.3399, 17146.89
228.8220, 17123.23
229.3041, 17069.14
229.7862, 17034.02
230.2683, 17050.69
230.7504, 17099.27
231.2325, 17139.16
231.7147, 17166.60
232.1968, 17186.25
232.6789, 17197.30
233.1610, 17202.96
233.6431, 17212.11
234.1252, 17226.97
234.6074, 17247.19
235.0895, 17274.55
235.5716, 17310.90
236.0537, 17344.86
236.5358, 17367.90
237.0179, 17383.08
237.5001, 17396.08
237.9822, 17404.94
238.4643, 17414.38
238.9464, 17432.69
239.4285, 17460.26
239.9106, 17480.37
240.3928, 17477.47
240.8749, 17463.09
241.3570, 17460.63
241.8391, 17472.42
242.3212, 17495.42
242.8033, 17540.66
243.2855, 17602.56
243.7676, 17636.23
244.2497, 17609.59
244.7318, 17554.88
245.2139, 17534.71
245.6960, 17560.89
246.1782, 17588.27
246.6603, 17588.99
247.1424, 17571.38
247.6245, 17563.13
248.1066, 17577.57
248.5887, 17595.98
249.0709, 17584.83
249.5530, 17539.60
250.0351, 17506.94
250.5172, 17511.32
250.9993, 17537.42
251.4814, 17561.97
251.9636, 17582.04
252.4457, 17591.54
252.9278, 17576.51
253.4099, 17537.30
253.8920, 17506.71
254.3741, 17490.36
254.8563, 17485.77
255.3384, 17495.34
255.8205, 17519.39
256.3026, 17541.39
256.7847, 17546.12
257.2668, 17533.23
257.7490, 17521.96
258.2311, 17514.63
258.7132, 17507.54
259.1953, 17495.20
259.6774, 17479.10
260.1595, 17470.90
260.6417, 17483.21
261.1238, 17508.99
261.6059, 17505.83
262.0880, 17442.40
262.5701, 17386.13
263.0522, 17373.19
263.5344, 17389.03
264.0165, 17398.52
264.4986, 17383.83
264.9807, 17353.96
265.4628, 17335.74
265.9449, 17337.70
266.4271, 17336.66
266.9092, 17320.79
267.3913, 17302.02
267.8734, 17299.86
268.3555, 17320.92
268.8376, 17349.30
269.3198, 17359.93
269.8019, 17348.13
270.2840, 17323.11
270.7661, 17265.32
271.2482, 17206.49
271.7303, 17176.96
272.2125, 17179.24
272.6946, 17189.75
273.1767, 17181.92
273.6588, 17149.44
274.1409, 17130.86
274.6230, 17129.02
275.1052, 17136.19
275.5873, 17154.30
276.0694, 17179.01
276.5515, 17200.55
277.0336, 17211.98
277.5157, 17213.38
277.9979, 17207.04
278.4800, 17176.53
278.9621, 17156.62
279.4442, 17158.10
279.9263, 17174.51
280.4084, 17197.71
280.8906, 17224.06
281.3727, 17250.16
281.8548, 17265.27
282.3369, 17261.75
282.8190, 17257.44
283.3011, 17239.77
283.7833, 17229.59
284.2654, 17257.79
284.7475, 17329.07
285.2296, 17404.15
285.7117, 17412.79
286.1938, 17314.30
286.6760, 17262.65
287.1581, 17296.23
287.6402, 17347.26
288.1223, 17386.90
288.6044, 17410.14
289.0865, 17421.29
289.5687, 17420.28
290.0508, 17406.56
290.5329, 17402.96
291.0150, 17417.33
291.4971, 17433.95
291.9792, 17444.49
292.4614, 17452.88
292.9435, 17468.47
293.4256, 17500.75
293.9077, 17541.08
294.3898, 17561.90
294.8719, 17557.17
295.3541, 17546.02
295.8362, 17536.10
296.3183, 17523.70
296.8004, 17501.25
297.2825, 17462.82
297.7646, 17427.13
298.2468, 17423.64
298.7289, 17455.86
299.2110, 17476.78
299.6931, 17462.79
300.1752, 17440.89
300.6573, 17435.88
301.1395, 17449.58
301.6216, 17466.62
302.1037, 17473.95
302.5858, 17475.61
303.0679, 17490.18
303.5500, 17528.24
304.0321, 17563.47
304.5143, 17565.93
304.9964, 17543.26
305.4785, 17525.67
305.9606, 17529.68
306.4427, 17540.69
306.9248, 17538.95
307.4070, 17523.15
307.8891, 17505.46
308.3712, 17496.30
308.8533, 17491.02
309.3354, 17473.02
309.8175, 17423.38
310.2997, 17380.09
310.7818, 17373.51
311.2639, 17392.50
311.7460, 17399.21
312.2281, 17373.89
312.7102, 17334.74
313.1924, 17328.67
313.6745, 17378.75
314.1566, 17402.60
314.6387, 17363.21
315.1208, 17297.88
315.6029, 17244.40
316.0851, 17212.20
316.5672, 17204.58
317.0493, 17231.04
317.5314, 17307.44
318.0135, 17346.18
318.4956, 17319.27
318.9778, 17282.53
319.4599, 17264.65
319.9420, 17264.99
320.4241, 17270.47
320.9062, 17272.07
321.3883, 17270.28
321.8705, 17269.92
322.3526, 17262.30
322.8347, 17266.46
323.3168, 17297.66
323.7989, 17338.03
324.2810, 17365.24
324.7632, 17370.20
325.2453, 17362.14
325.7274, 17357.04
326.2095, 17349.17
326.6916, 17358.07
327.1737, 17401.68
327.6559, 17447.38
328.1380, 17472.16
328.6201, 17475.79
329.1022, 17476.21
329.5843, 17492.07
330.0664, 17523.56
330.5486, 17545.33
331.0307, 17542.20
331.5128, 17548.79
331.9949, 17591.88
332.4770, 17652.59
332.9591, 17695.35
333.4413, 17699.33
333.9234, 17679.86
334.4055, 17661.12
334.8876, 17638.66
335.3697, 17636.90
335.8518, 17685.02
336.3340, 17748.91
336.8161, 17796.75
337.2982, 17824.40
337.7803, 17835.84
338.2624, 17819.54
338.7445, 17785.48
339.2267, 17782.61
339.7088, 17833.10
340.1909, 17894.21
340.6730, 17915.35
341.1551, 17901.85
341.6372, 17891.88
342.1194, 17900.49
342.6015, 17914.93
343.0836, 17923.23
343.5657, 17924.39
344.0478, 17916.55
344.5299, 17894.99
345.0121, 17863.27
345.4942, 17842.78
345.9763, 17834.68
346.4584, 17835.30
346.9405, 17850.36
347.4226, 17872.17
347.9048, 17888.01
348.3869, 17893.18
348.8690, 17888.60
349.3511, 17874.70
349.8332, 17837.75
350.3153, 17818.52
350.7975, 17838.25
351.2796, 17859.17
351.7617, 17851.67
352.2438, 17816.29
352.7259, 17772.99
353.2080, 17737.37
353.6902, 17709.53
354.1723, 17699.14
354.6544, 17735.18
355.1365, 17758.66
355.6186, 17751.15
356.1007, 17725.48
356.5829, 17700.24
357.0650, 17684.20
357.5471, 17670.71
358.0292, 17643.05
358.5113, 17591.69
358.9934, 17556.95
359.4756, 17568.04
359.9577, 17581.69
360.4398, 17566.95
360.9219, 17523.88
361.4040, 17481.22
361.8861, 17464.07
362.3683, 17467.14
362.8504, 17465.62
363.3325, 17459.80
363.8146, 17446.22
364.2967, 17410.03
364.7788, 17365.71
365.2610, 17342.53
365.7431, 17357.55
366.2252, 17386.27
366.7073, 17403.54
367.1894, 17411.69
367.6715, 17432.02
368.1537, 17479.97
368.6358, 17535.55
369.1179, 17558.17
369.6000, 17540.58
370.0821, 17526.99
370.5642, 17523.18
371.0464, 17532.78
371.5285, 17567.13
372.0106, 17625.90
372.4927, 17685.54
372.9748, 17724.22
373.4569, 17740.60
373.9391, 17756.04
374.4212, 17773.84
374.9033, 17787.36
375.3854, 17784.35
375.8675, 17777.13
376.3496, 17786.11
376.8318, 17820.95
377.3139, 17877.01
377.7960, 17947.51
378.2781, 18058.93
378.7602, 18134.67
379.2423, 18139.70
379.7245, 18139.18
380.2066, 18182.18
380.6887, 18266.92
381.1708, 18352.60
381.6529, 18398.99
382.1350, 18410.65
382.6172, 18448.82
383.0993, 18538.83
383.5814, 18613.50
384.0635, 18639.17
384.5456, 18637.55
385.0277, 18639.01
385.5099, 18655.81
385.9920, 18671.43
386.4741, 18669.86
386.9562, 18651.04
387.4383, 18609.00
387.9204, 18527.74
388.4026, 18440.83
388.8847, 18391.93
389.3668, 18379.42
389.8489, 18360.88
390.3310, 18331.54
390.8131, 18283.58
391.2953, 18192.49
391.7774, 18060.14
392.2595, 17945.81
392.7416, 17893.39
393.2237, 17892.08
393.7058, 17875.79
394.1880, 17829.61
394.6701, 17788.87
395.1522, 17770.74
395.6343, 17760.47
396.1164, 17735.88
396.5985, 17690.86
397.0807, 17638.94
397.5628, 17597.86
398.0449, 17566.95
398.5270, 17550.28
399.0091, 17567.47
399.4912, 17577.92
399.9734, 17559.41
400.4555, 17520.32
400.9376, 17480.72
401.4197, 17452.21
401.9018, 17431.76
402.3839, 17407.52
402.8660, 17369.32
403.3481, 17354.51
403.8303, 17405.25
404.3124, 17461.22
404.7945, 17472.32
405.2766, 17433.35
405.7587, 17386.50
406.2408, 17363.79
406.7230, 17358.70
407.2051, 17345.60
407.6872, 17317.82
408.1693, 17297.21
408.6514, 17307.01
409.1335, 17336.06
409.6157, 17353.79
410.0978, 17349.17
410.5799, 17340.25
411.0620, 17332.52
411.5441, 17329.24
412.0262, 17344.82
412.5084, 17387.77
412.9905, 17432.81
413.4726, 17437.21
413.9547, 17373.99
414.4368, 17344.39
414.9189, 17378.69
415.4011, 17420.88
415.8832, 17430.74
416.3653, 17415.52
416.8474, 17408.51
417.3295, 17432.72
417.8116, 17480.18
418.2938, 17515.03
418.7759, 17530.93
419.2580, 17543.72
419.7401, 17559.45
420.2222, 17570.88
420.7043, 17574.63
421.1865, 17568.97
421.6686, 17549.23
422.1507, 17508.85
422.6328, 17449.02
423.1149, 17377.67
423.5970, 17280.99
424.0792, 17200.03
424.5613, 17180.56
425.0434, 17187.88
425.5255, 17162.38
426.0076, 17074.57
426.4897, 16976.72
426.9719, 16911.99
427.4540, 16873.54
427.9361, 16833.83
428.4182, 16783.14
428.9003, 16734.31
429.3824, 16707.04
429.8646, 16706.01
430.3467, 16694.87
430.8288, 16650.21
431.3109, 16613.04
431.7930, 16625.42
432.2751, 16670.09
432.7573, 16692.90
433.2394, 16661.66
433.7215, 16594.12
434.2036, 16544.71
434.6857, 16520.59
435.1678, 16504.55
435.6500, 16490.89
436.1321, 16487.43
436.6142, 16507.63
437.0963, 16546.79
437.5784, 16581.15
438.0605, 16592.81
438.5427, 16583.18
439.0248, 16554.02
439.5069, 16486.74
439.9890, 16442.62
440.4711, 16474.49
440.9532, 16532.19
441.4354, 16561.72
441.9175, 16551.48
442.3996, 16524.90
442.8817, 16491.14
443.3638, 16454.14
443.8459, 16421.23
444.3281, 16392.58
444.8102, 16377.22
445.2923, 16385.95
445.7744, 16419.21
446.2565, 16452.00
446.7386, 16497.80
447.2208, 16528.63
447.7029, 16515.15
448.1850, 16482.02
448.6671, 16475.35
449.1492, 16511.77
449.6313, 16565.04
450.1135, 16592.95
450.5956, 16587.91
451.0777, 16580.65
451.5598, 16568.69
452.0419, 16557.02
452.5240, 16549.09
453.0062, 16542.96
453.4883, 16535.32
453.9704, 16525.56
454.4525, 16510.52
454.9346, 16479.18
455.4167, 16427.49
455.8989, 16389.62
456.3810, 16381.82
456.8631, 16383.64
457.3452, 16372.32
457.8273, 16348.96
458.3094, 16335.28
458.7916, 16351.33
459.2737, 16374.59
459.7558, 16374.58
460.2379, 16352.82
460.7200, 16335.68
461.2021, 16339.11
461.6843, 16354.34
462.1664, 16355.98
462.6485, 16332.43
463.1306, 16315.51
463.6127, 16316.91
464.0948, 16319.71
464.5770, 16306.10
465.0591, 16278.00
465.5412, 16251.95
466.0233, 16240.15
466.5054, 16242.51
466.9875, 16262.66
467.4697, 16328.65
467.9518, 16362.00
468.4339, 16323.10
468.9160, 16261.13
469.3981, 16218.03
469.8802, 16201.12
470.3624, 16192.20
470.8445, 16177.12
471.3266, 16158.62
471.8087, 16146.46
472.2908, 16142.39
472.7729, 16138.79
473.2551, 16132.67
473.7372, 16122.76
474.2193, 16106.36
474.7014, 16076.42
475.1835, 16051.02
475.6656, 16040.30
476.1478, 16036.73
476.6299, 16028.96
477.1120, 16015.17
477.5941, 16003.40
478.0762, 16004.06
478.5583, 16017.98
479.0405, 16011.89
479.5226, 15958.26
480.0047, 15915.83
480.4868, 15894.52
480.9689, 15890.90
481.4510, 15906.14
481.9332, 15939.28
482.4153, 15972.09
482.8974, 15979.37
483.3795, 15963.49
483.8616, 15964.84
484.3438, 15994.76
484.8259, 16023.85
485.3080, 16035.54
485.7901, 16032.97
486.2722, 16018.46
486.7543, 15984.18
487.2365, 15951.91
487.7186, 15936.23
488.2007, 15931.99
488.6828, 15924.00
489.1649, 15908.41
489.6470, 15907.63
490.1292, 15951.99
490.6113, 16048.75
491.0934, 16097.75
491.5755, 16072.18
492.0576, 16037.32
492.5397, 15995.63
493.0219, 15961.98
493.5040, 15959.67
493.9861, 15994.29
494.4682, 16038.41
494.9503, 16053.09
495.4324, 16036.54
495.9146, 16039.45
496.3967, 16085.27
496.8788, 16115.14
497.3609, 16085.11
497.8430, 16022.48
498.3251, 15971.04
498.8073, 15941.75
499.2894, 15924.11
499.7715, 15919.97
500.2536, 15920.98
500.7357, 15901.80
501.2178, 15855.61
501.6999, 15809.53
502.1820, 15790.35
502.6642, 15798.84
503.1463, 15806.86
503.6284, 15825.92
504.1105, 15831.11
504.5926, 15795.80
505.0747, 15751.32
505.5569, 15746.07
506.0390, 15789.05
506.5211, 15831.51
507.0032, 15803.60
507.4853, 15703.18
507.9674, 15652.88
508.4496, 15682.03
508.9317, 15713.67
509.4138, 15711.46
509.8959, 15691.96
510.3780, 15675.64
510.8601, 15665.83
511.3423, 15662.18
511.8244, 15672.25
512.3065, 15686.77
512.7886, 15681.37
513.2708, 15651.99
513.7529, 15624.08
514.2350, 15617.90
514.7171, 15631.97
515.1992, 15650.38
515.6813, 15694.35
516.1635, 15715.38
516.6456, 15685.42
517.1277, 15639.48
517.6098, 15610.95
518.0919, 15605.67
518.5740, 15611.74
519.0562, 15621.41
519.5383, 15633.03
520.0204, 15630.15
520.5025, 15599.92
520.9846, 15585.77
521.4667, 15624.89
521.9489, 15677.04
522.4310, 15699.92
522.9131, 15686.93
523.3952, 15674.92
523.8773, 15683.04
524.3594, 15702.87
524.8416, 15729.33
525.3237, 15759.57
525.8058, 15773.99
526.2879, 15759.19
526.7700, 15723.39
527.2521, 15692.31
527.7343, 15637.77
528.2164, 15631.34
528.6985, 15729.37
529.1806, 15828.08
529.6627, 15852.68
530.1448, 15812.17
530.6270, 15757.67
531.1091, 15716.58
531.5912, 15690.44
532.0733, 15688.12
532.5554, 15714.33
533.0375, 15728.96
533.5197, 15710.02
534.0018, 15690.12
534.4839, 15709.24
534.9660, 15761.70
535.4481, 15795.42
535.9302, 15788.64
536.4124, 15765.33
536.8945, 15733.97
537.3766, 15701.11
537.8587, 15683.55
538.3408, 15687.95
538.8229, 15702.25
539.3051, 15709.19
539.7872, 15707.60
540.2693, 15703.24
540.7514, 15697.18
541.2335, 15687.14
541.7156, 15661.56
542.1978, 15635.13
542.6799, 15630.98
543.1620, 15657.79
543.6441, 15694.72
544.1262, 15724.39
544.6083, 15746.33
545.0905, 15758.04
545.5726, 15759.23
546.0547, 15748.61
546.5368, 15713.58
547.0189, 15666.93
547.5010, 15661.34
547.9832, 15737.14
548.4653, 15792.49
548.9474, 15779.00
549.4295, 15744.37
549.9116, 15743.46
550.3937, 15777.46
550.8758, 15806.78
551.3579, 15797.99
551.8400, 15760.88
552.3221, 15740.44
552.8043, 15744.54
553.2864, 15747.01
553.7685, 15751.62
554.2506, 15745.22
554.7327, 15706.53
555.2148, 15641.19
555.6970, 15594.37
556.1791, 15598.76
556.6612, 15623.88
557.1433, 15643.63
557.6254, 15655.46
558.1075, 15648.16
558.5897, 15616.23
559.0718, 15569.26
559.5539, 15518.61
560.0360, 15458.29
560.5181, 15418.71
561.0002, 15409.06
561.4824, 15406.79
561.9645, 15411.56
562.4466, 15415.59
562.9287, 15408.75
563.4108, 15387.69
563.8929, 15357.89
564.3751, 15320.85
564.8572, 15278.98
565.3393, 15248.34
565.8214, 15231.39
566.3035, 15221.34
566.7856, 15215.01
567.2678, 15212.88
567.7499, 15217.28
568.2320, 15238.68
568.7141, 15243.62
569.1962, 15213.36
569.6783, 15168.81
570.1605, 15120.04
570.6426, 15074.46
571.1247, 15048.81
571.6068, 15055.32
572.0889, 15084.70
572.5710, 15115.53
573.0532, 15158.62
573.5353, 15168.71
574.0174, 15096.87
574.4995, 15032.40
574.9816, 15048.95
575.4637, 15118.79
575.9459, 15148.15
576.4280, 15077.67
576.9101, 14991.50
577.3922, 14959.93
577.8743, 14968.24
578.3564, 14980.67
578.8386, 14988.54
579.3207, 14998.41
579.8028, 15019.43
580.2849, 15051.12
580.7670, 15061.26
581.2491, 15021.91
581.7313, 14994.93
582.2134, 15005.63
582.6955, 15021.04
583.1776, 15004.78
583.6597, 14957.16
584.1418, 14915.28
584.6240, 14915.54
585.1061, 14935.84
585.5882, 14924.27
586.0703, 14881.27
586.5524, 14847.31
587.0345, 14833.89
587.5167, 14842.72
587.9988, 14885.97
588.4809, 14978.14
588.9630, 15025.24
589.4451, 14997.96
589.9272, 14953.99
590.4094, 14908.12
590.8915, 14867.15
591.3736, 14839.68
591.8557, 14827.83
592.3378, 14823.74
592.8199, 14817.20
593.3021, 14809.01
593.7842, 14811.00
594.2663, 14825.06
594.7484, 14844.70
595.2305, 14877.54
595.7126, 14908.08
596.1948, 14907.51
596.6769, 14865.95
597.1590, 14836.39
597.6411, 14835.65
598.1232, 14851.53
598.6053, 14885.20
599.0875, 14926.52
599.5696, 14948.07
600.0517, 14936.11
600.5338, 14911.80
601.0159, 14915.39
601.4980, 14953.68
601.9802, 14985.06
602.4623, 15015.05
602.9444, 15028.45
603.4265, 15003.44
603.9086, 14962.94
604.3907, 14945.67
604.8729, 14964.28
605.3550, 14986.18
605.8371, 14990.45
606.3192, 14988.43
606.8013, 15001.52
607.2834, 15027.49
607.7656, 15037.56
608.2477, 15010.86
608.7298, 14967.35
609.2119, 14965.52
609.6940, 15036.53
610.1761, 15077.24
610.6583, 15059.54
611.1404, 15034.14
611.6225, 15029.57
612.1046, 15033.01
612.5867, 15013.40
613.0688, 14953.20
613.5510, 14889.20
614.0331, 14855.48
614.5152, 14840.66
614.9973, 14821.03
615.4794, 14793.08
615.9615, 14757.15
616.4437, 14710.85
616.9258, 14659.89
617.4079, 14628.77
617.8900, 14629.86
618.3721, 14631.31
618.8542, 14641.18
619.3364, 14642.83
619.8185, 14618.64
620.3006, 14578.38
620.7827, 14546.16
621.2648, 14533.50
621.7469, 14531.76
622.2291, 14540.85
622.7112, 14553.53
623.1933, 14539.96
623.6754, 14493.45
624.1575, 14438.69
624.6396, 14389.89
625.1218, 14350.01
625.6039, 14336.30
626.0860, 14386.52
626.5681, 14411.45
627.0502, 14386.10
627.5323, 14351.84
628.0145, 14337.58
628.4966, 14340.25
628.9787, 14340.55
629.4608, 14324.68
629.9429, 14311.80
630.4250, 14338.65
630.9072, 14395.19
631.3893, 14425.01
631.8714, 14416.02
632.3535, 14390.73
632.8356, 14362.20
633.3177, 14332.60
633.7999, 14316.59
634.2820, 14332.53
634.7641, 14335.97
635.2462, 14306.07
635.7283, 14276.29
636.2104, 14279.01
636.6926, 14304.90
637.1747, 14315.19
637.6568, 14282.06
638.1389, 14243.50
638.6210, 14267.13
639.1031, 14341.64
639.5853, 14385.59
640.0674, 14382.19
640.5495, 14362.76
641.0316, 14348.41
641.5137, 14338.63
641.9958, 14330.62
642.4780, 14319.14
642.9601, 14316.61
643.4422, 14332.87
643.9243, 14351.17
644.4064, 14358.53
644.8885, 14356.88
645.3707, 14354.78
645.8528, 14355.97
646.3349, 14361.04
646.8170, 14373.16
647.2991, 14390.72
647.7813, 14403.72
648.2634, 14410.19
648.7455, 14414.58
649.2276, 14419.05
649.7097, 14424.30
650.1918, 14433.57
650.6740, 14459.21
651.1561, 14470.25
651.6382, 14440.92
652.1203, 14417.86
652.6024, 14437.31
653.0845, 14488.25
653.5667, 14539.36
654.0488, 14575.87
654.5309, 14609.34
655.0130, 14655.83
655.4951, 14711.52
655.9772, 14759.62
656.4594, 14797.85
656.9415, 14834.15
657.4236, 14872.54
657.9057, 14913.37
658.3878, 14957.37
658.8699, 15002.70
659.3521, 15055.40
659.8342, 15104.92
660.3163, 15172.26
660.7984, 15272.92
661.2805, 15398.68
661.7626, 15533.70
662.2448, 15672.68
662.7269, 15814.26
663.2090, 15961.54
663.6911, 16108.42
664.1732, 16230.89
664.6553, 16327.86
665.1375, 16453.19
665.6196, 16638.66
666.1017, 16861.30
666.5838, 17074.35
667.0659, 17265.74
667.5480, 17479.88
668.0302, 17724.93
668.5123, 17981.76
668.9944, 18246.87
669.4765, 18518.92
669.9586, 18805.09
670.4407, 19107.60
670.9229, 19396.26
671.4050, 19647.61
671.8871, 19875.51
672.3692, 20104.05
672.8513, 20332.30
673.3334, 20561.62
673.8156, 20794.82
674.2977, 21002.20
674.7798, 21141.98
675.2619, 21212.76
675.7440, 21224.43
676.2261, 21195.25
676.7083, 21076.92
677.1904, 20820.47
677.6725, 20499.76
678.1546, 20182.71
678.6367, 19876.80
679.1188, 19556.69
679.6010, 19205.66
680.0831, 18840.37
680.5652, 18454.04
681.0473, 18070.21
681.5294, 17757.81
682.0115, 17531.63
682.4937, 17319.51
682.9758, 17042.37
683.4579, 16714.58
683.9400, 16464.24
684.4221, 16315.15
684.9042, 16182.99
685.3864, 16066.82
685.8685, 15945.78
686.3506, 15791.06
686.8327, 15613.31
687.3148, 15462.43
687.7969, 15355.84
688.2791, 15270.90
688.7612, 15210.06
689.2433, 15156.85
689.7254, 15086.29
690.2075, 14999.55
690.6896, 14919.34
691.1718, 14860.66
691.6539, 14817.61
692.1360, 14778.00
692.6181, 14741.46
693.1002, 14713.76
693.5823, 14697.80
694.0645, 14685.85
694.5466, 14672.64
695.0287, 14659.70
695.5108, 14652.35
695.9929, 14656.31
696.4750, 14653.83
696.9572, 14640.46
697.4393, 14621.33
697.9214, 14597.39
698.4035, 14571.02
698.8856, 14545.41
699.3677, 14521.87
699.8499, 14500.51
700.3320, 14482.84
700.8141, 14467.35
701.2962, 14448.79
701.7783, 14426.78
702.2604, 14404.97
702.7426, 14385.09
703.2247, 14365.97
703.7068, 14346.59
704.1889, 14329.19
704.6710, 14300.46
705.1531, 14237.91
705.6353, 14191.69
706.1174, 14188.02
706.5995, 14198.53
707.0816, 14197.32
707.5637, 14180.03
708.0458, 14150.12
708.5280, 14105.27
709.0101, 14052.16
709.4922, 13977.78
709.9743, 13903.15
710.4564, 13901.03
710.9385, 13982.33
711.4207, 14048.90
711.9028, 14007.27
712.3849, 13880.94
712.8670, 13791.69
713.3491, 13746.04
713.8312, 13717.37
714.3134, 13713.20
714.7955, 13711.66
715.2776, 13694.25
715.7597, 13667.30
716.2418, 13649.38
716.7239, 13651.72
717.2061, 13646.08
717.6882, 13608.92
718.1703, 13569.71
718.6524, 13558.42
719.1345, 13569.64
719.6166, 13585.31
720.0988, 13597.60
720.5809, 13597.01
721.0630, 13558.37
721.5451, 13491.30
722.0272, 13464.71
722.5093, 13487.71
722.9915, 13494.63
723.4736, 13448.22
723.9557, 13381.88
724.4378, 13351.84
724.9199, 13366.80
725.4020, 13379.55
725.8842, 13400.30
726.3663, 13406.58
726.8484, 13378.73
727.3305, 13341.59
727.8126, 13320.55
728.2947, 13318.00
728.7769, 13320.95
729.2590, 13328.50
729.7411, 13332.29
730.2232, 13319.28
730.7053, 13296.41
731.1874, 13280.98
731.6696, 13275.76
732.1517, 13269.23
732.6338, 13250.50
733.1159, 13226.70
733.5980, 13224.03
734.0801, 13247.23
734.5623, 13273.25
735.0444, 13313.11
735.5265, 13334.58
736.0086, 13298.69
736.4907, 13233.58
736.9728, 13201.17
737.4550, 13214.97
737.9371, 13232.91
738.4192, 13249.19
738.9013, 13262.83
739.3834, 13277.17
739.8655, 13287.16
740.3477, 13278.41
740.8298, 13248.10
741.3119, 13223.12
741.7940, 13238.57
742.2761, 13276.19
742.7582, 13288.74
743.2404, 13278.24
743.7225, 13272.13
744.2046, 13280.21
744.6867, 13288.51
745.1688, 13280.37
745.6509, 13256.90
746.1331, 13243.85
746.6152, 13250.82
747.0973, 13251.26
747.5793, 13228.35
748.0615, 13209.45
748.5436, 13220.57
749.0257, 13250.17
749.5078, 13262.24
749.9899, 13241.78
750.4720, 13215.56
750.9542, 13208.32
751.4363, 13193.69
751.9184, 13123.58
752.4005, 13020.21
752.8826, 12959.68
753.3647, 12977.09
753.8469, 13018.00
754.3290, 13006.76
754.8111, 12953.40
755.2932, 12920.77
755.7753, 12911.71
756.2574, 12904.02
756.7396, 12886.90
757.2217, 12873.41
757.7038, 12886.20
758.1859, 12929.75
758.6680, 12936.93
759.1501, 12875.29
759.6323, 12818.48
760.1144, 12775.15
760.5965, 12742.37
761.0786, 12718.65
761.5607, 12703.15
762.0428, 12694.63
762.5250, 12696.75
763.0071, 12698.00
763.4892, 12689.39
763.9713, 12676.16
764.4534, 12665.48
764.9355, 12657.17
765.4177, 12645.78
765.8998, 12628.23
766.3819, 12612.29
766.8640, 12613.61
767.3461, 12630.10
767.8282, 12636.13
768.3104, 12630.60
768.7925, 12616.54
769.2746, 12592.17
769.7567, 12565.27
770.2388, 12546.82
770.7209, 12537.68
771.2031, 12528.12
771.6852, 12510.18
772.1673, 12502.51
772.6494, 12513.35
773.1315, 12531.63
773.6136, 12557.00
774.0958, 12582.58
774.5779, 12586.42
775.0600, 12548.72
775.5421, 12511.83
776.0242, 12506.82
776.5063, 12517.51
776.9885, 12524.96
777.4706, 12527.33
777.9527, 12527.98
778.4348, 12528.51
778.9169, 12527.75
779.3990, 12519.51
779.8812, 12506.49
780.3633, 12516.28
780.8454, 12552.40
781.3275, 12579.51
781.8096, 12583.01
782.2917, 12576.37
782.7739, 12576.78
783.2560, 12584.58
783.7381, 12579.25
784.2202, 12542.94
784.7023, 12518.81
785.1844, 12509.52
785.6666, 12515.84
786.1487, 12552.15
786.6308, 12603.89
787.1129, 12630.91
787.5950, 12614.71
788.0771, 12593.48
788.5593, 12582.12
789.0414, 12578.76
789.5235, 12589.50
790.0056, 12605.58
790.4877, 12606.25
790.9698, 12584.23
791.4520, 12551.75
791.9341, 12517.83
792.4162, 12485.25
792.8983, 12461.54
793.3804, 12446.80
793.8625, 12448.28
794.3447, 12471.38
794.8268, 12489.29
795.3089, 12476.39
795.7910, 12435.97
796.2731, 12386.89
796.7552, 12309.75
797.2374, 12268.24
797.7195, 12296.38
798.2016, 12328.57
798.6837, 12333.91
799.1658, 12317.58
799.6479, 12282.49
800.1301, 12217.96
800.6122, 12182.35
801.0943, 12223.41
801.5764, 12265.23
802.0585, 12252.48
802.5406, 12214.34
803.0228, 12197.40
803.5049, 12209.01
803.9870, 12219.90
804.4691, 12209.32
804.9512, 12187.17
805.4333, 12166.40
805.9155, 12145.29
806.3976, 12112.78
806.8797, 12069.71
807.3618, 12044.64
807.8439, 12058.57
808.3260, 12090.38
808.8082, 12091.55
809.2903, 12057.98
809.7724, 12034.68
810.2545, 12022.17
810.7366, 12022.83
811.2188, 12044.87
811.7009, 12072.80
812.1830, 12086.82
812.6651, 12086.42
813.1472, 12074.97
813.6293, 12035.03
814.1115, 12007.78
814.5936, 12014.58
815.0757, 12025.98
815.5578, 12015.96
816.0399, 11990.25
816.5220, 11970.79
817.0042, 11962.96
817.4863, 11966.75
817.9684, 11998.01
818.4505, 12028.78
818.9326, 12029.86
819.4147, 12004.96
819.8969, 11961.64
820.3790, 11905.01
820.8611, 11858.62
821.3432, 11847.80
821.8253, 11864.34
822.3074, 11898.75
822.7896, 11945.72
823.2717, 11959.76
823.7538, 11928.65
824.2359, 11890.86
824.7180, 11875.03
825.2001, 11878.74
825.6823, 11900.37
826.1644, 11955.21
826.6465, 11966.67
827.1286, 11905.00
827.6107, 11848.00
828.0928, 11836.40
828.5750, 11848.57
829.0571, 11854.90
829.5392, 11856.60
830.0213, 11843.05
830.5034, 11784.28
830.9855, 11747.31
831.4677, 11783.03
831.9498, 11826.01
832.4319, 11807.93
832.9140, 11741.24
833.3961, 11689.43
833.8782, 11677.82
834.3604, 11681.91
834.8425, 11687.44
835.3246, 11698.12
835.8067, 11721.09
836.2888, 11752.80
836.7709, 11786.45
837.2531, 11818.81
837.7352, 11841.76
838.2173, 11847.19
838.6994, 11836.96
839.1815, 11809.63
839.6636, 11768.59
840.1458, 11739.36
840.6279, 11727.77
841.1100, 11722.36
841.5921, 11714.52
842.0742, 11706.49
842.5563, 11705.02
843.0385, 11711.78
843.5206, 11718.30
844.0027, 11728.26
844.4848, 11728.99
844.9669, 11713.45
845.4490, 11687.18
845.9312, 11651.93
846.4133, 11605.08
846.8954, 11585.66
847.3775, 11628.46
847.8596, 11650.91
848.3417, 11609.71
848.8239, 11567.31
849.3060, 11578.72
849.7881, 11625.93
850.2702, 11656.35
850.7523, 11654.24
851.2344, 11643.44
851.7166, 11630.79
852.1987, 11618.35
852.6808, 11606.13
853.1629, 11596.17
853.6450, 11592.13
854.1271, 11594.42
854.6093, 11599.86
855.0914, 11608.18
855.5735, 11615.27
856.0556, 11616.90
856.5377, 11612.26
857.0198, 11592.53
857.5020, 11560.53
857.9841, 11546.68
858.4662, 11568.97
858.9483, 11600.71
859.4304, 11594.01
859.9125, 11552.04
860.3947, 11532.54
860.8768, 11537.48
861.3589, 11549.43
861.8410, 11566.45
862.3231, 11578.30
862.8052, 11572.84
863.2874, 11554.31
863.7695, 11548.95
864.2516, 11569.97
864.7337, 11573.21
865.2158, 11538.95
865.6979, 11509.41
866.1801, 11506.57
866.6622, 11520.03
867.1443, 11538.86
867.6264, 11564.30
868.1085, 11579.91
868.5906, 11576.70
869.0728, 11572.45
869.5549, 11578.15
870.0370, 11580.90
870.5191, 11558.83
871.0012, 11523.82
871.4833, 11515.03
871.9655, 11552.40
872.4476, 11591.31
872.9297, 11611.68
873.4118, 11617.01
873.8939, 11602.40
874.3760, 11578.04
874.8582, 11561.25
875.3403, 11556.26
875.8224, 11556.10
876.3045, 11553.32
876.7866, 11556.14
877.2687, 11592.57
877.7509, 11640.97
878.2330, 11633.03
878.7151, 11570.91
879.1972, 11524.13
879.6793, 11528.56
880.1614, 11552.65
880.6436, 11547.28
881.1257, 11519.35
881.6078, 11520.11
882.0899, 11550.74
882.5720, 11583.90
883.0541, 11616.76
883.5363, 11625.71
884.0184, 11584.06
884.5005, 11511.55
884.9826, 11478.04
885.4647, 11495.21
885.9468, 11507.90
886.4290, 11509.36
886.9111, 11518.70
887.3932, 11556.39
887.8753, 11593.53
888.3574, 11588.46
888.8395, 11539.64
889.3217, 11504.56
889.8038, 11494.87
890.2859, 11481.53
890.7680, 11451.44
891.2501, 11426.79
891.7322, 11430.48
892.2144, 11446.16
892.6965, 11440.42
893.1786, 11405.08
893.6607, 11372.55
894.1428, 11346.82
894.6249, 11332.29
895.1071, 11339.19
895.5892, 11352.81
896.0713, 11357.03
896.5534, 11352.09
897.0355, 11348.18
897.5176, 11351.08
897.9998, 11350.73
898.4819, 11335.67
898.9640, 11317.05
899.4461, 11308.45
899.9282, 11306.14
900.4103, 11302.01
900.8925, 11293.17
901.3746, 11277.19
901.8567, 11247.02
902.3388, 11217.13
902.8209, 11211.95
903.3030, 11223.14
903.7852, 11229.91
904.2673, 11230.90
904.7494, 11236.55
905.2315, 11251.76
905.7136, 11263.38
906.1957, 11249.55
906.6779, 11218.99
907.1600, 11211.31
907.6421, 11224.94
908.1242, 11234.99
908.6063, 11236.46
909.0884, 11229.63
909.5706, 11213.87
910.0527, 11192.38
910.5348, 11169.90
911.0169, 11144.89
911.4990, 11135.76
911.9811, 11145.93
912.4633, 11159.27
912.9454, 11173.70
913.4275, 11183.41
913.9096, 11183.75
914.3917, 11174.23
914.8738, 11150.45
915.3560, 11098.81
915.8381, 11064.72
916.3202, 11054.98
916.8023, 11055.26
917.2844, 11063.73
917.7665, 11075.93
918.2487, 11090.09
918.7308, 11106.92
919.2129, 11103.35
919.6950, 11054.05
920.1771, 11020.38
920.6592, 11027.73
921.1414, 11036.10
921.6235, 11014.26
922.1056, 10979.00
922.5877, 10962.91
923.0698, 10972.12
923.5519, 10982.50
924.0341, 10994.48
924.5162, 10998.66
924.9983, 10980.51
925.4804, 10961.21
925.9625, 10967.47
926.4446, 10989.98
926.9268, 10993.91
927.4089, 10963.14
927.8910, 10940.43
928.3731, 10968.27
928.8552, 10992.36
929.3373, 10945.74
929.8195, 10880.76
930.3016, 10888.48
930.7837, 10965.33
931.2658, 11023.20
931.7479, 11013.55
932.2300, 10981.19
932.7122, 10953.50
933.1943, 10933.80
933.6764, 10930.78
934.1585, 10938.51
934.6406, 10945.46
935.1227, 10947.32
935.6049, 10940.12
936.0870, 10917.48
936.5691, 10890.55
937.0512, 10869.33
937.5333, 10857.82
938.0154, 10874.62
938.4976, 10911.86
938.9797, 10930.38
939.4618, 10915.18
939.9439, 10887.12
940.4260, 10866.74
940.9081, 10850.90
941.3903, 10829.79
941.8724, 10806.01
942.3545, 10790.32
942.8366, 10784.67
943.3187, 10792.71
943.8008, 10816.96
944.2830, 10847.48
944.7651, 10873.89
945.2471, 10893.44
945.7292, 10885.78
946.2114, 10851.71
946.6935, 10814.71
947.1756, 10778.55
947.6577, 10761.78
948.1398, 10780.16
948.6219, 10814.09
949.1041, 10821.55
949.5862, 10801.62
950.0683, 10801.40
950.5504, 10825.05
951.0325, 10836.49
951.5146, 10823.37
951.9968, 10807.27
952.4789, 10806.67
952.9610, 10815.25
953.4431, 10814.67
953.9252, 10804.51
954.4073, 10784.57
954.8895, 10747.46
955.3716, 10724.40
955.8537, 10727.64
956.3358, 10745.82
956.8179, 10774.86
957.3000, 10807.61
957.7822, 10804.05
958.2643, 10737.38
958.7464, 10712.05
959.2285, 10764.86
959.7106, 10791.45
960.1927, 10730.07
960.6749, 10649.71
961.1570, 10631.86
961.6391, 10670.56
962.1212, 10692.47
962.6033, 10686.35
963.0854, 10684.64
963.5676, 10692.28
964.0497, 10699.73
964.5318, 10700.58
965.0139, 10700.55
965.4960, 10711.50
965.9781, 10733.58
966.4603, 10736.40
966.9424, 10699.01
967.4245, 10673.80
967.9066, 10672.74
968.3887, 10675.58
968.8708, 10673.49
969.3530, 10668.42
969.8351, 10660.03
970.3172, 10647.58
970.7993, 10651.11
971.2814, 10689.31
971.7635, 10719.42
972.2457, 10738.98
972.7278, 10742.83
973.2099, 10706.64
973.6920, 10661.47
974.1741, 10672.39
974.6563, 10752.02
975.1384, 10783.62
975.6205, 10696.51
976.1026, 10628.09
976.5847, 10630.29
977.0668, 10651.12
977.5490, 10656.39
978.0311, 10651.01
978.5132, 10645.41
978.9953, 10639.35
979.4774, 10653.55
979.9595, 10727.39
980.4417, 10777.81
980.9238, 10749.27
981.4059, 10707.17
981.8880, 10700.99
982.3701, 10725.35
982.8522, 10763.25
983.3344, 10814.10
983.8165, 10854.17
984.2986, 10875.96
984.7807, 10885.11
985.2628, 10866.32
985.7449, 10850.72
986.2271, 10876.04
986.7092, 10926.11
987.1913, 10955.45
987.6734, 10950.04
988.1555, 10949.98
988.6376, 10984.77
989.1198, 11010.86
989.6019, 10986.31
990.0840, 10958.13
990.5661, 10980.22
991.0482, 11038.55
991.5303, 11087.24
992.0125, 11116.33
992.4946, 11125.48
992.9767, 11090.28
993.4588, 11063.79
993.9409, 11089.25
994.4230, 11128.39
994.9052, 11137.67
995.3873, 11124.52
995.8694, 11127.75
996.3515, 11165.04
996.8336, 11170.65
997.3157, 11076.64
997.7979, 10987.21
998.2800, 10982.73
998.7621, 11001.56
999.2442, 10974.00
999.7263, 10908.28
1000.208, 10847.90
1000.691, 10803.95
1001.173, 10775.44
1001.655, 10777.92
1002.137, 10777.53
1002.619, 10741.62
1003.101, 10701.28
1003.583, 10696.89
1004.065, 10717.92
1004.547, 10719.93
1005.030, 10685.15
1005.512, 10667.29
1005.994, 10715.57
1006.476, 10758.53
1006.958, 10737.44
1007.440, 10701.08
1007.922, 10713.81
1008.404, 10757.40
1008.887, 10762.25
1009.369, 10702.95
1009.851, 10651.23
1010.333, 10643.17
1010.815, 10644.88
1011.297, 10636.53
1011.779, 10628.83
1012.261, 10640.92
1012.743, 10662.49
1013.226, 10659.15
1013.708, 10616.39
1014.190, 10596.02
1014.672, 10639.79
1015.154, 10691.47
1015.636, 10733.11
1016.118, 10760.09
1016.600, 10767.14
1017.083, 10756.98
1017.565, 10729.52
1018.047, 10680.39
1018.529, 10656.97
1019.011, 10706.78
1019.493, 10746.71
1019.975, 10725.86
1020.457, 10691.18
1020.939, 10679.89
1021.422, 10689.37
1021.904, 10707.80
1022.386, 10733.76
1022.868, 10758.86
1023.350, 10798.66
1023.832, 10813.00
1024.314, 10759.11
1024.796, 10700.39
1025.279, 10689.89
1025.761, 10709.39
1026.243, 10716.16
1026.725, 10702.88
1027.207, 10700.45
1027.689, 10735.30
1028.171, 10754.43
1028.653, 10730.63
1029.135, 10698.30
1029.618, 10674.36
1030.100, 10660.48
1030.582, 10658.66
1031.064, 10669.27
1031.546, 10683.43
1032.028, 10704.15
1032.510, 10722.14
1032.992, 10725.60
1033.474, 10736.87
1033.957, 10782.47
1034.439, 10835.98
1034.921, 10855.49
1035.403, 10839.36
1035.885, 10830.05
1036.367, 10832.45
1036.849, 10838.05
1037.331, 10852.44
1037.814, 10862.60
1038.296, 10860.67
1038.778, 10852.87
1039.260, 10844.52
1039.742, 10836.10
1040.224, 10834.11
1040.706, 10854.58
1041.188, 10849.65
1041.671, 10783.54
1042.153, 10747.47
1042.635, 10803.47
1043.117, 10871.83
1043.599, 10862.25
1044.081, 10791.98
1044.563, 10758.62
1045.045, 10783.87
1045.527, 10785.75
1046.010, 10747.15
1046.492, 10723.40
1046.974, 10731.12
1047.456, 10764.45
1047.938, 10832.66
1048.420, 10911.49
1048.902, 10915.80
1049.384, 10823.06
1049.866, 10778.47
1050.349, 10795.51
1050.831, 10803.69
1051.313, 10778.00
1051.795, 10765.07
1052.277, 10802.39
1052.759, 10869.46
1053.241, 10923.94
1053.723, 10965.78
1054.205, 10999.79
1054.688, 11025.56
1055.170, 11045.39
1055.652, 11058.65
1056.134, 11079.12
1056.616, 11117.81
1057.098, 11151.75
1057.580, 11137.15
1058.062, 11088.31
1058.545, 11091.46
1059.027, 11141.63
1059.509, 11180.44
1059.991, 11199.19
1060.473, 11199.83
1060.955, 11183.10
1061.437, 11152.94
1061.919, 11108.80
1062.401, 11061.13
1062.884, 11045.30
1063.366, 11047.37
1063.848, 11016.13
1064.330, 10950.59
1064.812, 10869.09
1065.294, 10780.07
1065.776, 10701.65
1066.258, 10649.27
1066.740, 10614.86
1067.223, 10592.39
1067.705, 10575.89
1068.187, 10560.86
1068.669, 10540.51
1069.151, 10490.74
1069.633, 10413.54
1070.115, 10351.72
1070.597, 10332.36
1071.080, 10328.98
1071.562, 10315.40
1072.044, 10305.48
1072.526, 10331.20
1073.008, 10363.11
1073.490, 10350.72
1073.972, 10295.56
1074.454, 10229.58
1074.937, 10162.35
1075.419, 10105.54
1075.901, 10057.39
1076.383, 10031.91
1076.865, 10066.02
1077.347, 10105.39
1077.829, 10081.85
1078.311, 10019.05
1078.793, 9985.960
1079.276, 9998.188
1079.758, 10001.56
1080.240, 9969.479
1080.722, 9938.876
1081.204, 9914.392
1081.686, 9903.529
1082.168, 9919.339
1082.650, 9947.760
1083.132, 9972.480
1083.615, 9991.708
1084.097, 9991.418
1084.579, 9957.981
1085.061, 9924.728
1085.543, 9890.983
1086.025, 9860.876
1086.507, 9835.385
1086.989, 9814.537
1087.472, 9799.141
1087.954, 9788.390
1088.436, 9778.784
1088.918, 9769.520
1089.400, 9765.101
1089.882, 9769.719
1090.364, 9764.308
1090.846, 9736.681
1091.328, 9722.094
1091.811, 9754.588
1092.293, 9798.599
1092.775, 9773.189
1093.257, 9683.114
1093.739, 9658.801
1094.221, 9703.313
1094.703, 9734.452
1095.185, 9739.086
1095.667, 9723.519
1096.150, 9688.752
1096.632, 9662.861
1097.114, 9686.393
1097.596, 9734.495
1098.078, 9734.615
1098.560, 9700.780
1099.042, 9692.495
1099.524, 9707.198
1100.007, 9700.010
1100.489, 9660.559
1100.971, 9628.231
1101.453, 9635.069
1101.935, 9651.906
1102.417, 9630.658
1102.899, 9604.894
1103.381, 9644.436
1103.864, 9710.693
1104.346, 9717.662
1104.828, 9666.497
1105.310, 9622.175
1105.792, 9611.868
1106.274, 9609.018
1106.756, 9602.070
1107.238, 9589.743
1107.720, 9558.706
1108.203, 9532.420
1108.685, 9544.945
1109.167, 9577.597
1109.649, 9586.080
1110.131, 9562.822
1110.613, 9547.934
1111.095, 9562.576
1111.577, 9571.154
1112.059, 9565.168
1112.542, 9551.508
1113.024, 9515.773
1113.506, 9486.954
1113.988, 9509.238
1114.470, 9572.080
1114.952, 9615.522
1115.434, 9643.954
1115.916, 9637.521
1116.399, 9569.704
1116.881, 9530.492
1117.363, 9554.948
1117.845, 9586.947
1118.327, 9587.190
1118.809, 9567.287
1119.291, 9545.863
1119.773, 9524.066
1120.255, 9533.275
1120.738, 9575.041
1121.220, 9592.982
1121.702, 9579.343
1122.184, 9551.759
1122.666, 9517.060
1123.148, 9505.858
1123.630, 9560.523
1124.112, 9636.949
1124.594, 9630.689
1125.077, 9572.939
1125.559, 9548.538
1126.041, 9553.315
1126.523, 9553.975
1127.005, 9543.763
1127.487, 9538.545
1127.969, 9549.667
1128.451, 9549.327
1128.934, 9485.697
1129.416, 9425.757
1129.898, 9455.469
1130.380, 9515.188
1130.862, 9528.998
1131.344, 9502.923
1131.826, 9472.913
1132.308, 9447.612
1132.791, 9426.051
1133.273, 9409.655
1133.755, 9393.993
1134.237, 9367.521
1134.719, 9352.816
1135.201, 9378.712
1135.683, 9412.962
1136.165, 9412.494
1136.647, 9382.416
1137.130, 9361.345
1137.612, 9345.673
1138.094, 9351.618
1138.576, 9398.574
1139.058, 9420.571
1139.540, 9395.988
1140.022, 9358.647
1140.504, 9327.257
1140.986, 9303.352
1141.469, 9287.835
1141.951, 9282.171
1142.433, 9310.165
1142.915, 9368.908
1143.397, 9365.497
1143.879, 9295.147
1144.361, 9240.842
1144.843, 9231.632
1145.326, 9243.812
1145.808, 9261.508
1146.290, 9275.848
1146.772, 9268.602
1147.254, 9251.949
1147.736, 9250.642
1148.218, 9256.785
1148.700, 9248.011
1149.182, 9227.319
1149.665, 9217.619
1150.147, 9227.537
1150.629, 9245.065
1151.111, 9271.498
1151.593, 9292.221
1152.075, 9297.072
1152.557, 9294.026
1153.039, 9293.210
1153.521, 9286.840
1154.004, 9254.941
1154.486, 9201.419
1154.968, 9169.964
1155.450, 9181.117
1155.932, 9182.384
1156.414, 9156.325
1156.896, 9148.632
1157.378, 9190.490
1157.861, 9218.409
1158.343, 9179.410
1158.825, 9111.433
1159.307, 9084.509
1159.789, 9096.149
1160.271, 9118.910
1160.753, 9153.557
1161.235, 9159.215
1161.718, 9132.017
1162.200, 9104.429
1162.682, 9088.247
1163.164, 9078.288
1163.646, 9070.313
1164.128, 9066.212
1164.610, 9068.826
1165.092, 9077.358
1165.574, 9100.846
1166.057, 9124.545
1166.539, 9109.879
1167.021, 9065.341
1167.503, 9034.573
1167.985, 9032.198
1168.467, 9039.031
1168.949, 9046.215
1169.431, 9056.725
1169.913, 9080.442
1170.396, 9099.087
1170.878, 9103.594
1171.360, 9092.599
1171.842, 9051.780
1172.324, 8991.998
1172.806, 8972.372
1173.288, 9012.617
1173.770, 9039.309
1174.253, 9054.077
1174.735, 9049.410
1175.217, 9014.082
1175.699, 8984.665
1176.181, 8982.442
1176.663, 8994.123
1177.145, 9004.611
1177.627, 9011.203
1178.109, 8998.438
1178.592, 8970.212
1179.074, 8957.644
1179.556, 8960.329
1180.038, 8963.165
1180.520, 8962.574
1181.002, 8962.427
1181.484, 8964.623
1181.966, 8972.192
1182.448, 8998.819
1182.931, 9021.489
1183.413, 9015.479
1183.895, 8990.665
1184.377, 8948.318
1184.859, 8901.779
1185.341, 8870.729
1185.823, 8858.950
1186.305, 8865.362
1186.788, 8905.913
1187.270, 8929.699
1187.752, 8910.300
1188.234, 8895.416
1188.716, 8899.798
1189.198, 8914.706
1189.680, 8937.741
1190.162, 8964.552
1190.645, 8989.744
1191.127, 9012.262
1191.609, 9014.552
1192.091, 8995.498
1192.573, 8971.877
1193.055, 8945.026
1193.537, 8915.523
1194.019, 8884.093
1194.501, 8870.392
1194.984, 8891.768
1195.466, 8912.827
1195.948, 8868.816
1196.430, 8807.216
1196.912, 8810.004
1197.394, 8846.144
1197.876, 8868.011
1198.358, 8873.644
1198.840, 8876.065
1199.323, 8877.589
1199.805, 8867.304
1200.287, 8822.407
1200.769, 8804.518
1201.251, 8866.739
1201.733, 8917.759
1202.215, 8904.631
1202.697, 8876.818
1203.180, 8878.117
1203.662, 8890.066
1204.144, 8875.052
1204.626, 8834.157
1205.108, 8818.520
1205.590, 8833.321
1206.072, 8830.634
1206.554, 8805.443
1207.036, 8788.697
1207.519, 8790.197
1208.001, 8790.420
1208.483, 8774.581
1208.965, 8756.989
1209.447, 8755.908
1209.929, 8767.282
1210.411, 8801.101
1210.893, 8831.797
1211.375, 8798.865
1211.858, 8730.759
1212.340, 8708.687
1212.822, 8743.495
1213.304, 8771.488
1213.786, 8768.906
1214.268, 8758.365
1214.750, 8730.420
1215.232, 8717.898
1215.715, 8745.095
1216.197, 8780.390
1216.679, 8808.817
1217.161, 8825.811
1217.643, 8822.029
1218.125, 8800.081
1218.607, 8786.182
1219.089, 8782.293
1219.572, 8746.002
1220.054, 8675.807
1220.536, 8657.178
1221.018, 8708.238
1221.500, 8758.756
1221.982, 8768.087
1222.464, 8757.300
1222.946, 8743.804
1223.428, 8730.141
1223.911, 8718.537
1224.393, 8709.602
1224.875, 8704.793
1225.357, 8702.879
1225.839, 8707.082
1226.321, 8712.852
1226.803, 8696.445
1227.285, 8639.050
1227.767, 8610.632
1228.250, 8649.188
1228.732, 8677.611
1229.214, 8678.476
1229.696, 8674.263
1230.178, 8674.441
1230.660, 8676.554
1231.142, 8677.646
1231.624, 8678.952
1232.107, 8686.528
1232.589, 8698.510
1233.071, 8698.583
1233.553, 8688.074
1234.035, 8670.819
1234.517, 8651.017
1234.999, 8648.018
1235.481, 8666.866
1235.964, 8675.288
1236.446, 8644.900
1236.928, 8610.772
1237.410, 8596.932
1237.892, 8590.954
1238.374, 8587.173
1238.856, 8583.299
1239.338, 8574.627
1239.820, 8565.173
1240.302, 8567.800
1240.785, 8583.038
1241.267, 8584.836
1241.749, 8564.883
1242.231, 8563.526
1242.713, 8589.753
1243.195, 8591.608
1243.677, 8551.015
1244.159, 8526.477
1244.641, 8559.306
1245.124, 8599.405
1245.606, 8590.306
1246.088, 8531.991
##END=



