##NAMES=Ferrilotharmeyerite
##RRUFFID=R060209
##IDEAL CHEMISTRY=CaZn^2+^Fe^3+^(As^5+^O_4_)_2_(OH)&#183;H_2_O
##LOCALITY=Tsumeb mine, Tsumeb, Otavi District, Oshikoto, Namibia
##OWNER=RRUFF
##SOURCE=William W. Pinch
##DESCRIPTION=Yellowish-green rectangular prisms
##STATUS=The identification of this mineral has been confirmed by single-crystal X-ray diffraction.
##URL=rruff.info/R060209
91.82715, 124.9715
92.30927, 124.4115
92.79138, 124.6184
93.27350, 124.4905
93.75562, 123.8783
94.23773, 123.0724
94.71985, 122.2664
95.20197, 121.2459
95.68408, 119.9266
96.16620, 118.4817
96.64832, 117.1832
97.13043, 116.1283
97.61255, 115.0990
98.09467, 113.6468
98.57678, 111.3559
99.05890, 109.5437
99.54102, 109.2703
100.0231, 109.6212
100.5052, 109.7089
100.9874, 109.0622
101.4695, 107.8301
101.9516, 106.8338
102.4337, 106.1203
102.9158, 105.5848
103.3979, 105.2968
103.8801, 105.1649
104.3622, 105.0228
104.8443, 104.7172
105.3264, 104.2040
105.8085, 104.0349
106.2906, 104.4213
106.7728, 104.8691
107.2549, 105.1464
107.7370, 105.2181
108.2191, 105.1050
108.7012, 104.7056
109.1833, 103.9788
109.6655, 103.6567
110.1476, 104.2215
110.6297, 105.1484
111.1118, 105.5558
111.5939, 105.0521
112.0760, 104.4492
112.5582, 104.6989
113.0403, 105.7190
113.5224, 106.7794
114.0045, 107.3359
114.4866, 107.4236
114.9687, 107.7470
115.4509, 108.8112
115.9330, 109.8854
116.4151, 110.4476
116.8972, 110.4338
117.3793, 110.2805
117.8614, 110.6000
118.3436, 111.6334
118.8257, 112.5621
119.3078, 112.9854
119.7899, 113.4434
120.2720, 114.4879
120.7541, 116.3262
121.2363, 118.5784
121.7184, 120.1713
122.2005, 120.3605
122.6826, 120.6081
123.1647, 120.9131
123.6468, 121.3483
124.1290, 121.9979
124.6111, 122.9215
125.0932, 124.1042
125.5753, 125.4268
126.0574, 127.0357
126.5395, 128.6076
127.0217, 130.0494
127.5038, 131.3550
127.9859, 132.4821
128.4680, 133.2989
128.9501, 133.9013
129.4323, 134.8140
129.9144, 136.3863
130.3965, 138.1124
130.8786, 139.4484
131.3607, 140.3181
131.8428, 141.0740
132.3250, 141.8653
132.8071, 142.7332
133.2892, 143.7810
133.7713, 145.1647
134.2534, 146.7774
134.7355, 148.2705
135.2176, 149.5915
135.6998, 150.8460
136.1819, 152.0850
136.6640, 153.3066
137.1461, 154.4934
137.6282, 155.6517
138.1103, 156.7878
138.5925, 157.8188
139.0746, 158.7070
139.5567, 159.5165
140.0388, 160.2747
140.5209, 160.9776
141.0030, 161.6085
141.4852, 162.1424
141.9673, 162.5549
142.4494, 162.9230
142.9315, 163.1525
143.4136, 163.4084
143.8957, 163.8482
144.3779, 164.4935
144.8600, 165.1965
145.3421, 165.7182
145.8242, 165.9688
146.3063, 166.1842
146.7884, 166.4570
147.2706, 166.6737
147.7527, 166.6603
148.2348, 166.3315
148.7169, 165.8416
149.1990, 165.4769
149.6811, 165.2003
150.1633, 165.0673
150.6454, 165.2395
151.1275, 165.6015
151.6096, 165.7760
152.0917, 165.5740
152.5738, 165.1440
153.0560, 164.6866
153.5381, 164.1224
154.0202, 163.7825
154.5023, 164.1010
154.9844, 165.1130
155.4665, 165.9385
155.9487, 165.9516
156.4308, 165.7793
156.9129, 165.9674
157.3950, 166.6939
157.8771, 167.5715
158.3592, 168.0255
158.8414, 167.9357
159.3235, 167.6914
159.8056, 167.1592
160.2877, 166.6434
160.7698, 166.5073
161.2519, 166.9386
161.7341, 167.6411
162.2162, 167.7492
162.6983, 167.0163
163.1804, 165.9226
163.6625, 164.4776
164.1446, 162.7604
164.6268, 160.8406
165.1089, 158.7382
165.5910, 156.4888
166.0731, 154.2614
166.5552, 152.4658
167.0373, 150.2485
167.5195, 147.1406
168.0016, 143.4737
168.4837, 139.8625
168.9658, 136.7122
169.4479, 133.9825
169.9300, 131.3385
170.4122, 128.4740
170.8943, 125.9535
171.3764, 124.4065
171.8585, 123.5934
172.3406, 122.3888
172.8227, 119.8012
173.3049, 116.0183
173.7870, 113.0041
174.2691, 111.1775
174.7512, 109.8017
175.2333, 108.3126
175.7154, 106.6807
176.1976, 105.1303
176.6797, 103.8671
177.1618, 102.8147
177.6439, 101.8355
178.1260, 100.8832
178.6081, 99.99218
179.0903, 99.22888
179.5724, 98.63691
180.0545, 98.05396
180.5366, 97.38024
181.0187, 96.64845
181.5008, 95.90249
181.9830, 95.08714
182.4651, 94.28143
182.9472, 93.73870
183.4293, 93.56225
183.9114, 93.52234
184.3935, 93.59332
184.8757, 93.70287
185.3578, 93.72433
185.8399, 93.55113
186.3220, 93.20531
186.8041, 92.92829
187.2862, 92.79371
187.7684, 92.65481
188.2505, 92.35832
188.7326, 92.02113
189.2147, 91.89314
189.6968, 92.22298
190.1789, 93.04005
190.6611, 93.52245
191.1432, 93.23006
191.6253, 93.03088
192.1074, 93.29073
192.5895, 93.90108
193.0716, 94.51987
193.5538, 94.83658
194.0359, 94.80293
194.5180, 94.87336
195.0001, 95.01912
195.4822, 95.26350
195.9643, 95.67851
196.4465, 96.22548
196.9286, 96.75085
197.4107, 97.07601
197.8928, 97.15034
198.3749, 97.56654
198.8570, 98.68221
199.3392, 99.83302
199.8213, 100.5474
200.3034, 100.8070
200.7855, 100.9464
201.2676, 101.2617
201.7497, 101.7680
202.2319, 102.2520
202.7140, 102.8128
203.1961, 103.2877
203.6782, 103.3652
204.1603, 102.9854
204.6424, 102.7926
205.1246, 103.5832
205.6067, 105.1385
206.0888, 106.4325
206.5709, 107.1080
207.0530, 107.4743
207.5351, 107.9603
208.0173, 108.6331
208.4994, 109.2847
208.9815, 109.6931
209.4636, 109.9559
209.9457, 110.2702
210.4278, 110.8265
210.9100, 111.4702
211.3921, 111.7906
211.8742, 111.5742
212.3563, 111.4808
212.8384, 112.0838
213.3205, 113.0618
213.8027, 113.8251
214.2848, 113.9597
214.7669, 113.6522
215.2490, 113.6014
215.7311, 114.0382
216.2132, 114.3721
216.6953, 114.3144
217.1775, 114.0032
217.6596, 113.6820
218.1417, 113.5179
218.6238, 113.4655
219.1059, 113.2506
219.5880, 112.7693
220.0702, 112.2368
220.5523, 111.6737
221.0344, 111.1141
221.5165, 110.6331
221.9986, 110.3288
222.4807, 110.1472
222.9629, 109.5624
223.4450, 107.8438
223.9271, 106.4923
224.4092, 106.1141
224.8913, 106.2872
225.3734, 106.2837
225.8556, 105.6035
226.3377, 104.3158
226.8198, 103.1498
227.3019, 102.0047
227.7840, 101.1043
228.2661, 100.7177
228.7483, 100.5996
229.2304, 100.3235
229.7125, 99.59653
230.1946, 98.47121
230.6767, 97.54227
231.1588, 96.98624
231.6410, 96.41563
232.1231, 95.66086
232.6052, 94.82289
233.0873, 94.15316
233.5694, 93.84647
234.0515, 93.79826
234.5337, 93.21449
235.0158, 91.51842
235.4979, 90.02537
235.9800, 89.23894
236.4621, 88.95082
236.9442, 88.68871
237.4264, 88.20009
237.9085, 87.53531
238.3906, 86.92391
238.8727, 86.36341
239.3548, 85.84791
239.8369, 85.44690
240.3191, 85.09789
240.8012, 84.62231
241.2833, 83.88618
241.7654, 83.01807
242.2475, 82.39921
242.7296, 82.15475
243.2118, 81.91035
243.6939, 81.40531
244.1760, 80.75751
244.6581, 80.36911
245.1402, 80.51699
245.6223, 80.88145
246.1045, 80.83949
246.5866, 80.35603
247.0687, 79.64504
247.5508, 78.69129
248.0329, 77.56971
248.5150, 76.52898
248.9972, 75.63396
249.4793, 74.88175
249.9614, 74.20858
250.4435, 73.58248
250.9256, 73.17111
251.4077, 73.28113
251.8899, 73.75117
252.3720, 73.83156
252.8541, 73.14610
253.3362, 72.22959
253.8183, 71.66589
254.3004, 71.44860
254.7826, 71.32765
255.2647, 71.20689
255.7468, 71.07273
256.2289, 70.85599
256.7110, 70.54203
257.1931, 70.13531
257.6753, 69.56696
258.1574, 68.87922
258.6395, 68.34184
259.1216, 68.24224
259.6037, 68.48582
260.0858, 68.53464
260.5680, 68.26417
261.0501, 67.88471
261.5322, 67.42479
262.0143, 66.95418
262.4964, 66.68021
262.9785, 66.88980
263.4607, 67.46908
263.9428, 67.73791
264.4249, 67.55711
264.9070, 67.23616
265.3891, 66.85949
265.8712, 66.47446
266.3534, 66.17088
266.8355, 65.99284
267.3176, 65.93825
267.7997, 66.01955
268.2818, 66.36292
268.7639, 66.65041
269.2461, 66.76614
269.7282, 66.76203
270.2103, 66.69810
270.6924, 66.58048
271.1745, 66.45295
271.6566, 66.48577
272.1388, 66.84329
272.6209, 67.07803
273.1030, 67.00017
273.5851, 66.78207
274.0672, 66.61856
274.5493, 66.59786
275.0315, 66.66905
275.5136, 66.70771
275.9957, 66.69388
276.4778, 66.68381
276.9599, 66.72799
277.4420, 66.76064
277.9242, 66.68217
278.4063, 66.45967
278.8884, 66.22212
279.3705, 66.23656
279.8526, 66.67732
280.3347, 67.00137
280.8169, 67.04082
281.2990, 67.03645
281.7811, 67.16764
282.2632, 67.47643
282.7453, 67.87681
283.2274, 68.28355
283.7096, 68.81399
284.1917, 69.03624
284.6738, 68.69585
285.1559, 68.27914
285.6380, 68.06755
286.1201, 68.09171
286.6023, 68.20105
287.0844, 68.19998
287.5665, 68.00137
288.0486, 68.05035
288.5307, 68.55915
289.0128, 69.10206
289.4950, 69.45330
289.9771, 69.64787
290.4592, 69.87599
290.9413, 70.31851
291.4234, 70.99191
291.9055, 71.64748
292.3877, 72.46245
292.8698, 73.08672
293.3519, 73.32134
293.8340, 73.27071
294.3161, 73.15706
294.7982, 73.13232
295.2804, 73.19051
295.7625, 73.25368
296.2446, 73.15012
296.7267, 73.24458
297.2088, 73.72995
297.6909, 74.43465
298.1731, 75.12926
298.6552, 75.69120
299.1373, 76.11998
299.6194, 76.40195
300.1015, 76.21342
300.5836, 76.27542
301.0658, 76.79454
301.5479, 77.52702
302.0300, 78.25851
302.5121, 78.89645
302.9942, 79.41093
303.4763, 79.72781
303.9585, 79.55543
304.4406, 79.62769
304.9227, 80.07725
305.4048, 80.67426
305.8869, 81.30376
306.3690, 81.90964
306.8512, 82.41030
307.3333, 82.67265
307.8154, 82.56035
308.2975, 82.56430
308.7796, 82.58359
309.2617, 82.77399
309.7439, 83.32252
310.2260, 84.17653
310.7081, 85.07055
311.1902, 85.72639
311.6723, 86.10117
312.1544, 86.59048
312.6366, 87.36015
313.1187, 88.06787
313.6008, 88.51127
314.0829, 88.77625
314.5650, 89.09373
315.0471, 89.63741
315.5293, 90.38616
316.0114, 91.06051
316.4935, 91.58731
316.9756, 92.12568
317.4577, 92.76343
317.9398, 93.41969
318.4220, 93.96088
318.9041, 94.31563
319.3862, 94.54171
319.8683, 94.82767
320.3504, 95.29121
320.8326, 95.66029
321.3147, 95.82396
321.7968, 95.93544
322.2789, 96.12622
322.7610, 96.44277
323.2431, 96.87971
323.7253, 97.43000
324.2074, 98.14625
324.6895, 98.88738
325.1716, 99.72197
325.6537, 100.5331
326.1358, 101.1892
326.6180, 101.7086
327.1001, 102.2826
327.5822, 103.1693
328.0643, 104.5160
328.5464, 105.4050
329.0285, 105.3800
329.5107, 105.3993
329.9928, 105.9250
330.4749, 106.8461
330.9570, 107.7785
331.4391, 108.4264
331.9212, 108.8171
332.4034, 109.3536
332.8855, 110.2444
333.3676, 111.0659
333.8497, 111.6949
334.3318, 112.2146
334.8139, 112.7556
335.2961, 113.3812
335.7782, 114.0449
336.2603, 114.5977
336.7424, 115.0489
337.2245, 115.3574
337.7066, 115.2555
338.1888, 115.1724
338.6708, 115.5463
339.1530, 116.4730
339.6351, 117.6346
340.1172, 118.5728
340.5993, 119.2427
341.0814, 119.7831
341.5635, 120.2767
342.0457, 120.5916
342.5278, 120.5299
343.0099, 120.1740
343.4920, 119.8427
343.9741, 119.8451
344.4562, 120.2007
344.9384, 120.5226
345.4205, 120.9359
345.9026, 121.1807
346.3847, 121.0608
346.8668, 120.5657
347.3489, 120.9185
347.8311, 121.1423
348.3132, 121.2419
348.7953, 120.9553
349.2774, 121.0834
349.7595, 120.9940
350.2416, 120.8605
350.7238, 120.9421
351.2059, 120.5231
351.6880, 120.5275
352.1701, 120.3116
352.6522, 120.1430
353.1343, 119.7558
353.6165, 119.3882
354.0986, 119.1659
354.5807, 118.3845
355.0628, 117.3191
355.5449, 115.8983
356.0270, 114.5532
356.5092, 113.8331
356.9913, 113.7795
357.4734, 113.2448
357.9555, 111.7004
358.4376, 110.2503
358.9197, 109.4727
359.4019, 109.1220
359.8840, 108.6711
360.3661, 107.7822
360.8482, 106.6051
361.3303, 105.5814
361.8124, 104.7671
362.2946, 103.9983
362.7767, 103.2442
363.2588, 102.4897
363.7409, 101.7252
364.2230, 100.9480
364.7051, 100.1375
365.1873, 99.21349
365.6694, 98.14125
366.1515, 97.24796
366.6336, 96.77676
367.1157, 96.37685
367.5978, 95.82237
368.0800, 95.09727
368.5621, 94.25475
369.0442, 93.26916
369.5263, 92.18052
370.0084, 91.17960
370.4905, 90.25834
370.9727, 89.47565
371.4548, 88.96371
371.9369, 88.61095
372.4190, 88.15585
372.9011, 87.43913
373.3832, 86.60941
373.8654, 85.90862
374.3475, 85.36108
374.8296, 84.75244
375.3117, 83.88768
375.7938, 82.94821
376.2759, 82.23107
376.7581, 81.85807
377.2402, 81.45439
377.7223, 80.59534
378.2044, 79.42858
378.6865, 78.65697
379.1686, 78.62574
379.6508, 78.79530
380.1329, 78.41978
380.6150, 77.52153
381.0971, 76.73272
381.5792, 76.33408
382.0613, 76.12585
382.5435, 75.85950
383.0256, 75.50777
383.5077, 75.04843
383.9898, 74.33443
384.4719, 73.46444
384.9540, 73.02542
385.4362, 73.48439
385.9183, 73.97314
386.4004, 73.86660
386.8825, 73.32595
387.3646, 72.94311
387.8467, 73.03823
388.3289, 73.39491
388.8110, 73.44846
389.2931, 73.10870
389.7752, 72.73612
390.2573, 72.34454
390.7394, 71.98466
391.2216, 71.70792
391.7037, 71.52744
392.1858, 71.45892
392.6679, 71.56538
393.1500, 71.93270
393.6321, 71.96784
394.1143, 71.19432
394.5964, 70.54728
395.0785, 70.68839
395.5606, 71.42944
396.0427, 72.11575
396.5248, 72.31200
397.0070, 72.13540
397.4891, 72.22868
397.9712, 73.00356
398.4533, 73.55211
398.9354, 73.62293
399.4175, 73.49074
399.8997, 73.40030
400.3818, 73.44448
400.8639, 73.66135
401.3460, 74.16665
401.8281, 75.21785
402.3102, 75.82259
402.7924, 75.58598
403.2745, 75.32442
403.7566, 75.53683
404.2387, 76.10591
404.7208, 76.56026
405.2029, 76.50079
405.6851, 76.02199
406.1672, 75.86559
406.6493, 76.04523
407.1314, 76.51092
407.6135, 76.85676
408.0956, 77.08922
408.5778, 76.86867
409.0599, 77.23309
409.5420, 77.36306
410.0241, 77.48343
410.5062, 77.93018
410.9883, 77.77550
411.4705, 78.21710
411.9526, 77.81521
412.4347, 78.09715
412.9168, 78.25925
413.3989, 78.30795
413.8810, 77.90363
414.3632, 78.08430
414.8453, 78.03053
415.3274, 77.96716
415.8095, 77.82473
416.2916, 77.82590
416.7737, 77.70722
417.2559, 77.47511
417.7380, 76.79000
418.2201, 76.68990
418.7022, 76.35535
419.1843, 76.01120
419.6664, 75.99342
420.1486, 75.37417
420.6307, 75.35121
421.1128, 75.09025
421.5949, 74.19819
422.0770, 73.44363
422.5591, 72.77136
423.0413, 72.23800
423.5234, 72.01072
424.0055, 72.11068
424.4876, 72.14624
424.9697, 71.78899
425.4518, 71.10164
425.9340, 70.56693
426.4161, 70.22796
426.8982, 69.98939
427.3803, 69.97440
427.8624, 70.01680
428.3445, 69.73772
428.8267, 68.97897
429.3088, 67.95682
429.7909, 67.00674
430.2730, 66.00826
430.7551, 65.42425
431.2372, 65.56911
431.7194, 65.89841
432.2015, 66.12104
432.6836, 66.16656
433.1657, 65.97095
433.6478, 65.44072
434.1299, 64.61993
434.6121, 64.08997
435.0942, 64.06194
435.5763, 64.09191
436.0584, 64.24537
436.5405, 64.36455
437.0226, 64.21050
437.5048, 63.71846
437.9869, 63.14453
438.4690, 62.93118
438.9511, 63.25351
439.4332, 63.36672
439.9153, 62.93763
440.3975, 62.58455
440.8796, 62.69537
441.3617, 63.13000
441.8438, 63.47680
442.3259, 63.47060
442.8080, 63.17511
443.2902, 62.75314
443.7723, 62.09108
444.2544, 61.58661
444.7365, 61.42002
445.2186, 61.44840
445.7007, 61.62337
446.1829, 61.94868
446.6650, 62.20401
447.1471, 62.10265
447.6292, 61.72698
448.1113, 61.57324
448.5934, 61.82678
449.0756, 62.08833
449.5577, 61.92212
450.0398, 61.47468
450.5219, 61.18345
451.0040, 61.29486
451.4861, 61.51772
451.9683, 61.59431
452.4504, 61.53438
452.9325, 61.38042
453.4146, 61.08949
453.8967, 60.79226
454.3788, 60.81026
454.8610, 61.21514
455.3431, 61.61782
455.8252, 62.01791
456.3073, 62.32500
456.7894, 62.39337
457.2715, 62.22436
457.7537, 61.99645
458.2358, 61.83185
458.7179, 61.73085
459.2000, 61.91681
459.6821, 62.79419
460.1642, 63.44579
460.6464, 63.46401
461.1285, 63.15271
461.6106, 62.89386
462.0927, 62.83938
462.5748, 62.98438
463.0569, 63.36215
463.5391, 64.12650
464.0212, 64.69725
464.5033, 64.97002
464.9854, 65.15912
465.4675, 65.34036
465.9496, 65.52174
466.4318, 65.69838
466.9139, 65.87811
467.3960, 66.03731
467.8781, 66.06725
468.3602, 65.86154
468.8423, 65.80719
469.3245, 66.12934
469.8066, 66.57761
470.2887, 66.98656
470.7708, 67.32904
471.2529, 67.60899
471.7350, 67.79076
472.2172, 67.90731
472.6993, 68.07735
473.1814, 68.31071
473.6635, 68.59972
474.1456, 69.02568
474.6277, 69.49758
475.1099, 69.78682
475.5920, 69.70115
476.0741, 69.62389
476.5562, 69.77605
477.0383, 70.14519
477.5204, 70.77360
478.0026, 71.73137
478.4847, 72.71549
478.9668, 73.24395
479.4489, 73.18400
479.9310, 73.33006
480.4131, 73.92857
480.8953, 74.57215
481.3774, 74.97150
481.8595, 75.16709
482.3416, 75.34837
482.8237, 75.62745
483.3058, 75.97656
483.7880, 76.30683
484.2701, 76.73352
484.7522, 76.96015
485.2343, 76.59196
485.7164, 76.30284
486.1985, 76.77924
486.6807, 77.96572
487.1628, 79.13266
487.6449, 79.58263
488.1270, 79.38013
488.6091, 79.45879
489.0912, 79.92046
489.5734, 80.51896
490.0555, 81.36504
490.5376, 82.20213
491.0197, 82.67718
491.5018, 82.67609
491.9839, 82.59547
492.4661, 82.89832
492.9482, 83.52987
493.4303, 83.97000
493.9124, 84.06746
494.3945, 84.11761
494.8766, 84.38912
495.3588, 84.80347
495.8409, 85.15250
496.3230, 85.38599
496.8051, 85.53715
497.2872, 85.67451
497.7693, 85.76221
498.2515, 85.61717
498.7336, 85.11796
499.2157, 84.51386
499.6978, 84.22897
500.1799, 84.39388
500.6620, 84.37516
501.1442, 84.07988
501.6263, 83.63605
502.1084, 83.05371
502.5905, 82.39359
503.0726, 81.81588
503.5547, 81.43543
504.0368, 81.15145
504.5190, 80.61913
505.0011, 79.82990
505.4832, 78.76939
505.9653, 76.98254
506.4474, 75.28638
506.9295, 74.38957
507.4117, 74.23655
507.8938, 74.19754
508.3759, 73.79724
508.8580, 73.06253
509.3401, 72.13365
509.8222, 70.88109
510.3044, 69.71299
510.7865, 68.89013
511.2686, 68.16132
511.7507, 67.28040
512.2328, 66.19592
512.7150, 65.05356
513.1971, 63.90759
513.6792, 62.78732
514.1613, 61.78358
514.6434, 60.92655
515.1255, 60.08750
515.6077, 59.17190
516.0898, 58.19282
516.5719, 57.22602
517.0540, 56.30724
517.5361, 55.36497
518.0182, 54.27674
518.5004, 53.16713
518.9825, 52.27163
519.4646, 51.64852
519.9467, 51.14514
520.4288, 50.58504
520.9109, 49.95976
521.3931, 49.32631
521.8752, 48.66164
522.3573, 48.00704
522.8394, 47.39966
523.3215, 46.80635
523.8036, 46.14484
524.2858, 45.39012
524.7679, 44.66014
525.2500, 44.19884
525.7321, 44.08571
526.2142, 43.84787
526.6964, 43.51683
527.1785, 42.98224
527.6606, 41.98079
528.1427, 40.75839
528.6248, 39.86205
529.1069, 39.61977
529.5891, 39.63599
530.0712, 39.36614
530.5533, 38.83282
531.0354, 38.45694
531.5175, 38.45567
531.9996, 38.49499
532.4818, 38.14354
532.9639, 37.43811
533.4460, 36.67968
533.9281, 35.74514
534.4102, 34.93339
534.8923, 34.54939
535.3745, 34.49785
535.8566, 34.44722
536.3387, 34.24878
536.8208, 33.94199
537.3029, 33.60057
537.7850, 33.14276
538.2672, 32.82405
538.7493, 32.83689
539.2314, 32.80551
539.7135, 32.40562
540.1956, 31.77592
540.6777, 31.32247
541.1599, 31.31132
541.6420, 31.54025
542.1241, 31.46999
542.6062, 30.98182
543.0883, 30.57561
543.5704, 30.45429
544.0526, 30.35072
544.5347, 30.07922
545.0168, 29.66388
545.4989, 29.27051
545.9810, 28.98570
546.4631, 28.77178
546.9453, 28.53369
547.4274, 28.27563
547.9095, 28.20910
548.3916, 28.50745
548.8737, 28.93517
549.3558, 29.07479
549.8380, 28.91949
550.3201, 28.66228
550.8022, 28.19464
551.2843, 27.75010
551.7664, 27.59369
552.2485, 27.65009
552.7307, 27.60035
553.2128, 27.24953
553.6949, 26.72828
554.1770, 26.41328
554.6591, 26.50784
555.1412, 26.44547
555.6234, 26.00855
556.1055, 25.60998
556.5876, 25.56732
557.0697, 25.79220
557.5518, 25.95811
558.0339, 25.84996
558.5161, 25.57892
558.9982, 25.37977
559.4803, 25.24965
559.9624, 25.22628
560.4445, 25.44604
560.9266, 25.65340
561.4088, 25.61266
561.8909, 25.33539
562.3730, 24.97566
562.8551, 24.47132
563.3372, 23.99472
563.8193, 23.75541
564.3015, 23.72440
564.7836, 23.74732
565.2657, 23.77246
565.7478, 23.76658
566.2299, 23.65381
566.7120, 23.33480
567.1942, 23.16104
567.6763, 23.18994
568.1584, 23.30985
568.6405, 23.57079
569.1226, 23.86203
569.6047, 23.91790
570.0869, 23.58351
570.5690, 23.12110
571.0511, 23.17041
571.5332, 23.98138
572.0153, 24.33120
572.4974, 23.72509
572.9796, 22.99684
573.4617, 22.47497
573.9438, 22.18147
574.4259, 22.15437
574.9080, 22.55238
575.3901, 23.00926
575.8723, 23.03183
576.3544, 22.70734
576.8365, 22.56975
577.3186, 22.82876
577.8007, 23.11724
578.2828, 22.96151
578.7650, 22.32926
579.2471, 21.95872
579.7292, 22.02236
580.2113, 22.19066
580.6934, 22.43003
581.1755, 22.63341
581.6577, 22.60424
582.1398, 22.28812
582.6219, 21.87413
583.1040, 21.61065
583.5861, 21.50950
584.0682, 21.47004
584.5504, 21.61056
585.0325, 21.66737
585.5145, 21.53476
585.9966, 21.28788
586.4788, 20.98460
586.9609, 20.63202
587.4430, 20.37045
587.9251, 20.39209
588.4072, 20.62296
588.8893, 20.78545
589.3715, 20.85500
589.8536, 20.84291
590.3357, 20.71951
590.8178, 20.52476
591.2999, 20.39597
591.7820, 20.31758
592.2642, 20.32731
592.7463, 20.56922
593.2284, 20.82969
593.7105, 20.79991
594.1926, 20.49791
594.6747, 20.24577
595.1569, 20.31119
595.6390, 20.62299
596.1211, 20.79044
596.6032, 20.64967
597.0853, 20.65404
597.5674, 21.11857
598.0496, 21.52411
598.5317, 21.37683
599.0138, 20.77104
599.4959, 20.28067
599.9780, 20.33735
600.4601, 20.68598
600.9423, 20.84849
601.4244, 20.82295
601.9065, 20.78433
602.3886, 20.78521
602.8707, 20.80490
603.3528, 20.81398
603.8350, 20.81185
604.3171, 20.82394
604.7992, 20.88811
605.2813, 20.93504
605.7634, 20.92692
606.2455, 20.86708
606.7277, 20.74486
607.2098, 20.55952
607.6919, 20.38351
608.1740, 20.34140
608.6561, 20.46998
609.1382, 20.53214
609.6204, 20.52060
610.1025, 20.44513
610.5846, 20.21204
611.0667, 19.95636
611.5488, 19.86772
612.0309, 20.00215
612.5131, 20.22450
612.9952, 20.51771
613.4773, 20.80099
613.9594, 20.75332
614.4415, 20.30079
614.9236, 19.85325
615.4058, 19.64941
615.8879, 19.64321
616.3700, 19.67626
616.8521, 19.73271
617.3342, 19.85290
617.8163, 20.18049
618.2985, 20.47764
618.7806, 20.49562
619.2627, 20.26846
619.7448, 19.98698
620.2269, 19.76119
620.7090, 19.61481
621.1912, 19.66231
621.6733, 20.03993
622.1554, 20.19991
622.6375, 19.82657
623.1196, 19.45083
623.6017, 19.34694
624.0839, 19.47668
624.5660, 19.72872
625.0481, 20.18348
625.5302, 20.54689
626.0123, 20.41078
626.4944, 19.92188
626.9766, 19.60952
627.4587, 19.61168
627.9408, 19.65362
628.4229, 19.44128
628.9050, 18.98326
629.3871, 18.75946
629.8693, 18.89882
630.3514, 19.07012
630.8335, 19.20826
631.3156, 19.34265
631.7977, 19.53201
632.2798, 19.76617
632.7620, 19.95224
633.2441, 19.99792
633.7262, 19.94045
634.2083, 19.91135
634.6904, 19.89822
635.1725, 19.97538
635.6547, 20.31333
636.1368, 20.61184
636.6189, 20.47736
637.1010, 19.95181
637.5831, 19.63494
638.0652, 19.87484
638.5474, 20.25354
639.0295, 20.47538
639.5116, 20.55639
639.9937, 20.53004
640.4758, 20.40726
640.9579, 20.29168
641.4401, 20.34431
641.9222, 20.60718
642.4043, 20.64310
642.8864, 20.15844
643.3685, 19.78760
643.8506, 19.75694
644.3328, 19.85455
644.8149, 19.82714
645.2970, 19.63797
645.7791, 19.48488
646.2612, 19.57946
646.7433, 19.81849
647.2255, 19.91402
647.7076, 19.85298
648.1897, 19.88636
648.6718, 20.15790
649.1539, 20.53291
649.6360, 20.79747
650.1182, 20.95657
650.6003, 20.99840
651.0824, 20.82467
651.5645, 20.63005
652.0466, 20.49413
652.5287, 20.42510
653.0109, 20.43197
653.4930, 20.51504
653.9751, 20.63877
654.4572, 20.77894
654.9393, 20.93831
655.4214, 20.98751
655.9036, 20.87674
656.3857, 20.75412
656.8678, 20.65002
657.3499, 20.58856
657.8320, 20.64355
658.3141, 20.84699
658.7963, 20.93056
659.2784, 20.60091
659.7605, 20.20642
660.2426, 20.13487
660.7247, 20.36555
661.2068, 20.76108
661.6890, 21.28113
662.1711, 21.74157
662.6532, 21.77011
663.1353, 21.16230
663.6174, 20.84609
664.0995, 21.09388
664.5817, 21.33751
665.0638, 21.37704
665.5459, 21.31473
666.0280, 21.28630
666.5101, 21.32765
666.9922, 21.43065
667.4744, 21.63458
667.9565, 21.88571
668.4386, 22.06073
668.9207, 22.15223
669.4028, 22.17547
669.8849, 22.12690
670.3671, 22.02961
670.8492, 21.92953
671.3313, 21.82517
671.8134, 21.72065
672.2955, 21.52594
672.7776, 21.42199
673.2598, 21.60361
673.7419, 21.91394
674.2240, 22.08470
674.7061, 22.01686
675.1882, 21.84480
675.6703, 21.68844
676.1525, 21.55745
676.6346, 21.56853
677.1167, 21.76425
677.5988, 21.96739
678.0809, 22.09628
678.5630, 22.17766
679.0452, 22.25406
679.5273, 22.31990
680.0094, 22.41129
680.4915, 22.59223
680.9736, 22.75279
681.4557, 22.75328
681.9379, 22.67196
682.4200, 22.72700
682.9021, 23.00275
683.3842, 23.31023
683.8663, 23.34159
684.3484, 23.06580
684.8306, 22.97904
685.3127, 23.16159
685.7948, 23.39196
686.2769, 23.65397
686.7590, 23.87592
687.2411, 23.97709
687.7233, 23.94693
688.2054, 23.83388
688.6875, 23.54236
689.1696, 23.26429
689.6517, 23.23156
690.1339, 23.39450
690.6160, 23.57360
691.0981, 23.69825
691.5802, 23.79016
692.0623, 23.87523
692.5444, 23.94671
693.0266, 24.06394
693.5087, 24.23059
693.9908, 24.44020
694.4729, 24.75064
694.9550, 25.06367
695.4371, 25.26254
695.9193, 25.33814
696.4014, 25.42009
696.8835, 25.65028
697.3656, 25.88816
697.8477, 25.91635
698.3298, 25.77172
698.8120, 25.62525
699.2941, 25.52837
699.7762, 25.52801
700.2583, 25.71312
700.7404, 26.11147
701.2225, 26.34484
701.7047, 26.06513
702.1868, 26.05142
702.6689, 26.66938
703.1510, 27.46322
703.6331, 28.01861
704.1152, 28.29494
704.5974, 28.49941
705.0795, 28.77514
705.5616, 29.04265
706.0437, 29.11682
706.5258, 29.04042
707.0079, 29.12111
707.4901, 29.47219
707.9722, 29.84851
708.4543, 29.96333
708.9364, 29.82605
709.4185, 29.93671
709.9006, 30.67900
710.3828, 31.14669
710.8649, 30.91020
711.3470, 30.56638
711.8291, 30.65578
712.3112, 31.13592
712.7933, 31.60387
713.2755, 31.80761
713.7576, 31.90948
714.2397, 32.17509
714.7218, 32.57660
715.2039, 32.91749
715.6860, 33.14540
716.1682, 33.37577
716.6503, 33.71008
717.1324, 34.12321
717.6145, 34.48096
718.0966, 34.80805
718.5787, 35.04760
719.0609, 35.06643
719.5430, 35.10744
720.0251, 35.35647
720.5072, 35.77336
720.9893, 36.21354
721.4714, 36.60491
721.9536, 37.02086
722.4357, 37.60280
722.9178, 38.31282
723.3999, 38.90578
723.8820, 39.35371
724.3641, 39.71371
724.8463, 39.99136
725.3284, 40.22354
725.8105, 40.50362
726.2926, 40.88094
726.7747, 41.18294
727.2568, 41.26145
727.7390, 41.40391
728.2211, 41.78074
728.7032, 42.32727
729.1853, 42.97387
729.6674, 43.68398
730.1495, 44.29222
730.6317, 44.47509
731.1138, 44.40681
731.5959, 44.77909
732.0780, 45.62951
732.5601, 46.56340
733.0422, 47.48978
733.5244, 48.31649
734.0065, 48.85773
734.4886, 49.03142
734.9707, 49.44011
735.4528, 50.30021
735.9349, 51.13383
736.4171, 51.74989
736.8992, 52.26811
737.3813, 52.83748
737.8634, 53.47534
738.3455, 54.09965
738.8276, 54.61694
739.3098, 55.11927
739.7919, 55.85206
740.2740, 56.79441
740.7561, 57.58624
741.2382, 58.10813
741.7203, 58.56661
742.2025, 59.11491
742.6846, 59.76155
743.1667, 60.57983
743.6488, 61.87595
744.1309, 62.89841
744.6130, 63.37186
745.0952, 63.70761
745.5773, 64.16743
746.0594, 64.75376
746.5415, 65.37936
747.0236, 65.99742
747.5057, 66.65041
747.9879, 67.47421
748.4700, 68.37658
748.9521, 68.91964
749.4342, 69.03989
749.9163, 69.25462
750.3984, 69.86989
750.8806, 70.76139
751.3627, 71.68290
751.8448, 72.75611
752.3269, 73.51957
752.8090, 73.70198
753.2911, 73.90679
753.7733, 74.55331
754.2554, 75.27980
754.7375, 75.54163
755.2196, 75.23869
755.7017, 74.85429
756.1838, 74.77488
756.6660, 74.82684
757.1481, 74.69007
757.6302, 74.40382
758.1123, 74.21447
758.5944, 74.20631
759.0765, 74.28837
759.5587, 74.38902
760.0408, 74.50375
760.5229, 74.39098
761.0050, 73.73464
761.4871, 73.33202
761.9692, 73.46345
762.4514, 73.71948
762.9335, 73.97993
763.4156, 74.11975
763.8977, 73.79982
764.3798, 72.67588
764.8619, 71.48855
765.3441, 70.76729
765.8262, 70.42437
766.3083, 70.44032
766.7904, 70.73521
767.2725, 70.85428
767.7546, 70.50920
768.2368, 69.87084
768.7189, 69.35181
769.2010, 69.02149
769.6831, 68.52090
770.1652, 67.57095
770.6473, 66.84266
771.1295, 66.80751
771.6116, 67.05114
772.0937, 67.05860
772.5758, 66.76295
773.0579, 66.43587
773.5400, 66.16029
774.0222, 65.91318
774.5043, 65.63570
774.9864, 65.38393
775.4685, 65.24107
775.9506, 65.24055
776.4327, 65.43630
776.9149, 65.93768
777.3970, 66.64158
777.8791, 67.05186
778.3612, 67.12244
778.8433, 67.13583
779.3254, 67.01392
779.8076, 67.07088
780.2897, 67.79427
780.7718, 68.95914
781.2539, 69.55908
781.7360, 69.01522
782.2181, 68.77459
782.7003, 69.50426
783.1824, 70.40144
783.6645, 70.72295
784.1466, 70.66647
784.6287, 70.84352
785.1108, 71.51868
785.5930, 72.49418
786.0751, 73.70406
786.5572, 75.02451
787.0393, 75.80460
787.5214, 75.98276
788.0035, 76.52454
788.4857, 77.96155
788.9678, 79.66317
789.4499, 80.68944
789.9320, 80.93861
790.4141, 81.34231
790.8962, 81.76446
791.3784, 82.50998
791.8605, 83.93936
792.3426, 85.49632
792.8247, 86.73495
793.3068, 87.63490
793.7889, 88.39214
794.2711, 89.02193
794.7532, 89.68008
795.2353, 90.56897
795.7174, 91.58829
796.1995, 92.51589
796.6816, 93.32887
797.1638, 94.11683
797.6459, 94.93433
798.1280, 95.77724
798.6101, 96.67831
799.0922, 97.74551
799.5743, 98.39053
800.0565, 98.32288
800.5386, 98.29942
801.0207, 98.60957
801.5028, 99.16023
801.9849, 99.97840
802.4670, 101.0849
802.9492, 101.8581
803.4313, 101.7838
803.9134, 101.6843
804.3955, 102.1574
804.8776, 102.8753
805.3597, 103.3771
805.8419, 103.5759
806.3240, 103.6167
806.8061, 103.5829
807.2882, 103.4057
807.7703, 103.6719
808.2524, 103.8182
808.7346, 103.8511
809.2167, 103.4310
809.6988, 103.5959
810.1809, 103.5264
810.6630, 103.4473
811.1451, 103.6945
811.6273, 103.3403
812.1094, 103.5824
812.5915, 103.5864
813.0736, 103.6994
813.5557, 103.5765
814.0378, 103.5265
814.5200, 103.7124
815.0021, 103.7677
815.4842, 103.6176
815.9663, 103.7375
816.4484, 103.3751
816.9305, 103.4359
817.4127, 103.6793
817.8948, 103.5411
818.3769, 103.6654
818.8590, 103.6896
819.3411, 103.2597
819.8232, 103.6197
820.3054, 103.6381
820.7875, 103.3057
821.2696, 102.9932
821.7517, 102.4743
822.2338, 101.9638
822.7159, 101.8046
823.1981, 101.8001
823.6802, 101.5865
824.1623, 101.1000
824.6444, 100.6749
825.1265, 100.3844
825.6086, 100.1672
826.0908, 100.2408
826.5729, 100.2446
827.0550, 99.48380
827.5371, 97.99287
828.0192, 96.74425
828.5013, 96.58585
828.9835, 96.90829
829.4656, 96.72637
829.9477, 96.11222
830.4298, 95.37917
830.9119, 94.57964
831.3940, 93.77828
831.8762, 93.03869
832.3583, 92.28817
832.8404, 91.26539
833.3225, 89.67334
833.8046, 88.66923
834.2867, 88.67396
834.7689, 88.73064
835.2510, 88.54140
835.7331, 88.19160
836.2152, 87.79524
836.6973, 87.35992
837.1794, 86.75522
837.6616, 85.63924
838.1437, 84.66600
838.6258, 84.43937
839.1079, 84.48807
839.5900, 84.14527
840.0721, 83.37719
840.5543, 82.57402
841.0364, 81.97195
841.5185, 81.50488
842.0006, 81.06945
842.4827, 80.67162
842.9648, 80.37622
843.4470, 80.20155
843.9291, 79.95049
844.4112, 79.44579
844.8933, 78.99783
845.3754, 79.18917
845.8575, 80.17647
846.3397, 80.81776
846.8218, 81.05556
847.3039, 81.01057
847.7860, 80.41349
848.2681, 79.78362
848.7502, 79.58496
849.2324, 79.75261
849.7145, 79.88084
850.1966, 79.70693
850.6787, 79.72886
851.1608, 80.42149
851.6429, 81.32630
852.1251, 81.92153
852.6072, 82.25047
853.0893, 82.58092
853.5714, 83.02897
854.0535, 83.56998
854.5356, 84.22329
855.0178, 84.94477
855.4999, 85.46150
855.9820, 85.76509
856.4641, 86.30730
856.9462, 87.28037
857.4283, 88.28790
857.9105, 88.87710
858.3926, 89.14058
858.8747, 89.84866
859.3568, 91.44070
859.8389, 92.70715
860.3210, 93.29819
860.8032, 93.86808
861.2853, 94.72723
861.7674, 95.78073
862.2495, 96.84379
862.7316, 97.88293
863.2137, 99.01360
863.6959, 100.4741
864.1780, 101.8668
864.6601, 102.7865
865.1422, 103.4619
865.6243, 104.2345
866.1064, 105.1872
866.5886, 106.2467
867.0707, 107.3623
867.5528, 108.5442
868.0349, 109.9692
868.5170, 111.5258
868.9991, 112.4121
869.4813, 112.5034
869.9634, 112.6625
870.4455, 113.3873
870.9276, 114.3935
871.4097, 115.1585
871.8918, 115.6434
872.3740, 116.1862
872.8561, 116.9703
873.3382, 117.5218
873.8203, 117.5516
874.3024, 117.4317
874.7845, 117.6097
875.2667, 117.9295
875.7488, 117.6377
876.2309, 116.2233
876.7130, 114.8185
877.1951, 113.8969
877.6772, 113.0816
878.1594, 112.1679
878.6415, 111.0868
879.1236, 109.7242
879.6057, 108.0621
880.0878, 106.3321
880.5699, 104.7615
881.0521, 103.2734
881.5342, 101.8340
882.0163, 100.3660
882.4984, 98.53462
882.9805, 96.26727
883.4626, 93.70545
883.9448, 90.87608
884.4269, 88.05186
884.9090, 86.18259
885.3911, 85.53748
885.8732, 84.23587
886.3553, 81.88032
886.8375, 79.57520
887.3196, 77.91994
887.8017, 76.48983
888.2838, 74.56250
888.7659, 72.07463
889.2480, 69.92910
889.7302, 68.31490
890.2123, 66.81214
890.6944, 65.33949
891.1765, 63.91962
891.6586, 62.59005
892.1407, 61.33261
892.6229, 60.11171
893.1050, 58.90020
893.5871, 57.77455
894.0692, 56.88081
894.5513, 56.02591
895.0334, 54.93981
895.5156, 53.72418
895.9977, 52.66946
896.4798, 51.84827
896.9619, 51.08067
897.4440, 50.23981
897.9261, 49.29105
898.4083, 48.01607
898.8904, 46.47735
899.3725, 45.39659
899.8546, 44.89445
900.3367, 44.72493
900.8188, 44.84258
901.3010, 44.97047
901.7831, 44.53609
902.2652, 43.42240
902.7473, 42.48305
903.2294, 41.86085
903.7115, 41.15853
904.1937, 40.07378
904.6758, 39.04242
905.1579, 38.59008
905.6400, 38.53642
906.1221, 38.09435
906.6042, 36.75254
907.0864, 35.80080
907.5685, 35.83747
908.0506, 36.09408
908.5327, 36.21637
909.0148, 36.13248
909.4969, 35.72143
909.9791, 34.99266
910.4612, 34.31002
910.9433, 33.86675
911.4254, 33.63020
911.9075, 33.70007
912.3896, 33.90255
912.8718, 33.87046
913.3539, 33.58549
913.8360, 33.28716
914.3181, 33.11429
914.8002, 32.94290
915.2823, 32.56263
915.7644, 32.00079
916.2465, 31.40837
916.7286, 30.77917
917.2108, 30.33933
917.6929, 30.19164
918.1750, 30.11924
918.6571, 29.89685
919.1392, 29.56627
919.6213, 29.36056
920.1035, 29.26512
920.5856, 29.34426
921.0677, 29.80752
921.5498, 30.16448
922.0319, 30.11773
922.5140, 29.86191
922.9962, 29.62562
923.4783, 29.41376
923.9604, 29.24482
924.4425, 29.07589
924.9246, 29.00771
925.4067, 29.25737
925.8889, 29.46991
926.3710, 29.27561
926.8531, 28.78546
927.3352, 28.34090
927.8173, 28.05252
928.2994, 27.83707
928.7816, 27.58957
929.2637, 27.42677
929.7458, 27.51533
930.2279, 27.77619
930.7100, 28.11603
931.1921, 28.46547
931.6743, 28.60177
932.1564, 28.33781
932.6385, 27.85421
933.1206, 27.42565
933.6027, 27.04902
934.0848, 26.68683
934.5670, 26.34172
935.0491, 26.12642
935.5312, 26.09756
936.0133, 26.15803
936.4954, 26.20946
936.9775, 26.23797
937.4597, 26.06197
937.9418, 25.57753
938.4239, 25.34340
938.9060, 25.53405
939.3881, 25.80642
939.8702, 25.99463
940.3524, 26.08671
940.8345, 26.04595
941.3166, 25.83438
941.7987, 25.63256
942.2808, 25.48252
942.7629, 25.28708
943.2451, 24.96722
943.7272, 24.64001
944.2093, 24.46366
944.6914, 24.36573
945.1735, 24.07637
945.6556, 23.44006
946.1378, 22.87782
946.6199, 22.51573
947.1020, 22.30512
947.5841, 22.33323
948.0662, 22.43085
948.5483, 22.38821
949.0305, 22.15731
949.5126, 21.75220
949.9947, 21.06965
950.4768, 20.42717
950.9589, 20.17911
951.4410, 20.14945
951.9232, 20.08559
952.4053, 19.96061
952.8874, 19.80160
953.3695, 19.61885
953.8516, 19.39776
954.3337, 19.13827
954.8159, 18.81784
955.2980, 18.25779
955.7801, 17.53607
956.2622, 17.22375
956.7443, 17.41989
957.2264, 17.86583
957.7086, 18.46757
958.1907, 18.94477
958.6728, 18.70680
959.1549, 17.72802
959.6370, 17.11329
960.1191, 16.93302
960.6013, 16.82677
961.0834, 16.73122
961.5655, 16.62557
962.0476, 16.47993
962.5297, 16.31661
963.0118, 16.21416
963.4940, 16.19014
963.9761, 16.18536
964.4582, 16.36728
964.9403, 16.34385
965.4224, 15.68235
965.9045, 15.00830
966.3867, 14.95544
966.8688, 15.45085
967.3509, 15.97046
967.8330, 16.68921
968.3151, 17.01076
968.7972, 16.46688
969.2794, 15.84190
969.7615, 15.64623
970.2436, 15.65099
970.7257, 15.49201
971.2078, 15.12606
971.6899, 14.76403
972.1721, 14.34625
972.6542, 14.17541
973.1363, 14.72163
973.6184, 15.40452
974.1005, 15.56712
974.5826, 15.30809
975.0648, 15.00048
975.5469, 14.77032
976.0290, 14.54287
976.5111, 14.14211
976.9932, 13.81445
977.4753, 14.02925
977.9575, 14.53757
978.4396, 14.84567
978.9217, 14.86765
979.4038, 14.53482
979.8859, 13.80612
980.3680, 13.16539
980.8502, 13.41205
981.3323, 14.24109
981.8144, 14.50336
982.2965, 14.27299
982.7786, 14.21288
983.2607, 14.46725
983.7429, 14.63109
984.2250, 14.41385
984.7071, 14.00143
985.1892, 13.76141
985.6713, 13.69859
986.1534, 13.67483
986.6356, 13.68968
987.1177, 13.76663
987.5998, 13.95408
988.0819, 14.06826
988.5640, 13.91470
989.0461, 13.59525
989.5283, 13.47342
990.0104, 13.64611
990.4925, 13.69195
990.9746, 13.47131
991.4567, 13.40168
991.9388, 13.77639
992.4210, 14.18865
992.9031, 14.13809
993.3852, 13.72664
993.8673, 13.65903
994.3494, 14.32339
994.8315, 14.67186
995.3137, 14.59115
995.7958, 14.30427
996.2779, 13.63090
996.7600, 12.97954
997.2421, 12.87987
997.7242, 13.28192
998.2064, 13.54928
998.6885, 13.50062
999.1706, 13.40475
999.6527, 13.26720
1000.135, 13.16608
1000.617, 13.17392
1001.099, 13.23880
1001.581, 13.30177
1002.063, 13.34651
1002.545, 13.33180
1003.028, 13.10224
1003.510, 13.01181
1003.992, 13.54080
1004.474, 14.05058
1004.956, 13.73682
1005.438, 12.98785
1005.920, 12.67783
1006.402, 12.99350
1006.884, 13.37821
1007.367, 13.54551
1007.849, 13.54043
1008.331, 13.32690
1008.813, 13.01672
1009.295, 12.70603
1009.777, 12.45206
1010.259, 12.37675
1010.741, 12.51135
1011.224, 12.68007
1011.706, 12.71164
1012.188, 12.70647
1012.670, 12.88469
1013.152, 13.12540
1013.634, 13.10423
1014.116, 12.84087
1014.598, 12.60096
1015.080, 12.50268
1015.563, 12.48363
1016.045, 12.48370
1016.527, 12.50410
1017.009, 12.57126
1017.491, 12.66516
1017.973, 12.66842
1018.455, 12.57569
1018.937, 12.52304
1019.419, 12.58034
1019.902, 12.70762
1020.384, 12.89436
1020.866, 13.08949
1021.348, 12.96744
1021.830, 12.54707
1022.312, 12.41574
1022.794, 12.68429
1023.276, 12.97192
1023.759, 13.06217
1024.241, 13.07676
1024.723, 13.25502
1025.205, 13.56104
1025.687, 13.40026
1026.169, 12.69818
1026.651, 12.13859
1027.133, 11.83746
1027.615, 11.72669
1028.098, 11.79440
1028.580, 11.96521
1029.062, 12.11131
1029.544, 12.23368
1030.026, 12.32091
1030.508, 12.39786
1030.990, 12.33752
1031.472, 12.05802
1031.955, 11.77204
1032.437, 11.59545
1032.919, 11.51678
1033.401, 11.52935
1033.883, 11.64948
1034.365, 11.69301
1034.847, 11.61701
1035.329, 11.55782
1035.812, 11.52092
1036.294, 11.53693
1036.776, 11.67636
1037.258, 11.84790
1037.740, 11.86049
1038.222, 11.68431
1038.704, 11.54113
1039.186, 11.32336
1039.668, 11.31968
1040.151, 11.80612
1040.633, 12.25998
1041.115, 12.34336
1041.597, 12.18074
1042.079, 11.98098
1042.561, 11.72474
1043.043, 11.55735
1043.525, 11.48919
1044.007, 11.50090
1044.490, 11.79889
1044.972, 11.96177
1045.454, 11.55199
1045.936, 10.90103
1046.418, 10.60815
1046.900, 10.73532
1047.382, 10.96456
1047.864, 11.51205
1048.347, 11.80848
1048.829, 11.43796
1049.311, 11.06925
1049.793, 11.22102
1050.275, 11.63484
1050.757, 11.85470
1051.239, 11.82764
1051.721, 11.72557
1052.203, 11.47907
1052.686, 11.30357
1053.168, 11.29900
1053.650, 11.34658
1054.132, 11.38299
1054.614, 11.40733
1055.096, 11.44328
1055.578, 11.49194
1056.060, 11.46657
1056.542, 11.17893
1057.025, 11.04358
1057.507, 11.39458
1057.989, 11.73926
1058.471, 11.74876
1058.953, 11.50548
1059.435, 11.07397
1059.917, 10.49714
1060.399, 10.18357
1060.882, 10.42038
1061.364, 10.72272
1061.846, 11.03654
1062.328, 11.23681
1062.810, 11.16798
1063.292, 10.95864
1063.774, 10.75958
1064.256, 10.61181
1064.739, 10.60284
1065.221, 10.88594
1065.703, 11.10480
1066.185, 11.01577
1066.667, 10.91154
1067.149, 11.09146
1067.631, 11.34056
1068.113, 11.29881
1068.595, 10.97235
1069.078, 10.70693
1069.560, 10.61932
1070.042, 10.61562
1070.524, 10.71934
1071.006, 10.82185
1071.488, 10.80905
1071.970, 10.77187
1072.452, 10.83787
1072.934, 11.00774
1073.417, 11.21984
1073.899, 11.52552
1074.381, 11.65230
1074.863, 11.25638
1075.345, 10.87349
1075.827, 11.02532
1076.309, 11.29229
1076.791, 10.99431
1077.274, 10.29464
1077.756, 10.05232
1078.238, 10.64785
1078.720, 11.16958
1079.202, 11.06718
1079.684, 10.90083
1080.166, 11.14584
1080.648, 11.42174
1081.130, 11.19638
1081.613, 10.62926
1082.095, 10.28716
1082.577, 10.34395
1083.059, 10.47631
1083.541, 10.65324
1084.023, 10.73127
1084.505, 10.57140
1084.987, 10.32205
1085.469, 10.11997
1085.952, 9.952342
1086.434, 9.717219
1086.916, 9.387358
1087.398, 9.234187
1087.880, 9.500692
1088.362, 9.801723
1088.844, 9.961946
1089.326, 10.07007
1089.808, 10.18382
1090.291, 10.31136
1090.773, 10.49729
1091.255, 10.73378
1091.737, 10.80330
1092.219, 10.43625
1092.701, 10.15647
1093.183, 10.30665
1093.665, 10.47037
1094.148, 10.28227
1094.630, 9.948770
1095.112, 9.745838
1095.594, 9.719236
1096.076, 9.890310
1096.558, 10.49938
1097.040, 10.83837
1097.522, 10.43621
1098.005, 9.972945
1098.487, 9.810927
1098.969, 9.826855
1099.451, 9.885745
1099.933, 9.965755
1100.415, 10.07806
1100.897, 10.29865
1101.379, 10.32877
1101.861, 9.808486
1102.344, 9.437456
1102.826, 9.617482
1103.308, 9.992089
1103.790, 10.29119
1104.272, 10.49366
1104.754, 10.59667
1105.236, 10.57449
1105.718, 10.59302
1106.200, 10.85575
1106.683, 10.92415
1107.165, 10.43998
1107.647, 9.951334
1108.129, 9.794066
1108.611, 9.921902
1109.093, 10.34713
1109.575, 11.11654
1110.057, 11.41226
1110.540, 10.60888
1111.022, 10.14721
1111.504, 10.56688
1111.986, 10.99206
1112.468, 11.00277
1112.950, 10.76448
1113.432, 10.41852
1113.914, 9.986713
1114.396, 9.775219
1114.879, 10.06920
1115.361, 10.08461
1115.843, 9.453399
1116.325, 9.065054
1116.807, 9.365217
1117.289, 9.887454
1117.771, 10.24682
1118.253, 10.45885
1118.735, 10.58066
1119.218, 10.60175
1119.700, 10.56761
1120.182, 10.48514
1120.664, 10.31148
1121.146, 9.896063
1121.628, 9.647673
1122.110, 9.947233
1122.592, 10.52044
1123.075, 10.80033
1123.557, 10.77444
1124.039, 10.63929
1124.521, 10.34361
1125.003, 10.14683
1125.485, 10.15109
1125.967, 10.03472
1126.449, 9.578229
1126.932, 9.036340
1127.414, 8.718218
1127.896, 8.638061
1128.378, 8.994751
1128.860, 9.875965
1129.342, 10.26050
1129.824, 9.996136
1130.306, 9.891940
1130.788, 10.27536
1131.271, 10.64802
1131.753, 10.51592
1132.235, 10.11435
1132.717, 10.02955
1133.199, 10.24894
1133.681, 10.71693
1134.163, 11.40816
1134.645, 11.65960
1135.127, 11.32389
1135.610, 10.88530
1136.092, 10.64149
1136.574, 10.49810
1137.056, 10.30341
1137.538, 10.09598
1138.020, 9.980821
1138.502, 9.968027
1138.984, 10.20418
1139.467, 10.63138
1139.949, 10.78113
1140.431, 10.47499
1140.913, 10.06464
1141.395, 9.916736
1141.877, 9.791511
1142.359, 9.068766
1142.841, 8.188967
1143.323, 8.137488
1143.806, 8.757102
1144.288, 9.545549
1144.770, 10.27925
1145.252, 10.59575
1145.734, 10.19949
1146.216, 9.711561
1146.698, 9.728847
1147.180, 9.983787
1147.662, 10.29096
1148.145, 10.54801
1148.627, 10.54335
1149.109, 10.36270
1149.591, 10.38205
1150.073, 10.73483
1150.555, 10.90733
1151.037, 10.37565
1151.519, 9.832457
1152.002, 9.717834
1152.484, 9.802822
1152.966, 9.996755
1153.448, 10.17114
1153.930, 10.08402
1154.412, 9.747635
1154.894, 9.563560
1155.376, 9.704441
1155.859, 9.913965
1156.341, 10.23352
1156.823, 10.46080
1157.305, 10.48819
1157.787, 10.37737
1158.269, 10.09227
1158.751, 9.733161
1159.233, 9.635253
1159.715, 9.937011
1160.198, 10.05949
1160.680, 9.655508
1161.162, 9.534933
1161.644, 10.19812
1162.126, 10.71872
1162.608, 10.44538
1163.090, 9.833783
1163.572, 9.517504
1164.054, 9.490946
1164.537, 9.695166
1165.019, 10.26274
1165.501, 10.64427
1165.983, 10.79273
1166.465, 10.77413
1166.947, 10.54290
1167.429, 10.36731
1167.911, 10.52224
1168.394, 10.83564
1168.876, 10.84953
1169.358, 10.56267
1169.840, 10.34312
1170.322, 10.19116
1170.804, 10.15334
1171.286, 10.23934
1171.768, 10.34804
1172.250, 10.42776
1172.733, 10.49831
1173.215, 10.61571
1173.697, 10.69673
1174.179, 10.33285
1174.661, 9.778789
1175.143, 10.13055
1175.625, 11.16918
1176.107, 11.56347
1176.589, 11.03002
1177.072, 10.52693
1177.554, 10.70041
1178.036, 10.98514
1178.518, 10.66822
1179.000, 10.15928
1179.482, 10.00898
1179.964, 10.04577
1180.446, 9.936769
1180.929, 9.713464
1181.411, 9.602052
1181.893, 9.672658
1182.375, 9.834227
1182.857, 10.21858
1183.339, 10.43505
1183.821, 10.01713
1184.303, 9.595388
1184.786, 9.721132
1185.268, 10.13307
1185.750, 10.50009
1186.232, 10.76402
1186.714, 10.88842
1187.196, 10.84664
1187.678, 10.72623
1188.160, 10.42602
1188.642, 10.20721
1189.125, 10.14954
1189.607, 10.19898
1190.089, 10.31578
1190.571, 10.51625
1191.053, 10.86817
1191.535, 11.36814
1192.017, 11.67970
1192.499, 11.77108
1192.981, 11.77191
1193.464, 11.70000
1193.946, 11.49423
1194.428, 11.10226
1194.910, 10.66163
1195.392, 10.26666
1195.874, 9.973840
1196.356, 9.955094
1196.838, 10.18689
1197.321, 10.35166
1197.803, 10.45071
1198.285, 10.53022
1198.767, 10.59164
1199.249, 10.51927
1199.731, 10.26559
1200.213, 10.09259
1200.695, 10.31222
1201.177, 10.65866
1201.660, 10.69414
1202.142, 10.53300
1202.624, 10.34433
1203.106, 10.17256
1203.588, 10.08836
1204.070, 10.09124
1204.552, 10.09892
1205.034, 10.06451
1205.516, 10.15339
1205.999, 10.60390
1206.481, 11.07074
1206.963, 11.40672
1207.445, 11.54634
1207.927, 11.36954
1208.409, 10.98651
1208.891, 10.44848
1209.373, 9.839974
1209.856, 9.713192
1210.338, 10.53716
1210.820, 11.12389
1211.302, 11.19743
1211.784, 11.12686
1212.266, 10.98997
1212.748, 10.79361
1213.230, 10.42513
1213.713, 10.07926
1214.195, 10.18459
1214.677, 10.74700
1215.159, 11.06710
1215.641, 11.09214
1216.123, 11.10736
1216.605, 11.14055
1217.087, 11.15016
1217.569, 11.11996
1218.052, 11.06075
1218.534, 10.96922
1219.016, 10.90563
1219.498, 11.08107
1219.980, 11.38492
1220.462, 11.28815
1220.944, 10.87026
1221.426, 10.39750
1221.908, 9.962793
1222.391, 9.746619
1222.873, 9.814954
1223.355, 10.09430
1223.837, 10.62942
1224.319, 11.10705
1224.801, 11.17864
1225.283, 11.04558
1225.765, 10.82075
1226.248, 10.62015
1226.730, 10.57554
1227.212, 10.69531
1227.694, 11.03098
1228.176, 11.63671
1228.658, 11.84903
1229.140, 10.93062
1229.622, 10.34206
1230.104, 10.90512
1230.587, 11.46905
1231.069, 11.28082
1231.551, 10.84650
1232.033, 10.76470
1232.515, 10.92443
1232.997, 10.87874
1233.479, 10.53699
1233.961, 10.49792
1234.443, 10.87898
1234.926, 11.06178
1235.408, 10.87810
1235.890, 10.84165
1236.372, 11.24399
1236.854, 11.63562
1237.336, 11.46769
1237.818, 11.01897
1238.300, 11.07214
1238.783, 11.44913
1239.265, 11.39951
1239.747, 11.03077
1240.229, 10.94079
1240.711, 11.15115
1241.193, 11.11411
1241.675, 10.59584
1242.157, 10.16827
1242.640, 10.33836
1243.122, 10.72953
1243.604, 11.20246
1244.086, 11.56082
1244.568, 11.55162
1245.050, 11.33616
1245.532, 11.12706
1246.014, 10.95485
1246.496, 10.77930
1246.979, 10.54795
1247.461, 10.53061
1247.943, 11.05676
1248.425, 11.36749
1248.907, 11.19042
1249.389, 10.95308
1249.871, 10.81280
1250.353, 10.75365
1250.835, 10.75517
1251.318, 10.82576
1251.800, 11.04947
1252.282, 11.45778
1252.764, 11.44966
1253.246, 11.01432
1253.728, 10.84814
1254.210, 11.06202
1254.692, 11.20053
1255.175, 11.05920
1255.657, 10.99623
1256.139, 11.41372
1256.621, 11.93875
1257.103, 11.95482
1257.585, 11.74198
1258.067, 11.81515
1258.549, 11.97455
1259.031, 11.74092
1259.514, 11.19972
1259.996, 10.79925
1260.478, 10.67217
1260.960, 10.69064
1261.442, 10.92039
1261.924, 11.10702
1262.406, 11.07734
1262.888, 11.08627
1263.370, 11.47910
1263.853, 11.78956
1264.335, 11.38607
1264.817, 10.61587
1265.299, 10.32149
1265.781, 10.52164
1266.263, 10.92567
1266.745, 11.64902
1267.227, 11.93188
1267.710, 11.64201
1268.192, 11.37120
1268.674, 11.32461
1269.156, 11.40732
1269.638, 11.55730
1270.120, 11.71824
1270.602, 11.82119
1271.084, 11.85620
1271.567, 11.69756
1272.049, 11.50297
1272.531, 11.74333
1273.013, 12.22342
1273.495, 12.26020
1273.977, 11.78549
1274.459, 11.50122
1274.941, 11.80045
1275.423, 12.02846
1275.906, 11.69022
1276.388, 11.45127
1276.870, 11.75554
1277.352, 12.15729
1277.834, 12.38032
1278.316, 12.43095
1278.798, 12.32295
1279.280, 12.07366
1279.762, 11.77438
1280.245, 11.35637
1280.727, 11.18739
1281.209, 11.30447
1281.691, 11.49471
1282.173, 11.72841
1282.655, 11.83420
1283.137, 11.71941
1283.619, 11.57507
1284.102, 11.59227
1284.584, 11.73719
1285.066, 11.96078
1285.548, 12.26552
##END=



