##NAMES=Ferrowyllieite
##RRUFFID=R060178
##IDEAL CHEMISTRY=NaNaFe^2+^(Fe^2+^Al)(PO_4_)_3_
##LOCALITY=Victory mine, Custer County, South Dakota, USA
##OWNER=RRUFF
##SOURCE=Marcus Origlieri
##DESCRIPTION=Dark gray massive associated with muscovite
##STATUS=The identification of this mineral has been confirmed by X-ray diffraction and chemical analysis
##URL=rruff.info/R060178
##MEASURED CHEMISTRY=(Na_1.30_[box]_0.35_Mn^2+^_0.27_Ca_0.08_)_2_(Fe^2+^_1.78_Mg_0.22_)_Σ=2_(Al_0.75_Fe^3+^_0.25_)_Σ=1_(P_1.00_O_4_)_3_
90.26367, 17.87737
90.74579, 17.59124
91.22791, 17.77604
91.71002, 18.36803
92.19214, 18.79989
92.67426, 18.44634
93.15637, 17.54965
93.63850, 16.75764
94.12061, 16.27730
94.60273, 16.03931
95.08485, 15.95162
95.56696, 16.04095
96.04908, 16.10567
96.53120, 15.81609
97.01331, 15.19878
97.49543, 14.68869
97.97755, 14.59518
98.45966, 14.88309
98.94178, 14.80213
99.42390, 14.20860
99.90602, 13.44695
100.3881, 13.23464
100.8703, 13.71946
101.3524, 14.22875
101.8345, 14.37127
102.3166, 14.01793
102.7987, 13.87513
103.2808, 14.11734
103.7630, 14.60119
104.2451, 14.64674
104.7272, 13.99600
105.2093, 13.24825
105.6914, 12.79438
106.1735, 12.80873
106.6557, 12.82776
107.1378, 12.81338
107.6199, 12.76593
108.1020, 12.66295
108.5841, 12.46804
109.0662, 12.23581
109.5484, 12.01292
110.0305, 11.73805
110.5126, 11.53064
110.9947, 11.47367
111.4768, 11.64399
111.9590, 11.60546
112.4411, 11.09466
112.9232, 10.40613
113.4053, 9.933801
113.8874, 9.775286
114.3695, 9.814637
114.8517, 10.08291
115.3338, 10.75496
115.8159, 11.21085
116.2980, 11.03162
116.7801, 10.49933
117.2622, 10.23006
117.7444, 10.73097
118.2265, 11.40521
118.7086, 11.84628
119.1907, 11.85746
119.6728, 11.79720
120.1549, 11.83415
120.6371, 11.95806
121.1192, 12.12813
121.6013, 12.38054
122.0834, 12.64552
122.5655, 12.81254
123.0477, 12.44732
123.5298, 12.32171
124.0119, 13.44650
124.4940, 15.73256
124.9761, 17.92966
125.4582, 18.91868
125.9404, 19.09757
126.4225, 19.23271
126.9046, 19.44842
127.3867, 19.85520
127.8688, 20.78526
128.3509, 22.29328
128.8331, 23.79166
129.3152, 24.53275
129.7973, 24.65046
130.2794, 24.80018
130.7615, 25.30514
131.2436, 26.08511
131.7258, 26.87329
132.2079, 27.66290
132.6900, 28.45135
133.1721, 29.15046
133.6542, 29.75422
134.1364, 30.57534
134.6185, 31.89996
135.1006, 33.71144
135.5827, 35.38594
136.0648, 36.87914
136.5469, 38.22876
137.0291, 39.54832
137.5112, 40.85447
137.9933, 42.02431
138.4754, 42.97352
138.9575, 43.67031
139.4396, 44.28762
139.9218, 44.82045
140.4039, 45.28564
140.8860, 45.76247
141.3681, 46.27082
141.8502, 46.74966
142.3323, 47.07513
142.8145, 47.05659
143.2966, 47.42037
143.7787, 48.51361
144.2608, 50.32027
144.7429, 51.23825
145.2251, 50.70173
145.7072, 49.79356
146.1893, 49.54085
146.6714, 50.25842
147.1535, 51.16478
147.6356, 52.17612
148.1178, 53.32554
148.5999, 54.32707
149.0820, 55.01725
149.5641, 55.62442
150.0462, 56.41198
150.5283, 57.67408
151.0105, 58.81333
151.4926, 59.07397
151.9747, 58.68431
152.4568, 58.68927
152.9389, 59.60297
153.4210, 60.80050
153.9032, 61.41710
154.3853, 61.00312
154.8674, 60.33394
155.3495, 59.58391
155.8316, 58.56345
156.3138, 57.91529
156.7959, 57.87739
157.2780, 58.25477
157.7601, 58.68366
158.2422, 59.35486
158.7243, 59.86267
159.2065, 59.97926
159.6886, 59.40253
160.1707, 58.91088
160.6528, 58.73056
161.1349, 58.80028
161.6170, 58.96327
162.0992, 59.61953
162.5813, 60.07868
163.0634, 59.82112
163.5455, 58.07196
164.0276, 56.49594
164.5097, 55.90444
164.9919, 56.12733
165.4740, 56.51708
165.9561, 56.91920
166.4382, 57.27110
166.9203, 57.51988
167.4025, 57.61757
167.8846, 57.64425
168.3667, 57.60896
168.8488, 57.52597
169.3309, 57.48821
169.8130, 57.52006
170.2952, 57.63734
170.7773, 57.86515
171.2594, 58.45945
171.7415, 58.98067
172.2236, 58.95320
172.7057, 58.41186
173.1879, 57.87157
173.6700, 57.77125
174.1521, 57.92217
174.6342, 58.00429
175.1163, 57.69617
175.5984, 57.35340
176.0806, 57.56399
176.5627, 58.33527
177.0448, 58.94693
177.5269, 58.54518
178.0090, 57.48009
178.4911, 56.57113
178.9733, 56.25776
179.4554, 56.29274
179.9375, 56.33949
180.4196, 56.40278
180.9017, 56.38332
181.3839, 56.06029
181.8660, 55.53436
182.3481, 55.15160
182.8302, 55.21581
183.3123, 55.52655
183.7944, 55.60584
184.2766, 55.41980
184.7587, 55.13027
185.2408, 54.89299
185.7229, 54.71069
186.2050, 54.58688
186.6871, 54.51611
187.1693, 54.50413
187.6514, 54.59219
188.1335, 54.79891
188.6156, 55.04811
189.0977, 55.24278
189.5798, 55.38263
190.0620, 55.49156
190.5441, 55.63169
191.0262, 55.77360
191.5083, 55.70088
191.9904, 55.35720
192.4725, 54.89674
192.9547, 54.55601
193.4368, 54.33282
193.9189, 54.20110
194.4010, 54.15841
194.8831, 54.20235
195.3652, 54.30035
195.8474, 54.46283
196.3295, 54.65919
196.8116, 54.79177
197.2937, 54.84193
197.7758, 54.99312
198.2579, 55.49951
198.7401, 56.37830
199.2222, 56.77144
199.7043, 56.50505
200.1864, 55.84650
200.6685, 55.35621
201.1507, 55.03774
201.6328, 54.88203
202.1149, 54.93348
202.5970, 55.21673
203.0791, 55.43679
203.5612, 55.53086
204.0434, 55.57428
204.5255, 55.83942
205.0076, 56.42767
205.4897, 56.89172
205.9718, 56.90765
206.4539, 56.39782
206.9361, 55.90365
207.4182, 55.45332
207.9003, 55.05954
208.3824, 54.74700
208.8645, 54.51348
209.3466, 54.36592
209.8288, 54.31366
210.3109, 54.36740
210.7930, 54.47460
211.2751, 54.65074
211.7572, 54.87162
212.2393, 55.04932
212.7215, 55.16271
213.2036, 55.27474
213.6857, 55.45569
214.1678, 55.77574
214.6499, 55.91518
215.1321, 55.79587
215.6142, 55.47892
216.0963, 55.23166
216.5784, 55.06953
217.0605, 54.94775
217.5426, 54.81705
218.0248, 54.62027
218.5069, 54.60450
218.9890, 54.88858
219.4711, 55.37527
219.9532, 55.57845
220.4353, 55.35455
220.9175, 55.08739
221.3996, 55.03445
221.8817, 55.30614
222.3638, 55.50764
222.8459, 55.60389
223.3280, 55.60215
223.8102, 55.51591
224.2923, 55.26739
224.7744, 55.05006
225.2565, 55.03606
225.7386, 55.43373
226.2208, 55.50806
226.7029, 55.05346
227.1850, 54.20134
227.6671, 53.64272
228.1492, 53.39809
228.6313, 53.41589
229.1135, 53.74575
229.5956, 54.73409
230.0777, 55.24056
230.5598, 54.99351
231.0419, 54.17418
231.5240, 53.67301
232.0062, 53.59593
232.4883, 53.69279
232.9704, 53.83834
233.4525, 54.09876
233.9346, 54.25783
234.4167, 54.25447
234.8989, 54.13140
235.3810, 54.09632
235.8631, 54.21309
236.3452, 54.33240
236.8273, 54.38926
237.3095, 54.45124
237.7916, 54.27961
238.2737, 53.68402
238.7558, 52.83222
239.2379, 52.44428
239.7200, 52.74666
240.2022, 53.20554
240.6843, 53.56801
241.1664, 53.89657
241.6485, 53.98739
242.1306, 53.78658
242.6127, 53.34287
243.0949, 52.81092
243.5770, 52.01602
244.0591, 51.37501
244.5412, 51.16143
245.0233, 51.70274
245.5054, 51.91101
245.9876, 51.53330
246.4697, 50.83010
246.9518, 49.77379
247.4339, 50.77829
247.9160, 51.28100
248.3981, 51.30889
248.8803, 49.43977
249.3624, 50.02023
249.8445, 49.61902
250.3266, 49.17756
250.8087, 50.10279
251.2909, 48.50958
251.7730, 49.41314
252.2551, 49.32004
252.7372, 49.68308
253.2193, 49.05840
253.7014, 48.73879
254.1836, 49.40720
254.6657, 49.08237
255.1478, 48.67812
255.6299, 48.16866
256.1120, 47.91373
256.5941, 48.04763
257.0763, 47.97649
257.5584, 47.51199
258.0405, 46.96078
258.5226, 47.01664
259.0047, 48.02381
259.4868, 48.92939
259.9690, 49.30777
260.4511, 49.05091
260.9332, 48.74021
261.4153, 48.30786
261.8974, 47.87698
262.3795, 47.73108
262.8617, 48.08599
263.3438, 48.19459
263.8259, 47.67992
264.3080, 46.39373
264.7901, 45.58141
265.2722, 45.35041
265.7544, 45.46320
266.2365, 45.65006
266.7186, 45.99798
267.2007, 46.14454
267.6829, 45.88887
268.1650, 45.18910
268.6471, 44.81144
269.1292, 44.85115
269.6113, 45.05153
270.0934, 45.13258
270.5756, 45.11508
271.0577, 43.90587
271.5398, 45.17428
272.0219, 45.94091
272.5040, 46.23271
272.9861, 44.62754
273.4683, 45.47194
273.9504, 45.33465
274.4325, 45.15710
274.9146, 46.02486
275.3967, 45.73678
275.8788, 44.96161
276.3610, 44.43848
276.8431, 44.18153
277.3252, 44.14572
277.8073, 44.41335
278.2894, 45.03382
278.7715, 45.37720
279.2537, 45.25356
279.7358, 44.77447
280.2179, 44.38096
280.7000, 44.07048
281.1821, 43.85479
281.6642, 43.72748
282.1464, 43.68822
282.6285, 43.82174
283.1106, 44.22647
283.5927, 44.74235
284.0748, 44.89256
284.5569, 44.64434
285.0391, 44.32218
285.5212, 44.21027
286.0033, 44.27563
286.4854, 44.07813
286.9675, 43.45650
287.4496, 42.70870
287.9318, 42.49971
288.4139, 42.83677
288.8960, 43.21252
289.3781, 43.36591
289.8602, 43.31240
290.3424, 43.07247
290.8245, 42.58088
291.3066, 42.07648
291.7887, 41.99668
292.2708, 42.30160
292.7530, 42.62498
293.2351, 42.70388
293.7172, 42.64159
294.1993, 42.85868
294.6814, 43.45813
295.1635, 43.94423
295.6457, 43.56195
296.1278, 42.47392
296.6099, 41.36823
297.0920, 40.42826
297.5741, 39.72689
298.0562, 39.50808
298.5384, 39.79972
299.0205, 40.27160
299.5026, 40.76591
299.9847, 41.19972
300.4668, 41.35839
300.9489, 40.88605
301.4311, 40.22718
301.9132, 40.13825
302.3953, 40.59266
302.8774, 40.94139
303.3595, 40.47024
303.8416, 39.56250
304.3238, 38.88051
304.8059, 38.71852
305.2880, 38.80537
305.7701, 38.92329
306.2522, 39.06987
306.7343, 39.22371
307.2165, 39.48478
307.6986, 39.70775
308.1807, 39.68005
308.6628, 39.19854
309.1449, 38.69938
309.6270, 38.57671
310.1092, 38.72597
310.5913, 38.81581
311.0734, 38.58110
311.5555, 38.25092
312.0376, 38.00787
312.5197, 37.86278
313.0019, 37.86535
313.4840, 38.25073
313.9661, 38.79971
314.4482, 39.06900
314.9304, 38.58381
315.4125, 37.96530
315.8946, 37.59475
316.3767, 37.54712
316.8588, 37.58786
317.3409, 37.74949
317.8231, 37.90903
318.3052, 37.90444
318.7873, 37.30753
319.2694, 36.86841
319.7515, 37.01519
320.2336, 37.81799
320.7158, 38.47282
321.1979, 38.80775
321.6800, 38.86540
322.1621, 38.68102
322.6442, 37.83927
323.1263, 37.19054
323.6085, 37.05327
324.0906, 37.38990
324.5727, 37.57072
325.0548, 37.32637
325.5369, 37.01336
326.0190, 36.84755
326.5012, 36.97000
326.9833, 37.09600
327.4654, 37.17141
327.9475, 37.22564
328.4296, 36.95421
328.9117, 37.39135
329.3939, 37.61942
329.8760, 37.64964
330.3581, 36.88945
330.8402, 37.14991
331.3223, 37.00135
331.8044, 36.83601
332.2866, 37.24012
332.7687, 36.59489
333.2508, 36.98998
333.7329, 36.96979
334.2150, 37.13966
334.6971, 36.89798
335.1793, 36.78340
335.6614, 37.08052
336.1435, 36.64037
336.6256, 36.71506
337.1077, 36.82397
337.5899, 36.98078
338.0720, 37.17346
338.5541, 37.01098
339.0362, 36.31830
339.5183, 35.66057
340.0005, 35.69032
340.4826, 36.55209
340.9647, 37.05162
341.4468, 36.86609
341.9289, 36.24593
342.4110, 36.00838
342.8932, 36.18964
343.3753, 36.52529
343.8574, 36.92422
344.3395, 37.37214
344.8216, 37.55866
345.3037, 37.38096
345.7859, 37.07271
346.2680, 37.13191
346.7501, 37.52745
347.2322, 37.75474
347.7143, 37.34706
348.1964, 36.54622
348.6786, 36.17706
349.1607, 36.31147
349.6428, 36.60787
350.1249, 36.73208
350.6070, 36.70905
351.0891, 36.61219
351.5713, 36.31381
352.0534, 36.03696
352.5355, 36.26674
353.0176, 36.97601
353.4997, 37.53841
353.9818, 37.25105
354.4640, 36.54360
354.9461, 36.07781
355.4282, 36.13014
355.9103, 36.38448
356.3924, 36.22663
356.8745, 36.73520
357.3567, 37.03470
357.8388, 37.13635
358.3209, 36.44759
358.8030, 36.77948
359.2851, 36.70235
359.7672, 36.60844
360.2494, 37.08399
360.7315, 36.51020
361.2136, 36.62791
361.6957, 37.05589
362.1779, 37.27478
362.6600, 37.29584
363.1421, 36.52649
363.6242, 36.77778
364.1063, 36.62005
364.5884, 36.44555
365.0706, 36.84049
365.5527, 36.18610
366.0348, 36.40464
366.5169, 36.83369
366.9990, 37.76953
367.4811, 38.30176
367.9633, 37.85897
368.4454, 37.32278
368.9275, 37.20756
369.4096, 38.18605
369.8917, 38.65759
370.3738, 38.28780
370.8560, 37.40308
371.3381, 36.93873
371.8202, 37.21581
372.3023, 37.47016
372.7844, 37.35972
373.2665, 36.72455
373.7487, 36.39868
374.2308, 36.50387
374.7129, 36.79609
375.1950, 36.97260
375.6771, 37.04458
376.1592, 36.95523
376.6414, 36.62815
377.1235, 36.10034
377.6056, 35.74166
378.0877, 35.57546
378.5698, 35.49199
379.0519, 35.41365
379.5341, 35.34150
380.0162, 35.24190
380.4983, 35.11366
380.9804, 34.95008
381.4625, 34.67289
381.9446, 34.28347
382.4268, 34.04163
382.9089, 34.29381
383.3910, 34.83504
383.8731, 34.91975
384.3553, 34.41407
384.8374, 33.81883
385.3195, 33.76472
385.8016, 34.10946
386.2837, 34.43422
386.7658, 34.65902
387.2480, 34.70777
387.7301, 34.34842
388.2122, 33.60367
388.6943, 32.96144
389.1764, 32.93819
389.6585, 33.18163
390.1407, 33.22570
390.6228, 32.74749
391.1049, 32.31525
391.5870, 32.46734
392.0691, 33.00143
392.5512, 33.30812
393.0334, 32.79383
393.5155, 32.18122
393.9976, 31.93615
394.4797, 32.18654
394.9618, 32.58372
395.4439, 33.30062
395.9261, 34.02166
396.4082, 34.32616
396.8903, 33.47385
397.3724, 32.84585
397.8545, 33.05783
398.3366, 34.17078
398.8188, 34.69923
399.3009, 33.37150
399.7830, 34.17884
400.2651, 34.77712
400.7472, 35.17754
401.2293, 34.78757
401.7115, 35.41830
402.1936, 34.74765
402.6757, 34.55972
403.1578, 35.07166
403.6399, 35.53468
404.1220, 35.58303
404.6042, 35.11059
405.0863, 34.84661
405.5684, 34.81961
406.0505, 34.95833
406.5326, 35.20908
407.0147, 35.59233
407.4969, 35.94024
407.9790, 36.21126
408.4611, 36.41458
408.9432, 36.59383
409.4254, 36.75140
409.9075, 36.85064
410.3896, 36.81858
410.8717, 36.69172
411.3538, 36.65874
411.8359, 36.78846
412.3181, 36.91699
412.8002, 36.76587
413.2823, 36.39713
413.7644, 36.04870
414.2465, 35.88301
414.7286, 35.79444
415.2108, 35.59944
415.6929, 35.28609
416.1750, 35.05875
416.6571, 35.18227
417.1392, 35.45620
417.6213, 35.60982
418.1035, 35.44324
418.5856, 35.24835
419.0677, 34.94737
419.5498, 34.29659
420.0319, 34.64557
420.5140, 34.78547
420.9962, 34.72750
421.4783, 33.87914
421.9604, 34.05145
422.4425, 33.81471
422.9246, 33.56121
423.4067, 33.87716
423.8889, 33.14375
424.3710, 33.45066
424.8531, 33.29296
425.3352, 33.37049
425.8173, 33.63284
426.2994, 33.83344
426.7816, 34.04609
427.2637, 34.11973
427.7458, 33.91462
428.2279, 33.22350
428.7100, 32.75518
429.1921, 32.59493
429.6743, 32.65744
430.1564, 32.78789
430.6385, 33.02241
431.1206, 33.18184
431.6028, 33.12034
432.0849, 32.85654
432.5670, 32.88750
433.0491, 33.26409
433.5312, 33.72889
434.0133, 34.04512
434.4955, 34.21944
434.9776, 34.28334
435.4597, 34.20846
435.9418, 34.07379
436.4239, 33.98044
436.9060, 33.93735
437.3882, 33.99615
437.8703, 34.24702
438.3524, 34.59951
438.8345, 34.97851
439.3166, 35.40470
439.7987, 35.65844
440.2809, 35.39050
440.7630, 34.86707
441.2451, 34.50595
441.7272, 34.43418
442.2093, 34.59703
442.6914, 35.08125
443.1736, 35.83303
443.6557, 36.50639
444.1378, 37.00980
444.6199, 37.37349
445.1020, 37.59133
445.5841, 37.54062
446.0663, 37.58334
446.5484, 37.75249
447.0305, 38.04711
447.5126, 38.47960
447.9947, 39.37209
448.4768, 39.99389
448.9590, 40.01978
449.4411, 39.42751
449.9232, 39.41088
450.4053, 40.27612
450.8874, 41.27456
451.3695, 41.79967
451.8517, 41.70391
452.3338, 41.82955
452.8159, 42.34124
453.2980, 43.00316
453.7801, 43.28687
454.2622, 43.16138
454.7444, 43.07996
455.2265, 43.30992
455.7086, 43.75966
456.1907, 44.01495
456.6729, 44.06859
457.1550, 44.05902
457.6371, 44.07076
458.1192, 44.12067
458.6013, 44.24680
459.0834, 44.44880
459.5656, 44.74640
460.0477, 45.21084
460.5298, 45.79957
461.0119, 46.36150
461.4940, 46.81438
461.9761, 47.22563
462.4583, 47.65144
462.9404, 48.10289
463.4225, 48.53138
463.9046, 48.71250
464.3867, 48.95689
464.8688, 49.55294
465.3510, 51.13308
465.8331, 52.43841
466.3152, 53.07756
466.7973, 53.21127
467.2794, 53.41925
467.7615, 53.85171
468.2437, 54.25598
468.7258, 54.54572
469.2079, 54.69615
469.6900, 54.81630
470.1721, 54.82692
470.6542, 54.89288
471.1364, 55.23008
471.6185, 55.93133
472.1006, 56.53829
472.5827, 56.97490
473.0648, 57.26332
473.5469, 57.49960
474.0291, 57.69574
474.5112, 57.70190
474.9933, 57.22517
475.4754, 56.44310
475.9575, 56.26570
476.4396, 56.80424
476.9218, 57.33131
477.4039, 56.95639
477.8860, 55.97601
478.3681, 55.07232
478.8503, 54.44870
479.3324, 54.00546
479.8145, 53.72766
480.2966, 53.56681
480.7787, 53.35876
481.2608, 52.99293
481.7430, 52.56153
482.2251, 52.10658
482.7072, 51.61865
483.1893, 51.19297
483.6714, 50.57546
484.1535, 49.78349
484.6357, 49.95596
485.1178, 49.91943
485.5999, 49.68504
486.0820, 48.66026
486.5641, 48.65613
487.0462, 48.24295
487.5284, 47.81293
488.0105, 47.95245
488.4926, 47.04262
488.9747, 47.17311
489.4568, 46.88832
489.9389, 46.79358
490.4211, 46.28723
490.9032, 45.90807
491.3853, 45.94057
491.8674, 45.74515
492.3495, 45.19149
492.8316, 44.82722
493.3138, 44.58806
493.7959, 44.27001
494.2780, 43.97295
494.7601, 43.75489
495.2422, 43.59874
495.7243, 43.52671
496.2065, 43.54499
496.6886, 43.46751
497.1707, 43.05883
497.6528, 42.48655
498.1349, 41.97964
498.6170, 41.61994
499.0992, 41.30814
499.5813, 40.92120
500.0634, 40.53553
500.5455, 40.33326
501.0276, 40.75267
501.5097, 41.02874
501.9919, 40.75096
502.4740, 39.78538
502.9561, 39.04749
503.4382, 38.74834
503.9203, 38.58989
504.4025, 38.36290
504.8846, 37.97579
505.3667, 37.74779
505.8488, 37.87459
506.3309, 38.06212
506.8130, 37.54739
507.2952, 36.13415
507.7773, 34.91383
508.2594, 34.38568
508.7415, 34.41362
509.2236, 34.17961
509.7057, 33.66733
510.1879, 33.10420
510.6700, 32.65875
511.1521, 32.30883
511.6342, 31.96914
512.1163, 31.61423
512.5984, 31.32448
513.0806, 31.24655
513.5627, 31.29593
514.0448, 31.29601
514.5269, 31.11767
515.0090, 30.90611
515.4911, 30.79795
515.9733, 30.76530
516.4554, 30.62387
516.9375, 30.30878
517.4196, 29.85761
517.9017, 29.23784
518.3839, 28.25430
518.8660, 27.57534
519.3481, 27.64764
519.8302, 27.88808
520.3123, 27.65191
520.7944, 26.57164
521.2766, 25.68443
521.7587, 25.17210
522.2408, 24.96616
522.7229, 24.80811
523.2050, 24.71864
523.6871, 24.60239
524.1693, 24.43711
524.6514, 24.21898
525.1335, 23.81863
525.6156, 23.21206
526.0977, 22.56948
526.5798, 21.92788
527.0620, 21.37123
527.5441, 20.83283
528.0262, 21.24796
528.5083, 21.45400
528.9904, 21.46220
529.4725, 20.68000
529.9547, 20.91842
530.4368, 20.74784
530.9189, 20.56048
531.4010, 20.94257
531.8831, 20.27532
532.3652, 20.64839
532.8474, 20.60617
533.3295, 20.75401
533.8116, 20.49031
534.2937, 20.35372
534.7758, 20.62882
535.2579, 20.67597
535.7401, 20.29055
536.2222, 19.98797
536.7043, 20.42215
537.1865, 20.66385
537.6686, 20.72435
538.1507, 20.01105
538.6328, 20.33502
539.1149, 20.26659
539.5970, 20.19799
540.0792, 20.71550
540.5613, 20.20026
541.0434, 20.74196
541.5255, 20.88501
542.0076, 21.23474
542.4897, 21.18952
542.9719, 21.28809
543.4540, 21.81491
543.9361, 22.13042
544.4182, 22.10432
544.9003, 22.56586
545.3824, 22.20244
545.8646, 22.89864
546.3467, 23.20558
546.8288, 23.41456
547.3109, 23.53275
547.7930, 23.55946
548.2751, 23.61074
548.7573, 23.57838
549.2394, 23.67621
549.7215, 24.05700
550.2036, 25.00195
550.6857, 25.57202
551.1678, 25.61539
551.6500, 25.44012
552.1321, 25.47165
552.6142, 25.73854
553.0963, 26.02019
553.5784, 26.24839
554.0605, 26.47378
554.5427, 26.91877
555.0248, 27.56306
555.5069, 28.03639
555.9890, 27.88999
556.4711, 27.49581
556.9532, 27.58553
557.4354, 28.18490
557.9175, 28.79173
558.3996, 28.98606
558.8817, 28.99881
559.3638, 29.07837
559.8459, 29.29905
560.3281, 29.55769
560.8102, 29.95951
561.2923, 30.33962
561.7744, 30.43446
562.2565, 29.65033
562.7386, 29.18555
563.2208, 29.45665
563.7029, 30.32609
564.1850, 30.82133
564.6671, 30.73894
565.1492, 30.63619
565.6313, 30.81215
566.1135, 31.29462
566.5956, 31.68751
567.0777, 32.01179
567.5598, 32.16190
568.0419, 31.85446
568.5240, 31.21723
569.0062, 30.93567
569.4883, 31.23294
569.9704, 31.72421
570.4525, 31.99449
570.9346, 32.07450
571.4167, 32.03401
571.8989, 31.66657
572.3810, 31.38866
572.8631, 31.66024
573.3452, 32.37091
573.8273, 32.78622
574.3094, 32.18403
574.7916, 31.55918
575.2737, 31.52021
575.7558, 32.40981
576.2379, 32.94930
576.7200, 32.86155
577.2021, 32.61521
577.6843, 32.64273
578.1664, 33.07272
578.6485, 33.38115
579.1306, 33.47671
579.6127, 33.46867
580.0948, 33.56646
580.5770, 33.76905
581.0591, 34.05207
581.5412, 34.47201
582.0233, 34.92683
582.5054, 35.13645
582.9875, 35.13248
583.4697, 35.17815
583.9518, 35.61390
584.4340, 36.10435
584.9161, 36.20483
585.3982, 35.81659
585.8803, 35.54287
586.3624, 35.77810
586.8445, 36.22501
587.3267, 36.60865
587.8088, 36.66816
588.2909, 36.92537
588.7730, 37.61432
589.2551, 38.49038
589.7372, 39.14761
590.2194, 39.53532
590.7015, 39.79340
591.1836, 39.89653
591.6657, 39.89540
592.1478, 40.08250
592.6299, 40.48130
593.1121, 40.87833
593.5942, 41.14639
594.0763, 41.30724
594.5584, 41.38236
595.0405, 41.36341
595.5226, 41.46687
596.0048, 42.04876
596.4869, 42.81939
596.9690, 43.34504
597.4511, 43.44920
597.9332, 43.50523
598.4153, 43.73186
598.8975, 44.04508
599.3796, 44.32549
599.8617, 44.45019
600.3438, 44.64206
600.8259, 45.09991
601.3080, 45.69873
601.7902, 45.91831
602.2723, 45.62650
602.7544, 45.16381
603.2365, 44.57022
603.7186, 43.85656
604.2007, 43.40516
604.6829, 43.22042
605.1650, 43.28906
605.6471, 43.83166
606.1292, 44.66423
606.6113, 44.93797
607.0934, 44.48077
607.5756, 43.91229
608.0577, 43.96645
608.5398, 44.32784
609.0219, 44.45001
609.5040, 43.99364
609.9861, 43.48993
610.4683, 43.17870
610.9504, 43.03836
611.4325, 43.01868
611.9146, 43.39753
612.3967, 43.59821
612.8788, 43.31145
613.3610, 42.60307
613.8431, 42.22991
614.3252, 42.32969
614.8073, 42.53965
615.2894, 42.69690
615.7715, 42.79867
616.2537, 42.87254
616.7358, 42.91221
617.2179, 42.94985
617.7000, 43.10946
618.1821, 43.30468
618.6642, 43.20215
619.1464, 42.69695
619.6285, 42.05611
620.1106, 41.38333
620.5927, 40.78982
621.0748, 40.46838
621.5569, 40.86704
622.0391, 41.17079
622.5212, 40.85167
623.0033, 40.13423
623.4854, 39.70716
623.9675, 40.16692
624.4496, 40.43612
624.9318, 40.13358
625.4139, 39.27384
625.8960, 38.60157
626.3781, 38.15852
626.8602, 37.82138
627.3423, 37.59515
627.8245, 37.46990
628.3066, 37.04268
628.7887, 36.26794
629.2708, 35.41951
629.7529, 34.72872
630.2350, 34.18716
630.7172, 33.78638
631.1993, 33.57533
631.6815, 33.36204
632.1636, 33.03821
632.6457, 32.59820
633.1278, 32.02845
633.6099, 31.05242
634.0920, 30.23847
634.5742, 29.85518
635.0563, 29.79459
635.5384, 29.61752
636.0205, 29.32817
636.5026, 28.89614
636.9847, 28.25112
637.4669, 27.41851
637.9490, 26.74397
638.4311, 26.21857
638.9132, 25.86678
639.3953, 25.83132
639.8774, 26.00604
640.3596, 25.82806
640.8417, 25.24669
641.3238, 24.70352
641.8059, 24.78173
642.2880, 25.10536
642.7701, 25.10833
643.2523, 24.54081
643.7344, 23.99039
644.2165, 23.73010
644.6986, 23.66868
645.1807, 23.68682
645.6628, 23.95385
646.1450, 24.05735
646.6271, 23.88864
647.1092, 23.53603
647.5913, 23.20036
648.0734, 22.82809
648.5555, 22.63735
649.0377, 22.81874
649.5198, 23.21510
650.0019, 22.99094
650.4840, 22.15098
650.9661, 21.44328
651.4482, 21.59922
651.9304, 22.11227
652.4125, 21.96399
652.8946, 21.12878
653.3767, 20.45913
653.8588, 20.76055
654.3409, 21.32425
654.8231, 21.53417
655.3052, 21.15446
655.7873, 20.79716
656.2694, 20.66445
656.7515, 20.57378
657.2336, 20.33370
657.7158, 19.79278
658.1979, 19.42414
658.6800, 19.24938
659.1621, 19.27680
659.6442, 19.67277
660.1263, 20.44409
660.6085, 20.83000
661.0906, 20.43986
661.5727, 19.72148
662.0548, 19.47428
662.5369, 19.59522
663.0190, 19.69152
663.5012, 19.52241
663.9833, 19.27124
664.4654, 19.05540
664.9475, 18.88147
665.4296, 18.74607
665.9117, 18.56754
666.3939, 18.49698
666.8760, 18.67560
667.3581, 19.17004
667.8402, 19.44343
668.3223, 19.42832
668.8044, 19.30341
669.2866, 19.18176
669.7687, 19.06177
670.2508, 18.96682
670.7329, 18.89786
671.2150, 18.85329
671.6971, 18.81260
672.1793, 18.79419
672.6614, 18.85869
673.1435, 19.05096
673.6256, 19.24710
674.1077, 19.46926
674.5898, 19.60257
675.0720, 19.46891
675.5541, 18.59953
676.0362, 17.91847
676.5183, 17.68134
677.0004, 17.82263
677.4825, 18.19624
677.9647, 19.09539
678.4468, 19.63942
678.9290, 19.48557
679.4111, 18.79587
679.8932, 18.31199
680.3753, 18.04131
680.8574, 17.90124
681.3395, 17.87632
681.8217, 17.93944
682.3038, 18.05890
682.7859, 18.22938
683.2680, 18.38073
683.7501, 18.46377
684.2322, 18.50998
684.7144, 18.54926
685.1965, 18.58759
685.6786, 18.59959
686.1607, 18.58974
686.6428, 18.54168
687.1249, 18.43645
687.6071, 18.21165
688.0892, 18.08724
688.5713, 18.11029
689.0534, 18.15866
689.5355, 18.02668
690.0176, 17.72841
690.4998, 17.65091
690.9819, 17.92072
691.4640, 18.27161
691.9461, 18.32023
692.4282, 18.17112
692.9103, 18.05404
693.3925, 18.09493
693.8746, 18.14578
694.3567, 18.16030
694.8388, 18.11978
695.3209, 17.98047
695.8030, 17.46326
696.2852, 17.16022
696.7673, 17.30301
697.2494, 17.78198
697.7315, 17.98444
698.2136, 17.79560
698.6957, 17.71987
699.1779, 18.11402
699.6600, 18.79492
700.1421, 18.82659
700.6242, 18.24397
701.1063, 17.70034
701.5884, 17.76232
702.0706, 18.06479
702.5527, 18.06075
703.0348, 17.71556
703.5169, 17.29125
703.9990, 17.77675
704.4811, 18.05317
704.9633, 18.13175
705.4454, 17.41992
705.9275, 17.72874
706.4096, 17.62853
706.8917, 17.51155
707.3738, 17.96402
707.8560, 17.36715
708.3381, 17.81059
708.8202, 17.83876
709.3023, 18.05698
709.7844, 17.86366
710.2665, 17.79744
710.7487, 18.14292
711.2308, 18.26044
711.7129, 18.01973
712.1950, 18.25004
712.6771, 17.63880
713.1592, 17.76603
713.6414, 18.21188
714.1235, 17.42036
714.6056, 17.24920
715.0877, 17.26237
715.5698, 17.38052
716.0519, 17.62793
716.5341, 17.93478
717.0162, 18.35455
717.4983, 18.76844
717.9804, 18.78622
718.4625, 18.14685
718.9446, 18.54156
719.4268, 18.72716
719.9089, 18.71494
720.3910, 17.91231
720.8731, 18.13033
721.3552, 17.93931
721.8373, 17.73154
722.3195, 18.09318
722.8016, 17.40553
723.2837, 17.75816
723.7658, 17.69553
724.2479, 17.82296
724.7300, 18.36648
725.2122, 18.85313
725.6943, 18.88902
726.1765, 18.59846
726.6586, 17.90037
727.1407, 17.37390
727.6228, 17.68089
728.1049, 18.45925
728.5870, 18.83703
729.0692, 18.74014
729.5513, 18.52369
730.0334, 18.32405
730.5155, 18.19295
730.9976, 18.21157
731.4797, 18.47195
731.9619, 18.63249
732.4440, 18.53802
732.9261, 18.38913
733.4082, 18.33317
733.8903, 18.39057
734.3724, 18.48270
734.8546, 18.61695
735.3367, 18.75719
735.8188, 18.92404
736.3009, 19.07367
736.7830, 18.94012
737.2651, 18.36893
737.7473, 17.83322
738.2294, 17.87560
738.7115, 18.24211
739.1936, 18.55752
739.6757, 18.68355
740.1578, 18.76774
740.6400, 18.78870
741.1221, 18.81009
741.6042, 18.97518
742.0863, 19.50390
742.5684, 19.64211
743.0505, 19.10814
743.5327, 18.28463
744.0148, 18.05712
744.4969, 18.39017
744.9790, 18.81333
745.4611, 19.21964
745.9432, 19.55112
746.4254, 19.74688
746.9075, 19.81050
747.3896, 19.74676
747.8717, 19.46905
748.3538, 19.15439
748.8359, 18.81233
749.3181, 18.47993
749.8002, 18.33634
750.2823, 18.51848
750.7644, 18.65104
751.2465, 18.58919
751.7286, 18.39063
752.2108, 18.14007
752.6929, 17.81936
753.1750, 17.80277
753.6571, 18.31855
754.1392, 18.62525
754.6213, 18.73410
755.1035, 18.05256
755.5856, 18.39165
756.0677, 18.32172
756.5498, 18.23502
757.0319, 18.71777
757.5140, 18.15117
757.9962, 18.62490
758.4783, 18.68334
758.9604, 18.93185
759.4425, 18.76880
759.9246, 18.42902
760.4067, 18.38477
760.8889, 18.58987
761.3710, 18.85049
761.8531, 19.10186
762.3352, 19.28397
762.8173, 19.22036
763.2994, 18.91327
763.7816, 18.65288
764.2637, 18.60746
764.7458, 18.68814
765.2279, 18.83759
765.7100, 19.05540
766.1921, 19.33968
766.6743, 19.86329
767.1564, 20.24252
767.6385, 20.15370
768.1206, 19.51591
768.6027, 19.17659
769.0848, 19.15942
769.5670, 19.31651
770.0491, 19.65012
770.5312, 20.02517
771.0133, 20.14597
771.4954, 19.96207
771.9775, 19.70684
772.4597, 19.37281
772.9418, 19.12935
773.4240, 19.14231
773.9061, 19.57643
774.3882, 19.92660
774.8703, 20.28781
775.3524, 19.30794
775.8345, 19.88229
776.3167, 20.24761
776.7988, 20.41505
777.2809, 19.79208
777.7630, 20.18978
778.2451, 20.78369
778.7272, 19.86243
779.2094, 19.32490
779.6915, 19.46416
780.1736, 19.69120
780.6557, 19.69570
781.1378, 19.59398
781.6199, 19.49467
782.1021, 19.38770
782.5842, 19.33048
783.0663, 19.31730
783.5484, 19.36039
784.0305, 19.51482
784.5126, 19.78962
784.9948, 19.89835
785.4769, 19.77850
785.9590, 19.62245
786.4411, 19.67423
786.9232, 19.84423
787.4053, 19.96551
787.8875, 19.97548
788.3696, 19.99521
788.8517, 20.09592
789.3338, 20.23320
789.8159, 20.35916
790.2980, 20.47183
790.7802, 20.58530
791.2623, 20.77032
791.7444, 20.86163
792.2265, 20.52736
792.7086, 19.80173
793.1907, 19.35489
793.6729, 19.30828
794.1550, 19.50041
794.6371, 19.98727
795.1192, 20.52223
795.6013, 20.66394
796.0834, 20.01744
796.5656, 19.52294
797.0477, 19.64158
797.5298, 20.03395
798.0119, 20.27502
798.4940, 20.28216
798.9761, 20.32829
799.4583, 20.45890
799.9404, 20.58594
800.4225, 20.61792
800.9046, 20.54844
801.3867, 19.55510
801.8688, 20.01855
802.3510, 20.27292
802.8331, 20.32946
803.3152, 19.59558
803.7973, 19.88235
804.2794, 20.32202
804.7615, 19.66939
805.2437, 19.89872
805.7258, 19.89864
806.2079, 20.04577
806.6900, 20.40597
807.1721, 20.66310
807.6542, 20.79047
808.1364, 20.78945
808.6185, 20.53358
809.1006, 20.14594
809.5827, 20.03294
810.0648, 20.36618
810.5469, 20.71169
811.0291, 20.70782
811.5112, 20.55362
811.9933, 20.48284
812.4754, 20.63563
812.9575, 20.73146
813.4396, 20.77131
813.9218, 20.73722
814.4039, 20.60283
814.8860, 20.44000
815.3681, 20.93259
815.8502, 21.21610
816.3323, 21.30176
816.8145, 20.59702
817.2966, 20.91293
817.7787, 20.81981
818.2608, 20.70991
818.7429, 20.78653
819.2251, 21.26039
819.7072, 21.52516
820.1893, 21.59210
820.6714, 20.86862
821.1536, 21.16579
821.6357, 21.05393
822.1178, 20.92530
822.5999, 21.36613
823.0820, 20.75761
823.5641, 21.18941
824.0463, 21.20593
824.5284, 21.41251
825.0105, 21.20754
825.4926, 21.12968
825.9747, 21.46351
826.4568, 21.56939
826.9390, 21.31704
827.4211, 21.53570
827.9032, 20.91281
828.3853, 21.02839
828.8674, 21.46260
829.3495, 21.23094
829.8317, 21.62240
830.3138, 21.94170
830.7959, 21.70716
831.2780, 21.17652
831.7601, 20.95925
832.2422, 20.48205
832.7244, 20.95760
833.2065, 21.22408
833.6886, 21.29271
834.1707, 20.57094
834.6528, 20.86981
835.1349, 20.75965
835.6171, 20.63272
836.0992, 21.07524
836.5813, 21.07708
837.0634, 20.61473
837.5455, 20.71260
838.0276, 21.38574
838.5098, 21.93837
838.9919, 21.68698
839.4740, 21.13334
839.9561, 20.77872
840.4382, 20.65898
840.9203, 20.67386
841.4025, 20.97174
841.8846, 21.21936
842.3667, 21.26635
842.8488, 21.11600
843.3309, 20.89543
843.8130, 20.56754
844.2952, 20.37845
844.7773, 20.58144
845.2594, 20.99367
845.7415, 21.19710
846.2236, 21.21704
846.7057, 21.18132
847.1879, 21.13929
847.6700, 21.08215
848.1521, 20.96856
848.6342, 20.81815
849.1163, 20.80360
849.5984, 21.08172
850.0806, 21.16223
850.5627, 20.75237
851.0448, 20.10197
851.5269, 20.16204
852.0090, 20.84249
852.4911, 21.40301
852.9733, 21.40982
853.4554, 21.20103
853.9375, 21.00586
854.4196, 20.83915
854.9017, 20.73728
855.3839, 20.91203
855.8660, 20.88271
856.3481, 20.33880
856.8302, 19.64825
857.3123, 19.74534
857.7944, 20.70885
858.2766, 21.42204
858.7587, 21.58646
859.2408, 21.42507
859.7229, 21.07898
860.2050, 20.67546
860.6871, 20.49851
861.1693, 20.86427
861.6514, 21.11753
862.1335, 20.83234
862.6156, 20.37968
863.0977, 20.27562
863.5798, 20.68007
864.0620, 20.99503
864.5441, 21.20783
865.0262, 21.23987
865.5083, 20.79873
865.9904, 20.09448
866.4726, 19.83474
866.9547, 20.21120
867.4368, 20.63010
867.9189, 20.66969
868.4011, 20.55543
868.8832, 20.49564
869.3653, 20.53609
869.8474, 20.55090
870.3295, 20.34534
870.8116, 20.07212
871.2938, 20.53547
871.7759, 20.78973
872.2580, 20.84616
872.7401, 20.11217
873.2222, 20.39883
873.7043, 20.27646
874.1865, 20.13732
874.6686, 20.56764
875.1507, 19.94861
875.6328, 20.36989
876.1149, 20.37591
876.5970, 20.57198
877.0792, 20.35649
877.5613, 20.26812
878.0434, 20.59144
878.5255, 20.68681
879.0076, 19.92295
879.4897, 20.39389
879.9719, 20.65575
880.4540, 20.71977
880.9361, 19.99338
881.4182, 20.28764
881.9003, 20.17287
882.3824, 20.04133
882.8646, 20.47923
883.3467, 19.86781
883.8288, 20.29669
884.3109, 20.31029
884.7930, 20.51396
885.2751, 20.30607
885.7573, 20.22530
886.2394, 20.55621
886.7215, 20.65917
887.2036, 19.95229
887.6857, 20.41595
888.1678, 20.67054
888.6500, 20.72727
889.1321, 19.99361
889.6142, 20.28059
890.0963, 20.15854
890.5784, 20.01972
891.0605, 20.45035
891.5427, 19.83164
892.0248, 20.25324
892.5069, 20.25957
892.9890, 20.45597
893.4711, 20.24080
893.9532, 20.15275
894.4354, 20.47639
894.9175, 20.57207
895.3996, 20.30953
895.8817, 20.51800
896.3638, 19.88492
896.8459, 20.18493
897.3281, 20.25390
897.8102, 20.16946
898.2923, 19.98301
898.7744, 20.03730
899.2565, 20.30649
899.7386, 20.51391
900.2208, 20.37061
900.7029, 20.19376
901.1850, 20.23981
901.6671, 20.48465
902.1492, 20.69520
902.6313, 20.92193
903.1135, 20.95732
903.5956, 20.62594
904.0777, 20.15373
904.5598, 20.27515
905.0419, 20.90896
905.5240, 21.40638
906.0062, 21.49285
906.4883, 21.40588
906.9704, 21.23814
907.4525, 21.07440
907.9346, 21.05021
908.4167, 21.42010
908.8989, 21.61436
909.3810, 21.52273
909.8631, 21.33013
910.3452, 21.24400
910.8273, 21.26335
911.3094, 21.39633
911.7916, 21.65507
912.2737, 21.93316
912.7558, 22.18760
913.2380, 22.37646
913.7201, 22.38518
914.2022, 22.11392
914.6843, 21.55246
915.1664, 22.20733
915.6486, 22.65320
916.1307, 22.90115
916.6128, 22.35871
917.0949, 22.83692
917.5770, 22.90611
918.0591, 22.95849
918.5413, 23.58040
919.0234, 23.15290
919.5055, 23.76574
919.9876, 23.96330
920.4697, 24.35092
920.9518, 24.32696
921.4340, 24.58230
921.9161, 24.47387
922.3982, 24.29352
922.8803, 24.47150
923.3624, 24.99349
923.8445, 25.43118
924.3267, 25.63216
924.8088, 25.77678
925.2909, 26.09257
925.7730, 26.47494
926.2551, 26.77109
926.7372, 26.88005
927.2194, 27.01299
927.7015, 27.21894
928.1836, 27.43363
928.6657, 27.56777
929.1478, 27.62098
929.6299, 27.83763
930.1121, 28.23579
930.5942, 28.65841
931.0763, 28.98251
931.5584, 29.25119
932.0405, 29.48760
932.5226, 29.69216
933.0048, 29.98057
933.4869, 30.37147
933.9690, 30.86228
934.4511, 31.47230
934.9332, 32.18093
935.4153, 32.90662
935.8975, 33.64601
936.3796, 34.20229
936.8617, 34.32669
937.3438, 34.41167
937.8259, 34.91025
938.3080, 35.65837
938.7902, 36.31699
939.2723, 36.73249
939.7544, 37.14394
940.2365, 37.54525
940.7186, 37.98241
941.2007, 38.49981
941.6829, 39.09921
942.1650, 39.83929
942.6471, 40.75842
943.1292, 41.62543
943.6113, 42.13237
944.0934, 42.54351
944.5756, 43.17443
945.0577, 44.12946
945.5398, 44.88186
946.0219, 45.20270
946.5040, 45.64007
946.9861, 46.58459
947.4683, 47.90535
947.9504, 48.71708
948.4325, 49.06463
948.9146, 49.29224
949.3967, 49.32048
949.8788, 49.56080
950.3610, 50.52746
950.8431, 51.95982
951.3252, 53.03588
951.8073, 53.36818
952.2894, 53.98884
952.7715, 55.15344
953.2537, 56.50299
953.7358, 57.31156
954.2179, 57.76687
954.7000, 58.74260
955.1821, 60.55598
955.6642, 62.17544
956.1464, 62.55927
956.6285, 62.62051
957.1106, 63.22803
957.5927, 64.59235
958.0748, 65.83418
958.5569, 66.95739
959.0391, 67.95560
959.5212, 68.71304
960.0033, 69.36230
960.4855, 70.26718
960.9676, 71.42149
961.4497, 72.75443
961.9318, 74.40046
962.4139, 76.05852
962.8961, 77.63293
963.3782, 79.08045
963.8603, 80.26301
964.3424, 81.04565
964.8245, 82.08933
965.3066, 83.53002
965.7888, 85.28436
966.2709, 87.35481
966.7530, 89.63299
967.2351, 91.89716
967.7172, 94.17204
968.1993, 96.23899
968.6815, 97.78003
969.1636, 99.30192
969.6457, 101.1822
970.1278, 103.4401
970.6099, 105.7465
971.0920, 108.1016
971.5742, 110.3777
972.0563, 112.3202
972.5384, 114.2013
973.0205, 116.4395
973.5026, 118.9544
973.9847, 121.4273
974.4669, 123.6422
974.9490, 125.9606
975.4311, 128.6356
975.9132, 131.3426
976.3953, 133.4133
976.8774, 134.8925
977.3596, 136.1346
977.8417, 137.1332
978.3238, 138.2313
978.8059, 139.8579
979.2880, 141.7037
979.7701, 143.5260
980.2523, 145.4659
980.7344, 146.6335
981.2165, 146.7199
981.6986, 146.6054
982.1807, 146.8706
982.6628, 147.3891
983.1450, 147.5572
983.6271, 147.4234
984.1092, 147.2976
984.5913, 147.6213
985.0734, 147.7303
985.5555, 147.0983
986.0377, 145.9766
986.5198, 145.1011
987.0019, 144.6070
987.4840, 143.9345
987.9661, 143.0163
988.4482, 141.8413
988.9304, 140.3013
989.4125, 138.5361
989.8946, 136.8443
990.3767, 135.3091
990.8588, 133.6495
991.3409, 131.5520
991.8231, 129.4837
992.3052, 127.7206
992.7873, 126.2764
993.2694, 124.8223
993.7515, 123.3624
994.2336, 121.7520
994.7158, 119.7985
995.1979, 117.7515
995.6800, 115.9465
996.1621, 114.2390
996.6442, 112.3184
997.1263, 109.6349
997.6085, 107.4480
998.0906, 106.1588
998.5727, 105.0326
999.0548, 102.9437
999.5369, 100.0751
1000.019, 97.67952
1000.501, 95.92001
1000.983, 94.28893
1001.465, 92.39195
1001.948, 90.47173
1002.430, 88.79078
1002.912, 87.34766
1003.394, 85.66798
1003.876, 83.63128
1004.358, 81.68281
1004.840, 79.92123
1005.322, 78.38422
1005.804, 77.30505
1006.287, 76.47584
1006.769, 75.33332
1007.251, 73.27560
1007.733, 71.50510
1008.215, 70.51985
1008.697, 69.87737
1009.179, 69.22605
1009.661, 68.57462
1010.144, 67.81399
1010.626, 66.92244
1011.108, 66.05415
1011.590, 65.40199
1012.072, 64.77293
1012.554, 63.88193
1013.036, 62.77830
1013.518, 61.91643
1014.000, 61.57518
1014.483, 61.09842
1014.965, 60.26222
1015.447, 59.30273
1015.929, 58.72284
1016.411, 58.42966
1016.893, 58.11639
1017.375, 57.74986
1017.857, 57.17548
1018.340, 56.04049
1018.822, 54.83805
1019.304, 53.98254
1019.786, 53.50023
1020.268, 53.23848
1020.750, 53.25275
1021.232, 53.12919
1021.714, 52.46925
1022.196, 51.59082
1022.679, 50.99715
1023.161, 50.60604
1023.643, 50.18950
1024.125, 49.48356
1024.607, 49.01429
1025.089, 48.94558
1025.571, 49.04868
1026.053, 49.12992
1026.536, 49.14001
1027.018, 48.49278
1027.500, 47.06741
1027.982, 45.93727
1028.464, 46.26640
1028.946, 46.95327
1029.428, 47.16694
1029.910, 46.85054
1030.392, 46.44629
1030.875, 45.87606
1031.357, 45.50245
1031.839, 45.50771
1032.321, 45.69160
1032.803, 45.72742
1033.285, 45.66282
1033.767, 45.60754
1034.249, 45.67683
1034.732, 45.59151
1035.214, 45.21738
1035.696, 44.72982
1036.178, 44.21837
1036.660, 43.68815
1037.142, 43.27883
1037.624, 42.98930
1038.106, 42.60688
1038.589, 41.64111
1039.071, 40.84744
1039.553, 41.03173
1040.035, 41.87212
1040.517, 42.21492
1040.999, 41.82599
1041.481, 41.45027
1041.963, 41.18858
1042.445, 40.98439
1042.927, 40.76287
1043.410, 40.53948
1043.892, 40.35504
1044.374, 40.21857
1044.856, 40.04927
1045.338, 39.82754
1045.820, 39.53811
1046.302, 39.09185
1046.784, 38.57909
1047.267, 38.59037
1047.749, 39.06971
1048.231, 39.34866
1048.713, 39.04676
1049.195, 38.65146
1049.677, 38.52441
1050.159, 38.54617
1050.641, 38.56784
1051.124, 38.63175
1051.606, 38.51636
1052.088, 38.17377
1052.570, 37.82788
1053.052, 37.67790
1053.534, 37.62757
1054.016, 37.52966
1054.498, 37.37151
1054.980, 37.11828
1055.463, 36.46443
1055.945, 36.11969
1056.427, 36.42011
1056.909, 36.92465
1057.391, 36.86077
1057.873, 36.29824
1058.355, 35.77378
1058.837, 35.35924
1059.319, 35.08825
1059.802, 35.21887
1060.284, 35.32272
1060.766, 34.94298
1061.248, 34.12002
1061.730, 33.77959
1062.212, 34.01840
1062.694, 34.23375
1063.176, 34.16875
1063.659, 34.03159
1064.141, 34.20340
1064.623, 34.49258
1065.105, 34.56462
1065.587, 34.22833
1066.069, 33.87733
1066.551, 33.02495
1067.033, 33.45281
1067.516, 33.67663
1067.998, 33.70784
1068.480, 32.95378
1068.962, 33.22551
1069.444, 33.09335
1069.926, 32.94955
1070.408, 33.38035
1070.890, 32.76694
1071.372, 33.19899
1071.854, 33.22089
1072.337, 33.43802
1072.819, 33.24871
1073.301, 33.19167
1073.783, 33.55144
1074.265, 33.68841
1074.747, 33.47227
1075.229, 33.73230
1075.711, 33.15592
1076.194, 33.32324
1076.676, 33.81424
1077.158, 33.64450
1077.640, 33.93776
1078.122, 34.06176
1078.604, 33.39847
1079.086, 34.11847
1079.568, 34.24759
1080.051, 33.77008
1080.533, 34.45826
1081.015, 34.07523
1081.497, 34.08150
1081.979, 34.38208
1082.461, 34.38638
1082.943, 34.87101
1083.425, 34.90300
1083.907, 34.89919
1084.390, 35.07933
1084.872, 34.75848
1085.354, 35.38122
1085.836, 35.36808
1086.318, 35.67867
1086.800, 36.06667
1087.282, 36.05962
1087.764, 36.05153
1088.247, 36.01864
1088.729, 36.19588
1089.211, 36.45093
1089.693, 36.72050
1090.175, 36.94613
1090.657, 36.90129
1091.139, 36.21455
1091.621, 35.91447
1092.104, 36.23639
1092.586, 36.77583
1093.068, 36.95471
1093.550, 36.93962
1094.032, 37.19323
1094.514, 37.76991
1094.996, 38.15458
1095.478, 38.02290
1095.960, 37.74871
1096.443, 37.44184
1096.925, 37.12186
1097.407, 36.75404
1097.889, 36.38210
1098.371, 36.39682
1098.853, 37.02983
1099.335, 37.59612
1099.817, 37.37637
1100.299, 37.04845
1100.782, 37.27629
1101.264, 38.08618
1101.746, 38.69930
1102.228, 39.12526
1102.710, 39.25525
1103.192, 38.83052
1103.674, 38.34705
1104.156, 38.44661
1104.639, 38.85693
1105.121, 39.13246
1105.603, 39.10191
1106.085, 39.12614
1106.567, 39.24281
1107.049, 39.30827
1107.531, 39.05899
1108.013, 38.74449
1108.495, 38.93988
1108.978, 39.53702
1109.460, 40.06944
1109.942, 40.53466
1110.424, 40.64617
1110.906, 40.18050
1111.388, 39.60191
1111.870, 39.54882
1112.352, 39.91668
1112.834, 40.28288
1113.317, 40.61107
1113.799, 40.93184
1114.281, 41.20992
1114.763, 41.55149
1115.245, 42.13871
1115.727, 42.77097
1116.209, 42.81276
1116.691, 42.28973
1117.174, 42.06480
1117.656, 42.36769
1118.138, 42.74033
1118.620, 42.82233
1119.102, 42.77913
1119.584, 42.77421
1120.066, 42.80949
1120.548, 42.61031
1121.031, 42.12412
1121.513, 41.76255
1121.995, 41.66657
1122.477, 41.78355
1122.959, 42.32478
1123.441, 42.91492
1123.923, 42.97129
1124.405, 42.08625
1124.887, 41.57263
1125.370, 41.54988
1125.852, 41.61302
1126.334, 41.52037
1126.816, 41.35778
1127.298, 41.43156
1127.780, 41.57201
1128.262, 41.36961
1128.744, 40.14402
1129.227, 39.38045
1129.709, 39.37006
1130.191, 39.58889
1130.673, 39.57339
1131.155, 39.40553
1131.637, 39.46768
1132.119, 39.71243
1132.601, 39.82580
1133.083, 39.63268
1133.566, 39.28324
1134.048, 38.64910
1134.530, 38.04662
1135.012, 37.97214
1135.494, 38.37349
1135.976, 38.77098
1136.458, 39.12163
1136.940, 39.13388
1137.422, 38.23534
1137.905, 37.31004
1138.387, 36.96083
1138.869, 36.97015
1139.351, 36.81457
1139.833, 36.48751
1140.315, 36.05606
1140.797, 35.48217
1141.279, 35.15960
1141.762, 35.85857
1142.244, 36.63677
1142.726, 36.53550
1143.208, 35.58460
1143.690, 35.07406
1144.172, 35.08325
1144.654, 35.09813
1145.136, 34.98326
1145.619, 34.76967
1146.101, 34.45731
1146.583, 34.09150
1147.065, 33.70403
1147.547, 33.28238
1148.029, 33.00951
1148.511, 32.98451
1148.993, 32.75610
1149.475, 31.95904
1149.958, 31.08935
1150.440, 31.07307
1150.922, 31.54940
1151.404, 31.86193
1151.886, 31.77926
1152.368, 31.68854
1152.850, 31.63147
1153.332, 31.54408
1153.814, 31.31416
1154.297, 31.06484
1154.779, 31.28623
1155.261, 31.75360
1155.743, 31.82879
1156.225, 30.66295
1156.707, 30.03924
1157.189, 30.45116
1157.671, 30.98638
1158.154, 30.76655
1158.636, 30.01748
1159.118, 29.64679
1159.600, 29.62506
1160.082, 29.71919
1160.564, 30.02727
1161.046, 30.15722
1161.528, 29.93591
1162.010, 29.57042
1162.493, 29.21399
1162.975, 28.90292
1163.457, 28.93898
1163.939, 29.30851
1164.421, 29.66021
1164.903, 29.79608
1165.385, 29.86091
1165.867, 30.00216
1166.349, 30.05843
1166.832, 29.60980
1167.314, 28.71970
1167.796, 28.37134
1168.278, 28.67715
1168.760, 28.94312
1169.242, 28.50697
1169.724, 28.05580
1170.206, 28.13581
1170.689, 28.48799
1171.171, 28.46103
1171.653, 28.05990
1172.135, 26.99497
1172.617, 27.30265
1173.099, 27.40120
1173.581, 27.30191
1174.063, 26.41225
1174.546, 26.54286
1175.028, 26.26482
1175.510, 25.96996
1175.992, 26.24460
1176.474, 25.46986
1176.956, 25.73543
1177.438, 25.58577
1177.920, 25.62612
1178.402, 25.25496
1178.885, 25.01053
1179.367, 25.17817
1179.849, 25.11782
1180.331, 24.69924
1180.813, 24.75171
1181.295, 23.96259
1181.777, 23.91199
1182.259, 24.17996
1182.742, 23.78177
1183.224, 23.84172
1183.706, 23.72731
1184.188, 22.82048
1184.670, 23.29176
1185.152, 23.16708
1185.634, 22.35962
1186.116, 22.02968
1186.599, 22.10907
1187.081, 22.37867
1187.563, 22.56817
1188.045, 22.68011
1188.527, 22.52468
1189.009, 22.07650
1189.491, 21.50991
1189.973, 20.81097
1190.455, 20.17417
1190.938, 19.85569
1191.420, 19.76093
1191.902, 19.75954
1192.384, 19.93362
1192.866, 19.88836
1193.348, 19.59707
1193.830, 19.21171
1194.312, 18.73296
1194.794, 18.29448
1195.277, 18.18648
1195.759, 18.22396
1196.241, 18.01325
1196.723, 17.31396
1197.205, 16.76038
1197.687, 16.33452
1198.169, 16.16339
1198.651, 16.62968
1199.134, 17.20432
1199.616, 17.08034
1200.098, 16.50007
1200.580, 16.09275
1201.062, 16.10353
1201.544, 15.89219
1202.026, 15.34683
1202.508, 14.93055
1202.990, 15.26812
1203.473, 15.81913
1203.955, 15.84130
1204.437, 15.45907
1204.919, 15.14671
1205.401, 15.00897
1205.883, 14.84220
1206.365, 14.61174
1206.847, 14.42380
1207.329, 14.45917
1207.812, 14.54135
1208.294, 14.37551
1208.776, 14.03779
1209.258, 13.92308
1209.740, 14.27861
1210.222, 14.23385
1210.704, 13.57456
1211.186, 12.98088
1211.669, 13.38636
1212.151, 14.08896
1212.633, 14.10967
1213.115, 13.55604
1213.597, 13.34264
1214.079, 13.71768
1214.561, 13.87774
1215.043, 13.65798
1215.526, 13.43228
1216.008, 13.77664
1216.490, 14.22307
1216.972, 14.03839
1217.454, 13.33291
1217.936, 13.25282
1218.418, 14.19713
1218.900, 14.48919
1219.382, 13.71721
1219.865, 12.83547
1220.347, 13.01846
1220.829, 13.59341
1221.311, 13.81561
1221.793, 13.66423
1222.275, 13.60523
1222.757, 13.74387
1223.239, 13.54623
1223.722, 12.81668
1224.204, 12.16905
1224.686, 12.45762
1225.168, 13.04355
1225.650, 13.24414
1226.132, 13.04707
1226.614, 13.01420
1227.096, 13.17141
1227.578, 13.40117
1228.061, 13.70806
1228.543, 13.93614
1229.025, 13.83947
1229.507, 13.64291
1229.989, 13.60800
1230.471, 13.70766
1230.953, 13.52202
1231.435, 12.99099
1231.917, 12.72821
1232.400, 12.91792
1232.882, 13.18621
1233.364, 13.10026
1233.846, 12.98827
1234.328, 13.27941
1234.810, 13.85899
1235.292, 13.92463
1235.774, 13.45734
1236.257, 12.82729
1236.739, 12.03693
1237.221, 11.57296
1237.703, 12.22656
1238.185, 13.05461
1238.667, 13.27492
1239.149, 12.99317
1239.631, 12.60121
1240.114, 12.11200
1240.596, 11.69162
1241.078, 11.36237
1241.560, 11.23700
1242.042, 11.58847
1242.524, 12.00052
1243.006, 12.19136
1243.488, 12.20844
1243.970, 12.22363
1244.453, 12.23614
1244.935, 12.23424
1245.417, 12.20959
1245.899, 12.20365
1246.381, 12.37703
1246.863, 12.41345
1247.345, 12.06604
1247.827, 11.51142
1248.309, 11.30618
1248.792, 11.42005
1249.274, 11.82137
1249.756, 12.59052
1250.238, 13.05734
1250.720, 12.58448
1251.202, 12.09622
1251.684, 11.99898
1252.166, 12.12864
1252.649, 12.06886
1253.131, 11.87718
1253.613, 11.69652
1254.095, 11.53713
1254.577, 11.54052
1255.059, 11.95214
1255.541, 12.22174
1256.023, 12.09960
1256.505, 11.79568
1256.988, 11.72513
1257.470, 11.81284
1257.952, 11.94200
1258.434, 12.11790
1258.916, 12.07330
1259.398, 11.61834
1259.880, 11.31182
1260.362, 11.36819
1260.844, 11.61007
1261.327, 11.80776
1261.809, 11.96487
1262.291, 12.07989
1262.773, 12.14739
1263.255, 12.25966
1263.737, 12.48432
1264.219, 12.51440
1264.701, 12.20322
1265.184, 11.79520
1265.666, 11.52444
1266.148, 11.37827
1266.630, 11.32628
1267.112, 11.37556
1267.594, 11.74775
1268.076, 12.54722
1268.558, 12.78293
1269.041, 12.01056
1269.523, 11.19983
1270.005, 11.47990
1270.487, 12.01861
1270.969, 11.89431
1271.451, 11.27055
1271.933, 11.33437
1272.415, 12.07060
1272.897, 12.37840
1273.380, 11.90622
1273.862, 11.46615
1274.344, 11.88677
1274.826, 12.29692
1275.308, 12.06177
1275.790, 11.41685
1276.272, 11.13165
1276.754, 11.15286
1277.237, 11.18102
1277.719, 11.14491
1278.201, 11.20820
1278.683, 11.64875
1279.165, 11.95903
1279.647, 11.86983
1280.129, 11.61221
1280.611, 11.74089
1281.094, 12.09881
1281.576, 12.25278
1282.058, 12.12813
1282.540, 11.96071
1283.022, 11.80361
1283.504, 11.64270
1283.986, 11.48140
1284.468, 11.29938
1284.950, 10.97500
1285.432, 10.65175
1285.915, 10.58182
1286.397, 10.79044
1286.879, 11.09493
1287.361, 11.56506
1287.843, 11.77724
1288.325, 11.58242
1288.807, 11.31537
1289.289, 11.42608
1289.772, 11.62070
1290.254, 11.52225
1290.736, 11.18187
1291.218, 11.16739
1291.700, 11.55210
1292.182, 11.43135
1292.664, 10.58465
1293.146, 9.936156
1293.629, 10.55009
1294.111, 11.36879
1294.593, 11.68812
1295.075, 11.64771
1295.557, 11.41636
1296.039, 11.03561
1296.521, 11.07101
1297.003, 11.58230
1297.485, 11.89349
1297.968, 11.40932
1298.450, 10.84236
1298.932, 10.29332
1299.414, 10.00872
1299.896, 10.71055
1300.378, 11.93848
1300.860, 12.19415
1301.342, 11.45590
1301.824, 10.67301
1302.307, 10.06014
##END=



