##NAMES=Ferri-pedrizite
##RRUFFID=R070344
##IDEAL CHEMISTRY=NaLi_2_[Fe^3+^_2_Mg_2_Li]Si_8_O_22_(OH)_2_
##LOCALITY=east Pedriza Massif, Sierra de Guadarrama, Spain
##OWNER=RRUFF
##SOURCE=Michael Scott
##DESCRIPTION=Black bladed crystals
##STATUS=The identification of this mineral is confirmed by single-crystal X-ray diffraction and chemical analysis.
##URL=rruff.info/R070344
##MEASURED CHEMISTRY=(Na_0.78_[box]_0.10_Ca_0.06_K_0.06_)_Σ=1_Li_2.00_[Fe^3+^_2.52_Mg_0.99_Fe^2+^_0.20_Al_0.16_Mn_0.07_Ti_0.03_Cr_0.03_Li_1.00_]Si_8.00_O_22_((OH)_1.27_F_0.73_)_Σ=2_; H_2_O from stoichiometry after deducting F; Li_2_O by difference
201.0508, 17642.81
201.5329, 17697.39
202.0150, 17720.74
202.4971, 17706.60
202.9792, 17674.80
203.4613, 17654.57
203.9435, 17642.59
204.4256, 17651.94
204.9077, 17715.02
205.3898, 17774.45
205.8719, 17780.13
206.3540, 17727.30
206.8362, 17661.02
207.3183, 17647.38
207.8004, 17716.78
208.2825, 17762.00
208.7646, 17771.27
209.2467, 17768.25
209.7289, 17760.18
210.2110, 17751.20
210.6931, 17747.93
211.1752, 17760.43
211.6573, 17795.54
212.1395, 17820.90
212.6216, 17838.69
213.1037, 17845.79
213.5858, 17834.77
214.0679, 17809.23
214.5500, 17781.23
215.0322, 17760.02
215.5143, 17743.47
215.9964, 17749.53
216.4785, 17808.84
216.9606, 17862.09
217.4427, 17883.16
217.9249, 17877.58
218.4070, 17865.81
218.8891, 17862.07
219.3712, 17866.02
219.8533, 17890.97
220.3354, 17980.83
220.8176, 18049.36
221.2997, 18061.37
221.7818, 18033.67
222.2639, 18001.76
222.7460, 17989.97
223.2281, 17996.49
223.7103, 18002.83
224.1924, 18019.26
224.6745, 18023.32
225.1566, 17995.59
225.6387, 17955.45
226.1208, 17933.07
226.6030, 17947.61
227.0851, 17988.96
227.5672, 18013.93
228.0493, 18004.04
228.5314, 18002.32
229.0135, 18021.15
229.4957, 18049.57
229.9778, 18077.44
230.4599, 18100.55
230.9420, 18115.91
231.4241, 18113.26
231.9062, 18071.33
232.3884, 18048.79
232.8705, 18071.40
233.3526, 18103.72
233.8347, 18109.09
234.3168, 18076.51
234.7989, 18033.44
235.2811, 18029.35
235.7632, 18082.58
236.2453, 18132.38
236.7274, 18185.89
237.2095, 18226.89
237.6916, 18236.61
238.1738, 18214.90
238.6559, 18187.15
239.1380, 18188.74
239.6201, 18232.12
240.1022, 18258.50
240.5843, 18249.33
241.0665, 18236.29
241.5486, 18231.62
242.0307, 18237.20
242.5128, 18250.98
242.9949, 18275.53
243.4770, 18313.07
243.9592, 18334.34
244.4413, 18312.66
244.9234, 18299.89
245.4055, 18325.93
245.8876, 18378.21
246.3697, 18422.14
246.8519, 18430.20
247.3340, 18406.81
247.8161, 18391.64
248.2982, 18387.56
248.7803, 18388.72
249.2624, 18399.59
249.7446, 18412.73
250.2267, 18414.62
250.7088, 18393.84
251.1909, 18361.68
251.6730, 18352.69
252.1551, 18379.24
252.6373, 18404.31
253.1194, 18416.36
253.6015, 18420.85
254.0836, 18422.81
254.5657, 18423.71
255.0478, 18424.04
255.5300, 18421.46
256.0121, 18411.56
256.4942, 18415.83
256.9763, 18458.90
257.4584, 18508.05
257.9406, 18540.43
258.4227, 18551.05
258.9048, 18549.24
259.3869, 18541.61
259.8690, 18527.80
260.3511, 18515.68
260.8333, 18497.12
261.3154, 18490.42
261.7975, 18519.48
262.2796, 18581.38
262.7617, 18630.81
263.2438, 18621.91
263.7260, 18567.02
264.2081, 18540.62
264.6902, 18563.53
265.1723, 18596.18
265.6544, 18613.18
266.1365, 18616.46
266.6187, 18610.90
267.1008, 18589.55
267.5829, 18562.57
268.0650, 18554.08
268.5471, 18569.53
269.0292, 18587.46
269.5114, 18590.13
269.9935, 18585.38
270.4756, 18586.88
270.9577, 18601.22
271.4398, 18620.68
271.9219, 18640.62
272.4041, 18661.37
272.8862, 18669.92
273.3683, 18650.95
273.8504, 18619.50
274.3325, 18604.03
274.8146, 18608.23
275.2968, 18624.19
275.7789, 18657.68
276.2610, 18701.75
276.7431, 18726.22
277.2252, 18715.80
277.7073, 18686.83
278.1895, 18663.85
278.6716, 18644.83
279.1537, 18637.39
279.6358, 18651.06
280.1179, 18676.70
280.6000, 18698.12
281.0822, 18711.35
281.5643, 18723.26
282.0464, 18744.09
282.5285, 18775.10
283.0106, 18797.66
283.4927, 18796.51
283.9749, 18794.36
284.4570, 18818.22
284.9391, 18867.84
285.4212, 18913.68
285.9033, 18930.69
286.3854, 18918.70
286.8676, 18910.92
287.3497, 18910.23
287.8318, 18910.51
288.3139, 18908.62
288.7960, 18905.26
289.2781, 18900.66
289.7603, 18893.28
290.2424, 18887.49
290.7245, 18902.71
291.2066, 18972.18
291.6887, 19020.31
292.1708, 19024.13
292.6530, 19004.60
293.1351, 18985.98
293.6172, 18976.96
294.0993, 18974.04
294.5814, 18971.08
295.0635, 18966.92
295.5457, 18965.22
296.0278, 18971.62
296.5099, 18976.30
296.9920, 18969.81
297.4741, 18952.71
297.9562, 18934.43
298.4384, 18923.94
298.9205, 18921.24
299.4026, 18927.02
299.8847, 18952.98
300.3668, 18975.49
300.8489, 18984.01
301.3311, 18982.72
301.8131, 18980.53
302.2953, 18982.20
302.7774, 18988.83
303.2595, 19006.82
303.7416, 19044.77
304.2237, 19081.94
304.7058, 19123.26
305.1880, 19157.80
305.6701, 19173.88
306.1522, 19167.04
306.6343, 19142.36
307.1164, 19099.38
307.5985, 19025.00
308.0807, 18982.20
308.5628, 19007.01
309.0449, 19050.53
309.5270, 19091.61
310.0091, 19126.00
310.4912, 19149.45
310.9734, 19156.20
311.4555, 19147.34
311.9376, 19133.33
312.4197, 19110.55
312.9018, 19088.92
313.3839, 19068.61
313.8661, 19053.27
314.3482, 19053.79
314.8303, 19086.31
315.3124, 19132.73
315.7945, 19162.87
316.2766, 19176.18
316.7588, 19175.79
317.2409, 19153.60
317.7230, 19121.50
318.2051, 19099.14
318.6872, 19090.67
319.1693, 19089.21
319.6515, 19093.40
320.1336, 19101.52
320.6157, 19105.53
321.0978, 19102.02
321.5799, 19094.27
322.0620, 19086.97
322.5442, 19080.15
323.0263, 19073.65
323.5084, 19063.54
323.9905, 19055.35
324.4726, 19056.94
324.9547, 19069.61
325.4369, 19088.59
325.9190, 19112.49
326.4011, 19142.17
326.8832, 19154.96
327.3653, 19141.41
327.8474, 19120.48
328.3296, 19092.33
328.8117, 19064.32
329.2938, 19059.29
329.7759, 19094.66
330.2580, 19156.23
330.7401, 19178.57
331.2223, 19104.28
331.7044, 19061.94
332.1865, 19088.04
332.6686, 19141.85
333.1507, 19184.33
333.6328, 19202.16
334.1150, 19198.91
334.5971, 19176.60
335.0792, 19122.91
335.5613, 19084.02
336.0434, 19067.52
336.5255, 19057.21
337.0077, 19049.67
337.4898, 19041.75
337.9719, 19027.14
338.4540, 18997.95
338.9361, 18957.20
339.4182, 18931.61
339.9004, 18920.06
340.3825, 18927.82
340.8646, 18972.52
341.3467, 19029.12
341.8288, 19065.69
342.3109, 19069.33
342.7931, 19054.21
343.2752, 19036.58
343.7573, 19014.54
344.2394, 19003.85
344.7215, 19012.55
345.2036, 19031.44
345.6858, 19058.69
346.1679, 19093.38
346.6500, 19117.93
347.1321, 19106.77
347.6142, 19077.16
348.0963, 19085.89
348.5785, 19153.17
349.0606, 19212.79
349.5427, 19190.65
350.0248, 19116.16
350.5069, 19077.63
350.9890, 19115.89
351.4712, 19175.45
351.9533, 19217.48
352.4354, 19242.78
352.9175, 19254.83
353.3996, 19251.04
353.8817, 19239.84
354.3639, 19246.56
354.8460, 19287.49
355.3281, 19309.04
355.8102, 19282.90
356.2923, 19238.50
356.7744, 19208.81
357.2566, 19201.12
357.7387, 19207.66
358.2208, 19220.87
358.7029, 19242.23
359.1850, 19262.53
359.6671, 19295.97
360.1493, 19314.75
360.6314, 19293.01
361.1135, 19247.29
361.5956, 19215.32
362.0777, 19220.84
362.5598, 19250.83
363.0420, 19256.02
363.5241, 19210.20
364.0062, 19181.72
364.4883, 19191.60
364.9704, 19211.98
365.4525, 19220.95
365.9347, 19213.39
366.4168, 19196.49
366.8989, 19174.28
367.3810, 19145.58
367.8631, 19129.01
368.3452, 19133.62
368.8274, 19140.93
369.3095, 19135.33
369.7916, 19124.74
370.2737, 19129.66
370.7558, 19171.24
371.2379, 19224.31
371.7201, 19241.73
372.2022, 19219.68
372.6843, 19199.54
373.1664, 19204.51
373.6485, 19217.39
374.1306, 19209.91
374.6128, 19174.71
375.0949, 19142.79
375.5770, 19136.89
376.0591, 19144.66
376.5412, 19140.63
377.0233, 19118.85
377.5055, 19091.11
377.9876, 19068.60
378.4697, 19052.06
378.9518, 19036.37
379.4339, 19019.30
379.9160, 19005.12
380.3982, 18999.29
380.8803, 18998.83
381.3624, 18993.73
381.8445, 18977.44
382.3266, 18956.85
382.8087, 18953.09
383.2909, 18992.89
383.7730, 19014.49
384.2551, 19002.81
384.7372, 18981.66
385.2193, 18969.38
385.7014, 18969.34
386.1836, 18975.30
386.6657, 18983.64
387.1478, 18995.32
387.6299, 18989.78
388.1120, 18942.45
388.5941, 18906.26
389.0763, 18901.54
389.5584, 18918.04
390.0405, 18941.04
390.5226, 18966.55
391.0047, 18989.48
391.4868, 19000.91
391.9690, 18999.78
392.4511, 18996.67
392.9332, 18993.00
393.4153, 18989.48
393.8974, 18985.03
394.3795, 18979.76
394.8617, 18980.30
395.3438, 18994.02
395.8259, 19014.20
396.3080, 19033.31
396.7901, 19051.31
397.2722, 19056.62
397.7544, 19038.23
398.2365, 18999.47
398.7186, 18962.63
399.2007, 18910.74
399.6828, 18879.79
400.1649, 18904.04
400.6471, 18953.76
401.1292, 18978.25
401.6113, 18960.78
402.0934, 18921.47
402.5755, 18887.80
403.0576, 18856.55
403.5398, 18843.23
404.0219, 18871.09
404.5040, 18892.69
404.9861, 18878.13
405.4682, 18836.56
405.9503, 18791.70
406.4325, 18755.97
406.9146, 18733.92
407.3967, 18748.75
407.8788, 18833.69
408.3609, 18886.45
408.8430, 18861.12
409.3252, 18816.15
409.8073, 18799.16
410.2894, 18816.53
410.7715, 18837.13
411.2536, 18831.37
411.7357, 18804.90
412.2179, 18785.98
412.7000, 18775.93
413.1821, 18774.78
413.6642, 18790.82
414.1463, 18815.35
414.6284, 18830.41
415.1106, 18829.43
415.5927, 18822.20
416.0748, 18815.64
416.5569, 18808.66
417.0390, 18796.49
417.5211, 18776.39
418.0033, 18754.75
418.4854, 18740.80
418.9675, 18735.68
419.4496, 18735.75
419.9317, 18743.83
420.4138, 18754.77
420.8960, 18768.75
421.3781, 18783.01
421.8602, 18790.01
422.3423, 18784.11
422.8244, 18768.94
423.3065, 18760.88
423.7887, 18772.61
424.2708, 18771.09
424.7529, 18741.39
425.2350, 18706.08
425.7171, 18683.22
426.1992, 18675.32
426.6814, 18673.64
427.1635, 18670.60
427.6456, 18666.40
428.1277, 18662.82
428.6098, 18656.13
429.0919, 18657.44
429.5741, 18685.60
430.0562, 18721.79
430.5383, 18734.60
431.0204, 18706.76
431.5025, 18675.63
431.9846, 18680.74
432.4668, 18709.77
432.9489, 18716.36
433.4310, 18685.74
433.9131, 18639.12
434.3952, 18593.54
434.8773, 18547.01
435.3595, 18535.44
435.8416, 18600.08
436.3237, 18665.02
436.8058, 18683.36
437.2879, 18663.56
437.7701, 18630.52
438.2522, 18595.56
438.7343, 18564.05
439.2164, 18549.99
439.6985, 18559.95
440.1806, 18576.88
440.6628, 18612.23
441.1449, 18643.91
441.6270, 18656.40
442.1091, 18651.19
442.5912, 18639.70
443.0733, 18627.92
443.5555, 18617.51
444.0376, 18616.98
444.5197, 18631.79
445.0018, 18641.25
445.4839, 18633.11
445.9660, 18617.84
446.4482, 18600.95
446.9303, 18581.04
447.4124, 18576.70
447.8945, 18622.01
448.3766, 18686.59
448.8587, 18698.52
449.3409, 18645.09
449.8230, 18583.73
450.3051, 18554.68
450.7872, 18557.78
451.2693, 18577.66
451.7514, 18642.07
452.2336, 18689.79
452.7157, 18686.05
453.1978, 18658.74
453.6799, 18644.86
454.1620, 18655.58
454.6441, 18682.03
455.1263, 18715.53
455.6084, 18759.83
456.0905, 18789.76
456.5726, 18793.11
457.0547, 18793.64
457.5368, 18793.29
458.0190, 18796.04
458.5011, 18808.11
458.9832, 18833.04
459.4653, 18863.95
459.9474, 18889.54
460.4295, 18909.50
460.9117, 18939.62
461.3938, 18991.80
461.8759, 19042.68
462.3580, 19068.34
462.8401, 19073.38
463.3222, 19081.39
463.8044, 19115.67
464.2865, 19142.38
464.7686, 19121.90
465.2507, 19064.95
465.7328, 19018.34
466.2149, 19005.34
466.6971, 19002.33
467.1792, 18960.88
467.6613, 18841.29
468.1434, 18768.34
468.6255, 18781.63
469.1076, 18806.16
469.5898, 18796.07
470.0719, 18755.87
470.5540, 18712.38
471.0361, 18682.40
471.5182, 18660.34
472.0003, 18628.30
472.4825, 18582.32
472.9646, 18537.73
473.4467, 18494.75
473.9288, 18456.74
474.4109, 18423.95
474.8930, 18397.49
475.3752, 18383.25
475.8573, 18388.40
476.3394, 18406.40
476.8215, 18434.11
477.3036, 18471.52
477.7857, 18486.63
478.2679, 18455.63
478.7500, 18398.60
479.2321, 18364.49
479.7142, 18359.96
480.1963, 18357.59
480.6784, 18358.58
481.1606, 18355.27
481.6427, 18336.68
482.1248, 18305.04
482.6069, 18275.33
483.0890, 18259.37
483.5711, 18253.80
484.0533, 18238.10
484.5354, 18195.22
485.0175, 18170.91
485.4996, 18172.24
485.9817, 18191.56
486.4638, 18237.79
486.9460, 18304.27
487.4281, 18348.37
487.9102, 18315.65
488.3923, 18235.98
488.8744, 18204.30
489.3565, 18228.25
489.8387, 18261.63
490.3208, 18291.92
490.8029, 18311.05
491.2850, 18301.70
491.7671, 18250.40
492.2492, 18209.98
492.7314, 18197.99
493.2135, 18206.53
493.6956, 18239.80
494.1777, 18290.96
494.6598, 18323.48
495.1419, 18305.99
495.6241, 18248.25
496.1062, 18213.87
496.5883, 18231.68
497.0704, 18232.74
497.5525, 18191.63
498.0346, 18144.63
498.5168, 18122.75
498.9989, 18128.46
499.4810, 18142.60
499.9631, 18149.02
500.4452, 18151.25
500.9273, 18167.55
501.4095, 18205.08
501.8916, 18225.10
502.3737, 18195.37
502.8558, 18147.25
503.3379, 18133.03
503.8200, 18162.44
504.3022, 18188.42
504.7843, 18185.65
505.2664, 18174.60
505.7485, 18181.30
506.2306, 18205.63
506.7127, 18229.87
507.1949, 18243.29
507.6770, 18245.81
508.1591, 18236.19
508.6412, 18191.38
509.1233, 18168.83
509.6054, 18183.38
510.0876, 18210.93
510.5697, 18237.85
511.0518, 18261.20
511.5339, 18281.65
512.0161, 18303.44
512.4982, 18320.34
512.9803, 18308.45
513.4624, 18260.94
513.9445, 18226.76
514.4266, 18225.31
514.9088, 18244.13
515.3909, 18269.89
515.8730, 18303.99
516.3551, 18328.23
516.8372, 18329.81
517.3193, 18324.63
517.8015, 18329.16
518.2836, 18341.18
518.7657, 18347.09
519.2478, 18338.98
519.7299, 18323.50
520.2120, 18317.27
520.6942, 18331.58
521.1763, 18333.29
521.6584, 18300.09
522.1405, 18276.49
522.6226, 18303.89
523.1047, 18360.66
523.5869, 18386.84
524.0690, 18341.94
524.5511, 18271.26
525.0332, 18247.29
525.5153, 18269.84
525.9974, 18310.37
526.4796, 18374.18
526.9617, 18434.45
527.4438, 18453.07
527.9259, 18436.06
528.4080, 18435.51
528.8901, 18472.36
529.3723, 18514.08
529.8544, 18545.33
530.3365, 18566.89
530.8186, 18577.52
531.3007, 18577.41
531.7828, 18578.34
532.2650, 18597.13
532.7471, 18636.47
533.2292, 18677.74
533.7113, 18731.16
534.1934, 18774.49
534.6755, 18798.50
535.1577, 18809.55
535.6398, 18814.80
536.1219, 18815.64
536.6040, 18817.52
537.0861, 18823.25
537.5682, 18834.01
538.0504, 18855.42
538.5325, 18889.05
539.0146, 18926.12
539.4967, 18963.52
539.9788, 18998.76
540.4609, 19019.39
540.9431, 19025.65
541.4252, 19019.23
541.9073, 18988.29
542.3894, 18952.71
542.8715, 18931.12
543.3536, 18925.06
543.8358, 18927.96
544.3179, 18938.95
544.8000, 18950.34
545.2821, 18920.87
545.7642, 18826.07
546.2463, 18757.85
546.7285, 18763.67
547.2106, 18787.36
547.6927, 18790.80
548.1748, 18772.35
548.6569, 18739.51
549.1390, 18679.94
549.6211, 18618.68
550.1032, 18588.55
550.5853, 18583.05
551.0674, 18573.02
551.5496, 18546.66
552.0317, 18510.32
552.5138, 18472.49
552.9959, 18427.43
553.4780, 18400.67
553.9601, 18403.75
554.4423, 18409.88
554.9244, 18419.38
555.4065, 18421.41
555.8886, 18391.17
556.3707, 18318.06
556.8528, 18250.58
557.3350, 18263.76
557.8171, 18344.46
558.2992, 18382.67
558.7813, 18360.97
559.2634, 18319.12
559.7455, 18270.42
560.2277, 18223.24
560.7098, 18202.84
561.1919, 18228.03
561.6740, 18247.16
562.1561, 18244.20
562.6382, 18227.21
563.1204, 18197.48
563.6025, 18160.17
564.0846, 18132.19
564.5667, 18126.84
565.0488, 18138.23
565.5309, 18144.05
566.0131, 18145.78
566.4952, 18138.17
566.9773, 18111.62
567.4594, 18082.11
567.9415, 18054.71
568.4236, 18032.01
568.9058, 18022.75
569.3879, 18046.52
569.8700, 18070.97
570.3521, 18058.54
570.8342, 18018.55
571.3163, 17981.03
571.7985, 17954.79
572.2806, 17936.76
572.7627, 17923.66
573.2448, 17915.46
573.7269, 17912.20
574.2090, 17914.92
574.6912, 17921.01
575.1733, 17943.49
575.6554, 17961.86
576.1375, 17946.63
576.6196, 17894.24
577.1017, 17840.27
577.5839, 17819.52
578.0660, 17822.96
578.5481, 17820.77
579.0302, 17812.07
579.5123, 17801.73
579.9944, 17790.89
580.4766, 17780.72
580.9587, 17776.84
581.4408, 17785.39
581.9229, 17775.22
582.4050, 17720.02
582.8871, 17664.86
583.3693, 17646.82
583.8514, 17651.95
584.3335, 17642.33
584.8156, 17600.57
585.2977, 17550.71
585.7798, 17533.50
586.2620, 17552.26
586.7441, 17566.89
587.2262, 17581.53
587.7083, 17581.89
588.1904, 17544.25
588.6725, 17491.17
589.1547, 17461.62
589.6368, 17469.22
590.1189, 17477.56
590.6010, 17470.29
591.0831, 17453.22
591.5652, 17428.30
592.0474, 17399.13
592.5295, 17380.50
593.0116, 17383.84
593.4937, 17400.31
593.9758, 17400.72
594.4579, 17372.13
594.9401, 17358.22
595.4222, 17381.60
595.9043, 17403.19
596.3864, 17411.19
596.8685, 17401.53
597.3506, 17362.40
597.8328, 17270.84
598.3149, 17185.29
598.7970, 17166.90
599.2791, 17194.86
599.7612, 17216.96
600.2433, 17223.20
600.7255, 17224.92
601.2076, 17232.93
601.6897, 17244.94
602.1718, 17241.93
602.6539, 17201.74
603.1360, 17176.85
603.6182, 17185.23
604.1003, 17198.96
604.5824, 17196.01
605.0645, 17177.96
605.5466, 17161.24
606.0287, 17157.45
606.5109, 17157.03
606.9930, 17143.47
607.4751, 17118.64
607.9572, 17097.94
608.4393, 17085.43
608.9214, 17076.77
609.4036, 17068.92
609.8857, 17061.83
610.3678, 17048.94
610.8499, 17014.60
611.3320, 16994.77
611.8141, 17007.01
612.2963, 17031.90
612.7784, 17056.49
613.2605, 17075.01
613.7426, 17077.11
614.2247, 17047.00
614.7068, 17001.51
615.1890, 16988.22
615.6711, 17009.16
616.1532, 17012.86
616.6353, 16974.90
617.1174, 16932.03
617.5995, 16931.97
618.0817, 16975.81
618.5638, 16995.33
619.0459, 16970.23
619.5280, 16940.91
620.0101, 16920.46
620.4922, 16905.73
620.9744, 16889.58
621.4565, 16872.13
621.9386, 16863.11
622.4207, 16872.66
622.9028, 16897.08
623.3849, 16927.05
623.8671, 16967.33
624.3492, 16983.23
624.8313, 16951.94
625.3134, 16905.81
625.7955, 16883.73
626.2776, 16884.11
626.7598, 16884.68
627.2419, 16875.04
627.7240, 16872.93
628.2061, 16903.64
628.6882, 16940.97
629.1703, 16939.48
629.6525, 16893.07
630.1346, 16841.49
630.6167, 16821.99
631.0988, 16831.12
631.5809, 16856.28
632.0630, 16908.90
632.5452, 16931.14
633.0273, 16885.56
633.5094, 16821.19
633.9915, 16796.13
634.4736, 16807.98
634.9557, 16809.75
635.4379, 16768.25
635.9200, 16739.70
636.4021, 16776.72
636.8842, 16839.60
637.3663, 16864.57
637.8484, 16837.65
638.3306, 16788.75
638.8127, 16741.38
639.2948, 16699.03
639.7769, 16690.85
640.2590, 16731.65
640.7411, 16751.68
641.2233, 16705.45
641.7054, 16655.31
642.1875, 16681.13
642.6696, 16774.63
643.1517, 16829.32
643.6339, 16795.98
644.1160, 16747.69
644.5981, 16714.78
645.0802, 16696.75
645.5623, 16698.24
646.0444, 16716.43
646.5266, 16729.20
647.0087, 16712.04
647.4908, 16674.57
647.9729, 16668.48
648.4550, 16707.10
648.9371, 16721.74
649.4193, 16675.49
649.9014, 16620.46
650.3835, 16614.44
650.8656, 16649.04
651.3477, 16664.09
651.8298, 16635.28
652.3120, 16601.09
652.7941, 16575.75
653.2762, 16557.52
653.7583, 16539.28
654.2404, 16522.92
654.7225, 16526.52
655.2047, 16571.49
655.6868, 16638.39
656.1689, 16655.80
656.6510, 16613.33
657.1331, 16587.12
657.6152, 16604.00
658.0974, 16625.62
658.5795, 16611.53
659.0616, 16570.86
659.5437, 16544.72
660.0258, 16552.80
660.5079, 16555.89
660.9901, 16535.09
661.4722, 16506.31
661.9543, 16482.21
662.4364, 16466.64
662.9185, 16462.88
663.4006, 16474.17
663.8828, 16495.73
664.3649, 16523.39
664.8470, 16558.04
665.3291, 16565.43
665.8112, 16528.58
666.2933, 16491.62
666.7755, 16488.32
667.2576, 16512.31
667.7397, 16533.93
668.2218, 16566.52
668.7039, 16575.28
669.1860, 16541.60
669.6682, 16491.46
670.1503, 16424.79
670.6324, 16360.17
671.1145, 16344.42
671.5966, 16405.71
672.0787, 16486.55
672.5609, 16497.12
673.0430, 16449.42
673.5251, 16434.35
674.0072, 16466.43
674.4893, 16495.57
674.9714, 16489.95
675.4536, 16462.97
675.9357, 16449.83
676.4178, 16460.16
676.8999, 16463.18
677.3820, 16454.22
677.8641, 16441.72
678.3463, 16430.72
678.8284, 16419.10
679.3105, 16398.86
679.7926, 16367.52
680.2747, 16345.08
680.7568, 16362.44
681.2390, 16399.85
681.7211, 16406.58
682.2032, 16382.16
682.6853, 16357.58
683.1674, 16345.93
683.6495, 16341.45
684.1317, 16336.87
684.6138, 16335.20
685.0959, 16317.46
685.5780, 16249.90
686.0601, 16206.70
686.5422, 16231.36
687.0244, 16273.47
687.5065, 16276.39
687.9886, 16235.65
688.4707, 16195.82
688.9528, 16185.04
689.4349, 16185.84
689.9171, 16180.45
690.3992, 16170.02
690.8813, 16156.01
691.3634, 16139.11
691.8455, 16128.02
692.3276, 16132.97
692.8098, 16151.51
693.2919, 16161.68
693.7740, 16160.70
694.2561, 16157.49
694.7382, 16154.09
695.2203, 16148.49
695.7025, 16131.59
696.1846, 16110.12
696.6667, 16110.29
697.1488, 16161.53
697.6309, 16201.22
698.1130, 16189.58
698.5952, 16151.14
699.0773, 16104.57
699.5594, 16060.02
700.0415, 16040.67
700.5236, 16062.90
701.0057, 16106.80
701.4879, 16132.97
701.9700, 16141.01
702.4521, 16142.34
702.9342, 16140.25
703.4163, 16124.51
703.8984, 16077.97
704.3806, 16018.06
704.8627, 15987.33
705.3448, 15995.07
705.8269, 16002.80
706.3090, 16013.36
706.7911, 16014.43
707.2733, 15986.06
707.7554, 15947.32
708.2375, 15934.49
708.7196, 15957.14
709.2017, 15981.56
709.6838, 15968.31
710.1660, 15934.39
710.6481, 15925.90
711.1302, 15941.86
711.6123, 15957.11
712.0944, 15964.73
712.5765, 15958.58
713.0587, 15925.19
713.5408, 15861.64
714.0229, 15834.40
714.5050, 15877.27
714.9871, 15911.00
715.4692, 15917.09
715.9514, 15914.43
716.4335, 15920.78
716.9156, 15933.58
717.3977, 15934.82
717.8798, 15907.98
718.3619, 15880.50
718.8441, 15876.37
719.3262, 15885.58
719.8083, 15896.44
720.2904, 15904.38
720.7725, 15895.26
721.2546, 15856.58
721.7368, 15807.60
722.2189, 15802.22
722.7010, 15850.96
723.1831, 15867.68
723.6652, 15830.30
724.1473, 15791.40
724.6295, 15781.37
725.1116, 15789.28
725.5937, 15793.63
726.0758, 15796.18
726.5579, 15788.49
727.0400, 15760.13
727.5222, 15730.16
728.0043, 15704.03
728.4864, 15686.10
728.9685, 15687.63
729.4506, 15709.07
729.9327, 15725.69
730.4149, 15705.45
730.8970, 15668.42
731.3791, 15670.09
731.8612, 15704.34
732.3433, 15706.75
732.8254, 15653.91
733.3076, 15595.08
733.7897, 15581.79
734.2718, 15610.36
734.7539, 15632.05
735.2360, 15651.26
735.7181, 15655.95
736.2003, 15633.18
736.6824, 15606.92
737.1645, 15588.15
737.6466, 15577.96
738.1287, 15577.60
738.6108, 15590.07
739.0930, 15605.73
739.5751, 15640.79
740.0572, 15661.79
740.5393, 15608.21
741.0214, 15502.41
741.5035, 15424.24
741.9857, 15411.76
742.4678, 15434.75
742.9499, 15457.28
743.4320, 15478.68
743.9141, 15489.00
744.3962, 15486.34
744.8784, 15482.99
745.3605, 15486.06
745.8426, 15486.81
746.3247, 15470.19
746.8068, 15432.64
747.2889, 15411.83
747.7711, 15422.08
748.2532, 15429.33
748.7353, 15424.27
749.2174, 15413.85
749.6995, 15404.82
750.1816, 15396.79
750.6638, 15383.54
751.1459, 15355.16
751.6280, 15333.92
752.1101, 15353.57
752.5922, 15390.35
753.0743, 15392.46
753.5565, 15359.77
754.0386, 15336.84
754.5207, 15350.90
755.0028, 15381.50
755.4849, 15388.50
755.9670, 15369.41
756.4492, 15349.33
756.9313, 15329.26
757.4134, 15305.77
757.8955, 15267.30
758.3776, 15231.88
758.8597, 15234.69
759.3419, 15280.95
759.8240, 15304.71
760.3061, 15274.53
760.7882, 15252.40
761.2703, 15277.80
761.7524, 15312.33
762.2346, 15311.84
762.7167, 15276.13
763.1988, 15237.34
763.6809, 15213.33
764.1630, 15123.74
764.6451, 15174.72
765.1273, 15200.39
765.6094, 15202.10
766.0915, 15108.12
766.5736, 15137.71
767.0557, 15117.77
767.5378, 15095.81
768.0200, 15142.79
768.5021, 15062.73
768.9842, 15108.62
769.4663, 15104.23
769.9484, 15122.85
770.4305, 15091.64
770.9127, 15075.82
771.3948, 15109.85
771.8769, 15116.28
772.3590, 15079.34
772.8411, 15099.42
773.3232, 15017.62
773.8054, 15025.22
774.2875, 15071.40
774.7696, 15036.96
775.2517, 15057.96
775.7338, 15057.84
776.2159, 14961.78
776.6981, 15032.57
777.1802, 15031.21
777.6623, 14955.75
778.1444, 15020.83
778.6265, 14955.58
779.1086, 15004.93
779.5908, 14985.13
780.0729, 14949.50
780.5550, 14927.09
781.0371, 14916.30
781.5192, 14943.61
782.0013, 15034.26
782.4835, 15095.29
782.9656, 15080.95
783.4477, 15029.79
783.9298, 14984.96
784.4119, 14946.31
784.8940, 14918.49
785.3762, 14899.90
785.8583, 14894.73
786.3404, 14909.80
786.8225, 14934.25
787.3046, 14970.84
787.7867, 15008.67
788.2689, 15016.60
788.7510, 14973.38
789.2331, 14924.24
789.7152, 14908.92
790.1973, 14911.40
790.6794, 14908.06
791.1616, 14897.55
791.6437, 14884.46
792.1258, 14870.68
792.6079, 14857.05
793.0900, 14771.00
793.5721, 14820.89
794.0543, 14845.46
794.5364, 14846.08
795.0185, 14751.01
795.5006, 14779.50
795.9827, 14758.47
796.4648, 14735.42
796.9470, 14781.30
797.4291, 14700.15
797.9112, 14744.94
798.3933, 14739.46
798.8754, 14756.98
799.3575, 14724.68
799.8397, 14707.77
800.3218, 14740.71
800.8039, 14746.04
801.2860, 14708.00
801.7681, 14726.99
802.2502, 14644.09
802.7324, 14650.60
803.2145, 14695.69
803.6966, 14660.16
804.1787, 14680.06
804.6608, 14678.84
805.1429, 14581.69
805.6251, 14630.96
806.1072, 14616.89
806.5893, 14621.83
807.0714, 14641.88
807.5535, 14645.00
808.0356, 14624.84
808.5178, 14600.74
808.9999, 14582.58
809.4820, 14575.20
809.9641, 14595.37
810.4462, 14659.01
810.9283, 14691.66
811.4105, 14682.39
811.8926, 14659.81
812.3747, 14621.02
812.8568, 14583.50
813.3389, 14570.93
813.8210, 14583.31
814.3032, 14590.18
814.7853, 14580.40
815.2674, 14573.06
815.7495, 14578.12
816.2316, 14585.74
816.7137, 14587.79
817.1959, 14584.05
817.6780, 14577.51
818.1601, 14569.55
818.6422, 14558.35
819.1243, 14534.34
819.6064, 14510.47
820.0886, 14513.81
820.5707, 14536.55
821.0528, 14547.23
821.5349, 14534.75
822.0170, 14510.19
822.4991, 14481.29
822.9813, 14452.75
823.4634, 14449.15
823.9455, 14472.12
824.4276, 14485.61
824.9097, 14481.91
825.3918, 14468.33
825.8740, 14448.90
826.3561, 14424.86
826.8382, 14399.11
827.3203, 14359.10
827.8024, 14346.91
828.2845, 14392.63
828.7667, 14429.30
829.2488, 14428.28
829.7309, 14408.28
830.2130, 14387.94
830.6951, 14368.75
831.1772, 14356.60
831.6594, 14350.41
832.1415, 14354.62
832.6236, 14390.66
833.1057, 14423.74
833.5878, 14413.28
834.0699, 14366.66
834.5521, 14315.52
835.0342, 14270.03
835.5163, 14245.40
835.9984, 14265.07
836.4805, 14309.66
836.9626, 14358.81
837.4448, 14403.96
837.9269, 14420.28
838.4090, 14400.38
838.8911, 14365.10
839.3732, 14333.33
839.8553, 14306.39
840.3375, 14287.56
840.8196, 14276.74
841.3017, 14283.24
841.7838, 14313.78
842.2659, 14335.36
842.7480, 14321.23
843.2302, 14288.66
843.7123, 14282.96
844.1944, 14316.49
844.6765, 14335.99
845.1586, 14343.08
845.6407, 14333.70
846.1229, 14290.85
846.6050, 14241.51
847.0871, 14213.05
847.5692, 14204.30
848.0513, 14194.83
848.5334, 14173.07
849.0156, 14162.07
849.4977, 14178.26
849.9798, 14198.41
850.4619, 14210.60
850.9440, 14210.99
851.4261, 14190.03
851.9083, 14142.76
852.3904, 14105.52
852.8725, 14108.51
853.3546, 14127.74
853.8367, 14146.38
854.3188, 14158.79
854.8010, 14151.75
855.2831, 14125.90
855.7652, 14100.03
856.2473, 14087.01
856.7294, 14084.57
857.2115, 14091.72
857.6937, 14106.27
858.1758, 14121.17
858.6579, 14135.27
859.1400, 14141.18
859.6221, 14136.33
860.1042, 14114.37
860.5864, 14057.42
861.0685, 13968.85
861.5506, 13940.51
862.0327, 13990.13
862.5148, 14030.14
862.9969, 14037.31
863.4791, 14039.88
863.9612, 14065.40
864.4433, 14102.59
864.9254, 14109.22
865.4075, 14063.77
865.8896, 14032.62
866.3718, 14026.49
866.8539, 14021.03
867.3360, 13999.40
867.8181, 13979.30
868.3002, 13990.31
868.7823, 14030.01
869.2645, 14044.51
869.7466, 13992.78
870.2287, 13948.97
870.7108, 13949.83
871.1929, 13963.72
871.6750, 13967.09
872.1572, 13958.84
872.6393, 13941.26
873.1214, 13914.52
873.6035, 13892.01
874.0856, 13884.48
874.5677, 13885.16
875.0499, 13888.84
875.5320, 13893.98
876.0141, 13898.48
876.4962, 13901.67
876.9783, 13903.95
877.4604, 13906.56
877.9426, 13904.45
878.4247, 13882.79
878.9068, 13849.47
879.3889, 13834.17
879.8710, 13838.36
880.3531, 13856.23
880.8353, 13886.59
881.3174, 13910.68
881.7995, 13903.87
882.2816, 13871.83
882.7637, 13851.68
883.2458, 13845.72
883.7280, 13833.92
884.2101, 13810.71
884.6922, 13788.91
885.1743, 13775.59
885.6564, 13770.83
886.1385, 13776.33
886.6207, 13796.41
887.1028, 13806.79
887.5849, 13799.78
888.0670, 13795.55
888.5491, 13807.17
889.0313, 13816.71
889.5134, 13803.93
889.9955, 13774.82
890.4776, 13757.34
890.9597, 13762.90
891.4418, 13762.88
891.9240, 13748.60
892.4061, 13733.02
892.8882, 13718.71
893.3703, 13709.49
893.8524, 13714.38
894.3345, 13732.58
894.8167, 13741.73
895.2988, 13725.79
895.7809, 13707.19
896.2630, 13703.31
896.7451, 13698.55
897.2272, 13669.64
897.7094, 13626.52
898.1915, 13596.88
898.6736, 13590.62
899.1557, 13596.42
899.6378, 13617.00
900.1199, 13635.38
900.6021, 13623.26
901.0842, 13594.81
901.5663, 13582.55
902.0484, 13589.50
902.5305, 13592.97
903.0126, 13577.29
903.4948, 13561.33
903.9769, 13579.25
904.4590, 13618.55
904.9411, 13641.49
905.4232, 13646.91
905.9053, 13639.11
906.3875, 13619.67
906.8696, 13596.43
907.3517, 13575.79
907.8338, 13559.12
908.3159, 13552.98
908.7980, 13557.50
909.2802, 13556.25
909.7623, 13547.13
910.2444, 13533.67
910.7265, 13514.66
911.2086, 13501.98
911.6907, 13516.64
912.1729, 13557.99
912.6550, 13574.17
913.1371, 13556.02
913.6192, 13542.03
914.1013, 13540.72
914.5834, 13541.15
915.0656, 13537.86
915.5477, 13530.15
916.0298, 13514.86
916.5119, 13487.07
916.9940, 13470.38
917.4761, 13478.86
917.9583, 13478.52
918.4404, 13441.51
918.9225, 13409.92
919.4046, 13428.24
919.8867, 13480.71
920.3688, 13507.50
920.8510, 13494.39
921.3331, 13477.44
921.8152, 13451.10
922.2973, 13434.31
922.7794, 13452.45
923.2615, 13474.03
923.7437, 13453.78
924.2258, 13395.94
924.7079, 13357.08
925.1900, 13364.82
925.6721, 13376.27
926.1542, 13369.94
926.6364, 13364.36
927.1185, 13382.54
927.6006, 13408.84
928.0827, 13411.93
928.5648, 13386.90
929.0469, 13363.64
929.5291, 13358.08
930.0112, 13361.19
930.4933, 13373.83
930.9754, 13386.08
931.4575, 13378.68
931.9396, 13360.16
932.4218, 13362.40
932.9039, 13396.29
933.3860, 13421.77
933.8681, 13394.87
934.3502, 13347.85
934.8323, 13317.12
935.3145, 13300.05
935.7966, 13297.00
936.2787, 13303.01
936.7608, 13295.94
937.2429, 13262.76
937.7250, 13234.42
938.2072, 13263.89
938.6893, 13320.16
939.1714, 13326.42
939.6535, 13293.64
940.1356, 13271.03
940.6177, 13268.84
941.0999, 13265.69
941.5820, 13245.21
942.0641, 13221.97
942.5462, 13228.69
943.0283, 13257.09
943.5104, 13262.85
943.9926, 13245.46
944.4747, 13219.96
944.9568, 13190.59
945.4389, 13170.71
945.9210, 13174.37
946.4031, 13191.87
946.8853, 13190.59
947.3674, 13170.77
947.8495, 13187.29
948.3316, 13248.17
948.8137, 13291.25
949.2958, 13291.53
949.7780, 13270.23
950.2601, 13250.04
950.7422, 13229.48
951.2243, 13196.94
951.7064, 13147.48
952.1885, 13120.95
952.6707, 13127.00
953.1528, 13132.34
953.6349, 13115.70
954.1170, 13104.38
954.5991, 13142.21
955.0812, 13225.09
955.5634, 13265.38
956.0455, 13251.41
956.5276, 13228.41
957.0097, 13193.65
957.4918, 13167.49
957.9739, 13164.59
958.4561, 13172.48
958.9382, 13169.04
959.4203, 13152.35
959.9024, 13152.94
960.3845, 13184.18
960.8666, 13205.41
961.3488, 13202.09
961.8309, 13199.98
962.3130, 13228.87
962.7951, 13262.05
963.2772, 13237.38
963.7593, 13133.57
964.2415, 13086.01
964.7236, 13133.84
965.2057, 13181.04
965.6878, 13227.21
966.1699, 13252.86
966.6520, 13233.62
967.1342, 13187.46
967.6163, 13153.19
968.0984, 13130.35
968.5805, 13125.04
969.0626, 13156.04
969.5447, 13179.75
970.0269, 13182.01
970.5090, 13176.05
970.9911, 13166.53
971.4732, 13157.65
971.9553, 13161.80
972.4374, 13187.92
972.9196, 13199.03
973.4017, 13186.18
973.8838, 13162.61
974.3659, 13115.41
974.8480, 13074.14
975.3301, 13075.26
975.8123, 13103.83
976.2944, 13108.58
976.7765, 13070.56
977.2586, 13045.11
977.7407, 13054.15
978.2228, 13066.62
978.7050, 13072.19
979.1871, 13072.23
979.6692, 13068.62
980.1513, 13061.30
980.6334, 13048.96
981.1155, 13030.13
981.5977, 13010.07
982.0798, 12980.43
982.5619, 12961.57
983.0440, 12971.05
983.5261, 12991.38
984.0082, 13006.30
984.4904, 13013.93
984.9725, 13015.35
985.4546, 13009.12
985.9367, 13001.92
986.4188, 13000.16
986.9009, 12993.59
987.3831, 12975.27
987.8652, 12949.45
988.3473, 12918.33
988.8294, 12884.65
989.3115, 12854.42
989.7936, 12825.14
990.2758, 12812.32
990.7579, 12835.09
991.2400, 12862.54
991.7221, 12883.26
992.2042, 12891.59
992.6863, 12874.26
993.1685, 12838.23
993.6506, 12815.66
994.1327, 12823.19
994.6148, 12827.60
995.0969, 12808.96
995.5790, 12787.78
996.0612, 12777.56
996.5433, 12773.47
997.0254, 12769.14
997.5075, 12763.87
997.9896, 12760.50
998.4717, 12763.27
998.9539, 12757.99
999.4360, 12728.71
999.9181, 12699.06
1000.400, 12682.33
1000.882, 12677.30
1001.364, 12688.06
1001.847, 12708.72
1002.329, 12716.12
1002.811, 12695.57
1003.293, 12682.24
1003.775, 12704.15
1004.257, 12726.46
1004.739, 12728.29
1005.221, 12714.24
1005.703, 12681.84
1006.186, 12640.04
1006.668, 12618.46
1007.150, 12633.08
1007.632, 12648.57
1008.114, 12645.55
1008.596, 12641.69
1009.078, 12651.98
1009.560, 12665.60
1010.043, 12667.41
1010.525, 12659.28
1011.007, 12655.19
1011.489, 12661.50
1011.971, 12664.24
1012.453, 12647.04
1012.935, 12636.27
1013.417, 12652.55
1013.899, 12680.64
1014.382, 12715.87
1014.864, 12746.01
1015.346, 12735.36
1015.828, 12661.30
1016.310, 12602.38
1016.792, 12596.22
1017.274, 12604.21
1017.756, 12620.11
1018.239, 12627.99
1018.721, 12596.82
1019.203, 12545.60
1019.685, 12536.03
1020.167, 12592.42
1020.649, 12638.63
1021.131, 12642.02
1021.613, 12639.70
1022.095, 12656.93
1022.578, 12669.55
1023.060, 12641.22
1023.542, 12592.02
1024.024, 12578.84
1024.506, 12618.80
1024.988, 12650.25
1025.470, 12665.92
1025.952, 12658.98
1026.435, 12591.94
1026.917, 12533.20
1027.399, 12558.83
1027.881, 12628.70
1028.363, 12648.94
1028.845, 12600.85
1029.327, 12561.29
1029.809, 12540.07
1030.292, 12534.69
1030.774, 12561.32
1031.256, 12586.65
1031.738, 12578.89
1032.220, 12558.03
1032.702, 12566.70
1033.184, 12611.63
1033.666, 12630.90
1034.148, 12592.54
1034.630, 12565.81
1035.113, 12573.84
1035.595, 12583.18
1036.077, 12574.95
1036.559, 12556.83
1037.041, 12539.45
1037.523, 12522.89
1038.005, 12508.27
1038.487, 12495.86
1038.970, 12484.87
1039.452, 12470.09
1039.934, 12463.47
1040.416, 12471.91
1040.898, 12490.37
1041.380, 12524.84
1041.862, 12569.54
1042.344, 12554.92
1042.826, 12424.84
1043.309, 12361.93
1043.791, 12406.20
1044.273, 12455.89
1044.755, 12482.56
1045.237, 12486.47
1045.719, 12460.09
1046.201, 12413.20
1046.683, 12392.13
1047.166, 12404.97
1047.648, 12416.84
1048.130, 12430.35
1048.612, 12432.26
1049.094, 12411.81
1049.576, 12397.60
1050.058, 12419.43
1050.540, 12457.91
1051.022, 12457.75
1051.505, 12414.13
1051.987, 12379.74
1052.469, 12355.65
1052.951, 12334.48
1053.433, 12313.40
1053.915, 12302.21
1054.397, 12309.02
1054.879, 12324.26
1055.361, 12329.53
1055.844, 12326.18
1056.326, 12332.42
1056.808, 12348.25
1057.290, 12356.84
1057.772, 12355.31
1058.254, 12350.56
1058.736, 12346.38
1059.218, 12338.23
1059.701, 12317.35
1060.183, 12290.07
1060.665, 12281.47
1061.147, 12286.96
1061.629, 12277.43
1062.111, 12252.79
1062.593, 12241.66
1063.075, 12254.69
1063.557, 12273.83
1064.040, 12282.94
1064.522, 12284.62
1065.004, 12281.45
1065.486, 12275.27
1065.968, 12271.24
1066.450, 12268.48
1066.932, 12264.10
1067.414, 12256.55
1067.896, 12240.19
1068.379, 12207.44
1068.861, 12178.71
1069.343, 12187.71
1069.825, 12206.92
1070.307, 12191.97
1070.789, 12159.38
1071.271, 12149.35
1071.753, 12161.54
1072.236, 12161.06
1072.718, 12130.16
1073.200, 12099.11
1073.682, 12082.22
1074.164, 12082.38
1074.646, 12124.40
1075.128, 12168.41
1075.610, 12160.12
1076.093, 12111.85
1076.575, 12061.65
1077.057, 12018.33
1077.539, 12010.97
1078.021, 12102.73
1078.503, 12166.49
1078.985, 12110.19
1079.467, 12037.96
1079.949, 12036.18
1080.432, 12071.94
1080.914, 12080.04
1081.396, 12055.05
1081.878, 12046.47
1082.360, 12085.35
1082.842, 12107.06
1083.324, 12094.42
1083.806, 12071.55
1084.288, 12044.79
1084.771, 12016.47
1085.253, 11990.36
1085.735, 11965.18
1086.217, 11932.31
1086.699, 11875.84
1087.181, 11856.20
1087.663, 11894.29
1088.145, 11928.05
1088.628, 11946.30
1089.110, 11946.21
1089.592, 11919.43
1090.074, 11880.14
1090.556, 11858.96
1091.038, 11856.37
1091.520, 11858.97
1092.002, 11867.44
1092.484, 11877.81
1092.967, 11890.49
1093.449, 11899.63
1093.931, 11903.90
1094.413, 11892.59
1094.895, 11845.83
1095.377, 11779.96
1095.859, 11755.27
1096.341, 11768.72
1096.823, 11807.52
1097.306, 11865.61
1097.788, 11900.29
1098.270, 11898.90
1098.752, 11890.52
1099.234, 11899.16
1099.716, 11909.12
1100.198, 11899.22
1100.680, 11871.59
1101.163, 11813.22
1101.645, 11745.51
1102.127, 11725.71
1102.609, 11755.01
1103.091, 11793.15
1103.573, 11822.15
1104.055, 11838.73
1104.537, 11837.27
1105.020, 11825.06
1105.502, 11802.24
1105.984, 11777.55
1106.466, 11758.03
1106.948, 11746.43
1107.430, 11751.07
1107.912, 11771.80
1108.394, 11781.03
1108.876, 11759.49
1109.359, 11736.65
1109.841, 11721.83
1110.323, 11710.89
1110.805, 11702.82
1111.287, 11696.25
1111.769, 11685.30
1112.251, 11673.58
1112.733, 11682.41
1113.215, 11736.34
1113.698, 11753.77
1114.180, 11708.67
1114.662, 11664.63
1115.144, 11630.76
1115.626, 11608.28
1116.108, 11598.11
1116.590, 11600.18
1117.072, 11618.90
1117.555, 11654.46
1118.037, 11653.92
1118.519, 11604.71
1119.001, 11598.83
1119.483, 11657.36
1119.965, 11685.46
1120.447, 11638.39
1120.929, 11581.08
1121.411, 11583.73
1121.894, 11617.55
1122.376, 11599.24
1122.858, 11543.65
1123.340, 11536.71
1123.822, 11570.33
1124.304, 11576.10
1124.786, 11542.59
1125.268, 11516.92
1125.750, 11527.05
1126.233, 11535.94
1126.715, 11482.90
1127.197, 11420.43
1127.679, 11431.72
1128.161, 11477.61
1128.643, 11495.96
1129.125, 11490.85
1129.607, 11497.84
1130.090, 11523.53
1130.572, 11531.47
1131.054, 11492.81
1131.536, 11450.97
1132.018, 11423.96
1132.500, 11406.33
1132.982, 11398.12
1133.464, 11394.21
1133.947, 11389.33
1134.429, 11383.50
1134.911, 11377.72
1135.393, 11368.39
1135.875, 11371.89
1136.357, 11411.75
1136.839, 11431.01
1137.321, 11411.93
1137.803, 11380.92
1138.286, 11343.80
1138.768, 11314.46
1139.250, 11316.61
1139.732, 11346.04
1140.214, 11363.38
1140.696, 11367.91
1141.178, 11365.52
1141.660, 11356.18
1142.142, 11343.26
1142.625, 11327.50
1143.107, 11314.19
1143.589, 11307.26
1144.071, 11306.20
1144.553, 11315.34
1145.035, 11327.83
1145.517, 11319.00
1145.999, 11295.93
1146.482, 11277.14
1146.964, 11267.40
1147.446, 11276.04
1147.928, 11304.58
1148.410, 11323.88
1148.892, 11308.59
1149.374, 11281.85
1149.856, 11259.01
1150.339, 11239.66
1150.821, 11216.57
1151.303, 11200.95
1151.785, 11224.75
1152.267, 11273.57
1152.749, 11274.05
1153.231, 11189.68
1153.713, 11132.12
1154.195, 11143.59
1154.677, 11161.43
1155.160, 11164.94
1155.642, 11171.94
1156.124, 11205.36
1156.606, 11239.17
1157.088, 11230.60
1157.570, 11184.48
1158.052, 11158.78
1158.534, 11159.04
1159.017, 11156.98
1159.499, 11153.92
1159.981, 11124.14
1160.463, 11053.25
1160.945, 11014.85
1161.427, 11067.82
1161.909, 11154.50
1162.391, 11174.47
1162.874, 11149.70
1163.356, 11158.90
1163.838, 11186.97
1164.320, 11181.51
1164.802, 11144.87
1165.284, 11112.93
1165.766, 11096.59
1166.248, 11079.02
1166.730, 11045.65
1167.213, 11016.05
1167.695, 11005.08
1168.177, 11006.42
1168.659, 11030.79
1169.141, 11052.17
1169.623, 11024.49
1170.105, 10968.13
1170.587, 10953.70
1171.069, 11000.67
1171.552, 11028.87
1172.034, 11014.31
1172.516, 10996.13
1172.998, 10973.27
1173.480, 10957.78
1173.962, 10954.24
1174.444, 10961.54
1174.926, 10980.96
1175.409, 11008.29
1175.891, 11030.87
1176.373, 11049.61
1176.855, 11047.73
1177.337, 11024.78
1177.819, 10997.62
1178.301, 10969.78
1178.783, 10954.35
1179.266, 10957.70
1179.748, 10964.80
1180.230, 10962.51
1180.712, 10949.44
1181.194, 10907.87
1181.676, 10864.07
1182.158, 10875.92
1182.640, 10917.33
1183.122, 10923.65
1183.604, 10895.68
1184.087, 10889.59
1184.569, 10930.85
1185.051, 10955.32
1185.533, 10908.21
1186.015, 10872.95
1186.497, 10899.62
1186.979, 10934.28
1187.461, 10944.16
1187.944, 10935.60
1188.426, 10915.29
1188.908, 10886.26
1189.390, 10867.10
1189.872, 10862.75
1190.354, 10846.91
1190.836, 10810.85
1191.318, 10806.58
1191.801, 10850.64
1192.283, 10891.07
1192.765, 10897.71
1193.247, 10893.02
1193.729, 10910.60
1194.211, 10929.19
1194.693, 10881.24
1195.175, 10797.73
1195.657, 10762.02
1196.140, 10765.57
1196.622, 10766.25
1197.104, 10758.33
1197.586, 10764.16
1198.068, 10794.63
1198.550, 10828.58
1199.032, 10872.35
1199.514, 10890.33
1199.996, 10838.95
1200.479, 10777.95
1200.961, 10749.89
1201.443, 10745.02
1201.925, 10747.87
1202.407, 10757.04
1202.889, 10770.17
1203.371, 10792.72
1203.853, 10800.14
1204.336, 10786.30
1204.818, 10777.89
1205.300, 10781.63
1205.782, 10785.33
1206.264, 10783.04
1206.746, 10773.14
1207.228, 10750.34
1207.710, 10725.02
1208.193, 10728.48
1208.675, 10749.01
1209.157, 10754.04
1209.639, 10745.29
1210.121, 10729.21
1210.603, 10710.58
1211.085, 10699.49
1211.567, 10699.83
1212.049, 10709.44
1212.531, 10741.09
1213.014, 10762.44
1213.496, 10748.68
1213.978, 10727.19
1214.460, 10712.00
1214.942, 10703.74
1215.424, 10709.03
1215.906, 10720.25
1216.388, 10707.13
1216.871, 10660.90
1217.353, 10647.15
1217.835, 10675.03
1218.317, 10695.58
1218.799, 10700.57
1219.281, 10714.25
1219.763, 10749.21
1220.245, 10758.30
1220.728, 10690.35
1221.210, 10604.71
1221.692, 10623.70
1222.174, 10690.60
1222.656, 10685.22
1223.138, 10636.80
1223.620, 10606.41
1224.102, 10596.66
1224.584, 10579.60
1225.067, 10551.61
1225.549, 10560.33
##END=



