##NAMES=Ferricopiapite
##RRUFFID=R060721
##IDEAL CHEMISTRY=Fe^3+^_2/3_Fe^3+^_4_(S^6+^O_4_)_6_(OH)_2_&#183;20H_2_O
##LOCALITY=Alcaparrosa mine, near Cerritos Bayos, El Loa Province, Chile
##OWNER=RRUFF
##SOURCE=University of Arizona Mineral Museum
##DESCRIPTION=Yellow platy crystals associated with parabutlerite
##STATUS=The identification of this mineral has been confirmed only by single crystal X-ray diffraction.
##URL=rruff.info/R060721
88.13672, 293.4875
88.61884, 297.3415
89.10095, 301.0885
89.58307, 305.7958
90.06519, 311.3398
90.54730, 316.8687
91.02942, 322.9595
91.51154, 328.3347
91.99365, 331.3683
92.47577, 332.4266
92.95789, 332.9091
93.44000, 333.6042
93.92212, 334.2000
94.40424, 334.6447
94.88635, 335.5191
95.36847, 336.6180
95.85059, 337.2341
96.33270, 337.3073
96.81482, 337.3465
97.29694, 337.5600
97.77905, 337.9466
98.26117, 339.2307
98.74329, 341.7086
99.22540, 345.2346
99.70752, 349.3498
100.1896, 354.4849
100.6718, 359.0910
101.1539, 360.6251
101.6360, 358.0250
102.1181, 356.3372
102.6002, 357.3731
103.0823, 361.5777
103.5645, 365.5250
104.0466, 368.9247
104.5287, 372.3010
105.0108, 376.7848
105.4929, 382.9166
105.9750, 389.3597
106.4572, 395.7138
106.9393, 402.8028
107.4214, 408.3907
107.9035, 411.7190
108.3856, 413.5163
108.8677, 416.1554
109.3499, 420.4595
109.8320, 425.0591
110.3141, 429.3662
110.7962, 433.0823
111.2783, 436.9373
111.7604, 440.8553
112.2426, 444.9336
112.7247, 449.5673
113.2068, 455.5963
113.6889, 461.8009
114.1710, 467.2764
114.6531, 471.5058
115.1353, 475.2672
115.6174, 478.6704
116.0995, 481.7056
116.5816, 484.8665
117.0637, 488.8809
117.5458, 492.9141
118.0280, 496.1075
118.5101, 497.4281
118.9922, 498.2489
119.4743, 499.2316
119.9564, 500.4026
120.4385, 501.8590
120.9207, 503.5270
121.4028, 505.5203
121.8849, 508.0314
122.3670, 512.1076
122.8491, 516.3545
123.3312, 519.1650
123.8134, 520.1554
124.2955, 520.5188
124.7776, 521.0762
125.2597, 521.8571
125.7418, 522.9539
126.2239, 524.1756
126.7061, 525.8087
127.1882, 528.4384
127.6703, 532.4070
128.1524, 536.9825
128.6345, 540.8318
129.1166, 544.0851
129.5988, 548.0661
130.0809, 554.6141
130.5630, 562.9911
131.0451, 569.9609
131.5272, 574.3076
132.0093, 577.2071
132.4915, 581.4215
132.9736, 587.0185
133.4557, 593.2794
133.9378, 599.5217
134.4199, 605.7609
134.9020, 612.2541
135.3842, 619.1185
135.8663, 626.1977
136.3484, 633.2982
136.8305, 640.2549
137.3126, 647.6563
137.7947, 656.5233
138.2769, 667.4049
138.7590, 677.0250
139.2411, 684.0671
139.7232, 688.5585
140.2053, 693.4983
140.6874, 699.1164
141.1696, 705.0242
141.6517, 710.6244
142.1338, 715.8860
142.6159, 721.0941
143.0980, 726.5129
143.5801, 732.3152
144.0623, 737.4440
144.5444, 741.6575
145.0265, 745.3953
145.5086, 749.2932
145.9907, 753.5693
146.4728, 757.8077
146.9550, 761.8006
147.4371, 764.9238
147.9192, 769.2187
148.4013, 775.0850
148.8834, 782.0501
149.3655, 789.2066
149.8477, 796.5452
150.3298, 804.0269
150.8119, 811.5638
151.2940, 819.0016
151.7761, 826.7302
152.2583, 834.6921
152.7404, 842.8468
153.2225, 851.1645
153.7046, 860.7341
154.1867, 869.6131
154.6688, 876.8749
155.1510, 881.8182
155.6331, 886.0203
156.1152, 889.9486
156.5973, 893.4004
157.0794, 895.4568
157.5615, 895.6722
158.0437, 894.6182
158.5258, 892.6567
159.0079, 890.0212
159.4900, 886.3325
159.9721, 881.2781
160.4542, 874.9794
160.9364, 868.1298
161.4185, 860.4257
161.9006, 852.5383
162.3827, 845.0070
162.8648, 838.2143
163.3469, 831.6072
163.8291, 824.7936
164.3112, 817.8820
164.7933, 811.3700
165.2754, 805.6931
165.7575, 800.4846
166.2396, 795.3592
166.7218, 789.0270
167.2039, 783.5939
167.6860, 780.9258
168.1681, 780.9870
168.6502, 781.2309
169.1323, 780.0115
169.6145, 778.0085
170.0966, 776.1529
170.5787, 775.0970
171.0608, 774.1830
171.5429, 772.8002
172.0250, 770.9089
172.5072, 768.9352
172.9893, 767.2825
173.4714, 765.7461
173.9535, 763.9449
174.4356, 760.8468
174.9177, 757.7824
175.3999, 756.5225
175.8820, 757.2474
176.3641, 758.5305
176.8462, 759.1306
177.3283, 759.2572
177.8104, 759.4616
178.2926, 759.5928
178.7747, 760.0560
179.2568, 761.6290
179.7389, 764.3933
180.2210, 767.8281
180.7031, 771.2305
181.1853, 774.7284
181.6674, 778.7349
182.1495, 783.6415
182.6316, 789.1943
183.1137, 794.6729
183.5958, 800.0891
184.0780, 805.4648
184.5601, 810.8738
185.0422, 816.2664
185.5243, 821.9279
186.0064, 827.9412
186.4885, 834.3398
186.9707, 840.9947
187.4528, 847.9891
187.9349, 855.2185
188.4170, 862.6529
188.8991, 870.2803
189.3812, 877.8262
189.8634, 885.6430
190.3455, 893.4695
190.8276, 899.7782
191.3097, 904.3270
191.7918, 907.7524
192.2739, 911.2538
192.7561, 914.8907
193.2382, 917.8544
193.7203, 919.8824
194.2024, 920.9464
194.6845, 920.6583
195.1666, 918.8145
195.6488, 915.8729
196.1309, 912.7359
196.6130, 909.3994
197.0951, 905.5712
197.5772, 901.1237
198.0593, 896.0632
198.5415, 890.0486
199.0236, 882.8107
199.5057, 874.9208
199.9878, 867.7381
200.4699, 861.2797
200.9520, 855.4240
201.4342, 850.2278
201.9163, 845.6895
202.3984, 841.5626
202.8805, 837.9843
203.3626, 834.6705
203.8447, 830.6256
204.3269, 825.4449
204.8090, 820.9650
205.2911, 818.4550
205.7732, 818.1660
206.2553, 817.9789
206.7374, 817.5910
207.2196, 817.3440
207.7017, 818.1310
208.1838, 819.9664
208.6659, 822.8178
209.1480, 826.9534
209.6301, 832.8489
210.1123, 837.8469
210.5944, 841.2112
211.0765, 843.9249
211.5586, 849.0020
212.0407, 857.1679
212.5228, 866.0947
213.0050, 874.5490
213.4871, 882.4731
213.9692, 889.9453
214.4513, 896.7327
214.9334, 903.1259
215.4155, 910.2109
215.8977, 918.0984
216.3798, 926.4666
216.8619, 935.1691
217.3440, 944.3234
217.8261, 953.3467
218.3082, 962.2198
218.7904, 970.8642
219.2725, 978.9407
219.7546, 986.2488
220.2367, 993.2145
220.7188, 999.8170
221.2009, 1005.684
221.6831, 1012.404
222.1652, 1020.081
222.6473, 1028.667
223.1294, 1037.768
223.6115, 1047.608
224.0936, 1057.773
224.5758, 1068.251
225.0579, 1079.157
225.5400, 1089.940
226.0221, 1100.260
226.5042, 1110.596
226.9863, 1121.897
227.4685, 1134.356
227.9506, 1147.695
228.4327, 1161.844
228.9148, 1177.318
229.3969, 1192.697
229.8790, 1207.710
230.3612, 1222.684
230.8433, 1238.370
231.3254, 1254.929
231.8075, 1272.196
232.2896, 1290.175
232.7717, 1308.975
233.2539, 1328.212
233.7360, 1348.082
234.2181, 1367.962
234.7002, 1386.477
235.1823, 1402.721
235.6644, 1418.717
236.1466, 1435.415
236.6287, 1453.520
237.1108, 1470.365
237.5929, 1485.912
238.0750, 1499.973
238.5571, 1511.847
239.0393, 1520.564
239.5214, 1528.647
240.0035, 1537.040
240.4856, 1546.245
240.9677, 1554.547
241.4498, 1561.813
241.9320, 1568.280
242.4141, 1574.489
242.8962, 1580.528
243.3783, 1586.253
243.8604, 1591.794
244.3425, 1597.531
244.8247, 1601.717
245.3068, 1603.777
245.7889, 1604.666
246.2710, 1605.858
246.7531, 1607.293
247.2352, 1609.109
247.7174, 1611.358
248.1995, 1614.023
248.6816, 1616.938
249.1637, 1619.783
249.6458, 1623.098
250.1279, 1627.713
250.6101, 1634.310
251.0922, 1640.942
251.5743, 1646.775
252.0564, 1651.546
252.5385, 1657.714
253.0206, 1665.516
253.5028, 1674.576
253.9849, 1684.228
254.4670, 1694.615
254.9491, 1705.521
255.4312, 1716.743
255.9133, 1728.112
256.3955, 1741.222
256.8776, 1756.647
257.3597, 1773.249
257.8418, 1789.809
258.3239, 1806.224
258.8061, 1823.153
259.2882, 1840.944
259.7703, 1859.654
260.2524, 1878.205
260.7345, 1896.714
261.2166, 1915.115
261.6988, 1933.917
262.1809, 1953.291
262.6630, 1971.651
263.1451, 1988.689
263.6272, 2004.507
264.1093, 2018.653
264.5915, 2031.563
265.0736, 2042.313
265.5557, 2050.827
266.0378, 2057.745
266.5199, 2059.690
267.0020, 2055.860
267.4842, 2046.666
267.9663, 2034.406
268.4484, 2019.363
268.9305, 2000.703
269.4126, 1977.770
269.8947, 1949.662
270.3769, 1919.783
270.8590, 1888.578
271.3411, 1855.474
271.8232, 1819.361
272.3053, 1779.715
272.7874, 1738.797
273.2696, 1696.955
273.7517, 1653.850
274.2338, 1612.427
274.7159, 1572.906
275.1980, 1534.736
275.6801, 1497.567
276.1623, 1461.354
276.6444, 1426.393
277.1265, 1392.600
277.6086, 1359.431
278.0907, 1329.605
278.5728, 1303.524
279.0550, 1279.892
279.5371, 1256.100
280.0192, 1231.860
280.5013, 1209.782
280.9834, 1191.431
281.4655, 1176.724
281.9477, 1162.489
282.4298, 1148.627
282.9119, 1135.818
283.3940, 1124.964
283.8761, 1116.053
284.3582, 1109.102
284.8404, 1104.722
285.3225, 1102.464
285.8046, 1099.384
286.2867, 1095.234
286.7688, 1091.528
287.2509, 1090.193
287.7331, 1091.104
288.2152, 1092.539
288.6973, 1093.980
289.1794, 1095.573
289.6615, 1097.767
290.1436, 1100.613
290.6258, 1103.846
291.1079, 1107.166
291.5900, 1110.665
292.0721, 1114.914
292.5542, 1120.416
293.0363, 1126.396
293.5185, 1131.063
294.0006, 1134.475
294.4827, 1137.637
294.9648, 1141.459
295.4469, 1145.740
295.9290, 1149.814
296.4112, 1153.652
296.8933, 1157.121
297.3754, 1160.132
297.8575, 1162.615
298.3396, 1164.256
298.8217, 1165.576
299.3039, 1165.775
299.7860, 1163.056
300.2681, 1156.876
300.7502, 1148.670
301.2323, 1140.320
301.7144, 1131.371
302.1966, 1120.815
302.6787, 1107.698
303.1608, 1092.662
303.6429, 1076.198
304.1250, 1058.456
304.6071, 1039.558
305.0893, 1019.541
305.5714, 998.4541
306.0535, 977.1937
306.5356, 955.6457
307.0177, 934.1198
307.4998, 913.4302
307.9820, 893.4226
308.4641, 873.3986
308.9462, 852.6364
309.4283, 831.4998
309.9104, 810.7217
310.3925, 790.7381
310.8747, 771.2939
311.3568, 752.2514
311.8389, 733.7072
312.3210, 716.4320
312.8031, 701.1149
313.2852, 686.9744
313.7674, 673.1047
314.2495, 659.0332
314.7316, 645.7250
315.2137, 634.3532
315.6958, 624.3928
316.1779, 614.0906
316.6601, 601.7973
317.1422, 589.4760
317.6243, 578.5519
318.1064, 569.8624
318.5885, 561.5707
319.0706, 553.0855
319.5528, 544.5825
320.0349, 536.4063
320.5170, 529.0334
320.9991, 521.6945
321.4812, 513.8998
321.9633, 505.2723
322.4455, 497.3665
322.9276, 490.5912
323.4097, 484.6129
323.8918, 479.0226
324.3739, 474.1600
324.8560, 469.2928
325.3382, 464.1303
325.8203, 458.5760
326.3024, 453.4573
326.7845, 448.8940
327.2666, 444.7213
327.7487, 440.7956
328.2309, 436.9749
328.7130, 433.6257
329.1951, 431.3160
329.6772, 429.8322
330.1593, 426.9486
330.6414, 421.3958
331.1236, 415.6838
331.6057, 411.1576
332.0878, 408.5065
332.5699, 405.7816
333.0520, 402.8760
333.5341, 399.8755
334.0163, 397.0704
334.4984, 394.6206
334.9805, 392.1372
335.4626, 389.4501
335.9447, 386.5237
336.4268, 383.4322
336.9090, 379.9377
337.3911, 376.4881
337.8732, 373.9765
338.3553, 372.7293
338.8374, 371.2820
339.3195, 368.9507
339.8017, 365.8151
340.2838, 363.7061
340.7659, 362.8913
341.2480, 362.4218
341.7301, 361.1889
342.2122, 359.1278
342.6944, 357.3663
343.1765, 356.2378
343.6586, 355.5422
344.1407, 354.6239
344.6228, 353.4623
345.1049, 352.3361
345.5871, 351.6276
346.0692, 351.2223
346.5513, 350.3272
347.0334, 348.6718
347.5155, 346.8199
347.9977, 345.8764
348.4798, 345.7281
348.9619, 345.5099
349.4440, 344.4929
349.9261, 343.0691
350.4082, 342.1997
350.8904, 342.0021
351.3725, 341.9715
351.8546, 341.4449
352.3367, 340.6497
352.8188, 340.1757
353.3009, 340.6290
353.7831, 341.3546
354.2652, 341.5491
354.7473, 341.2289
355.2294, 340.7990
355.7115, 340.4110
356.1936, 340.1339
356.6758, 340.0691
357.1579, 340.3384
357.6400, 340.7109
358.1221, 341.0958
358.6042, 341.4655
359.0863, 341.7303
359.5685, 341.5954
360.0506, 341.4948
360.5327, 341.8164
361.0148, 342.8181
361.4969, 343.7270
361.9790, 344.0933
362.4612, 344.1740
362.9433, 344.4098
363.4254, 344.8073
363.9075, 345.4910
364.3896, 346.6740
364.8717, 348.4714
365.3539, 349.9118
365.8360, 350.4958
366.3181, 350.7730
366.8002, 351.2629
367.2823, 352.1134
367.7644, 353.0717
368.2466, 354.1122
368.7287, 355.2374
369.2108, 356.4261
369.6929, 357.7285
370.1750, 359.0650
370.6571, 360.4010
371.1393, 361.9264
371.6214, 363.1240
372.1035, 363.7924
372.5856, 364.2106
373.0677, 364.9796
373.5498, 366.1253
374.0320, 367.6012
374.5141, 369.5342
374.9962, 372.0338
375.4783, 373.8701
375.9604, 374.7346
376.4425, 375.4102
376.9247, 376.8607
377.4068, 379.1675
377.8889, 381.7055
378.3710, 384.4801
378.8531, 387.3097
379.3352, 389.3539
379.8174, 390.4984
380.2995, 391.5186
380.7816, 392.9656
381.2637, 394.8210
381.7458, 396.8022
382.2279, 398.8808
382.7101, 401.1107
383.1922, 403.8573
383.6743, 407.0302
384.1564, 409.8160
384.6385, 411.2903
385.1206, 412.1949
385.6028, 414.1888
386.0849, 417.4159
386.5670, 420.8630
387.0491, 423.4637
387.5312, 425.6300
388.0133, 428.2166
388.4955, 431.9184
388.9776, 435.8514
389.4597, 439.2151
389.9418, 442.0511
390.4239, 444.6156
390.9060, 446.8550
391.3882, 448.9991
391.8703, 451.2386
392.3524, 453.6282
392.8345, 456.1403
393.3166, 458.8528
393.7987, 461.6885
394.2809, 464.4481
394.7630, 466.8911
395.2451, 469.4095
395.7272, 472.3041
396.2093, 475.6832
396.6914, 478.7618
397.1736, 481.0237
397.6557, 483.0825
398.1378, 485.5121
398.6199, 488.9593
399.1020, 492.0666
399.5841, 494.5485
400.0663, 496.4915
400.5484, 498.4767
401.0305, 500.3203
401.5126, 502.4055
401.9947, 505.0112
402.4768, 508.5649
402.9590, 511.5734
403.4411, 513.9426
403.9232, 515.8521
404.4053, 517.5426
404.8874, 518.9139
405.3695, 520.4059
405.8517, 522.1266
406.3338, 524.0770
406.8159, 526.5793
407.2980, 529.7933
407.7801, 533.0301
408.2622, 535.5059
408.7444, 537.2657
409.2265, 539.0629
409.7086, 540.9527
410.1907, 543.0676
410.6728, 545.8457
411.1549, 549.2339
411.6371, 552.5912
412.1192, 555.3070
412.6013, 557.7073
413.0834, 560.5786
413.5655, 564.0184
414.0476, 567.4714
414.5298, 570.4631
415.0119, 573.0801
415.4940, 575.5682
415.9761, 577.7200
416.4582, 579.9904
416.9403, 582.8516
417.4225, 586.2299
417.9046, 589.6194
418.3867, 592.5502
418.8688, 595.4179
419.3509, 598.5855
419.8330, 602.5243
420.3152, 605.9830
420.7973, 607.9807
421.2794, 609.2697
421.7615, 611.2301
422.2436, 615.1512
422.7257, 618.9228
423.2079, 621.5684
423.6900, 622.7863
424.1721, 624.9442
424.6542, 628.8121
425.1363, 633.3380
425.6184, 637.8334
426.1006, 642.1207
426.5827, 646.5131
427.0648, 651.0167
427.5469, 655.6470
428.0290, 660.2980
428.5111, 664.8406
428.9933, 669.5974
429.4754, 674.4919
429.9575, 679.3904
430.4396, 685.6970
430.9217, 693.7725
431.4038, 702.5014
431.8860, 710.2350
432.3681, 716.9225
432.8502, 724.0071
433.3323, 731.9049
433.8144, 740.4436
434.2965, 749.1406
434.7787, 758.0088
435.2608, 767.2536
435.7429, 777.0216
436.2250, 787.2930
436.7071, 798.0471
437.1892, 809.3284
437.6714, 820.9887
438.1535, 832.8094
438.6356, 844.8071
439.1177, 856.9034
439.5998, 869.5704
440.0819, 881.9591
440.5641, 892.8799
441.0462, 902.5060
441.5283, 912.7936
442.0104, 925.2792
442.4925, 938.5432
442.9746, 951.1588
443.4568, 962.3989
443.9389, 973.9055
444.4210, 986.9627
444.9031, 1000.545
445.3852, 1012.751
445.8673, 1022.602
446.3495, 1031.445
446.8316, 1039.567
447.3137, 1046.906
447.7958, 1054.208
448.2779, 1061.655
448.7600, 1068.863
449.2422, 1075.560
449.7243, 1081.893
450.2064, 1087.454
450.6885, 1092.139
451.1706, 1096.170
451.6527, 1100.119
452.1349, 1104.110
452.6170, 1107.620
453.0991, 1109.861
453.5812, 1110.971
454.0633, 1114.070
454.5454, 1119.328
455.0276, 1125.796
455.5097, 1132.307
455.9918, 1139.058
456.4739, 1146.882
456.9560, 1156.180
457.4381, 1166.488
457.9203, 1176.818
458.4024, 1187.370
458.8845, 1199.414
459.3666, 1213.573
459.8488, 1229.628
460.3309, 1247.217
460.8130, 1266.256
461.2951, 1286.707
461.7772, 1308.034
462.2593, 1330.593
462.7415, 1354.422
463.2236, 1380.139
463.7057, 1406.548
464.1878, 1432.769
464.6699, 1458.976
465.1520, 1486.499
465.6342, 1515.802
466.1163, 1545.702
466.5984, 1576.069
467.0805, 1607.001
467.5626, 1637.572
468.0447, 1667.850
468.5269, 1697.580
469.0090, 1726.913
469.4911, 1756.101
469.9732, 1784.183
470.4553, 1811.258
470.9374, 1837.149
471.4196, 1861.700
471.9017, 1884.659
472.3838, 1906.545
472.8659, 1927.811
473.3480, 1948.517
473.8301, 1967.484
474.3123, 1984.900
474.7944, 2000.120
475.2765, 2011.996
475.7586, 2020.830
476.2407, 2028.344
476.7228, 2035.597
477.2050, 2041.225
477.6871, 2043.296
478.1692, 2041.921
478.6513, 2037.438
479.1334, 2030.386
479.6155, 2020.218
480.0977, 2006.481
480.5798, 1989.200
481.0619, 1967.895
481.5440, 1941.626
482.0261, 1911.697
482.5082, 1879.370
482.9904, 1845.562
483.4725, 1808.879
483.9546, 1768.353
484.4367, 1724.232
484.9188, 1678.778
485.4009, 1630.823
485.8831, 1582.500
486.3652, 1533.901
486.8473, 1485.295
487.3294, 1437.077
487.8115, 1388.878
488.2936, 1341.385
488.7758, 1294.395
489.2579, 1247.054
489.7400, 1202.456
490.2221, 1161.605
490.7042, 1123.404
491.1863, 1085.884
491.6685, 1048.819
492.1506, 1012.886
492.6327, 978.6624
493.1148, 945.8135
493.5969, 915.2753
494.0790, 886.7053
494.5612, 859.9927
495.0433, 834.8134
495.5254, 811.2155
496.0075, 788.6288
496.4896, 767.0851
496.9717, 746.5342
497.4539, 727.8231
497.9360, 710.3854
498.4181, 693.5284
498.9002, 676.2634
499.3823, 659.7089
499.8644, 644.5419
500.3466, 630.6889
500.8287, 617.8982
501.3108, 606.5114
501.7929, 595.8747
502.2750, 585.5329
502.7571, 575.4589
503.2393, 565.4639
503.7214, 555.2108
504.2035, 545.1378
504.6856, 536.0931
505.1677, 528.6331
505.6498, 521.2465
506.1320, 513.2583
506.6141, 504.6738
507.0962, 497.4797
507.5783, 491.9932
508.0604, 486.8719
508.5425, 480.9020
509.0247, 474.1860
509.5068, 468.0533
509.9889, 462.7902
510.4710, 457.7581
510.9531, 451.8391
511.4352, 445.3252
511.9174, 439.2800
512.3995, 434.0967
512.8816, 429.6670
513.3637, 426.1733
513.8458, 423.4341
514.3279, 420.3741
514.8101, 415.8935
515.2922, 411.1070
515.7743, 406.9181
516.2564, 403.5639
516.7385, 400.4251
517.2206, 397.4066
517.7028, 394.4694
518.1849, 391.5858
518.6670, 388.9359
519.1491, 386.1286
519.6312, 383.0253
520.1133, 379.7274
520.5955, 376.4843
521.0776, 373.2195
521.5597, 370.2075
522.0418, 367.4872
522.5239, 365.0110
523.0060, 363.6602
523.4882, 363.9373
523.9703, 363.9452
524.4524, 361.1457
524.9345, 355.7859
525.4166, 351.2190
525.8987, 347.9303
526.3809, 345.8927
526.8630, 345.9316
527.3451, 347.4270
527.8272, 347.8544
528.3093, 344.8159
528.7914, 340.6939
529.2736, 338.1436
529.7557, 337.1041
530.2378, 336.2451
530.7199, 334.8795
531.2020, 333.3000
531.6841, 331.7264
532.1663, 330.0639
532.6484, 328.6740
533.1305, 327.7386
533.6126, 327.0864
534.0947, 326.4607
534.5768, 326.2679
535.0590, 325.5587
535.5411, 323.8031
536.0232, 321.2982
536.5053, 320.0180
536.9874, 320.4707
537.4695, 321.0566
537.9517, 320.8935
538.4338, 319.9284
538.9159, 319.3789
539.3980, 319.3161
539.8801, 319.3876
540.3622, 319.1371
540.8444, 318.6566
541.3265, 318.4232
541.8086, 318.6561
542.2907, 318.9338
542.7728, 318.6195
543.2549, 317.8839
543.7371, 317.2286
544.2192, 316.8171
544.7013, 316.6505
545.1834, 316.9214
545.6655, 317.5821
546.1476, 317.9058
546.6298, 317.2829
547.1119, 316.4348
547.5940, 315.8469
548.0761, 315.7465
548.5582, 315.5796
549.0403, 315.2612
549.5225, 314.8753
550.0046, 314.5449
550.4867, 314.4065
550.9688, 314.0534
551.4509, 313.4466
551.9330, 312.5601
552.4152, 311.2102
552.8973, 309.2917
553.3794, 307.4810
553.8615, 306.1929
554.3436, 305.3267
554.8257, 304.2418
555.3079, 302.9175
555.7900, 301.8543
556.2721, 301.7293
556.7542, 302.1529
557.2363, 302.6280
557.7184, 303.4122
558.2006, 303.1856
558.6827, 300.1338
559.1648, 295.5059
559.6469, 291.3480
560.1290, 288.5317
560.6111, 286.2657
561.0933, 284.4521
561.5754, 283.0151
562.0575, 281.5752
562.5396, 280.0497
563.0217, 278.5414
563.5038, 277.0587
563.9860, 275.5657
564.4681, 274.2472
564.9502, 273.1558
565.4323, 272.1572
565.9144, 271.1328
566.3965, 270.0696
566.8787, 269.0733
567.3608, 268.1617
567.8429, 267.3337
568.3250, 266.6750
568.8071, 266.1469
569.2892, 265.5612
569.7714, 264.7667
570.2535, 263.9180
570.7356, 263.2616
571.2177, 262.7609
571.6998, 262.2610
572.1819, 261.4098
572.6641, 260.6798
573.1462, 260.4324
573.6283, 260.7337
574.1104, 261.3624
574.5925, 262.4996
575.0746, 263.7997
575.5568, 264.9724
576.0389, 266.0299
576.5210, 266.8353
577.0031, 267.0473
577.4852, 267.1533
577.9673, 268.1715
578.4495, 270.2595
578.9316, 272.8793
579.4137, 276.2738
579.8958, 279.9879
580.3779, 281.9008
580.8600, 281.9320
581.3422, 281.9755
581.8243, 283.3671
582.3064, 285.7231
582.7885, 288.1205
583.2706, 290.4891
583.7527, 293.1319
584.2349, 296.4387
584.7170, 300.1361
585.1991, 303.8983
585.6812, 307.8138
586.1633, 311.5453
586.6454, 314.7888
587.1276, 317.7894
587.6097, 320.9445
588.0918, 324.1658
588.5739, 327.7665
589.0560, 331.9036
589.5381, 336.5058
590.0203, 341.0443
590.5024, 345.4199
590.9845, 349.9553
591.4666, 354.8297
591.9487, 360.0723
592.4308, 365.1059
592.9130, 369.8949
593.3951, 374.7103
593.8772, 379.8969
594.3593, 385.3114
594.8414, 390.3541
595.3235, 394.7691
595.8057, 399.1410
596.2878, 404.3507
596.7699, 409.9118
597.2520, 414.8358
597.7341, 418.2436
598.2162, 421.4453
598.6984, 425.3203
599.1805, 429.5344
599.6626, 433.1048
600.1447, 435.2779
600.6268, 437.2618
601.1089, 439.3583
601.5911, 441.5430
602.0732, 444.2820
602.5553, 447.7985
603.0374, 451.4794
603.5195, 454.6971
604.0016, 457.3401
604.4838, 460.8082
604.9659, 465.1740
605.4480, 470.2661
605.9301, 475.9189
606.4122, 482.1093
606.8943, 488.8985
607.3765, 496.5238
607.8586, 504.3428
608.3407, 511.5514
608.8228, 518.3395
609.3049, 524.9709
609.7870, 532.1664
610.2692, 538.8050
610.7513, 544.6163
611.2334, 549.5045
611.7155, 552.6724
612.1976, 553.8342
612.6797, 553.3471
613.1619, 551.5538
613.6440, 548.6308
614.1261, 543.4890
614.6082, 535.8394
615.0903, 526.3105
615.5724, 514.8687
616.0546, 501.4803
616.5367, 488.5382
617.0188, 476.4823
617.5009, 464.7627
617.9830, 452.4111
618.4651, 439.6823
618.9473, 427.4396
619.4294, 415.8882
619.9115, 405.1148
620.3936, 395.0201
620.8757, 385.6864
621.3578, 377.2242
621.8400, 369.8599
622.3221, 363.1948
622.8042, 357.1720
623.2863, 351.7560
623.7684, 346.7554
624.2505, 341.9816
624.7327, 337.7656
625.2148, 334.3412
625.6969, 331.8114
626.1790, 329.7362
626.6611, 328.3049
627.1432, 326.9773
627.6254, 325.0538
628.1075, 322.5923
628.5896, 320.5316
629.0717, 319.0811
629.5538, 317.9764
630.0359, 316.9413
630.5181, 315.9832
631.0002, 315.1013
631.4823, 314.4200
631.9644, 313.6895
632.4465, 312.5870
632.9286, 311.2613
633.4108, 310.2037
633.8929, 310.1591
634.3750, 309.8552
634.8571, 308.5603
635.3392, 306.1904
635.8214, 304.4362
636.3035, 303.6707
636.7856, 302.9799
637.2677, 301.7604
637.7498, 299.8929
638.2319, 298.6220
638.7141, 298.1107
639.1962, 297.5468
639.6783, 295.8701
640.1604, 293.3686
640.6425, 291.2113
641.1246, 289.6489
641.6068, 288.2828
642.0889, 286.7729
642.5710, 285.1493
643.0531, 283.4977
643.5352, 281.8082
644.0173, 280.1170
644.4995, 278.5514
644.9816, 276.9986
645.4637, 275.0775
645.9458, 272.0089
646.4279, 269.4225
646.9100, 267.9029
647.3922, 267.3360
647.8743, 266.3744
648.3564, 264.8783
648.8385, 263.3708
649.3206, 262.1959
649.8027, 261.2936
650.2849, 260.1636
650.7670, 258.7745
651.2491, 257.6292
651.7312, 257.6203
652.2133, 258.0398
652.6954, 257.6329
653.1776, 255.9900
653.6597, 254.3112
654.1418, 253.1247
654.6239, 252.3688
655.1060, 251.9624
655.5881, 252.4355
656.0703, 252.5872
656.5524, 251.9575
657.0345, 250.9807
657.5166, 250.4387
657.9987, 250.4900
658.4808, 250.5670
658.9630, 250.5392
659.4451, 250.4426
659.9272, 250.4474
660.4093, 250.5548
660.8914, 250.5341
661.3735, 250.1000
661.8557, 249.5168
662.3378, 249.3513
662.8199, 249.5544
663.3020, 249.6597
663.7841, 249.2846
664.2662, 248.7506
664.7484, 248.2025
665.2305, 247.5964
665.7126, 247.4573
666.1947, 248.4534
666.6768, 249.5920
667.1589, 250.1670
667.6411, 249.9455
668.1232, 249.6267
668.6053, 249.1344
669.0874, 248.6421
669.5695, 248.3953
670.0516, 248.3882
670.5338, 248.3726
671.0159, 248.2951
671.4980, 248.1954
671.9801, 248.1043
672.4622, 248.0377
672.9443, 248.0438
673.4265, 248.2562
673.9086, 248.4414
674.3907, 248.4074
674.8728, 248.2162
675.3549, 248.0564
675.8370, 247.9629
676.3192, 247.9348
676.8013, 247.9959
677.2834, 248.1384
677.7655, 248.2609
678.2476, 248.3373
678.7297, 248.4511
679.2119, 248.7208
679.6940, 249.1241
680.1761, 249.0898
680.6582, 248.5739
681.1403, 248.0793
681.6224, 248.1720
682.1046, 248.5482
682.5867, 248.5549
683.0688, 248.0557
683.5509, 247.6654
684.0330, 247.9034
684.5151, 248.4131
684.9973, 248.8386
685.4794, 249.1220
685.9615, 249.2956
686.4436, 249.2487
686.9257, 249.1521
687.4078, 249.2331
687.8900, 249.6317
688.3721, 249.8567
688.8542, 249.8718
689.3363, 249.6401
689.8184, 248.8342
690.3005, 247.5368
690.7827, 246.7689
691.2648, 247.1860
691.7469, 248.0785
692.2290, 248.4082
692.7111, 248.3374
693.1932, 248.3759
693.6754, 248.9384
694.1575, 249.5418
694.6396, 250.0028
695.1217, 250.2937
695.6038, 250.2546
696.0859, 249.3972
696.5681, 248.6954
697.0502, 248.5948
697.5323, 249.1311
698.0144, 249.3158
698.4965, 249.0655
698.9786, 248.7690
699.4608, 248.7608
699.9429, 248.9654
700.4250, 249.0519
700.9071, 249.0042
701.3892, 248.8377
701.8713, 248.4613
702.3535, 248.0209
702.8356, 247.6942
703.3177, 247.5226
703.7998, 247.4470
704.2819, 247.4307
704.7640, 247.5020
705.2462, 247.7013
705.7283, 248.1184
706.2104, 248.4982
706.6925, 248.8202
707.1746, 249.1071
707.6567, 249.4751
708.1389, 249.9477
708.6210, 249.9975
709.1031, 249.3374
709.5852, 248.5024
710.0673, 248.5050
710.5494, 249.0951
711.0316, 249.5136
711.5137, 249.2789
711.9958, 248.8758
712.4779, 248.5300
712.9600, 248.2632
713.4421, 248.1450
713.9243, 248.1793
714.4064, 248.3903
714.8885, 248.9099
715.3706, 249.6634
715.8527, 249.9845
716.3348, 249.7321
716.8170, 249.4713
717.2991, 249.5347
717.7812, 249.8237
718.2633, 249.7599
718.7454, 249.3521
719.2275, 249.0080
719.7097, 249.0658
720.1918, 249.3174
720.6739, 249.4994
721.1560, 249.5892
721.6381, 249.7715
722.1202, 250.4118
722.6024, 250.9741
723.0845, 250.9870
723.5666, 250.0374
724.0487, 249.7855
724.5308, 250.5501
725.0129, 251.5914
725.4951, 252.3428
725.9772, 252.8054
726.4593, 253.0046
726.9414, 252.8851
727.4235, 252.7624
727.9056, 253.0833
728.3878, 253.6608
728.8699, 253.9804
729.3520, 253.6828
729.8341, 253.8339
730.3162, 256.2089
730.7983, 259.0551
731.2805, 260.1996
731.7626, 257.0682
732.2447, 254.9038
732.7268, 254.5412
733.2089, 255.2053
733.6910, 255.6475
734.1732, 255.7866
734.6553, 256.1188
735.1374, 256.8475
735.6195, 257.6649
736.1016, 257.9701
736.5837, 257.8262
737.0659, 257.4917
737.5480, 256.8253
738.0301, 256.2705
738.5122, 256.3439
738.9943, 256.8502
739.4764, 257.2926
739.9586, 257.6409
740.4407, 257.7495
740.9228, 257.3662
741.4049, 256.6573
741.8870, 256.3766
742.3691, 256.6694
742.8513, 257.0358
743.3334, 257.4166
743.8155, 257.7024
744.2976, 257.2008
744.7797, 255.9668
745.2618, 254.9934
745.7440, 255.1223
746.2261, 255.7048
746.7082, 256.0414
747.1903, 256.1177
747.6724, 256.0857
748.1545, 255.9900
748.6367, 255.8212
749.1188, 255.5933
749.6009, 255.3122
750.0830, 254.8237
750.5651, 254.0148
751.0472, 253.1863
751.5294, 252.5011
752.0115, 251.9521
752.4936, 251.5549
752.9757, 251.3152
753.4578, 251.0968
753.9399, 250.8057
754.4221, 250.4592
754.9042, 250.0483
755.3863, 249.5584
755.8684, 249.1917
756.3505, 249.3559
756.8326, 249.4809
757.3148, 249.0463
757.7969, 247.5956
758.2790, 246.7008
758.7611, 246.5707
759.2432, 246.7049
759.7253, 246.7631
760.2075, 246.7500
760.6896, 246.3027
761.1717, 245.3151
761.6538, 244.2612
762.1359, 243.7444
762.6180, 243.4848
763.1002, 242.9261
763.5823, 241.8148
764.0644, 240.8835
764.5465, 240.7307
765.0286, 240.8626
765.5107, 240.7534
765.9929, 240.3588
766.4750, 239.6402
766.9571, 238.3535
767.4392, 236.9929
767.9213, 236.2082
768.4034, 236.0181
768.8856, 235.9531
769.3677, 235.9758
769.8498, 235.9840
770.3319, 235.9220
770.8140, 235.7331
771.2961, 235.2838
771.7783, 234.4262
772.2604, 233.4909
772.7425, 232.5397
773.2246, 231.6544
773.7067, 230.9550
774.1888, 230.7346
774.6710, 230.2404
775.1531, 229.1761
775.6352, 228.0079
776.1173, 227.7059
776.5994, 228.3003
777.0815, 228.7218
777.5637, 228.7346
778.0458, 228.4146
778.5279, 227.7221
779.0100, 226.7878
779.4921, 225.9017
779.9742, 225.1129
780.4564, 224.4875
780.9385, 224.1637
781.4206, 224.0048
781.9027, 223.7168
782.3848, 223.2700
782.8669, 222.7095
783.3491, 221.9856
783.8312, 221.1930
784.3133, 220.5627
784.7954, 220.0968
785.2775, 219.7354
785.7596, 219.5052
786.2418, 219.3129
786.7239, 219.0310
787.2060, 218.6865
787.6881, 218.3350
788.1702, 218.0097
788.6523, 217.6831
789.1345, 217.3669
789.6166, 217.0414
790.0987, 216.6259
790.5808, 215.9934
791.0629, 215.5480
791.5450, 215.4744
792.0272, 215.5820
792.5093, 215.2238
792.9914, 214.4522
793.4735, 213.9646
793.9556, 214.2967
794.4377, 214.7858
794.9199, 214.5200
795.4020, 213.7623
795.8841, 213.2200
796.3662, 213.4804
796.8483, 213.6610
797.3304, 213.2968
797.8126, 212.6119
798.2947, 212.3764
798.7768, 212.8411
799.2589, 213.0287
799.7410, 212.5537
800.2231, 211.7178
800.7053, 211.3288
801.1874, 211.3167
801.6695, 211.2752
802.1516, 210.9165
802.6337, 210.5263
803.1158, 210.3677
803.5980, 210.3839
804.0801, 210.4112
804.5622, 210.4636
805.0443, 210.4387
805.5264, 210.2003
806.0085, 209.8806
806.4907, 209.9740
806.9728, 210.5818
807.4549, 211.0685
807.9370, 211.1973
808.4191, 211.1099
808.9012, 211.0998
809.3834, 211.1310
809.8655, 211.0751
810.3476, 210.7026
810.8297, 210.3820
811.3118, 210.4311
811.7939, 210.7213
812.2761, 210.8587
812.7582, 210.4522
813.2403, 210.3938
813.7224, 211.0813
814.2045, 212.1324
814.6866, 212.3028
815.1688, 211.5791
815.6509, 210.9389
816.1330, 210.7232
816.6151, 210.7984
817.0972, 211.0728
817.5793, 211.4802
818.0615, 211.8588
818.5436, 212.2368
819.0257, 212.4590
819.5078, 212.2473
819.9899, 211.8414
820.4720, 211.9518
820.9542, 212.9630
821.4363, 213.5179
821.9184, 213.1750
822.4005, 212.3710
822.8826, 212.1396
823.3647, 212.3779
823.8469, 212.4829
824.3290, 212.0595
824.8111, 211.6644
825.2932, 212.0578
825.7753, 212.8178
826.2574, 213.1009
826.7396, 212.0299
827.2217, 211.2747
827.7038, 211.2391
828.1859, 211.6089
828.6681, 211.8039
829.1502, 211.7970
829.6323, 211.7838
830.1144, 211.7872
830.5966, 211.8450
831.0787, 212.1748
831.5608, 212.5954
832.0429, 212.6700
832.5250, 212.1191
833.0071, 211.3965
833.4893, 210.5080
833.9714, 209.6590
834.4535, 209.1838
834.9356, 209.3299
835.4177, 209.3651
835.8998, 209.1988
836.3820, 208.9429
836.8641, 208.7528
837.3462, 208.6232
837.8283, 208.5364
838.3104, 208.5339
838.7925, 208.4089
839.2747, 207.8506
839.7568, 207.0780
840.2389, 206.3887
840.7210, 205.8891
841.2031, 205.4206
841.6852, 204.9909
842.1674, 204.5577
842.6495, 204.0865
843.1316, 203.5800
843.6137, 202.9967
844.0958, 202.2848
844.5779, 201.6751
845.0601, 201.5398
845.5422, 201.6820
846.0243, 201.7005
846.5064, 201.5276
846.9885, 201.2122
847.4706, 200.6703
847.9528, 200.0648
848.4349, 199.5575
848.9170, 199.2558
849.3991, 198.7146
849.8812, 197.8117
850.3633, 196.8955
850.8455, 196.2394
851.3276, 195.8236
851.8097, 195.6872
852.2918, 195.8433
852.7739, 195.6676
853.2560, 194.0882
853.7382, 192.3167
854.2203, 191.6601
854.7024, 192.3799
855.1845, 192.7385
855.6666, 192.0541
856.1487, 191.2968
856.6309, 190.9977
857.1130, 191.1497
857.5951, 190.6482
858.0772, 189.4356
858.5593, 188.2317
859.0414, 187.3850
859.5236, 186.9051
860.0057, 187.0374
860.4878, 187.6649
860.9699, 188.0159
861.4520, 187.6061
861.9341, 186.9693
862.4163, 186.1492
862.8984, 185.2382
863.3805, 184.9849
863.8626, 185.6190
864.3447, 186.1301
864.8268, 186.0921
865.3090, 185.6935
865.7911, 185.4167
866.2732, 185.2027
866.7553, 184.8238
867.2374, 183.7918
867.7195, 182.9083
868.2017, 182.8955
868.6838, 183.4161
869.1659, 183.4777
869.6480, 182.6771
870.1301, 182.0244
870.6122, 181.7143
871.0944, 181.6437
871.5765, 181.6700
872.0586, 181.7687
872.5407, 181.7367
873.0228, 181.4963
873.5049, 181.1554
873.9871, 180.7841
874.4692, 180.3921
874.9513, 179.9894
875.4334, 179.3687
875.9155, 179.0565
876.3976, 179.2664
876.8798, 179.6211
877.3619, 179.6925
877.8440, 179.4687
878.3261, 179.0944
878.8082, 178.5457
879.2903, 178.0378
879.7725, 177.7717
880.2546, 177.6970
880.7367, 177.7660
881.2188, 177.9944
881.7009, 178.2299
882.1830, 178.5002
882.6652, 178.6872
883.1473, 178.7113
883.6294, 178.5581
884.1115, 178.3351
884.5936, 178.0395
885.0757, 177.6927
885.5579, 177.2495
886.0400, 176.7870
886.5221, 176.4801
887.0042, 176.3297
887.4863, 176.1947
887.9684, 176.1007
888.4506, 175.9144
888.9327, 175.3625
889.4148, 174.5118
889.8969, 174.4567
890.3790, 175.5188
890.8611, 176.4021
891.3433, 176.5270
891.8254, 176.1307
892.3075, 175.7034
892.7896, 175.2825
893.2717, 175.0432
893.7538, 175.2476
894.2360, 175.4791
894.7181, 175.3844
895.2002, 175.1320
895.6823, 175.2029
896.1644, 175.8833
896.6465, 176.3147
897.1287, 176.2924
897.6108, 176.0504
898.0929, 176.0270
898.5750, 176.1704
899.0571, 176.2262
899.5392, 176.1115
900.0214, 175.9521
900.5035, 175.7767
900.9856, 175.6479
901.4677, 175.6475
901.9498, 175.9927
902.4319, 176.0778
902.9141, 175.7367
903.3962, 175.3759
903.8783, 175.4774
904.3604, 175.9661
904.8425, 176.0253
905.3246, 175.5865
905.8068, 175.0849
906.2889, 174.7990
906.7710, 174.6690
907.2531, 174.7072
907.7352, 174.9316
908.2173, 174.9545
908.6995, 174.3688
909.1816, 174.0827
909.6637, 174.6871
910.1458, 175.9645
910.6279, 176.3153
911.1100, 175.7829
911.5922, 175.2432
912.0743, 175.2491
912.5564, 175.4400
913.0385, 175.4105
913.5206, 175.2556
914.0027, 175.2682
914.4849, 175.9668
914.9670, 176.2535
915.4491, 175.7400
915.9312, 174.8431
916.4133, 174.3651
916.8954, 174.3053
917.3776, 174.7138
917.8597, 175.7633
918.3418, 176.7947
918.8239, 177.0154
919.3060, 176.7790
919.7881, 176.5721
920.2703, 176.5016
920.7524, 176.4859
921.2345, 176.4482
921.7166, 176.5196
922.1987, 176.8536
922.6808, 177.4626
923.1630, 177.9999
923.6451, 178.4568
924.1272, 178.8119
924.6093, 178.9231
925.0914, 178.9996
925.5735, 179.3687
926.0557, 180.0380
926.5378, 180.4758
927.0199, 180.4116
927.5020, 180.1942
927.9841, 179.7959
928.4662, 179.3333
928.9484, 179.6640
929.4305, 180.7783
929.9126, 181.7016
930.3947, 181.8907
930.8768, 181.7430
931.3589, 181.5755
931.8411, 181.4404
932.3232, 181.4559
932.8053, 181.6541
933.2874, 182.0444
933.7695, 182.7864
934.2516, 183.5717
934.7338, 183.8286
935.2159, 183.5629
935.6980, 183.5470
936.1801, 183.9107
936.6622, 184.4975
937.1443, 185.2943
937.6265, 186.1481
938.1086, 186.8438
938.5907, 187.3038
939.0728, 187.8051
939.5549, 188.4665
940.0370, 189.0757
940.5192, 189.4304
941.0013, 189.5574
941.4834, 190.0386
941.9655, 190.8728
942.4476, 191.8255
942.9297, 192.9134
943.4119, 193.9133
943.8940, 194.4994
944.3761, 194.7740
944.8582, 195.2165
945.3403, 196.0574
945.8224, 196.9006
946.3046, 197.5925
946.7867, 198.3008
947.2688, 199.5637
947.7509, 201.2880
948.2330, 202.5988
948.7151, 203.1067
949.1973, 203.5300
949.6794, 204.4992
950.1615, 205.7746
950.6436, 207.0656
951.1257, 208.2143
951.6078, 209.5920
952.0900, 211.2986
952.5721, 213.0751
953.0542, 214.6702
953.5363, 216.1304
954.0184, 217.8119
954.5005, 219.7021
954.9827, 221.4752
955.4648, 222.5182
955.9469, 223.6702
956.4290, 225.6657
956.9111, 228.4808
957.3932, 231.0701
957.8754, 233.3146
958.3575, 235.5111
958.8396, 237.6310
959.3217, 239.8583
959.8038, 242.6803
960.2859, 245.9639
960.7681, 249.1968
961.2502, 252.0642
961.7323, 255.0627
962.2144, 258.4148
962.6965, 262.0934
963.1786, 266.0966
963.6608, 270.5364
964.1429, 274.8319
964.6250, 278.8711
965.1071, 282.9566
965.5892, 287.3101
966.0714, 291.9200
966.5535, 296.8993
967.0356, 302.2242
967.5177, 308.1280
967.9998, 314.9492
968.4819, 322.1738
968.9641, 329.5790
969.4462, 337.1675
969.9283, 345.2691
970.4104, 353.8592
970.8925, 363.1141
971.3746, 373.2616
971.8568, 384.0101
972.3389, 395.1060
972.8210, 406.5926
973.3031, 418.6491
973.7852, 430.8862
974.2673, 444.2786
974.7495, 459.4536
975.2316, 475.6201
975.7137, 491.9579
976.1958, 508.5747
976.6779, 526.0184
977.1600, 544.4195
977.6422, 563.3807
978.1243, 582.6331
978.6064, 602.7313
979.0885, 624.7499
979.5706, 648.7033
980.0527, 672.1943
980.5349, 693.9447
981.0170, 716.3795
981.4991, 740.6988
981.9812, 766.3676
982.4633, 791.5060
982.9454, 816.2391
983.4276, 841.3074
983.9097, 867.9891
984.3918, 894.1882
984.8739, 918.4279
985.3560, 941.5595
985.8381, 964.9492
986.3203, 989.5709
986.8024, 1012.698
987.2845, 1034.252
987.7666, 1054.278
988.2487, 1072.736
988.7308, 1089.665
989.2130, 1105.794
989.6951, 1121.024
990.1772, 1134.699
990.6593, 1146.098
991.1414, 1156.109
991.6235, 1165.084
992.1057, 1173.046
992.5878, 1180.270
993.0699, 1186.773
993.5520, 1192.501
994.0341, 1197.700
994.5162, 1201.759
994.9984, 1203.557
995.4805, 1203.616
995.9626, 1202.986
996.4447, 1202.743
996.9268, 1200.518
997.4089, 1195.574
997.8911, 1189.174
998.3732, 1182.084
998.8553, 1174.409
999.3374, 1167.239
999.8195, 1160.662
1000.302, 1154.423
1000.784, 1147.841
1001.266, 1141.836
1001.748, 1136.766
1002.230, 1132.773
1002.712, 1130.881
1003.194, 1131.448
1003.676, 1133.295
1004.159, 1136.771
1004.641, 1140.422
1005.123, 1141.420
1005.605, 1140.151
1006.087, 1137.733
1006.569, 1134.150
1007.051, 1130.345
1007.533, 1126.669
1008.016, 1123.018
1008.498, 1118.909
1008.980, 1113.822
1009.462, 1111.394
1009.944, 1111.640
1010.426, 1114.416
1010.908, 1119.357
1011.390, 1126.838
1011.872, 1137.537
1012.355, 1151.318
1012.837, 1167.595
1013.319, 1186.896
1013.801, 1208.250
1014.283, 1232.062
1014.765, 1257.100
1015.247, 1282.084
1015.729, 1306.957
1016.211, 1330.292
1016.694, 1352.286
1017.176, 1370.188
1017.658, 1383.272
1018.140, 1390.226
1018.622, 1390.350
1019.104, 1383.978
1019.586, 1367.261
1020.068, 1339.314
1020.551, 1303.926
1021.033, 1261.812
1021.515, 1214.316
1021.997, 1163.919
1022.479, 1111.117
1022.961, 1057.949
1023.443, 1003.190
1023.925, 950.7798
1024.407, 901.8331
1024.890, 855.7120
1025.372, 811.6617
1025.854, 770.0145
1026.336, 730.4996
1026.818, 692.9107
1027.300, 658.2004
1027.782, 627.4017
1028.264, 599.1960
1028.746, 572.2152
1029.229, 546.5202
1029.711, 523.1633
1030.193, 502.5113
1030.675, 482.9000
1031.157, 463.5041
1031.639, 445.1215
1032.121, 429.5069
1032.603, 415.9966
1033.086, 403.1026
1033.568, 390.1060
1034.050, 377.6145
1034.532, 365.7836
1035.014, 354.8641
1035.496, 345.0609
1035.978, 336.5151
1036.460, 328.6684
1036.943, 321.6576
1037.425, 315.1252
1037.907, 308.9462
1038.389, 303.1301
1038.871, 297.9459
1039.353, 293.2118
1039.835, 288.3857
1040.317, 282.9185
1040.799, 278.0991
1041.281, 274.1442
1041.764, 270.7960
1042.246, 267.7064
1042.728, 264.8420
1043.210, 262.3212
1043.692, 260.2067
1044.174, 257.7814
1044.656, 253.9960
1045.138, 250.3123
1045.621, 247.7866
1046.103, 246.3377
1046.585, 244.7047
1047.067, 242.8789
1047.549, 241.0655
1048.031, 239.2527
1048.513, 237.6736
1048.995, 236.9478
1049.478, 236.5920
1049.960, 235.7830
1050.442, 233.5897
1050.924, 232.1052
1051.406, 231.6096
1051.888, 231.3355
1052.370, 230.5325
1052.852, 229.3636
1053.334, 228.2759
1053.817, 227.3183
1054.299, 226.7178
1054.781, 227.0132
1055.263, 227.2547
1055.745, 226.8658
1056.227, 226.1474
1056.709, 225.7490
1057.191, 225.6692
1057.673, 226.0133
1058.156, 226.9200
1058.638, 227.7507
1059.120, 227.6571
1059.602, 227.2492
1060.084, 227.1486
1060.566, 227.4594
1061.048, 228.1051
1061.530, 229.1721
1062.013, 230.3548
1062.495, 231.6642
1062.977, 232.8708
1063.459, 233.1882
1063.941, 232.9353
1064.423, 233.0399
1064.905, 234.0853
1065.387, 235.2408
1065.870, 236.2263
1066.352, 237.2259
1066.834, 238.3955
1067.316, 239.7257
1067.798, 241.3290
1068.280, 243.2163
1068.762, 245.0695
1069.244, 246.5608
1069.726, 248.0456
1070.208, 249.6725
1070.691, 251.5225
1071.173, 253.7895
1071.655, 256.6728
1072.137, 259.3593
1072.619, 261.6872
1073.101, 263.8879
1073.583, 266.1772
1074.065, 268.5934
1074.548, 271.2635
1075.030, 274.2054
1075.512, 277.2022
1075.994, 280.1667
1076.476, 283.1854
1076.958, 286.2807
1077.440, 289.4366
1077.922, 292.4076
1078.405, 295.3292
1078.887, 298.8985
1079.369, 303.8595
1079.851, 308.7690
1080.333, 312.6364
1080.815, 316.1773
1081.297, 320.0143
1081.779, 324.1065
1082.261, 328.8859
1082.744, 334.4239
1083.226, 340.2349
1083.708, 345.6620
1084.190, 351.4366
1084.672, 358.6407
1085.154, 366.8721
1085.636, 374.7305
1086.118, 381.7715
1086.601, 388.9296
1087.083, 396.2413
1087.565, 403.8730
1088.047, 412.2057
1088.529, 420.9443
1089.011, 429.4438
1089.493, 437.6022
1089.975, 446.6225
1090.458, 457.5353
1090.940, 468.7623
1091.422, 479.6372
1091.904, 490.3611
1092.386, 501.0217
1092.868, 511.7500
1093.350, 523.1936
1093.832, 535.6664
1094.314, 548.4721
1094.797, 561.3231
1095.279, 574.1463
1095.761, 586.8760
1096.243, 599.2548
1096.725, 612.5457
1097.207, 626.8566
1097.689, 640.9001
1098.171, 653.5813
1098.653, 666.0231
1099.136, 680.0849
1099.618, 694.8766
1100.100, 708.9548
1100.582, 721.8507
1101.064, 733.9836
1101.546, 745.1661
1102.028, 756.1345
1102.510, 768.1788
1102.993, 780.4467
1103.475, 791.0430
1103.957, 800.1166
1104.439, 808.8450
1104.921, 817.6778
1105.403, 826.1888
1105.885, 834.6059
1106.367, 842.2656
1106.849, 847.4777
1107.332, 850.6589
1107.814, 853.9290
1108.296, 857.6485
1108.778, 861.3730
1109.260, 865.9274
1109.742, 869.3798
1110.224, 870.0555
1110.706, 868.5436
1111.188, 867.8258
1111.671, 867.9077
1112.153, 867.8090
1112.635, 867.0881
1113.117, 866.3712
1113.599, 866.5860
1114.081, 866.9777
1114.563, 866.5526
1115.045, 864.9571
1115.528, 863.9919
1116.010, 863.8686
1116.492, 863.4373
1116.974, 861.8336
1117.456, 859.7325
1117.938, 858.2511
1118.420, 857.1208
1118.902, 855.7581
1119.385, 854.1978
1119.867, 852.1115
1120.349, 849.6747
1120.831, 846.4150
1121.313, 841.7714
1121.795, 836.0289
1122.277, 829.8792
1122.759, 823.3126
1123.241, 816.1378
1123.724, 808.8715
1124.206, 800.0977
1124.688, 789.1609
1125.170, 776.8647
1125.652, 764.5446
1126.134, 752.0900
1126.616, 739.0994
1127.098, 725.5251
1127.580, 711.3763
1128.063, 696.1854
1128.545, 680.7676
1129.027, 665.8760
1129.509, 651.3505
1129.991, 636.9172
1130.473, 622.5681
1130.955, 608.9540
1131.437, 596.2156
1131.920, 584.2239
1132.402, 572.8476
1132.884, 561.9871
1133.366, 551.2817
1133.848, 540.7418
1134.330, 531.2080
1134.812, 522.7101
1135.294, 515.0349
1135.776, 508.2749
1136.259, 502.1222
1136.741, 495.9886
1137.223, 490.1848
1137.705, 485.1122
1138.187, 481.2528
1138.669, 477.3985
1139.151, 473.4408
1139.633, 469.7026
1140.115, 466.5108
1140.598, 463.6329
1141.080, 460.2994
1141.562, 456.8448
1142.044, 454.1056
1142.526, 453.5809
1143.008, 452.0538
1143.490, 448.8411
1143.972, 445.1543
1144.455, 442.2669
1144.937, 439.9096
1145.419, 437.0140
1145.901, 433.6547
1146.383, 430.4989
1146.865, 428.3595
1147.347, 425.9137
1147.829, 422.6711
1148.312, 418.9641
1148.794, 415.2343
1149.276, 411.4597
1149.758, 407.7234
1150.240, 404.0333
1150.722, 400.2716
1151.204, 396.4700
1151.686, 392.4569
1152.168, 388.0999
1152.651, 383.4722
1153.133, 378.6146
1153.615, 373.5700
1154.097, 369.0467
1154.579, 365.4030
1155.061, 361.6176
1155.543, 356.5662
1156.025, 351.2661
1156.507, 346.6285
1156.990, 342.5894
1157.472, 338.4023
1157.954, 334.0284
1158.436, 329.9174
1158.918, 326.2079
1159.400, 322.7789
1159.882, 319.5838
1160.364, 316.5597
1160.847, 313.6250
1161.329, 310.7405
1161.811, 308.1411
1162.293, 305.8864
1162.775, 303.6646
1163.257, 301.2464
1163.739, 298.8654
1164.221, 296.9136
1164.703, 295.1365
1165.186, 293.0889
1165.668, 290.5547
1166.150, 288.0164
1166.632, 285.3897
1167.114, 283.1436
1167.596, 281.9672
1168.078, 281.1793
1168.560, 279.6138
1169.042, 277.5261
1169.525, 275.6431
1170.007, 274.4629
1170.489, 272.9350
1170.971, 270.8200
1171.453, 268.8297
1171.935, 268.0394
1172.417, 267.6613
1172.899, 265.8989
1173.382, 262.9878
1173.864, 260.4879
1174.346, 259.1859
1174.828, 257.9405
1175.310, 256.5901
1175.792, 255.2300
1176.274, 254.0952
1176.756, 253.0011
1177.239, 251.3151
1177.721, 249.0512
1178.203, 246.9893
1178.685, 245.2553
1179.167, 244.1138
1179.649, 243.8466
1180.131, 243.8830
1180.613, 243.1781
1181.095, 241.9292
1181.578, 240.7083
1182.060, 239.5958
1182.542, 238.4250
1183.024, 236.8266
1183.506, 235.5291
1183.988, 234.8122
1184.470, 234.5403
1184.952, 234.6055
1185.434, 234.8295
1185.917, 234.5144
1186.399, 233.4109
1186.881, 232.2447
1187.363, 230.9485
1187.845, 230.1748
1188.327, 230.4249
1188.809, 231.3318
1189.291, 231.5296
1189.774, 231.1183
1190.256, 230.5501
1190.738, 229.8786
1191.220, 229.3215
1191.702, 229.1461
1192.184, 228.9504
1192.666, 228.4285
1193.148, 227.6595
1193.630, 227.1279
1194.113, 226.8334
1194.595, 226.8114
1195.077, 227.3616
1195.559, 227.6570
1196.041, 227.1349
1196.523, 226.3052
1197.005, 225.5966
1197.487, 224.9839
1197.969, 223.8265
1198.452, 222.2393
1198.934, 221.0209
1199.416, 220.8403
1199.898, 220.8227
1200.380, 220.6594
1200.862, 220.3810
1201.344, 220.0408
1201.826, 219.6355
1202.309, 218.9485
1202.791, 218.0035
1203.273, 217.1405
1203.755, 216.6726
1204.237, 216.1919
1204.719, 215.4144
1205.201, 214.5650
1205.683, 214.0114
1206.166, 213.7489
1206.648, 212.6906
1207.130, 210.8817
1207.612, 209.6506
1208.094, 210.3539
1208.576, 211.3336
1209.058, 212.1714
1209.540, 212.4599
1210.022, 211.3102
1210.505, 208.7828
1210.987, 207.0338
1211.469, 206.1915
1211.951, 205.4848
1212.433, 204.4270
1212.915, 203.3076
1213.397, 202.2262
1213.879, 201.2301
1214.361, 200.4558
1214.844, 199.8940
1215.326, 199.3915
1215.808, 198.9353
1216.290, 198.3426
1216.772, 196.8672
1217.254, 195.9096
1217.736, 196.7890
1218.218, 198.4099
1218.701, 198.5297
1219.183, 197.2302
1219.665, 195.3674
1220.147, 193.0506
1220.629, 190.8514
1221.111, 188.9260
1221.593, 187.4523
1222.075, 186.6372
1222.557, 186.2394
1223.040, 185.7808
1223.522, 185.2307
1224.004, 184.2801
1224.486, 182.8235
1224.968, 181.5039
1225.450, 181.1210
1225.932, 180.5142
1226.414, 178.8727
1226.896, 176.7082
1227.379, 175.7512
1227.861, 175.7486
1228.343, 175.2219
1228.825, 173.7638
1229.307, 172.3309
1229.789, 171.3863
1230.271, 170.7047
1230.753, 170.2698
1231.236, 169.9264
1231.718, 169.1477
1232.200, 168.0164
1232.682, 166.8556
1233.164, 165.7144
1233.646, 164.7059
1234.128, 163.8898
1234.610, 163.2616
1235.093, 162.9497
1235.575, 162.7468
1236.057, 161.9260
1236.539, 160.6474
1237.021, 159.3976
1237.503, 158.2575
1237.985, 157.4109
1238.467, 157.2863
1238.949, 157.0255
1239.432, 156.0933
1239.914, 154.8572
1240.396, 154.6750
1240.878, 155.1169
1241.360, 154.9410
1241.842, 153.5435
1242.324, 152.2987
1242.806, 151.4362
1243.288, 150.8972
1243.771, 150.7489
1244.253, 150.8215
1244.735, 150.6734
1245.217, 150.3926
1245.699, 150.2034
1246.181, 150.2559
1246.663, 150.1196
1247.145, 149.6033
1247.628, 149.2068
1248.110, 149.1097
1248.592, 149.3938
1249.074, 151.0404
1249.556, 152.9856
1250.038, 153.0466
1250.520, 149.5368
1251.002, 146.9090
1251.484, 145.3637
1251.967, 144.6796
1252.449, 145.1444
1252.931, 145.9673
1253.413, 145.8062
1253.895, 145.1071
1254.377, 144.6710
1254.859, 144.8184
1255.341, 144.7473
1255.823, 144.4106
1256.306, 144.0723
1256.788, 143.8633
1257.270, 143.7658
1257.752, 144.0051
1258.234, 144.2467
1258.716, 143.8366
1259.198, 142.4221
1259.680, 141.7641
1260.163, 141.9255
1260.645, 142.2554
1261.127, 142.5921
1261.609, 142.6811
1262.091, 141.9939
1262.573, 141.0750
1263.055, 140.7083
1263.537, 141.0008
1264.020, 141.1235
1264.502, 141.0774
1264.984, 140.9543
1265.466, 140.6818
1265.948, 140.5042
1266.430, 140.7367
1266.912, 141.0422
1267.394, 141.0170
1267.876, 140.6548
1268.359, 140.4188
1268.841, 140.2974
1269.323, 140.1865
1269.805, 139.9352
1270.287, 139.8122
1270.769, 140.2168
1271.251, 140.5553
1271.733, 140.2544
1272.215, 139.4208
1272.698, 138.9411
1273.180, 138.7642
1273.662, 138.6702
1274.144, 138.6396
1274.626, 138.5546
1275.108, 138.3360
1275.590, 138.1395
1276.072, 138.1659
1276.555, 138.2973
1277.037, 138.0604
1277.519, 137.5811
1278.001, 137.2267
1278.483, 137.3296
1278.965, 137.2465
1279.447, 136.8779
1279.929, 136.4753
1280.411, 136.2910
1280.894, 136.1703
1281.376, 135.6892
1281.858, 135.0648
1282.340, 134.8001
1282.822, 135.3986
1283.304, 135.4688
1283.786, 134.9109
1284.268, 134.3221
1284.750, 134.0916
1285.233, 134.0619
1285.715, 134.2343
1286.197, 134.4082
1286.679, 134.1745
1287.161, 133.3557
1287.643, 132.9176
1288.125, 132.8746
1288.607, 132.8023
1289.090, 132.3644
1289.572, 131.8840
1290.054, 131.5342
1290.536, 131.3091
1291.018, 131.1921
1291.500, 131.1862
1291.982, 131.2446
1292.464, 131.3452
1292.947, 131.2902
1293.429, 130.9017
1293.911, 130.4420
1294.393, 129.9149
1294.875, 129.4740
1295.357, 129.3253
1295.839, 129.3732
1296.321, 128.9779
1296.803, 128.2870
1297.286, 127.8290
1297.768, 127.8918
1298.250, 128.1205
1298.732, 128.5947
1299.214, 128.9414
1299.696, 128.8459
1300.178, 128.4623
1300.660, 128.1280
##END=



