##NAMES=Fersmanite
##RRUFFID=R070290
##IDEAL CHEMISTRY=Ca_4_(Na,Ca)_4_(Ti^4+^,Nb^5+^)_4_(Si_2_O_7_)_2_O_8_F_3_
##LOCALITY=Vein No. 1 of Labuntsov, 3rd left tributary of Vuonnemijok river, Eveslogchorr Mt, Khibiny Massif, Kola peninsula, Murmanskaja oblast', Northern Region, Russia
##OWNER=RRUFF
##SOURCE=Michael Scott
##DESCRIPTION=Brown crystals frozen in orthoclase, associated with red eudialyte and black arfvedsonite
##STATUS=The identification of this mineral has been confirmed by single-crystal X-ray diffraction.
##URL=rruff.info/R070290
137.6089, 21678.07
138.0910, 22168.95
138.5731, 22572.91
139.0553, 22884.96
139.5374, 23156.64
140.0195, 23384.63
140.5016, 23574.52
140.9837, 23733.89
141.4658, 23848.36
141.9480, 23957.40
142.4301, 24088.61
142.9122, 24256.09
143.3943, 24413.58
143.8764, 24544.19
144.3585, 24648.21
144.8407, 24802.25
145.3228, 25018.66
145.8049, 25274.92
146.2870, 25550.29
146.7691, 25853.93
147.2512, 26159.60
147.7334, 26449.98
148.2155, 26713.45
148.6976, 27027.66
149.1797, 27442.95
149.6618, 27895.55
150.1439, 28297.48
150.6261, 28593.59
151.1082, 28883.91
151.5903, 29194.85
152.0724, 29547.73
152.5545, 29873.22
153.0366, 30163.89
153.5188, 30422.26
154.0009, 30652.30
154.4830, 30843.18
154.9651, 31016.63
155.4472, 31185.66
155.9293, 31368.55
156.4115, 31521.74
156.8936, 31620.95
157.3757, 31680.07
157.8578, 31748.93
158.3399, 31848.94
158.8221, 31959.07
159.3042, 32066.68
159.7863, 32180.72
160.2684, 32279.99
160.7505, 32344.79
161.2326, 32381.24
161.7148, 32432.15
162.1969, 32515.12
162.6790, 32621.90
163.1611, 32743.28
163.6432, 32891.50
164.1253, 33042.47
164.6075, 33184.26
165.0896, 33316.48
165.5717, 33443.92
166.0538, 33569.12
166.5359, 33691.30
167.0180, 33809.69
167.5002, 33914.63
167.9823, 34022.48
168.4644, 34151.53
168.9465, 34306.94
169.4286, 34456.79
169.9107, 34588.83
170.3929, 34697.99
170.8750, 34776.93
171.3571, 34795.62
171.8392, 34792.47
172.3213, 34811.44
172.8034, 34863.62
173.2856, 34918.72
173.7677, 34945.97
174.2498, 34951.67
174.7319, 34957.05
175.2140, 34990.09
175.6961, 35027.63
176.1783, 35031.43
176.6604, 34987.31
177.1425, 34920.56
177.6246, 34852.14
178.1067, 34784.33
178.5888, 34727.41
179.0710, 34694.37
179.5531, 34678.54
180.0352, 34667.43
180.5173, 34662.65
180.9994, 34656.60
181.4815, 34631.10
181.9637, 34586.66
182.4458, 34546.94
182.9279, 34534.60
183.4100, 34544.35
183.8921, 34556.50
184.3742, 34568.86
184.8564, 34578.52
185.3385, 34577.47
185.8206, 34565.29
186.3027, 34547.37
186.7848, 34514.43
187.2669, 34472.33
187.7491, 34465.42
188.2312, 34536.93
188.7133, 34656.61
189.1954, 34707.45
189.6775, 34680.87
190.1596, 34621.75
190.6418, 34579.16
191.1239, 34553.00
191.6060, 34530.22
192.0881, 34505.18
192.5702, 34478.54
193.0524, 34455.36
193.5345, 34434.72
194.0166, 34419.94
194.4987, 34419.98
194.9808, 34435.93
195.4629, 34450.29
195.9451, 34447.11
196.4272, 34427.10
196.9093, 34437.18
197.3914, 34487.05
197.8735, 34554.04
198.3556, 34589.30
198.8378, 34586.20
199.3199, 34592.55
199.8020, 34650.06
200.2841, 34765.00
200.7662, 34821.28
201.2483, 34789.29
201.7305, 34715.97
202.2126, 34723.39
202.6947, 34827.78
203.1768, 34952.34
203.6589, 35052.02
204.1410, 35122.11
204.6232, 35195.96
205.1053, 35281.32
205.5874, 35370.17
206.0695, 35431.39
206.5516, 35455.57
207.0337, 35476.87
207.5159, 35520.02
207.9980, 35588.57
208.4801, 35657.99
208.9622, 35724.45
209.4443, 35789.47
209.9264, 35865.95
210.4086, 35966.49
210.8907, 36053.36
211.3728, 36095.31
211.8549, 36085.09
212.3370, 36054.32
212.8191, 36000.61
213.3013, 35927.99
213.7834, 35865.57
214.2655, 35812.41
214.7476, 35770.83
215.2297, 35746.39
215.7118, 35747.07
216.1940, 35741.98
216.6761, 35724.93
217.1582, 35696.37
217.6403, 35669.09
218.1224, 35651.41
218.6045, 35624.43
219.0867, 35565.26
219.5688, 35457.05
220.0509, 35357.62
220.5330, 35283.00
221.0151, 35232.81
221.4972, 35178.14
221.9794, 35115.25
222.4615, 35051.54
222.9436, 34995.66
223.4257, 34954.93
223.9078, 34905.26
224.3899, 34834.53
224.8721, 34737.65
225.3542, 34676.68
225.8363, 34668.47
226.3184, 34679.66
226.8005, 34670.57
227.2827, 34633.82
227.7648, 34590.61
228.2469, 34544.50
228.7290, 34494.79
229.2111, 34445.69
229.6932, 34382.50
230.1754, 34332.37
230.6575, 34338.35
231.1396, 34444.13
231.6217, 34528.12
232.1038, 34549.93
232.5859, 34493.93
233.0681, 34459.62
233.5502, 34452.23
234.0323, 34462.73
234.5144, 34477.08
234.9965, 34487.33
235.4786, 34515.36
235.9608, 34574.02
236.4429, 34673.44
236.9250, 34752.13
237.4071, 34801.39
237.8892, 34834.70
238.3713, 34869.69
238.8535, 34891.94
239.3356, 34940.77
239.8177, 35039.86
240.2998, 35215.59
240.7819, 35338.75
241.2640, 35392.37
241.7462, 35405.32
242.2283, 35425.55
242.7104, 35450.58
243.1925, 35487.02
243.6746, 35537.47
244.1567, 35603.86
244.6389, 35680.98
245.1210, 35779.73
245.6031, 35882.56
246.0852, 35954.58
246.5673, 35975.86
247.0494, 36000.59
247.5316, 36054.07
248.0137, 36156.41
248.4958, 36217.04
248.9779, 36217.80
249.4600, 36186.70
249.9421, 36174.63
250.4243, 36185.71
250.9064, 36208.53
251.3885, 36246.13
251.8706, 36315.42
252.3527, 36340.51
252.8348, 36307.25
253.3170, 36238.83
253.7991, 36180.43
254.2812, 36144.04
254.7633, 36095.68
255.2454, 36016.84
255.7275, 35893.73
256.2097, 35793.49
256.6918, 35718.57
257.1739, 35665.95
257.6560, 35637.31
258.1381, 35656.38
258.6202, 35649.98
259.1024, 35583.33
259.5845, 35439.53
260.0666, 35307.57
260.5487, 35186.87
261.0308, 35078.79
261.5129, 34980.10
261.9951, 34889.80
262.4772, 34813.59
262.9593, 34763.79
263.4414, 34754.13
263.9235, 34700.19
264.4056, 34587.92
264.8878, 34443.64
265.3699, 34305.27
265.8520, 34165.04
266.3341, 34049.76
266.8162, 33976.30
267.2983, 33954.40
267.7805, 33918.21
268.2626, 33871.79
268.7447, 33806.63
269.2268, 33697.11
269.7089, 33526.03
270.1910, 33372.82
270.6732, 33275.10
271.1553, 33241.13
271.6374, 33184.71
272.1195, 33099.38
272.6016, 33000.85
273.0837, 32919.01
273.5659, 32857.24
274.0480, 32792.81
274.5301, 32713.46
275.0122, 32618.72
275.4943, 32535.65
275.9764, 32469.77
276.4586, 32405.12
276.9407, 32305.03
277.4228, 32163.13
277.9049, 32051.88
278.3870, 32020.79
278.8691, 32064.24
279.3513, 32050.64
279.8334, 31972.89
280.3155, 31856.24
280.7976, 31724.16
281.2798, 31576.76
281.7619, 31437.33
282.2440, 31309.23
282.7261, 31194.62
283.2082, 31118.42
283.6903, 31088.67
284.1725, 31067.79
284.6546, 31007.55
285.1367, 30909.71
285.6188, 30805.23
286.1009, 30694.42
286.5830, 30584.87
287.0652, 30519.44
287.5473, 30505.45
288.0294, 30495.57
288.5115, 30430.48
288.9936, 30316.51
289.4757, 30209.00
289.9579, 30126.50
290.4400, 30063.20
290.9221, 30002.93
291.4042, 29945.89
291.8863, 29889.26
292.3684, 29823.07
292.8506, 29752.60
293.3327, 29701.54
293.8148, 29693.91
294.2969, 29700.42
294.7790, 29656.05
295.2611, 29560.43
295.7433, 29458.16
296.2254, 29390.37
296.7075, 29345.76
297.1896, 29295.09
297.6717, 29226.39
298.1538, 29148.91
298.6360, 29077.99
299.1181, 29012.42
299.6002, 28945.81
300.0823, 28883.22
300.5644, 28814.29
301.0465, 28715.29
301.5287, 28561.32
302.0108, 28398.36
302.4929, 28293.31
302.9750, 28234.55
303.4571, 28161.39
303.9392, 28026.58
304.4214, 27854.06
304.9035, 27668.19
305.3856, 27464.06
305.8677, 27272.12
306.3498, 27139.38
306.8319, 27049.83
307.3141, 26943.81
307.7962, 26771.90
308.2783, 26574.87
308.7604, 26389.57
309.2425, 26228.90
309.7246, 26077.26
310.2068, 25920.03
310.6889, 25763.00
311.1710, 25619.31
311.6531, 25515.62
312.1352, 25415.08
312.6173, 25287.22
313.0995, 25117.77
313.5816, 24952.88
314.0637, 24822.76
314.5458, 24711.00
315.0279, 24585.65
315.5100, 24418.17
315.9922, 24246.19
316.4743, 24087.01
316.9564, 23941.42
317.4385, 23813.79
317.9206, 23711.90
318.4027, 23627.41
318.8849, 23548.64
319.3670, 23485.09
319.8491, 23415.66
320.3312, 23329.93
320.8133, 23223.73
321.2954, 23120.32
321.7776, 23016.43
322.2597, 22919.72
322.7418, 22838.41
323.2239, 22784.94
323.7060, 22735.72
324.1881, 22688.88
324.6703, 22645.23
325.1524, 22591.39
325.6345, 22513.00
326.1166, 22431.78
326.5987, 22364.56
327.0808, 22322.72
327.5630, 22281.65
328.0451, 22238.01
328.5272, 22192.05
329.0093, 22148.94
329.4914, 22110.99
329.9735, 22074.82
330.4557, 22037.47
330.9378, 21990.34
331.4199, 21957.79
331.9020, 21948.35
332.3841, 21955.93
332.8662, 21950.32
333.3484, 21926.43
333.8305, 21897.14
334.3126, 21868.60
334.7947, 21841.05
335.2768, 21814.77
335.7589, 21791.09
336.2411, 21768.02
336.7232, 21739.65
337.2053, 21705.35
337.6874, 21668.14
338.1695, 21625.19
338.6516, 21574.40
339.1338, 21542.03
339.6159, 21534.60
340.0980, 21536.52
340.5801, 21519.04
341.0622, 21479.45
341.5443, 21443.78
342.0265, 21424.09
342.5086, 21418.70
342.9907, 21413.49
343.4728, 21410.87
343.9549, 21399.11
344.4370, 21355.21
344.9192, 21283.29
345.4013, 21220.47
345.8834, 21181.01
346.3655, 21160.37
346.8476, 21150.10
347.3297, 21150.31
347.8119, 21157.71
348.2940, 21183.51
348.7761, 21216.00
349.2582, 21217.29
349.7403, 21160.44
350.2225, 21084.30
350.7046, 21040.19
351.1867, 21026.15
351.6688, 21030.09
352.1509, 21055.56
352.6331, 21090.23
353.1152, 21115.47
353.5973, 21125.92
354.0794, 21128.33
354.5615, 21121.99
355.0436, 21111.13
355.5258, 21108.63
356.0079, 21130.06
356.4900, 21158.24
356.9721, 21179.00
357.4542, 21190.16
357.9363, 21193.89
358.4185, 21175.18
358.9006, 21151.54
359.3827, 21153.26
359.8648, 21220.42
360.3469, 21293.56
360.8290, 21341.63
361.3112, 21359.59
361.7933, 21370.27
362.2754, 21376.39
362.7575, 21380.84
363.2396, 21386.76
363.7217, 21385.03
364.2039, 21394.58
364.6860, 21421.05
365.1681, 21464.79
365.6502, 21517.96
366.1323, 21618.77
366.6144, 21705.62
367.0966, 21735.47
367.5787, 21628.33
368.0608, 21560.64
368.5429, 21556.07
369.0250, 21603.74
369.5071, 21649.01
369.9893, 21698.83
370.4714, 21738.08
370.9535, 21760.27
371.4356, 21767.12
371.9177, 21750.64
372.3998, 21700.22
372.8820, 21631.53
373.3641, 21578.33
373.8462, 21540.82
374.3283, 21518.80
374.8104, 21519.55
375.2925, 21546.88
375.7747, 21549.62
376.2568, 21522.39
376.7389, 21481.27
377.2210, 21446.86
377.7031, 21419.49
378.1852, 21394.47
378.6674, 21373.51
379.1495, 21353.57
379.6316, 21312.89
380.1137, 21248.55
380.5958, 21193.20
381.0779, 21191.91
381.5601, 21231.75
382.0422, 21247.05
382.5243, 21215.21
383.0064, 21162.34
383.4885, 21139.22
383.9706, 21140.19
384.4528, 21125.19
384.9349, 21043.88
385.4170, 20934.42
385.8991, 20861.42
386.3812, 20840.63
386.8633, 20834.69
387.3455, 20808.28
387.8276, 20769.96
388.3097, 20738.86
388.7918, 20726.23
389.2739, 20724.05
389.7560, 20733.45
390.2382, 20756.89
390.7203, 20762.67
391.2024, 20719.56
391.6845, 20654.30
392.1666, 20597.06
392.6487, 20554.84
393.1309, 20525.65
393.6130, 20518.19
394.0951, 20529.42
394.5772, 20527.26
395.0593, 20486.51
395.5414, 20440.55
396.0236, 20410.66
396.5057, 20413.94
396.9878, 20416.50
397.4699, 20420.35
397.9520, 20421.95
398.4341, 20410.18
398.9163, 20372.33
399.3984, 20334.25
399.8805, 20305.70
400.3626, 20290.78
400.8447, 20273.48
401.3268, 20254.84
401.8090, 20233.03
402.2911, 20203.21
402.7732, 20160.40
403.2553, 20123.16
403.7374, 20095.49
404.2195, 20077.42
404.7017, 20074.87
405.1838, 20095.79
405.6659, 20110.50
406.1480, 20084.07
406.6301, 20015.60
407.1122, 19961.83
407.5944, 19936.37
408.0765, 19927.79
408.5586, 19908.00
409.0407, 19877.20
409.5228, 19850.12
410.0049, 19838.54
410.4871, 19838.46
410.9692, 19842.54
411.4513, 19853.50
411.9334, 19854.40
412.4155, 19810.33
412.8976, 19737.67
413.3798, 19685.20
413.8619, 19698.22
414.3440, 19728.21
414.8261, 19718.20
415.3082, 19667.11
415.7903, 19621.04
416.2725, 19618.10
416.7546, 19633.57
417.2367, 19639.48
417.7188, 19622.06
418.2009, 19598.76
418.6830, 19574.54
419.1652, 19550.11
419.6473, 19529.01
420.1294, 19511.72
420.6115, 19498.35
421.0937, 19488.88
421.5758, 19484.24
422.0579, 19481.98
422.5400, 19481.13
423.0221, 19482.60
423.5042, 19487.82
423.9864, 19495.40
424.4685, 19508.45
424.9506, 19532.76
425.4327, 19570.30
425.9148, 19587.79
426.3969, 19572.10
426.8791, 19551.31
427.3612, 19552.20
427.8433, 19584.67
428.3254, 19606.88
428.8075, 19609.27
429.2896, 19598.89
429.7718, 19602.25
430.2539, 19622.66
430.7360, 19639.33
431.2181, 19629.85
431.7002, 19597.86
432.1823, 19601.63
432.6645, 19649.95
433.1466, 19714.49
433.6287, 19755.04
434.1108, 19776.21
434.5929, 19801.42
435.0750, 19845.65
435.5572, 19897.33
436.0393, 19934.30
436.5214, 19957.19
437.0035, 19979.62
437.4856, 20011.03
437.9677, 20048.71
438.4499, 20089.12
438.9320, 20132.83
439.4141, 20176.58
439.8962, 20212.70
440.3783, 20246.37
440.8604, 20292.06
441.3426, 20379.23
441.8247, 20462.15
442.3068, 20508.37
442.7889, 20504.25
443.2710, 20512.36
443.7531, 20561.95
444.2353, 20627.29
444.7174, 20680.81
445.1995, 20699.35
445.6816, 20726.27
446.1637, 20776.85
446.6458, 20847.13
447.1280, 20897.49
447.6101, 20907.31
448.0922, 20920.10
448.5743, 20961.04
449.0564, 21042.76
449.5385, 21122.46
450.0207, 21205.10
450.5028, 21279.53
450.9849, 21317.28
451.4670, 21309.70
451.9491, 21308.16
452.4312, 21339.13
452.9134, 21395.96
453.3955, 21423.13
453.8776, 21417.07
454.3597, 21406.24
454.8418, 21416.54
455.3239, 21445.38
455.8061, 21485.07
456.2882, 21544.43
456.7703, 21598.10
457.2524, 21596.58
457.7345, 21553.11
458.2166, 21521.78
458.6988, 21559.48
459.1809, 21613.95
459.6630, 21621.58
460.1451, 21569.67
460.6272, 21518.16
461.1093, 21517.71
461.5915, 21536.04
462.0736, 21532.97
462.5557, 21477.43
463.0378, 21415.73
463.5199, 21360.95
464.0020, 21313.80
464.4842, 21275.11
464.9663, 21259.00
465.4484, 21241.53
465.9305, 21209.80
466.4126, 21156.81
466.8947, 21099.83
467.3769, 21031.10
467.8590, 20961.99
468.3411, 20913.61
468.8232, 20904.23
469.3053, 20878.20
469.7874, 20810.88
470.2696, 20706.25
470.7517, 20637.84
471.2338, 20622.39
471.7159, 20616.04
472.1980, 20603.19
472.6801, 20584.35
473.1623, 20532.59
473.6444, 20530.22
474.1265, 20512.27
474.6086, 20496.56
475.0907, 20509.73
475.5728, 20478.22
476.0550, 20496.99
476.5371, 20499.89
477.0192, 20514.43
477.5013, 20513.28
477.9834, 20520.90
478.4655, 20550.24
478.9477, 20538.88
479.4298, 20587.72
479.9119, 20635.02
480.3940, 20678.26
480.8761, 20703.55
481.3582, 20721.78
481.8404, 20764.29
482.3225, 20855.55
482.8046, 20961.65
483.2867, 21070.71
483.7688, 21184.89
484.2509, 21290.70
484.7331, 21369.86
485.2152, 21448.67
485.6973, 21554.21
486.1794, 21698.24
486.6615, 21850.13
487.1436, 22010.51
487.6258, 22176.43
488.1079, 22329.74
488.5900, 22459.60
489.0721, 22604.59
489.5542, 22792.60
490.0363, 23024.82
490.5185, 23241.83
491.0006, 23435.52
491.4827, 23629.99
491.9648, 23854.54
492.4470, 24105.90
492.9291, 24364.23
493.4112, 24620.29
493.8933, 24876.12
494.3754, 25122.02
494.8575, 25362.90
495.3397, 25614.74
495.8218, 25901.36
496.3039, 26202.63
496.7860, 26494.95
497.2681, 26780.02
497.7502, 27053.11
498.2324, 27311.16
498.7145, 27557.69
499.1966, 27802.50
499.6787, 28039.97
500.1608, 28281.90
500.6429, 28542.64
501.1251, 28819.24
501.6072, 29064.27
502.0893, 29256.31
502.5714, 29435.61
503.0535, 29626.12
503.5356, 29857.32
504.0178, 30022.22
504.4999, 30086.46
504.9820, 30114.20
505.4641, 30212.14
505.9462, 30396.15
506.4283, 30567.58
506.9105, 30704.39
507.3926, 30804.50
507.8747, 30847.26
508.3568, 30830.09
508.8389, 30804.64
509.3210, 30814.15
509.8032, 30844.97
510.2853, 30853.66
510.7674, 30828.30
511.2495, 30808.72
511.7316, 30857.16
512.2137, 30940.63
512.6959, 30991.54
513.1780, 30966.12
513.6601, 30912.32
514.1422, 30845.26
514.6243, 30770.25
515.1064, 30719.71
515.5886, 30730.54
516.0707, 30752.76
516.5528, 30755.12
517.0349, 30722.14
517.5170, 30693.46
517.9991, 30684.87
518.4813, 30678.01
518.9634, 30645.69
519.4455, 30552.46
519.9276, 30496.79
520.4097, 30514.84
520.8918, 30590.83
521.3740, 30619.88
521.8561, 30592.92
522.3382, 30549.01
522.8203, 30504.60
523.3024, 30461.23
523.7845, 30439.75
524.2667, 30442.25
524.7488, 30463.44
525.2309, 30519.62
525.7130, 30593.85
526.1951, 30622.75
526.6772, 30542.28
527.1594, 30446.48
527.6415, 30465.37
528.1236, 30573.99
528.6057, 30663.34
529.0878, 30647.48
529.5699, 30603.43
530.0521, 30594.42
530.5342, 30640.60
531.0163, 30666.55
531.4984, 30625.22
531.9805, 30561.47
532.4626, 30522.93
532.9448, 30531.59
533.4269, 30547.79
533.9090, 30577.59
534.3911, 30612.87
534.8732, 30618.88
535.3553, 30581.77
535.8375, 30541.14
536.3196, 30515.19
536.8017, 30504.45
537.2838, 30489.86
537.7659, 30471.33
538.2480, 30448.73
538.7302, 30423.82
539.2123, 30395.43
539.6944, 30354.59
540.1765, 30293.03
540.6586, 30229.74
541.1407, 30190.98
541.6229, 30172.52
542.1050, 30158.35
542.5871, 30146.04
543.0692, 30130.10
543.5513, 30104.45
544.0334, 30069.05
544.5156, 30031.35
544.9977, 29991.80
545.4798, 29953.13
545.9619, 29918.30
546.4440, 29894.74
546.9261, 29864.78
547.4083, 29827.97
547.8904, 29782.51
548.3725, 29724.53
548.8546, 29638.72
549.3367, 29565.23
549.8188, 29517.40
550.3010, 29492.63
550.7831, 29460.62
551.2652, 29420.31
551.7473, 29376.14
552.2294, 29329.14
552.7115, 29279.98
553.1937, 29240.63
553.6758, 29214.98
554.1579, 29186.89
554.6400, 29123.68
555.1221, 29040.24
555.6042, 28982.05
556.0864, 28990.82
556.5685, 29005.05
557.0506, 28960.34
557.5327, 28869.27
558.0148, 28778.99
558.4969, 28703.25
558.9791, 28642.11
559.4612, 28599.75
559.9433, 28580.75
560.4254, 28559.21
560.9075, 28526.18
561.3896, 28491.12
561.8718, 28462.72
562.3539, 28452.51
562.8360, 28428.27
563.3181, 28381.18
563.8002, 28322.01
564.2823, 28275.11
564.7645, 28241.73
565.2466, 28217.28
565.7287, 28205.01
566.2108, 28200.76
566.6929, 28180.93
567.1750, 28144.95
567.6572, 28109.57
568.1393, 28095.73
568.6214, 28091.93
569.1035, 28074.08
569.5856, 28035.65
570.0677, 27993.74
570.5499, 27956.50
571.0320, 27925.99
571.5141, 27905.17
571.9962, 27897.74
572.4783, 27897.54
572.9604, 27922.63
573.4426, 27960.60
573.9247, 27948.79
574.4068, 27798.18
574.8889, 27668.77
575.3710, 27633.04
575.8531, 27717.66
576.3353, 27756.04
576.8174, 27733.15
577.2995, 27685.75
577.7816, 27641.56
578.2637, 27599.17
578.7458, 27581.74
579.2280, 27599.86
579.7101, 27631.04
580.1922, 27631.53
580.6743, 27606.75
581.1564, 27587.27
581.6385, 27609.47
582.1207, 27633.10
582.6028, 27595.08
583.0849, 27502.72
583.5670, 27410.83
584.0491, 27340.75
584.5313, 27291.19
585.0134, 27264.69
585.4955, 27268.77
585.9776, 27272.32
586.4597, 27274.69
586.9418, 27269.38
587.4240, 27248.46
587.9061, 27200.22
588.3882, 27155.04
588.8703, 27119.31
589.3524, 27087.85
589.8345, 27040.69
590.3167, 26969.93
590.7988, 26914.26
591.2809, 26900.81
591.7630, 26918.20
592.2451, 26903.25
592.7272, 26854.65
593.2094, 26806.23
593.6915, 26792.77
594.1736, 26798.20
594.6557, 26793.21
595.1378, 26773.74
595.6199, 26741.38
596.1021, 26691.83
596.5842, 26631.58
597.0663, 26569.63
597.5485, 26489.48
598.0306, 26429.64
598.5127, 26414.91
598.9948, 26434.24
599.4769, 26439.58
599.9590, 26432.95
600.4412, 26405.71
600.9233, 26345.50
601.4054, 26247.61
601.8875, 26193.28
602.3696, 26199.25
602.8517, 26208.61
603.3339, 26160.85
603.8160, 26062.19
604.2981, 26006.13
604.7802, 26011.19
605.2623, 26033.47
605.7444, 26019.51
606.2266, 25977.46
606.7087, 25929.87
607.1908, 25880.29
607.6729, 25832.45
608.1550, 25787.84
608.6371, 25747.00
609.1193, 25710.09
609.6014, 25685.05
610.0835, 25657.47
610.5656, 25619.27
611.0477, 25568.08
611.5298, 25521.07
612.0120, 25482.24
612.4941, 25444.74
612.9762, 25402.22
613.4583, 25348.89
613.9404, 25314.32
614.4225, 25305.96
614.9047, 25305.89
615.3868, 25288.95
615.8689, 25255.77
616.3510, 25215.57
616.8331, 25165.93
617.3152, 25117.40
617.7974, 25098.29
618.2795, 25097.86
618.7616, 25073.70
619.2437, 24963.70
619.7258, 24850.19
620.2079, 24802.37
620.6901, 24823.57
621.1722, 24840.75
621.6543, 24832.62
622.1364, 24809.31
622.6185, 24777.55
623.1006, 24740.88
623.5828, 24686.63
624.0649, 24596.91
624.5470, 24506.02
625.0291, 24462.57
625.5112, 24479.08
625.9933, 24472.58
626.4755, 24419.56
626.9576, 24347.48
627.4397, 24317.33
627.9218, 24324.16
628.4039, 24330.29
628.8860, 24319.94
629.3682, 24296.64
629.8503, 24258.84
630.3324, 24209.05
630.8145, 24166.34
631.2966, 24153.72
631.7787, 24144.39
632.2609, 24116.35
632.7430, 24059.54
633.2251, 24012.79
633.7072, 23996.30
634.1893, 23985.56
634.6714, 23957.79
635.1536, 23894.01
635.6357, 23856.76
636.1178, 23858.45
636.5999, 23880.69
637.0820, 23893.75
637.5641, 23897.64
638.0463, 23888.77
638.5284, 23861.71
639.0105, 23824.86
639.4926, 23786.15
639.9747, 23748.72
640.4568, 23731.32
640.9390, 23771.95
641.4211, 23820.16
641.9032, 23820.37
642.3853, 23768.79
642.8674, 23729.78
643.3495, 23758.18
643.8317, 23788.61
644.3138, 23770.88
644.7959, 23643.51
645.2780, 23578.46
645.7601, 23602.91
646.2422, 23665.73
646.7244, 23716.45
647.2065, 23760.57
647.6886, 23754.88
648.1707, 23673.61
648.6528, 23564.53
649.1349, 23523.28
649.6171, 23543.71
650.0992, 23580.36
650.5813, 23631.63
651.0634, 23675.34
651.5455, 23675.44
652.0276, 23639.27
652.5098, 23606.25
652.9919, 23587.02
653.4740, 23585.47
653.9561, 23609.67
654.4382, 23665.88
654.9203, 23713.60
655.4025, 23754.59
655.8846, 23780.26
656.3667, 23779.05
656.8488, 23732.13
657.3309, 23718.54
657.8130, 23750.74
658.2952, 23798.83
658.7773, 23818.96
659.2594, 23813.79
659.7415, 23811.37
660.2236, 23815.06
660.7057, 23831.62
661.1879, 23888.27
661.6700, 23967.57
662.1521, 24020.09
662.6342, 23989.67
663.1163, 23952.61
663.5984, 23954.81
664.0806, 23994.24
664.5627, 24043.71
665.0448, 24130.23
665.5269, 24193.14
666.0090, 24198.56
666.4911, 24134.99
666.9733, 24099.69
667.4554, 24097.91
667.9375, 24114.03
668.4196, 24139.41
668.9017, 24173.78
669.3839, 24208.56
669.8660, 24245.62
670.3481, 24270.31
670.8302, 24244.27
671.3123, 24194.58
671.7944, 24184.12
672.2766, 24261.67
672.7587, 24335.79
673.2408, 24332.27
673.7229, 24284.30
674.2050, 24256.86
674.6871, 24291.28
675.1693, 24323.09
675.6514, 24337.04
676.1335, 24334.60
676.6156, 24321.54
677.0977, 24294.56
677.5798, 24264.42
678.0620, 24233.18
678.5441, 24201.81
679.0262, 24185.16
679.5083, 24183.91
679.9904, 24183.81
680.4725, 24166.98
680.9547, 24145.44
681.4368, 24143.83
681.9189, 24167.13
682.4010, 24189.85
682.8831, 24189.00
683.3652, 24181.64
683.8474, 24185.13
684.3295, 24209.93
684.8116, 24235.26
685.2937, 24256.17
685.7758, 24276.97
686.2579, 24305.81
686.7401, 24352.77
687.2222, 24378.70
687.7043, 24371.54
688.1864, 24343.84
688.6685, 24322.65
689.1506, 24307.93
689.6328, 24299.40
690.1149, 24297.75
690.5970, 24301.59
691.0791, 24315.82
691.5612, 24336.44
692.0433, 24343.08
692.5255, 24299.31
693.0076, 24258.64
693.4897, 24262.93
693.9718, 24320.25
694.4539, 24358.71
694.9360, 24370.43
695.4182, 24359.01
695.9003, 24317.13
696.3824, 24228.31
696.8645, 24185.52
697.3466, 24198.01
697.8287, 24232.21
698.3109, 24261.11
698.7930, 24282.61
699.2751, 24283.76
699.7572, 24260.01
700.2393, 24224.16
700.7214, 24175.27
701.2036, 24126.40
701.6857, 24099.92
702.1678, 24136.53
702.6499, 24158.65
703.1320, 24123.10
703.6141, 24052.05
704.0963, 24001.29
704.5784, 23983.02
705.0605, 23970.96
705.5426, 23963.27
706.0247, 23957.19
706.5068, 23942.55
706.9890, 23919.99
707.4711, 23883.06
707.9532, 23816.28
708.4353, 23735.45
708.9174, 23689.58
709.3995, 23674.94
709.8817, 23656.65
710.3638, 23604.00
710.8459, 23541.69
711.3280, 23492.37
711.8101, 23459.24
712.2922, 23427.83
712.7744, 23402.80
713.2565, 23371.11
713.7386, 23321.29
714.2207, 23236.05
714.7028, 23180.68
715.1849, 23166.74
715.6671, 23161.61
716.1492, 23123.36
716.6313, 23055.69
717.1134, 23002.34
717.5955, 22976.34
718.0776, 22950.04
718.5598, 22882.02
719.0419, 22790.51
719.5240, 22711.26
720.0061, 22663.26
720.4882, 22621.78
720.9703, 22576.67
721.4525, 22529.35
721.9346, 22482.79
722.4167, 22433.50
722.8988, 22389.86
723.3809, 22358.08
723.8630, 22332.65
724.3452, 22287.50
724.8273, 22219.18
725.3094, 22157.08
725.7915, 22119.79
726.2736, 22097.40
726.7557, 22063.42
727.2379, 22019.38
727.7200, 21977.22
728.2021, 21947.26
728.6842, 21920.81
729.1663, 21893.80
729.6484, 21866.22
730.1306, 21825.95
730.6127, 21735.21
731.0948, 21660.19
731.5769, 21643.10
732.0590, 21706.73
732.5411, 21730.55
733.0233, 21706.27
733.5054, 21660.80
733.9875, 21612.47
734.4696, 21562.65
734.9517, 21527.30
735.4338, 21511.04
735.9160, 21490.56
736.3981, 21430.37
736.8802, 21354.37
737.3623, 21297.45
737.8444, 21269.96
738.3266, 21260.60
738.8087, 21284.52
739.2908, 21317.27
739.7729, 21321.84
740.2551, 21278.21
740.7372, 21242.06
741.2193, 21224.75
741.7014, 21214.01
742.1835, 21173.63
742.6656, 21103.25
743.1478, 21066.08
743.6299, 21100.67
744.1120, 21156.07
744.5941, 21142.63
745.0762, 21080.69
745.5583, 21032.91
746.0405, 21049.37
746.5226, 21071.19
747.0047, 21058.58
747.4868, 21019.31
747.9689, 21003.07
748.4510, 21032.61
748.9332, 21064.04
749.4153, 21083.62
749.8974, 21092.53
750.3795, 21108.26
750.8616, 21132.57
751.3438, 21149.77
751.8259, 21143.26
752.3080, 21123.65
752.7901, 21110.87
753.2722, 21106.21
753.7543, 21120.78
754.2365, 21180.21
754.7186, 21249.32
755.2007, 21303.48
755.6828, 21341.89
756.1649, 21354.45
756.6470, 21300.88
757.1292, 21255.29
757.6113, 21268.07
758.0934, 21358.03
758.5755, 21419.49
759.0576, 21447.48
759.5397, 21465.20
760.0219, 21492.05
760.5040, 21528.56
760.9861, 21578.38
761.4682, 21643.96
761.9503, 21709.73
762.4324, 21763.50
762.9146, 21810.88
763.3967, 21859.20
763.8788, 21916.18
764.3609, 21964.22
764.8430, 21994.46
765.3251, 22017.30
765.8073, 22043.02
766.2894, 22069.57
766.7715, 22105.81
767.2536, 22151.29
767.7357, 22209.71
768.2178, 22297.12
768.7000, 22405.75
769.1821, 22501.09
769.6642, 22570.81
770.1463, 22626.68
770.6284, 22674.47
771.1105, 22716.30
771.5927, 22756.23
772.0748, 22781.24
772.5569, 22821.73
773.0390, 22894.30
773.5211, 22984.91
774.0032, 23053.85
774.4854, 23090.88
774.9675, 23146.88
775.4496, 23246.37
775.9317, 23366.39
776.4138, 23446.87
776.8959, 23493.10
777.3781, 23537.72
777.8602, 23589.42
778.3423, 23653.29
778.8244, 23751.88
779.3065, 23871.77
779.7886, 23956.87
780.2708, 23942.51
780.7529, 23940.88
781.2350, 23992.47
781.7171, 24091.65
782.1992, 24188.50
782.6813, 24283.52
783.1635, 24370.60
783.6456, 24441.11
784.1277, 24501.65
784.6098, 24582.85
785.0919, 24681.38
785.5740, 24767.35
786.0562, 24809.97
786.5383, 24841.27
787.0204, 24889.47
787.5025, 24956.60
787.9846, 25016.47
788.4667, 25048.37
788.9489, 25085.92
789.4310, 25148.51
789.9131, 25238.16
790.3952, 25298.74
790.8773, 25321.79
791.3594, 25352.93
791.8416, 25444.25
792.3237, 25567.15
792.8058, 25638.72
793.2879, 25656.25
793.7700, 25670.24
794.2521, 25714.04
794.7343, 25770.52
795.2164, 25828.19
795.6985, 25889.21
796.1806, 25936.34
796.6627, 25959.39
797.1448, 25978.69
797.6270, 26008.79
798.1091, 26052.56
798.5912, 26083.23
799.0733, 26099.80
799.5554, 26109.20
800.0375, 26114.95
800.5197, 26119.14
801.0018, 26130.79
801.4839, 26153.88
801.9660, 26159.48
802.4481, 26104.32
802.9302, 26039.93
803.4124, 26012.47
803.8945, 26055.00
804.3766, 26074.85
804.8587, 26065.39
805.3408, 26041.94
805.8229, 26010.24
806.3051, 25970.51
806.7872, 25971.37
807.2693, 26025.98
807.7514, 26065.41
808.2335, 25998.19
808.7156, 25876.70
809.1978, 25782.26
809.6799, 25740.74
810.1620, 25696.39
810.6441, 25642.68
811.1262, 25598.99
811.6083, 25545.81
812.0905, 25483.61
812.5726, 25385.51
813.0547, 25333.79
813.5368, 25263.49
814.0189, 25192.42
814.5010, 25147.24
814.9832, 25054.35
815.4653, 25008.76
815.9474, 24944.29
816.4295, 24888.46
816.9116, 24813.92
817.3937, 24657.77
817.8759, 24508.34
818.3580, 24383.30
818.8401, 24335.30
819.3222, 24296.76
819.8043, 24194.89
820.2864, 24007.17
820.7686, 23862.58
821.2507, 23779.90
821.7328, 23723.40
822.2149, 23661.83
822.6970, 23590.54
823.1791, 23493.71
823.6613, 23363.69
824.1434, 23224.41
824.6255, 23073.39
825.1076, 22931.17
825.5897, 22823.13
826.0718, 22804.91
826.5540, 22743.94
827.0361, 22622.23
827.5182, 22477.04
828.0003, 22350.13
828.4824, 22242.25
828.9645, 22130.76
829.4467, 22012.17
829.9288, 21893.13
830.4109, 21779.18
830.8930, 21670.88
831.3751, 21568.92
831.8572, 21479.68
832.3394, 21384.79
832.8215, 21272.64
833.3036, 21153.38
833.7857, 21036.83
834.2678, 20923.49
834.7499, 20816.78
835.2321, 20719.87
835.7142, 20624.35
836.1963, 20520.54
836.6784, 20408.79
837.1605, 20291.74
837.6426, 20169.06
838.1248, 20049.75
838.6069, 19934.58
839.0890, 19829.72
839.5711, 19745.01
840.0532, 19700.28
840.5353, 19642.70
841.0175, 19563.87
841.4996, 19476.48
841.9817, 19393.07
842.4638, 19313.29
842.9459, 19238.48
843.4280, 19169.93
843.9102, 19100.12
844.3923, 19011.18
844.8744, 18918.27
845.3565, 18851.38
845.8386, 18825.28
846.3207, 18789.85
846.8029, 18716.28
847.2850, 18629.86
847.7671, 18550.39
848.2492, 18469.81
848.7313, 18426.44
849.2134, 18436.80
849.6956, 18442.95
850.1777, 18366.92
850.6598, 18236.91
851.1419, 18160.26
851.6240, 18154.62
852.1061, 18148.77
852.5883, 18066.24
853.0704, 17971.50
853.5525, 17929.95
854.0346, 17981.01
854.5167, 17992.22
854.9988, 17938.34
855.4810, 17867.13
855.9631, 17810.55
856.4452, 17768.65
856.9273, 17722.85
857.4094, 17671.71
857.8915, 17631.95
858.3737, 17640.88
858.8558, 17659.02
859.3379, 17624.75
859.8200, 17526.47
860.3021, 17450.15
860.7842, 17452.04
861.2664, 17466.24
861.7485, 17458.50
862.2306, 17428.04
862.7127, 17376.36
863.1948, 17296.17
863.6769, 17224.88
864.1591, 17198.81
864.6412, 17198.65
865.1233, 17172.72
865.6054, 17121.68
866.0875, 17079.30
866.5696, 17077.96
867.0518, 17081.01
867.5339, 17062.41
868.0160, 17018.92
868.4981, 16989.16
868.9802, 16984.67
869.4623, 16969.27
869.9445, 16919.93
870.4266, 16846.29
870.9087, 16793.47
871.3908, 16759.55
871.8729, 16731.05
872.3550, 16707.67
872.8372, 16679.17
873.3193, 16629.01
873.8014, 16562.58
874.2835, 16512.96
874.7656, 16518.18
875.2477, 16503.29
875.7299, 16441.85
876.2120, 16347.85
876.6941, 16272.74
877.1762, 16216.75
877.6583, 16167.87
878.1404, 16125.06
878.6226, 16083.09
879.1047, 16036.83
879.5869, 15986.08
880.0690, 15929.21
880.5511, 15852.76
881.0332, 15785.16
881.5153, 15739.63
881.9974, 15706.75
882.4796, 15667.63
882.9617, 15621.79
883.4438, 15572.67
883.9259, 15522.58
884.4080, 15467.65
884.8901, 15398.44
885.3723, 15320.04
885.8544, 15244.46
886.3365, 15180.71
886.8186, 15113.70
887.3007, 15031.60
887.7828, 14945.34
888.2650, 14870.11
888.7471, 14809.28
889.2292, 14753.93
889.7113, 14705.52
890.1934, 14657.30
890.6755, 14600.23
891.1577, 14535.69
891.6398, 14464.06
892.1219, 14384.08
892.6040, 14307.45
893.0861, 14249.44
893.5682, 14195.50
894.0504, 14131.49
894.5325, 14051.23
895.0146, 13969.66
895.4967, 13877.96
895.9788, 13801.46
896.4609, 13779.43
896.9431, 13797.94
897.4252, 13764.39
897.9073, 13673.35
898.3894, 13574.17
898.8715, 13496.28
899.3536, 13430.44
899.8358, 13368.37
900.3179, 13309.72
900.8000, 13255.38
901.2821, 13197.78
901.7642, 13156.47
902.2463, 13150.47
902.7285, 13171.18
903.2106, 13146.25
903.6927, 13077.18
904.1748, 13003.10
904.6569, 12947.12
905.1390, 12897.64
905.6212, 12840.07
906.1033, 12778.14
906.5854, 12725.47
907.0675, 12689.09
907.5496, 12659.99
908.0317, 12637.19
908.5139, 12619.74
908.9960, 12605.29
909.4781, 12593.91
909.9602, 12582.70
910.4423, 12572.12
910.9244, 12559.10
911.4066, 12536.38
911.8887, 12509.29
912.3708, 12487.33
912.8529, 12466.73
913.3350, 12461.66
913.8171, 12483.34
914.2993, 12514.82
914.7814, 12534.05
915.2635, 12540.32
915.7456, 12541.02
916.2277, 12534.65
916.7098, 12534.04
917.1920, 12566.14
917.6741, 12608.95
918.1562, 12627.83
918.6383, 12609.03
919.1204, 12589.96
919.6025, 12577.47
920.0847, 12572.19
920.5668, 12574.23
921.0489, 12583.28
921.5310, 12605.73
922.0131, 12643.45
922.4952, 12678.25
922.9774, 12689.92
923.4595, 12691.90
923.9416, 12702.16
924.4237, 12721.90
924.9058, 12750.12
925.3879, 12799.54
925.8701, 12843.72
926.3522, 12866.55
926.8343, 12872.94
927.3164, 12906.10
927.7985, 12969.78
928.2806, 13026.62
928.7628, 13053.73
929.2449, 13068.88
929.7270, 13101.47
930.2091, 13145.35
930.6912, 13184.74
931.1733, 13204.90
931.6555, 13228.91
932.1376, 13268.28
932.6197, 13313.55
933.1018, 13351.29
933.5839, 13382.89
934.0660, 13395.74
934.5482, 13383.22
935.0303, 13365.33
935.5124, 13372.69
935.9945, 13391.49
936.4766, 13395.90
936.9587, 13373.06
937.4409, 13354.93
937.9230, 13360.64
938.4051, 13368.10
938.8872, 13363.27
939.3693, 13348.04
939.8514, 13300.62
940.3336, 13216.23
940.8157, 13138.53
941.2978, 13117.53
941.7799, 13118.80
942.2620, 13083.35
942.7441, 13011.07
943.2263, 12960.95
943.7084, 12975.80
944.1905, 12998.90
944.6726, 13013.68
945.1547, 13017.93
945.6368, 12989.06
946.1190, 12924.07
946.6011, 12873.84
947.0832, 12871.19
947.5653, 12884.28
948.0474, 12864.22
948.5295, 12826.44
949.0117, 12806.86
949.4938, 12843.91
949.9759, 12866.25
950.4580, 12848.23
950.9401, 12818.23
951.4222, 12824.59
951.9044, 12868.20
952.3865, 12895.00
952.8686, 12895.51
953.3507, 12882.02
953.8328, 12854.96
954.3149, 12827.75
954.7971, 12819.97
955.2792, 12842.25
955.7613, 12857.36
956.2434, 12848.98
956.7255, 12844.93
957.2076, 12869.04
957.6898, 12919.75
958.1719, 12934.08
958.6540, 12912.62
959.1361, 12887.85
959.6182, 12884.82
960.1003, 12886.47
960.5825, 12866.51
961.0646, 12832.52
961.5467, 12834.15
962.0288, 12932.06
962.5109, 12983.74
962.9930, 12937.83
963.4752, 12839.91
963.9573, 12802.03
964.4394, 12817.31
964.9215, 12844.79
965.4036, 12883.18
965.8857, 12904.61
966.3679, 12868.98
966.8500, 12810.53
967.3321, 12774.21
967.8142, 12780.06
968.2963, 12785.05
968.7784, 12791.53
969.2606, 12792.00
969.7427, 12777.49
970.2248, 12750.56
970.7069, 12717.55
971.1890, 12679.23
971.6711, 12645.13
972.1533, 12630.79
972.6354, 12615.48
973.1175, 12581.89
973.5996, 12530.18
974.0817, 12488.57
974.5638, 12457.86
975.0460, 12435.50
975.5281, 12426.33
976.0102, 12419.03
976.4923, 12387.25
976.9744, 12336.74
977.4565, 12284.44
977.9387, 12229.80
978.4208, 12183.90
978.9029, 12151.10
979.3850, 12129.49
979.8671, 12121.45
980.3492, 12133.14
980.8314, 12120.49
981.3135, 12076.18
981.7956, 12017.97
982.2777, 11958.42
982.7598, 11900.00
983.2419, 11848.81
983.7241, 11807.53
984.2062, 11757.71
984.6883, 11668.70
985.1704, 11596.87
985.6525, 11575.83
986.1346, 11598.47
986.6168, 11583.75
987.0989, 11533.01
987.5810, 11487.81
988.0631, 11490.41
988.5452, 11494.00
989.0273, 11440.20
989.5095, 11352.85
989.9916, 11294.29
990.4737, 11298.62
990.9558, 11298.09
991.4379, 11284.43
991.9200, 11263.51
992.4022, 11247.33
992.8843, 11232.55
993.3664, 11197.33
993.8485, 11132.41
994.3306, 11082.70
994.8127, 11087.93
995.2949, 11116.26
995.7770, 11147.95
996.2591, 11187.00
996.7412, 11180.28
997.2233, 11114.13
997.7054, 11052.23
998.1876, 11038.71
998.6697, 11054.42
999.1518, 11058.24
999.6339, 11052.98
1000.116, 11049.94
1000.598, 11052.35
1001.080, 11059.93
1001.562, 11070.39
1002.044, 11086.81
1002.527, 11119.77
1003.009, 11170.85
1003.491, 11210.81
1003.973, 11232.17
1004.455, 11247.57
1004.937, 11267.89
1005.419, 11291.55
1005.901, 11316.61
1006.384, 11343.05
1006.866, 11370.09
1007.348, 11405.19
1007.830, 11429.12
1008.312, 11423.10
1008.794, 11395.47
1009.276, 11400.07
1009.758, 11433.40
1010.240, 11466.35
1010.723, 11491.16
1011.205, 11501.11
1011.687, 11482.57
1012.169, 11446.40
1012.651, 11422.96
1013.133, 11418.85
1013.615, 11409.95
1014.097, 11393.15
1014.580, 11369.03
1015.062, 11339.51
1015.544, 11303.41
1016.026, 11254.60
1016.508, 11188.78
1016.990, 11131.16
1017.472, 11102.74
1017.954, 11075.15
1018.436, 11027.97
1018.919, 10963.40
1019.401, 10928.11
1019.883, 10922.21
1020.365, 10909.01
1020.847, 10854.46
1021.329, 10793.27
1021.811, 10768.81
1022.293, 10764.49
1022.776, 10738.11
1023.258, 10660.74
1023.740, 10595.08
1024.222, 10547.21
1024.704, 10512.84
1025.186, 10491.62
1025.668, 10479.28
1026.150, 10459.45
1026.632, 10428.67
1027.115, 10405.53
1027.597, 10421.57
1028.079, 10431.61
1028.561, 10395.91
1029.043, 10317.54
1029.525, 10271.87
1030.007, 10263.44
1030.489, 10256.45
1030.972, 10236.34
1031.454, 10206.64
1031.936, 10166.93
1032.418, 10121.72
1032.900, 10081.33
1033.382, 10049.78
1033.864, 10021.80
1034.346, 9940.474
1034.828, 9946.138
1035.311, 9942.267
1035.793, 9929.441
1036.275, 9880.691
1036.757, 9878.330
1037.239, 9857.376
1037.721, 9835.663
1038.203, 9839.825
1038.685, 9796.300
1039.167, 9800.056
1039.650, 9784.903
1040.132, 9778.425
1040.614, 9753.238
1041.096, 9733.833
1041.578, 9733.133
1042.060, 9722.073
1042.542, 9694.737
1043.024, 9688.804
1043.507, 9685.812
1043.989, 9659.958
1044.471, 9624.761
1044.953, 9593.699
1045.435, 9581.292
1045.917, 9585.299
1046.399, 9572.188
1046.881, 9542.248
1047.364, 9513.444
1047.846, 9508.931
1048.328, 9499.541
1048.810, 9452.648
1049.292, 9381.922
1049.774, 9347.531
1050.256, 9358.337
1050.738, 9379.563
1051.220, 9411.364
1051.703, 9431.772
1052.185, 9396.213
1052.667, 9331.305
1053.149, 9280.747
1053.631, 9253.841
1054.113, 9238.336
1054.595, 9235.962
1055.077, 9239.326
1055.559, 9252.069
1056.042, 9268.644
1056.524, 9241.221
1057.006, 9175.625
1057.488, 9119.514
1057.970, 9103.671
1058.452, 9100.517
1058.934, 9095.597
1059.416, 9090.629
1059.899, 9090.884
1060.381, 9102.940
1060.863, 9093.785
1061.345, 9056.178
1061.827, 9016.478
1062.309, 9004.021
1062.791, 9005.494
1063.273, 9006.713
1063.755, 9005.677
1064.238, 8986.072
1064.720, 8910.968
1065.202, 8860.346
1065.684, 8867.551
1066.166, 8908.340
1066.648, 8916.766
1067.130, 8897.347
1067.612, 8870.184
1068.094, 8837.042
1068.577, 8808.648
1069.059, 8790.581
1069.541, 8781.022
1070.023, 8780.033
1070.505, 8791.514
1070.987, 8786.986
1071.469, 8765.714
1071.951, 8735.524
1072.434, 8685.612
1072.916, 8641.295
1073.398, 8644.084
1073.880, 8679.272
1074.362, 8694.186
1074.844, 8662.439
1075.326, 8636.085
1075.808, 8623.620
1076.291, 8614.425
1076.773, 8587.888
1077.255, 8552.809
1077.737, 8542.584
1078.219, 8564.142
1078.701, 8566.451
1079.183, 8485.848
1079.665, 8418.931
1080.147, 8422.726
1080.630, 8481.485
1081.112, 8499.189
1081.594, 8477.106
1082.076, 8454.032
1082.558, 8444.279
1083.040, 8439.545
1083.522, 8436.743
1084.004, 8432.515
1084.486, 8421.709
1084.969, 8400.754
1085.451, 8381.209
1085.933, 8362.390
1086.415, 8348.180
1086.897, 8346.636
1087.379, 8349.209
1087.861, 8340.146
1088.343, 8321.290
1088.826, 8301.765
1089.308, 8287.723
1089.790, 8268.664
1090.272, 8238.285
1090.754, 8207.644
1091.236, 8194.176
1091.718, 8195.807
1092.200, 8205.879
1092.682, 8224.235
1093.165, 8238.201
1093.647, 8240.827
1094.129, 8235.297
1094.611, 8222.952
1095.093, 8204.479
1095.575, 8181.524
1096.057, 8153.918
1096.539, 8124.651
1097.022, 8090.679
1097.504, 8065.034
1097.986, 8068.264
1098.468, 8085.470
1098.950, 8096.192
1099.432, 8094.932
1099.914, 8093.772
1100.396, 8093.326
1100.879, 8091.090
1101.361, 8084.433
1101.843, 8075.134
1102.325, 8066.517
1102.807, 8058.224
1103.289, 8049.000
1103.771, 8034.825
1104.253, 8024.677
1104.735, 8021.187
1105.218, 8020.424
1105.700, 8017.035
1106.182, 8011.553
1106.664, 8008.210
1107.146, 8007.511
1107.628, 8001.206
1108.110, 7976.378
1108.592, 7952.231
1109.074, 7939.049
1109.557, 7935.465
1110.039, 7939.905
1110.521, 7952.585
1111.003, 7957.270
1111.485, 7946.468
1111.967, 7934.582
1112.449, 7938.084
1112.931, 7946.422
1113.414, 7946.957
1113.896, 7935.768
1114.378, 7932.182
1114.860, 7938.208
1115.342, 7943.183
1115.824, 7942.702
1116.306, 7936.185
1116.788, 7910.692
1117.271, 7879.900
1117.753, 7874.146
1118.235, 7950.076
1118.717, 7977.523
1119.199, 7933.438
1119.681, 7869.252
1120.163, 7828.547
1120.645, 7809.746
1121.127, 7814.680
1121.609, 7840.612
1122.092, 7864.306
1122.574, 7876.083
1123.056, 7880.453
1123.538, 7875.614
1124.020, 7867.670
1124.502, 7873.015
1124.984, 7888.722
1125.466, 7885.265
1125.949, 7854.436
1126.431, 7830.591
1126.913, 7854.325
1127.395, 7879.750
1127.877, 7866.447
1128.359, 7821.021
1128.841, 7798.636
1129.323, 7800.016
1129.806, 7813.709
1130.288, 7842.847
1130.770, 7866.793
1131.252, 7860.042
1131.734, 7837.487
1132.216, 7817.604
1132.698, 7801.551
1133.180, 7793.292
1133.662, 7794.988
1134.145, 7795.531
1134.627, 7782.673
1135.109, 7767.695
1135.591, 7772.135
1136.073, 7788.838
1136.555, 7799.566
1137.037, 7799.563
1137.519, 7790.063
1138.001, 7765.233
1138.484, 7743.607
1138.966, 7755.249
1139.448, 7782.362
1139.930, 7776.370
1140.412, 7738.494
1140.894, 7705.785
1141.376, 7685.162
1141.858, 7684.567
1142.341, 7715.916
1142.823, 7756.237
1143.305, 7757.867
1143.787, 7730.274
1144.269, 7715.583
1144.751, 7721.117
1145.233, 7736.364
1145.715, 7774.792
1146.198, 7800.850
1146.680, 7791.703
1147.162, 7755.717
1147.644, 7728.075
1148.126, 7709.184
1148.608, 7708.090
1149.090, 7736.270
1149.572, 7759.373
1150.054, 7742.717
1150.536, 7714.825
1151.019, 7705.033
1151.501, 7716.127
1151.983, 7709.804
1152.465, 7684.929
1152.947, 7670.022
1153.429, 7688.870
1153.911, 7715.089
1154.393, 7726.347
1154.876, 7726.546
1155.358, 7720.042
1155.840, 7698.396
1156.322, 7704.481
1156.804, 7746.300
1157.286, 7776.175
1157.768, 7734.932
1158.250, 7674.208
1158.733, 7664.934
1159.215, 7694.436
1159.697, 7706.419
1160.179, 7676.585
1160.661, 7666.480
1161.143, 7689.617
1161.625, 7715.596
1162.107, 7705.488
1162.589, 7676.105
1163.072, 7655.225
1163.554, 7644.571
1164.036, 7632.616
1164.518, 7612.625
1165.000, 7597.468
1165.482, 7589.071
1165.964, 7588.894
1166.446, 7607.153
1166.928, 7633.960
1167.411, 7644.925
1167.893, 7632.820
1168.375, 7625.401
1168.857, 7638.307
1169.339, 7649.740
1169.821, 7653.913
1170.303, 7649.006
1170.785, 7614.894
1171.268, 7566.301
1171.750, 7556.458
1172.232, 7625.669
1172.714, 7673.896
1173.196, 7635.853
1173.678, 7588.283
1174.160, 7578.697
1174.642, 7600.012
1175.125, 7607.107
1175.607, 7602.217
1176.089, 7597.514
1176.571, 7608.718
1177.053, 7608.084
1177.535, 7563.357
1178.017, 7516.374
1178.499, 7509.504
1178.981, 7542.135
1179.464, 7565.111
1179.946, 7578.038
1180.428, 7584.932
1180.910, 7585.320
1181.392, 7583.690
1181.874, 7585.459
1182.356, 7585.026
1182.838, 7568.678
1183.320, 7535.002
1183.803, 7532.122
1184.285, 7564.885
1184.767, 7589.019
1185.249, 7548.325
1185.731, 7509.498
1186.213, 7536.035
1186.695, 7598.747
1187.177, 7609.713
1187.660, 7564.850
1188.142, 7528.063
1188.624, 7508.702
1189.106, 7508.560
1189.588, 7555.734
1190.070, 7601.056
1190.552, 7592.769
1191.034, 7540.054
1191.516, 7521.925
1191.999, 7542.443
1192.481, 7558.060
1192.963, 7556.624
1193.445, 7551.534
1193.927, 7553.289
1194.409, 7560.115
1194.891, 7577.105
1195.373, 7604.729
1195.855, 7591.729
1196.338, 7531.264
1196.820, 7490.249
1197.302, 7501.675
1197.784, 7529.246
1198.266, 7541.166
1198.748, 7541.587
1199.230, 7533.054
1199.712, 7513.595
1200.195, 7503.861
1200.677, 7505.421
1201.159, 7505.705
1201.641, 7497.588
1202.123, 7485.429
1202.605, 7468.574
1203.087, 7453.206
1203.569, 7450.083
1204.052, 7464.475
1204.534, 7478.395
1205.016, 7492.691
1205.498, 7502.068
1205.980, 7476.650
1206.462, 7465.772
1206.944, 7575.725
1207.426, 7736.506
1207.908, 7771.752
1208.391, 7605.612
1208.873, 7503.798
1209.355, 7483.975
1209.837, 7487.668
1210.319, 7466.573
1210.801, 7440.837
1211.283, 7434.954
1211.765, 7444.704
1212.247, 7454.220
1212.730, 7465.632
1213.212, 7462.630
1213.694, 7439.884
1214.176, 7420.179
1214.658, 7429.469
1215.140, 7450.883
1215.622, 7471.532
1216.104, 7487.675
1216.587, 7481.838
1217.069, 7441.415
1217.551, 7423.628
1218.033, 7441.146
1218.515, 7468.527
1218.997, 7482.683
1219.479, 7487.507
1219.961, 7483.457
1220.443, 7472.061
1220.926, 7471.480
1221.408, 7487.132
1221.890, 7493.128
1222.372, 7481.285
1222.854, 7465.510
1223.336, 7467.163
1223.818, 7471.222
1224.300, 7455.358
1224.782, 7416.418
1225.265, 7400.914
1225.747, 7413.913
1226.229, 7426.648
1226.711, 7430.710
1227.193, 7429.881
1227.675, 7425.343
1228.157, 7420.525
1228.639, 7417.499
1229.122, 7415.909
1229.604, 7435.011
1230.086, 7481.136
1230.568, 7505.533
1231.050, 7484.392
1231.532, 7444.163
1232.014, 7397.058
1232.496, 7358.965
1232.979, 7356.115
1233.461, 7395.891
1233.943, 7404.627
1234.425, 7378.442
1234.907, 7360.132
1235.389, 7375.870
1235.871, 7398.303
1236.353, 7400.133
1236.835, 7392.518
1237.318, 7389.657
1237.800, 7392.442
1238.282, 7397.767
1238.764, 7405.546
1239.246, 7416.978
1239.728, 7435.941
1240.210, 7454.428
1240.692, 7466.742
1241.175, 7473.456
1241.657, 7474.851
1242.139, 7470.013
1242.621, 7469.114
1243.103, 7472.203
1243.585, 7468.857
1244.067, 7444.537
1244.549, 7420.316
1245.031, 7407.178
1245.514, 7405.120
1245.996, 7415.125
1246.478, 7439.250
1246.960, 7449.827
1247.442, 7446.960
1247.924, 7441.704
1248.406, 7440.585
1248.888, 7439.720
1249.370, 7437.239
1249.853, 7433.485
1250.335, 7429.633
1250.817, 7425.602
1251.299, 7413.712
1251.781, 7394.624
1252.263, 7381.893
1252.745, 7395.737
1253.227, 7403.532
1253.710, 7381.099
1254.192, 7352.584
1254.674, 7354.853
1255.156, 7381.121
1255.638, 7375.511
1256.120, 7338.263
1256.602, 7312.703
1257.084, 7326.072
1257.567, 7353.137
1258.049, 7395.622
1258.531, 7433.693
1259.013, 7428.311
1259.495, 7395.181
1259.977, 7400.899
1260.459, 7445.436
1260.941, 7470.087
1261.423, 7421.617
1261.906, 7386.442
1262.388, 7387.404
1262.870, 7403.665
1263.352, 7407.438
1263.834, 7402.643
1264.316, 7396.702
1264.798, 7390.675
1265.280, 7387.391
1265.762, 7392.850
1266.245, 7390.850
1266.727, 7373.893
1267.209, 7359.187
1267.691, 7380.705
1268.173, 7415.553
1268.655, 7423.131
1269.137, 7401.627
1269.619, 7385.168
1270.102, 7379.556
1270.584, 7373.017
1271.066, 7360.914
1271.548, 7354.854
1272.030, 7379.112
1272.512, 7411.375
1272.994, 7425.957
1273.476, 7420.429
1273.958, 7405.601
1274.441, 7376.705
1274.923, 7367.516
1275.405, 7389.303
1275.887, 7415.187
1276.369, 7422.374
1276.851, 7416.090
1277.333, 7390.311
1277.815, 7352.896
1278.297, 7353.138
1278.780, 7393.486
1279.262, 7417.152
1279.744, 7408.821
1280.226, 7395.772
1280.708, 7403.667
1281.190, 7411.579
1281.672, 7401.336
1282.154, 7379.208
1282.637, 7367.270
1283.119, 7364.941
1283.601, 7369.494
1284.083, 7382.303
1284.565, 7387.072
1285.047, 7363.600
1285.529, 7340.713
1286.011, 7330.532
1286.494, 7332.328
1286.976, 7351.481
1287.458, 7380.963
1287.940, 7394.079
1288.422, 7382.805
1288.904, 7377.247
1289.386, 7400.452
1289.868, 7414.672
1290.350, 7406.038
1290.833, 7383.608
1291.315, 7351.750
1291.797, 7324.040
1292.279, 7336.304
1292.761, 7402.805
1293.243, 7435.667
1293.725, 7415.234
1294.207, 7389.801
1294.689, 7373.266
1295.172, 7363.364
1295.654, 7360.971
1296.136, 7360.856
1296.618, 7352.870
1297.100, 7334.470
1297.582, 7336.924
1298.064, 7364.155
1298.546, 7387.515
1299.029, 7398.580
1299.511, 7401.121
1299.993, 7391.006
1300.475, 7380.204
1300.957, 7386.795
1301.439, 7405.879
1301.921, 7398.858
1302.403, 7366.588
1302.885, 7333.006
1303.368, 7300.028
1303.850, 7286.836
1304.332, 7325.032
1304.814, 7369.860
1305.296, 7394.381
1305.778, 7402.879
1306.260, 7414.601
##END=



