##NAMES=Fersmanite
##RRUFFID=R070290
##IDEAL CHEMISTRY=Ca_4_(Na,Ca)_4_(Ti^4+^,Nb^5+^)_4_(Si_2_O_7_)_2_O_8_F_3_
##LOCALITY=Vein No. 1 of Labuntsov, 3rd left tributary of Vuonnemijok river, Eveslogchorr Mt, Khibiny Massif, Kola peninsula, Murmanskaja oblast', Northern Region, Russia
##OWNER=RRUFF
##SOURCE=Michael Scott
##DESCRIPTION=Brown crystals frozen in orthoclase, associated with red eudialyte and black arfvedsonite
##STATUS=The identification of this mineral has been confirmed by single-crystal X-ray diffraction.
##URL=rruff.info/R070290
143.6789, 12590.98
144.1610, 13176.42
144.6431, 13776.07
145.1252, 14393.98
145.6074, 15040.18
146.0895, 15711.13
146.5716, 16391.06
147.0537, 17083.11
147.5358, 17779.80
148.0179, 18382.66
148.5001, 18843.61
148.9822, 19248.24
149.4643, 19668.37
149.9464, 20107.71
150.4285, 20505.11
150.9106, 20815.00
151.3928, 21032.03
151.8749, 21194.93
152.3570, 21288.53
152.8391, 21338.64
153.3212, 21364.03
153.8033, 21365.49
154.2855, 21350.09
154.7676, 21314.36
155.2497, 21263.79
155.7318, 21222.80
156.2139, 21198.54
156.6960, 21184.05
157.1782, 21161.60
157.6603, 21124.77
158.1424, 21117.62
158.6245, 21186.94
159.1066, 21313.86
159.5887, 21461.47
160.0709, 21621.45
160.5530, 21796.45
161.0351, 21991.37
161.5172, 22208.03
161.9993, 22434.89
162.4814, 22665.04
162.9636, 22898.34
163.4457, 23140.80
163.9278, 23390.11
164.4099, 23649.73
164.8920, 23930.20
165.3741, 24241.99
165.8563, 24543.25
166.3384, 24812.33
166.8205, 25053.84
167.3026, 25271.17
167.7847, 25461.04
168.2668, 25629.87
168.7490, 25792.63
169.2311, 25952.39
169.7132, 26099.71
170.1953, 26242.74
170.6774, 26370.47
171.1595, 26460.11
171.6417, 26485.49
172.1238, 26472.59
172.6059, 26490.10
173.0880, 26557.36
173.5701, 26616.20
174.0522, 26652.69
174.5344, 26664.07
175.0165, 26640.62
175.4986, 26565.75
175.9807, 26460.27
176.4628, 26378.51
176.9449, 26320.13
177.4271, 26289.57
177.9092, 26308.31
178.3913, 26346.62
178.8734, 26362.43
179.3555, 26329.98
179.8376, 26266.74
180.3197, 26223.27
180.8019, 26203.75
181.2840, 26199.00
181.7661, 26206.85
182.2482, 26224.44
182.7303, 26249.86
183.2124, 26284.17
183.6946, 26322.61
184.1767, 26350.89
184.6588, 26362.62
185.1409, 26374.60
185.6230, 26397.76
186.1051, 26421.45
186.5873, 26431.00
187.0694, 26417.38
187.5515, 26392.09
188.0336, 26385.50
188.5157, 26403.83
188.9978, 26432.42
189.4800, 26476.75
189.9621, 26524.02
190.4442, 26556.97
190.9263, 26565.94
191.4084, 26567.75
191.8905, 26603.35
192.3727, 26683.62
192.8548, 26782.48
193.3369, 26922.82
193.8190, 27063.94
194.3011, 27170.56
194.7832, 27228.85
195.2654, 27242.79
195.7475, 27211.78
196.2296, 27086.64
196.7117, 27010.34
197.1938, 27022.22
197.6759, 27070.17
198.1581, 27108.16
198.6402, 27120.89
199.1223, 27127.71
199.6044, 27166.48
200.0865, 27255.35
200.5686, 27341.71
201.0508, 27434.42
201.5329, 27515.62
202.0150, 27566.78
202.4971, 27584.31
202.9792, 27583.50
203.4613, 27588.35
203.9435, 27601.81
204.4256, 27614.46
204.9077, 27611.46
205.3898, 27617.16
205.8719, 27657.05
206.3540, 27732.17
206.8362, 27813.55
207.3183, 27858.89
207.8004, 27847.94
208.2825, 27851.25
208.7646, 27876.45
209.2467, 27908.51
209.7289, 27939.43
210.2110, 27967.95
210.6931, 27997.91
211.1752, 28037.46
211.6573, 28096.06
212.1395, 28127.59
212.6216, 28109.45
213.1037, 28085.52
213.5858, 28073.01
214.0679, 28074.37
214.5500, 28085.55
215.0322, 28103.53
215.5143, 28129.08
215.9964, 28156.31
216.4785, 28189.55
216.9606, 28220.56
217.4427, 28253.03
217.9249, 28281.69
218.4070, 28292.47
218.8891, 28267.40
219.3712, 28204.46
219.8533, 28179.27
220.3354, 28235.13
220.8176, 28288.61
221.2997, 28325.92
221.7818, 28343.40
222.2639, 28335.64
222.7460, 28293.90
223.2281, 28223.46
223.7103, 28185.09
224.1924, 28221.31
224.6745, 28244.75
225.1566, 28223.77
225.6387, 28181.26
226.1208, 28155.72
226.6030, 28172.19
227.0851, 28215.68
227.5672, 28221.46
228.0493, 28150.53
228.5314, 28092.80
229.0135, 28058.68
229.4957, 28046.78
229.9778, 28059.67
230.4599, 28099.37
230.9420, 28153.22
231.4241, 28189.16
231.9062, 28192.50
232.3884, 28202.49
232.8705, 28224.44
233.3526, 28253.87
233.8347, 28289.14
234.3168, 28329.27
234.7989, 28370.32
235.2811, 28402.86
235.7632, 28416.73
236.2453, 28447.28
236.7274, 28512.89
237.2095, 28583.52
237.6916, 28633.23
238.1738, 28659.81
238.6559, 28688.80
239.1380, 28757.33
239.6201, 28880.50
240.1022, 28987.71
240.5843, 29064.83
241.0665, 29135.03
241.5486, 29210.02
242.0307, 29289.73
242.5128, 29366.05
242.9949, 29429.57
243.4770, 29478.98
243.9592, 29532.75
244.4413, 29609.04
244.9234, 29672.19
245.4055, 29706.96
245.8876, 29717.33
246.3697, 29714.09
246.8519, 29697.76
247.3340, 29672.34
247.8161, 29676.97
248.2982, 29740.94
248.7803, 29796.62
249.2624, 29827.53
249.7446, 29834.59
250.2267, 29816.44
250.7088, 29764.59
251.1909, 29695.51
251.6730, 29659.69
252.1551, 29675.60
252.6373, 29687.60
253.1194, 29659.54
253.6015, 29625.87
254.0836, 29629.71
254.5657, 29692.21
255.0478, 29775.93
255.5300, 29822.68
256.0121, 29826.74
256.4942, 29814.51
256.9763, 29765.75
257.4584, 29719.32
257.9406, 29712.95
258.4227, 29755.98
258.9048, 29801.37
259.3869, 29793.70
259.8690, 29730.21
260.3511, 29677.41
260.8333, 29656.67
261.3154, 29642.28
261.7975, 29617.98
262.2796, 29582.85
262.7617, 29539.15
263.2438, 29479.70
263.7260, 29409.38
264.2081, 29360.17
264.6902, 29347.55
265.1723, 29337.88
265.6544, 29303.93
266.1365, 29251.91
266.6187, 29202.56
267.1008, 29169.29
267.5829, 29144.61
268.0650, 29113.71
268.5471, 29076.74
269.0292, 29032.22
269.5114, 28969.49
269.9935, 28899.39
270.4756, 28840.46
270.9577, 28796.10
271.4398, 28765.98
271.9219, 28757.61
272.4041, 28771.87
272.8862, 28776.97
273.3683, 28756.47
273.8504, 28715.99
274.3325, 28665.47
274.8146, 28589.66
275.2968, 28532.35
275.7789, 28533.16
276.2610, 28580.25
276.7431, 28627.48
277.2252, 28663.62
277.7073, 28685.53
278.1895, 28685.76
278.6716, 28661.10
279.1537, 28635.94
279.6358, 28626.33
280.1179, 28620.27
280.6000, 28590.31
281.0822, 28526.37
281.5643, 28462.98
282.0464, 28445.21
282.5285, 28477.01
283.0106, 28504.96
283.4927, 28523.41
283.9749, 28535.40
284.4570, 28543.04
284.9391, 28546.70
285.4212, 28547.93
285.9033, 28549.94
286.3854, 28551.71
286.8676, 28536.40
287.3497, 28468.21
287.8318, 28418.94
288.3139, 28446.29
288.7960, 28523.18
289.2781, 28574.30
289.7603, 28555.39
290.2424, 28483.54
290.7245, 28430.31
291.2066, 28398.98
291.6887, 28380.40
292.1708, 28383.65
292.6530, 28395.31
293.1351, 28397.26
293.6172, 28383.30
294.0993, 28363.43
294.5814, 28356.85
295.0635, 28384.49
295.5457, 28384.05
296.0278, 28321.74
296.5099, 28257.81
296.9920, 28246.90
297.4741, 28287.13
297.9562, 28326.26
298.4384, 28304.68
298.9205, 28207.54
299.4026, 28153.41
299.8847, 28183.30
300.3668, 28213.85
300.8489, 28213.69
301.3311, 28191.72
301.8131, 28172.12
302.2953, 28171.39
302.7774, 28185.24
303.2595, 28192.34
303.7416, 28194.52
304.2237, 28185.85
304.7058, 28165.77
305.1880, 28135.40
305.6701, 28096.50
306.1522, 28049.80
306.6343, 27993.02
307.1164, 27916.95
307.5985, 27812.45
308.0807, 27723.90
308.5628, 27672.23
309.0449, 27630.36
309.5270, 27581.27
310.0091, 27524.15
310.4912, 27474.36
310.9734, 27457.22
311.4555, 27467.31
311.9376, 27441.69
312.4197, 27356.15
312.9018, 27262.27
313.3839, 27193.86
313.8661, 27143.10
314.3482, 27090.27
314.8303, 27017.55
315.3124, 26941.20
315.7945, 26895.99
316.2766, 26888.21
316.7588, 26874.71
317.2409, 26825.80
317.7230, 26758.63
318.2051, 26701.22
318.6872, 26658.08
319.1693, 26623.52
319.6515, 26587.52
320.1336, 26554.84
320.6157, 26551.52
321.0978, 26597.58
321.5799, 26659.24
322.0620, 26674.77
322.5442, 26634.43
323.0263, 26616.88
323.5084, 26676.71
323.9905, 26757.95
324.4726, 26771.86
324.9547, 26704.12
325.4369, 26641.44
325.9190, 26674.83
326.4011, 26816.57
326.8832, 26912.67
327.3653, 26930.69
327.8474, 26935.28
328.3296, 26958.39
328.8117, 26998.37
329.2938, 27042.32
329.7759, 27082.37
330.2580, 27121.52
330.7401, 27172.12
331.2223, 27259.30
331.7044, 27326.98
332.1865, 27356.39
332.6686, 27369.57
333.1507, 27389.84
333.6328, 27424.28
334.1150, 27464.90
334.5971, 27497.98
335.0792, 27512.33
335.5613, 27550.35
336.0434, 27632.94
336.5255, 27717.69
337.0077, 27787.30
337.4898, 27839.62
337.9719, 27876.94
338.4540, 27897.16
338.9361, 27903.20
339.4182, 27922.26
339.9004, 27965.52
340.3825, 28005.35
340.8646, 28012.93
341.3467, 28020.08
341.8288, 28075.32
342.3109, 28204.08
342.7931, 28352.79
343.2752, 28436.01
343.7573, 28443.83
344.2394, 28457.03
344.7215, 28497.57
345.2036, 28548.49
345.6858, 28599.74
346.1679, 28650.45
346.6500, 28694.51
347.1321, 28725.12
347.6142, 28746.21
348.0963, 28766.70
348.5785, 28785.01
349.0606, 28810.77
349.5427, 28863.90
350.0248, 28932.26
350.5069, 28977.74
350.9890, 28981.45
351.4712, 28969.72
351.9533, 28964.88
352.4354, 28964.37
352.9175, 28951.45
353.3996, 28913.25
353.8817, 28863.59
354.3639, 28842.54
354.8460, 28868.17
355.3281, 28878.40
355.8102, 28870.56
356.2923, 28835.17
356.7744, 28742.03
357.2566, 28589.51
357.7387, 28441.01
358.2208, 28372.33
358.7029, 28404.36
359.1850, 28400.31
359.6671, 28344.41
360.1493, 28274.23
360.6314, 28204.74
361.1135, 28134.26
361.5956, 28055.02
362.0777, 27961.46
362.5598, 27857.53
363.0420, 27757.06
363.5241, 27662.74
364.0062, 27567.75
364.4883, 27474.24
364.9704, 27378.11
365.4525, 27278.24
365.9347, 27173.85
366.4168, 27058.96
366.8989, 26914.66
367.3810, 26735.28
367.8631, 26606.40
368.3452, 26568.76
368.8274, 26538.47
369.3095, 26467.45
369.7916, 26369.80
370.2737, 26282.21
370.7558, 26230.67
371.2379, 26191.60
371.7201, 26126.08
372.2022, 26032.81
372.6843, 25925.77
373.1664, 25798.68
373.6485, 25668.93
374.1306, 25560.32
374.6128, 25474.30
375.0949, 25407.11
375.5770, 25376.86
376.0591, 25361.35
376.5412, 25316.03
377.0233, 25231.10
377.5055, 25121.53
377.9876, 24996.81
378.4697, 24855.21
378.9518, 24724.56
379.4339, 24600.99
379.9160, 24492.67
380.3982, 24414.42
380.8803, 24357.08
381.3624, 24297.03
381.8445, 24221.20
382.3266, 24134.91
382.8087, 24052.92
383.2909, 23989.90
383.7730, 23911.88
384.2551, 23794.77
384.7372, 23677.99
385.2193, 23599.02
385.7014, 23560.26
386.1836, 23530.69
386.6657, 23475.81
387.1478, 23393.74
387.6299, 23326.62
388.1120, 23279.62
388.5941, 23242.67
389.0763, 23223.71
389.5584, 23209.67
390.0405, 23177.09
390.5226, 23110.06
391.0047, 23036.79
391.4868, 23010.87
391.9690, 23039.77
392.4511, 23044.54
392.9332, 22990.62
393.4153, 22916.16
393.8974, 22854.52
394.3795, 22806.21
394.8617, 22769.29
395.3438, 22738.91
395.8259, 22720.60
396.3080, 22734.63
396.7901, 22785.32
397.2722, 22821.19
397.7544, 22799.86
398.2365, 22732.29
398.7186, 22684.25
399.2007, 22670.57
399.6828, 22659.72
400.1649, 22638.84
400.6471, 22613.00
401.1292, 22592.99
401.6113, 22582.29
402.0934, 22569.87
402.5755, 22536.07
403.0576, 22463.08
403.5398, 22425.43
404.0219, 22470.71
404.5040, 22501.92
404.9861, 22445.98
405.4682, 22333.16
405.9503, 22247.26
406.4325, 22244.64
406.9146, 22300.20
407.3967, 22325.54
407.8788, 22309.81
408.3609, 22285.03
408.8430, 22253.05
409.3252, 22218.03
409.8073, 22185.56
410.2894, 22155.71
410.7715, 22118.65
411.2536, 22061.18
411.7357, 21987.70
412.2179, 21917.23
412.7000, 21841.01
413.1821, 21792.61
413.6642, 21824.23
414.1463, 21898.78
414.6284, 21942.65
415.1106, 21933.57
415.5927, 21901.10
416.0748, 21855.60
416.5569, 21803.00
417.0390, 21763.68
417.5211, 21746.26
418.0033, 21739.06
418.4854, 21727.21
418.9675, 21714.11
419.4496, 21681.76
419.9317, 21600.62
420.4138, 21523.96
420.8960, 21491.23
421.3781, 21495.92
421.8602, 21511.28
422.3423, 21522.46
422.8244, 21525.44
423.3065, 21501.55
423.7887, 21424.36
424.2708, 21361.04
424.7529, 21325.21
425.2350, 21300.08
425.7171, 21270.70
426.1992, 21235.65
426.6814, 21206.35
427.1635, 21201.46
427.6456, 21217.30
428.1277, 21207.79
428.6098, 21162.33
429.0919, 21111.66
429.5741, 21060.06
430.0562, 21016.22
430.5383, 20998.71
431.0204, 21024.11
431.5025, 21050.10
431.9846, 21036.45
432.4668, 20993.38
432.9489, 20958.06
433.4310, 20941.18
433.9131, 20930.18
434.3952, 20908.03
434.8773, 20872.69
435.3595, 20851.98
435.8416, 20865.15
436.3237, 20877.45
436.8058, 20868.73
437.2879, 20841.55
437.7701, 20800.04
438.2522, 20744.28
438.7343, 20689.12
439.2164, 20674.58
439.6985, 20732.66
440.1806, 20775.24
440.6628, 20789.20
441.1449, 20798.61
441.6270, 20822.87
442.1091, 20858.55
442.5912, 20886.13
443.0733, 20887.28
443.5555, 20870.19
444.0376, 20868.52
444.5197, 20889.21
445.0018, 20906.09
445.4839, 20922.18
445.9660, 20922.13
446.4482, 20878.13
446.9303, 20779.68
447.4124, 20695.34
447.8945, 20673.59
448.3766, 20694.46
448.8587, 20724.72
449.3409, 20761.92
449.8230, 20782.96
450.3051, 20764.47
450.7872, 20710.81
451.2693, 20672.31
451.7514, 20645.81
452.2336, 20636.63
452.7157, 20669.42
453.1978, 20712.45
453.6799, 20714.88
454.1620, 20664.33
454.6441, 20599.46
455.1263, 20573.39
455.6084, 20597.61
456.0905, 20595.60
456.5726, 20544.68
457.0547, 20489.55
457.5368, 20435.63
458.0190, 20388.21
458.5011, 20354.79
458.9832, 20339.44
459.4653, 20334.62
459.9474, 20331.35
460.4295, 20329.70
460.9117, 20327.72
461.3938, 20331.04
461.8759, 20325.34
462.3580, 20291.57
462.8401, 20235.45
463.3222, 20186.69
463.8044, 20160.87
464.2865, 20139.58
464.7686, 20107.13
465.2507, 20065.05
465.7328, 20018.20
466.2149, 19966.77
466.6971, 19918.93
467.1792, 19893.94
467.6613, 19920.63
468.1434, 19907.00
468.6255, 19799.01
469.1076, 19698.21
469.5898, 19682.66
470.0719, 19731.83
470.5540, 19776.49
471.0361, 19774.34
471.5182, 19734.75
472.0003, 19679.77
472.4825, 19599.14
472.9646, 19532.15
473.4467, 19495.03
473.9288, 19469.35
474.4109, 19446.70
474.8930, 19425.71
475.3752, 19403.82
475.8573, 19375.80
476.3394, 19347.46
476.8215, 19330.04
477.3036, 19323.92
477.7857, 19320.13
478.2679, 19317.85
478.7500, 19312.12
479.2321, 19284.95
479.7142, 19214.20
480.1963, 19179.32
480.6784, 19224.78
481.1606, 19292.87
481.6427, 19334.91
482.1248, 19346.50
482.6069, 19342.50
483.0890, 19331.82
483.5711, 19317.41
484.0533, 19315.41
484.5354, 19328.65
485.0175, 19350.71
485.4996, 19374.54
485.9817, 19409.65
486.4638, 19468.92
486.9460, 19550.95
487.4281, 19634.64
487.9102, 19702.03
488.3923, 19758.57
488.8744, 19819.02
489.3565, 19882.54
489.8387, 19956.22
490.3208, 20052.78
490.8029, 20156.77
491.2850, 20233.13
491.7671, 20267.74
492.2492, 20316.17
492.7314, 20412.18
493.2135, 20522.85
493.6956, 20603.38
494.1777, 20654.02
494.6598, 20715.59
495.1419, 20820.70
495.6241, 20962.20
496.1062, 21096.82
496.5883, 21221.43
497.0704, 21342.08
497.5525, 21465.48
498.0346, 21581.80
498.5168, 21682.07
498.9989, 21765.73
499.4810, 21838.32
499.9631, 21898.74
500.4452, 21952.10
500.9273, 22015.14
501.4095, 22087.00
501.8916, 22175.16
502.3737, 22308.64
502.8558, 22444.83
503.3379, 22509.68
503.8200, 22481.05
504.3022, 22468.61
504.7843, 22530.59
505.2664, 22620.35
505.7485, 22684.23
506.2306, 22719.59
506.7127, 22749.99
507.1949, 22792.12
507.6770, 22841.04
508.1591, 22875.12
508.6412, 22897.05
509.1233, 22898.33
509.6054, 22862.15
510.0876, 22818.94
510.5697, 22794.05
511.0518, 22785.50
511.5339, 22771.65
512.0161, 22734.53
512.4982, 22682.54
512.9803, 22638.15
513.4624, 22602.68
513.9445, 22568.33
514.4266, 22530.99
514.9088, 22494.95
515.3909, 22466.95
515.8730, 22447.78
516.3551, 22425.59
516.8372, 22401.88
517.3193, 22369.86
517.8015, 22309.50
518.2836, 22231.66
518.7657, 22181.91
519.2478, 22188.02
519.7299, 22221.21
520.2120, 22210.32
520.6942, 22115.56
521.1763, 22052.61
521.6584, 22048.59
522.1405, 22047.23
522.6226, 22002.72
523.1047, 21935.78
523.5869, 21906.93
524.0690, 21958.11
524.5511, 22039.96
525.0332, 22081.12
525.5153, 22081.55
525.9974, 22032.07
526.4796, 21903.25
526.9617, 21767.88
527.4438, 21710.58
527.9259, 21721.90
528.4080, 21734.92
528.8901, 21748.01
529.3723, 21752.85
529.8544, 21742.71
530.3365, 21721.12
530.8186, 21689.74
531.3007, 21649.79
531.7828, 21617.96
532.2650, 21623.90
532.7471, 21680.91
533.2292, 21692.01
533.7113, 21608.59
534.1934, 21533.81
534.6755, 21502.36
535.1577, 21496.70
535.6398, 21496.78
536.1219, 21498.80
536.6040, 21487.26
537.0861, 21435.96
537.5682, 21359.13
538.0504, 21304.32
538.5325, 21278.83
539.0146, 21264.06
539.4967, 21250.59
539.9788, 21237.12
540.4609, 21217.90
540.9431, 21202.47
541.4252, 21168.97
541.9073, 21084.97
542.3894, 20999.06
542.8715, 20971.96
543.3536, 20998.02
543.8358, 21011.61
544.3179, 20955.84
544.8000, 20849.96
545.2821, 20778.30
545.7642, 20748.09
546.2463, 20732.89
546.7285, 20752.97
547.2106, 20765.50
547.6927, 20726.19
548.1748, 20639.36
548.6569, 20566.04
549.1390, 20557.25
549.6211, 20558.40
550.1032, 20494.20
550.5853, 20381.87
551.0674, 20305.38
551.5496, 20301.20
552.0317, 20329.29
552.5138, 20324.73
552.9959, 20275.97
553.4780, 20232.84
553.9601, 20208.29
554.4423, 20174.54
554.9244, 20103.71
555.4065, 20021.48
555.8886, 19974.47
556.3707, 19980.62
556.8528, 19994.65
557.3350, 19948.11
557.8171, 19852.36
558.2992, 19808.37
558.7813, 19841.40
559.2634, 19875.31
559.7455, 19858.97
560.2277, 19804.53
560.7098, 19756.60
561.1919, 19725.56
561.6740, 19683.28
562.1561, 19602.86
562.6382, 19517.89
563.1204, 19467.51
563.6025, 19451.68
564.0846, 19440.81
564.5667, 19411.62
565.0488, 19373.14
565.5309, 19366.31
566.0131, 19416.11
566.4952, 19434.35
566.9773, 19373.22
567.4594, 19301.71
567.9415, 19262.45
568.4236, 19252.03
568.9058, 19244.29
569.3879, 19226.83
569.8700, 19208.40
570.3521, 19201.22
570.8342, 19200.88
571.3163, 19195.63
571.7985, 19182.89
572.2806, 19151.40
572.7627, 19078.01
573.2448, 18950.31
573.7269, 18897.82
574.2090, 19000.92
574.6912, 19078.71
575.1733, 19077.72
575.6554, 19032.42
576.1375, 18972.56
576.6196, 18908.69
577.1017, 18858.86
577.5839, 18850.32
578.0660, 18868.72
578.5481, 18864.51
579.0302, 18835.19
579.5123, 18798.06
579.9944, 18754.15
580.4766, 18713.08
580.9587, 18698.38
581.4408, 18717.96
581.9229, 18725.51
582.4050, 18716.21
582.8871, 18691.67
583.3693, 18637.38
583.8514, 18570.73
584.3335, 18530.45
584.8156, 18534.83
585.2977, 18554.56
585.7798, 18539.95
586.2620, 18487.17
586.7441, 18444.71
587.2262, 18413.27
587.7083, 18394.56
588.1904, 18409.88
588.6725, 18433.10
589.1547, 18415.09
589.6368, 18330.43
590.1189, 18254.55
590.6010, 18246.88
591.0831, 18255.72
591.5652, 18206.51
592.0474, 18101.40
592.5295, 17995.96
593.0116, 17925.60
593.4937, 17885.92
593.9758, 17865.90
594.4579, 17880.07
594.9401, 17879.48
595.4222, 17846.12
595.9043, 17809.79
596.3864, 17780.04
596.8685, 17759.36
597.3506, 17754.85
597.8328, 17781.60
598.3149, 17800.86
598.7970, 17765.65
599.2791, 17696.58
599.7612, 17645.98
600.2433, 17623.75
600.7255, 17617.64
601.2076, 17621.06
601.6897, 17631.06
602.1718, 17623.26
602.6539, 17573.10
603.1360, 17538.70
603.6182, 17539.08
604.1003, 17544.95
604.5824, 17536.34
605.0645, 17512.38
605.5466, 17480.92
606.0287, 17445.11
606.5109, 17405.94
606.9930, 17364.28
607.4751, 17320.13
607.9572, 17271.01
608.4393, 17212.31
608.9214, 17164.45
609.4036, 17155.78
609.8857, 17186.43
610.3678, 17177.12
610.8499, 17087.45
611.3320, 17013.09
611.8141, 16987.88
612.2963, 16981.02
612.7784, 16963.02
613.2605, 16930.00
613.7426, 16893.75
614.2247, 16860.77
614.7068, 16832.86
615.1890, 16818.64
615.6711, 16819.10
616.1532, 16810.60
616.6353, 16786.39
617.1174, 16750.63
617.5995, 16700.96
618.0817, 16636.92
618.5638, 16596.47
619.0459, 16598.19
619.5280, 16603.92
620.0101, 16607.61
620.4922, 16602.75
620.9744, 16575.52
621.4565, 16527.45
621.9386, 16483.21
622.4207, 16467.57
622.9028, 16472.37
623.3849, 16467.62
623.8671, 16453.56
624.3492, 16427.24
624.8313, 16380.78
625.3134, 16329.55
625.7955, 16290.09
626.2776, 16261.63
626.7598, 16245.13
627.2419, 16256.02
627.7240, 16262.47
628.2061, 16253.20
628.6882, 16227.44
629.1703, 16169.81
629.6525, 16085.12
630.1346, 16024.25
630.6167, 16050.06
631.0988, 16140.64
631.5809, 16167.14
632.0630, 16112.23
632.5452, 16060.83
633.0273, 16037.67
633.5094, 16029.50
633.9915, 16027.89
634.4736, 16031.99
634.9557, 16018.53
635.4379, 15963.69
635.9200, 15910.47
636.4021, 15882.84
636.8842, 15872.77
637.3663, 15872.36
637.8484, 15876.93
638.3306, 15872.72
638.8127, 15841.59
639.2948, 15790.51
639.7769, 15764.68
640.2590, 15770.27
640.7411, 15779.48
641.2233, 15789.41
641.7054, 15794.89
642.1875, 15789.09
642.6696, 15772.93
643.1517, 15757.38
643.6339, 15750.03
644.1160, 15738.13
644.5981, 15704.27
645.0802, 15665.43
645.5623, 15650.12
646.0444, 15662.66
646.5266, 15684.89
647.0087, 15705.46
647.4908, 15718.45
647.9729, 15683.32
648.4550, 15578.10
648.9371, 15517.04
649.4193, 15559.24
649.9014, 15623.21
650.3835, 15622.76
650.8656, 15568.61
651.3477, 15536.88
651.8298, 15563.99
652.3120, 15589.10
652.7941, 15572.20
653.2762, 15541.87
653.7583, 15540.90
654.2404, 15572.49
654.7225, 15604.23
655.2047, 15608.23
655.6868, 15594.78
656.1689, 15602.85
656.6510, 15639.43
657.1331, 15652.51
657.6152, 15619.83
658.0974, 15577.17
658.5795, 15552.28
659.0616, 15543.82
659.5437, 15548.72
660.0258, 15583.61
660.5079, 15610.76
660.9901, 15612.00
661.4722, 15602.62
661.9543, 15599.39
662.4364, 15602.54
662.9185, 15598.42
663.4006, 15573.60
663.8828, 15548.78
664.3649, 15580.66
664.8470, 15671.94
665.3291, 15728.26
665.8112, 15727.08
666.2933, 15708.16
666.7755, 15695.90
667.2576, 15690.01
667.7397, 15688.53
668.2218, 15702.57
668.7039, 15703.07
669.1860, 15657.89
669.6682, 15618.87
670.1503, 15645.88
670.6324, 15714.82
671.1145, 15749.88
671.5966, 15711.11
672.0787, 15642.86
672.5609, 15601.85
673.0430, 15586.26
673.5251, 15588.98
674.0072, 15614.21
674.4893, 15628.26
674.9714, 15608.45
675.4536, 15565.95
675.9357, 15529.01
676.4178, 15494.95
676.8999, 15472.34
677.3820, 15467.57
677.8641, 15467.98
678.3463, 15464.12
678.8284, 15461.85
679.3105, 15477.27
679.7926, 15515.39
680.2747, 15545.30
680.7568, 15529.75
681.2390, 15486.28
681.7211, 15459.38
682.2032, 15449.65
682.6853, 15428.72
683.1674, 15381.68
683.6495, 15326.02
684.1317, 15286.96
684.6138, 15264.15
685.0959, 15260.75
685.5780, 15299.66
686.0601, 15330.57
686.5422, 15343.31
687.0244, 15341.01
687.5065, 15320.55
687.9886, 15284.53
688.4707, 15256.91
688.9528, 15254.60
689.4349, 15265.02
689.9171, 15279.73
690.3992, 15295.21
690.8813, 15302.38
691.3634, 15298.68
691.8455, 15283.98
692.3276, 15256.25
692.8098, 15217.75
693.2919, 15187.92
693.7740, 15163.93
694.2561, 15155.17
694.7382, 15177.08
695.2203, 15202.69
695.7025, 15218.04
696.1846, 15222.07
696.6667, 15211.25
697.1488, 15165.18
697.6309, 15133.45
698.1130, 15163.53
698.5952, 15211.01
699.0773, 15216.10
699.5594, 15179.50
700.0415, 15141.06
700.5236, 15125.36
701.0057, 15121.09
701.4879, 15106.51
701.9700, 15081.48
702.4521, 15044.87
702.9342, 14986.70
703.4163, 14943.33
703.8984, 14948.51
704.3806, 14978.41
704.8627, 14971.52
705.3448, 14906.58
705.8269, 14868.36
706.3090, 14895.87
706.7911, 14925.63
707.2733, 14920.92
707.7554, 14891.68
708.2375, 14853.86
708.7196, 14813.46
709.2017, 14781.35
709.6838, 14778.66
710.1660, 14789.44
710.6481, 14767.80
711.1302, 14715.31
711.6123, 14668.89
712.0944, 14641.49
712.5765, 14625.76
713.0587, 14613.92
713.5408, 14606.25
714.0229, 14596.07
714.5050, 14582.35
714.9871, 14567.47
715.4692, 14557.45
715.9514, 14542.06
716.4335, 14506.34
716.9156, 14455.91
717.3977, 14417.63
717.8798, 14410.64
718.3619, 14407.36
718.8441, 14383.63
719.3262, 14349.49
719.8083, 14320.40
720.2904, 14299.07
720.7725, 14283.83
721.2546, 14273.96
721.7368, 14268.29
722.2189, 14264.74
722.7010, 14263.83
723.1831, 14264.17
723.6652, 14277.53
724.1473, 14267.95
724.6295, 14197.27
725.1116, 14096.97
725.5937, 14033.60
726.0758, 14019.88
726.5579, 14000.49
727.0400, 13948.62
727.5222, 13905.30
728.0043, 13905.93
728.4864, 13927.44
728.9685, 13930.39
729.4506, 13905.02
729.9327, 13873.67
730.4149, 13853.05
730.8970, 13842.29
731.3791, 13844.25
731.8612, 13856.89
732.3433, 13860.11
732.8254, 13847.42
733.3076, 13827.85
733.7897, 13810.31
734.2718, 13794.51
734.7539, 13775.82
735.2360, 13751.50
735.7181, 13728.64
736.2003, 13702.01
736.6824, 13682.44
737.1645, 13684.83
737.6466, 13699.32
738.1287, 13696.18
738.6108, 13654.47
739.0930, 13626.18
739.5751, 13665.07
740.0572, 13716.61
740.5393, 13708.06
741.0214, 13651.54
741.5035, 13605.56
741.9857, 13597.87
742.4678, 13607.65
742.9499, 13606.78
743.4320, 13596.05
743.9141, 13585.41
744.3962, 13574.05
744.8784, 13567.65
745.3605, 13568.08
745.8426, 13575.00
746.3247, 13589.32
746.8068, 13612.33
747.2889, 13631.11
747.7711, 13653.33
748.2532, 13661.94
748.7353, 13645.78
749.2174, 13619.70
749.6995, 13587.56
750.1816, 13556.77
750.6638, 13550.15
751.1459, 13591.11
751.6280, 13635.99
752.1101, 13640.38
752.5922, 13621.56
753.0743, 13610.43
753.5565, 13610.57
754.0386, 13614.48
754.5207, 13618.11
755.0028, 13620.55
755.4849, 13617.98
755.9670, 13608.84
756.4492, 13609.71
756.9313, 13621.66
757.4134, 13642.01
757.8955, 13672.99
758.3776, 13709.41
758.8597, 13746.89
759.3419, 13786.94
759.8240, 13812.63
760.3061, 13813.64
760.7882, 13810.78
761.2703, 13801.98
761.7524, 13799.64
762.2346, 13824.49
762.7167, 13871.36
763.1988, 13906.10
763.6809, 13901.12
764.1630, 13890.34
764.6451, 13918.58
765.1273, 13970.61
765.6094, 14010.16
766.0915, 14032.06
766.5736, 14042.92
767.0557, 14045.26
767.5378, 14046.10
768.0200, 14060.38
768.5021, 14088.79
768.9842, 14128.55
769.4663, 14189.53
769.9484, 14240.16
770.4305, 14261.44
770.9127, 14268.38
771.3948, 14282.14
771.8769, 14303.06
772.3590, 14324.59
772.8411, 14348.58
773.3232, 14369.80
773.8054, 14378.00
774.2875, 14387.89
774.7696, 14421.37
775.2517, 14474.07
775.7338, 14517.00
776.2159, 14531.06
776.6981, 14535.71
777.1802, 14551.49
777.6623, 14574.83
778.1444, 14595.53
778.6265, 14613.63
779.1086, 14643.32
779.5908, 14694.16
780.0729, 14748.20
780.5550, 14768.17
781.0371, 14749.31
781.5192, 14742.88
782.0013, 14748.63
782.4835, 14768.64
782.9656, 14813.92
783.4477, 14864.09
783.9298, 14886.02
784.4119, 14878.43
784.8940, 14898.79
785.3762, 14982.21
785.8583, 15051.38
786.3404, 15074.17
786.8225, 15083.20
787.3046, 15110.21
787.7867, 15150.28
788.2689, 15175.03
788.7510, 15166.73
789.2331, 15159.73
789.7152, 15189.48
790.1973, 15236.11
790.6794, 15271.39
791.1616, 15293.22
791.6437, 15304.75
792.1258, 15307.44
792.6079, 15306.97
793.0900, 15309.47
793.5721, 15315.44
794.0543, 15332.31
794.5364, 15362.83
795.0185, 15386.03
795.5006, 15392.36
795.9827, 15397.61
796.4648, 15421.22
796.9470, 15459.83
797.4291, 15476.60
797.9112, 15462.45
798.3933, 15438.73
798.8754, 15381.08
799.3575, 15339.11
799.8397, 15357.61
800.3218, 15407.56
800.8039, 15431.03
801.2860, 15411.38
801.7681, 15389.80
802.2502, 15396.57
802.7324, 15401.88
803.2145, 15369.14
803.6966, 15317.48
804.1787, 15286.14
804.6608, 15283.63
805.1429, 15288.62
805.6251, 15285.24
806.1072, 15274.67
806.5893, 15259.94
807.0714, 15240.56
807.5535, 15209.40
808.0356, 15164.00
808.5178, 15127.92
808.9999, 15119.34
809.4820, 15124.76
809.9641, 15107.81
810.4462, 15056.53
810.9283, 15028.70
811.4105, 15048.87
811.8926, 15052.11
812.3747, 14994.34
812.8568, 14919.62
813.3389, 14881.12
813.8210, 14879.23
814.3032, 14871.29
814.7853, 14852.26
815.2674, 14824.95
815.7495, 14778.41
816.2316, 14733.35
816.7137, 14718.25
817.1959, 14721.50
817.6780, 14703.29
818.1601, 14644.12
818.6422, 14573.24
819.1243, 14497.54
819.6064, 14435.58
820.0886, 14432.40
820.5707, 14470.96
821.0528, 14485.77
821.5349, 14453.91
822.0170, 14404.43
822.4991, 14369.93
822.9813, 14344.01
823.4634, 14292.49
823.9455, 14212.69
824.4276, 14157.91
824.9097, 14143.35
825.3918, 14140.03
825.8740, 14131.45
826.3561, 14113.40
826.8382, 14070.36
827.3203, 13987.29
827.8024, 13913.89
828.2845, 13853.40
828.7667, 13798.84
829.2488, 13754.85
829.7309, 13711.06
830.2130, 13651.25
830.6951, 13574.73
831.1772, 13509.97
831.6594, 13475.83
832.1415, 13439.97
832.6236, 13389.78
833.1057, 13329.84
833.5878, 13258.02
834.0699, 13180.72
834.5521, 13117.43
835.0342, 13080.17
835.5163, 13039.71
835.9984, 12956.83
836.4805, 12859.35
836.9626, 12790.28
837.4448, 12749.02
837.9269, 12730.72
838.4090, 12731.52
838.8911, 12720.17
839.3732, 12657.95
839.8553, 12562.35
840.3375, 12496.24
840.8196, 12459.96
841.3017, 12440.37
841.7838, 12440.80
842.2659, 12426.75
842.7480, 12366.44
843.2302, 12286.51
843.7123, 12259.49
844.1944, 12317.32
844.6765, 12318.89
845.1586, 12220.06
845.6407, 12130.90
846.1229, 12094.79
846.6050, 12080.51
847.0871, 12057.28
847.5692, 12026.17
848.0513, 12007.80
848.5334, 12030.79
849.0156, 12031.69
849.4977, 11973.37
849.9798, 11904.41
850.4619, 11857.12
850.9440, 11830.32
851.4261, 11818.25
851.9083, 11820.37
852.3904, 11816.47
852.8725, 11791.36
853.3546, 11755.14
853.8367, 11710.83
854.3188, 11665.91
854.8010, 11637.64
855.2831, 11626.68
855.7652, 11613.90
856.2473, 11584.10
856.7294, 11548.40
857.2115, 11521.86
857.6937, 11506.17
858.1758, 11522.34
858.6579, 11569.65
859.1400, 11573.30
859.6221, 11492.93
860.1042, 11393.52
860.5864, 11372.10
861.0685, 11425.11
861.5506, 11448.98
862.0327, 11438.74
862.5148, 11415.69
862.9969, 11372.10
863.4791, 11341.66
863.9612, 11363.49
864.4433, 11416.11
864.9254, 11419.38
865.4075, 11332.81
865.8896, 11281.43
866.3718, 11299.41
866.8539, 11309.93
867.3360, 11270.85
867.8181, 11220.20
868.3002, 11204.77
868.7823, 11225.03
869.2645, 11240.29
869.7466, 11242.70
870.2287, 11235.01
870.7108, 11216.09
871.1929, 11189.24
871.6750, 11154.11
872.1572, 11114.29
872.6393, 11074.80
873.1214, 11036.95
873.6035, 11007.30
874.0856, 10993.49
874.5677, 10987.72
875.0499, 10985.33
875.5320, 10982.77
876.0141, 10973.57
876.4962, 10956.67
876.9783, 10933.52
877.4604, 10903.44
877.9426, 10874.48
878.4247, 10868.10
878.9068, 10874.03
879.3889, 10844.65
879.8710, 10781.19
880.3531, 10740.79
880.8353, 10748.31
881.3174, 10761.96
881.7995, 10730.47
882.2816, 10661.67
882.7637, 10598.93
883.2458, 10538.35
883.7280, 10523.77
884.2101, 10581.57
884.6922, 10621.36
885.1743, 10577.09
885.6564, 10485.63
886.1385, 10426.73
886.6207, 10407.03
887.1028, 10391.11
887.5849, 10380.44
888.0670, 10371.38
888.5491, 10367.49
889.0313, 10360.89
889.5134, 10346.80
889.9955, 10324.63
890.4776, 10290.82
890.9597, 10232.80
891.4418, 10185.85
891.9240, 10160.88
892.4061, 10141.17
892.8882, 10121.31
893.3703, 10099.27
893.8524, 10067.64
894.3345, 10027.76
894.8167, 10005.19
895.2988, 10034.49
895.7809, 10054.18
896.2630, 10021.75
896.7451, 9970.703
897.2272, 9932.338
897.7094, 9907.093
898.1915, 9886.262
898.6736, 9866.826
899.1557, 9846.254
899.6378, 9815.740
900.1199, 9788.519
900.6021, 9784.482
901.0842, 9795.423
901.5663, 9806.072
902.0484, 9812.388
902.5305, 9814.625
903.0126, 9813.855
903.4948, 9803.338
903.9769, 9758.985
904.4590, 9698.855
904.9411, 9690.269
905.4232, 9727.934
905.9053, 9748.796
906.3875, 9732.462
906.8696, 9713.152
907.3517, 9726.004
907.8338, 9757.399
908.3159, 9762.018
908.7980, 9739.705
909.2802, 9712.895
909.7623, 9681.696
910.2444, 9663.833
910.7265, 9670.005
911.2086, 9687.329
911.6907, 9696.671
912.1729, 9698.276
912.6550, 9712.281
913.1371, 9746.357
913.6192, 9768.014
914.1013, 9767.636
914.5834, 9760.874
915.0656, 9752.591
915.5477, 9748.525
916.0298, 9764.437
916.5119, 9810.328
916.9940, 9838.311
917.4761, 9824.321
917.9583, 9826.492
918.4404, 9875.052
918.9225, 9930.308
919.4046, 9961.730
919.8867, 9973.676
920.3688, 9983.216
920.8510, 9987.925
921.3331, 9998.659
921.8152, 10023.50
922.2973, 10047.15
922.7794, 10057.55
923.2615, 10066.28
923.7437, 10086.49
924.2258, 10118.79
924.7079, 10156.75
925.1900, 10208.33
925.6721, 10249.15
926.1542, 10256.64
926.6364, 10261.19
927.1185, 10292.76
927.6006, 10336.51
928.0827, 10362.38
928.5648, 10365.14
929.0469, 10369.20
929.5291, 10387.39
930.0112, 10412.69
930.4933, 10444.97
930.9754, 10477.96
931.4575, 10500.21
931.9396, 10516.38
932.4218, 10542.51
932.9039, 10584.36
933.3860, 10627.57
933.8681, 10668.71
934.3502, 10696.96
934.8323, 10685.81
935.3145, 10655.11
935.7966, 10645.23
936.2787, 10659.87
936.7608, 10682.00
937.2429, 10702.81
937.7250, 10724.38
938.2072, 10751.47
938.6893, 10780.46
939.1714, 10804.89
939.6535, 10823.74
940.1356, 10830.29
940.6177, 10824.74
941.0999, 10822.70
941.5820, 10835.13
942.0641, 10857.57
942.5462, 10883.90
943.0283, 10913.32
943.5104, 10946.18
943.9926, 10980.83
944.4747, 10990.89
944.9568, 10967.39
945.4389, 10950.94
945.9210, 10980.79
946.4031, 11038.10
946.8853, 11065.32
947.3674, 11062.77
947.8495, 11088.75
948.3316, 11149.26
948.8137, 11215.71
949.2958, 11281.40
949.7780, 11324.18
950.2601, 11309.72
950.7422, 11257.03
951.2243, 11274.18
951.7064, 11373.89
952.1885, 11462.71
952.6707, 11533.88
953.1528, 11582.40
953.6349, 11598.04
954.1170, 11607.08
954.5991, 11650.18
955.0812, 11724.10
955.5634, 11756.79
956.0455, 11725.76
956.5276, 11724.10
957.0097, 11774.58
957.4918, 11832.93
957.9739, 11882.33
958.4561, 11917.43
958.9382, 11922.34
959.4203, 11892.05
959.9024, 11905.44
960.3845, 11987.51
960.8666, 12063.86
961.3488, 12128.12
961.8309, 12178.29
962.3130, 12212.11
962.7951, 12231.03
963.2772, 12232.79
963.7593, 12208.52
964.2415, 12214.87
964.7236, 12275.20
965.2057, 12332.23
965.6878, 12369.91
966.1699, 12408.01
966.6520, 12472.49
967.1342, 12544.00
967.6163, 12571.49
968.0984, 12534.82
968.5805, 12530.84
969.0626, 12608.79
969.5447, 12660.19
970.0269, 12622.75
970.5090, 12580.93
970.9911, 12610.87
971.4732, 12686.20
971.9553, 12730.79
972.4374, 12727.39
972.9196, 12730.22
973.4017, 12752.51
973.8838, 12774.86
974.3659, 12788.61
974.8480, 12801.05
975.3301, 12822.62
975.8123, 12848.32
976.2944, 12860.25
976.7765, 12849.92
977.2586, 12844.81
977.7407, 12856.91
978.2228, 12868.23
978.7050, 12856.32
979.1871, 12851.17
979.6692, 12903.67
980.1513, 12990.09
980.6334, 13018.98
981.1155, 12948.11
981.5977, 12890.27
982.0798, 12886.75
982.5619, 12895.24
983.0440, 12888.89
983.5261, 12886.88
984.0082, 12929.59
984.4904, 12998.71
984.9725, 13014.05
985.4546, 12928.83
985.9367, 12865.80
986.4188, 12895.70
986.9009, 12930.03
987.3831, 12897.06
987.8652, 12853.29
988.3473, 12879.07
988.8294, 12962.46
989.3115, 13022.46
989.7936, 13033.74
990.2758, 13022.69
990.7579, 12974.39
991.2400, 12935.20
991.7221, 12940.65
992.2042, 12968.69
992.6863, 12996.67
993.1685, 13019.56
993.6506, 13033.32
994.1327, 13031.34
994.6148, 13035.56
995.0969, 13063.72
995.5790, 13092.82
996.0612, 13108.99
996.5433, 13115.55
997.0254, 13109.35
997.5075, 13097.65
997.9896, 13107.24
998.4717, 13151.36
998.9539, 13205.13
999.4360, 13280.92
999.9181, 13337.24
1000.400, 13313.20
1000.882, 13272.55
1001.364, 13306.68
1001.847, 13407.14
1002.329, 13490.13
1002.811, 13521.01
1003.293, 13550.26
1003.775, 13609.69
1004.257, 13667.17
1004.739, 13696.10
1005.221, 13712.49
1005.703, 13733.16
1006.186, 13761.70
1006.668, 13800.82
1007.150, 13854.41
1007.632, 13907.81
1008.114, 13962.31
1008.596, 14005.54
1009.078, 14008.07
1009.560, 14009.20
1010.043, 14068.02
1010.525, 14171.76
1011.007, 14255.63
1011.489, 14304.21
1011.971, 14316.44
1012.453, 14238.94
1012.935, 14185.62
1013.417, 14253.29
1013.899, 14362.90
1014.382, 14427.66
1014.864, 14448.82
1015.346, 14469.05
1015.828, 14501.27
1016.310, 14526.66
1016.792, 14527.93
1017.274, 14532.39
1017.756, 14553.29
1018.239, 14586.05
1018.721, 14632.11
1019.203, 14684.63
1019.685, 14727.64
1020.167, 14757.80
1020.649, 14776.66
1021.131, 14762.93
1021.613, 14765.25
1022.095, 14832.25
1022.578, 14903.30
1023.060, 14902.85
1023.542, 14863.46
1024.024, 14884.21
1024.506, 14996.62
1024.988, 15079.41
1025.470, 15073.94
1025.952, 15068.99
1026.435, 15100.30
1026.917, 15142.05
1027.399, 15172.95
1027.881, 15197.55
1028.363, 15227.00
1028.845, 15261.84
1029.327, 15308.83
1029.809, 15392.55
1030.292, 15456.10
1030.774, 15460.09
1031.256, 15463.61
1031.738, 15515.26
1032.220, 15590.96
1032.702, 15643.31
1033.184, 15666.66
1033.666, 15700.38
1034.148, 15758.51
1034.630, 15812.18
1035.113, 15848.00
1035.595, 15887.80
1036.077, 15951.06
1036.559, 16021.71
1037.041, 16073.84
1037.523, 16106.66
1038.005, 16143.30
1038.487, 16179.78
1038.970, 16226.91
1039.452, 16297.50
1039.934, 16363.16
1040.416, 16405.51
1040.898, 16441.07
1041.380, 16487.44
1041.862, 16544.52
1042.344, 16614.38
1042.826, 16714.48
1043.309, 16786.47
1043.791, 16812.33
1044.273, 16838.64
1044.755, 16874.11
1045.237, 16931.09
1045.719, 17035.67
1046.201, 17169.57
1046.683, 17243.55
1047.166, 17230.02
1047.648, 17256.24
1048.130, 17341.78
1048.612, 17408.22
1049.094, 17420.55
1049.576, 17436.65
1050.058, 17506.58
1050.540, 17614.43
1051.022, 17720.87
1051.505, 17827.63
1051.987, 17911.48
1052.469, 17967.53
1052.951, 18027.85
1053.433, 18099.71
1053.915, 18179.99
1054.397, 18269.70
1054.879, 18359.12
1055.361, 18430.66
1055.844, 18485.48
1056.326, 18533.58
1056.808, 18575.41
1057.290, 18644.77
1057.772, 18747.76
1058.254, 18849.36
1058.736, 18931.36
1059.218, 19000.01
1059.701, 19059.81
1060.183, 19115.14
1060.665, 19182.04
1061.147, 19258.49
1061.629, 19330.96
1062.111, 19399.11
1062.593, 19471.46
1063.075, 19551.52
1063.557, 19638.93
1064.040, 19732.88
1064.522, 19832.98
1065.004, 19943.32
1065.486, 20056.64
1065.968, 20156.60
1066.450, 20242.06
1066.932, 20307.24
1067.414, 20356.05
1067.896, 20424.28
1068.379, 20542.79
1068.861, 20665.02
1069.343, 20720.81
1069.825, 20760.94
1070.307, 20875.81
1070.789, 21023.38
1071.271, 21103.67
1071.753, 21118.89
1072.236, 21156.27
1072.718, 21256.40
1073.200, 21376.92
1073.682, 21501.69
1074.164, 21619.01
1074.646, 21714.43
1075.128, 21800.87
1075.610, 21898.48
1076.093, 22000.69
1076.575, 22079.08
1077.057, 22124.93
1077.539, 22194.54
1078.021, 22338.46
1078.503, 22476.52
1078.985, 22553.40
1079.467, 22629.10
1079.949, 22769.00
1080.432, 22931.55
1080.914, 23037.35
1081.396, 23080.87
1081.878, 23145.83
1082.360, 23270.19
1082.842, 23382.28
1083.324, 23451.46
1083.806, 23529.64
1084.288, 23653.95
1084.771, 23788.34
1085.253, 23894.45
1085.735, 23975.02
1086.217, 24041.66
1086.699, 24072.05
1087.181, 24148.87
1087.663, 24291.98
1088.145, 24442.44
1088.628, 24592.09
1089.110, 24731.25
1089.592, 24848.37
1090.074, 24956.64
1090.556, 25086.60
1091.038, 25239.05
1091.520, 25388.17
1092.002, 25538.20
1092.484, 25643.99
1092.967, 25690.13
1093.449, 25745.93
1093.931, 25846.78
1094.413, 25977.10
1094.895, 26119.53
1095.377, 26272.68
1095.859, 26431.64
1096.341, 26595.45
1096.823, 26760.42
1097.306, 26923.08
1097.788, 27051.86
1098.270, 27139.22
1098.752, 27236.69
1099.234, 27388.71
1099.716, 27555.48
1100.198, 27661.45
1100.680, 27745.54
1101.163, 27908.27
1101.645, 28111.86
1102.127, 28240.68
1102.609, 28294.36
1103.091, 28374.78
1103.573, 28530.18
1104.055, 28694.06
1104.537, 28804.75
1105.020, 28905.24
1105.502, 29032.67
1105.984, 29174.65
1106.466, 29317.39
1106.948, 29461.10
1107.430, 29613.41
1107.912, 29774.86
1108.394, 29920.04
1108.876, 30014.04
1109.359, 30127.56
1109.841, 30323.77
1110.323, 30505.19
1110.805, 30590.61
1111.287, 30641.57
1111.769, 30726.99
1112.251, 30848.94
1112.733, 30993.80
1113.215, 31181.45
1113.698, 31337.66
1114.180, 31440.99
1114.662, 31541.57
1115.144, 31637.86
1115.626, 31755.22
1116.108, 31921.98
1116.590, 32109.97
1117.072, 32268.59
1117.555, 32397.96
1118.037, 32509.68
1118.519, 32598.42
1119.001, 32699.09
1119.483, 32815.64
1119.965, 32948.98
1120.447, 33103.11
1120.929, 33250.09
1121.411, 33360.50
1121.894, 33442.14
1122.376, 33499.22
1122.858, 33542.89
1123.340, 33645.49
1123.822, 33795.54
1124.304, 33914.38
1124.786, 33988.22
1125.268, 34068.30
1125.750, 34183.94
1126.233, 34308.34
1126.715, 34404.68
1127.197, 34495.95
1127.679, 34628.69
1128.161, 34769.23
1128.643, 34858.50
1129.125, 34908.11
1129.607, 34957.85
1130.090, 35020.61
1130.572, 35103.41
1131.054, 35228.95
1131.536, 35341.82
1132.018, 35390.22
1132.500, 35442.29
1132.982, 35558.95
1133.464, 35696.01
1133.947, 35794.02
1134.429, 35861.11
1134.911, 35952.13
1135.393, 36089.50
1135.875, 36195.29
1136.357, 36229.06
1136.839, 36281.57
1137.321, 36383.78
1137.803, 36483.64
1138.286, 36540.85
1138.768, 36592.46
1139.250, 36695.29
1139.732, 36844.00
1140.214, 36995.82
1140.696, 37155.31
1141.178, 37285.50
1141.660, 37382.38
1142.142, 37466.98
1142.625, 37544.13
1143.107, 37637.46
1143.589, 37767.32
1144.071, 37914.36
1144.553, 38046.12
1145.035, 38167.58
1145.517, 38303.40
1145.999, 38439.79
1146.482, 38513.02
1146.964, 38539.95
1147.446, 38623.52
1147.928, 38799.62
1148.410, 39000.01
1148.892, 39189.65
1149.374, 39356.88
1149.856, 39486.20
1150.339, 39590.45
1150.821, 39645.35
1151.303, 39705.77
1151.785, 39872.70
1152.267, 40125.59
1152.749, 40331.36
1153.231, 40437.71
1153.713, 40574.79
1154.195, 40807.85
1154.677, 41028.31
1155.160, 41189.75
1155.642, 41344.84
1156.124, 41535.67
1156.606, 41732.11
1157.088, 41881.87
1157.570, 41991.66
1158.052, 42134.74
1158.534, 42299.44
1159.017, 42569.07
1159.499, 42973.14
1159.981, 43316.37
1160.463, 43535.11
1160.945, 43729.86
1161.427, 43977.24
1161.909, 44237.39
1162.391, 44435.79
1162.874, 44597.36
1163.356, 44803.65
1163.838, 45048.01
1164.320, 45326.45
1164.802, 45617.21
1165.284, 45838.32
1165.766, 45972.35
1166.248, 46110.58
1166.730, 46328.27
1167.213, 46533.06
1167.695, 46609.23
1168.177, 46679.70
1168.659, 46835.89
1169.141, 47064.91
1169.623, 47392.88
1170.105, 47764.85
1170.587, 48030.91
1171.069, 48150.21
1171.552, 48290.99
1172.034, 48475.56
1172.516, 48695.09
1172.998, 48995.40
1173.480, 49261.63
1173.962, 49424.32
1174.444, 49557.99
1174.926, 49733.80
1175.409, 49948.61
1175.891, 50203.39
1176.373, 50506.59
1176.855, 50710.84
1177.337, 50813.58
1177.819, 50973.89
1178.301, 51219.93
1178.783, 51450.72
1179.266, 51617.43
1179.748, 51751.80
1180.230, 51871.60
1180.712, 52004.84
1181.194, 52224.70
1181.676, 52470.32
1182.158, 52630.64
1182.640, 52730.95
1183.122, 52831.30
1183.604, 52943.29
1184.087, 53057.64
1184.569, 53171.57
1185.051, 53281.09
1185.533, 53374.66
1186.015, 53476.59
1186.497, 53587.18
1186.979, 53720.91
1187.461, 53928.99
1187.944, 54139.16
1188.426, 54231.20
1188.908, 54230.97
1189.390, 54297.66
1189.872, 54456.58
1190.354, 54599.75
1190.836, 54737.04
1191.318, 54805.36
1191.801, 54779.12
1192.283, 54762.42
1192.765, 54814.39
1193.247, 54905.26
1193.729, 55012.11
1194.211, 55108.49
1194.693, 55098.06
1195.175, 55037.06
1195.657, 55097.47
1196.140, 55239.09
1196.622, 55322.87
1197.104, 55325.56
1197.586, 55281.20
1198.068, 55193.59
1198.550, 55179.50
1199.032, 55405.20
1199.514, 55604.33
1199.996, 55600.06
1200.479, 55535.87
1200.961, 55529.74
1201.443, 55535.07
1201.925, 55456.08
1202.407, 55306.35
1202.889, 55218.36
1203.371, 55207.36
1203.853, 55216.43
1204.336, 55261.46
1204.818, 55271.15
1205.300, 55223.77
1205.782, 55168.31
1206.264, 55125.95
1206.746, 55124.99
1207.228, 55219.89
1207.710, 55340.03
1208.193, 55283.47
1208.675, 55115.29
1209.157, 55013.16
1209.639, 54971.80
1210.121, 54960.82
1210.603, 54961.71
1211.085, 54932.54
1211.567, 54855.69
1212.049, 54791.89
1212.531, 54805.83
1213.014, 54805.18
1213.496, 54717.68
1213.978, 54624.44
1214.460, 54593.43
1214.942, 54581.05
1215.424, 54518.07
1215.906, 54425.47
1216.388, 54392.13
1216.871, 54435.36
1217.353, 54428.45
1217.835, 54359.39
1218.317, 54289.82
1218.799, 54227.59
1219.281, 54169.00
1219.763, 54112.47
1220.245, 54056.67
1220.728, 54000.50
1221.210, 53942.53
1221.692, 53867.85
1222.174, 53797.61
1222.656, 53802.50
1223.138, 53833.06
1223.620, 53772.00
1224.102, 53642.75
1224.584, 53551.49
1225.067, 53523.88
1225.549, 53500.44
1226.031, 53455.09
1226.513, 53412.72
1226.995, 53363.46
1227.477, 53342.43
1227.959, 53407.82
1228.441, 53461.27
1228.923, 53419.89
1229.406, 53328.70
1229.888, 53258.46
1230.370, 53210.45
1230.852, 53219.21
1231.334, 53289.93
1231.816, 53265.36
1232.298, 53142.48
1232.780, 53077.88
1233.263, 53107.43
1233.745, 53152.88
1234.227, 53170.75
1234.709, 53165.57
1235.191, 53131.10
1235.673, 53088.88
1236.155, 53039.64
1236.637, 53016.12
1237.120, 53094.83
1237.602, 53201.83
##END=



