##NAMES=Feruvite
##RRUFFID=R061109
##IDEAL CHEMISTRY=CaFe^2+^_3_(Al_5_Mg)(Si_6_O_18_)(BO_3_)_3_(OH)_3_OH
##LOCALITY=Red Cross Lake, Manitoba, Canada
##OWNER=RRUFF
##SOURCE=Michael Scott
##DESCRIPTION=Green fragment
##STATUS=The identification of this mineral has been confirmed only by single crystal X-ray diffraction.
##URL=rruff.info/R061109
157.2414, 4790.475
157.7235, 4802.724
158.2056, 4820.272
158.6877, 4837.682
159.1699, 4850.967
159.6520, 4863.301
160.1341, 4880.411
160.6162, 4910.404
161.0983, 4941.630
161.5804, 4966.401
162.0626, 4976.029
162.5447, 4990.910
163.0268, 5024.083
163.5089, 5070.433
163.9910, 5112.960
164.4731, 5141.535
164.9553, 5164.040
165.4374, 5186.703
165.9195, 5203.324
166.4016, 5228.162
166.8837, 5277.940
167.3658, 5349.269
167.8480, 5412.172
168.3301, 5439.469
168.8122, 5450.021
169.2943, 5467.905
169.7764, 5512.865
170.2585, 5562.353
170.7407, 5597.771
171.2228, 5618.672
171.7049, 5632.155
172.1870, 5641.166
172.6691, 5646.720
173.1512, 5650.726
173.6334, 5653.660
174.1155, 5655.872
174.5976, 5657.210
175.0797, 5657.315
175.5618, 5658.531
176.0439, 5666.833
176.5260, 5679.312
177.0082, 5685.980
177.4903, 5672.633
177.9724, 5651.170
178.4545, 5642.708
178.9366, 5650.025
179.4187, 5670.306
179.9009, 5703.633
180.3830, 5748.857
180.8651, 5796.305
181.3472, 5843.567
181.8293, 5888.782
182.3114, 5924.578
182.7936, 5945.063
183.2757, 5960.572
183.7578, 5994.978
184.2399, 6047.609
184.7220, 6096.516
185.2041, 6112.502
185.6863, 6104.397
186.1684, 6113.917
186.6505, 6163.034
187.1326, 6233.437
187.6147, 6276.817
188.0968, 6291.825
188.5790, 6295.971
189.0611, 6309.598
189.5432, 6331.276
190.0253, 6344.370
190.5074, 6344.591
190.9895, 6331.976
191.4717, 6300.084
191.9538, 6243.094
192.4359, 6186.988
192.9180, 6171.873
193.4001, 6198.300
193.8822, 6223.192
194.3644, 6226.551
194.8465, 6209.559
195.3286, 6194.448
195.8107, 6181.549
196.2928, 6169.771
196.7749, 6155.562
197.2570, 6137.978
197.7392, 6125.439
198.2213, 6122.800
198.7034, 6130.239
199.1855, 6143.126
199.6676, 6164.013
200.1497, 6187.264
200.6319, 6197.854
201.1140, 6193.104
201.5961, 6188.435
202.0782, 6194.515
202.5603, 6213.029
203.0424, 6231.231
203.5246, 6251.322
204.0067, 6268.999
204.4888, 6266.137
204.9709, 6237.558
205.4530, 6203.655
205.9352, 6178.792
206.4173, 6164.439
206.8994, 6152.162
207.3815, 6141.563
207.8636, 6132.163
208.3457, 6120.967
208.8279, 6105.732
209.3100, 6092.922
209.7921, 6090.465
210.2742, 6103.150
210.7563, 6109.269
211.2384, 6106.143
211.7206, 6093.491
212.2027, 6064.106
212.6848, 6010.577
213.1669, 5950.900
213.6490, 5903.614
214.1311, 5869.555
214.6133, 5844.810
215.0954, 5831.218
215.5775, 5829.738
216.0596, 5822.625
216.5417, 5809.542
217.0238, 5791.231
217.5059, 5767.432
217.9881, 5735.228
218.4702, 5703.972
218.9523, 5673.721
219.4344, 5642.783
219.9165, 5627.762
220.3986, 5634.910
220.8808, 5652.755
221.3629, 5663.656
221.8450, 5663.939
222.3271, 5664.488
222.8092, 5668.485
223.2913, 5675.858
223.7735, 5687.570
224.2556, 5706.300
224.7377, 5727.794
225.2198, 5743.668
225.7019, 5753.160
226.1840, 5758.252
226.6662, 5756.823
227.1483, 5739.365
227.6304, 5742.496
228.1125, 5776.743
228.5946, 5827.261
229.0767, 5860.411
229.5589, 5869.179
230.0410, 5870.670
230.5231, 5848.636
231.0052, 5873.725
231.4873, 5886.288
231.9694, 5886.999
232.4516, 5840.358
232.9337, 5854.862
233.4158, 5844.863
233.8979, 5833.858
234.3800, 5856.968
234.8621, 5817.215
235.3443, 5839.784
235.8264, 5837.475
236.3085, 5846.552
236.7906, 5830.974
237.2727, 5823.011
237.7548, 5839.711
238.2369, 5842.755
238.7191, 5824.339
239.2012, 5834.140
239.6833, 5794.816
240.1654, 5766.174
240.6475, 5756.068
241.1296, 5775.104
241.6118, 5798.883
242.0939, 5811.285
242.5760, 5803.252
243.0581, 5802.050
243.5402, 5813.572
244.0223, 5834.949
244.5045, 5847.820
244.9866, 5848.706
245.4687, 5845.632
245.9508, 5844.277
246.4329, 5846.741
246.9150, 5848.053
247.3972, 5852.046
247.8793, 5856.819
248.3614, 5840.592
248.8435, 5789.071
249.3256, 5733.986
249.8077, 5701.271
250.2899, 5704.428
250.7720, 5700.002
251.2541, 5677.792
251.7362, 5640.106
252.2183, 5615.744
252.7004, 5609.480
253.1826, 5610.368
253.6647, 5610.251
254.1468, 5609.164
254.6289, 5606.531
255.1110, 5602.619
255.5931, 5597.195
256.0753, 5587.566
256.5574, 5571.309
257.0395, 5554.014
257.5216, 5539.660
258.0037, 5525.838
258.4858, 5522.191
258.9680, 5537.979
259.4501, 5571.527
259.9322, 5571.795
260.4143, 5517.589
260.8964, 5460.813
261.3785, 5454.233
261.8607, 5520.412
262.3428, 5575.858
262.8249, 5605.065
263.3070, 5608.786
263.7891, 5606.585
264.2712, 5597.197
264.7534, 5583.868
265.2355, 5569.824
265.7176, 5555.354
266.1997, 5538.115
266.6818, 5514.799
267.1639, 5486.383
267.6461, 5468.155
268.1282, 5460.090
268.6103, 5462.118
269.0924, 5476.613
269.5745, 5507.038
270.0566, 5536.355
270.5387, 5562.367
271.0208, 5584.667
271.5030, 5598.371
271.9851, 5599.877
272.4672, 5600.274
272.9493, 5613.308
273.4314, 5642.608
273.9135, 5664.503
274.3957, 5674.138
274.8778, 5671.711
275.3599, 5656.698
275.8420, 5625.680
276.3241, 5591.097
276.8062, 5566.585
277.2884, 5553.708
277.7705, 5537.814
278.2526, 5514.388
278.7347, 5485.100
279.2168, 5457.460
279.6989, 5429.363
280.1811, 5409.506
280.6632, 5414.758
281.1453, 5447.144
281.6274, 5458.066
282.1095, 5425.331
282.5916, 5363.061
283.0738, 5338.181
283.5559, 5356.112
284.0380, 5384.591
284.5201, 5391.762
285.0022, 5378.417
285.4843, 5365.953
285.9665, 5357.448
286.4486, 5354.086
286.9307, 5362.167
287.4128, 5382.455
287.8949, 5405.994
288.3770, 5426.313
288.8592, 5443.271
289.3413, 5455.715
289.8234, 5465.154
290.3055, 5468.799
290.7876, 5453.633
291.2697, 5418.863
291.7519, 5387.675
292.2340, 5386.104
292.7161, 5407.613
293.1982, 5422.199
293.6803, 5421.450
294.1624, 5411.362
294.6446, 5401.971
295.1267, 5393.316
295.6088, 5386.589
296.0909, 5381.103
296.5730, 5378.218
297.0551, 5383.035
297.5373, 5402.280
298.0194, 5422.955
298.5015, 5422.805
298.9836, 5403.625
299.4657, 5381.698
299.9478, 5367.166
300.4300, 5358.877
300.9121, 5355.366
301.3942, 5357.225
301.8763, 5362.354
302.3584, 5370.762
302.8405, 5381.393
303.3227, 5388.494
303.8048, 5382.822
304.2869, 5372.833
304.7690, 5371.372
305.2511, 5384.479
305.7332, 5400.498
306.2154, 5408.325
306.6975, 5409.880
307.1796, 5412.182
307.6617, 5422.008
308.1438, 5433.562
308.6259, 5439.828
309.1081, 5436.241
309.5901, 5434.769
310.0723, 5451.447
310.5544, 5478.011
311.0365, 5492.773
311.5186, 5470.899
312.0007, 5440.730
312.4828, 5425.510
312.9650, 5430.849
313.4471, 5444.919
313.9292, 5473.781
314.4113, 5506.584
314.8934, 5521.555
315.3755, 5488.653
315.8577, 5449.714
316.3398, 5432.724
316.8219, 5447.670
317.3040, 5459.707
317.7861, 5449.128
318.2682, 5428.339
318.7504, 5416.851
319.2325, 5423.689
319.7146, 5438.445
320.1967, 5459.496
320.6788, 5489.698
321.1609, 5491.596
321.6431, 5537.718
322.1252, 5571.312
322.6073, 5593.053
323.0894, 5567.443
323.5715, 5602.979
324.0536, 5614.008
324.5358, 5624.038
325.0179, 5668.179
325.5000, 5649.456
325.9821, 5693.055
326.4642, 5711.777
326.9464, 5741.888
327.4285, 5747.340
327.9106, 5760.408
328.3927, 5798.138
328.8748, 5822.211
329.3569, 5824.827
329.8391, 5855.662
330.3212, 5836.078
330.8033, 5860.734
331.2854, 5904.477
331.7675, 5908.331
332.2496, 5939.613
332.7318, 5960.453
333.2139, 5933.815
333.6960, 5989.739
334.1781, 6009.957
334.6602, 5993.514
335.1423, 6037.261
335.6245, 6065.826
336.1066, 6088.735
336.5887, 6107.567
337.0708, 6122.319
337.5529, 6133.467
338.0350, 6137.879
338.5172, 6131.560
338.9993, 6140.594
339.4814, 6171.792
339.9635, 6215.984
340.4456, 6248.739
340.9277, 6267.955
341.4099, 6288.075
341.8920, 6317.419
342.3741, 6355.776
342.8562, 6398.229
343.3383, 6445.871
343.8204, 6474.132
344.3026, 6530.814
344.7847, 6574.963
345.2668, 6607.262
345.7489, 6592.208
346.2310, 6638.299
346.7131, 6659.887
347.1953, 6680.476
347.6774, 6735.172
348.1595, 6727.006
348.6416, 6781.163
349.1237, 6810.440
349.6058, 6851.105
350.0880, 6867.122
350.5700, 6842.158
351.0522, 6831.980
351.5343, 6814.337
352.0164, 6769.605
352.4985, 6708.095
352.9806, 6652.034
353.4627, 6622.657
353.9449, 6593.207
354.4270, 6529.355
354.9091, 6434.591
355.3912, 6337.755
355.8733, 6261.535
356.3554, 6194.961
356.8376, 6122.091
357.3197, 6023.984
357.8018, 5936.134
358.2839, 5886.685
358.7660, 5868.822
359.2481, 5855.888
359.7303, 5838.787
360.2124, 5819.228
360.6945, 5798.165
361.1766, 5776.430
361.6587, 5751.984
362.1408, 5716.558
362.6230, 5677.754
363.1051, 5652.774
363.5872, 5660.103
364.0693, 5671.765
364.5514, 5675.168
365.0335, 5667.185
365.5157, 5656.027
365.9978, 5636.458
366.4799, 5615.951
366.9620, 5605.487
367.4441, 5617.815
367.9262, 5629.205
368.4084, 5634.095
368.8905, 5632.003
369.3726, 5626.625
369.8547, 5617.317
370.3368, 5605.328
370.8189, 5591.322
371.3011, 5570.640
371.7832, 5555.465
372.2653, 5547.396
372.7474, 5546.459
373.2295, 5553.417
373.7116, 5573.251
374.1938, 5593.389
374.6759, 5602.166
375.1580, 5594.177
375.6401, 5594.782
376.1222, 5607.369
376.6043, 5630.363
377.0865, 5662.437
377.5686, 5705.825
378.0507, 5747.434
378.5328, 5778.984
379.0149, 5800.709
379.4970, 5816.020
379.9792, 5821.845
380.4613, 5827.646
380.9434, 5850.106
381.4255, 5888.899
381.9076, 5933.539
382.3897, 5986.086
382.8719, 6040.924
383.3540, 6076.911
383.8361, 6092.354
384.3182, 6098.845
384.8003, 6105.282
385.2824, 6112.539
385.7646, 6123.301
386.2467, 6144.766
386.7288, 6166.898
387.2109, 6176.298
387.6930, 6173.465
388.1751, 6165.436
388.6573, 6153.013
389.1394, 6139.868
389.6215, 6131.362
390.1036, 6133.271
390.5857, 6134.918
391.0678, 6130.159
391.5499, 6119.477
392.0320, 6104.604
392.5142, 6086.311
392.9963, 6064.373
393.4784, 6038.703
393.9605, 6010.306
394.4426, 5976.093
394.9247, 5926.667
395.4069, 5871.672
395.8890, 5828.429
396.3711, 5810.820
396.8532, 5797.261
397.3353, 5781.189
397.8174, 5762.208
398.2996, 5741.106
398.7817, 5718.297
399.2638, 5693.428
399.7459, 5665.635
400.2280, 5623.249
400.7101, 5593.824
401.1923, 5586.115
401.6744, 5598.781
402.1565, 5603.254
402.6386, 5595.676
403.1207, 5585.171
403.6028, 5579.840
404.0850, 5584.524
404.5671, 5576.354
405.0492, 5547.051
405.5313, 5507.292
406.0134, 5488.005
406.4955, 5492.106
406.9777, 5503.268
407.4598, 5513.992
407.9419, 5524.280
408.4240, 5534.815
408.9061, 5545.677
409.3882, 5556.138
409.8704, 5563.029
410.3525, 5567.234
410.8346, 5576.216
411.3167, 5594.829
411.7988, 5620.052
412.2809, 5643.888
412.7631, 5666.547
413.2452, 5691.889
413.7273, 5725.712
414.2094, 5764.158
414.6915, 5799.690
415.1736, 5827.209
415.6558, 5854.694
416.1379, 5889.744
416.6200, 5931.239
417.1021, 5972.668
417.5842, 6004.488
418.0663, 6038.871
418.5485, 6087.346
419.0306, 6157.910
419.5127, 6227.392
419.9948, 6288.204
420.4769, 6341.048
420.9590, 6388.662
421.4412, 6422.103
421.9233, 6459.217
422.4054, 6510.028
422.8875, 6577.513
423.3696, 6637.270
423.8517, 6686.046
424.3339, 6724.881
424.8160, 6755.782
425.2981, 6773.210
425.7802, 6789.790
426.2623, 6809.270
426.7444, 6829.910
427.2266, 6840.796
427.7087, 6838.088
428.1908, 6831.977
428.6729, 6827.086
429.1550, 6822.734
429.6371, 6823.111
430.1193, 6828.399
430.6014, 6838.827
431.0835, 6856.161
431.5656, 6881.280
432.0477, 6906.848
432.5298, 6932.093
433.0119, 6955.939
433.4940, 6967.566
433.9762, 6964.838
434.4583, 6965.590
434.9404, 6996.376
435.4225, 7047.853
435.9046, 7083.464
436.3867, 7081.309
436.8689, 7071.542
437.3510, 7098.257
437.8331, 7156.448
438.3152, 7219.486
438.7973, 7274.244
439.2794, 7322.524
439.7616, 7364.823
440.2437, 7398.255
440.7258, 7433.830
441.2079, 7479.590
441.6900, 7531.788
442.1721, 7584.167
442.6543, 7629.175
443.1364, 7678.185
443.6185, 7740.271
444.1006, 7816.444
444.5827, 7885.718
445.0648, 7932.619
445.5470, 7977.430
446.0291, 8035.557
446.5112, 8135.857
446.9933, 8216.842
447.4754, 8252.112
447.9576, 8261.642
448.4397, 8325.528
448.9218, 8484.321
449.4039, 8640.603
449.8860, 8748.915
450.3681, 8791.688
450.8503, 8854.555
451.3324, 8941.524
451.8145, 9043.869
452.2966, 9151.474
452.7787, 9265.971
453.2608, 9378.792
453.7430, 9486.340
454.2251, 9590.630
454.7072, 9705.395
455.1893, 9831.587
455.6714, 9960.563
456.1535, 10087.23
456.6357, 10210.75
457.1178, 10329.86
457.5999, 10440.40
458.0820, 10552.97
458.5641, 10683.33
459.0462, 10826.89
459.5284, 10965.82
460.0105, 11093.66
460.4926, 11210.03
460.9747, 11315.04
461.4568, 11410.29
461.9389, 11483.31
462.4211, 11547.76
462.9032, 11578.59
463.3853, 11548.26
463.8674, 11442.07
464.3495, 11280.35
464.8316, 11055.60
465.3138, 10776.66
465.7959, 10476.92
466.2780, 10140.28
466.7601, 9803.600
467.2422, 9480.863
467.7243, 9157.020
468.2065, 8873.909
468.6886, 8642.188
469.1707, 8443.340
469.6528, 8250.245
470.1349, 8064.041
470.6170, 7883.181
471.0992, 7702.145
471.5813, 7523.782
472.0634, 7383.087
472.5455, 7284.971
473.0276, 7201.893
473.5097, 7112.357
473.9918, 7016.751
474.4739, 6929.927
474.9561, 6852.651
475.4382, 6786.801
475.9203, 6742.652
476.4024, 6715.767
476.8845, 6686.044
477.3666, 6634.816
477.8488, 6578.186
478.3309, 6543.245
478.8130, 6530.614
479.2951, 6515.754
479.7772, 6473.711
480.2593, 6422.163
480.7415, 6382.075
481.2236, 6365.445
481.7057, 6353.279
482.1878, 6339.666
482.6699, 6324.048
483.1520, 6305.062
483.6342, 6276.096
484.1163, 6249.171
484.5984, 6229.829
485.0805, 6220.353
485.5626, 6212.224
486.0447, 6207.192
486.5269, 6202.083
487.0090, 6193.560
487.4911, 6179.514
487.9732, 6165.992
488.4553, 6151.946
488.9374, 6139.120
489.4196, 6137.158
489.9017, 6150.054
490.3838, 6160.775
490.8659, 6156.560
491.3480, 6137.895
491.8301, 6126.712
492.3123, 6123.873
492.7944, 6127.743
493.2765, 6139.977
493.7586, 6158.261
494.2407, 6172.803
494.7228, 6180.102
495.2050, 6181.573
495.6871, 6174.057
496.1692, 6159.875
496.6513, 6153.787
497.1334, 6170.461
497.6155, 6197.328
498.0977, 6223.152
498.5798, 6246.509
499.0619, 6266.717
499.5440, 6281.727
500.0261, 6293.378
500.5082, 6304.365
500.9904, 6304.423
501.4725, 6314.530
501.9546, 6345.263
502.4367, 6396.570
502.9188, 6442.388
503.4009, 6489.423
503.8831, 6523.558
504.3652, 6534.554
504.8473, 6508.601
505.3294, 6493.264
505.8115, 6491.407
506.2936, 6498.972
506.7758, 6510.524
507.2579, 6527.132
507.7400, 6542.423
508.2221, 6556.380
508.7042, 6567.390
509.1863, 6566.192
509.6685, 6552.452
510.1506, 6535.626
510.6327, 6524.562
511.1148, 6516.256
511.5969, 6502.326
512.0790, 6479.412
512.5612, 6456.295
513.0433, 6446.561
513.5254, 6443.010
514.0075, 6430.315
514.4896, 6391.167
514.9717, 6348.910
515.4539, 6319.609
515.9360, 6303.011
516.4181, 6282.462
516.9002, 6245.195
517.3823, 6206.731
517.8644, 6177.115
518.3466, 6160.090
518.8287, 6148.815
519.3108, 6147.014
519.7929, 6149.557
520.2750, 6147.241
520.7571, 6137.104
521.2393, 6127.671
521.7214, 6123.501
522.2035, 6123.342
522.6856, 6106.429
523.1677, 6067.100
523.6498, 6029.875
524.1320, 6018.632
524.6141, 6030.165
525.0962, 6030.744
525.5783, 6015.283
526.0604, 5991.407
526.5425, 5963.213
527.0247, 5934.587
527.5068, 5916.684
527.9889, 5923.259
528.4710, 5938.067
528.9531, 5950.387
529.4352, 5958.874
529.9174, 5951.670
530.3995, 5902.583
530.8816, 5847.143
531.3637, 5812.321
531.8458, 5806.518
532.3279, 5814.913
532.8101, 5853.779
533.2922, 5899.775
533.7743, 5916.590
534.2564, 5862.250
534.7385, 5824.685
535.2206, 5825.570
535.7027, 5859.974
536.1848, 5874.449
536.6669, 5858.323
537.1490, 5843.069
537.6312, 5851.292
538.1133, 5886.015
538.5954, 5906.400
539.0775, 5908.266
539.5596, 5903.060
540.0417, 5908.164
540.5239, 5921.225
541.0060, 5926.649
541.4881, 5911.646
541.9702, 5893.690
542.4523, 5901.387
542.9344, 5930.745
543.4166, 5961.500
543.8987, 5985.215
544.3808, 6002.222
544.8629, 6008.260
545.3450, 5998.977
545.8271, 5999.999
546.3093, 6042.156
546.7914, 6091.089
547.2735, 6112.161
547.7556, 6057.623
548.2377, 6021.860
548.7198, 6024.476
549.2020, 6056.627
549.6841, 6090.919
550.1662, 6131.355
550.6483, 6167.525
551.1304, 6195.157
551.6125, 6214.009
552.0947, 6230.149
552.5768, 6240.775
553.0589, 6258.092
553.5410, 6302.878
554.0231, 6370.468
554.5052, 6418.392
554.9874, 6433.294
555.4695, 6436.973
555.9516, 6455.435
556.4337, 6487.805
556.9158, 6530.446
557.3979, 6589.916
557.8801, 6653.686
558.3622, 6708.328
558.8443, 6754.504
559.3264, 6804.050
559.8085, 6863.775
560.2906, 6927.521
560.7728, 6989.909
561.2549, 7043.482
561.7370, 7108.251
562.2191, 7199.791
562.7012, 7299.188
563.1833, 7378.651
563.6655, 7418.071
564.1476, 7474.225
564.6297, 7570.606
565.1118, 7693.778
565.5939, 7768.301
566.0760, 7785.659
566.5582, 7791.359
567.0403, 7822.667
567.5224, 7870.375
568.0045, 7880.317
568.4866, 7849.854
568.9688, 7785.415
569.4509, 7677.698
569.9330, 7543.120
570.4151, 7409.880
570.8972, 7283.619
571.3793, 7167.853
571.8615, 7074.226
572.3436, 6994.480
572.8257, 6910.159
573.3078, 6794.630
573.7899, 6689.090
574.2720, 6617.210
574.7542, 6581.177
575.2363, 6552.164
575.7184, 6526.454
576.2005, 6507.371
576.6826, 6498.812
577.1647, 6508.649
577.6469, 6507.539
578.1290, 6488.026
578.6111, 6465.000
579.0932, 6464.652
579.5753, 6488.556
580.0574, 6512.905
580.5396, 6529.765
581.0217, 6542.448
581.5038, 6555.597
581.9859, 6569.842
582.4680, 6592.556
582.9501, 6635.228
583.4323, 6686.158
583.9144, 6730.357
584.3965, 6766.149
584.8786, 6798.485
585.3607, 6817.702
585.8428, 6840.828
586.3250, 6885.530
586.8071, 6990.835
587.2892, 7076.272
587.7713, 7110.512
588.2534, 7115.872
588.7355, 7146.709
589.2177, 7220.556
589.6998, 7292.534
590.1819, 7347.073
590.6640, 7386.357
591.1461, 7448.940
591.6282, 7540.834
592.1104, 7632.172
592.5925, 7697.772
593.0746, 7741.629
593.5567, 7793.339
594.0388, 7856.735
594.5209, 7916.942
595.0031, 7946.333
595.4852, 7960.870
595.9673, 7996.750
596.4494, 8091.177
596.9315, 8179.788
597.4136, 8205.776
597.8958, 8188.530
598.3779, 8180.628
598.8600, 8206.536
599.3421, 8240.286
599.8242, 8274.540
600.3063, 8310.181
600.7885, 8333.712
601.2706, 8325.076
601.7527, 8303.919
602.2348, 8270.905
602.7169, 8190.541
603.1990, 8171.324
603.6812, 8127.590
604.1633, 8082.861
604.6454, 8072.251
605.1275, 7998.774
605.6096, 7987.618
606.0917, 7951.589
606.5739, 7926.932
607.0560, 7877.630
607.5381, 7765.521
608.0202, 7686.218
608.5023, 7598.016
608.9844, 7517.328
609.4666, 7462.753
609.9487, 7435.312
610.4308, 7403.807
610.9129, 7350.093
611.3950, 7292.560
611.8771, 7245.361
612.3593, 7224.965
612.8414, 7188.010
613.3235, 7124.776
613.8056, 7052.822
614.2877, 7000.631
614.7698, 6975.885
615.2520, 6939.785
615.7341, 6879.923
616.2162, 6807.007
616.6983, 6749.176
617.1804, 6706.076
617.6625, 6669.653
618.1446, 6639.942
618.6267, 6612.341
619.1088, 6576.689
619.5909, 6533.185
620.0731, 6492.645
620.5552, 6461.859
621.0373, 6437.850
621.5194, 6420.176
622.0015, 6414.969
622.4836, 6399.610
622.9658, 6350.886
623.4479, 6294.898
623.9300, 6266.500
624.4121, 6293.279
624.8942, 6302.362
625.3763, 6275.624
625.8585, 6228.213
626.3406, 6208.769
626.8227, 6222.633
627.3048, 6234.720
627.7869, 6228.866
628.2690, 6209.381
628.7512, 6192.637
629.2333, 6178.677
629.7154, 6161.957
630.1975, 6135.983
630.6796, 6105.865
631.1617, 6076.669
631.6439, 6047.521
632.1260, 6028.558
632.6081, 6039.589
633.0902, 6058.268
633.5723, 6060.430
634.0544, 6024.083
634.5366, 5990.182
635.0187, 5958.916
635.5008, 5934.033
635.9829, 5925.634
636.4650, 5940.784
636.9471, 5956.011
637.4293, 5965.610
637.9114, 5969.165
638.3935, 5963.850
638.8756, 5948.587
639.3577, 5934.190
639.8398, 5924.598
640.3220, 5921.450
640.8041, 5931.880
641.2862, 5956.771
641.7683, 5980.614
642.2504, 5985.816
642.7325, 5985.380
643.2147, 5994.336
643.6968, 6021.438
644.1789, 6048.336
644.6610, 6071.674
645.1431, 6091.013
645.6252, 6106.072
646.1074, 6118.717
646.5895, 6123.625
647.0716, 6113.202
647.5537, 6095.725
648.0358, 6105.685
648.5179, 6148.844
649.0001, 6187.132
649.4822, 6197.662
649.9643, 6189.283
650.4464, 6195.933
650.9285, 6217.235
651.4106, 6241.289
651.8928, 6259.689
652.3749, 6274.746
652.8570, 6286.019
653.3391, 6290.854
653.8212, 6308.112
654.3033, 6364.078
654.7855, 6429.415
655.2676, 6474.790
655.7497, 6472.559
656.2318, 6477.548
656.7139, 6492.101
657.1960, 6515.847
657.6782, 6549.248
658.1603, 6595.452
658.6424, 6639.949
659.1245, 6674.488
659.6066, 6707.533
660.0887, 6772.628
660.5709, 6867.333
661.0530, 6953.884
661.5351, 7000.385
662.0172, 7028.027
662.4993, 7065.949
662.9814, 7115.271
663.4636, 7173.503
663.9457, 7242.741
664.4278, 7318.254
664.9099, 7398.748
665.3920, 7489.774
665.8741, 7568.562
666.3563, 7625.648
666.8384, 7671.285
667.3205, 7713.032
667.8026, 7752.483
668.2847, 7783.215
668.7668, 7800.842
669.2490, 7814.688
669.7311, 7845.686
670.2132, 7892.637
670.6953, 7933.613
671.1774, 7965.965
671.6595, 7983.425
672.1417, 7967.279
672.6238, 7925.753
673.1059, 7888.859
673.5880, 7883.357
674.0701, 7879.611
674.5522, 7860.965
675.0344, 7826.377
675.5165, 7774.907
675.9986, 7692.497
676.4807, 7604.896
676.9628, 7525.671
677.4449, 7459.672
677.9271, 7382.009
678.4092, 7285.774
678.8913, 7192.063
679.3734, 7128.950
679.8555, 7094.139
680.3376, 7045.735
680.8198, 6976.917
681.3019, 6898.567
681.7840, 6814.796
682.2661, 6732.622
682.7482, 6671.372
683.2303, 6645.544
683.7125, 6630.874
684.1946, 6613.409
684.6767, 6595.985
685.1588, 6585.389
685.6409, 6605.169
686.1230, 6607.182
686.6052, 6570.229
687.0873, 6500.916
687.5694, 6451.731
688.0515, 6424.557
688.5336, 6411.664
689.0157, 6416.412
689.4979, 6434.841
689.9800, 6433.917
690.4621, 6412.923
690.9442, 6386.074
691.4263, 6357.914
691.9084, 6333.559
692.3906, 6323.233
692.8727, 6330.744
693.3548, 6336.971
693.8369, 6327.245
694.3190, 6312.834
694.8011, 6304.722
695.2833, 6306.769
695.7654, 6313.478
696.2475, 6334.523
696.7296, 6353.840
697.2117, 6344.500
697.6938, 6298.226
698.1760, 6255.385
698.6581, 6224.111
699.1402, 6202.071
699.6223, 6184.030
700.1044, 6170.600
700.5865, 6165.527
701.0686, 6179.960
701.5507, 6197.687
702.0328, 6201.263
702.5150, 6192.348
702.9971, 6178.235
703.4792, 6160.257
703.9613, 6139.735
704.4434, 6115.666
704.9255, 6087.183
705.4077, 6064.329
705.8898, 6046.593
706.3719, 6035.601
706.8540, 6035.932
707.3361, 6049.773
707.8182, 6050.093
708.3004, 6035.283
708.7825, 5965.072
709.2646, 5990.710
709.7467, 6003.823
710.2288, 6005.084
710.7109, 5958.994
711.1931, 5974.047
711.6752, 5964.597
712.1573, 5954.142
712.6394, 5977.801
713.1215, 5938.597
713.6036, 5961.715
714.0858, 5959.955
714.5679, 5987.189
715.0500, 5993.905
715.5321, 6005.099
716.0142, 6006.890
716.4963, 5992.786
716.9785, 5969.860
717.4606, 5960.080
717.9427, 5962.599
718.4248, 5963.723
718.9069, 5952.878
719.3890, 5938.853
719.8712, 5933.741
720.3533, 5936.437
720.8354, 5940.816
721.3175, 5943.021
721.7996, 5946.380
722.2817, 5954.800
722.7639, 5969.546
723.2460, 5976.057
723.7281, 5966.336
724.2102, 5957.198
724.6923, 5958.116
725.1744, 5970.126
725.6566, 5985.541
726.1387, 6006.097
726.6208, 6022.964
727.1029, 6025.261
727.5850, 6017.383
728.0671, 6010.385
728.5493, 6006.077
729.0314, 6002.571
729.5135, 5997.062
729.9956, 5991.980
730.4777, 5990.118
730.9598, 5993.693
731.4420, 5998.299
731.9241, 6004.234
732.4062, 6010.178
732.8883, 6014.115
733.3704, 6015.166
733.8525, 6016.205
734.3347, 6016.513
734.8168, 6018.521
735.2989, 6029.184
735.7810, 6047.423
736.2631, 6065.038
736.7452, 6079.834
737.2274, 6091.119
737.7095, 6097.460
738.1916, 6099.559
738.6737, 6099.413
739.1558, 6091.328
739.6379, 6087.571
740.1201, 6096.247
740.6022, 6116.435
741.0843, 6130.440
741.5664, 6131.452
742.0485, 6138.696
742.5306, 6165.476
743.0128, 6208.854
743.4949, 6227.370
743.9770, 6219.976
744.4591, 6211.633
744.9412, 6227.556
745.4233, 6252.485
745.9055, 6257.690
746.3876, 6241.062
746.8697, 6227.194
747.3518, 6232.775
747.8339, 6245.400
748.3160, 6258.187
748.7982, 6277.404
749.2803, 6274.484
749.7624, 6234.501
750.2445, 6187.644
750.7266, 6158.431
751.2087, 6148.118
751.6909, 6144.796
752.1730, 6148.652
752.6551, 6154.977
753.1372, 6160.146
753.6193, 6163.361
754.1014, 6163.306
754.5836, 6161.315
755.0657, 6151.972
755.5478, 6119.758
756.0299, 6081.843
756.5120, 6061.412
756.9941, 6085.363
757.4763, 6098.659
757.9584, 6087.155
758.4405, 6066.316
758.9226, 6067.267
759.4047, 6096.270
759.8868, 6113.153
760.3690, 6105.085
760.8511, 6084.703
761.3332, 6076.966
761.8153, 6078.732
762.2974, 6078.158
762.7795, 6060.007
763.2617, 6045.766
763.7438, 6057.789
764.2259, 6087.946
764.7080, 6110.696
765.1901, 6118.215
765.6722, 6118.382
766.1544, 6110.668
766.6365, 6097.032
767.1186, 6091.167
767.6007, 6095.459
768.0828, 6096.911
768.5649, 6086.834
769.0471, 6069.689
769.5292, 6057.384
770.0113, 6050.192
770.4934, 6051.106
770.9755, 6071.759
771.4576, 6094.216
771.9398, 6101.864
772.4219, 6094.044
772.9040, 6087.227
773.3861, 6089.002
773.8682, 6089.751
774.3503, 6084.783
774.8325, 6073.512
775.3146, 6062.227
775.7967, 6049.685
776.2788, 6041.629
776.7609, 6045.718
777.2430, 6058.094
777.7252, 6062.465
778.2073, 6057.550
778.6894, 6057.842
779.1715, 6082.600
779.6536, 6113.150
780.1357, 6132.226
780.6179, 6136.333
781.1000, 6132.582
781.5821, 6115.998
782.0642, 6097.019
782.5463, 6081.712
783.0284, 6069.457
783.5105, 6063.634
783.9926, 6063.529
784.4747, 6072.006
784.9568, 6098.666
785.4390, 6136.834
785.9211, 6166.479
786.4032, 6185.159
786.8853, 6189.748
787.3674, 6163.199
787.8495, 6127.462
788.3317, 6108.463
788.8138, 6125.688
789.2959, 6136.031
789.7780, 6127.111
790.2601, 6114.775
790.7422, 6118.649
791.2244, 6142.917
791.7065, 6160.574
792.1886, 6168.234
792.6707, 6169.307
793.1528, 6165.756
793.6349, 6159.551
794.1171, 6156.815
794.5992, 6162.038
795.0813, 6165.042
795.5634, 6150.625
796.0455, 6131.909
796.5276, 6128.552
797.0098, 6170.615
797.4919, 6192.156
797.9740, 6176.356
798.4561, 6144.757
798.9382, 6138.233
799.4203, 6158.941
799.9025, 6174.007
800.3846, 6174.206
800.8667, 6168.626
801.3488, 6171.891
801.8309, 6180.679
802.3130, 6187.123
802.7952, 6187.723
803.2773, 6185.858
803.7594, 6140.606
804.2415, 6164.519
804.7236, 6175.906
805.2057, 6175.441
805.6879, 6127.625
806.1700, 6140.954
806.6521, 6129.778
807.1342, 6117.598
807.6163, 6139.532
808.0984, 6098.604
808.5806, 6119.995
809.0627, 6116.511
809.5448, 6124.412
810.0269, 6107.658
810.5090, 6111.992
810.9911, 6107.676
811.4733, 6107.793
811.9554, 6122.539
812.4375, 6144.808
812.9196, 6151.950
813.4017, 6138.271
813.8839, 6124.844
814.3660, 6115.922
814.8481, 6112.047
815.3302, 6118.061
815.8123, 6132.087
816.2944, 6141.725
816.7766, 6135.723
817.2587, 6128.013
817.7408, 6124.733
818.2229, 6129.210
818.7050, 6150.763
819.1871, 6215.577
819.6693, 6270.720
820.1514, 6299.766
820.6335, 6309.934
821.1156, 6326.617
821.5977, 6352.352
822.0798, 6367.965
822.5620, 6361.332
823.0441, 6345.722
823.5262, 6350.399
824.0083, 6370.252
824.4904, 6386.313
824.9725, 6382.048
825.4547, 6378.517
825.9368, 6389.969
826.4189, 6412.624
826.9010, 6431.071
827.3831, 6442.660
827.8652, 6451.915
828.3474, 6459.891
828.8295, 6466.026
829.3116, 6466.729
829.7937, 6462.180
830.2758, 6460.992
830.7579, 6470.064
831.2401, 6481.346
831.7222, 6479.080
832.2043, 6469.765
832.6864, 6472.348
833.1685, 6503.122
833.6506, 6537.666
834.1328, 6576.076
834.6149, 6611.706
835.0970, 6621.330
835.5791, 6596.474
836.0612, 6573.037
836.5433, 6559.866
837.0255, 6557.132
837.5076, 6571.522
837.9897, 6598.648
838.4718, 6618.954
838.9539, 6620.043
839.4360, 6613.875
839.9182, 6603.523
840.4003, 6592.311
840.8824, 6589.253
841.3645, 6607.015
841.8466, 6618.213
842.3287, 6613.458
842.8109, 6601.359
843.2930, 6610.969
843.7751, 6642.250
844.2572, 6658.958
844.7393, 6639.460
845.2214, 6610.899
845.7036, 6608.358
846.1857, 6625.903
846.6678, 6649.688
847.1499, 6682.731
847.6320, 6711.235
848.1141, 6731.409
848.5963, 6743.525
849.0784, 6746.933
849.5605, 6738.099
850.0426, 6731.253
850.5247, 6728.178
851.0068, 6730.652
851.4890, 6745.048
851.9711, 6768.544
852.4532, 6789.981
852.9353, 6800.510
853.4174, 6815.788
853.8995, 6857.782
854.3817, 6909.413
854.8638, 6940.484
855.3459, 6934.512
855.8280, 6922.795
856.3101, 6896.444
856.7922, 6877.336
857.2744, 6915.219
857.7565, 7006.224
858.2386, 7072.297
858.7207, 7089.790
859.2028, 7090.928
859.6849, 7105.186
860.1671, 7129.262
860.6492, 7159.375
861.1313, 7207.441
861.6134, 7240.363
862.0955, 7234.413
862.5776, 7217.949
863.0598, 7219.145
863.5419, 7239.758
864.0240, 7271.742
864.5061, 7317.641
864.9882, 7364.590
865.4703, 7398.926
865.9524, 7422.542
866.4345, 7437.011
866.9166, 7438.535
867.3987, 7448.071
867.8809, 7488.403
868.3630, 7536.082
868.8451, 7566.541
869.3272, 7567.092
869.8093, 7581.525
870.2914, 7613.900
870.7736, 7651.147
871.2557, 7684.217
871.7378, 7711.337
872.2199, 7718.725
872.7020, 7703.504
873.1841, 7694.204
873.6663, 7718.562
874.1484, 7756.366
874.6305, 7788.945
875.1126, 7811.800
875.5947, 7839.559
876.0768, 7871.842
876.5590, 7911.002
877.0411, 7964.854
877.5232, 8033.500
878.0053, 8068.741
878.4874, 8069.894
878.9695, 8072.251
879.4517, 8111.858
879.9338, 8162.318
880.4159, 8184.303
880.8980, 8178.479
881.3801, 8196.204
881.8622, 8285.467
882.3444, 8370.474
882.8265, 8417.057
883.3086, 8428.833
883.7907, 8454.565
884.2728, 8495.911
884.7549, 8538.631
885.2371, 8577.690
885.7192, 8611.550
886.2013, 8637.344
886.6834, 8655.704
887.1655, 8670.239
887.6476, 8674.524
888.1298, 8683.375
888.6119, 8706.493
889.0940, 8739.390
889.5761, 8768.575
890.0582, 8794.635
890.5403, 8813.474
891.0225, 8822.346
891.5046, 8824.492
891.9867, 8829.419
892.4688, 8833.612
892.9509, 8826.094
893.4330, 8796.271
893.9152, 8761.299
894.3973, 8726.984
894.8794, 8694.631
895.3615, 8665.478
895.8436, 8635.969
896.3257, 8620.006
896.8079, 8626.518
897.2900, 8635.365
897.7721, 8608.492
898.2542, 8555.836
898.7363, 8517.772
899.2184, 8503.906
899.7006, 8504.687
900.1827, 8513.644
900.6648, 8532.790
901.1469, 8564.736
901.6290, 8615.278
902.1111, 8668.546
902.5933, 8724.281
903.0754, 8781.689
903.5575, 8843.497
904.0396, 8907.688
904.5217, 8951.037
905.0038, 8971.117
905.4860, 8992.518
905.9681, 9034.787
906.4502, 9088.830
906.9323, 9148.623
907.4144, 9214.238
907.8965, 9274.731
908.3787, 9329.008
908.8608, 9377.726
909.3429, 9420.943
909.8250, 9458.727
910.3071, 9494.389
910.7892, 9527.867
911.2714, 9551.820
911.7535, 9551.342
912.2356, 9547.434
912.7177, 9567.580
913.1998, 9605.357
913.6819, 9631.440
914.1641, 9632.481
914.6462, 9626.303
915.1283, 9617.592
915.6104, 9604.721
916.0925, 9581.266
916.5746, 9547.097
917.0568, 9510.653
917.5389, 9475.058
918.0210, 9438.299
918.5031, 9397.824
918.9852, 9354.702
919.4673, 9310.176
919.9495, 9275.511
920.4316, 9224.408
920.9137, 9144.146
921.3958, 9053.063
921.8779, 8971.770
922.3600, 8901.197
922.8422, 8835.974
923.3243, 8776.105
923.8064, 8721.564
924.2885, 8679.575
924.7706, 8640.077
925.2527, 8590.206
925.7349, 8528.720
926.2170, 8451.241
926.6991, 8327.324
927.1812, 8215.531
927.6633, 8153.882
928.1454, 8145.838
928.6276, 8123.344
929.1097, 8085.583
929.5918, 8041.938
930.0739, 7996.516
930.5560, 7950.491
931.0381, 7902.601
931.5203, 7853.943
932.0024, 7808.715
932.4845, 7763.131
932.9666, 7728.509
933.4487, 7716.098
933.9308, 7715.923
934.4130, 7683.625
934.8951, 7617.783
935.3772, 7556.930
935.8593, 7515.192
936.3414, 7486.412
936.8235, 7464.272
937.3057, 7448.422
937.7878, 7437.924
938.2699, 7439.006
938.7520, 7436.771
939.2341, 7427.088
939.7162, 7413.989
940.1984, 7399.840
940.6805, 7383.720
941.1626, 7382.071
941.6447, 7399.100
942.1268, 7417.124
942.6089, 7418.862
943.0911, 7409.793
943.5732, 7393.635
944.0553, 7367.860
944.5374, 7353.849
945.0195, 7372.079
945.5016, 7388.436
945.9838, 7383.306
946.4659, 7357.642
946.9480, 7345.104
947.4301, 7345.855
947.9122, 7346.197
948.3943, 7333.764
948.8764, 7318.444
949.3585, 7310.689
949.8406, 7309.926
950.3228, 7312.402
950.8049, 7321.326
951.2870, 7328.015
951.7691, 7328.230
952.2512, 7326.616
952.7333, 7337.701
953.2155, 7360.263
953.6976, 7376.774
954.1797, 7379.793
954.6618, 7380.140
955.1439, 7385.476
955.6260, 7396.046
956.1082, 7412.767
956.5903, 7443.814
957.0724, 7465.570
957.5545, 7470.888
958.0366, 7475.479
958.5187, 7495.392
959.0009, 7528.825
959.4830, 7563.839
959.9651, 7600.250
960.4472, 7625.752
960.9293, 7623.427
961.4114, 7613.161
961.8936, 7604.337
962.3757, 7576.927
962.8578, 7591.441
963.3399, 7593.429
963.8220, 7583.566
964.3041, 7526.353
964.7863, 7530.278
965.2684, 7509.706
965.7505, 7488.126
966.2326, 7500.661
966.7147, 7450.333
967.1968, 7462.329
967.6790, 7449.441
968.1611, 7447.944
968.6432, 7421.791
969.1253, 7403.253
969.6074, 7409.377
970.0895, 7401.848
970.5717, 7372.853
971.0538, 7372.080
971.5359, 7410.598
972.0180, 7447.513
972.5001, 7440.798
972.9822, 7435.358
973.4644, 7457.712
973.9465, 7487.920
974.4286, 7513.599
974.9107, 7534.370
975.3928, 7546.832
975.8749, 7548.184
976.3571, 7555.447
976.8392, 7582.555
977.3213, 7619.438
977.8034, 7649.159
978.2855, 7673.357
978.7676, 7698.527
979.2498, 7742.058
979.7319, 7767.734
980.2140, 7758.239
980.6961, 7730.757
981.1782, 7712.361
981.6603, 7702.989
982.1425, 7712.624
982.6246, 7749.805
983.1067, 7780.188
983.5888, 7755.258
984.0709, 7707.222
984.5530, 7676.997
985.0352, 7677.118
985.5173, 7676.443
985.9994, 7675.836
986.4815, 7666.029
986.9636, 7638.231
987.4457, 7594.514
987.9279, 7552.340
988.4100, 7512.321
988.8921, 7483.303
989.3742, 7481.435
989.8563, 7483.153
990.3384, 7470.021
990.8206, 7445.849
991.3027, 7426.466
991.7848, 7416.092
992.2669, 7403.863
992.7490, 7386.929
993.2311, 7369.390
993.7133, 7357.038
994.1954, 7349.890
994.6775, 7350.319
995.1596, 7364.483
995.6417, 7365.480
996.1238, 7324.001
996.6060, 7274.403
997.0881, 7244.072
997.5702, 7234.943
998.0523, 7235.753
998.5344, 7247.694
999.0165, 7261.610
999.4987, 7280.430
999.9808, 7292.288
1000.463, 7268.005
1000.945, 7216.998
1001.427, 7182.724
1001.909, 7191.642
1002.391, 7205.373
1002.873, 7216.396
1003.356, 7224.487
1003.838, 7230.178
1004.320, 7233.059
1004.802, 7225.588
1005.284, 7202.726
1005.766, 7182.231
1006.248, 7180.361
1006.730, 7189.814
1007.213, 7203.828
1007.695, 7223.785
1008.177, 7241.583
1008.659, 7257.278
1009.141, 7270.975
1009.623, 7280.563
1010.105, 7288.614
1010.587, 7306.898
1011.069, 7333.235
1011.552, 7355.068
1012.034, 7361.993
1012.516, 7366.930
1012.998, 7379.480
1013.480, 7393.407
1013.962, 7392.703
1014.444, 7372.923
1014.926, 7361.606
1015.409, 7362.480
1015.891, 7376.688
1016.373, 7424.300
1016.855, 7477.688
1017.337, 7489.775
1017.819, 7438.890
1018.301, 7414.086
1018.783, 7450.381
1019.265, 7498.588
1019.748, 7536.438
1020.230, 7565.243
1020.712, 7602.589
1021.194, 7645.734
1021.676, 7666.879
1022.158, 7625.557
1022.640, 7580.801
1023.122, 7574.008
1023.604, 7594.415
1024.087, 7618.397
1024.569, 7652.240
1025.051, 7665.208
1025.533, 7648.622
1026.015, 7625.645
1026.497, 7627.286
1026.979, 7642.793
1027.461, 7649.913
1027.943, 7645.366
1028.426, 7638.649
1028.908, 7628.400
1029.390, 7623.069
1029.872, 7630.214
1030.354, 7646.645
1030.836, 7644.940
1031.318, 7625.576
1031.800, 7615.572
1032.283, 7636.949
1032.765, 7658.910
1033.247, 7640.587
1033.729, 7605.096
1034.211, 7591.352
1034.693, 7619.722
1035.175, 7650.866
1035.657, 7690.616
1036.140, 7719.091
1036.622, 7703.140
1037.104, 7661.915
1037.586, 7657.464
1038.068, 7691.233
1038.550, 7717.740
1039.032, 7692.308
1039.514, 7674.636
1039.996, 7702.584
1040.479, 7760.568
1040.961, 7793.752
1041.443, 7801.462
1041.925, 7800.723
1042.407, 7795.710
1042.889, 7786.744
1043.371, 7768.861
1043.853, 7749.876
1044.335, 7740.711
1044.818, 7749.441
1045.300, 7752.743
1045.782, 7743.612
1046.264, 7740.596
1046.746, 7765.070
1047.228, 7805.948
1047.710, 7811.794
1048.192, 7789.309
1048.675, 7776.369
1049.157, 7809.198
1049.639, 7838.262
1050.121, 7836.782
1050.603, 7817.318
1051.085, 7799.081
1051.567, 7781.502
1052.049, 7773.642
1052.531, 7779.243
1053.014, 7781.947
1053.496, 7752.090
1053.978, 7717.805
1054.460, 7715.671
1054.942, 7754.704
1055.424, 7780.804
1055.906, 7791.663
1056.388, 7784.600
1056.870, 7747.726
1057.353, 7700.534
1057.835, 7701.404
1058.317, 7737.241
1058.799, 7765.887
1059.281, 7767.349
1059.763, 7763.538
1060.245, 7762.797
1060.727, 7760.599
1061.210, 7752.070
1061.692, 7736.449
1062.174, 7719.594
1062.656, 7701.297
1063.138, 7690.149
1063.620, 7702.128
1064.102, 7717.619
1064.584, 7719.390
1065.067, 7707.791
1065.549, 7685.730
1066.031, 7640.595
1066.513, 7619.422
1066.995, 7638.098
1067.477, 7672.105
1067.959, 7684.008
1068.441, 7679.516
1068.923, 7668.539
1069.406, 7650.354
1069.888, 7640.235
1070.370, 7656.248
1070.852, 7669.380
1071.334, 7658.939
1071.816, 7629.994
1072.298, 7636.139
1072.780, 7674.262
1073.262, 7707.528
1073.745, 7710.490
1074.227, 7711.718
1074.709, 7730.184
1075.191, 7761.869
1075.673, 7802.788
1076.155, 7862.936
1076.637, 7895.738
1077.119, 7893.820
1077.601, 7888.771
1078.084, 7915.379
1078.566, 7954.315
1079.048, 7971.564
1079.530, 7969.579
1080.012, 7978.814
1080.494, 8018.984
1080.976, 8058.769
1081.458, 8092.556
1081.941, 8122.425
1082.423, 8153.002
1082.905, 8183.571
1083.387, 8209.597
1083.869, 8228.419
1084.351, 8252.104
1084.833, 8296.836
1085.315, 8341.003
1085.797, 8368.458
1086.280, 8379.893
1086.762, 8397.609
1087.244, 8422.117
1087.726, 8430.187
1088.208, 8400.295
1088.690, 8362.413
1089.172, 8349.244
1089.654, 8348.712
1090.136, 8341.147
1090.619, 8329.405
1091.101, 8295.757
1091.583, 8233.789
1092.065, 8168.271
1092.547, 8126.325
1093.029, 8094.326
1093.511, 8041.391
1093.993, 7969.744
1094.476, 7904.151
1094.958, 7850.360
1095.440, 7808.917
1095.922, 7786.222
1096.404, 7768.769
1096.886, 7724.001
1097.368, 7660.104
1097.850, 7626.121
1098.333, 7632.750
1098.815, 7640.963
1099.297, 7627.911
1099.779, 7604.109
1100.261, 7570.499
1100.743, 7530.109
1101.225, 7515.079
1101.707, 7526.962
1102.189, 7529.092
1102.672, 7497.326
1103.154, 7469.197
1103.636, 7500.832
1104.118, 7554.921
1104.600, 7579.007
1105.082, 7548.368
1105.564, 7529.901
1106.046, 7527.313
1106.528, 7525.151
1107.011, 7513.720
1107.493, 7494.837
1107.975, 7465.075
1108.457, 7430.151
1108.939, 7410.506
1109.421, 7427.546
1109.903, 7440.361
1110.385, 7439.217
1110.868, 7436.256
1111.350, 7451.561
1111.832, 7478.867
1112.314, 7487.596
1112.796, 7475.602
1113.278, 7462.700
1113.760, 7459.083
1114.242, 7458.722
1114.724, 7455.400
1115.207, 7453.658
1115.689, 7474.660
1116.171, 7517.399
1116.653, 7531.991
1117.135, 7498.989
1117.617, 7468.387
1118.099, 7497.380
1118.581, 7540.553
1119.063, 7551.665
1119.546, 7525.024
1120.028, 7512.052
1120.510, 7514.980
1120.992, 7517.080
1121.474, 7507.814
1121.956, 7498.078
1122.438, 7508.919
1122.920, 7527.852
1123.403, 7533.337
1123.885, 7503.933
1124.367, 7493.526
1124.849, 7510.990
1125.331, 7527.177
1125.813, 7515.585
1126.295, 7487.526
1126.777, 7464.689
1127.260, 7449.126
1127.742, 7446.342
1128.224, 7473.022
1128.706, 7493.537
1129.188, 7500.032
1129.670, 7499.142
1130.152, 7497.120
1130.634, 7494.870
1131.116, 7495.391
1131.599, 7499.078
1132.081, 7510.956
1132.563, 7553.018
1133.045, 7582.869
1133.527, 7573.553
1134.009, 7539.661
1134.491, 7521.452
1134.973, 7517.637
1135.455, 7494.674
1135.938, 7438.515
1136.420, 7399.900
1136.902, 7440.005
1137.384, 7501.177
1137.866, 7535.010
1138.348, 7540.829
1138.830, 7541.313
1139.312, 7536.130
1139.795, 7528.088
1140.277, 7514.492
1140.759, 7505.534
1141.241, 7526.838
1141.723, 7553.605
1142.205, 7545.673
1142.687, 7473.503
1143.169, 7454.494
1143.651, 7503.345
1144.134, 7550.124
1144.616, 7538.810
1145.098, 7504.582
1145.580, 7509.163
1146.062, 7537.389
1146.544, 7553.134
1147.026, 7535.610
1147.508, 7519.913
1147.990, 7506.828
1148.473, 7498.058
1148.955, 7498.071
1149.437, 7503.054
1149.919, 7501.220
1150.401, 7494.337
1150.883, 7495.555
1151.365, 7517.042
1151.847, 7539.238
1152.330, 7561.460
1152.812, 7578.003
1153.294, 7572.192
1153.776, 7552.854
1154.258, 7554.035
1154.740, 7579.566
1155.222, 7612.280
1155.704, 7662.139
1156.186, 7694.716
1156.669, 7689.880
1157.151, 7662.330
1157.633, 7651.349
1158.115, 7655.116
1158.597, 7662.069
1159.079, 7671.431
1159.561, 7673.914
1160.043, 7656.667
1160.526, 7636.285
1161.008, 7624.757
1161.490, 7620.988
1161.972, 7613.855
1162.454, 7603.644
1162.936, 7598.200
1163.418, 7602.749
1163.900, 7607.613
1164.382, 7607.565
1164.865, 7601.925
1165.347, 7588.762
1165.829, 7567.220
1166.311, 7548.503
1166.793, 7532.466
1167.275, 7520.231
1167.757, 7514.348
1168.239, 7510.403
1168.721, 7497.909
1169.204, 7486.996
1169.686, 7498.273
1170.168, 7547.245
1170.650, 7565.619
1171.132, 7547.990
1171.614, 7529.964
1172.096, 7549.258
1172.578, 7574.242
1173.061, 7560.441
1173.543, 7521.866
1174.025, 7502.811
1174.507, 7512.621
1174.989, 7530.594
1175.471, 7558.471
1175.953, 7580.934
1176.435, 7573.753
1176.917, 7557.389
1177.400, 7566.001
1177.882, 7595.492
1178.364, 7604.441
1178.846, 7570.080
1179.328, 7553.418
1179.810, 7568.142
1180.292, 7593.990
1180.774, 7609.612
1181.256, 7616.015
1181.739, 7612.296
1182.221, 7598.768
1182.703, 7585.947
1183.185, 7570.536
1183.667, 7568.189
1184.149, 7588.361
1184.631, 7613.872
1185.113, 7603.479
1185.596, 7579.013
1186.078, 7592.581
1186.560, 7660.909
1187.042, 7699.394
1187.524, 7673.606
1188.006, 7640.972
1188.488, 7617.864
1188.970, 7606.805
1189.453, 7627.806
1189.935, 7663.468
1190.417, 7667.042
1190.899, 7608.648
1191.381, 7582.252
1191.863, 7638.988
1192.345, 7685.572
1192.827, 7666.157
1193.309, 7606.821
1193.792, 7589.475
1194.274, 7602.907
1194.756, 7615.198
1195.238, 7614.564
1195.720, 7612.940
1196.202, 7610.782
1196.684, 7611.240
1197.166, 7614.447
1197.648, 7622.046
1198.131, 7651.844
1198.613, 7694.375
1199.095, 7714.636
1199.577, 7665.040
1200.059, 7635.801
1200.541, 7659.122
1201.023, 7692.311
1201.505, 7698.527
1201.988, 7682.845
1202.470, 7664.276
1202.952, 7645.685
1203.434, 7640.316
1203.916, 7665.933
1204.398, 7691.559
1204.880, 7714.071
1205.362, 7727.292
1205.844, 7718.896
1206.327, 7694.402
1206.809, 7678.854
1207.291, 7673.068
1207.773, 7670.981
1208.255, 7670.379
1208.737, 7672.668
1209.219, 7681.987
1209.701, 7689.937
1210.183, 7680.296
1210.666, 7658.241
1211.148, 7645.518
1211.630, 7644.188
1212.112, 7654.488
1212.594, 7694.070
1213.076, 7722.916
1213.558, 7725.383
1214.040, 7713.403
1214.523, 7704.771
1215.005, 7699.915
1215.487, 7702.027
1215.969, 7711.551
1216.451, 7721.715
1216.933, 7732.586
1217.415, 7739.469
1217.897, 7741.927
1218.380, 7738.870
1218.862, 7717.887
1219.344, 7689.134
1219.826, 7696.082
1220.308, 7749.668
1220.790, 7793.838
1221.272, 7795.676
1221.754, 7789.905
1222.236, 7787.019
1222.719, 7787.810
1223.201, 7798.554
1223.683, 7814.417
1224.165, 7817.590
1224.647, 7801.148
1225.129, 7790.262
1225.611, 7797.796
1226.093, 7810.577
1226.575, 7826.079
1227.058, 7841.108
1227.540, 7847.597
1228.022, 7846.408
1228.504, 7767.780
1228.986, 7796.026
1229.468, 7811.746
1229.950, 7815.615
1230.432, 7772.132
1230.915, 7789.792
1231.397, 7782.950
1231.879, 7775.103
1232.361, 7801.370
1232.843, 7764.774
1233.325, 7790.500
1233.807, 7791.349
1234.289, 7803.583
1234.771, 7791.162
1235.254, 7786.355
1235.736, 7806.213
1236.218, 7812.414
1236.700, 7797.155
1237.182, 7810.112
1237.664, 7772.655
1238.146, 7779.438
1238.628, 7805.308
1239.110, 7791.288
1239.593, 7811.508
1240.075, 7784.558
1240.557, 7787.706
1241.039, 7810.009
1241.521, 7827.383
1242.003, 7828.393
1242.485, 7837.087
1242.967, 7862.030
1243.449, 7875.479
1243.932, 7846.708
1244.414, 7805.424
1244.896, 7809.388
1245.378, 7841.097
1245.860, 7863.832
1246.342, 7866.342
1246.824, 7861.906
1247.306, 7848.843
1247.789, 7834.054
1248.271, 7814.811
1248.753, 7802.462
1249.235, 7823.477
1249.717, 7861.884
1250.199, 7883.931
1250.681, 7876.569
1251.163, 7875.043
1251.646, 7880.912
1252.128, 7884.638
1252.610, 7875.991
1253.092, 7864.616
1253.574, 7858.723
1254.056, 7858.683
1254.538, 7867.702
1255.020, 7893.271
1255.502, 7889.081
1255.984, 7850.614
1256.467, 7826.052
1256.949, 7869.495
1257.431, 7922.815
1257.913, 7937.917
1258.395, 7927.717
1258.877, 7919.087
1259.359, 7913.142
1259.841, 7902.258
1260.324, 7886.171
1260.806, 7872.892
1261.288, 7862.136
1261.770, 7861.978
1262.252, 7893.576
1262.734, 7929.775
1263.216, 7926.674
1263.698, 7884.395
1264.181, 7864.794
1264.663, 7869.599
1265.145, 7884.919
1265.627, 7910.126
1266.109, 7934.817
1266.591, 7961.740
1267.073, 7979.438
1267.555, 7966.381
1268.037, 7928.914
1268.520, 7913.928
1269.002, 7921.247
1269.484, 7932.579
1269.966, 7937.583
1270.448, 7947.200
1270.930, 7967.036
1271.412, 7987.794
1271.894, 8001.152
1272.376, 8006.630
1272.859, 7997.093
1273.341, 7976.246
1273.823, 7965.033
1274.305, 7980.181
1274.787, 7992.769
1275.269, 7998.102
1275.751, 8001.703
1276.233, 8013.493
1276.716, 8025.664
1277.198, 8019.883
1277.680, 8000.198
1278.162, 7986.352
1278.644, 7980.567
1279.126, 7986.725
1279.608, 8007.493
1280.090, 8031.618
1280.573, 8054.828
1281.055, 8070.475
1281.537, 8065.813
1282.019, 8046.621
1282.501, 8033.129
1282.983, 8026.741
1283.465, 8029.511
1283.947, 8043.800
1284.429, 8046.664
1284.911, 7998.327
1285.394, 7950.351
1285.876, 7950.966
1286.358, 7983.840
1286.840, 8007.583
1287.322, 8021.356
1287.804, 8044.373
1288.286, 8077.531
1288.768, 8091.721
1289.251, 8040.282
1289.733, 7993.961
1290.215, 7997.855
1290.697, 8025.489
1291.179, 8048.457
1291.661, 8066.464
1292.143, 8079.472
1292.625, 8086.944
1293.108, 8083.616
1293.590, 8040.925
1294.072, 8024.789
1294.554, 8062.128
1295.036, 8111.625
1295.518, 8124.963
1296.000, 8114.423
1296.482, 8109.287
1296.964, 8109.444
1297.447, 8108.657
##END=



