##NAMES=Feruvite
##RRUFFID=R061109
##IDEAL CHEMISTRY=CaFe^2+^_3_(Al_5_Mg)(Si_6_O_18_)(BO_3_)_3_(OH)_3_OH
##LOCALITY=Red Cross Lake, Manitoba, Canada
##OWNER=RRUFF
##SOURCE=Michael Scott
##DESCRIPTION=Green fragment
##STATUS=The identification of this mineral has been confirmed only by single crystal X-ray diffraction.
##URL=rruff.info/R061109
138.5035, 7494.562
138.9856, 7539.714
139.4677, 7593.580
139.9498, 7661.997
140.4319, 7734.955
140.9140, 7833.368
141.3961, 8002.627
141.8783, 8294.384
142.3604, 8619.552
142.8425, 8900.519
143.3246, 9137.358
143.8067, 9391.757
144.2888, 9708.390
144.7710, 10073.10
145.2531, 10447.32
145.7352, 10747.05
146.2173, 10931.14
146.6994, 11051.97
147.1815, 11199.49
147.6637, 11319.88
148.1458, 11367.92
148.6279, 11375.24
149.1100, 11382.46
149.5921, 11411.46
150.0742, 11437.95
150.5564, 11423.64
151.0385, 11361.61
151.5206, 11280.46
152.0027, 11189.17
152.4848, 11087.69
152.9669, 10975.26
153.4491, 10848.00
153.9312, 10707.79
154.4133, 10558.82
154.8954, 10394.64
155.3775, 10230.58
155.8596, 10058.19
156.3418, 9890.518
156.8239, 9751.209
157.3060, 9656.909
157.7881, 9594.606
158.2702, 9527.071
158.7523, 9443.771
159.2345, 9375.616
159.7166, 9334.663
160.1987, 9315.007
160.6808, 9309.035
161.1629, 9316.445
161.6451, 9334.515
162.1272, 9353.421
162.6093, 9383.656
163.0914, 9400.602
163.5735, 9379.532
164.0556, 9345.091
164.5378, 9338.801
165.0199, 9396.171
165.5020, 9500.173
165.9841, 9560.627
166.4662, 9544.955
166.9483, 9531.335
167.4305, 9546.305
167.9126, 9580.554
168.3947, 9618.854
168.8768, 9654.456
169.3589, 9686.068
169.8410, 9703.025
170.3232, 9686.264
170.8053, 9676.828
171.2874, 9686.853
171.7695, 9711.133
172.2516, 9740.600
172.7337, 9769.992
173.2159, 9798.740
173.6980, 9825.456
174.1801, 9856.813
174.6622, 9875.999
175.1443, 9869.135
175.6264, 9847.362
176.1085, 9831.141
176.5907, 9836.894
177.0728, 9860.682
177.5549, 9860.465
178.0370, 9802.841
178.5191, 9754.220
179.0012, 9727.108
179.4834, 9719.611
179.9655, 9726.695
180.4476, 9745.269
180.9297, 9775.352
181.4118, 9817.345
181.8939, 9886.678
182.3761, 9953.355
182.8582, 9998.289
183.3403, 10037.68
183.8224, 10102.34
184.3045, 10216.83
184.7866, 10372.37
185.2688, 10493.74
185.7509, 10566.93
186.2330, 10616.51
186.7151, 10631.27
187.1972, 10626.96
187.6793, 10628.78
188.1615, 10654.28
188.6436, 10698.16
189.1257, 10716.36
189.6078, 10690.36
190.0899, 10656.44
190.5720, 10611.65
191.0542, 10564.22
191.5363, 10527.88
192.0184, 10512.88
192.5005, 10512.63
192.9826, 10486.73
193.4647, 10401.24
193.9469, 10325.43
194.4290, 10274.04
194.9111, 10237.61
195.3932, 10200.50
195.8753, 10153.56
196.3574, 10100.57
196.8396, 10060.94
197.3217, 10038.33
197.8038, 10026.71
198.2859, 10030.80
198.7680, 10044.34
199.2501, 10059.31
199.7323, 10071.44
200.2144, 10082.63
200.6965, 10099.62
201.1786, 10146.76
201.6607, 10171.64
202.1428, 10153.67
202.6250, 10116.06
203.1071, 10086.40
203.5892, 10077.21
204.0713, 10083.54
204.5534, 10090.94
205.0355, 10109.44
205.5177, 10115.68
205.9998, 10097.81
206.4819, 10071.03
206.9640, 10056.21
207.4461, 10061.58
207.9282, 10072.17
208.4104, 10051.75
208.8925, 9952.934
209.3746, 9884.799
209.8567, 9866.938
210.3388, 9872.063
210.8209, 9881.916
211.3030, 9888.728
211.7852, 9882.234
212.2673, 9840.173
212.7494, 9715.508
213.2315, 9625.526
213.7136, 9596.725
214.1957, 9585.244
214.6779, 9552.621
215.1600, 9489.669
215.6421, 9416.281
216.1242, 9365.105
216.6063, 9353.411
217.0884, 9332.152
217.5706, 9295.597
218.0527, 9254.979
218.5348, 9218.976
219.0169, 9188.999
219.4990, 9160.626
219.9811, 9129.498
220.4633, 9101.409
220.9454, 9053.028
221.4275, 8960.224
221.9096, 8869.497
222.3917, 8812.765
222.8738, 8790.283
223.3560, 8778.146
223.8381, 8749.144
224.3202, 8696.109
224.8023, 8656.323
225.2844, 8633.645
225.7665, 8617.972
226.2487, 8607.318
226.7308, 8599.867
227.2129, 8592.332
227.6950, 8580.971
228.1771, 8564.590
228.6592, 8555.965
229.1414, 8572.915
229.6235, 8579.854
230.1056, 8554.394
230.5877, 8507.095
231.0698, 8465.302
231.5519, 8450.973
232.0341, 8463.322
232.5162, 8465.266
232.9983, 8443.326
233.4804, 8424.693
233.9625, 8418.998
234.4446, 8420.758
234.9268, 8417.461
235.4089, 8399.382
235.8910, 8372.388
236.3731, 8372.147
236.8552, 8438.287
237.3373, 8485.327
237.8195, 8488.513
238.3016, 8468.127
238.7837, 8448.994
239.2658, 8443.218
239.7479, 8448.069
240.2300, 8455.536
240.7122, 8464.276
241.1943, 8478.485
241.6764, 8500.416
242.1585, 8526.552
242.6406, 8555.398
243.1227, 8586.296
243.6049, 8615.115
244.0870, 8632.570
244.5691, 8630.943
245.0512, 8634.574
245.5333, 8653.195
246.0154, 8672.541
246.4975, 8682.093
246.9797, 8679.464
247.4618, 8669.264
247.9439, 8657.416
248.4260, 8644.417
248.9081, 8627.473
249.3902, 8607.622
249.8724, 8582.767
250.3545, 8551.044
250.8366, 8512.655
251.3187, 8469.237
251.8008, 8422.160
252.2829, 8371.419
252.7651, 8317.965
253.2472, 8252.190
253.7293, 8193.080
254.2114, 8151.875
254.6935, 8125.290
255.1756, 8101.491
255.6578, 8072.152
256.1399, 8037.958
256.6220, 8003.995
257.1041, 7964.650
257.5862, 7934.405
258.0684, 7923.385
258.5505, 7924.222
259.0326, 7922.593
259.5147, 7908.925
259.9968, 7888.715
260.4789, 7875.300
260.9611, 7866.211
261.4432, 7870.240
261.9253, 7907.135
262.4074, 7953.529
262.8895, 7978.972
263.3716, 7967.691
263.8537, 7940.881
264.3358, 7930.771
264.8180, 7941.111
265.3001, 7946.498
265.7822, 7936.003
266.2643, 7915.974
266.7464, 7887.930
267.2285, 7847.573
267.7107, 7816.747
268.1928, 7824.128
268.6749, 7866.599
269.1570, 7895.818
269.6391, 7890.038
270.1212, 7872.538
270.6034, 7871.064
271.0855, 7886.824
271.5676, 7904.202
272.0497, 7914.246
272.5318, 7918.749
273.0139, 7923.543
273.4961, 7930.628
273.9782, 7936.038
274.4603, 7935.389
274.9424, 7929.336
275.4245, 7920.468
275.9066, 7913.828
276.3888, 7903.217
276.8709, 7876.849
277.3530, 7832.084
277.8351, 7784.949
278.3172, 7750.104
278.7993, 7725.416
279.2815, 7695.307
279.7636, 7659.287
280.2457, 7616.725
280.7278, 7557.098
281.2099, 7484.662
281.6920, 7430.204
282.1742, 7415.932
282.6563, 7435.082
283.1384, 7448.713
283.6205, 7474.918
284.1026, 7477.705
284.5847, 7420.917
285.0669, 7330.811
285.5490, 7266.361
286.0311, 7257.215
286.5132, 7279.976
286.9953, 7274.784
287.4774, 7214.592
287.9596, 7172.502
288.4417, 7154.191
288.9238, 7160.538
289.4059, 7205.810
289.8880, 7291.833
290.3701, 7380.447
290.8523, 7415.570
291.3344, 7367.418
291.8165, 7336.461
292.2986, 7339.159
292.7807, 7344.869
293.2628, 7325.070
293.7450, 7283.721
294.2271, 7253.345
294.7092, 7268.637
295.1913, 7335.873
295.6734, 7371.040
296.1555, 7344.939
296.6377, 7318.554
297.1198, 7315.153
297.6019, 7326.184
298.0840, 7332.044
298.5661, 7319.970
299.0482, 7294.119
299.5304, 7274.210
300.0125, 7265.133
300.4946, 7255.587
300.9767, 7243.501
301.4588, 7230.279
301.9409, 7214.105
302.4231, 7194.302
302.9052, 7180.551
303.3873, 7194.708
303.8694, 7251.923
304.3515, 7290.411
304.8336, 7295.433
305.3158, 7284.302
305.7979, 7258.769
306.2800, 7222.358
306.7621, 7192.145
307.2442, 7137.817
307.7263, 7189.806
308.2085, 7219.660
308.6906, 7228.568
309.1727, 7153.796
309.6548, 7187.080
310.1369, 7177.059
310.6190, 7165.263
311.1012, 7213.754
311.5833, 7151.153
312.0654, 7189.461
312.5475, 7215.058
313.0296, 7239.560
313.5117, 7244.051
313.9939, 7237.775
314.4760, 7233.818
314.9581, 7233.378
315.4402, 7237.687
315.9223, 7258.084
316.4044, 7290.463
316.8866, 7293.957
317.3687, 7234.749
317.8508, 7156.441
318.3329, 7141.933
318.8150, 7211.063
319.2971, 7268.967
319.7793, 7272.243
320.2614, 7242.357
320.7435, 7211.055
321.2256, 7184.309
321.7077, 7169.984
322.1898, 7181.391
322.6720, 7224.837
323.1541, 7258.478
323.6362, 7273.498
324.1183, 7283.318
324.6004, 7293.058
325.0826, 7305.433
325.5647, 7329.504
326.0468, 7374.862
326.5289, 7439.566
327.0110, 7485.228
327.4931, 7488.405
327.9753, 7502.103
328.4574, 7550.501
328.9395, 7616.518
329.4216, 7672.093
329.9037, 7704.744
330.3858, 7724.130
330.8680, 7753.658
331.3501, 7806.944
331.8322, 7847.756
332.3143, 7859.028
332.7964, 7869.363
333.2785, 7906.382
333.7606, 7970.713
334.2427, 8034.803
334.7249, 8065.742
335.2070, 8058.635
335.6891, 8057.201
336.1712, 8063.169
336.6533, 8073.480
337.1354, 8093.692
337.6176, 8117.115
338.0997, 8129.489
338.5818, 8118.831
339.0639, 8093.512
339.5460, 8075.067
340.0281, 8060.051
340.5103, 8061.119
340.9924, 8092.164
341.4745, 8138.214
341.9566, 8186.756
342.4387, 8236.851
342.9208, 8282.957
343.4030, 8312.967
343.8851, 8330.207
344.3672, 8363.538
344.8493, 8424.685
345.3314, 8498.827
345.8135, 8573.773
346.2957, 8650.003
346.7778, 8714.310
347.2599, 8755.817
347.7420, 8785.189
348.2241, 8815.543
348.7062, 8848.298
349.1884, 8884.955
349.6705, 8933.380
350.1526, 8989.530
350.6347, 9012.666
351.1168, 8980.757
351.5989, 8938.973
352.0811, 8915.084
352.5632, 8898.380
353.0453, 8860.465
353.5274, 8786.313
354.0095, 8689.565
354.4916, 8602.666
354.9738, 8546.228
355.4559, 8472.062
355.9380, 8374.550
356.4201, 8262.560
356.9022, 8133.383
357.3843, 7991.828
357.8665, 7857.032
358.3486, 7747.957
358.8307, 7665.115
359.3128, 7607.038
359.7949, 7597.723
360.2770, 7589.446
360.7592, 7567.949
361.2413, 7536.123
361.7234, 7501.498
362.2055, 7467.929
362.6876, 7434.866
363.1697, 7400.878
363.6519, 7364.572
364.1340, 7330.887
364.6161, 7297.988
365.0982, 7270.231
365.5803, 7253.140
366.0624, 7247.925
366.5446, 7247.343
367.0267, 7244.143
367.5088, 7239.702
367.9909, 7244.688
368.4730, 7268.722
368.9551, 7287.639
369.4373, 7274.520
369.9194, 7236.789
370.4015, 7201.522
370.8836, 7182.041
371.3657, 7165.079
371.8478, 7129.554
372.3300, 7078.109
372.8121, 7044.729
373.2942, 7054.206
373.7763, 7092.264
374.2584, 7106.535
374.7405, 7078.317
375.2227, 7057.661
375.7048, 7058.248
376.1869, 7073.119
376.6690, 7093.507
377.1511, 7117.007
377.6332, 7145.952
378.1154, 7184.605
378.5975, 7238.068
379.0796, 7283.266
379.5617, 7320.518
380.0438, 7350.766
380.5259, 7369.487
381.0081, 7381.525
381.4902, 7397.179
381.9723, 7423.394
382.4544, 7457.986
382.9365, 7494.006
383.4186, 7539.403
383.9008, 7570.474
384.3829, 7572.757
384.8650, 7566.248
385.3471, 7569.648
385.8292, 7587.077
386.3113, 7606.180
386.7935, 7613.869
387.2756, 7610.891
387.7577, 7607.124
388.2398, 7602.480
388.7219, 7599.133
389.2040, 7604.725
389.6862, 7614.133
390.1683, 7609.925
390.6504, 7579.931
391.1325, 7537.534
391.6146, 7495.043
392.0967, 7452.722
392.5789, 7415.452
393.0610, 7388.710
393.5431, 7365.893
394.0252, 7329.305
394.5073, 7274.048
394.9894, 7218.440
395.4716, 7158.234
395.9537, 7104.023
396.4358, 7073.423
396.9179, 7067.971
397.4000, 7067.393
397.8821, 7050.040
398.3643, 7013.481
398.8464, 6978.598
399.3285, 6936.776
399.8106, 6904.941
400.2927, 6895.089
400.7748, 6898.120
401.2570, 6899.532
401.7391, 6892.363
402.2212, 6878.176
402.7033, 6860.183
403.1854, 6838.151
403.6675, 6812.877
404.1497, 6777.159
404.6317, 6743.728
405.1139, 6720.192
405.5960, 6707.156
406.0781, 6701.737
406.5602, 6710.895
407.0423, 6726.536
407.5244, 6715.372
408.0066, 6666.228
408.4887, 6624.685
408.9708, 6625.522
409.4529, 6651.560
409.9350, 6669.839
410.4171, 6674.320
410.8993, 6673.585
411.3814, 6668.900
411.8635, 6663.226
412.3456, 6664.679
412.8277, 6676.199
413.3098, 6692.482
413.7920, 6704.646
414.2741, 6706.836
414.7562, 6729.054
415.2383, 6797.215
415.7204, 6863.041
416.2025, 6893.415
416.6847, 6894.749
417.1668, 6886.831
417.6489, 6878.586
418.1310, 6879.467
418.6131, 6931.393
419.0952, 7088.397
419.5774, 7208.028
420.0595, 7259.792
420.5416, 7282.376
421.0237, 7298.584
421.5058, 7315.428
421.9879, 7339.257
422.4701, 7382.740
422.9522, 7442.754
423.4343, 7485.326
423.9164, 7505.454
424.3985, 7515.967
424.8806, 7520.836
425.3628, 7521.944
425.8449, 7521.890
426.3270, 7520.071
426.8091, 7519.037
427.2912, 7521.700
427.7733, 7527.085
428.2555, 7534.633
428.7376, 7547.772
429.2197, 7552.127
429.7018, 7520.917
430.1839, 7441.907
430.6660, 7390.216
431.1482, 7388.940
431.6303, 7401.467
432.1124, 7405.207
432.5945, 7400.229
433.0766, 7394.019
433.5587, 7390.745
434.0409, 7390.793
434.5230, 7395.792
435.0051, 7409.941
435.4872, 7422.729
435.9693, 7418.819
436.4514, 7423.288
436.9336, 7459.414
437.4157, 7527.913
437.8978, 7607.734
438.3799, 7689.945
438.8620, 7771.193
439.3441, 7814.786
439.8263, 7795.968
440.3084, 7792.498
440.7905, 7859.758
441.2726, 7963.382
441.7547, 8056.407
442.2368, 8122.059
442.7190, 8191.948
443.2011, 8296.278
443.6832, 8423.135
444.1653, 8540.967
444.6474, 8641.874
445.1295, 8731.068
445.6117, 8810.771
446.0938, 8877.467
446.5759, 8964.194
447.0580, 9061.174
447.5401, 9186.636
448.0222, 9382.827
448.5044, 9611.278
448.9865, 9792.421
449.4686, 9886.408
449.9507, 9928.668
450.4328, 9996.623
450.9149, 10099.85
451.3971, 10206.66
451.8792, 10312.67
452.3613, 10424.04
452.8434, 10541.54
453.3255, 10667.39
453.8076, 10805.17
454.2898, 10957.00
454.7719, 11123.31
455.2540, 11309.87
455.7361, 11520.61
456.2182, 11728.46
456.7003, 11908.57
457.1825, 12091.47
457.6646, 12323.42
458.1467, 12617.03
458.6288, 12907.20
459.1109, 13159.50
459.5930, 13398.89
460.0752, 13671.88
460.5573, 13979.46
461.0394, 14253.34
461.5215, 14440.72
462.0036, 14546.73
462.4857, 14619.38
462.9679, 14710.37
463.4500, 14706.38
463.9321, 14572.81
464.4142, 14342.98
464.8963, 14038.45
465.3784, 13670.51
465.8606, 13259.92
466.3427, 12819.92
466.8248, 12348.98
467.3069, 11894.24
467.7890, 11441.44
468.2711, 11025.28
468.7533, 10664.26
469.2354, 10342.97
469.7175, 10040.63
470.1996, 9747.340
470.6817, 9474.637
471.1638, 9228.683
471.6460, 9011.117
472.1281, 8839.420
472.6102, 8724.013
473.0923, 8626.491
473.5744, 8505.710
474.0565, 8357.890
474.5387, 8229.012
475.0208, 8125.124
475.5029, 8033.625
475.9850, 7953.766
476.4671, 7881.137
476.9492, 7808.731
477.4313, 7733.794
477.9135, 7657.985
478.3956, 7582.241
478.8777, 7499.038
479.3598, 7438.252
479.8419, 7422.835
480.3240, 7409.733
480.8062, 7383.945
481.2883, 7346.481
481.7704, 7302.190
482.2525, 7250.434
482.7346, 7197.549
483.2167, 7148.552
483.6989, 7103.978
484.1810, 7077.609
484.6631, 7082.477
485.1452, 7094.625
485.6273, 7079.401
486.1094, 7036.955
486.5916, 7000.575
487.0737, 6983.503
487.5558, 6968.514
488.0379, 6937.601
488.5200, 6896.509
489.0021, 6866.152
489.4843, 6858.089
489.9664, 6862.698
490.4485, 6856.596
490.9306, 6817.301
491.4127, 6849.789
491.8948, 6866.958
492.3770, 6869.631
492.8591, 6814.397
493.3412, 6833.940
493.8233, 6823.516
494.3054, 6811.863
494.7875, 6841.930
495.2697, 6795.119
495.7518, 6824.524
496.2339, 6823.506
496.7160, 6836.412
497.1981, 6819.166
497.6802, 6811.233
498.1624, 6789.456
498.6445, 6779.453
499.1266, 6757.856
499.6087, 6746.276
500.0908, 6773.940
500.5729, 6832.418
501.0551, 6885.196
501.5372, 6912.336
502.0193, 6921.023
502.5014, 6931.441
502.9835, 6949.484
503.4656, 6958.545
503.9478, 6950.307
504.4299, 6941.023
504.9120, 6936.914
505.3941, 6940.397
505.8762, 6955.948
506.3583, 6992.164
506.8405, 7035.859
507.3226, 7054.836
507.8047, 7046.435
508.2868, 7041.916
508.7689, 7058.229
509.2510, 7075.100
509.7332, 7056.960
510.2153, 7000.889
510.6974, 6976.747
511.1795, 7039.308
511.6616, 7113.063
512.1437, 7131.080
512.6259, 7100.383
513.1080, 7057.179
513.5901, 7018.947
514.0722, 6987.002
514.5543, 6965.031
515.0364, 6958.505
515.5186, 6951.587
516.0007, 6947.288
516.4828, 6939.672
516.9649, 6922.299
517.4470, 6898.733
517.9291, 6878.781
518.4113, 6868.195
518.8934, 6863.135
519.3755, 6858.450
519.8576, 6854.149
520.3397, 6846.293
520.8218, 6831.966
521.3040, 6816.447
521.7861, 6807.884
522.2682, 6805.997
522.7503, 6798.599
523.2324, 6770.854
523.7145, 6749.100
524.1967, 6757.473
524.6788, 6784.510
525.1609, 6805.729
525.6430, 6810.867
526.1251, 6800.349
526.6072, 6773.206
527.0894, 6724.143
527.5715, 6675.152
528.0536, 6602.537
528.5357, 6554.805
529.0178, 6575.935
529.4999, 6630.575
529.9821, 6652.608
530.4642, 6611.364
530.9463, 6546.200
531.4284, 6495.753
531.9105, 6457.275
532.3926, 6413.413
532.8748, 6356.938
533.3569, 6311.252
533.8390, 6300.591
534.3211, 6325.342
534.8032, 6349.265
535.2853, 6384.124
535.7675, 6404.568
536.2496, 6388.030
536.7317, 6358.253
537.2138, 6349.617
537.6959, 6368.960
538.1780, 6390.306
538.6602, 6382.513
539.1423, 6346.244
539.6244, 6317.333
540.1065, 6295.527
540.5886, 6281.790
541.0707, 6283.305
541.5529, 6289.858
542.0350, 6288.233
542.5171, 6274.521
542.9992, 6264.093
543.4813, 6278.083
543.9634, 6295.745
544.4456, 6274.737
544.9277, 6215.092
545.4098, 6166.096
545.8919, 6163.079
546.3740, 6193.824
546.8561, 6208.509
547.3383, 6182.996
547.8204, 6175.485
548.3025, 6203.619
548.7846, 6237.269
549.2667, 6255.134
549.7488, 6257.927
550.2310, 6258.173
550.7131, 6264.847
551.1952, 6273.188
551.6773, 6269.413
552.1594, 6252.416
552.6415, 6246.193
553.1237, 6261.107
553.6058, 6285.140
554.0879, 6305.148
554.5700, 6321.396
555.0521, 6336.208
555.5342, 6349.973
556.0164, 6362.533
556.4985, 6367.997
556.9806, 6373.214
557.4627, 6392.262
557.9448, 6430.166
558.4269, 6478.958
558.9091, 6527.752
559.3912, 6576.877
559.8733, 6624.032
560.3554, 6669.324
560.8375, 6712.400
561.3196, 6746.306
561.8018, 6780.073
562.2839, 6827.804
562.7660, 6895.466
563.2481, 6967.687
563.7302, 7038.100
564.2123, 7104.349
564.6945, 7159.269
565.1766, 7202.179
565.6587, 7244.171
566.1408, 7295.965
566.6229, 7351.458
567.1050, 7379.299
567.5872, 7345.449
568.0693, 7329.015
568.5514, 7369.064
569.0335, 7400.003
569.5156, 7373.312
569.9977, 7290.140
570.4799, 7175.673
570.9620, 7034.723
571.4441, 6886.284
571.9262, 6772.325
572.4083, 6692.863
572.8904, 6618.583
573.3726, 6542.696
573.8547, 6465.085
574.3368, 6379.345
574.8189, 6285.038
575.3010, 6214.091
575.7831, 6182.146
576.2653, 6160.314
576.7474, 6142.633
577.2295, 6122.723
577.7116, 6084.695
578.1937, 6026.313
578.6758, 5975.342
579.1580, 5973.318
579.6401, 6020.529
580.1222, 6041.960
580.6042, 6027.787
581.0864, 6007.142
581.5685, 5980.089
582.0506, 5959.259
582.5327, 5964.313
583.0148, 6001.895
583.4969, 6037.488
583.9791, 6055.684
584.4612, 6063.343
584.9433, 6067.646
585.4254, 6068.912
585.9075, 6063.356
586.3896, 6047.750
586.8718, 6028.726
587.3539, 6023.913
587.8360, 6043.673
588.3181, 6052.688
588.8002, 6033.092
589.2823, 6019.173
589.7645, 6030.729
590.2466, 6059.154
590.7287, 6083.288
591.2108, 6091.398
591.6929, 6104.082
592.1750, 6152.140
592.6572, 6219.700
593.1393, 6258.433
593.6214, 6258.941
594.1035, 6254.215
594.5856, 6271.731
595.0677, 6308.037
595.5499, 6335.733
596.0320, 6340.360
596.5141, 6354.990
596.9962, 6393.364
597.4783, 6434.166
597.9604, 6458.589
598.4426, 6468.071
598.9247, 6478.565
599.4068, 6501.190
599.8889, 6529.763
600.3710, 6552.397
600.8531, 6569.521
601.3353, 6593.789
601.8174, 6635.199
602.2995, 6668.722
602.7816, 6661.232
603.2637, 6608.249
603.7458, 6576.583
604.2280, 6584.550
604.7101, 6591.760
605.1922, 6588.479
605.6743, 6574.556
606.1564, 6543.857
606.6385, 6498.658
607.1207, 6460.833
607.6028, 6459.222
608.0849, 6481.627
608.5670, 6470.956
609.0491, 6421.324
609.5313, 6369.087
610.0134, 6321.773
610.4955, 6284.247
610.9776, 6269.632
611.4597, 6281.014
611.9418, 6277.968
612.4240, 6239.823
612.9061, 6199.748
613.3882, 6179.794
613.8703, 6171.863
614.3524, 6158.278
614.8345, 6133.043
615.3167, 6107.037
615.7988, 6098.765
616.2809, 6107.807
616.7630, 6095.288
617.2451, 6053.802
617.7272, 6008.675
618.2094, 5971.683
618.6915, 5937.392
619.1736, 5893.315
619.6557, 5833.301
620.1378, 5791.654
620.6199, 5787.436
621.1021, 5798.391
621.5842, 5813.217
622.0663, 5826.763
622.5484, 5829.295
623.0305, 5816.220
623.5126, 5795.934
623.9948, 5783.740
624.4769, 5781.775
624.9590, 5769.382
625.4411, 5738.261
625.9232, 5709.794
626.4053, 5693.495
626.8875, 5687.201
627.3696, 5690.991
627.8517, 5709.232
628.3338, 5722.494
628.8159, 5716.382
629.2980, 5705.566
629.7802, 5705.460
630.2623, 5715.436
630.7444, 5728.302
631.2265, 5740.423
631.7086, 5750.471
632.1907, 5754.725
632.6729, 5751.167
633.1550, 5751.071
633.6371, 5753.762
634.1192, 5761.680
634.6013, 5780.013
635.0834, 5803.217
635.5656, 5821.899
636.0477, 5835.171
636.5298, 5842.145
637.0119, 5837.951
637.4940, 5829.874
637.9761, 5824.832
638.4583, 5824.168
638.9404, 5828.353
639.4225, 5837.524
639.9046, 5852.519
640.3867, 5880.793
640.8688, 5932.667
641.3510, 5950.355
641.8331, 5893.835
642.3152, 5849.579
642.7973, 5885.179
643.2794, 5962.089
643.7615, 6003.318
644.2437, 5982.602
644.7258, 5957.589
645.2079, 5948.496
645.6900, 5955.337
646.1721, 5989.925
646.6542, 6043.835
647.1364, 6079.666
647.6185, 6073.035
648.1006, 6044.760
648.5827, 6047.181
649.0648, 6091.052
649.5469, 6112.898
650.0291, 6091.402
650.5112, 6069.595
650.9933, 6075.506
651.4754, 6098.154
651.9575, 6114.566
652.4396, 6111.337
652.9218, 6126.320
653.4039, 6193.427
653.8860, 6275.875
654.3681, 6340.989
654.8502, 6383.567
655.3323, 6398.085
655.8145, 6377.815
656.2966, 6352.786
656.7787, 6395.013
657.2608, 6518.710
657.7429, 6607.979
658.2250, 6631.116
658.7072, 6657.999
659.1893, 6742.509
659.6714, 6857.690
660.1535, 6951.466
660.6356, 7011.614
661.1177, 7070.494
661.5999, 7132.958
662.0820, 7203.582
662.5641, 7287.066
663.0462, 7382.601
663.5283, 7489.037
664.0104, 7606.850
664.4926, 7727.292
664.9747, 7840.507
665.4568, 7946.448
665.9389, 8027.453
666.4210, 8071.266
666.9031, 8119.977
667.3853, 8214.006
667.8674, 8322.740
668.3495, 8372.067
668.8316, 8333.798
669.3137, 8315.577
669.7958, 8355.489
670.2780, 8406.707
670.7601, 8450.748
671.2422, 8477.331
671.7243, 8469.239
672.2064, 8419.115
672.6885, 8350.711
673.1707, 8293.548
673.6528, 8245.086
674.1349, 8193.007
674.6170, 8139.243
675.0991, 8065.496
675.5812, 7955.125
676.0634, 7827.853
676.5455, 7725.483
677.0276, 7666.722
677.5097, 7575.742
677.9918, 7414.424
678.4739, 7259.172
678.9561, 7146.405
679.4382, 7062.496
679.9203, 6986.592
680.4024, 6912.295
680.8845, 6839.123
681.3666, 6764.996
681.8488, 6691.536
682.3309, 6626.025
682.8130, 6567.369
683.2951, 6498.963
683.7772, 6409.329
684.2593, 6322.810
684.7415, 6276.184
685.2236, 6276.942
685.7057, 6272.127
686.1878, 6265.219
686.6699, 6248.485
687.1520, 6217.635
687.6342, 6177.735
688.1163, 6128.449
688.5984, 6072.251
689.0805, 6027.395
689.5626, 6013.372
690.0447, 6008.841
690.5269, 5987.003
691.0090, 5953.920
691.4911, 5931.012
691.9732, 5923.961
692.4553, 5913.247
692.9374, 5875.167
693.4196, 5813.732
693.9017, 5781.379
694.3838, 5794.181
694.8659, 5800.849
695.3480, 5788.020
695.8301, 5767.279
696.3123, 5747.487
696.7944, 5727.771
697.2765, 5702.039
697.7586, 5657.098
698.2407, 5619.668
698.7228, 5607.344
699.2050, 5609.305
699.6871, 5616.109
700.1692, 5628.220
700.6513, 5646.770
701.1334, 5653.023
701.6155, 5647.640
702.0977, 5595.766
702.5798, 5603.925
703.0619, 5588.025
703.5440, 5571.139
704.0261, 5587.746
704.5082, 5542.636
704.9904, 5558.709
705.4725, 5550.361
705.9546, 5553.190
706.4367, 5531.813
706.9188, 5488.145
707.4009, 5478.341
707.8831, 5472.757
708.3652, 5466.226
708.8473, 5446.551
709.3294, 5407.946
709.8115, 5367.344
710.2936, 5341.413
710.7758, 5327.869
711.2579, 5322.212
711.7400, 5323.859
712.2221, 5328.457
712.7042, 5335.240
713.1863, 5339.669
713.6685, 5332.428
714.1506, 5308.625
714.6327, 5294.832
715.1148, 5306.564
715.5969, 5308.993
716.0790, 5279.146
716.5612, 5243.205
717.0433, 5232.461
717.5254, 5250.054
718.0075, 5267.032
718.4896, 5268.726
718.9717, 5265.893
719.4539, 5268.340
719.9360, 5240.690
720.4181, 5266.638
720.9002, 5280.289
721.3823, 5282.303
721.8644, 5237.829
722.3465, 5253.385
722.8286, 5244.883
723.3107, 5235.396
723.7928, 5259.401
724.2750, 5221.688
724.7571, 5245.162
725.2392, 5244.211
725.7213, 5254.439
726.2034, 5240.461
726.6855, 5233.960
727.1677, 5251.671
727.6498, 5255.977
728.1319, 5239.212
728.6140, 5250.150
729.0961, 5211.592
729.5782, 5216.468
730.0604, 5240.083
730.5425, 5224.536
731.0246, 5196.135
731.5067, 5174.074
731.9888, 5164.131
732.4709, 5165.949
732.9531, 5169.261
733.4352, 5167.879
733.9173, 5167.680
734.3994, 5182.233
734.8815, 5218.889
735.3636, 5238.185
735.8458, 5226.763
736.3279, 5216.784
736.8100, 5228.514
737.2921, 5242.431
737.7742, 5229.031
738.2563, 5185.104
738.7385, 5162.925
739.2206, 5199.988
739.7027, 5243.298
740.1848, 5261.159
740.6669, 5248.014
741.1490, 5275.395
741.6312, 5290.479
742.1133, 5293.927
742.5954, 5250.887
743.0775, 5267.876
743.5596, 5260.809
744.0417, 5252.755
744.5239, 5278.194
745.0060, 5241.915
745.4881, 5266.823
745.9702, 5267.306
746.4523, 5278.967
746.9344, 5266.423
747.4166, 5261.355
747.8987, 5280.501
748.3808, 5232.566
748.8629, 5215.127
749.3450, 5200.899
749.8271, 5190.696
750.3093, 5186.839
750.7914, 5191.419
751.2735, 5193.946
751.7556, 5183.477
752.2377, 5170.977
752.7198, 5172.893
753.2020, 5184.051
753.6841, 5187.262
754.1662, 5176.101
754.6483, 5157.025
755.1304, 5131.828
755.6125, 5104.424
756.0947, 5114.239
756.5768, 5171.052
757.0589, 5199.418
757.5410, 5163.337
758.0231, 5114.101
758.5052, 5110.151
758.9874, 5151.020
759.4695, 5169.801
759.9516, 5151.349
760.4337, 5133.855
760.9158, 5123.268
761.3979, 5115.716
761.8801, 5112.253
762.3622, 5109.151
762.8443, 5096.594
763.3264, 5068.159
763.8085, 5037.237
764.2906, 5017.127
764.7728, 4999.762
765.2549, 4968.458
765.7370, 4926.598
766.2191, 4891.210
766.7012, 4869.912
767.1833, 4869.182
767.6655, 4910.493
768.1476, 4993.452
768.6297, 5035.315
769.1118, 5026.569
769.5939, 5015.682
770.0760, 5016.548
770.5582, 5029.258
771.0403, 5060.877
771.5224, 5115.555
772.0045, 5137.202
772.4866, 5102.608
772.9688, 5066.904
773.4509, 5037.079
773.9330, 5015.235
774.4151, 4997.272
774.8972, 4987.834
775.3793, 5005.106
775.8615, 5071.245
776.3436, 5135.240
776.8257, 5152.630
777.3078, 5143.250
777.7899, 5138.589
778.2720, 5139.316
778.7542, 5126.463
779.2363, 5089.330
779.7184, 5048.575
780.2005, 5040.393
780.6826, 5063.522
781.1647, 5081.375
781.6469, 5092.462
782.1290, 5102.467
782.6111, 5114.269
783.0932, 5124.790
783.5753, 5128.608
784.0574, 5124.445
784.5396, 5126.256
785.0217, 5137.946
785.5038, 5150.128
785.9859, 5163.850
786.4680, 5175.148
786.9501, 5178.276
787.4323, 5175.810
787.9144, 5179.220
788.3965, 5200.903
788.8786, 5213.041
789.3607, 5183.341
789.8428, 5143.623
790.3250, 5140.951
790.8071, 5166.709
791.2892, 5175.461
791.7713, 5145.498
792.2534, 5106.037
792.7355, 5097.781
793.2177, 5114.954
793.6998, 5131.216
794.1819, 5146.227
794.6640, 5150.543
795.1461, 5141.607
795.6282, 5115.650
796.1104, 5061.011
796.5925, 4977.928
797.0746, 4940.819
797.5567, 4987.572
798.0388, 5015.219
798.5209, 4980.912
799.0031, 4945.591
799.4852, 4952.312
799.9673, 4989.977
800.4494, 5021.083
800.9315, 5036.093
801.4136, 5050.753
801.8958, 5069.388
802.3779, 5091.054
802.8600, 5127.081
803.3421, 5162.717
803.8242, 5158.795
804.3063, 5103.998
804.7885, 5058.868
805.2706, 5097.424
805.7527, 5173.741
806.2348, 5205.335
806.7169, 5197.360
807.1990, 5170.827
807.6812, 5132.205
808.1633, 5104.308
808.6454, 5110.537
809.1275, 5142.956
809.6096, 5169.901
810.0917, 5192.666
810.5739, 5200.750
811.0560, 5187.072
811.5381, 5170.584
812.0202, 5166.020
812.5023, 5166.447
812.9844, 5151.268
813.4666, 5106.430
813.9487, 5081.852
814.4308, 5093.558
814.9129, 5108.858
815.3950, 5118.673
815.8771, 5122.347
816.3593, 5116.474
816.8414, 5102.112
817.3235, 5093.848
817.8056, 5110.213
818.2877, 5122.784
818.7698, 5102.582
819.2520, 5069.268
819.7341, 5053.290
820.2162, 5055.335
820.6983, 5053.991
821.1804, 5034.944
821.6625, 5016.311
822.1447, 5030.828
822.6268, 5069.854
823.1089, 5099.815
823.5910, 5118.178
824.0731, 5118.429
824.5552, 5094.846
825.0374, 5066.838
825.5195, 5062.687
826.0016, 5082.617
826.4837, 5105.696
826.9658, 5137.807
827.4479, 5157.618
827.9301, 5154.838
828.4122, 5144.439
828.8943, 5137.262
829.3764, 5133.155
829.8585, 5131.353
830.3406, 5134.717
830.8228, 5135.708
831.3049, 5127.454
831.7870, 5122.519
832.2691, 5132.392
832.7512, 5149.224
833.2333, 5159.828
833.7155, 5161.075
834.1976, 5158.551
834.6797, 5152.338
835.1618, 5146.557
835.6439, 5147.502
836.1260, 5150.622
836.6082, 5144.474
837.0903, 5129.614
837.5724, 5122.071
838.0545, 5135.188
838.5366, 5156.311
839.0187, 5162.325
839.5009, 5156.982
839.9830, 5159.352
840.4651, 5171.126
840.9472, 5176.586
841.4293, 5165.583
841.9114, 5155.354
842.3936, 5179.765
842.8757, 5241.961
843.3578, 5264.516
843.8399, 5231.884
844.3220, 5205.055
844.8041, 5200.178
845.2863, 5208.235
845.7684, 5225.081
846.2505, 5248.967
846.7326, 5263.251
847.2147, 5267.674
847.6968, 5263.391
848.1790, 5230.242
848.6611, 5209.182
849.1432, 5239.414
849.6253, 5290.953
850.1074, 5306.287
850.5895, 5271.475
851.0717, 5252.109
851.5538, 5293.019
852.0359, 5340.031
852.5180, 5348.512
853.0001, 5343.808
853.4822, 5368.427
853.9644, 5422.079
854.4465, 5465.877
854.9286, 5472.773
855.4107, 5471.130
855.8928, 5503.390
856.3749, 5550.128
856.8571, 5562.204
857.3392, 5542.576
857.8213, 5531.725
858.3034, 5547.848
858.7855, 5579.986
859.2676, 5617.290
859.7498, 5657.870
860.2319, 5686.015
860.7140, 5700.402
861.1961, 5728.042
861.6782, 5778.242
862.1603, 5831.627
862.6425, 5872.496
863.1245, 5902.731
863.6066, 5926.276
864.0887, 5931.091
864.5709, 5963.347
865.0530, 6046.521
865.5351, 6124.154
866.0172, 6171.155
866.4993, 6197.791
866.9814, 6217.460
867.4636, 6229.791
867.9457, 6239.725
868.4278, 6240.051
868.9099, 6247.895
869.3920, 6272.109
869.8741, 6302.138
870.3563, 6340.626
870.8384, 6376.733
871.3205, 6378.879
871.8026, 6323.779
872.2847, 6282.469
872.7668, 6295.463
873.2490, 6334.875
873.7311, 6394.331
874.2132, 6454.887
874.6953, 6480.520
875.1774, 6467.413
875.6595, 6454.786
876.1417, 6474.035
876.6238, 6505.991
877.1059, 6522.819
877.5880, 6532.322
878.0701, 6555.941
878.5522, 6593.586
879.0344, 6626.445
879.5165, 6644.304
879.9986, 6655.110
880.4807, 6670.128
880.9628, 6688.798
881.4449, 6707.459
881.9271, 6726.115
882.4092, 6746.643
882.8913, 6769.167
883.3734, 6798.269
883.8555, 6841.325
884.3376, 6891.504
884.8198, 6914.600
885.3019, 6901.417
885.7840, 6901.282
886.2661, 6929.168
886.7482, 6943.879
887.2303, 6913.382
887.7125, 6868.813
888.1946, 6862.255
888.6767, 6899.353
889.1588, 6933.700
889.6409, 6967.343
890.1230, 6995.309
890.6052, 7025.171
891.0873, 7041.299
891.5694, 7026.029
892.0515, 6988.510
892.5336, 6954.003
893.0157, 6924.589
893.4979, 6902.948
893.9800, 6914.664
894.4621, 6907.430
894.9442, 6830.794
895.4263, 6728.634
895.9084, 6663.053
896.3906, 6638.586
896.8727, 6609.957
897.3548, 6543.728
897.8369, 6484.757
898.3190, 6481.078
898.8011, 6489.901
899.2833, 6453.982
899.7654, 6385.508
900.2475, 6332.811
900.7296, 6313.670
901.2117, 6299.267
901.6938, 6254.943
902.1760, 6204.383
902.6581, 6184.403
903.1402, 6189.062
903.6223, 6206.058
904.1044, 6230.446
904.5865, 6249.873
905.0687, 6254.883
905.5508, 6258.076
906.0329, 6287.670
906.5150, 6335.360
906.9971, 6355.970
907.4792, 6348.938
907.9614, 6345.831
908.4435, 6357.374
908.9256, 6382.588
909.4077, 6424.924
909.8898, 6476.365
910.3719, 6497.807
910.8541, 6485.635
911.3362, 6563.307
911.8183, 6540.953
912.3004, 6517.489
912.7825, 6493.662
913.2646, 6430.253
913.7468, 6447.105
914.2289, 6449.617
914.7110, 6463.743
915.1931, 6528.273
915.6752, 6536.089
916.1573, 6410.982
916.6395, 6383.792
917.1216, 6372.992
917.6037, 6370.917
918.0858, 6349.569
918.5679, 6288.986
919.0500, 6254.021
919.5322, 6269.896
920.0143, 6280.327
920.4964, 6263.676
920.9785, 6235.542
921.4606, 6210.721
921.9427, 6189.422
922.4249, 6166.715
922.9070, 6143.986
923.3891, 6116.391
923.8712, 6078.272
924.3533, 6039.518
924.8354, 6001.918
925.3176, 5970.110
925.7997, 5956.979
926.2818, 5963.634
926.7639, 5954.698
927.2460, 5893.165
927.7281, 5839.068
928.2103, 5843.610
928.6924, 5859.056
929.1745, 5823.593
929.6566, 5755.007
930.1387, 5718.450
930.6208, 5739.491
931.1030, 5760.550
931.5851, 5740.000
932.0672, 5701.317
932.5493, 5659.925
933.0314, 5621.171
933.5135, 5591.825
933.9957, 5572.982
934.4778, 5563.487
934.9599, 5564.986
935.4420, 5565.495
935.9241, 5544.938
936.4063, 5518.279
936.8884, 5515.472
937.3705, 5529.885
937.8526, 5537.410
938.3347, 5531.181
938.8168, 5519.328
939.2990, 5509.490
939.7811, 5496.089
940.2632, 5461.928
940.7453, 5416.301
941.2274, 5394.739
941.7095, 5396.760
942.1917, 5390.706
942.6738, 5363.340
943.1559, 5338.112
943.6380, 5344.609
944.1201, 5373.837
944.6022, 5400.608
945.0844, 5423.280
945.5665, 5421.169
946.0486, 5390.848
946.5307, 5357.064
947.0128, 5333.147
947.4949, 5318.815
947.9771, 5312.822
948.4592, 5315.552
948.9413, 5336.735
949.4234, 5378.905
949.9055, 5409.008
950.3876, 5420.228
950.8698, 5411.935
951.3519, 5378.628
951.8340, 5335.174
952.3161, 5322.841
952.7982, 5348.525
953.2803, 5352.018
953.7625, 5323.088
954.2446, 5312.924
954.7267, 5344.109
955.2088, 5381.970
955.6909, 5393.063
956.1730, 5383.993
956.6552, 5384.332
957.1373, 5396.362
957.6194, 5412.649
958.1015, 5443.598
958.5836, 5453.279
959.0657, 5407.806
959.5479, 5361.547
960.0300, 5387.018
960.5121, 5476.755
960.9942, 5523.451
961.4763, 5497.905
961.9584, 5489.181
962.4406, 5511.242
962.9227, 5539.183
963.4048, 5563.552
963.8869, 5585.827
964.3690, 5612.328
964.8511, 5645.080
965.3333, 5650.564
965.8154, 5606.534
966.2975, 5568.236
966.7796, 5549.322
967.2617, 5528.607
967.7438, 5490.230
968.2260, 5444.098
968.7081, 5403.430
969.1902, 5365.005
969.6723, 5357.055
970.1544, 5420.809
970.6365, 5461.008
971.1187, 5435.324
971.6008, 5400.527
972.0829, 5388.365
972.5650, 5398.722
973.0471, 5432.247
973.5292, 5497.779
974.0114, 5546.158
974.4935, 5552.223
974.9756, 5563.354
975.4577, 5600.894
975.9398, 5645.134
976.4219, 5683.041
976.9041, 5712.819
977.3862, 5730.831
977.8683, 5732.516
978.3504, 5736.333
978.8325, 5744.842
979.3146, 5758.303
979.7968, 5782.069
980.2789, 5806.845
980.7610, 5824.113
981.2431, 5833.926
981.7252, 5838.552
982.2073, 5834.429
982.6895, 5836.383
983.1716, 5860.362
983.6537, 5878.552
984.1358, 5874.775
984.6179, 5857.266
985.1000, 5837.125
985.5822, 5813.909
986.0643, 5777.146
986.5464, 5714.038
987.0285, 5659.515
987.5106, 5628.284
987.9927, 5608.083
988.4749, 5602.980
988.9570, 5596.863
989.4391, 5566.361
989.9212, 5512.368
990.4033, 5459.059
990.8854, 5408.504
991.3676, 5371.042
991.8497, 5349.964
992.3318, 5344.591
992.8139, 5357.709
993.2960, 5384.292
993.7781, 5427.754
994.2603, 5482.172
994.7424, 5507.667
995.2245, 5459.460
995.7066, 5427.915
996.1887, 5470.381
996.6708, 5530.410
997.1530, 5583.103
997.6351, 5613.029
998.1172, 5591.414
998.5993, 5519.892
999.0814, 5459.352
999.5635, 5446.626
1000.046, 5433.361
1000.528, 5383.322
1001.010, 5335.723
1001.492, 5324.338
1001.974, 5338.349
1002.456, 5360.550
1002.938, 5386.004
1003.420, 5402.749
1003.903, 5404.809
1004.385, 5398.220
1004.867, 5373.502
1005.349, 5352.729
1005.831, 5362.778
1006.313, 5387.609
1006.795, 5395.034
1007.277, 5379.978
1007.759, 5367.964
1008.242, 5365.069
1008.724, 5374.139
1009.206, 5415.794
1009.688, 5452.200
1010.170, 5441.858
1010.652, 5405.905
1011.134, 5385.210
1011.616, 5387.772
1012.099, 5396.034
1012.581, 5408.820
1013.063, 5418.194
1013.545, 5406.324
1014.027, 5402.797
1014.509, 5444.630
1014.991, 5507.992
1015.473, 5547.986
1015.955, 5556.415
1016.438, 5558.881
1016.920, 5565.470
1017.402, 5566.960
1017.884, 5547.644
1018.366, 5532.918
1018.848, 5547.850
1019.330, 5579.649
1019.812, 5610.206
1020.294, 5635.526
1020.777, 5638.380
1021.259, 5588.778
1021.741, 5549.080
1022.223, 5541.469
1022.705, 5552.146
1023.187, 5582.757
1023.669, 5619.110
1024.151, 5637.405
1024.634, 5634.598
1025.116, 5637.891
1025.598, 5677.348
1026.080, 5691.603
1026.562, 5630.806
1027.044, 5572.022
1027.526, 5570.990
1028.008, 5604.225
1028.490, 5636.871
1028.973, 5664.755
1029.455, 5676.302
1029.937, 5662.687
1030.419, 5642.135
1030.901, 5601.324
1031.383, 5573.173
1031.865, 5591.056
1032.347, 5626.224
1032.830, 5633.332
1033.312, 5609.862
1033.794, 5597.698
1034.276, 5604.687
1034.758, 5618.199
1035.240, 5648.329
1035.722, 5671.313
1036.204, 5671.094
1036.687, 5659.647
1037.169, 5655.000
1037.651, 5657.091
1038.133, 5647.057
1038.615, 5595.589
1039.097, 5577.891
1039.579, 5624.104
1040.061, 5669.665
1040.543, 5686.479
1041.026, 5690.612
1041.508, 5700.575
1041.990, 5715.543
1042.472, 5726.801
1042.954, 5744.489
1043.436, 5733.829
1043.918, 5658.313
1044.400, 5619.093
1044.882, 5675.226
1045.365, 5758.317
1045.847, 5799.762
1046.329, 5803.250
1046.811, 5787.551
1047.293, 5737.875
1047.775, 5719.086
1048.257, 5746.609
1048.739, 5765.992
1049.222, 5753.494
1049.704, 5738.857
1050.186, 5753.929
1050.668, 5786.383
1051.150, 5788.072
1051.632, 5751.857
1052.114, 5731.139
1052.596, 5728.843
1053.078, 5733.505
1053.561, 5744.189
1054.043, 5748.462
1054.525, 5732.638
1055.007, 5711.287
1055.489, 5728.333
1055.971, 5783.702
1056.453, 5798.160
1056.935, 5769.670
1057.417, 5754.727
1057.900, 5767.680
1058.382, 5779.555
1058.864, 5769.581
1059.346, 5750.482
1059.828, 5746.684
1060.310, 5754.339
1060.792, 5749.863
1061.274, 5735.159
1061.757, 5726.251
1062.239, 5725.198
1062.721, 5717.200
1063.203, 5693.459
1063.685, 5669.071
1064.167, 5676.592
1064.649, 5691.810
1065.131, 5638.240
1065.614, 5543.991
1066.096, 5499.373
1066.578, 5506.394
1067.060, 5506.458
1067.542, 5474.723
1068.024, 5445.308
1068.506, 5461.977
1068.988, 5487.825
1069.470, 5463.721
1069.953, 5415.892
1070.435, 5392.720
1070.917, 5387.968
1071.399, 5363.442
1071.881, 5310.607
1072.363, 5270.684
1072.845, 5275.343
1073.327, 5297.566
1073.809, 5328.883
1074.292, 5353.533
1074.774, 5340.384
1075.256, 5312.902
1075.738, 5322.871
1076.220, 5372.675
1076.702, 5404.173
1077.184, 5374.736
1077.666, 5359.008
1078.148, 5412.317
1078.631, 5471.442
1079.113, 5490.567
1079.595, 5490.220
1080.077, 5502.508
1080.559, 5524.482
1081.041, 5523.439
1081.523, 5471.113
1082.005, 5451.740
1082.488, 5505.887
1082.970, 5567.630
1083.452, 5621.231
1083.934, 5662.839
1084.416, 5691.321
1084.898, 5705.403
1085.380, 5694.568
1085.862, 5638.935
1086.344, 5633.655
1086.827, 5733.973
1087.309, 5788.361
1087.791, 5745.057
1088.273, 5685.455
1088.755, 5659.067
1089.237, 5649.307
1089.719, 5624.693
1090.201, 5584.726
1090.683, 5567.157
1091.166, 5579.346
1091.648, 5584.091
1092.130, 5576.614
1092.612, 5562.976
1093.094, 5547.649
1093.576, 5519.889
1094.058, 5462.708
1094.540, 5385.988
1095.023, 5332.373
1095.505, 5300.633
1095.987, 5255.707
1096.469, 5196.417
1096.951, 5164.020
1097.433, 5171.612
1097.915, 5182.738
1098.397, 5166.341
1098.880, 5136.912
1099.362, 5121.968
1099.844, 5114.527
1100.326, 5089.048
1100.808, 5053.938
1101.290, 5042.048
1101.772, 5056.318
1102.254, 5074.513
1102.736, 5085.583
1103.219, 5084.332
1103.701, 5057.418
1104.183, 5022.745
1104.665, 5001.516
1105.147, 4986.942
1105.629, 4961.706
1106.111, 4933.532
1106.593, 4931.970
1107.075, 4965.917
1107.558, 4995.098
1108.040, 4991.350
1108.522, 4985.406
1109.004, 5002.579
1109.486, 5015.515
1109.968, 4983.578
1110.450, 4941.148
1110.932, 4956.417
1111.415, 5029.350
1111.897, 5066.168
1112.379, 5012.189
1112.861, 4980.929
1113.343, 5019.085
1113.825, 5043.340
1114.307, 5001.044
1114.789, 4946.333
1115.271, 4927.359
1115.754, 4936.208
1116.236, 4945.685
1116.718, 4956.528
1117.200, 4964.511
1117.682, 4967.854
1118.164, 4974.542
1118.646, 4988.462
1119.128, 4999.711
1119.610, 5002.604
1120.093, 4997.246
1120.575, 4981.429
1121.057, 4957.604
1121.539, 4948.923
1122.021, 4954.315
1122.503, 4944.359
1122.985, 4917.173
1123.467, 4904.159
1123.950, 4918.063
1124.432, 4944.852
1124.914, 4977.910
1125.396, 4999.191
1125.878, 4963.126
1126.360, 4897.255
1126.842, 4852.869
1127.324, 4834.145
1127.807, 4847.690
1128.289, 4888.143
1128.771, 4927.091
1129.253, 4951.110
1129.735, 4960.998
1130.217, 4948.410
1130.699, 4931.454
1131.181, 4927.043
1131.663, 4926.067
1132.146, 4912.340
1132.628, 4893.115
1133.110, 4892.263
1133.592, 4916.124
1134.074, 4930.984
1134.556, 4918.858
1135.038, 4908.782
1135.520, 4917.849
1136.002, 4920.592
1136.485, 4892.131
1136.967, 4856.112
1137.449, 4843.792
1137.931, 4852.192
1138.413, 4858.957
1138.895, 4865.791
1139.377, 4864.373
1139.859, 4847.405
1140.342, 4847.737
1140.824, 4883.158
1141.306, 4906.739
1141.788, 4878.651
1142.270, 4829.364
1142.752, 4823.776
1143.234, 4853.963
1143.716, 4847.069
1144.198, 4809.170
1144.681, 4802.530
1145.163, 4832.026
1145.645, 4854.072
1146.127, 4850.882
1146.609, 4847.952
1147.091, 4874.493
1147.573, 4904.331
1148.055, 4892.268
1148.537, 4863.785
1149.020, 4861.759
1149.502, 4875.466
1149.984, 4871.464
1150.466, 4850.334
1150.948, 4847.881
1151.430, 4884.792
1151.912, 4917.127
1152.394, 4922.310
1152.877, 4916.027
1153.359, 4891.191
1153.841, 4873.043
1154.323, 4892.785
1154.805, 4933.365
1155.287, 4958.940
1155.769, 4966.456
1156.251, 4961.361
1156.734, 4930.711
1157.216, 4913.832
1157.698, 4920.999
1158.180, 4926.595
1158.662, 4943.233
1159.144, 4958.150
1159.626, 4962.302
1160.108, 4956.345
1160.590, 4905.431
1161.073, 4916.063
1161.555, 4904.183
1162.037, 4892.848
1162.519, 4916.535
1163.001, 4880.034
1163.483, 4906.250
1163.965, 4909.570
1164.447, 4925.600
1164.929, 4918.952
1165.412, 4921.327
1165.894, 4949.434
1166.376, 4965.661
1166.858, 4962.351
1167.340, 4883.751
1167.822, 4869.091
1168.304, 4859.396
1168.786, 4852.685
1169.269, 4848.130
1169.751, 4846.457
1170.233, 4849.188
1170.715, 4853.545
1171.197, 4864.674
1171.679, 4870.818
1172.161, 4849.434
1172.643, 4817.937
1173.125, 4822.366
1173.608, 4868.374
1174.090, 4902.336
1174.572, 4925.414
1175.054, 4932.980
1175.536, 4919.991
1176.018, 4903.264
1176.500, 4887.139
1176.982, 4878.332
1177.464, 4885.907
1177.947, 4899.796
1178.429, 4892.517
1178.911, 4867.479
1179.393, 4843.867
1179.875, 4824.288
1180.357, 4821.481
1180.839, 4836.448
1181.321, 4867.222
1181.804, 4912.094
1182.286, 4939.329
1182.768, 4908.688
1183.250, 4865.150
1183.732, 4851.451
1184.214, 4852.742
1184.696, 4851.526
1185.178, 4854.029
1185.661, 4882.330
1186.143, 4928.985
1186.625, 4944.842
1187.107, 4901.188
1187.589, 4880.335
1188.071, 4926.291
1188.553, 4956.273
1189.035, 4937.434
1189.517, 4910.851
1190.000, 4897.038
1190.482, 4891.513
1190.964, 4885.286
1191.446, 4881.415
1191.928, 4914.935
1192.410, 4990.831
1192.892, 5005.814
1193.374, 4953.493
1193.856, 4902.904
1194.339, 4873.949
1194.821, 4870.211
1195.303, 4895.517
1195.785, 4932.586
1196.267, 4965.372
1196.749, 4990.481
1197.231, 5002.519
1197.713, 5003.352
1198.196, 4988.426
1198.678, 4967.432
1199.160, 4965.372
1199.642, 4984.233
1200.124, 4990.834
1200.606, 4962.484
1201.088, 4941.512
1201.570, 4956.646
1202.052, 4962.887
1202.535, 4927.374
1203.017, 4887.301
1203.499, 4871.140
1203.981, 4872.796
1204.463, 4883.068
1204.945, 4901.868
1205.427, 4908.995
1205.909, 4902.171
1206.391, 4898.933
1206.874, 4900.417
1207.356, 4917.249
1207.838, 4953.358
1208.320, 4981.886
1208.802, 4980.397
1209.284, 4971.062
1209.766, 4992.985
1210.248, 5080.288
1210.731, 5061.622
1211.213, 5042.561
1211.695, 5023.384
1212.177, 4986.205
1212.659, 4985.666
1213.141, 4978.635
1213.623, 4976.946
1214.105, 4998.281
1214.588, 4993.844
1215.070, 5026.611
1215.552, 5052.704
1216.034, 5090.379
1216.516, 4963.566
1216.998, 4980.823
1217.480, 5031.106
1217.962, 5035.107
1218.444, 4993.417
1218.927, 4989.435
1219.409, 5026.426
1219.891, 5067.803
1220.373, 5110.365
1220.855, 5114.650
1221.337, 5069.068
1221.819, 5024.918
1222.301, 5020.889
1222.783, 5033.674
1223.266, 5035.134
1223.748, 5032.731
1224.230, 5036.522
1224.712, 5043.814
1225.194, 5047.584
1225.676, 5051.906
1226.158, 5075.144
1226.640, 5116.621
1227.122, 5127.748
1227.605, 5064.891
1228.087, 5026.142
1228.569, 4994.052
1229.051, 5055.677
1229.533, 5090.495
1230.015, 5099.948
1230.497, 5008.061
1230.979, 5047.033
1231.462, 5033.563
1231.944, 5017.942
1232.426, 5075.332
1232.908, 4998.185
1233.390, 5054.417
1233.872, 5057.406
1234.354, 5084.763
1234.836, 5059.354
1235.318, 5050.243
1235.801, 5093.916
1236.283, 5108.361
1236.765, 5076.878
1237.247, 5105.784
1237.729, 5026.793
1238.211, 5042.483
1238.693, 5099.024
1239.175, 5070.194
1239.657, 5100.064
1240.140, 5107.580
1240.622, 5013.493
1241.104, 5096.100
1241.586, 5102.293
1242.068, 5030.025
1242.550, 5106.578
1243.032, 5045.126
1243.514, 5032.935
1243.997, 5057.814
1244.479, 5044.047
1244.961, 5091.209
1245.443, 5079.674
1245.925, 5062.896
1246.407, 5069.002
1246.889, 5010.257
1247.371, 5071.827
1247.854, 5051.211
1248.336, 5004.832
1248.818, 4991.380
1249.300, 5058.961
1249.782, 5110.060
1250.264, 5085.796
1250.746, 5067.711
1251.228, 5092.178
1251.710, 5111.567
1252.193, 5103.581
1252.675, 5082.987
1253.157, 5056.375
1253.639, 5031.735
1254.121, 5027.379
1254.603, 5041.612
1255.085, 5054.814
1255.567, 5067.029
1256.049, 5085.656
1256.532, 5106.055
1257.014, 5080.490
1257.496, 5005.699
1257.978, 4972.190
1258.460, 5041.647
1258.942, 5106.527
1259.424, 5049.023
1259.906, 4984.926
1260.389, 5015.517
1260.871, 5064.575
1261.353, 5060.911
1261.835, 5029.696
1262.317, 5009.265
1262.799, 5005.119
1263.281, 5036.682
1263.763, 5124.007
1264.245, 5157.596
1264.728, 5125.963
1265.210, 5109.692
1265.692, 5123.847
1266.174, 5122.026
1266.656, 5083.242
1267.138, 5057.940
1267.620, 5100.605
1268.102, 5157.472
1268.584, 5142.839
1269.067, 5105.261
1269.549, 5115.352
1270.031, 5141.762
1270.513, 5146.813
1270.995, 5128.476
##END=



