##NAMES=Fetiasite
##RRUFFID=R100014
##IDEAL CHEMISTRY=(Fe^2+^,Fe^3+^,Ti^4+^)_3_O_2_As^3+^_2_O_5_
##LOCALITY=Gorb, Binnental, Valais, Switzerland
##OWNER=RRUFF
##SOURCE=William Pinch
##DESCRIPTION=Brown to reddish-brown platy massive
##STATUS=The identification of this mineral has been confirmed by single-crystal X-ray diffraction.
##URL=rruff.info/R100014
89.60352, 20.65999
90.08563, 21.37863
90.56775, 21.51856
91.04987, 20.71774
91.53198, 19.66928
92.01410, 19.25600
92.49622, 19.45386
92.97833, 19.89002
93.46045, 20.47284
93.94257, 21.08490
94.42468, 21.30087
94.90680, 20.72936
95.38892, 19.64896
95.87103, 18.88773
96.35315, 18.46576
96.83527, 18.30716
97.31738, 18.41409
97.79950, 18.79703
98.28162, 19.11328
98.76373, 19.25213
99.24585, 19.21443
99.72797, 18.86638
100.2101, 18.07374
100.6922, 17.09157
101.1743, 16.50818
101.6564, 16.37545
102.1385, 16.48636
102.6207, 16.77172
103.1028, 17.31279
103.5849, 17.81153
104.0670, 18.45857
104.5491, 19.11917
105.0313, 18.62136
105.5134, 15.98442
105.9955, 13.20043
106.4776, 11.83077
106.9597, 12.97086
107.4418, 13.99232
107.9240, 14.43501
108.4061, 14.20059
108.8882, 14.15474
109.3703, 14.57709
109.8524, 15.08286
110.3345, 15.26215
110.8167, 14.79736
111.2988, 14.29076
111.7809, 13.84818
112.2630, 13.42422
112.7451, 13.21982
113.2272, 13.47732
113.7094, 13.94628
114.1915, 14.21588
114.6736, 14.02197
115.1557, 13.72323
115.6378, 13.51770
116.1199, 13.59320
116.6021, 13.48801
117.0842, 12.81194
117.5663, 11.77836
118.0484, 11.02811
118.5305, 10.93650
119.0126, 11.19242
119.4948, 11.56847
119.9769, 12.27261
120.4590, 12.80656
120.9411, 12.62272
121.4232, 11.83176
121.9053, 11.26693
122.3875, 11.84083
122.8696, 12.89453
123.3517, 13.51308
123.8338, 12.97427
124.3159, 12.02234
124.7980, 11.37245
125.2802, 11.02395
125.7623, 10.96422
126.2444, 11.30960
126.7265, 11.95632
127.2086, 12.62774
127.6907, 13.10860
128.1729, 13.53830
128.6550, 14.28318
129.1371, 15.44399
129.6192, 16.60250
130.1013, 16.95074
130.5834, 16.62203
131.0656, 16.71544
131.5477, 18.12007
132.0298, 20.57590
132.5119, 22.75194
132.9940, 24.46991
133.4761, 25.94492
133.9583, 27.70151
134.4404, 29.76357
134.9225, 31.84899
135.4046, 33.76393
135.8867, 35.51683
136.3688, 37.14692
136.8510, 38.69276
137.3331, 40.09970
137.8152, 41.17737
138.2973, 41.79406
138.7794, 42.45375
139.2615, 43.63449
139.7437, 45.43948
140.2258, 47.26751
140.7079, 48.95822
141.1900, 50.52372
141.6721, 52.50702
142.1542, 55.23188
142.6364, 57.94469
143.1185, 59.65262
143.6006, 59.48724
144.0827, 60.04138
144.5648, 62.09662
145.0469, 66.02299
145.5291, 69.49418
146.0112, 72.46171
146.4933, 75.04565
146.9754, 77.45239
147.4575, 79.47646
147.9396, 81.53941
148.4218, 83.81087
148.9039, 86.43395
149.3860, 88.88117
149.8681, 91.09502
150.3502, 93.10710
150.8323, 94.98798
151.3145, 97.26275
151.7966, 98.95272
152.2787, 99.65669
152.7608, 98.23271
153.2429, 97.56933
153.7250, 98.12090
154.2072, 99.59842
154.6893, 101.1915
155.1714, 102.8640
155.6535, 103.7358
156.1356, 104.0435
156.6177, 102.6539
157.0999, 102.1926
157.5820, 103.7764
158.0641, 106.8669
158.5462, 109.2424
159.0283, 109.7400
159.5104, 109.7078
159.9926, 110.0247
160.4747, 111.0461
160.9568, 112.2840
161.4389, 113.6157
161.9210, 115.0233
162.4031, 116.5383
162.8853, 118.5856
163.3674, 120.5577
163.8495, 121.8992
164.3316, 121.5672
164.8137, 121.2879
165.2958, 122.3434
165.7780, 124.7056
166.2601, 126.3559
166.7422, 125.5717
167.2243, 123.6370
167.7064, 122.1938
168.1885, 122.1489
168.6707, 122.6040
169.1528, 123.0022
169.6349, 123.3229
170.1170, 123.5514
170.5991, 123.5953
171.0812, 123.5512
171.5634, 123.5861
172.0455, 123.7195
172.5276, 123.9935
173.0097, 124.5655
173.4918, 125.5196
173.9739, 126.3221
174.4561, 126.3976
174.9382, 125.9731
175.4203, 125.5913
175.9024, 125.5591
176.3845, 125.7267
176.8666, 125.9259
177.3488, 126.1648
177.8309, 126.3412
178.3130, 126.3584
178.7951, 126.2248
179.2772, 125.9688
179.7593, 125.3228
180.2415, 124.6028
180.7236, 124.4857
181.2057, 125.1773
181.6878, 126.1762
182.1699, 126.8488
182.6520, 127.2215
183.1342, 127.5553
183.6163, 128.1829
184.0984, 128.9190
184.5805, 129.1290
185.0626, 128.5604
185.5447, 127.6987
186.0269, 127.4620
186.5090, 127.8225
186.9911, 128.0916
187.4732, 127.5673
187.9553, 126.4490
188.4374, 125.7194
188.9196, 125.5658
189.4017, 125.8514
189.8838, 126.4614
190.3659, 127.4315
190.8480, 128.1777
191.3301, 128.1468
191.8123, 127.4105
192.2944, 126.6516
192.7765, 125.9387
193.2586, 125.3265
193.7407, 125.0173
194.2228, 125.0268
194.7050, 125.2215
195.1871, 125.5710
195.6692, 126.0735
196.1513, 126.4437
196.6334, 126.5926
197.1155, 126.5722
197.5977, 126.5977
198.0798, 126.6867
198.5619, 126.7470
199.0440, 126.5888
199.5261, 126.1759
200.0082, 126.1141
200.4904, 126.7701
200.9725, 127.9323
201.4546, 128.0880
201.9367, 126.9720
202.4188, 125.5929
202.9009, 125.0698
203.3831, 125.5476
203.8652, 125.8164
204.3473, 125.4313
204.8294, 124.4945
205.3115, 124.2324
205.7936, 124.7911
206.2758, 125.7106
206.7579, 126.7090
207.2400, 127.9731
207.7221, 128.3987
208.2042, 127.2942
208.6863, 124.7154
209.1685, 123.7234
209.6506, 124.8743
210.1327, 126.6397
210.6148, 127.1867
211.0969, 126.1391
211.5790, 125.1381
212.0612, 124.5354
212.5433, 124.3338
213.0254, 124.6173
213.5075, 125.6104
213.9896, 126.7863
214.4717, 127.5275
214.9538, 127.8139
215.4360, 127.7172
215.9181, 127.0862
216.4002, 125.8556
216.8823, 125.2089
217.3644, 125.3277
217.8465, 125.8228
218.3287, 126.2694
218.8108, 126.7646
219.2929, 126.9728
219.7750, 126.6731
220.2571, 125.7508
220.7392, 125.3917
221.2214, 125.8177
221.7035, 126.5789
222.1856, 127.1449
222.6677, 127.5414
223.1498, 127.6686
223.6319, 127.3870
224.1141, 126.5910
224.5962, 126.2240
225.0783, 126.5083
225.5604, 127.0271
226.0425, 127.2111
226.5246, 126.8730
227.0068, 126.5579
227.4889, 126.4098
227.9710, 126.4391
228.4531, 126.5498
228.9352, 126.7606
229.4173, 127.0358
229.8995, 127.3184
230.3816, 127.5756
230.8637, 127.9140
231.3458, 128.4317
231.8279, 129.2230
232.3100, 129.6158
232.7922, 129.4526
233.2743, 129.0226
233.7564, 128.6507
234.2385, 128.1931
234.7206, 128.0568
235.2027, 128.3836
235.6849, 129.2265
236.1670, 130.2688
236.6491, 131.9643
237.1312, 133.4969
237.6133, 133.6949
238.0954, 131.6335
238.5776, 129.8619
239.0597, 129.1559
239.5418, 129.7419
240.0239, 129.7901
240.5060, 128.9426
240.9881, 127.8526
241.4703, 127.3751
241.9524, 127.8844
242.4345, 128.3233
242.9166, 128.3586
243.3987, 127.8950
243.8808, 127.7793
244.3630, 128.1730
244.8451, 128.7735
245.3272, 129.2472
245.8093, 129.6479
246.2914, 129.8151
246.7735, 129.6194
247.2557, 128.9954
247.7378, 128.6834
248.2199, 128.7864
248.7020, 129.0942
249.1841, 129.4161
249.6662, 129.8824
250.1484, 130.0811
250.6305, 129.7348
251.1126, 128.7759
251.5947, 128.5841
252.0768, 129.5073
252.5589, 130.8223
253.0411, 131.8171
253.5232, 132.4783
254.0053, 132.8190
254.4874, 132.7824
254.9695, 132.3618
255.4516, 131.9256
255.9338, 131.4947
256.4159, 131.0275
256.8980, 130.4020
257.3801, 129.3222
257.8622, 128.8427
258.3444, 129.4792
258.8265, 131.1576
259.3086, 131.6779
259.7907, 130.5111
260.2728, 128.9497
260.7549, 128.1300
261.2371, 128.2218
261.7192, 128.5727
262.2013, 129.1346
262.6834, 129.8887
263.1655, 130.6626
263.6476, 131.6639
264.1298, 132.3439
264.6119, 132.0636
265.0940, 130.3211
265.5761, 129.3395
266.0582, 129.6357
266.5403, 130.9757
267.0225, 132.1719
267.5046, 133.4068
267.9867, 134.0893
268.4688, 133.5411
268.9509, 131.3327
269.4330, 129.7230
269.9152, 129.0861
270.3973, 129.2184
270.8794, 129.3257
271.3615, 129.3459
271.8436, 129.5116
272.3257, 130.1322
272.8079, 131.3638
273.2900, 132.0021
273.7721, 131.7723
274.2542, 130.9874
274.7363, 130.5522
275.2184, 130.5210
275.7006, 130.6342
276.1827, 130.7398
276.6648, 130.8322
277.1469, 131.0104
277.6290, 131.2894
278.1111, 131.6498
278.5933, 132.0997
279.0754, 132.6780
279.5575, 133.1372
280.0396, 133.3926
280.5217, 133.4423
281.0038, 133.0255
281.4860, 131.9258
281.9681, 130.7169
282.4502, 130.5164
282.9323, 131.3806
283.4144, 132.4144
283.8965, 133.3810
284.3787, 134.2327
284.8608, 134.3847
285.3429, 133.6890
285.8250, 132.6817
286.3071, 132.1030
286.7892, 131.9476
287.2714, 131.9544
287.7535, 132.0560
288.2356, 132.2402
288.7177, 132.4515
289.1998, 132.7074
289.6819, 132.9173
290.1641, 132.9920
290.6462, 132.9323
291.1283, 132.7316
291.6104, 132.2957
292.0925, 131.7298
292.5746, 131.3598
293.0568, 131.1912
293.5389, 131.1175
294.0210, 130.9234
294.5031, 130.6987
294.9852, 130.8531
295.4673, 131.8572
295.9495, 133.1190
296.4316, 133.2157
296.9137, 132.1851
297.3958, 131.2493
297.8779, 131.8897
298.3600, 133.4359
298.8422, 134.1587
299.3243, 133.1999
299.8064, 131.6611
300.2885, 131.1304
300.7706, 131.4967
301.2527, 131.9908
301.7349, 132.0935
302.2170, 131.9485
302.6991, 131.7868
303.1812, 131.6414
303.6633, 131.5216
304.1454, 131.3363
304.6276, 131.1534
305.1097, 131.2162
305.5918, 131.9053
306.0739, 132.8331
306.5560, 133.5336
307.0381, 133.9246
307.5203, 134.1318
308.0024, 134.1942
308.4845, 134.1497
308.9666, 134.0873
309.4487, 134.1423
309.9308, 134.1468
310.4130, 133.8682
310.8951, 133.2148
311.3772, 132.7050
311.8593, 133.0027
312.3414, 133.6148
312.8235, 133.7655
313.3057, 132.1536
313.7878, 130.7313
314.2699, 131.1239
314.7520, 133.5213
315.2341, 135.3327
315.7162, 134.4095
316.1984, 132.5428
316.6805, 131.7480
317.1626, 134.2359
317.6447, 136.4449
318.1268, 136.6069
318.6089, 134.8373
319.0911, 133.4388
319.5732, 133.5146
320.0553, 134.0872
320.5374, 134.4034
321.0195, 133.9324
321.5016, 133.5873
321.9838, 133.7110
322.4659, 134.1854
322.9480, 134.4306
323.4301, 133.9747
323.9122, 133.5148
324.3943, 133.4404
324.8765, 134.2028
325.3586, 134.7517
325.8407, 134.8311
326.3228, 134.6217
326.8049, 134.5853
327.2870, 134.9977
327.7692, 135.3683
328.2513, 135.5423
328.7334, 135.5128
329.2155, 135.2865
329.6976, 134.5641
330.1797, 133.7431
330.6619, 133.4906
331.1440, 134.4800
331.6261, 135.1269
332.1082, 134.8356
332.5903, 133.3857
333.0724, 132.6002
333.5546, 132.6657
334.0367, 133.2264
334.5188, 134.0176
335.0009, 135.4347
335.4830, 136.1627
335.9651, 135.6850
336.4473, 134.1352
336.9294, 133.2968
337.4115, 133.3649
337.8936, 133.7590
338.3757, 134.0897
338.8578, 134.3894
339.3399, 134.4506
339.8221, 134.1426
340.3042, 133.6355
340.7863, 133.6014
341.2684, 134.1772
341.7505, 134.5517
342.2326, 133.9207
342.7148, 132.3036
343.1969, 131.6721
343.6790, 132.3768
344.1611, 133.7035
344.6432, 134.4934
345.1253, 134.7478
345.6075, 134.7115
346.0896, 134.2706
346.5717, 133.5807
347.0538, 133.3588
347.5359, 133.6400
348.0180, 134.2082
348.5002, 135.1030
348.9823, 136.1597
349.4644, 136.6834
349.9465, 136.1980
350.4286, 135.1485
350.9107, 134.0633
351.3929, 132.9673
351.8750, 132.3449
352.3571, 132.9841
352.8392, 134.3239
353.3213, 135.3532
353.8034, 135.8109
354.2856, 135.8636
354.7677, 135.4638
355.2498, 134.7306
355.7319, 134.1377
356.2140, 134.0370
356.6961, 134.1862
357.1783, 134.3804
357.6604, 134.6404
358.1425, 134.7642
358.6246, 134.4158
359.1067, 133.8468
359.5888, 133.5449
360.0710, 133.7764
360.5531, 134.2908
361.0352, 135.1480
361.5173, 136.4469
361.9994, 137.2160
362.4815, 136.5325
362.9637, 135.3396
363.4458, 134.6492
363.9279, 135.4494
364.4100, 136.0692
364.8921, 135.7139
365.3742, 134.4838
365.8564, 133.8767
366.3385, 134.7168
366.8206, 135.8750
367.3027, 136.6720
367.7848, 136.8560
368.2669, 136.9140
368.7491, 136.7702
369.2312, 136.5110
369.7133, 136.3896
370.1954, 136.5273
370.6775, 136.6773
371.1596, 136.7842
371.6418, 136.9467
372.1239, 136.7520
372.6060, 135.9135
373.0881, 134.9280
373.5702, 134.4869
374.0523, 134.6506
374.5345, 135.2569
375.0166, 136.4844
375.4987, 138.3170
375.9808, 139.3181
376.4629, 139.2896
376.9450, 138.8675
377.4272, 138.6340
377.9093, 138.6197
378.3914, 138.4339
378.8735, 137.8918
379.3556, 137.2180
379.8377, 137.1434
380.3199, 137.7188
380.8020, 138.2779
381.2841, 138.3100
381.7662, 137.9197
382.2483, 137.6707
382.7304, 137.6263
383.2126, 137.6869
383.6947, 137.6573
384.1768, 137.5878
384.6589, 137.7145
385.1410, 138.3031
385.6231, 139.1086
386.1053, 139.8053
386.5874, 140.3887
387.0695, 140.7083
387.5516, 140.4495
388.0337, 139.8696
388.5158, 139.4135
388.9980, 139.2263
389.4801, 139.2012
389.9622, 139.3486
390.4443, 139.6167
390.9264, 139.7934
391.4085, 139.3393
391.8907, 138.9865
392.3728, 139.5519
392.8549, 141.7829
393.3370, 143.3335
393.8191, 142.4407
394.3012, 140.3018
394.7834, 138.9365
395.2655, 139.4086
395.7476, 140.3516
396.2297, 141.5407
396.7118, 143.0892
397.1939, 143.7166
397.6761, 142.2834
398.1582, 140.3340
398.6403, 139.1585
399.1224, 139.4816
399.6045, 139.8449
400.0866, 140.1776
400.5688, 140.4669
401.0509, 140.6215
401.5330, 140.5712
402.0151, 140.4783
402.4972, 140.4140
402.9793, 140.3722
403.4615, 140.3916
403.9436, 140.5173
404.4257, 140.6665
404.9078, 140.6531
405.3899, 140.4008
405.8720, 140.2749
406.3542, 140.4253
406.8363, 140.8304
407.3184, 141.2428
407.8005, 141.6960
408.2826, 142.0217
408.7647, 141.8560
409.2469, 141.2664
409.7290, 141.2294
410.2111, 142.1734
410.6932, 143.4533
411.1753, 143.6856
411.6574, 142.9642
412.1396, 142.2188
412.6217, 142.1602
413.1038, 142.4690
413.5859, 142.5065
414.0680, 142.1808
414.5501, 141.8006
415.0323, 141.6264
415.5144, 141.6115
415.9965, 141.6605
416.4786, 141.7408
416.9607, 141.8607
417.4428, 141.9811
417.9250, 142.1157
418.4071, 142.4118
418.8892, 143.3998
419.3713, 144.3368
419.8534, 144.5302
420.3355, 143.3073
420.8177, 142.1905
421.2998, 141.7478
421.7819, 141.7561
422.2640, 141.7174
422.7461, 141.4690
423.2282, 141.2089
423.7104, 141.0125
424.1925, 140.9078
424.6746, 140.7839
425.1567, 140.5851
425.6388, 140.3994
426.1209, 140.3162
426.6031, 140.4942
427.0852, 140.4969
427.5673, 140.1240
428.0494, 139.4986
428.5315, 139.4322
429.0136, 140.2969
429.4958, 140.9301
429.9779, 140.4350
430.4600, 138.5096
430.9421, 137.5998
431.4242, 137.9513
431.9063, 138.9736
432.3885, 139.9809
432.8706, 140.9711
433.3527, 141.4312
433.8348, 140.9670
434.3169, 139.9029
434.7990, 139.2376
435.2812, 138.9766
435.7633, 138.7611
436.2454, 138.2729
436.7275, 137.6089
437.2096, 136.9543
437.6917, 136.3029
438.1739, 135.7769
438.6560, 135.5018
439.1381, 135.4563
439.6202, 135.5839
440.1023, 136.1315
440.5844, 136.6575
441.0666, 136.8274
441.5487, 136.6142
442.0308, 136.1154
442.5129, 134.9683
442.9950, 133.7450
443.4771, 132.9921
443.9593, 133.3302
444.4414, 133.6452
444.9235, 133.4428
445.4056, 132.9439
445.8877, 132.9277
446.3698, 134.5494
446.8520, 135.7737
447.3341, 135.5708
447.8162, 133.1467
448.2983, 131.7512
448.7804, 132.0556
449.2625, 132.9265
449.7447, 133.0303
450.2268, 132.0032
450.7089, 131.0301
451.1910, 130.2566
451.6731, 129.7158
452.1552, 129.8015
452.6374, 130.7708
453.1195, 131.4283
453.6016, 130.6457
454.0837, 128.4989
454.5658, 127.4010
455.0479, 127.6983
455.5301, 128.4954
456.0122, 128.5020
456.4943, 127.8414
456.9764, 127.2554
457.4585, 127.0486
457.9406, 127.0639
458.4228, 126.9738
458.9049, 126.8081
459.3870, 126.8586
459.8691, 127.9240
460.3512, 129.0992
460.8333, 129.0512
461.3155, 127.0338
461.7976, 125.1407
462.2797, 125.0292
462.7618, 125.9209
463.2439, 126.4622
463.7260, 125.6512
464.2082, 124.8236
464.6903, 124.8211
465.1724, 125.6636
465.6545, 125.8603
466.1366, 123.8999
466.6187, 121.9754
467.1009, 121.5294
467.5830, 124.7657
468.0651, 126.5876
468.5472, 126.2520
469.0293, 124.7011
469.5114, 123.8282
469.9936, 123.8892
470.4757, 124.1623
470.9578, 124.5141
471.4399, 124.9411
471.9220, 125.0569
472.4041, 124.8202
472.8863, 124.3949
473.3684, 123.7889
473.8505, 123.0153
474.3326, 122.6816
474.8147, 122.9992
475.2968, 123.5591
475.7790, 123.6656
476.2611, 123.3629
476.7432, 122.9529
477.2253, 122.4720
477.7074, 122.0223
478.1895, 121.9453
478.6717, 122.2376
479.1538, 122.1918
479.6359, 120.5537
480.1180, 118.5258
480.6001, 117.6976
481.0822, 119.2215
481.5644, 120.7631
482.0465, 120.9134
482.5286, 120.2021
483.0107, 119.7753
483.4928, 120.2317
483.9749, 120.8413
484.4571, 121.3622
484.9392, 121.7929
485.4213, 122.0389
485.9034, 122.0769
486.3855, 121.9310
486.8676, 121.6006
487.3498, 120.9605
487.8319, 120.3281
488.3140, 119.6085
488.7961, 118.9570
489.2782, 118.7650
489.7603, 119.0845
490.2425, 119.7218
490.7246, 120.9130
491.2067, 122.5177
491.6888, 122.5883
492.1709, 120.8850
492.6530, 119.0452
493.1352, 118.7835
493.6173, 119.7271
494.0994, 120.3673
494.5815, 120.4469
495.0636, 120.0658
495.5457, 118.9404
496.0279, 117.3918
496.5100, 116.3762
496.9921, 116.7729
497.4742, 117.6364
497.9563, 118.0928
498.4384, 118.1383
498.9206, 118.2841
499.4027, 118.9694
499.8848, 119.7682
500.3669, 120.3634
500.8490, 120.7473
501.3311, 120.8124
501.8133, 120.1694
502.2954, 119.2404
502.7775, 118.8264
503.2596, 119.9313
503.7417, 120.4654
504.2238, 119.6196
504.7060, 117.4368
505.1881, 116.4596
505.6702, 117.2361
506.1523, 118.3317
506.6344, 118.7203
507.1165, 118.2624
507.5987, 118.1362
508.0808, 118.4900
508.5629, 119.0366
509.0450, 119.3804
509.5271, 119.5257
510.0092, 119.5075
510.4914, 119.2425
510.9735, 118.8849
511.4556, 118.7562
511.9377, 118.8393
512.4199, 118.9744
512.9020, 119.1558
513.3841, 119.2817
513.8662, 119.1560
514.3483, 118.6766
514.8304, 118.3213
515.3126, 118.5665
515.7947, 119.0507
516.2768, 119.3172
516.7589, 119.1399
517.2410, 118.8145
517.7231, 118.1489
518.2053, 117.3108
518.6874, 117.1056
519.1695, 118.4487
519.6516, 119.6818
520.1337, 120.1690
520.6158, 119.7129
521.0980, 119.4202
521.5801, 119.3405
522.0622, 119.3633
522.5443, 119.3577
523.0264, 119.2954
523.5085, 119.4283
523.9907, 119.9189
524.4728, 120.4780
524.9549, 120.3555
525.4370, 119.5795
525.9191, 118.8661
526.4012, 118.5695
526.8834, 118.5886
527.3655, 118.8233
527.8476, 119.2611
528.3297, 119.5539
528.8118, 119.1336
529.2939, 118.5195
529.7761, 118.4124
530.2582, 119.1751
530.7403, 119.9719
531.2224, 120.1592
531.7045, 120.1035
532.1866, 120.4046
532.6688, 122.0845
533.1509, 123.2804
533.6330, 123.1694
534.1151, 121.7984
534.5972, 120.8170
535.0793, 120.4047
535.5615, 120.2456
536.0436, 120.2030
536.5257, 120.2826
537.0078, 120.4765
537.4899, 120.8258
537.9720, 121.2270
538.4542, 121.5857
538.9363, 121.9144
539.4184, 122.0388
539.9005, 121.8369
540.3826, 121.5108
540.8647, 121.6217
541.3469, 122.0937
541.8290, 122.3385
542.3111, 121.7849
542.7932, 120.8971
543.2753, 120.3607
543.7574, 120.1982
544.2396, 120.1537
544.7217, 120.2175
545.2038, 120.2335
545.6859, 119.9847
546.1680, 119.0728
546.6501, 118.5355
547.1323, 119.0367
547.6144, 120.0895
548.0965, 120.8534
548.5786, 121.1908
549.0607, 121.2357
549.5428, 120.9298
550.0250, 120.3094
550.5071, 119.7189
550.9892, 119.0261
551.4713, 118.6043
551.9534, 118.8036
552.4355, 119.7314
552.9177, 120.0987
553.3998, 119.7853
553.8819, 119.2725
554.3640, 119.1818
554.8461, 119.4246
555.3282, 119.4826
555.8104, 119.1579
556.2925, 118.7136
556.7746, 118.6362
557.2567, 118.7614
557.7388, 118.5747
558.2209, 117.2650
558.7031, 115.9339
559.1852, 115.5661
559.6673, 116.1505
560.1494, 116.7415
560.6315, 117.0161
561.1136, 117.1235
561.5958, 117.1520
562.0779, 117.0800
562.5600, 116.9870
563.0421, 116.7435
563.5242, 116.5536
564.0063, 116.7592
564.4885, 117.7517
564.9706, 118.1692
565.4527, 117.5449
565.9348, 116.2634
566.4169, 115.6801
566.8990, 115.8766
567.3812, 116.0978
567.8633, 115.8924
568.3454, 115.3869
568.8275, 115.0149
569.3096, 114.7823
569.7917, 114.6829
570.2739, 114.8215
570.7560, 115.0606
571.2381, 115.2053
571.7202, 115.2344
572.2023, 115.1176
572.6844, 114.6859
573.1666, 114.1352
573.6487, 113.7513
574.1308, 113.5315
574.6129, 113.5949
575.0950, 114.2257
575.5771, 115.2753
576.0593, 115.8261
576.5414, 115.4483
577.0235, 115.0832
577.5056, 115.1579
577.9877, 115.7587
578.4698, 115.8765
578.9520, 115.3589
579.4341, 114.7328
579.9162, 114.5538
580.3983, 114.7796
580.8804, 114.7045
581.3625, 114.1462
581.8447, 113.5213
582.3268, 113.5066
582.8089, 113.9080
583.2910, 114.1742
583.7731, 114.0936
584.2552, 113.7697
584.7373, 113.1059
585.2194, 112.2281
585.7015, 111.6067
586.1837, 111.5218
586.6658, 111.6942
587.1479, 112.0301
587.6300, 112.5514
588.1121, 113.0134
588.5942, 113.3064
589.0764, 113.5890
589.5585, 113.9976
590.0406, 114.7404
590.5227, 115.0838
591.0048, 114.8850
591.4869, 114.4292
591.9691, 114.0939
592.4512, 113.8751
592.9333, 113.9735
593.4154, 114.6407
593.8975, 115.4557
594.3796, 115.3638
594.8618, 114.5112
595.3439, 113.7740
595.8260, 113.7308
596.3081, 114.0383
596.7902, 114.4347
597.2723, 114.8936
597.7545, 115.1267
598.2366, 114.6822
598.7187, 114.1323
599.2008, 113.9422
599.6829, 114.4142
600.1650, 114.7443
600.6472, 114.7425
601.1293, 114.5693
601.6114, 114.3866
602.0935, 114.1579
602.5756, 113.9999
603.0577, 113.9316
603.5399, 113.9423
604.0220, 114.0039
604.5041, 114.1171
604.9862, 114.2830
605.4683, 114.5780
605.9504, 114.9077
606.4326, 114.9038
606.9147, 114.5959
607.3968, 114.3858
607.8789, 114.9122
608.3610, 115.5424
608.8431, 115.3160
609.3253, 113.9684
609.8074, 112.8583
610.2895, 112.8530
610.7716, 113.3774
611.2537, 113.8856
611.7358, 114.4123
612.2180, 114.7202
612.7001, 114.6041
613.1822, 114.3122
613.6643, 114.2793
614.1464, 114.6705
614.6285, 114.9537
615.1107, 114.9523
615.5928, 114.7632
616.0749, 114.7798
616.5570, 115.0043
617.0391, 115.3927
617.5212, 116.1802
618.0034, 117.0786
618.4855, 117.1524
618.9676, 116.4006
619.4497, 115.7166
619.9318, 115.8849
620.4139, 116.4677
620.8961, 117.0331
621.3782, 117.6008
621.8603, 117.8241
622.3424, 117.0429
622.8245, 116.0463
623.3066, 115.7404
623.7888, 117.3410
624.2709, 118.2838
624.7530, 117.9765
625.2351, 116.9748
625.7172, 116.6814
626.1993, 117.4094
626.6815, 117.8357
627.1636, 117.3956
627.6457, 116.3643
628.1278, 115.9011
628.6099, 116.0068
629.0920, 116.3527
629.5742, 116.8341
630.0563, 117.3733
630.5384, 117.8687
631.0205, 118.3144
631.5026, 118.6355
631.9847, 118.7171
632.4669, 118.6827
632.9490, 118.6471
633.4311, 118.6241
633.9132, 118.6284
634.3953, 118.6582
634.8774, 118.7222
635.3596, 118.8303
635.8417, 118.9940
636.3238, 119.1738
636.8059, 119.3271
637.2880, 119.5141
637.7701, 120.0355
638.2523, 121.0111
638.7344, 121.4270
639.2165, 120.6292
639.6986, 119.1453
640.1807, 118.4206
640.6628, 118.4091
641.1450, 118.7455
641.6271, 119.5550
642.1092, 120.3789
642.5913, 120.5438
643.0734, 120.0013
643.5555, 119.6393
644.0377, 120.0424
644.5198, 120.7016
645.0019, 121.2736
645.4840, 121.8490
645.9661, 122.0038
646.4482, 121.3214
646.9304, 120.5201
647.4125, 120.4251
647.8946, 121.2923
648.3767, 122.0055
648.8588, 122.4533
649.3409, 122.6395
649.8231, 122.4102
650.3052, 121.8251
650.7873, 121.5398
651.2694, 121.8736
651.7515, 122.5699
652.2336, 123.3900
652.7158, 124.2707
653.1979, 125.0259
653.6800, 125.7967
654.1621, 126.1988
654.6442, 125.7299
655.1263, 124.3788
655.6085, 123.4883
656.0906, 123.5596
656.5727, 124.0102
657.0548, 124.6061
657.5369, 125.4442
658.0190, 126.0464
658.5012, 126.4550
658.9833, 126.5493
659.4654, 125.9682
659.9475, 124.7571
660.4296, 124.2438
660.9117, 124.7158
661.3939, 125.5076
661.8760, 125.7968
662.3581, 125.7578
662.8402, 125.7971
663.3223, 126.0695
663.8044, 126.4347
664.2866, 127.1154
664.7687, 127.7940
665.2508, 127.8108
665.7329, 126.0190
666.2150, 124.5401
666.6971, 124.0901
667.1793, 124.5188
667.6614, 125.1507
668.1435, 126.1559
668.6256, 127.0346
669.1077, 127.5911
669.5898, 127.8408
670.0720, 127.8894
670.5541, 127.7178
671.0362, 127.5633
671.5183, 127.7462
672.0004, 128.0440
672.4825, 127.8768
672.9647, 127.1576
673.4468, 126.5720
673.9289, 126.7661
674.4110, 127.2562
674.8931, 127.5115
675.3752, 127.1704
675.8574, 127.1376
676.3395, 128.0219
676.8216, 129.1264
677.3037, 129.6365
677.7858, 129.2360
678.2679, 128.9323
678.7501, 128.8227
679.2322, 128.8887
679.7143, 129.2496
680.1964, 129.8932
680.6785, 130.1136
681.1606, 129.4866
681.6428, 128.4973
682.1249, 127.8418
682.6070, 127.5092
683.0891, 127.4843
683.5712, 128.0015
684.0533, 128.6157
684.5355, 129.0819
685.0176, 129.3860
685.4997, 129.5573
685.9818, 129.4682
686.4639, 129.3658
686.9460, 129.3988
687.4282, 129.6098
687.9103, 129.5135
688.3924, 128.9816
688.8745, 128.4303
689.3566, 128.1225
689.8387, 128.0557
690.3209, 128.3359
690.8030, 129.0146
691.2851, 129.6332
691.7672, 129.5899
692.2493, 129.1953
692.7314, 129.0290
693.2136, 129.3839
693.6957, 129.4686
694.1778, 128.3594
694.6599, 126.8997
695.1420, 126.1226
695.6241, 127.0237
696.1063, 127.6319
696.5884, 127.7020
697.0705, 127.4239
697.5526, 127.0636
698.0347, 126.5072
698.5168, 126.3792
698.9990, 127.0007
699.4811, 127.9715
699.9632, 128.3301
700.4453, 128.1402
700.9274, 127.7850
701.4095, 127.3457
701.8917, 126.9143
702.3738, 126.5922
702.8559, 126.3676
703.3380, 126.1909
703.8201, 125.9170
704.3022, 125.7938
704.7844, 126.0367
705.2665, 126.6841
705.7486, 127.1294
706.2307, 127.4171
706.7128, 127.4285
707.1949, 126.9331
707.6771, 125.9010
708.1592, 125.6262
708.6413, 126.2079
709.1234, 126.8926
709.6055, 126.9202
710.0876, 126.5588
710.5698, 126.4715
711.0519, 126.7682
711.5340, 127.0337
712.0161, 126.9484
712.4982, 126.6842
712.9803, 126.3928
713.4625, 125.9846
713.9446, 125.7879
714.4267, 126.2126
714.9088, 126.6864
715.3909, 126.5651
715.8730, 125.5590
716.3552, 124.8542
716.8373, 124.6821
717.3194, 124.7111
717.8015, 124.2996
718.2836, 123.5240
718.7657, 123.0206
719.2479, 123.1498
719.7300, 123.3567
720.2121, 122.8032
720.6942, 121.8360
721.1763, 121.2179
721.6584, 121.5545
722.1406, 122.0257
722.6227, 122.4158
723.1048, 122.6782
723.5869, 122.6325
724.0690, 121.9232
724.5511, 121.4757
725.0333, 121.6296
725.5154, 122.2642
725.9975, 122.8132
726.4796, 123.3052
726.9617, 123.4245
727.4438, 122.5857
727.9260, 121.3824
728.4081, 121.3574
728.8902, 122.3428
729.3723, 122.9621
729.8544, 121.7067
730.3365, 120.2546
730.8187, 120.1239
731.3008, 121.5777
731.7829, 122.1149
732.2650, 120.1138
732.7471, 118.1648
733.2292, 117.5878
733.7114, 118.6878
734.1935, 119.2644
734.6756, 119.2052
735.1577, 119.0232
735.6398, 119.4278
736.1219, 120.1228
736.6041, 119.7095
737.0862, 117.9339
737.5683, 116.3845
738.0504, 116.9031
738.5325, 118.2020
739.0146, 118.7426
739.4968, 117.7863
739.9789, 117.2019
740.4610, 118.2667
740.9431, 119.5126
741.4252, 119.3721
741.9073, 116.9357
742.3895, 115.4727
742.8716, 115.4058
743.3537, 115.9669
743.8358, 116.2185
744.3179, 116.1574
744.8000, 115.6673
745.2822, 114.5126
745.7643, 113.4768
746.2464, 113.7345
746.7285, 114.6818
747.2106, 115.2702
747.6927, 114.7122
748.1749, 114.2250
748.6570, 114.4103
749.1391, 114.9180
749.6212, 115.0192
750.1033, 114.5444
750.5854, 113.9319
751.0676, 113.1321
751.5497, 112.3406
752.0318, 112.2228
752.5139, 112.7522
752.9960, 113.0033
753.4781, 112.4685
753.9603, 111.6410
754.4424, 111.2261
754.9245, 111.1141
755.4066, 110.9969
755.8887, 110.5076
756.3708, 110.1970
756.8530, 110.4693
757.3351, 111.1966
757.8172, 111.7047
758.2993, 112.0339
758.7814, 112.0007
759.2635, 111.3631
759.7457, 110.3194
760.2278, 110.1055
760.7099, 110.7749
761.1920, 111.1294
761.6741, 109.9750
762.1563, 108.3136
762.6384, 108.0904
763.1205, 109.0612
763.6026, 109.9038
764.0847, 109.8664
764.5668, 109.4915
765.0490, 108.9530
765.5311, 108.2666
766.0132, 107.9679
766.4953, 108.3888
766.9774, 108.7562
767.4595, 108.7510
767.9417, 108.3819
768.4238, 107.7127
768.9059, 106.6983
769.3880, 106.0025
769.8701, 106.4635
770.3522, 107.4269
770.8344, 107.5732
771.3165, 106.8981
771.7986, 106.4392
772.2807, 107.1158
772.7628, 107.9812
773.2449, 108.4419
773.7271, 108.4087
774.2092, 108.0576
774.6913, 107.0118
775.1734, 106.1878
775.6555, 106.2893
776.1376, 107.3847
776.6198, 107.8317
777.1019, 107.5904
777.5840, 107.1506
778.0661, 106.8698
778.5482, 106.6991
779.0303, 106.6575
779.5125, 106.7651
779.9946, 106.5552
780.4767, 105.2122
780.9588, 103.8322
781.4409, 103.2911
781.9230, 104.0608
782.4052, 104.5673
782.8873, 104.6390
783.3694, 104.6807
783.8515, 105.2004
784.3336, 106.1992
784.8157, 106.1065
785.2979, 104.7530
785.7800, 103.2406
786.2621, 102.4333
786.7442, 102.2350
787.2263, 102.6817
787.7084, 103.9286
788.1906, 104.8070
788.6727, 104.3301
789.1548, 103.5424
789.6369, 103.3530
790.1190, 104.1756
790.6011, 104.6020
791.0833, 104.4926
791.5654, 104.2127
792.0475, 104.1362
792.5296, 104.2325
793.0117, 104.1304
793.4938, 103.7858
793.9760, 103.3444
794.4581, 102.7072
794.9402, 102.1540
795.4223, 102.1572
795.9044, 102.9583
796.3865, 103.6365
796.8687, 104.1183
797.3508, 104.1610
797.8329, 103.5084
798.3150, 101.6201
798.7971, 100.4613
799.2792, 100.1651
799.7614, 100.3043
800.2435, 100.5476
800.7256, 100.8671
801.2077, 101.1494
801.6898, 101.3908
802.1719, 101.5059
802.6541, 101.2223
803.1362, 100.8668
803.6183, 100.8804
804.1004, 101.6046
804.5825, 101.9236
805.0646, 101.2840
805.5468, 100.3745
806.0289, 99.66231
806.5110, 99.15572
806.9931, 98.80800
807.4752, 98.62200
807.9573, 98.58823
808.4395, 98.86282
808.9216, 99.26864
809.4037, 99.29263
809.8858, 98.82558
810.3679, 98.29943
810.8500, 97.96719
811.3322, 97.75376
811.8143, 97.59278
812.2964, 97.46188
812.7785, 97.43224
813.2606, 97.59938
813.7427, 97.75534
814.2249, 97.65848
814.7070, 97.28440
815.1891, 97.34990
815.6712, 97.96437
816.1533, 98.42530
816.6354, 97.82527
817.1176, 96.69920
817.5997, 95.76421
818.0818, 95.08131
818.5639, 94.93722
819.0460, 96.12415
819.5281, 97.43496
820.0103, 97.90376
820.4924, 97.31147
820.9745, 96.63620
821.4566, 95.74093
821.9387, 95.05190
822.4208, 95.14038
822.9030, 95.81425
823.3851, 95.87747
823.8672, 95.25633
824.3493, 94.73975
824.8314, 95.22072
825.3135, 95.98001
825.7957, 96.33963
826.2778, 96.20242
826.7599, 95.77105
827.2420, 94.53486
827.7241, 93.53529
828.2062, 93.38318
828.6884, 94.17153
829.1705, 94.72086
829.6526, 95.02642
830.1347, 95.10738
830.6168, 94.92837
831.0989, 94.55277
831.5811, 94.03398
832.0632, 93.39347
832.5453, 92.83745
833.0274, 92.53101
833.5095, 92.31910
833.9916, 92.09145
834.4738, 91.83154
834.9559, 91.69539
835.4380, 91.72595
835.9201, 91.80116
836.4022, 91.93983
836.8843, 92.08575
837.3665, 91.71733
837.8486, 90.87206
838.3307, 90.24937
838.8128, 90.45027
839.2949, 91.00120
839.7770, 91.49951
840.2592, 91.93054
840.7413, 92.29858
841.2234, 92.73206
841.7055, 92.95322
842.1876, 92.80831
842.6697, 92.36450
843.1519, 92.08223
843.6340, 91.99992
844.1161, 91.79104
844.5982, 91.17314
845.0803, 90.43069
845.5624, 90.23106
846.0446, 90.42779
846.5267, 90.51221
847.0088, 89.93475
847.4909, 89.48170
847.9730, 89.68591
848.4551, 90.35419
848.9373, 90.72532
849.4194, 90.61533
849.9015, 90.60622
850.3836, 90.93776
850.8657, 91.34691
851.3478, 91.03445
851.8300, 90.14509
852.3121, 89.58346
852.7942, 89.91359
853.2763, 90.35868
853.7584, 90.24353
854.2405, 89.76139
854.7227, 89.24944
855.2048, 88.64924
855.6869, 88.23312
856.1690, 88.04905
856.6511, 88.04357
857.1332, 88.18051
857.6154, 88.47445
858.0975, 88.66469
858.5796, 88.70228
859.0617, 88.63911
859.5438, 88.54253
860.0259, 88.39038
860.5081, 88.09431
860.9902, 87.44303
861.4723, 87.10985
861.9544, 87.77136
862.4365, 88.61922
862.9186, 88.83180
863.4008, 88.18038
863.8829, 87.54099
864.3650, 86.87908
864.8471, 86.40601
865.3292, 86.50349
865.8113, 86.94858
866.2935, 87.03413
866.7756, 86.65034
867.2577, 86.41371
867.7398, 87.09506
868.2219, 87.84132
868.7040, 87.88331
869.1862, 86.87695
869.6683, 86.38858
870.1504, 86.68749
870.6325, 87.02785
871.1146, 86.80766
871.5967, 86.14735
872.0789, 86.29943
872.5610, 87.21557
873.0431, 87.90849
873.5252, 87.50307
874.0073, 86.69796
874.4894, 86.00762
874.9716, 85.47036
875.4537, 85.17344
875.9358, 85.47155
876.4179, 85.62634
876.9000, 85.39310
877.3821, 84.85100
877.8643, 84.29067
878.3464, 83.71066
878.8285, 83.39129
879.3106, 83.54212
879.7927, 83.94952
880.2748, 84.55087
880.7570, 85.18110
881.2391, 85.42741
881.7212, 84.54919
882.2033, 83.95338
882.6854, 84.50021
883.1675, 85.39156
883.6497, 85.09046
884.1318, 83.33232
884.6139, 82.00879
885.0960, 81.52207
885.5781, 81.50782
886.0602, 81.57858
886.5424, 81.70285
887.0245, 81.81580
887.5066, 81.90371
887.9887, 81.96677
888.4708, 82.17567
888.9529, 82.25268
889.4351, 81.84438
889.9172, 80.52135
890.3993, 80.02409
890.8814, 80.56744
891.3635, 81.35923
891.8456, 81.51594
892.3278, 81.33010
892.8099, 81.84153
893.2920, 83.15030
893.7741, 83.94337
894.2562, 82.83089
894.7383, 81.31592
895.2205, 80.40017
895.7026, 80.21864
896.1847, 80.29215
896.6668, 80.84025
897.1489, 81.12388
897.6310, 80.58361
898.1132, 79.50566
898.5953, 79.03806
899.0774, 79.11677
899.5595, 79.31942
900.0416, 79.68082
900.5237, 79.82445
901.0059, 79.26511
901.4880, 78.23598
901.9701, 77.62451
902.4522, 77.71200
902.9343, 77.86852
903.4164, 77.98931
903.8986, 78.08842
904.3807, 78.15210
904.8628, 78.20555
905.3449, 78.45780
905.8270, 79.10635
906.3091, 79.64852
906.7913, 79.56288
907.2734, 79.14194
907.7555, 78.75598
908.2376, 78.40245
908.7197, 78.26902
909.2018, 78.57623
909.6840, 78.81165
910.1661, 78.30839
910.6482, 77.15593
911.1303, 76.54382
911.6124, 76.58543
912.0945, 76.68545
912.5767, 76.26479
913.0588, 75.70014
913.5409, 75.35297
914.0230, 75.27338
914.5051, 75.27186
914.9872, 75.36712
915.4694, 75.46644
915.9515, 75.53713
916.4336, 75.57776
916.9157, 75.56181
917.3978, 75.49289
917.8799, 75.44930
918.3621, 75.53636
918.8442, 75.62130
919.3263, 75.59196
919.8084, 75.45336
920.2905, 75.22156
920.7726, 74.61246
921.2548, 74.30830
921.7369, 74.54556
922.2190, 75.03422
922.7011, 75.16209
923.1832, 74.95264
923.6653, 74.96521
924.1475, 75.42887
924.6296, 75.78287
925.1117, 75.32099
925.5938, 74.46166
926.0759, 73.68546
926.5580, 72.95362
927.0402, 72.70969
927.5223, 73.39211
928.0044, 74.06773
928.4865, 73.84937
928.9686, 72.75743
929.4507, 72.52998
929.9329, 73.20302
930.4150, 74.00491
930.8971, 74.61539
931.3792, 74.86989
931.8613, 74.36854
932.3434, 73.20967
932.8256, 72.43042
933.3077, 72.68645
933.7898, 72.78751
934.2719, 72.27314
934.7540, 71.41421
935.2361, 71.18148
935.7183, 71.54763
936.2004, 72.16766
936.6825, 73.13966
937.1646, 73.95274
937.6467, 74.02701
938.1288, 73.62798
938.6110, 73.17314
939.0931, 72.70146
939.5752, 72.24921
940.0573, 71.75150
940.5394, 71.36728
941.0215, 71.39906
941.5037, 71.78233
941.9858, 71.83907
942.4679, 71.49782
942.9500, 71.01525
943.4321, 70.15923
943.9142, 69.58372
944.3964, 70.17487
944.8785, 72.15532
945.3606, 73.15170
945.8427, 72.47983
946.3248, 71.75341
946.8069, 71.71573
947.2891, 72.14884
947.7712, 72.17574
948.2533, 71.82732
948.7354, 71.29147
949.2175, 70.23611
949.6996, 69.46255
950.1818, 69.83269
950.6639, 70.84978
951.1460, 71.41169
951.6281, 71.12063
952.1102, 71.02068
952.5923, 71.31208
953.0745, 71.64124
953.5566, 71.51746
954.0387, 71.02224
954.5208, 70.37309
955.0029, 69.57529
955.4850, 68.95485
955.9672, 68.52250
956.4493, 68.51395
956.9314, 69.42361
957.4135, 71.48112
957.8956, 72.16590
958.3777, 71.02496
958.8599, 69.87062
959.3420, 69.89988
959.8241, 70.54236
960.3062, 70.17159
960.7883, 69.04863
961.2704, 68.25109
961.7526, 68.33212
962.2347, 68.82023
962.7168, 69.93925
963.1989, 71.20461
963.6810, 71.63918
964.1631, 71.04248
964.6453, 70.47178
965.1274, 70.05108
965.6095, 69.80860
966.0916, 69.89903
966.5737, 70.14997
967.0558, 70.28081
967.5380, 70.24997
968.0201, 70.05075
968.5022, 69.41916
968.9843, 68.85889
969.4664, 68.65857
969.9485, 68.81893
970.4307, 69.11179
970.9128, 69.54622
971.3949, 69.88874
971.8770, 69.95220
972.3591, 69.87682
972.8412, 69.93964
973.3234, 70.00961
973.8055, 69.71563
974.2876, 68.13656
974.7697, 67.30640
975.2518, 67.83335
975.7339, 68.94998
976.2161, 69.45802
976.6982, 69.40008
977.1803, 69.22041
977.6624, 68.97733
978.1445, 68.73668
978.6266, 68.55203
979.1088, 68.39830
979.5909, 68.16197
980.0730, 67.72819
980.5551, 67.96608
981.0372, 69.38037
981.5193, 70.47034
982.0015, 70.27016
982.4836, 69.22721
982.9657, 68.86919
983.4478, 69.09890
983.9299, 69.46099
984.4120, 70.03052
984.8942, 70.33861
985.3763, 69.89192
985.8584, 69.08736
986.3405, 68.77782
986.8226, 69.23097
987.3047, 69.12995
987.7869, 68.14779
988.2690, 67.21246
988.7511, 67.71309
989.2332, 68.95154
989.7153, 69.70560
990.1974, 69.79078
990.6796, 69.67674
991.1617, 69.52604
991.6438, 69.22695
992.1259, 68.56030
992.6080, 67.65775
993.0901, 67.69708
993.5723, 68.69061
994.0544, 69.47398
994.5365, 69.39990
995.0186, 68.99677
995.5007, 68.71910
995.9828, 68.57075
996.4650, 68.55366
996.9471, 68.76401
997.4292, 68.98222
997.9113, 69.23899
998.3934, 69.43521
998.8755, 69.40730
999.3577, 69.20863
999.8398, 69.20020
1000.322, 69.40536
1000.804, 69.51521
1001.286, 69.20398
1001.768, 68.82158
1002.250, 68.61035
1002.732, 68.57031
1003.215, 68.58252
1003.697, 68.75939
1004.179, 68.50988
1004.661, 67.39725
1005.143, 66.17386
1005.625, 66.34648
1006.107, 67.37411
1006.589, 68.09113
1007.072, 68.04790
1007.554, 67.83273
1008.036, 67.35156
1008.518, 66.99633
1009.000, 67.17134
1009.482, 67.95252
1009.964, 68.14188
1010.446, 67.71872
1010.928, 67.30333
1011.411, 67.41386
1011.893, 67.68549
1012.375, 67.71780
1012.857, 67.58122
1013.339, 67.68674
1013.821, 68.40236
1014.303, 68.77138
1014.785, 68.48566
1015.268, 67.97148
1015.750, 68.12202
1016.232, 68.65770
1016.714, 68.48502
1017.196, 67.19978
1017.678, 66.29618
1018.160, 67.26823
1018.642, 68.48586
1019.124, 68.56077
1019.607, 67.42698
1020.089, 67.27042
1020.571, 68.23210
1021.053, 69.08347
1021.535, 69.07744
1022.017, 68.67419
1022.499, 68.54151
1022.981, 68.53054
1023.464, 68.30392
1023.946, 67.41199
1024.428, 66.77405
1024.910, 66.52604
1025.392, 66.51128
1025.874, 66.56331
1026.356, 66.68716
1026.838, 67.00928
1027.320, 67.53801
1027.803, 67.90221
1028.285, 67.63289
1028.767, 67.27695
1029.249, 67.25803
1029.731, 67.54527
1030.213, 67.67857
1030.695, 67.58796
1031.177, 67.63401
1031.660, 67.96125
1032.142, 68.39131
1032.624, 68.79465
1033.106, 69.05411
1033.588, 68.87008
1034.070, 67.90547
1034.552, 67.25331
1035.034, 67.35252
1035.516, 67.65694
1035.999, 67.89194
1036.481, 68.05251
1036.963, 68.06442
1037.445, 67.93551
1037.927, 67.76920
1038.409, 67.47817
1038.891, 67.31458
1039.373, 67.51657
1039.855, 67.97118
1040.338, 68.45679
1040.820, 69.20775
1041.302, 69.18153
1041.784, 68.07966
1042.266, 66.82951
1042.748, 66.60232
1043.230, 66.92566
1043.712, 66.91328
1044.195, 66.46925
1044.677, 66.14671
1045.159, 65.93546
1045.641, 66.17898
1046.123, 67.21915
1046.605, 68.70589
1047.087, 69.43813
1047.569, 69.47139
1048.052, 69.21594
1048.534, 68.70725
1049.016, 68.19912
1049.498, 67.85467
1049.980, 67.62986
1050.462, 67.48361
1050.944, 67.41478
1051.426, 67.39328
1051.908, 67.42592
1052.391, 67.47588
1052.873, 67.72226
1053.355, 67.86523
1053.837, 66.95405
1054.319, 65.43592
1054.801, 64.73755
1055.283, 66.38225
1055.765, 67.54467
1056.247, 67.54507
1056.730, 67.11172
1057.212, 67.25655
1057.694, 67.88032
1058.176, 68.31956
1058.658, 68.50685
1059.140, 68.44603
1059.622, 67.87710
1060.104, 67.29385
1060.587, 67.09794
1061.069, 67.22057
1061.551, 67.11085
1062.033, 66.67728
1062.515, 66.63754
1062.997, 67.42976
1063.479, 68.14949
1063.961, 67.04688
1064.443, 65.32121
1064.926, 64.90323
1065.408, 66.86390
1065.890, 67.90029
1066.372, 67.26361
1066.854, 66.44296
1067.336, 66.28213
1067.818, 66.63194
1068.300, 67.05944
1068.782, 67.50762
1069.265, 67.72684
1069.747, 67.48892
1070.229, 67.11334
1070.711, 66.46922
1071.193, 65.92339
1071.675, 66.01672
1072.157, 66.83659
1072.639, 67.25103
1073.122, 67.17869
1073.604, 67.00266
1074.086, 67.00739
1074.568, 67.07992
1075.050, 67.12855
1075.532, 67.15050
1076.014, 67.17751
1076.496, 67.27331
1076.979, 67.16953
1077.461, 66.70335
1077.943, 66.27467
1078.425, 66.76546
1078.907, 67.63597
1079.389, 67.69311
1079.871, 66.58635
1080.353, 65.95025
1080.835, 66.80838
1081.318, 67.76234
1081.800, 68.38390
1082.282, 68.61861
1082.764, 67.87753
1083.246, 66.39330
1083.728, 65.62425
1084.210, 66.49831
1084.692, 67.48125
1085.174, 67.69798
1085.656, 67.47649
1086.139, 67.14687
1086.621, 66.68239
1087.103, 66.28307
1087.585, 65.92667
1088.067, 65.90154
1088.549, 66.95074
1089.031, 67.99270
1089.513, 67.51979
1089.996, 66.12291
1090.478, 65.36124
1090.960, 65.87370
1091.442, 66.28531
1091.924, 66.49232
1092.406, 66.57359
1092.888, 66.56097
1093.370, 66.50399
1093.853, 66.44189
1094.335, 66.39959
1094.817, 66.61246
1095.299, 67.78902
1095.781, 68.45215
1096.263, 68.01790
1096.745, 66.94702
1097.227, 66.03942
1097.709, 65.35352
1098.192, 65.46430
1098.674, 66.66817
1099.156, 67.46556
1099.638, 66.10679
1100.120, 64.57095
1100.602, 64.49751
1101.084, 65.73392
1101.566, 66.42692
1102.048, 66.56054
1102.531, 66.57076
1103.013, 66.67480
1103.495, 66.63719
1103.977, 65.84447
1104.459, 64.91782
1104.941, 64.77768
1105.423, 66.03014
1105.905, 66.60257
1106.388, 66.34853
1106.870, 65.88716
1107.352, 65.41076
1107.834, 65.11533
1108.316, 65.58312
1108.798, 66.53035
1109.280, 67.17534
1109.762, 67.02083
1110.245, 66.88893
1110.727, 66.97509
1111.209, 66.96339
1111.691, 66.27299
1112.173, 65.20469
1112.655, 65.07806
1113.137, 65.85587
1113.619, 66.57825
1114.101, 66.89075
1114.583, 66.83037
1115.066, 66.18104
1115.548, 65.32403
1116.030, 64.97102
1116.512, 65.09558
1116.994, 65.21645
1117.476, 65.25631
1117.958, 65.37051
1118.440, 65.67993
1118.923, 66.11186
1119.405, 66.80447
1119.887, 67.62575
1120.369, 67.66206
1120.851, 66.78432
1121.333, 66.23681
1121.815, 66.45550
1122.297, 66.85076
1122.780, 66.64108
1123.262, 67.00078
1123.744, 66.44755
1124.226, 67.35214
1124.708, 67.88358
1125.190, 68.02570
1125.672, 67.77094
1126.154, 66.89727
1126.636, 65.89236
1127.119, 65.67229
1127.601, 65.96387
1128.083, 66.27225
1128.565, 66.60391
1129.047, 66.57285
1129.529, 65.87382
1130.011, 65.32111
1130.493, 65.61485
1130.975, 66.46796
1131.458, 66.99525
1131.940, 67.21806
1132.422, 67.21758
1132.904, 66.81745
1133.386, 66.47413
1133.868, 66.28337
1134.350, 66.20877
1134.832, 66.21618
1135.315, 66.30870
1135.797, 66.57436
1136.279, 66.99825
1136.761, 67.33184
1137.243, 67.36961
1137.725, 67.33421
1138.207, 67.34156
1138.689, 67.34724
1139.172, 67.18810
1139.654, 66.85068
1140.136, 67.13155
1140.618, 68.18100
1141.100, 68.76291
1141.582, 67.01102
1142.064, 65.17484
1142.546, 65.28282
1143.028, 66.91291
1143.510, 67.60662
1143.993, 67.21345
1144.475, 66.86738
1144.957, 66.80885
1145.439, 66.86974
1145.921, 67.02325
1146.403, 67.10190
1146.885, 66.80700
1147.367, 66.09126
1147.850, 65.90864
1148.332, 66.43169
1148.814, 66.88115
1149.296, 66.96467
1149.778, 66.94455
1150.260, 67.30893
1150.742, 67.77023
1151.224, 67.84786
1151.707, 67.32657
1152.189, 67.00424
1152.671, 66.93449
1153.153, 67.06632
1153.635, 67.48569
1154.117, 67.96723
1154.599, 68.09042
1155.081, 67.90999
1155.563, 67.49650
1156.046, 66.58389
1156.528, 66.15336
1157.010, 66.54266
1157.492, 66.98415
1157.974, 66.95773
1158.456, 66.60404
1158.938, 66.32330
1159.420, 66.12101
1159.902, 66.01671
1160.385, 65.89779
1160.867, 66.08321
1161.349, 66.90362
1161.831, 67.70198
1162.313, 67.91990
1162.795, 67.61088
1163.277, 66.97617
1163.759, 66.08356
1164.242, 65.30742
1164.724, 64.55788
1165.206, 64.33470
1165.688, 65.24245
1166.170, 66.38322
1166.652, 66.56203
1167.134, 65.92505
1167.616, 66.11200
1168.099, 67.13448
1168.581, 67.87453
1169.063, 67.33918
1169.545, 66.67027
1170.027, 66.37455
1170.509, 66.34661
1170.991, 66.49984
1171.473, 66.82286
1171.955, 66.97950
1172.438, 66.93181
1172.920, 66.80235
1173.402, 66.53504
1173.884, 66.35554
1174.366, 66.48438
1174.848, 66.79609
1175.330, 67.02228
1175.812, 67.16428
1176.294, 67.15462
1176.777, 66.96160
1177.259, 66.81109
1177.741, 66.85480
1178.223, 67.04678
1178.705, 67.48971
1179.187, 68.06795
1179.669, 68.24038
1180.151, 67.98038
1180.634, 67.73098
1181.116, 67.56359
1181.598, 67.59093
1182.080, 68.26611
1182.562, 68.92127
1183.044, 68.73450
1183.526, 67.78133
1184.008, 67.67094
1184.490, 68.52696
1184.973, 68.99634
1185.455, 68.59908
1185.937, 67.86812
1186.419, 66.98414
1186.901, 66.29118
1187.383, 66.36845
1187.865, 66.03416
1188.347, 65.86931
1188.829, 66.51119
1189.312, 66.12281
1189.794, 67.08884
1190.276, 68.23740
1190.758, 68.31534
1191.240, 67.76957
1191.722, 66.94950
1192.204, 65.73437
1192.686, 65.70632
1193.169, 67.07092
1193.651, 68.33318
1194.133, 68.82094
1194.615, 68.83981
1195.097, 68.46004
1195.579, 67.97623
1196.061, 67.86410
1196.543, 68.31078
1197.026, 68.52269
1197.508, 68.48412
1197.990, 68.29911
1198.472, 67.92007
1198.954, 67.55121
1199.436, 67.49689
1199.918, 67.61111
1200.400, 67.66627
1200.882, 67.64620
1201.365, 67.52398
1201.847, 67.29668
1202.329, 66.97371
1202.811, 66.28403
1203.293, 65.75095
1203.775, 66.25204
1204.257, 67.29948
1204.739, 67.96679
1205.221, 68.00671
1205.704, 68.00706
1206.186, 67.95602
1206.668, 67.94711
1207.150, 68.16653
1207.632, 68.36816
1208.114, 68.25690
1208.596, 67.91194
1209.078, 67.48466
1209.561, 66.83392
1210.043, 66.57356
1210.525, 66.75388
1211.007, 67.13731
1211.489, 67.76286
1211.971, 68.31277
1212.453, 68.37701
1212.935, 68.07863
1213.417, 67.74196
1213.900, 67.42366
1214.382, 66.87579
1214.864, 65.98094
1215.346, 65.55186
1215.828, 66.83570
1216.310, 68.46728
1216.792, 68.98301
1217.274, 68.63985
1217.756, 68.28870
1218.239, 67.95611
1218.721, 67.79503
1219.203, 67.84412
1219.685, 67.84311
1220.167, 67.49041
1220.649, 67.04217
1221.131, 66.67924
1221.613, 66.44355
1222.096, 66.39761
1222.578, 66.56557
1223.060, 66.82128
1223.542, 67.16307
1224.024, 67.49937
1224.506, 67.74612
1224.988, 67.95422
1225.470, 68.20419
1225.953, 68.44868
1226.435, 68.55197
1226.917, 68.50464
1227.399, 68.32034
1227.881, 67.98021
1228.363, 67.73232
1228.845, 67.95956
1229.327, 68.21539
1229.809, 67.89883
1230.292, 67.36422
1230.774, 67.85759
1231.256, 69.55642
1231.738, 69.91820
1232.220, 68.55550
1232.702, 67.25076
1233.184, 67.65453
1233.666, 68.42488
1234.148, 68.76675
1234.631, 68.70024
1235.113, 68.19210
1235.595, 67.23607
1236.077, 66.74426
1236.559, 66.84110
1237.041, 67.25300
1237.523, 68.16676
1238.005, 68.94104
1238.488, 69.10934
1238.970, 68.87458
1239.452, 68.51005
1239.934, 68.04208
1240.416, 67.79247
1240.898, 67.80603
1241.380, 67.83247
1241.862, 67.39234
1242.344, 67.31324
1242.827, 68.30853
1243.309, 69.67448
1243.791, 70.03432
1244.273, 69.53085
1244.755, 68.81771
1245.237, 67.97867
1245.719, 67.57907
1246.201, 68.59389
1246.683, 69.25313
1247.166, 68.71553
1247.648, 67.70596
1248.130, 67.60023
1248.612, 68.13027
1249.094, 68.31206
1249.576, 68.04116
1250.058, 67.99931
1250.540, 68.94292
1251.023, 69.52671
1251.505, 69.32297
1251.987, 68.74306
1252.469, 68.29182
1252.951, 68.01101
1253.433, 68.12636
1253.915, 68.62639
1254.397, 68.82070
1254.880, 68.18407
1255.362, 67.75938
1255.844, 67.75345
1256.326, 68.03362
1256.808, 68.56295
1257.290, 69.18350
1257.772, 69.70420
1258.254, 70.08569
1258.736, 70.00975
1259.219, 69.13280
1259.701, 68.65598
1260.183, 68.84122
1260.665, 69.32989
1261.147, 70.04435
1261.629, 70.58004
1262.111, 70.20407
1262.593, 69.04807
1263.075, 68.52077
1263.558, 68.84705
1264.040, 69.09252
1264.522, 69.09457
1265.004, 69.01771
1265.486, 68.97142
1265.968, 68.96546
1266.450, 69.02097
1266.932, 69.12883
1267.415, 69.20004
1267.897, 69.20975
1268.379, 69.56944
1268.861, 70.37426
1269.343, 71.00395
1269.825, 70.71706
1270.307, 70.32698
1270.789, 70.47986
1271.271, 70.91508
1271.754, 71.12724
1272.236, 71.12112
1272.718, 70.98222
1273.200, 70.72256
1273.682, 70.40683
1274.164, 69.96907
1274.646, 69.60682
1275.128, 69.33086
1275.610, 69.23103
1276.093, 69.58008
1276.575, 70.23866
1277.057, 70.64233
1277.539, 70.75032
1278.021, 70.77223
1278.503, 70.76929
1278.985, 70.72604
1279.467, 70.61240
1279.950, 70.50748
1280.432, 70.60751
1280.914, 70.75468
1281.396, 70.56821
1281.878, 70.07114
1282.360, 69.54399
1282.842, 68.75988
1283.324, 68.60165
1283.807, 69.31429
1284.289, 70.18095
1284.771, 70.53278
1285.253, 70.53695
1285.735, 70.16832
1286.217, 69.62978
1286.699, 69.73823
1287.181, 70.88359
1287.663, 71.16905
1288.146, 70.34248
1288.628, 69.49924
1289.110, 69.66626
1289.592, 70.10742
1290.074, 70.13158
1290.556, 69.99837
1291.038, 70.36823
1291.520, 71.31107
1292.002, 71.58028
1292.485, 71.14053
1292.967, 70.78812
1293.449, 71.35686
1293.931, 71.79063
1294.413, 71.24731
1294.895, 71.57066
1295.377, 70.50611
1295.859, 71.08989
1296.342, 70.88172
1296.824, 70.01865
1297.306, 69.46135
1297.788, 69.89076
1298.270, 70.40480
1298.752, 70.90141
1299.234, 71.27647
1299.716, 71.46533
1300.198, 71.45290
1300.681, 70.95251
1301.163, 70.23487
1301.645, 70.01186
1302.127, 70.45247
##END=



