##NAMES=Fetiasite
##RRUFFID=R100014
##IDEAL CHEMISTRY=(Fe^2+^,Fe^3+^,Ti^4+^)_3_O_2_As^3+^_2_O_5_
##LOCALITY=Gorb, Binnental, Valais, Switzerland
##OWNER=RRUFF
##SOURCE=William Pinch
##DESCRIPTION=Brown to reddish-brown platy massive
##STATUS=The identification of this mineral has been confirmed by single-crystal X-ray diffraction.
##URL=rruff.info/R100014
109.5014, 62.77303
109.9835, 63.12365
110.4656, 63.28465
110.9478, 63.42128
111.4299, 63.68796
111.9120, 64.04643
112.3941, 64.18040
112.8762, 63.82408
113.3583, 63.42415
113.8405, 63.22096
114.3226, 63.23003
114.8047, 63.36133
115.2868, 63.57422
115.7689, 63.98857
116.2510, 64.11284
116.7332, 63.63380
117.2153, 63.06543
117.6974, 62.82893
118.1795, 63.03654
118.6616, 63.40640
119.1437, 63.27779
119.6259, 61.77539
120.1080, 60.81976
120.5901, 60.70620
121.0722, 61.10799
121.5543, 61.67618
122.0364, 62.25080
122.5186, 62.79715
123.0007, 63.09529
123.4828, 62.99288
123.9649, 62.87090
124.4470, 62.90649
124.9291, 63.05230
125.4113, 63.12577
125.8934, 63.03294
126.3755, 62.74158
126.8576, 62.27898
127.3397, 61.40237
127.8218, 60.49753
128.3040, 59.84892
128.7861, 59.43961
129.2682, 59.41699
129.7503, 60.42464
130.2324, 61.87819
130.7145, 62.77515
131.1967, 62.38292
131.6788, 61.12706
132.1609, 60.30062
132.6430, 60.01408
133.1251, 60.05812
133.6072, 60.53528
134.0894, 61.23883
134.5715, 61.71229
135.0536, 61.43834
135.5357, 60.31202
136.0178, 59.78209
136.4999, 60.51259
136.9821, 61.31106
137.4642, 61.80181
137.9463, 61.95042
138.4284, 61.89615
138.9105, 61.79298
139.3926, 61.63020
139.8748, 61.43818
140.3569, 61.15224
140.8390, 60.88478
141.3211, 60.65791
141.8032, 60.49473
142.2853, 60.48233
142.7675, 60.78659
143.2496, 61.65123
143.7317, 62.39263
144.2138, 63.13448
144.6959, 63.69225
145.1780, 63.74207
145.6602, 63.10264
146.1423, 62.12836
146.6244, 61.57738
147.1065, 61.52669
147.5886, 61.52001
148.0707, 61.30580
148.5529, 60.97211
149.0350, 60.83259
149.5171, 61.04012
149.9992, 61.51111
150.4813, 62.08373
150.9634, 62.81356
151.4456, 63.50042
151.9277, 64.02154
152.4098, 64.38612
152.8919, 64.50844
153.3740, 64.20621
153.8561, 63.69721
154.3383, 63.07021
154.8204, 62.30606
155.3025, 61.57600
155.7846, 61.16665
156.2667, 61.13980
156.7488, 61.34002
157.2310, 62.08105
157.7131, 62.85424
158.1952, 63.03323
158.6773, 62.23644
159.1594, 60.83754
159.6415, 60.29967
160.1237, 61.82111
160.6058, 62.82600
161.0879, 62.57598
161.5700, 61.60884
162.0521, 60.66706
162.5342, 60.21556
163.0164, 60.23072
163.4985, 60.39781
163.9806, 60.95134
164.4627, 61.40569
164.9448, 61.55147
165.4269, 61.47351
165.9091, 61.41645
166.3912, 61.59794
166.8733, 62.01832
167.3554, 62.07235
167.8375, 61.67640
168.3196, 61.05637
168.8018, 60.19251
169.2839, 59.13593
169.7660, 58.21806
170.2481, 57.80133
170.7302, 57.86379
171.2123, 57.65436
171.6945, 56.80041
172.1766, 55.84570
172.6587, 55.40492
173.1408, 55.58681
173.6229, 55.84846
174.1050, 55.64822
174.5872, 55.13191
175.0693, 54.66878
175.5514, 54.36028
176.0335, 54.17669
176.5156, 54.08626
176.9977, 54.14219
177.4799, 54.17590
177.9620, 54.17658
178.4441, 54.08979
178.9262, 53.74728
179.4083, 52.88332
179.8904, 51.59663
180.3726, 50.57197
180.8547, 49.78861
181.3368, 49.36249
181.8189, 49.56389
182.3010, 50.18272
182.7831, 50.66608
183.2653, 50.44202
183.7474, 49.43687
184.2295, 48.83693
184.7116, 49.07697
185.1937, 49.38946
185.6758, 49.59347
186.1580, 49.64848
186.6401, 49.55117
187.1222, 49.25730
187.6043, 48.67424
188.0864, 48.30709
188.5685, 48.41967
189.0507, 48.49847
189.5328, 48.18698
190.0149, 47.52394
190.4970, 46.86777
190.9791, 46.62886
191.4612, 46.92994
191.9434, 47.35146
192.4255, 48.21336
192.9076, 48.95640
193.3897, 49.22652
193.8718, 48.95636
194.3539, 48.24419
194.8361, 47.09776
195.3182, 45.01830
195.8003, 44.06364
196.2824, 45.22795
196.7645, 47.01140
197.2466, 47.98780
197.7288, 47.82906
198.2109, 47.15675
198.6930, 46.71033
199.1751, 46.48352
199.6572, 46.47201
200.1393, 46.99313
200.6215, 47.63490
201.1036, 47.70831
201.5857, 46.93511
202.0678, 46.00961
202.5499, 45.97313
203.0320, 46.74376
203.5142, 47.30173
203.9963, 47.19270
204.4784, 46.61227
204.9605, 46.00005
205.4426, 45.39938
205.9247, 44.85192
206.4069, 44.29936
206.8890, 43.76079
207.3711, 43.51609
207.8532, 44.00145
208.3353, 45.01715
208.8174, 45.51616
209.2996, 45.11897
209.7817, 44.42024
210.2638, 43.54517
210.7459, 42.63232
211.2280, 42.34861
211.7101, 43.75476
212.1923, 46.77396
212.6744, 48.53624
213.1565, 47.85313
213.6386, 46.65543
214.1207, 45.69286
214.6028, 45.05828
215.0850, 44.74003
215.5671, 44.89398
216.0492, 45.62474
216.5313, 45.97816
217.0134, 45.70611
217.4955, 45.22028
217.9777, 44.42849
218.4598, 43.48314
218.9419, 42.79785
219.4240, 42.91542
219.9061, 44.09080
220.3882, 44.77557
220.8704, 44.63744
221.3525, 44.32761
221.8346, 44.03193
222.3167, 43.81019
222.7988, 43.68285
223.2809, 43.65391
223.7631, 43.67891
224.2452, 44.02589
224.7273, 45.33815
225.2094, 46.37252
225.6915, 46.30396
226.1736, 45.23777
226.6558, 43.94972
227.1379, 43.23763
227.6200, 43.22252
228.1021, 43.33611
228.5842, 43.82325
229.0663, 44.22006
229.5485, 44.18117
230.0306, 43.73463
230.5127, 43.19530
230.9948, 42.86084
231.4769, 42.75661
231.9590, 42.81355
232.4412, 43.23529
232.9233, 43.64472
233.4054, 43.78376
233.8875, 43.64556
234.3696, 43.38927
234.8517, 43.10284
235.3339, 42.77901
235.8160, 42.83152
236.2981, 43.77464
236.7802, 44.71397
237.2623, 44.90964
237.7444, 44.33949
238.2266, 43.57459
238.7087, 43.03473
239.1908, 42.74104
239.6729, 42.57107
240.1550, 42.54098
240.6371, 42.62343
241.1193, 43.03131
241.6014, 43.75915
242.0835, 43.97886
242.5656, 42.57110
243.0477, 40.07615
243.5298, 38.75678
244.0120, 39.75632
244.4941, 41.44089
244.9762, 42.34749
245.4583, 42.43730
245.9404, 42.17866
246.4225, 41.61190
246.9047, 40.94847
247.3868, 40.66467
247.8689, 41.10522
248.3510, 41.71865
248.8331, 41.88437
249.3152, 41.56128
249.7974, 41.19145
250.2795, 40.94349
250.7616, 40.81556
251.2437, 40.84803
251.7258, 41.15821
252.2079, 41.47132
252.6901, 41.34935
253.1722, 40.70184
253.6543, 40.30606
254.1364, 40.71687
254.6185, 41.47900
255.1006, 42.26717
255.5828, 43.10771
256.0649, 43.67582
256.5470, 43.37728
257.0291, 42.02937
257.5112, 40.95729
257.9933, 40.78524
258.4755, 40.99739
258.9576, 41.32849
259.4397, 41.73980
259.9218, 42.07423
260.4039, 42.10411
260.8860, 41.77500
261.3682, 41.45536
261.8503, 41.43982
262.3324, 41.32427
262.8145, 40.63143
263.2966, 39.31318
263.7787, 38.14144
264.2609, 38.16254
264.7430, 39.64632
265.2251, 40.80973
265.7072, 41.33767
266.1893, 41.50336
266.6714, 41.18508
267.1536, 40.47915
267.6357, 39.91719
268.1178, 40.20408
268.5999, 41.54708
269.0820, 42.51414
269.5641, 42.95262
270.0463, 43.04533
270.5284, 42.69702
271.0105, 42.00051
271.4926, 41.24824
271.9747, 40.69019
272.4568, 40.32849
272.9390, 40.12398
273.4211, 40.19027
273.9032, 40.32660
274.3853, 40.53124
274.8674, 40.75945
275.3495, 40.92170
275.8317, 40.94108
276.3138, 40.81607
276.7959, 40.65460
277.2780, 40.42004
277.7601, 40.18090
278.2422, 39.90824
278.7244, 39.64610
279.2065, 39.45131
279.6886, 39.33900
280.1707, 39.33018
280.6528, 39.66827
281.1349, 41.22346
281.6171, 42.17936
282.0992, 41.90432
282.5813, 40.86410
283.0634, 39.63022
283.5455, 38.48010
284.0276, 37.55614
284.5098, 37.54132
284.9919, 39.68286
285.4740, 41.24323
285.9561, 41.54346
286.4382, 41.21130
286.9203, 40.99433
287.4025, 41.23502
287.8846, 41.72679
288.3667, 41.91690
288.8488, 41.57201
289.3309, 41.22538
289.8130, 40.74929
290.2952, 40.36793
290.7773, 40.41193
291.2594, 40.95479
291.7415, 41.61934
292.2236, 41.69122
292.7057, 40.64431
293.1879, 39.85850
293.6700, 39.31137
294.1521, 39.00066
294.6342, 39.06807
295.1163, 39.47325
295.5984, 39.87697
296.0806, 39.78237
296.5627, 38.84814
297.0448, 38.41753
297.5269, 39.02539
298.0090, 39.61496
298.4911, 39.36058
298.9733, 38.36475
299.4554, 37.46034
299.9375, 37.54639
300.4196, 38.86759
300.9017, 39.54160
301.3839, 39.01094
301.8660, 38.49082
302.3481, 38.57304
302.8302, 39.11922
303.3123, 39.65188
303.7944, 39.83184
304.2766, 39.66051
304.7587, 39.20973
305.2408, 37.98094
305.7229, 37.02578
306.2050, 36.55988
306.6871, 36.57209
307.1693, 37.16294
307.6514, 38.45296
308.1335, 40.13711
308.6156, 40.79194
309.0977, 39.00577
309.5798, 37.81001
310.0620, 37.92090
310.5441, 38.64095
311.0262, 39.12174
311.5083, 39.01926
311.9904, 38.54116
312.4725, 38.13555
312.9547, 37.60271
313.4368, 37.45308
313.9189, 38.11496
314.4010, 38.89606
314.8831, 39.13014
315.3652, 38.68559
315.8474, 37.99752
316.3295, 37.70575
316.8116, 38.11350
317.2937, 38.10147
317.7758, 37.21730
318.2579, 36.32973
318.7401, 36.00120
319.2222, 36.24260
319.7043, 36.71429
320.1864, 37.10189
320.6685, 37.39616
321.1506, 37.67256
321.6328, 38.01464
322.1149, 38.26168
322.5970, 38.36394
323.0791, 38.31962
323.5612, 38.10123
324.0433, 37.65373
324.5255, 37.02715
325.0076, 36.76634
325.4897, 37.44375
325.9718, 37.83748
326.4539, 37.47525
326.9360, 36.75349
327.4182, 36.27187
327.9003, 36.32148
328.3824, 36.70172
328.8645, 36.84236
329.3466, 36.43709
329.8287, 36.19570
330.3109, 36.22627
330.7930, 36.38275
331.2751, 36.57398
331.7572, 36.75909
332.2393, 36.88383
332.7214, 36.84882
333.2036, 36.53860
333.6857, 36.33453
334.1678, 36.24760
334.6499, 36.23606
335.1320, 36.23186
335.6141, 36.25962
336.0963, 36.47441
336.5784, 37.13782
337.0605, 38.41024
337.5426, 38.73694
338.0247, 36.93981
338.5068, 35.41714
338.9890, 35.20662
339.4711, 35.90675
339.9532, 36.54612
340.4353, 36.44923
340.9174, 35.77989
341.3995, 35.61144
341.8817, 36.55050
342.3638, 37.28172
342.8459, 37.65403
343.3280, 37.70173
343.8101, 37.40479
344.2922, 36.75546
344.7744, 35.94580
345.2565, 35.37654
345.7386, 35.05378
346.2207, 34.99378
346.7028, 35.39431
347.1849, 35.87188
347.6671, 36.14986
348.1492, 36.18102
348.6313, 36.09042
349.1134, 36.03994
349.5955, 36.06754
350.0776, 35.96684
350.5598, 35.54524
351.0419, 35.16476
351.5240, 35.03957
352.0061, 35.09662
352.4882, 35.08099
352.9703, 34.71984
353.4525, 34.08681
353.9346, 33.97092
354.4167, 34.80563
354.8988, 35.60499
355.3809, 36.15702
355.8630, 36.48302
356.3452, 36.55462
356.8273, 36.31114
357.3094, 35.98053
357.7915, 36.14896
358.2736, 37.12658
358.7557, 37.78815
359.2379, 37.73146
359.7200, 37.37321
360.2021, 36.98122
360.6842, 36.61824
361.1663, 36.26102
361.6484, 35.73820
362.1306, 34.99220
362.6127, 34.86369
363.0948, 36.20030
363.5769, 37.45521
364.0590, 37.63315
364.5411, 36.91843
365.0233, 36.17487
365.5054, 36.04154
365.9875, 36.36916
366.4696, 36.50085
366.9517, 36.36039
367.4338, 36.16776
367.9160, 35.84670
368.3981, 35.58782
368.8802, 35.78046
369.3623, 36.83979
369.8444, 38.00316
370.3265, 37.89781
370.8087, 36.31833
371.2908, 35.30438
371.7729, 36.27099
372.2550, 37.74912
372.7371, 38.09571
373.2192, 37.02325
373.7014, 35.77410
374.1835, 35.27772
374.6656, 35.39008
375.1477, 35.39229
375.6298, 34.96722
376.1119, 34.71962
376.5941, 35.54153
377.0762, 37.20272
377.5583, 38.36255
378.0404, 38.25219
378.5225, 37.46667
379.0046, 36.77112
379.4868, 36.19749
379.9689, 35.87912
380.4510, 36.14677
380.9331, 36.71838
381.4152, 36.71852
381.8973, 35.50262
382.3795, 34.35480
382.8616, 34.25528
383.3437, 34.98227
383.8258, 35.66716
384.3079, 36.00203
384.7900, 36.04939
385.2722, 35.82573
385.7543, 35.16368
386.2364, 34.84979
386.7185, 35.33673
387.2006, 36.19419
387.6827, 36.94265
388.1649, 37.48527
388.6470, 37.76601
389.1291, 37.67070
389.6112, 37.13339
390.0933, 36.75599
390.5754, 36.58771
391.0576, 36.53174
391.5397, 36.64678
392.0218, 36.84562
392.5039, 36.82656
392.9860, 36.35157
393.4681, 35.58302
393.9503, 35.32566
394.4324, 36.25478
394.9145, 36.81448
395.3966, 36.35611
395.8787, 35.58265
396.3608, 35.38619
396.8430, 36.02625
397.3251, 37.01873
397.8072, 37.66449
398.2893, 37.94939
398.7714, 37.87208
399.2535, 37.12486
399.7357, 36.33938
400.2178, 35.75602
400.6999, 35.44428
401.1820, 35.51535
401.6641, 36.15561
402.1462, 37.26569
402.6284, 37.57693
403.1105, 36.01261
403.5926, 34.90492
404.0747, 35.06944
404.5568, 35.74171
405.0389, 35.94242
405.5211, 35.29413
406.0032, 34.31941
406.4853, 33.94542
406.9674, 34.34041
407.4495, 34.81981
407.9316, 35.61902
408.4138, 36.24137
408.8959, 36.23621
409.3780, 35.71032
409.8601, 35.24780
410.3422, 35.32606
410.8243, 35.89549
411.3065, 36.62468
411.7886, 37.85619
412.2707, 38.64171
412.7528, 38.26898
413.2349, 37.32814
413.7170, 36.68322
414.1992, 36.72509
414.6813, 36.96468
415.1634, 36.67788
415.6455, 35.82814
416.1276, 35.16566
416.6097, 34.95609
417.0919, 35.00151
417.5740, 35.12335
418.0561, 35.31916
418.5382, 35.46437
419.0203, 35.32452
419.5024, 35.11249
419.9846, 35.47676
420.4667, 36.66610
420.9488, 37.56469
421.4309, 36.90818
421.9130, 35.17421
422.3951, 34.15715
422.8773, 34.76656
423.3594, 35.52665
423.8415, 35.26304
424.3236, 34.23981
424.8057, 33.44277
425.2878, 33.27581
425.7700, 33.58313
426.2521, 34.13702
426.7342, 35.13633
427.2163, 35.79440
427.6984, 35.82269
428.1805, 35.53550
428.6627, 35.12805
429.1448, 34.67760
429.6269, 34.45824
430.1090, 34.81555
430.5911, 35.81443
431.0732, 36.05709
431.5554, 34.77600
432.0375, 33.73896
432.5196, 33.64985
433.0017, 34.19072
433.4838, 34.88806
433.9659, 35.52677
434.4481, 35.98235
434.9302, 35.92101
435.4123, 34.75258
435.8944, 34.15536
436.3765, 34.63902
436.8586, 35.24482
437.3408, 35.30888
437.8229, 34.84344
438.3050, 34.30925
438.7871, 34.11953
439.2692, 34.24882
439.7513, 34.22819
440.2335, 33.83236
440.7156, 33.61584
441.1977, 33.91883
441.6798, 34.40672
442.1619, 34.64030
442.6440, 34.44930
443.1262, 34.08146
443.6083, 33.89866
444.0904, 33.92691
444.5725, 33.79427
445.0546, 33.19582
445.5367, 32.66587
446.0189, 32.60299
446.5010, 32.96539
446.9831, 33.48351
447.4652, 34.39451
447.9473, 35.25428
448.4294, 34.95397
448.9116, 33.29486
449.3937, 31.98006
449.8758, 32.33669
450.3579, 33.56601
450.8400, 33.83502
451.3221, 32.62289
451.8043, 31.38262
452.2864, 30.74266
452.7685, 30.64191
453.2506, 31.16520
453.7327, 32.42899
454.2148, 33.59572
454.6970, 33.55709
455.1791, 32.03210
455.6612, 31.11920
456.1433, 31.23150
456.6254, 31.61190
457.1075, 32.01804
457.5897, 32.32212
458.0718, 32.19978
458.5539, 31.41137
459.0360, 30.27748
459.5181, 29.79500
460.0002, 30.60406
460.4824, 31.25053
460.9645, 31.89743
461.4466, 32.25317
461.9287, 31.86001
462.4108, 30.81009
462.8929, 29.80767
463.3751, 29.58722
463.8572, 30.15671
464.3393, 30.49112
464.8214, 30.32048
465.3035, 30.24025
465.7856, 30.63987
466.2678, 31.13307
466.7499, 31.09244
467.2320, 30.24140
467.7141, 29.29232
468.1962, 29.48057
468.6783, 30.96421
469.1605, 31.81133
469.6426, 31.25546
470.1247, 30.46860
470.6068, 30.21420
471.0889, 29.21526
471.5710, 30.77391
472.0532, 31.66328
472.5353, 31.91924
473.0174, 29.64887
473.4995, 30.63753
473.9816, 30.31815
474.4637, 29.94379
474.9459, 31.38714
475.4280, 29.47702
475.9101, 30.88871
476.3922, 30.97243
476.8743, 31.66189
477.3564, 31.03526
477.8386, 30.81329
478.3207, 31.90504
478.8028, 32.26720
479.2849, 31.48363
479.7670, 32.20328
480.2491, 30.23323
480.7313, 30.62081
481.2134, 32.02479
481.6955, 31.30032
482.1776, 32.03701
482.6597, 32.21527
483.1418, 29.86069
483.6240, 31.90714
484.1061, 32.04829
484.5882, 30.23313
485.0703, 32.12455
485.5524, 30.57609
486.0345, 30.25356
486.5167, 30.85327
486.9988, 30.48871
487.4809, 31.64082
487.9630, 31.32907
488.4451, 30.88526
488.9272, 31.01027
489.4094, 30.60801
489.8915, 31.02211
490.3736, 30.47710
490.8557, 30.94855
491.3378, 31.64931
491.8199, 30.58212
492.3021, 31.38374
492.7842, 29.28370
493.2663, 29.60902
493.7484, 29.67162
494.2305, 31.28394
494.7126, 29.19245
495.1948, 29.44473
495.6769, 30.69416
496.1590, 30.54500
496.6411, 30.97862
497.1232, 29.68143
497.6053, 30.00748
498.0875, 29.88432
498.5696, 31.30720
499.0517, 31.50705
499.5338, 30.23220
500.0159, 28.96220
500.4980, 30.49086
500.9802, 29.36418
501.4623, 29.66786
501.9444, 28.49145
502.4265, 28.59038
502.9086, 28.66768
503.3907, 29.39807
503.8729, 29.20432
504.3550, 29.45975
504.8371, 29.28778
505.3192, 29.55269
505.8013, 29.76745
506.2834, 29.53096
506.7656, 27.83624
507.2477, 29.18201
507.7298, 28.60122
508.2119, 28.38546
508.6940, 29.20057
509.1761, 30.50113
509.6583, 31.16335
510.1404, 31.09248
510.6225, 30.91039
511.1046, 30.72670
511.5867, 30.54575
512.0688, 30.36593
512.5510, 30.18908
513.0331, 30.02877
513.5152, 29.96468
513.9973, 29.88697
514.4794, 29.53618
514.9615, 28.91212
515.4437, 28.47413
515.9258, 28.46169
516.4079, 28.82611
516.8900, 29.51667
517.3721, 31.06790
517.8542, 31.84488
518.3364, 30.73689
518.8185, 29.12944
519.3006, 28.50831
519.7827, 28.99127
520.2648, 29.74234
520.7469, 30.06725
521.2291, 29.98934
521.7112, 29.85653
522.1933, 29.57975
522.6754, 29.35606
523.1575, 28.98058
523.6396, 28.79702
524.1218, 29.42127
524.6039, 30.86021
525.0860, 32.11442
525.5681, 31.86577
526.0502, 30.15767
526.5323, 29.19732
527.0145, 29.33681
527.4966, 29.63560
527.9787, 29.67435
528.4608, 29.57940
528.9429, 29.49128
529.4250, 29.40059
529.9072, 29.46283
530.3893, 30.08942
530.8714, 30.99944
531.3535, 31.11441
531.8356, 30.07154
532.3177, 28.92625
532.7999, 28.71685
533.2820, 29.40660
533.7641, 29.78938
534.2462, 29.68950
534.7283, 29.44259
535.2104, 29.08328
535.6926, 28.70942
536.1747, 28.45710
536.6568, 28.37531
537.1389, 28.48401
537.6210, 28.85783
538.1031, 29.63751
538.5853, 30.06249
539.0674, 29.85137
539.5495, 29.60623
540.0316, 29.49162
540.5137, 29.48799
540.9958, 29.55450
541.4780, 29.67719
541.9601, 29.81372
542.4422, 29.90141
542.9243, 29.93801
543.4064, 29.98189
543.8885, 30.21899
544.3707, 30.21463
544.8528, 29.47061
545.3349, 28.27650
545.8170, 27.39459
546.2991, 27.12311
546.7813, 27.19475
547.2634, 27.42936
547.7455, 27.80555
548.2276, 28.29253
548.7097, 28.92959
549.1918, 29.49792
549.6740, 29.72747
550.1561, 29.57692
550.6382, 29.16637
551.1203, 27.71428
551.6024, 26.76935
552.0845, 27.71815
552.5667, 29.68074
553.0488, 30.86213
553.5309, 30.48059
554.0130, 29.33836
554.4951, 28.91575
554.9772, 29.59242
555.4594, 29.83446
555.9415, 29.12903
556.4236, 28.47504
556.9057, 28.39754
557.3878, 28.63721
557.8699, 28.60300
558.3521, 27.94492
558.8342, 27.17986
559.3163, 27.11439
559.7984, 27.71921
560.2805, 28.14270
560.7626, 26.95473
561.2448, 28.45382
561.7269, 29.28503
562.2090, 29.48424
562.6911, 27.15853
563.1732, 28.09323
563.6553, 27.72130
564.1375, 27.29579
564.6196, 28.68938
565.1017, 26.73091
565.5838, 28.09565
566.0659, 28.13383
566.5480, 28.77914
567.0302, 28.10975
567.5123, 27.84643
567.9944, 28.89824
568.4765, 29.22185
568.9586, 28.40112
569.4407, 29.08503
569.9229, 27.08062
570.4050, 27.43525
570.8871, 28.80769
571.3692, 28.05306
571.8513, 28.76101
572.3334, 28.91192
572.8156, 26.53138
573.2977, 28.55329
573.7798, 28.67129
574.2619, 26.83439
574.7440, 28.70545
575.2261, 27.13806
575.7083, 26.79797
576.1904, 27.38153
576.6725, 27.00223
577.1546, 28.14100
577.6367, 27.81730
578.1188, 27.36294
578.6010, 27.47880
579.0831, 27.06878
579.5652, 27.47655
580.0473, 26.92660
580.5294, 27.39450
581.0115, 28.09312
581.4937, 27.02518
581.9758, 27.82745
582.4579, 25.72947
582.9400, 26.05824
583.4221, 26.12569
583.9042, 27.74428
584.3864, 25.66043
584.8685, 25.92177
585.3506, 27.18167
585.8327, 27.04436
586.3148, 27.49123
586.7969, 26.20870
587.2791, 26.55080
587.7612, 26.44510
588.2433, 27.88684
588.7254, 28.10694
589.2075, 26.85376
589.6896, 25.60681
590.1718, 27.15991
590.6539, 26.05910
591.1360, 26.39005
591.6181, 25.24229
592.1002, 25.37128
592.5823, 25.48004
593.0645, 26.24327
593.5466, 26.13027
594.0287, 26.22574
594.5108, 26.30780
594.9929, 26.44928
595.4750, 26.51792
595.9572, 26.61135
596.4393, 27.12628
596.9214, 28.43247
597.4035, 29.13651
597.8856, 28.55643
598.3677, 27.70516
598.8499, 26.91767
599.3320, 26.30839
599.8141, 26.15917
600.2962, 26.96085
600.7783, 27.88650
601.2604, 27.67046
601.7426, 26.55353
602.2247, 26.05626
602.7068, 26.77670
603.1889, 27.76680
603.6710, 27.86474
604.1531, 26.92466
604.6353, 26.24732
605.1174, 25.84440
605.5995, 25.68291
606.0816, 25.80445
606.5637, 26.14004
607.0458, 26.68878
607.5280, 27.41262
608.0101, 28.04818
608.4922, 28.22839
608.9743, 27.93317
609.4564, 27.77316
609.9385, 27.96128
610.4207, 27.93137
610.9028, 27.20501
611.3849, 26.30369
611.8670, 25.87300
612.3491, 26.05481
612.8312, 26.26852
613.3134, 26.02189
613.7955, 25.59124
614.2776, 25.51248
614.7597, 25.81728
615.2418, 26.18708
615.7239, 26.44724
616.2061, 26.63976
616.6882, 26.89386
617.1703, 27.43608
617.6524, 27.60828
618.1345, 26.99417
618.6166, 26.33544
619.0988, 26.09938
619.5809, 26.25595
620.0630, 26.65213
620.5451, 27.23729
621.0272, 27.79661
621.5093, 27.81831
621.9915, 27.20290
622.4736, 26.75237
622.9557, 26.65545
623.4378, 26.62980
623.9199, 26.41894
624.4020, 26.13105
624.8842, 26.06934
625.3663, 26.50477
625.8484, 26.86101
626.3305, 26.58828
626.8126, 25.97777
627.2947, 25.58225
627.7769, 25.51642
628.2590, 25.70962
628.7411, 26.13334
629.2232, 26.76599
629.7053, 27.32576
630.1874, 27.91188
630.6696, 28.28482
631.1517, 28.39949
631.6338, 28.30838
632.1159, 27.89907
632.5980, 27.28114
633.0801, 26.88466
633.5623, 27.11173
634.0444, 27.67704
634.5265, 27.87814
635.0086, 27.68657
635.4907, 27.50767
635.9728, 27.42698
636.4550, 27.44908
636.9371, 27.71877
637.4192, 28.20114
637.9013, 28.30116
638.3834, 27.43656
638.8655, 26.66731
639.3477, 26.73585
639.8298, 27.29577
640.3119, 27.74417
640.7940, 27.89358
641.2761, 27.83796
641.7582, 27.63518
642.2404, 27.27868
642.7225, 27.23980
643.2046, 27.80884
643.6867, 28.24585
644.1688, 28.31762
644.6509, 28.20669
645.1331, 28.02478
645.6152, 27.80392
646.0973, 27.69724
646.5794, 27.87981
647.0615, 28.19448
647.5436, 28.47481
648.0258, 28.69248
648.5079, 28.56540
648.9900, 27.87801
649.4721, 27.07194
649.9542, 26.89609
650.4363, 27.56408
650.9185, 28.11577
651.4006, 28.46611
651.8827, 28.80281
652.3648, 29.44540
652.8469, 30.03537
653.3290, 29.90129
653.8112, 28.87908
654.2933, 27.74381
654.7754, 27.38931
655.2575, 27.73997
655.7396, 28.19527
656.2217, 28.82206
656.7039, 29.30413
657.1860, 29.56162
657.6681, 29.52407
658.1502, 28.96799
658.6323, 27.70500
659.1144, 26.98268
659.5966, 27.71271
660.0787, 28.67805
660.5608, 28.71293
661.0429, 28.09781
661.5250, 27.83084
662.0071, 28.35884
662.4893, 29.21692
662.9714, 29.65661
663.4535, 29.63819
663.9356, 29.39702
664.4177, 28.63568
664.8998, 28.04399
665.3820, 27.93301
665.8641, 28.09803
666.3462, 28.29109
666.8283, 28.46574
667.3104, 28.64549
667.7925, 28.88623
668.2747, 29.12382
668.7568, 29.26218
669.2389, 29.29519
669.7210, 29.23766
670.2031, 29.09195
670.6852, 28.87106
671.1674, 28.58499
671.6495, 28.15269
672.1316, 27.88139
672.6137, 27.85811
673.0958, 27.88646
673.5779, 27.96770
674.0601, 28.01776
674.5422, 27.86315
675.0243, 27.44685
675.5064, 27.08038
675.9885, 27.09793
676.4706, 27.43195
676.9528, 27.91873
677.4349, 28.59858
677.9170, 29.00179
678.3991, 28.78081
678.8812, 28.22869
679.3633, 28.01274
679.8455, 28.30854
680.3276, 28.29981
680.8097, 27.46293
681.2918, 26.72206
681.7739, 26.80243
682.2560, 27.36528
682.7382, 27.69233
683.2203, 27.51198
683.7024, 27.17113
684.1845, 27.14107
684.6666, 27.40918
685.1487, 27.60653
685.6309, 27.76947
686.1130, 27.73746
686.5951, 27.25776
687.0772, 26.63753
687.5593, 26.37460
688.0414, 26.54110
688.5236, 26.65782
689.0057, 26.49142
689.4878, 26.30399
689.9699, 26.37270
690.4520, 26.59055
690.9341, 26.72251
691.4163, 26.67061
691.8984, 26.34784
692.3805, 25.48350
692.8626, 23.99429
693.3447, 23.33866
693.8268, 24.02929
694.3090, 24.66468
694.7911, 24.63066
695.2732, 24.34803
695.7553, 24.16106
696.2374, 24.10448
696.7195, 24.32572
697.2017, 25.31246
697.6838, 26.28315
698.1659, 26.29746
698.6480, 25.59978
699.1301, 25.05311
699.6122, 24.97083
700.0944, 24.90217
700.5765, 24.13053
701.0586, 22.55247
701.5407, 22.11988
702.0228, 23.76047
702.5049, 25.20428
702.9871, 26.00180
703.4692, 26.31229
703.9513, 26.09848
704.4334, 25.44417
704.9155, 24.91600
705.3976, 24.80821
705.8798, 24.99511
706.3619, 25.57850
706.8440, 26.36048
707.3261, 26.55984
707.8082, 25.92477
708.2903, 25.06464
708.7725, 24.65174
709.2546, 24.67965
709.7367, 24.56836
710.2188, 24.00635
710.7009, 23.74293
711.1830, 24.06347
711.6652, 24.56958
712.1473, 25.04993
712.6294, 25.43309
713.1115, 25.58497
713.5936, 25.35755
714.0757, 24.97506
714.5579, 24.73544
715.0400, 24.57821
715.5221, 24.19199
716.0042, 23.48592
716.4863, 22.97300
716.9684, 23.17035
717.4506, 23.93605
717.9327, 24.27893
718.4148, 23.70115
718.8969, 23.40368
719.3790, 23.65239
719.8611, 24.01037
720.3433, 24.23638
720.8254, 24.32688
721.3075, 24.34899
721.7896, 24.32329
722.2717, 24.26886
722.7538, 24.15040
723.2360, 24.02035
723.7181, 24.11533
724.2002, 24.47647
724.6823, 24.69094
725.1644, 24.39939
725.6465, 23.88067
726.1287, 24.01336
726.6108, 25.70274
727.0929, 26.31476
727.5750, 24.80070
728.0571, 23.35997
728.5392, 23.29190
729.0214, 23.98301
729.5035, 24.32682
729.9856, 23.96501
730.4677, 23.34316
730.9498, 22.55585
731.4319, 21.88645
731.9141, 22.24155
732.3962, 23.60966
732.8783, 24.79021
733.3604, 25.26534
733.8425, 25.16535
734.3246, 24.58438
734.8068, 23.22974
735.2889, 22.71068
735.7710, 23.84468
736.2531, 24.75862
736.7352, 24.53162
737.2173, 24.01217
737.6995, 24.39194
738.1816, 25.71784
738.6637, 26.63033
739.1458, 25.77410
739.6279, 24.19806
740.1100, 23.60669
740.5922, 23.85550
741.0743, 24.23451
741.5564, 24.58600
742.0385, 24.61691
742.5206, 23.85533
743.0027, 22.37890
743.4849, 22.00616
743.9670, 24.09039
744.4491, 25.42211
744.9312, 25.13550
745.4133, 24.48983
745.8954, 24.35999
746.3776, 24.68410
746.8597, 25.00607
747.3418, 25.17472
747.8239, 25.15708
748.3060, 24.76354
748.7881, 24.17918
749.2703, 23.93065
749.7524, 24.07313
750.2345, 24.22541
750.7166, 24.16102
751.1987, 23.89086
751.6808, 23.39302
752.1630, 22.33409
752.6451, 21.82390
753.1272, 22.20669
753.6093, 22.76887
754.0914, 23.34157
754.5735, 23.89192
755.0557, 24.48780
755.5378, 25.16681
756.0199, 25.44185
756.5020, 24.54637
756.9841, 23.36948
757.4662, 23.16934
757.9484, 23.76531
758.4305, 24.29603
758.9126, 24.43962
759.3947, 24.39902
759.8768, 24.43931
760.3589, 24.56235
760.8411, 24.47315
761.3232, 23.93494
761.8053, 23.61395
762.2874, 23.90042
762.7695, 24.28445
763.2516, 24.40248
763.7338, 24.26827
764.2159, 24.05736
764.6980, 23.77371
765.1801, 23.49640
765.6622, 23.22832
766.1443, 23.02353
766.6265, 23.00630
767.1086, 23.15994
767.5907, 23.25714
768.0728, 23.10565
768.5549, 22.95936
769.0370, 23.68635
769.5192, 25.60069
770.0013, 26.27961
770.4834, 24.82863
770.9655, 23.35288
771.4476, 23.02762
771.9297, 23.47523
772.4119, 24.15835
772.8940, 25.18534
773.3761, 25.90265
773.8582, 26.08105
774.3403, 25.94281
774.8224, 25.37843
775.3046, 24.68814
775.7867, 24.52802
776.2688, 25.03332
776.7509, 25.43964
777.2330, 24.79717
777.7151, 23.45056
778.1973, 22.77355
778.6794, 22.80374
779.1615, 23.17246
779.6436, 23.91108
780.1257, 24.68422
780.6078, 25.24237
781.0900, 25.56281
781.5721, 25.35205
782.0542, 23.97358
782.5363, 22.96551
783.0184, 22.71804
783.5005, 22.83393
783.9827, 23.14816
784.4648, 23.53672
784.9469, 23.79490
785.4290, 23.81796
785.9111, 23.75392
786.3932, 23.75736
786.8754, 23.80584
787.3575, 23.82281
787.8396, 23.80505
788.3217, 23.83807
788.8038, 23.97012
789.2859, 24.16406
789.7681, 24.38366
790.2502, 24.69117
790.7323, 24.69737
791.2144, 23.92588
791.6965, 23.46368
792.1786, 23.87645
792.6608, 24.50488
793.1429, 24.71492
793.6250, 24.47888
794.1071, 24.15795
794.5892, 23.91472
795.0714, 23.64271
795.5535, 23.05842
796.0356, 22.45344
796.5177, 22.50260
796.9998, 23.21023
797.4819, 23.79440
797.9641, 23.65906
798.4462, 23.17440
798.9283, 23.45536
799.4104, 24.71929
799.8925, 25.15486
800.3746, 24.22264
800.8568, 23.22319
801.3389, 22.79733
801.8210, 22.80381
802.3031, 23.02983
802.7852, 23.60229
803.2673, 23.80228
803.7495, 22.96724
804.2316, 22.28552
804.7137, 22.77897
805.1958, 23.69350
805.6779, 23.85592
806.1600, 23.07758
806.6422, 22.09643
807.1243, 21.42839
807.6064, 21.01570
808.0885, 20.71764
808.5706, 20.55306
809.0527, 20.70677
809.5349, 21.23859
810.0170, 21.92700
810.4991, 22.64507
810.9812, 23.35132
811.4633, 23.88662
811.9454, 24.38474
812.4276, 24.45831
812.9097, 23.80990
813.3918, 23.07191
813.8739, 22.25115
814.3560, 21.62817
814.8381, 21.74874
815.3203, 22.76144
815.8024, 23.58875
816.2845, 23.53568
816.7666, 23.13486
817.2487, 22.78541
817.7308, 22.54182
818.2130, 22.62672
818.6951, 23.02853
819.1772, 23.08335
819.6593, 21.99821
820.1414, 20.30804
820.6235, 20.23011
821.1057, 22.05824
821.5878, 23.35689
822.0699, 23.71305
822.5520, 23.46855
823.0341, 22.49826
823.5162, 21.17771
823.9984, 20.73987
824.4805, 21.63574
824.9626, 22.30149
825.4447, 22.45609
825.9268, 22.45714
826.4089, 22.48220
826.8911, 22.49094
827.3732, 22.41242
827.8553, 22.22618
828.3374, 21.93152
828.8195, 21.39375
829.3016, 20.83508
829.7838, 20.57858
830.2659, 20.59066
830.7480, 20.82294
831.2301, 21.25480
831.7122, 21.64718
832.1943, 21.82321
832.6765, 21.76635
833.1586, 21.31525
833.6407, 20.18862
834.1228, 19.64100
834.6049, 20.06660
835.0870, 20.64841
835.5692, 20.97947
836.0513, 21.17821
836.5334, 21.42923
837.0155, 21.76479
837.4976, 22.00704
837.9797, 22.13623
838.4619, 22.13423
838.9440, 21.98398
839.4261, 21.69916
839.9082, 21.13330
840.3903, 20.38166
840.8724, 20.03032
841.3546, 20.68714
841.8367, 21.59745
842.3188, 21.33450
842.8009, 20.19480
843.2830, 19.51955
843.7651, 19.50517
844.2473, 19.98701
844.7294, 20.95308
845.2115, 22.11582
845.6936, 22.84478
846.1757, 23.15176
846.6578, 22.92065
847.1400, 21.31969
847.6221, 20.41547
848.1042, 21.80334
848.5863, 23.55162
849.0684, 23.55116
849.5505, 21.88180
850.0327, 20.58870
850.5148, 20.42156
850.9969, 20.50054
851.4790, 20.44870
851.9611, 20.39549
852.4432, 20.62651
852.9254, 21.00701
853.4075, 20.96804
853.8896, 20.17828
854.3717, 19.35807
854.8538, 19.59066
855.3359, 20.54880
855.8181, 21.03225
856.3002, 21.00196
856.7823, 21.02681
857.2644, 21.36611
857.7465, 21.62254
858.2286, 21.22198
858.7108, 20.19181
859.1929, 19.66882
859.6750, 19.83187
860.1571, 20.15600
860.6392, 20.88832
861.1213, 21.43304
861.6035, 21.12431
862.0856, 20.39547
862.5677, 20.39169
863.0498, 21.68521
863.5319, 22.46395
864.0140, 21.53808
864.4962, 20.42178
864.9783, 20.38019
865.4604, 20.90231
865.9425, 20.82065
866.4246, 19.95200
866.9067, 19.39830
867.3889, 20.34443
867.8710, 21.88447
868.3531, 22.31829
868.8352, 21.85334
869.3173, 21.40370
869.7994, 21.13688
870.2816, 20.85829
870.7637, 20.40083
871.2458, 19.93733
871.7279, 19.97210
872.2100, 20.74532
872.6921, 20.98887
873.1743, 20.42473
873.6564, 19.83266
874.1385, 19.40493
874.6206, 19.17197
875.1027, 19.19724
875.5848, 19.47183
876.0670, 19.80010
876.5491, 20.26085
877.0312, 20.63441
877.5133, 21.03338
877.9954, 21.16340
878.4775, 20.51894
878.9597, 19.41429
879.4418, 18.68609
879.9239, 18.68892
880.4060, 18.82774
880.8881, 18.33764
881.3702, 18.87723
881.8524, 18.31694
882.3345, 19.64709
882.8166, 20.67240
883.2987, 21.03279
883.7808, 20.58952
884.2629, 19.01068
884.7451, 16.80394
885.2272, 16.13025
885.7093, 17.22077
886.1914, 17.80452
886.6735, 17.30379
887.1556, 17.10230
887.6378, 18.37072
888.1199, 20.22330
888.6020, 20.67339
889.0841, 19.13428
889.5662, 18.29257
890.0483, 18.65616
890.5305, 19.05750
891.0126, 19.37220
891.4947, 19.43267
891.9768, 18.86682
892.4589, 17.86897
892.9410, 17.29370
893.4232, 17.58524
893.9053, 18.05108
894.3874, 18.45188
894.8695, 18.68245
895.3516, 18.56600
895.8337, 18.18246
896.3159, 17.66189
896.7980, 17.07685
897.2801, 16.73537
897.7622, 17.13548
898.2443, 17.90369
898.7264, 18.06394
899.2086, 17.67712
899.6907, 17.12078
900.1728, 16.45511
900.6549, 16.07727
901.1370, 16.32488
901.6191, 16.96724
902.1013, 17.35961
902.5834, 17.41090
903.0655, 17.61215
903.5476, 18.22985
904.0297, 18.46058
904.5118, 17.56117
904.9940, 16.47233
905.4761, 16.61149
905.9582, 17.86537
906.4403, 18.17243
906.9224, 16.27964
907.4045, 14.95483
907.8867, 15.24012
908.3688, 15.89085
908.8509, 16.07532
909.3330, 15.89754
909.8151, 15.68089
910.2972, 15.50634
910.7794, 15.54936
911.2615, 16.24759
911.7436, 16.93543
912.2257, 16.71612
912.7078, 16.02599
913.1899, 15.82073
913.6721, 16.20819
914.1542, 16.52068
914.6363, 16.25357
915.1184, 15.84495
915.6005, 16.25149
916.0826, 16.15286
916.5648, 16.10251
917.0469, 16.72193
917.5290, 16.36399
918.0111, 16.98492
918.4932, 17.83013
918.9753, 17.95377
919.4575, 17.39035
919.9396, 16.65106
920.4217, 15.36781
920.9038, 14.98098
921.3859, 16.43758
921.8680, 17.77344
922.3502, 17.40766
922.8323, 16.14020
923.3144, 15.87693
923.7965, 16.99368
924.2786, 17.61320
924.7607, 17.22329
925.2429, 16.72350
925.7250, 16.18703
926.2071, 15.88579
926.6892, 16.36312
927.1713, 17.35497
927.6534, 17.74942
928.1356, 16.92149
928.6177, 15.99761
929.0998, 15.54489
929.5819, 15.47379
930.0640, 15.88343
930.5461, 16.54597
931.0283, 17.05648
931.5104, 17.27683
931.9925, 17.20458
932.4746, 16.76129
932.9567, 16.12793
933.4388, 15.53976
933.9210, 15.04385
934.4031, 14.88139
934.8852, 15.06599
935.3673, 15.36125
935.8494, 15.66178
936.3315, 15.80818
936.8137, 15.42856
937.2958, 14.55104
937.7779, 14.33859
938.2600, 14.94445
938.7421, 15.47432
939.2242, 15.71909
939.7064, 15.80053
940.1885, 15.77977
940.6706, 15.69094
941.1527, 15.68029
941.6348, 15.95129
942.1169, 15.82934
942.5991, 14.67367
943.0812, 13.90858
943.5633, 14.37712
944.0454, 15.15571
944.5275, 15.15005
945.0096, 14.47107
945.4918, 14.30058
945.9739, 15.49767
946.4560, 16.29954
946.9381, 15.82699
947.4202, 15.07331
947.9023, 14.69050
948.3845, 14.60804
948.8666, 14.54073
949.3487, 14.43499
949.8308, 14.57824
950.3129, 15.51296
950.7950, 16.42717
951.2772, 16.40735
951.7593, 15.91370
952.2414, 15.76507
952.7235, 15.92105
953.2056, 15.67678
953.6877, 14.68155
954.1699, 13.67034
954.6520, 13.47851
955.1341, 13.99163
955.6162, 15.23894
956.0983, 17.00651
956.5804, 17.96356
957.0626, 17.80083
957.5447, 17.07175
958.0268, 16.08953
958.5089, 15.15494
958.9910, 15.13611
959.4731, 16.12227
959.9553, 16.48782
960.4374, 16.09891
960.9195, 15.47941
961.4016, 14.64242
961.8837, 14.05361
962.3658, 14.30956
962.8480, 15.26388
963.3301, 15.84339
963.8122, 16.05091
964.2943, 15.85946
964.7764, 14.89354
965.2585, 14.02150
965.7407, 13.72793
966.2228, 13.68429
966.7049, 13.42095
967.1870, 12.93659
967.6691, 12.85272
968.1512, 13.57751
968.6334, 14.23045
969.1155, 14.59214
969.5976, 14.84196
970.0797, 15.25417
970.5618, 15.59408
971.0439, 15.28263
971.5261, 14.19259
972.0082, 13.43346
972.4903, 13.63569
972.9724, 14.18029
973.4545, 15.04617
973.9366, 15.77383
974.4188, 15.58949
974.9009, 14.78256
975.3830, 14.44251
975.8651, 15.03544
976.3472, 15.72047
976.8293, 15.83152
977.3115, 15.56222
977.7936, 14.89195
978.2757, 14.12374
978.7578, 14.13355
979.2399, 14.90159
979.7220, 15.29340
980.2042, 14.53034
980.6863, 13.58501
981.1684, 14.18046
981.6505, 15.77894
982.1326, 16.57024
982.6147, 16.53754
983.0969, 15.99483
983.5790, 15.03656
984.0611, 14.18413
984.5432, 13.86968
985.0253, 13.99502
985.5074, 14.37631
985.9896, 15.02376
986.4717, 15.52816
986.9538, 15.89585
987.4359, 15.89194
987.9180, 15.31456
988.4001, 14.69473
988.8823, 14.62972
989.3644, 15.02292
989.8465, 15.22287
990.3286, 15.09572
990.8107, 15.23208
991.2928, 15.91573
991.7750, 16.37159
992.2571, 16.14149
992.7392, 15.61233
993.2213, 15.25254
993.7034, 15.06231
994.1855, 14.97851
994.6677, 15.18704
995.1498, 15.22074
995.6319, 15.04860
996.1140, 14.70034
996.5961, 13.89408
997.0782, 13.06805
997.5604, 12.91197
998.0425, 13.48223
998.5246, 14.05892
999.0067, 14.92273
999.4888, 15.23721
999.9709, 13.96679
1000.453, 12.83436
1000.935, 13.55982
1001.417, 15.17524
1001.899, 15.64578
1002.382, 14.56363
1002.864, 13.74653
1003.346, 14.22985
1003.828, 14.83822
1004.310, 14.92988
1004.792, 14.80493
1005.274, 14.76813
1005.756, 14.80115
1006.238, 14.72435
1006.721, 14.47913
1007.203, 14.33947
1007.685, 14.83568
1008.167, 15.18426
1008.649, 14.14139
1009.131, 12.73152
1009.613, 12.78124
1010.095, 14.05736
1010.578, 14.92895
1011.060, 14.66416
1011.542, 14.28074
1012.024, 15.08322
1012.506, 16.16965
1012.988, 15.96966
1013.470, 14.97371
1013.952, 14.46341
1014.434, 14.55675
1014.917, 14.54375
1015.399, 14.03377
1015.881, 13.40115
1016.363, 13.07675
1016.845, 13.03402
1017.327, 13.31265
1017.809, 13.82268
1018.291, 14.15171
1018.773, 14.22090
1019.256, 14.15829
1019.738, 14.02598
1020.220, 13.97398
1020.702, 14.38331
1021.184, 14.41656
1021.666, 14.55989
1022.148, 14.98434
1022.630, 14.92910
1023.113, 15.36936
1023.595, 15.83899
1024.077, 16.04086
1024.559, 15.94337
1025.041, 15.33377
1025.523, 14.20272
1026.005, 13.79735
1026.487, 14.20796
1026.969, 14.62510
1027.452, 14.89393
1027.934, 14.89512
1028.416, 14.48790
1028.898, 13.83926
1029.380, 13.30282
1029.862, 12.83844
1030.344, 12.90200
1030.826, 13.66423
1031.309, 14.42115
1031.791, 15.17247
1032.273, 15.41433
1032.755, 14.51715
1033.237, 13.03512
1033.719, 12.54308
1034.201, 13.33046
1034.683, 13.74572
1035.166, 13.65860
1035.648, 13.46544
1036.130, 13.07580
1036.612, 12.89768
1037.094, 13.38522
1037.576, 14.27586
1038.058, 14.77907
1038.540, 14.73486
1039.022, 14.88283
1039.505, 15.57843
1039.987, 15.89278
1040.469, 15.26144
1040.951, 14.53509
1041.433, 14.43598
1041.915, 14.73531
1042.397, 14.71925
1042.879, 14.12516
1043.361, 14.07220
1043.844, 15.58010
1044.326, 16.26764
1044.808, 14.75156
1045.290, 12.99452
1045.772, 12.40369
1046.254, 12.70943
1046.736, 13.21675
1047.218, 13.97465
1047.700, 14.56273
1048.183, 14.97113
1048.665, 15.15698
1049.147, 14.93209
1049.629, 14.64240
1050.111, 14.62374
1050.593, 14.35262
1051.075, 14.56278
1051.557, 13.99548
1052.040, 13.60433
1052.522, 13.45806
1053.004, 13.55633
1053.486, 14.37439
1053.968, 15.00148
1054.450, 14.27597
1054.932, 12.93117
1055.414, 12.74465
1055.896, 14.15543
1056.379, 15.09852
1056.861, 14.77685
1057.343, 14.22884
1057.825, 13.42333
1058.307, 12.93835
1058.789, 13.63299
1059.271, 14.85098
1059.753, 15.17645
1060.236, 14.32462
1060.718, 13.65319
1061.200, 13.67148
1061.682, 13.85292
1062.164, 14.10048
1062.646, 14.31652
1063.128, 14.42351
1063.610, 14.44332
1064.093, 14.42781
1064.575, 14.38559
1065.057, 14.27769
1065.539, 13.98700
1066.021, 13.76472
1066.503, 13.79091
1066.985, 13.85957
1067.467, 13.72667
1067.949, 13.55420
1068.432, 13.75589
1068.914, 14.33512
1069.396, 14.51896
1069.878, 13.34820
1070.360, 12.70031
1070.842, 14.04647
1071.324, 15.61286
1071.806, 16.07666
1072.288, 15.77333
1072.771, 15.23030
1073.253, 14.60180
1073.735, 14.14999
1074.217, 14.05582
1074.699, 13.99682
1075.181, 13.86276
1075.663, 13.66603
1076.145, 13.33319
1076.627, 12.99228
1077.110, 12.76224
1077.592, 12.69004
1078.074, 12.92283
1078.556, 13.74101
1079.038, 14.24424
1079.520, 13.56946
1080.002, 12.90991
1080.484, 13.38457
1080.967, 14.17878
1081.449, 14.10327
1081.931, 13.30335
1082.413, 12.84837
1082.895, 13.14717
1083.377, 13.50432
1083.859, 13.45445
1084.341, 13.53220
1084.823, 14.35464
1085.306, 15.26774
1085.788, 15.63220
1086.270, 15.41905
1086.752, 14.64055
1087.234, 13.17144
1087.716, 12.21994
1088.198, 12.87994
1088.680, 13.48230
1089.163, 12.79759
1089.645, 11.91970
1090.127, 11.95623
1090.609, 12.64490
1091.091, 13.27158
1091.573, 13.68557
1092.055, 13.88006
1092.537, 13.95549
1093.020, 13.67367
1093.502, 12.28787
1093.984, 11.12519
1094.466, 11.55029
1094.948, 12.79673
1095.430, 13.50296
1095.912, 13.47733
1096.394, 13.31843
1096.876, 13.04141
1097.359, 12.91872
1097.841, 13.16785
1098.323, 13.46466
1098.805, 13.68568
1099.287, 13.77306
1099.769, 13.65558
1100.251, 13.34195
1100.733, 12.89984
1101.215, 12.09434
1101.698, 11.69955
1102.180, 12.29442
1102.662, 12.90097
1103.144, 13.13662
1103.626, 13.06151
1104.108, 12.59831
1104.590, 11.90356
1105.072, 11.47805
1105.554, 11.46481
1106.037, 11.50006
1106.519, 11.48215
1107.001, 11.54923
1107.483, 11.74260
1107.965, 12.04613
1108.447, 12.61474
1108.929, 13.23745
1109.411, 13.36456
1109.894, 12.83397
1110.376, 12.62332
1110.858, 13.14659
1111.340, 13.53376
1111.822, 13.53077
1112.304, 13.44172
1112.786, 13.44358
1113.268, 13.47174
1113.750, 13.45808
1114.233, 13.40401
1114.715, 13.14343
1115.197, 12.29845
1115.679, 11.87004
1116.161, 12.13049
1116.643, 12.52227
1117.125, 13.01862
1117.607, 13.35498
1118.090, 13.05316
1118.572, 12.30863
1119.054, 12.28810
1119.536, 13.57930
1120.018, 14.09348
1120.500, 13.34859
1120.982, 12.78270
1121.464, 12.88559
1121.947, 13.16810
1122.429, 13.22815
1122.911, 13.19426
1123.393, 13.44689
1123.875, 13.42469
1124.357, 13.34113
1124.839, 13.57372
1125.321, 13.19237
1125.803, 13.31804
1126.286, 13.51344
1126.768, 13.55742
1127.250, 13.43962
1127.732, 13.06319
1128.214, 12.49754
1128.696, 12.70393
1129.178, 13.88520
1129.660, 14.04893
1130.142, 12.79617
1130.625, 11.93864
1131.107, 12.27345
1131.589, 12.99242
1132.071, 13.29583
1132.553, 13.26668
1133.035, 13.03913
1133.517, 12.64019
1133.999, 12.84401
1134.481, 13.65781
1134.964, 13.95263
1135.446, 13.42181
1135.928, 12.78200
1136.410, 12.51192
1136.892, 12.55983
1137.374, 12.97777
1137.856, 13.62570
1138.338, 13.94735
1138.821, 13.96643
1139.303, 13.65113
1139.785, 13.08669
1140.267, 12.85013
1140.749, 13.20215
1141.231, 13.80945
1141.713, 14.49555
1142.195, 14.97494
1142.677, 14.61392
1143.160, 13.70296
1143.642, 12.61095
1144.124, 11.60380
1144.606, 11.52009
1145.088, 12.39971
1145.570, 12.90854
1146.052, 12.04479
1146.534, 11.06216
1147.017, 11.46899
1147.499, 12.32511
1147.981, 12.40235
1148.463, 12.09176
1148.945, 12.25552
1149.427, 12.81576
1149.909, 12.99832
1150.391, 12.49269
1150.874, 11.97001
1151.356, 12.05753
1151.838, 12.04752
1152.320, 11.09180
1152.802, 10.09933
1153.284, 10.03362
1153.766, 10.61383
1154.248, 11.18481
1154.730, 11.63128
1155.213, 12.19153
1155.695, 13.32808
1156.177, 13.92194
1156.659, 13.15719
1157.141, 12.26556
1157.623, 11.79211
1158.105, 11.66511
1158.587, 11.91805
1159.069, 12.41742
1159.552, 12.73834
1160.034, 12.83032
1160.516, 12.76135
1160.998, 12.24368
1161.480, 11.98258
1161.962, 12.31195
1162.444, 12.73255
1162.926, 13.03909
1163.408, 13.19101
1163.891, 13.06188
1164.373, 12.65881
1164.855, 12.50134
1165.337, 12.59443
1165.819, 12.96861
1166.301, 13.82472
1166.783, 14.40665
1167.265, 14.39128
1167.748, 14.09329
1168.230, 13.73842
1168.712, 13.42583
1169.194, 13.56234
1169.676, 14.18916
1170.158, 13.91091
1170.640, 12.65500
1171.122, 12.17738
1171.604, 12.85295
1172.087, 13.51651
1172.569, 13.53806
1173.051, 13.17504
1173.533, 12.67878
1174.015, 12.15500
1174.497, 11.93433
1174.979, 11.94767
1175.461, 11.87083
1175.944, 11.74954
1176.426, 11.98767
1176.908, 12.66075
1177.390, 13.42137
1177.872, 14.10359
1178.354, 14.38674
1178.836, 13.53553
1179.318, 12.34088
1179.801, 11.77466
1180.283, 11.80369
1180.765, 12.69653
1181.247, 14.02423
1181.729, 14.47155
1182.211, 13.63686
1182.693, 12.76408
1183.175, 12.52447
1183.657, 12.59276
1184.140, 13.04670
1184.622, 13.44903
1185.104, 13.31822
1185.586, 12.96151
1186.068, 12.84836
1186.550, 12.98310
1187.032, 13.07211
1187.514, 13.04263
1187.996, 12.99353
1188.479, 13.11904
1188.961, 12.99132
1189.443, 11.95016
1189.925, 11.12791
1190.407, 11.64729
1190.889, 12.78339
1191.371, 13.35468
1191.853, 13.35684
1192.335, 13.21350
1192.818, 12.82614
1193.300, 12.56226
1193.782, 12.47941
1194.264, 12.43297
1194.746, 12.38530
1195.228, 12.30730
1195.710, 12.14269
1196.192, 11.99119
1196.675, 12.11141
1197.157, 12.49135
1197.639, 12.95246
1198.121, 13.48196
1198.603, 13.55308
1199.085, 13.10802
1199.567, 12.73783
1200.049, 12.70875
1200.531, 12.52821
1201.014, 11.50689
1201.496, 12.18124
1201.978, 11.25508
1202.460, 12.99290
1202.942, 14.06508
1203.424, 14.46111
1203.906, 14.30883
1204.388, 13.78104
1204.871, 13.38163
1205.353, 13.35447
1205.835, 13.24320
1206.317, 12.51754
1206.799, 11.79964
1207.281, 11.60941
1207.763, 11.29162
1208.245, 11.50791
1208.728, 11.37532
1209.210, 11.59067
1209.692, 12.13252
1210.174, 12.50045
1210.656, 12.47410
1211.138, 12.49402
1211.620, 12.75187
1212.102, 12.93202
1212.584, 12.93248
1213.067, 12.80014
1213.549, 12.44879
1214.031, 12.06961
1214.513, 12.04416
1214.995, 12.37090
1215.477, 12.51890
1215.959, 12.28174
1216.441, 12.80221
1216.923, 14.52557
1217.406, 15.28328
1217.888, 14.13443
1218.370, 12.87967
1218.852, 13.02609
1219.334, 13.84787
1219.816, 13.98761
1220.298, 13.51707
1220.780, 12.56922
1221.262, 11.33079
1221.745, 10.74863
1222.227, 10.89958
1222.709, 11.54727
1223.191, 12.54745
1223.673, 13.42609
1224.155, 13.86437
1224.637, 13.89751
1225.119, 13.33437
1225.602, 12.59443
1226.084, 12.12232
1226.566, 11.85862
1227.048, 11.55124
1227.530, 11.34852
1228.012, 11.87500
1228.494, 13.30517
1228.976, 14.29614
1229.458, 14.37497
1229.941, 13.87493
1230.423, 11.96753
1230.905, 10.60094
1231.387, 11.57912
1231.869, 13.06238
1232.351, 12.74124
1232.833, 11.30198
1233.315, 11.02590
1233.798, 12.23313
1234.280, 12.59977
1234.762, 11.72974
1235.244, 11.40461
1235.726, 12.03758
1236.208, 12.60305
1236.690, 12.64053
1237.172, 12.40593
1237.655, 12.12361
1238.137, 11.85359
1238.619, 11.79655
1239.101, 11.87990
1239.583, 11.73692
1240.065, 11.40555
1240.547, 10.91656
1241.029, 10.42316
1241.511, 10.71526
1241.994, 12.05356
1242.476, 13.25299
1242.958, 13.31038
1243.440, 12.96699
1243.922, 12.82038
1244.404, 12.73270
1244.886, 12.41618
1245.368, 12.16140
1245.850, 12.71656
1246.333, 13.68167
1246.815, 13.49714
1247.297, 11.63211
1247.779, 10.58782
1248.261, 11.52593
1248.743, 12.40156
1249.225, 12.96516
1249.707, 13.17142
1250.189, 12.67718
1250.672, 12.24370
1251.154, 12.78714
1251.636, 13.79991
1252.118, 13.64937
1252.600, 13.89463
1253.082, 14.22730
1253.564, 13.61883
1254.046, 14.42877
1254.529, 14.31853
1255.011, 14.17528
1255.493, 14.35301
1255.975, 14.46148
1256.457, 14.12497
1256.939, 13.70026
1257.421, 13.90700
1257.903, 14.28141
1258.385, 13.92073
1258.868, 13.15264
1259.350, 12.53485
1259.832, 12.15437
1260.314, 11.98871
1260.796, 12.01752
1261.278, 12.10408
1261.760, 12.19018
1262.242, 12.31745
1262.725, 12.56216
1263.207, 12.77840
1263.689, 12.94451
1264.171, 13.00092
1264.653, 12.90106
1265.135, 12.64815
1265.617, 12.19854
1266.099, 11.55559
1266.582, 11.11004
1267.064, 10.77131
1267.546, 11.10161
1268.028, 12.29932
1268.510, 13.23500
1268.992, 13.59187
1269.474, 13.42937
1269.956, 12.71959
1270.438, 12.08028
1270.921, 12.58828
1271.403, 12.24303
1271.885, 12.23573
1272.367, 12.57025
1272.849, 12.30838
1273.331, 12.53909
1273.813, 12.77589
1274.295, 12.93569
1274.777, 13.24631
1275.260, 13.84128
1275.742, 14.22543
1276.224, 13.97196
1276.706, 13.65854
1277.188, 13.76588
1277.670, 13.69101
1278.152, 12.45819
1278.634, 11.18880
1279.116, 11.82872
1279.599, 11.26223
1280.081, 11.20192
1280.563, 12.07757
1281.045, 11.56366
1281.527, 12.72699
1282.009, 13.60130
1282.491, 13.92885
1282.973, 13.69795
1283.456, 12.85672
1283.938, 12.07374
1284.420, 11.91233
1284.902, 12.27297
1285.384, 13.00561
##END=



