##NAMES=Fettelite
##RRUFFID=R100083
##IDEAL CHEMISTRY=Ag_16_HgAs_4_S_15_
##LOCALITY=Chanarcillo, Chile
##OWNER=RRUFF
##SOURCE=William W Pinch
##DESCRIPTION=Red platy crystals on acanthite. Cell parameters match those reported by Bindi et al (2009), indicating a fettelite polytype.
##STATUS=The identification of this mineral is confirmed by single-crystal X-ray diffraction and chemical analysis.
##URL=rruff.info/R100083
##MEASURED CHEMISTRY=Ag_15.66_Hg_1.21_Fe_0.02_Cu_0.004_Sb_0.17_As_3.61_S_15_
91.53320, 89.68636
92.01532, 87.06567
92.49744, 86.03077
92.97955, 89.44338
93.46167, 93.86948
93.94379, 94.49247
94.42590, 90.74234
94.90802, 85.44357
95.39014, 81.29444
95.87225, 78.35510
96.35437, 76.09693
96.83649, 74.20268
97.31860, 72.79903
97.80072, 72.12939
98.28284, 72.32533
98.76495, 73.14780
99.24707, 73.90910
99.72919, 75.41438
100.2113, 75.97363
100.6934, 74.90568
101.1755, 72.58737
101.6577, 69.71801
102.1398, 66.68784
102.6219, 63.10833
103.1040, 61.48769
103.5861, 62.72403
104.0682, 64.57327
104.5504, 66.04562
105.0325, 66.89911
105.5146, 67.26965
105.9967, 67.30927
106.4788, 67.01134
106.9609, 66.29818
107.4431, 64.82922
107.9252, 63.02268
108.4073, 61.37619
108.8894, 59.98421
109.3715, 58.97557
109.8536, 58.68742
110.3358, 59.26839
110.8179, 59.74929
111.3000, 59.49667
111.7821, 58.58710
112.2642, 57.76571
112.7463, 57.34494
113.2285, 57.13839
113.7106, 57.00039
114.1927, 56.94973
114.6748, 56.84977
115.1569, 56.50209
115.6390, 55.83829
116.1212, 55.07529
116.6033, 54.14044
117.0854, 53.19904
117.5675, 52.40149
118.0496, 51.81149
118.5317, 51.42805
119.0139, 51.25340
119.4960, 51.37327
119.9781, 51.64745
120.4602, 52.40753
120.9423, 53.29698
121.4244, 53.63332
121.9066, 52.77930
122.3887, 50.56511
122.8708, 49.62831
123.3529, 50.52728
123.8350, 51.85798
124.3171, 53.28367
124.7993, 54.64844
125.2814, 55.62467
125.7635, 55.87568
126.2456, 55.23860
126.7277, 54.26008
127.2098, 52.38085
127.6920, 50.41599
128.1741, 49.32256
128.6562, 49.38933
129.1383, 49.86343
129.6204, 49.90892
130.1025, 49.58712
130.5847, 49.00606
131.0668, 47.93974
131.5489, 46.58797
132.0310, 45.67802
132.5131, 45.55010
132.9952, 45.73206
133.4774, 46.00155
133.9595, 46.33644
134.4416, 46.22189
134.9237, 44.69970
135.4058, 41.37028
135.8879, 39.39638
136.3701, 41.01664
136.8522, 43.15104
137.3343, 43.97036
137.8164, 43.04010
138.2985, 41.33918
138.7806, 40.66298
139.2628, 42.20628
139.7449, 42.53296
140.2270, 40.25515
140.7091, 37.31768
141.1912, 35.46977
141.6733, 35.50628
142.1555, 36.95528
142.6376, 38.21515
143.1197, 39.20573
143.6018, 40.07624
144.0839, 41.15636
144.5660, 42.08962
145.0482, 42.14899
145.5303, 40.76149
146.0124, 38.26008
146.4945, 37.15671
146.9766, 38.13396
147.4587, 39.48292
147.9409, 40.98131
148.4230, 42.42725
148.9051, 42.94463
149.3872, 41.42928
149.8693, 38.38393
150.3514, 36.86600
150.8336, 38.20292
151.3157, 40.30023
151.7978, 41.27002
152.2799, 40.96734
152.7620, 40.33647
153.2441, 40.04445
153.7263, 39.91854
154.2084, 39.65509
154.6905, 39.05098
155.1726, 38.25903
155.6547, 37.58477
156.1368, 36.98481
156.6190, 36.61694
157.1011, 36.63114
157.5832, 36.89861
158.0653, 37.18435
158.5474, 37.44183
159.0295, 37.64425
159.5117, 37.40025
159.9938, 35.91429
160.4759, 34.76619
160.9580, 34.82059
161.4401, 35.74668
161.9222, 36.60695
162.4044, 36.38753
162.8865, 34.71301
163.3686, 34.20902
163.8507, 36.05341
164.3328, 37.96424
164.8149, 39.10519
165.2971, 39.35538
165.7792, 38.89373
166.2613, 37.79655
166.7434, 35.44905
167.2255, 34.40687
167.7076, 35.87105
168.1898, 37.62580
168.6719, 37.87755
169.1540, 36.34529
169.6361, 34.34946
170.1182, 33.82491
170.6003, 35.69853
171.0825, 36.71996
171.5646, 36.01347
172.0467, 34.66835
172.5288, 33.91973
173.0109, 34.13604
173.4930, 34.87791
173.9752, 35.53819
174.4573, 36.14423
174.9394, 36.61294
175.4215, 36.90853
175.9036, 37.05125
176.3857, 37.02906
176.8679, 36.71473
177.3500, 36.43585
177.8321, 36.67456
178.3142, 37.47074
178.7963, 38.25478
179.2784, 38.85218
179.7606, 39.22974
180.2427, 39.00667
180.7248, 37.49905
181.2069, 35.84894
181.6890, 35.11554
182.1711, 35.39809
182.6533, 35.98167
183.1354, 36.11712
183.6175, 35.70907
184.0996, 35.61040
184.5817, 36.40685
185.0638, 37.34377
185.5460, 38.06770
186.0281, 38.49162
186.5102, 38.59927
186.9923, 38.21406
187.4744, 36.92204
187.9565, 36.27291
188.4387, 37.10236
188.9208, 38.16603
189.4029, 38.49918
189.8850, 37.82772
190.3671, 36.67788
190.8492, 36.08532
191.3314, 36.71582
191.8135, 36.81694
192.2956, 35.83369
192.7777, 34.56531
193.2598, 33.62401
193.7419, 33.26452
194.2241, 33.45770
194.7062, 34.13453
195.1883, 36.17196
195.6704, 37.69407
196.1525, 38.36354
196.6346, 38.58937
197.1168, 38.86586
197.5989, 39.41291
198.0810, 40.07119
198.5631, 40.36721
199.0452, 40.31492
199.5273, 39.92559
200.0095, 38.76544
200.4916, 37.32404
200.9737, 36.45852
201.4558, 36.61938
201.9379, 37.44599
202.4200, 37.87103
202.9022, 37.53443
203.3843, 37.48320
203.8664, 38.42219
204.3485, 39.98128
204.8306, 41.15549
205.3127, 41.53822
205.7949, 41.21406
206.2770, 40.42251
206.7591, 38.91204
207.2412, 37.50727
207.7233, 36.73515
208.2054, 36.51513
208.6876, 36.34028
209.1697, 35.83913
209.6518, 35.44498
210.1339, 35.82955
210.6160, 37.26720
211.0981, 38.76043
211.5803, 39.51875
212.0624, 39.54110
212.5445, 39.26621
213.0266, 38.35453
213.5087, 37.53136
213.9908, 37.67492
214.4730, 39.07291
214.9551, 40.55739
215.4372, 40.52940
215.9193, 38.62791
216.4014, 37.46752
216.8836, 38.89482
217.3657, 40.73168
217.8478, 41.43849
218.3299, 40.62926
218.8120, 39.25124
219.2941, 38.50349
219.7763, 38.42829
220.2584, 38.88430
220.7405, 40.84101
221.2226, 42.68270
221.7047, 43.11369
222.1868, 41.81813
222.6690, 39.70564
223.1511, 38.17200
223.6332, 37.36881
224.1153, 36.83535
224.5974, 36.34897
225.0795, 36.16457
225.5617, 36.63258
226.0438, 37.80018
226.5259, 39.22291
227.0080, 40.16001
227.4901, 40.56627
227.9722, 40.46904
228.4544, 39.24898
228.9365, 37.97902
229.4186, 37.76926
229.9007, 38.83104
230.3828, 40.21234
230.8649, 40.11716
231.3471, 36.21674
231.8292, 34.70046
232.3113, 37.29194
232.7934, 41.03573
233.2755, 43.87716
233.7576, 45.13860
234.2398, 44.93907
234.7219, 43.32112
235.2040, 38.31321
235.6861, 35.53273
236.1682, 36.49554
236.6503, 38.80285
237.1325, 40.31532
237.6146, 40.46507
238.0967, 40.10093
238.5788, 40.53864
239.0609, 42.47176
239.5430, 43.54707
240.0252, 42.94053
240.5073, 41.80487
240.9894, 41.33069
241.4715, 41.79809
241.9536, 42.60633
242.4357, 42.96115
242.9179, 42.74912
243.4000, 42.56417
243.8821, 42.52390
244.3642, 42.50696
244.8463, 42.39433
245.3284, 42.16271
245.8106, 41.82350
246.2927, 41.35545
246.7748, 40.75335
247.2569, 40.16906
247.7390, 39.30981
248.2211, 38.61316
248.7033, 38.83775
249.1854, 40.21015
249.6675, 41.61207
250.1496, 41.75616
250.6317, 40.83477
251.1138, 40.04903
251.5960, 39.38733
252.0781, 39.09704
252.5602, 39.83723
253.0423, 41.88937
253.5244, 43.66894
254.0065, 43.20607
254.4887, 41.27540
254.9708, 39.99266
255.4529, 40.31268
255.9350, 41.40291
256.4171, 42.09821
256.8992, 42.28412
257.3813, 42.44645
257.8635, 43.20873
258.3456, 44.16852
258.8277, 44.56861
259.3098, 43.68977
259.7919, 42.43182
260.2740, 42.14839
260.7562, 43.00967
261.2383, 44.10897
261.7204, 45.60386
262.2025, 46.86296
262.6846, 46.81656
263.1667, 44.42413
263.6489, 41.49180
264.1310, 40.90015
264.6131, 43.26189
265.0952, 45.29676
265.5773, 45.27816
266.0594, 44.27949
266.5416, 43.10600
267.0237, 41.85947
267.5058, 40.80425
267.9879, 40.33206
268.4700, 40.53028
268.9521, 40.91917
269.4343, 41.88092
269.9164, 42.68355
270.3985, 42.50997
270.8806, 41.08320
271.3627, 39.48012
271.8448, 39.25976
272.3270, 40.79264
272.8091, 41.76551
273.2912, 40.58694
273.7733, 39.33276
274.2554, 39.58764
274.7375, 41.56660
275.2197, 43.74131
275.7018, 44.30390
276.1839, 42.99649
276.6660, 41.74496
277.1481, 40.53973
277.6302, 39.66973
278.1124, 39.53176
278.5945, 40.04342
279.0766, 40.56993
279.5587, 40.17416
280.0408, 38.61916
280.5229, 38.28626
281.0051, 40.93091
281.4872, 43.44558
281.9693, 44.53456
282.4514, 44.30312
282.9335, 43.51616
283.4156, 42.67937
283.8978, 41.78586
284.3799, 41.17237
284.8620, 41.20447
285.3441, 41.16052
285.8262, 40.55976
286.3083, 39.68042
286.7905, 39.15497
287.2726, 39.52079
287.7547, 40.66528
288.2368, 41.50676
288.7189, 41.94634
289.2010, 42.15552
289.6832, 42.03532
290.1653, 41.75447
290.6474, 41.55223
291.1295, 41.57113
291.6116, 41.76251
292.0938, 41.95434
292.5759, 42.34672
293.0580, 42.41818
293.5401, 42.01680
294.0222, 41.29834
294.5043, 40.23366
294.9865, 38.77505
295.4686, 37.41923
295.9507, 37.54082
296.4328, 40.48754
296.9149, 42.50759
297.3970, 42.91125
297.8792, 42.47723
298.3613, 41.66656
298.8434, 40.67419
299.3255, 39.76733
299.8076, 39.44781
300.2897, 40.06239
300.7719, 40.49141
301.2540, 40.69265
301.7361, 40.71769
302.2182, 40.50722
302.7003, 40.09949
303.1824, 39.69884
303.6646, 39.64749
304.1467, 40.21598
304.6288, 40.12542
305.1109, 38.56794
305.5930, 37.09397
306.0751, 36.56159
306.5573, 36.84563
307.0394, 37.20892
307.5215, 36.92170
308.0036, 35.90346
308.4857, 35.40655
308.9678, 36.48478
309.4500, 37.05750
309.9321, 35.92013
310.4142, 33.81427
310.8963, 32.36656
311.3784, 32.80529
311.8605, 34.79029
312.3427, 35.61002
312.8248, 33.81982
313.3069, 32.50085
313.7890, 32.31680
314.2711, 32.88668
314.7532, 33.88573
315.2354, 35.19641
315.7175, 36.42700
316.1996, 36.31568
316.6817, 33.44747
317.1638, 31.46771
317.6459, 30.91946
318.1281, 31.24224
318.6102, 32.23392
319.0923, 33.74842
319.5744, 35.21835
320.0565, 35.50845
320.5386, 33.59102
321.0208, 32.90741
321.5029, 35.08342
321.9850, 37.22050
322.4671, 37.18719
322.9492, 34.94859
323.4313, 32.24968
323.9135, 30.97639
324.3956, 31.37920
324.8777, 31.98636
325.3598, 33.76337
325.8419, 34.85209
326.3240, 33.83996
326.8062, 31.41182
327.2883, 29.47827
327.7704, 29.63541
328.2525, 31.74409
328.7346, 33.29533
329.2167, 33.87339
329.6989, 34.32113
330.1810, 34.75204
330.6631, 35.20856
331.1452, 35.84356
331.6273, 36.81223
332.1094, 37.77186
332.5916, 37.45942
333.0737, 34.36561
333.5558, 32.63949
334.0379, 33.86987
334.5200, 36.11284
335.0021, 37.59838
335.4843, 37.75287
335.9664, 37.15655
336.4485, 36.66203
336.9306, 36.23352
337.4127, 36.01927
337.8948, 36.47020
338.3770, 36.79879
338.8591, 36.24003
339.3412, 34.89447
339.8233, 33.75529
340.3055, 34.01596
340.7876, 35.85929
341.2697, 37.24632
341.7518, 38.06548
342.2339, 38.46884
342.7160, 38.36553
343.1982, 37.89000
343.6803, 37.35283
344.1624, 37.04525
344.6445, 36.83227
345.1266, 35.83583
345.6087, 32.80702
346.0909, 31.12364
346.5730, 32.34154
347.0551, 35.14399
347.5372, 38.08728
348.0193, 40.76416
348.5014, 42.79966
348.9836, 43.30736
349.4657, 41.77459
349.9478, 40.42571
350.4299, 40.00276
350.9120, 39.88121
351.3941, 39.52752
351.8763, 38.85542
352.3584, 38.40965
352.8405, 38.58966
353.3226, 39.38604
353.8047, 41.36438
354.2868, 46.55195
354.7690, 50.85101
355.2511, 50.96229
355.7332, 47.70652
356.2153, 44.74975
356.6974, 45.04308
357.1795, 47.64224
357.6617, 48.59146
358.1438, 46.83429
358.6259, 45.55051
359.1080, 47.26238
359.5901, 50.46763
360.0722, 52.77515
360.5544, 53.11062
361.0365, 52.43995
361.5186, 51.90959
362.0007, 51.47474
362.4828, 51.58943
362.9649, 52.78356
363.4471, 54.46029
363.9292, 56.08910
364.4113, 57.72486
364.8934, 58.82508
365.3755, 58.52540
365.8576, 57.14558
366.3398, 56.47152
366.8219, 57.03058
367.3040, 58.26791
367.7861, 59.53565
368.2682, 60.84881
368.7503, 62.58043
369.2325, 65.74728
369.7146, 69.18360
370.1967, 70.50065
370.6788, 69.18273
371.1609, 67.71433
371.6430, 67.98026
372.1252, 69.65467
372.6073, 71.61707
373.0894, 74.71993
373.5715, 77.26983
374.0536, 77.35512
374.5357, 75.38719
375.0179, 73.95226
375.5000, 74.66820
375.9821, 76.34742
376.4642, 76.03342
376.9463, 72.81250
377.4284, 70.00191
377.9106, 69.61746
378.3927, 70.27471
378.8748, 69.34692
379.3569, 66.01461
379.8390, 61.97210
380.3211, 59.42883
380.8033, 58.71989
381.2854, 57.62321
381.7675, 55.88378
382.2496, 53.78637
382.7317, 51.42961
383.2138, 48.87272
383.6960, 46.29273
384.1781, 43.74240
384.6602, 41.26669
385.1423, 39.35320
385.6244, 38.25122
386.1065, 37.31085
386.5887, 36.45732
387.0708, 35.60358
387.5529, 34.55867
388.0350, 33.22512
388.5171, 31.80683
388.9992, 30.74986
389.4814, 30.34000
389.9635, 29.88658
390.4456, 29.14759
390.9277, 28.52381
391.4098, 28.62045
391.8919, 29.35498
392.3741, 29.81289
392.8562, 28.91258
393.3383, 26.35037
393.8204, 24.75104
394.3025, 24.37714
394.7846, 24.61059
395.2668, 25.94293
395.7489, 27.65956
396.2310, 28.45712
396.7131, 27.50462
397.1952, 25.35829
397.6773, 23.92521
398.1595, 23.34830
398.6416, 23.32654
399.1237, 24.40958
399.6058, 25.59879
400.0879, 26.03743
400.5700, 25.53505
401.0522, 24.51939
401.5343, 23.19970
402.0164, 21.33175
402.4985, 20.69993
402.9806, 22.61374
403.4627, 24.65008
403.9449, 26.21584
404.4270, 27.08560
404.9091, 26.81410
405.3912, 24.60378
405.8733, 21.30957
406.3554, 19.71146
406.8376, 20.30814
407.3197, 21.35216
407.8018, 22.97873
408.2839, 24.31325
408.7660, 24.05801
409.2481, 21.62117
409.7303, 19.13735
410.2124, 19.09336
410.6945, 21.30945
411.1766, 22.90950
411.6587, 22.98810
412.1408, 22.65357
412.6230, 23.16692
413.1051, 24.36742
413.5872, 25.00423
414.0693, 23.96875
414.5514, 22.26348
415.0335, 21.63834
415.5157, 22.28600
415.9978, 22.95066
416.4799, 22.88791
416.9620, 22.19213
417.4441, 21.25347
417.9262, 19.61014
418.4084, 18.35694
418.8905, 18.46285
419.3726, 19.45427
419.8547, 19.98813
420.3368, 19.48434
420.8189, 18.77216
421.3011, 19.39882
421.7832, 21.89414
422.2653, 23.39540
422.7474, 22.93253
423.2295, 21.80155
423.7116, 20.94095
424.1938, 20.48991
424.6759, 20.42534
425.1580, 20.84894
425.6401, 21.69300
426.1222, 21.67682
426.6043, 19.52542
427.0865, 18.13001
427.5686, 18.77025
428.0507, 20.41930
428.5328, 21.63569
429.0149, 21.86929
429.4970, 21.56971
429.9792, 21.56501
430.4613, 22.26972
430.9434, 22.33193
431.4255, 21.36918
431.9076, 20.22169
432.3897, 19.04393
432.8719, 18.06277
433.3540, 17.79564
433.8361, 18.84698
434.3182, 20.92524
434.8003, 21.87756
435.2824, 21.05966
435.7646, 20.03246
436.2467, 18.92991
436.7288, 17.96711
437.2109, 17.37841
437.6930, 17.23709
438.1751, 17.42060
438.6573, 17.82670
439.1394, 18.46801
439.6215, 19.19308
440.1036, 20.26881
440.5857, 21.08680
441.0678, 21.21916
441.5500, 20.77184
442.0321, 20.16417
442.5142, 19.33136
442.9963, 18.57905
443.4784, 18.65977
443.9605, 19.71334
444.4427, 20.48018
444.9248, 19.98186
445.4069, 18.98585
445.8890, 19.02942
446.3711, 20.79609
446.8532, 21.86330
447.3354, 19.91404
447.8175, 16.41154
448.2996, 14.69033
448.7817, 15.61687
449.2638, 17.58130
449.7459, 19.06858
450.2281, 20.04425
450.7102, 20.55520
451.1923, 20.08414
451.6744, 19.60856
452.1565, 19.85844
452.6386, 20.63908
453.1208, 21.31086
453.6029, 21.55114
454.0850, 21.44328
454.5671, 21.21266
455.0492, 20.53394
455.5313, 20.18886
456.0135, 20.68720
456.4956, 21.18630
456.9777, 20.71868
457.4598, 19.35781
457.9419, 18.25098
458.4240, 18.65774
458.9062, 20.61524
459.3883, 21.32169
459.8704, 19.25983
460.3525, 17.60837
460.8346, 17.23492
461.3167, 17.59208
461.7989, 17.98123
462.2810, 18.13836
462.7631, 18.21271
463.2452, 18.42251
463.7273, 18.77559
464.2094, 19.22589
464.6916, 19.93808
465.1737, 20.58115
465.6558, 20.91230
466.1379, 20.99607
466.6200, 21.11207
467.1021, 21.76493
467.5843, 22.38964
468.0664, 21.53205
468.5485, 18.92571
469.0306, 16.73306
469.5127, 15.89371
469.9948, 16.10617
470.4770, 16.94820
470.9591, 18.62985
471.4412, 20.09409
471.9233, 20.93743
472.4054, 21.17839
472.8875, 20.59270
473.3697, 19.08365
473.8518, 17.64074
474.3339, 17.14689
474.8160, 17.63783
475.2981, 18.31633
475.7802, 19.37652
476.2624, 20.41159
476.7445, 21.46310
477.2266, 22.32974
477.7087, 22.55158
478.1908, 21.94023
478.6729, 20.91057
479.1551, 20.18090
479.6372, 19.70316
480.1193, 19.69067
480.6014, 20.73083
481.0835, 21.64730
481.5656, 21.76856
482.0478, 21.19012
482.5299, 20.30071
483.0120, 19.30942
483.4941, 18.29377
483.9762, 17.51091
484.4583, 16.68743
484.9405, 16.70182
485.4226, 19.03675
485.9047, 21.32290
486.3868, 21.25886
486.8689, 18.74670
487.3510, 16.18835
487.8332, 15.70031
488.3153, 16.91979
488.7974, 18.25553
489.2795, 19.99450
489.7616, 20.99152
490.2437, 19.70214
490.7259, 17.40347
491.2080, 16.04701
491.6901, 16.23584
492.1722, 16.91953
492.6543, 17.40170
493.1364, 17.78134
493.6186, 18.43576
494.1007, 19.54826
494.5828, 20.60926
495.0649, 21.09422
495.5470, 20.96236
496.0291, 20.29358
496.5113, 18.15833
496.9934, 16.34960
497.4755, 16.18936
497.9576, 17.19536
498.4397, 18.12057
498.9218, 18.36136
499.4040, 18.20722
499.8861, 18.30484
500.3682, 18.89784
500.8503, 19.29331
501.3324, 19.42521
501.8145, 19.44262
502.2967, 19.35030
502.7788, 19.21705
503.2609, 19.18239
503.7430, 19.33530
504.2251, 19.67095
504.7072, 20.27511
505.1894, 21.54107
505.6715, 22.16385
506.1536, 21.01702
506.6357, 19.63435
507.1178, 19.45423
507.5999, 20.58084
508.0821, 21.51118
508.5642, 20.73077
509.0463, 18.90820
509.5284, 18.19805
510.0105, 18.99414
510.4926, 19.67341
510.9748, 18.93299
511.4569, 17.44905
511.9390, 16.89453
512.4211, 17.99484
512.9032, 18.85998
513.3853, 18.23040
513.8674, 16.83720
514.3495, 15.90810
514.8317, 15.71150
515.3138, 15.94146
515.7959, 16.34330
516.2780, 16.93961
516.7601, 17.36996
517.2422, 17.45143
517.7244, 17.60171
518.2065, 18.33761
518.6886, 19.10573
519.1707, 18.83317
519.6528, 17.21212
520.1349, 15.39903
520.6171, 15.43857
521.0992, 18.13807
521.5813, 19.38769
522.0634, 17.48387
522.5455, 15.77084
523.0276, 15.70402
523.5098, 16.66277
523.9919, 17.32346
524.4740, 16.98858
524.9561, 16.44539
525.4382, 17.10433
525.9203, 18.99447
526.4025, 20.16845
526.8846, 20.00210
527.3667, 19.18890
527.8488, 17.88246
528.3309, 16.29096
528.8130, 15.95405
529.2952, 18.90535
529.7773, 22.09091
530.2594, 22.18343
530.7415, 19.80596
531.2236, 18.13097
531.7057, 18.68673
532.1879, 20.30546
532.6700, 20.69611
533.1521, 18.96872
533.6342, 18.03367
534.1163, 18.51545
534.5984, 19.31650
535.0806, 19.70405
535.5627, 19.77473
536.0448, 20.12063
536.5269, 21.17288
537.0090, 22.46773
537.4911, 22.45907
537.9733, 20.29592
538.4554, 18.69970
538.9375, 18.11403
539.4196, 18.05349
539.9017, 18.48774
540.3839, 19.24672
540.8660, 19.81683
541.3481, 19.77701
541.8302, 19.37842
542.3123, 19.31208
542.7944, 19.67410
543.2766, 19.44708
543.7587, 17.61352
544.2408, 15.51186
544.7229, 15.28418
545.2050, 17.18246
545.6871, 18.59269
546.1693, 18.10391
546.6514, 17.00248
547.1335, 16.73378
547.6156, 17.29691
548.0977, 17.91487
548.5798, 18.14957
549.0620, 18.04347
549.5441, 17.74014
550.0262, 16.57928
550.5083, 16.13032
550.9904, 17.18262
551.4725, 18.35612
551.9547, 18.46569
552.4368, 17.64078
552.9189, 16.85891
553.4010, 16.87355
553.8831, 17.46798
554.3652, 17.82606
554.8474, 18.02628
555.3295, 17.78626
555.8116, 15.91508
556.2937, 14.35826
556.7758, 15.06018
557.2579, 17.91412
557.7401, 20.32593
558.2222, 20.32536
558.7043, 19.08418
559.1864, 18.77328
559.6685, 19.45542
560.1506, 19.67937
560.6328, 18.44808
561.1149, 16.61002
561.5970, 16.21666
562.0791, 17.87133
562.5612, 18.75537
563.0433, 17.46403
563.5255, 15.86472
564.0076, 15.68370
564.4897, 16.75513
564.9718, 17.76974
565.4539, 17.87894
565.9360, 17.36257
566.4182, 17.16720
566.9003, 17.48970
567.3824, 17.76703
567.8645, 17.80097
568.3466, 17.91652
568.8287, 18.66446
569.3109, 19.74689
569.7930, 20.05722
570.2751, 18.50475
570.7572, 16.17578
571.2393, 15.49392
571.7214, 16.58579
572.2036, 17.83840
572.6857, 19.06795
573.1678, 19.87567
573.6499, 19.66925
574.1320, 18.48325
574.6141, 17.32184
575.0963, 16.38451
575.5784, 15.64325
576.0605, 14.76434
576.5426, 14.01576
577.0247, 14.58186
577.5068, 17.15910
577.9890, 20.28572
578.4711, 21.09661
578.9532, 18.18891
579.4353, 16.51314
579.9174, 16.64521
580.3995, 17.26297
580.8817, 18.13572
581.3638, 18.95130
581.8459, 19.18041
582.3280, 18.52853
582.8101, 17.55493
583.2922, 17.22178
583.7744, 17.58539
584.2565, 17.73820
584.7386, 17.30635
585.2207, 17.01500
585.7029, 17.76557
586.1850, 19.04981
586.6671, 19.50217
587.1492, 18.30667
587.6313, 16.85129
588.1135, 16.01554
588.5956, 15.69937
589.0777, 15.72468
589.5598, 16.05149
590.0419, 16.54741
590.5240, 17.09635
591.0062, 17.70151
591.4883, 18.23507
591.9704, 18.99331
592.4525, 19.33606
592.9346, 18.98363
593.4167, 18.19390
593.8989, 17.03633
594.3810, 15.64435
594.8631, 14.56132
595.3452, 14.48039
595.8273, 15.30350
596.3094, 15.88186
596.7916, 16.14161
597.2737, 16.33044
597.7558, 16.48489
598.2379, 16.65803
598.7200, 16.95681
599.2021, 17.41876
599.6843, 17.74843
600.1664, 17.78924
600.6485, 17.61191
601.1306, 17.21683
601.6127, 16.64633
602.0948, 16.15571
602.5770, 15.83378
603.0591, 15.79832
603.5412, 16.42076
604.0233, 18.96149
604.5054, 20.03019
604.9875, 18.05514
605.4697, 16.01319
605.9518, 15.87219
606.4339, 17.28655
606.9160, 19.06498
607.3981, 20.64440
607.8802, 21.75492
608.3624, 21.69554
608.8445, 20.31536
609.3266, 18.89644
609.8087, 17.29337
610.2908, 16.15931
610.7729, 16.18382
611.2551, 17.03935
611.7372, 17.76880
612.2193, 18.14264
612.7014, 18.30480
613.1835, 18.37551
613.6656, 18.30816
614.1478, 17.78640
614.6299, 16.74363
615.1120, 16.09706
615.5941, 16.99251
616.0762, 19.44332
616.5583, 20.35811
617.0405, 18.09923
617.5226, 16.35986
618.0047, 16.19814
618.4868, 16.54338
618.9689, 16.16090
619.4510, 14.98785
619.9332, 14.11754
620.4153, 14.68369
620.8974, 16.23936
621.3795, 17.22355
621.8616, 17.61797
622.3438, 17.48161
622.8259, 16.38781
623.3080, 15.16352
623.7901, 14.90332
624.2722, 15.63087
624.7543, 16.64787
625.2365, 18.52697
625.7186, 19.99340
626.2007, 19.38937
626.6828, 17.46639
627.1649, 16.49052
627.6470, 17.42870
628.1292, 19.16021
628.6113, 19.85896
629.0934, 19.22992
629.5755, 18.80057
630.0576, 18.66443
630.5397, 18.64123
631.0219, 19.06510
631.5040, 19.42252
631.9861, 18.74759
632.4682, 16.71670
632.9503, 14.93725
633.4324, 15.23069
633.9146, 16.95629
634.3967, 18.09028
634.8788, 18.44158
635.3609, 18.50060
635.8430, 18.57370
636.3251, 18.54064
636.8073, 17.94198
637.2894, 16.25197
637.7715, 15.31050
638.2536, 16.04670
638.7357, 17.09290
639.2178, 17.27905
639.7000, 16.82922
640.1821, 16.72465
640.6642, 17.52677
641.1463, 18.72391
641.6284, 19.20756
642.1105, 18.78678
642.5927, 18.71908
643.0748, 19.75693
643.5569, 20.31384
644.0390, 18.75189
644.5211, 16.24901
645.0032, 15.38197
645.4854, 17.47233
645.9675, 19.53125
646.4496, 19.20484
646.9317, 17.57911
647.4138, 16.68531
647.8959, 16.79545
648.3781, 17.04770
648.8602, 16.78728
649.3423, 16.16022
649.8244, 15.85800
650.3065, 15.88729
650.7886, 16.26297
651.2708, 17.52538
651.7529, 18.65371
652.2350, 18.70953
652.7171, 18.02563
653.1992, 17.71042
653.6813, 18.44373
654.1635, 19.58590
654.6456, 20.23752
655.1277, 20.41329
655.6098, 20.26020
656.0919, 19.74031
656.5740, 19.07610
657.0562, 18.37500
657.5383, 17.67823
658.0204, 17.21573
658.5025, 17.16184
658.9846, 17.12696
659.4667, 16.74718
659.9489, 16.48686
660.4310, 17.16313
660.9131, 18.60175
661.3952, 19.55433
661.8773, 18.98657
662.3594, 17.48223
662.8416, 17.02692
663.3237, 17.89925
663.8058, 18.82367
664.2879, 19.98966
664.7700, 20.69871
665.2521, 20.25480
665.7343, 18.95152
666.2164, 17.77954
666.6985, 16.87215
667.1806, 16.35832
667.6627, 16.51705
668.1448, 17.08398
668.6270, 17.68990
669.1091, 18.21901
669.5912, 18.27227
670.0733, 17.29618
670.5554, 15.61807
671.0375, 15.74356
671.5197, 20.07688
672.0018, 22.21655
672.4839, 19.52610
672.9660, 16.29715
673.4481, 15.50047
673.9302, 16.83421
674.4124, 18.41877
674.8945, 19.50490
675.3766, 20.09248
675.8587, 20.11309
676.3408, 19.61796
676.8229, 18.69145
677.3051, 17.25100
677.7872, 16.02493
678.2693, 15.67938
678.7514, 16.15315
679.2335, 16.75713
679.7156, 17.83210
680.1978, 18.57193
680.6799, 18.59231
681.1620, 18.44007
681.6441, 18.93894
682.1262, 19.77293
682.6083, 19.50206
683.0905, 16.84331
683.5726, 13.46702
684.0547, 12.88364
684.5368, 15.08842
685.0189, 16.68527
685.5010, 16.96458
685.9832, 16.64122
686.4653, 15.92487
686.9474, 15.04526
687.4295, 15.12306
687.9116, 17.57853
688.3937, 19.07940
688.8759, 17.74685
689.3580, 15.60907
689.8401, 14.79819
690.3222, 15.30224
690.8043, 15.70504
691.2864, 14.99260
691.7686, 13.91773
692.2507, 14.68071
692.7328, 17.79908
693.2149, 19.33377
693.6970, 17.78317
694.1791, 15.96235
694.6613, 15.96261
695.1434, 17.11718
695.6255, 17.98718
696.1076, 18.30224
696.5897, 18.42900
697.0718, 18.65873
697.5540, 18.72035
698.0361, 18.10055
698.5182, 16.91791
699.0003, 15.84788
699.4824, 15.29178
699.9645, 15.18547
700.4467, 15.47399
700.9288, 16.35670
701.4109, 16.89503
701.8930, 17.06736
702.3751, 16.82761
702.8572, 15.61254
703.3394, 14.16318
703.8215, 13.84868
704.3036, 15.18432
704.7857, 16.67949
705.2678, 17.53939
705.7499, 18.00863
706.2321, 18.45635
706.7142, 18.85683
707.1963, 18.85176
707.6784, 18.21938
708.1605, 17.29207
708.6426, 16.73037
709.1248, 16.62731
709.6069, 16.55479
710.0890, 16.36905
710.5711, 16.39392
711.0532, 17.09144
711.5353, 17.89627
712.0175, 17.93366
712.4996, 16.99783
712.9817, 16.19575
713.4638, 16.52617
713.9459, 17.21090
714.4280, 16.95745
714.9102, 15.95363
715.3923, 15.36949
715.8744, 15.70606
716.3565, 16.62480
716.8386, 17.70200
717.3207, 18.99974
717.8029, 19.96974
718.2850, 20.54899
718.7671, 20.84495
719.2492, 20.95861
719.7313, 20.75792
720.2134, 19.93384
720.6956, 18.53800
721.1777, 17.28270
721.6598, 16.59683
722.1419, 16.27253
722.6240, 16.12134
723.1061, 16.11394
723.5883, 16.02664
724.0704, 15.76515
724.5525, 15.95572
725.0346, 17.54371
725.5167, 20.43591
725.9988, 21.23370
726.4810, 17.67251
726.9631, 15.26501
727.4452, 15.44596
727.9273, 16.32361
728.4094, 16.30743
728.8915, 15.62398
729.3737, 15.72205
729.8558, 17.90391
730.3379, 20.05085
730.8200, 19.24564
731.3021, 16.65088
731.7842, 15.68664
732.2664, 16.92841
732.7485, 18.49172
733.2306, 19.04662
733.7127, 18.70294
734.1948, 17.80380
734.6769, 15.31130
735.1591, 14.18567
735.6412, 15.45689
736.1233, 17.04322
736.6054, 18.26386
737.0875, 18.94923
737.5696, 18.80511
738.0518, 17.62034
738.5339, 16.31339
739.0160, 15.45043
739.4981, 15.02334
739.9802, 15.01896
740.4623, 15.43228
740.9445, 16.38115
741.4266, 18.02225
741.9087, 19.77142
742.3908, 20.57768
742.8729, 20.31533
743.3550, 19.64808
743.8372, 17.72234
744.3193, 16.43127
744.8014, 17.13407
745.2835, 18.22877
745.7656, 17.55747
746.2477, 14.96847
746.7299, 13.07369
747.2120, 13.85258
747.6941, 15.65233
748.1762, 16.70650
748.6583, 17.16452
749.1404, 17.56402
749.6226, 18.05887
750.1047, 18.50506
750.5868, 18.79172
751.0689, 18.89345
751.5510, 18.48262
752.0331, 17.11614
752.5153, 16.09462
752.9974, 15.42714
753.4795, 15.34078
753.9616, 16.54105
754.4437, 18.48487
754.9258, 19.45038
755.4080, 18.43121
755.8901, 17.26859
756.3722, 17.46022
756.8543, 18.18033
757.3364, 18.11331
757.8185, 17.23363
758.3007, 16.28681
758.7828, 15.68989
759.2649, 15.51095
759.7470, 16.07549
760.2291, 17.71742
760.7112, 18.42019
761.1934, 17.32066
761.6755, 16.55905
762.1576, 17.90581
762.6397, 19.79627
763.1218, 20.07248
763.6039, 18.37304
764.0861, 16.83600
764.5682, 16.01329
765.0503, 15.79630
765.5324, 16.66865
766.0145, 17.94406
766.4966, 18.12170
766.9788, 16.88737
767.4609, 15.58848
767.9430, 15.71829
768.4251, 16.89968
768.9072, 17.04399
769.3893, 15.83339
769.8715, 15.30827
770.3536, 16.41056
770.8357, 17.71633
771.3178, 17.81312
771.7999, 16.92385
772.2820, 16.19395
772.7642, 15.56896
773.2463, 15.27086
773.7284, 15.71662
774.2105, 16.23763
774.6926, 16.10854
775.1747, 15.50851
775.6569, 15.09806
776.1390, 15.20340
776.6211, 15.65809
777.1032, 16.52173
777.5853, 17.61121
778.0674, 17.78920
778.5496, 16.90291
779.0317, 15.59601
779.5138, 13.79610
779.9959, 12.35164
780.4780, 13.08381
780.9601, 17.07123
781.4423, 18.78692
781.9244, 15.93475
782.4065, 13.70388
782.8886, 14.41254
783.3707, 16.16605
783.8528, 16.88182
784.3350, 16.34021
784.8171, 15.62932
785.2992, 15.32042
785.7813, 15.28484
786.2634, 15.40423
786.7455, 15.65546
787.2277, 15.97723
787.7098, 16.35513
788.1919, 16.79906
788.6740, 17.37664
789.1561, 17.92688
789.6382, 17.79682
790.1204, 16.60706
790.6025, 15.65662
791.0846, 15.06960
791.5667, 14.67412
792.0488, 14.56245
792.5309, 14.52654
793.0131, 14.09163
793.4952, 13.05269
793.9773, 12.59082
794.4594, 13.63957
794.9415, 15.18399
795.4236, 16.66186
795.9058, 17.79834
796.3879, 17.90031
796.8700, 16.84945
797.3521, 15.68903
797.8342, 15.52913
798.3163, 16.17630
798.7985, 16.62194
799.2806, 16.83009
799.7627, 17.10426
800.2448, 17.75588
800.7269, 18.07243
801.2090, 17.05138
801.6912, 15.07664
802.1733, 14.24224
802.6554, 15.51462
803.1375, 16.39682
803.6196, 15.96566
804.1017, 15.41215
804.5839, 15.79677
805.0660, 16.70306
805.5481, 17.05810
806.0302, 16.46286
806.5123, 15.71082
806.9944, 15.70654
807.4766, 16.10975
807.9587, 15.97449
808.4408, 15.34169
808.9229, 15.16199
809.4050, 15.87672
809.8871, 16.52688
810.3693, 15.79982
810.8514, 13.72073
811.3335, 12.86529
811.8156, 14.20149
812.2977, 15.14395
812.7798, 14.82316
813.2620, 14.44603
813.7441, 14.97727
814.2262, 16.09904
814.7083, 16.79286
815.1904, 16.61662
815.6725, 16.41243
816.1547, 16.89339
816.6368, 17.43040
817.1189, 16.99386
817.6010, 15.93611
818.0831, 15.66330
818.5652, 16.75322
819.0474, 18.06412
819.5295, 17.91202
820.0116, 16.52031
820.4937, 15.97235
820.9758, 16.35727
821.4579, 17.16658
821.9401, 18.62944
822.4222, 19.76185
822.9043, 19.22974
823.3864, 17.13082
823.8685, 16.03207
824.3506, 16.80347
824.8328, 17.31239
825.3149, 17.18223
825.7970, 16.73751
826.2791, 15.76578
826.7612, 14.74654
827.2433, 14.84276
827.7255, 16.62400
828.2076, 18.38778
828.6897, 18.44053
829.1718, 17.66819
829.6539, 17.56008
830.1360, 18.04719
830.6182, 18.51075
831.1003, 18.71993
831.5824, 18.38913
832.0645, 16.95470
832.5466, 14.60567
833.0287, 14.05148
833.5109, 16.22711
833.9930, 17.33352
834.4751, 15.86563
834.9572, 13.98113
835.4393, 13.37369
835.9214, 13.74442
836.4036, 14.33064
836.8857, 15.41468
837.3678, 16.02500
837.8499, 15.08173
838.3320, 14.36705
838.8141, 15.92394
839.2963, 18.44225
839.7784, 19.14600
840.2605, 17.27149
840.7426, 15.17343
841.2247, 15.40185
841.7068, 16.63887
842.1890, 15.77403
842.6711, 13.33731
843.1532, 12.68846
843.6353, 14.75731
844.1174, 16.89551
844.5995, 16.66372
845.0817, 14.66078
845.5638, 13.62643
846.0459, 13.98323
846.5280, 14.12630
847.0101, 13.78059
847.4922, 13.41724
847.9744, 13.03253
848.4565, 12.88014
848.9386, 13.48237
849.4207, 15.00588
849.9028, 16.33539
850.3849, 17.48625
850.8671, 18.01708
851.3492, 17.18553
851.8313, 15.82611
852.3134, 14.98948
852.7955, 14.86054
853.2776, 15.07883
853.7598, 15.45286
854.2419, 15.94083
854.7240, 16.44007
855.2061, 16.99848
855.6882, 18.00494
856.1703, 19.48120
856.6525, 20.35576
857.1346, 19.97238
857.6167, 18.83086
858.0988, 17.83765
858.5809, 16.99484
859.0630, 16.27878
859.5452, 15.62307
860.0273, 15.22068
860.5094, 15.69303
860.9915, 15.99478
861.4736, 14.67788
861.9557, 12.15425
862.4379, 10.96585
862.9200, 12.52228
863.4021, 14.12360
863.8842, 14.66159
864.3663, 14.99616
864.8484, 16.08189
865.3306, 17.57348
865.8127, 18.60661
866.2948, 18.84574
866.7769, 18.35057
867.2590, 16.52709
867.7411, 14.27192
868.2233, 13.91320
868.7054, 15.05188
869.1875, 15.00682
869.6696, 12.98960
870.1517, 11.11959
870.6339, 11.48622
871.1160, 13.55669
871.5981, 14.92820
872.0802, 15.43005
872.5623, 15.89520
873.0444, 16.62535
873.5266, 16.93590
874.0087, 15.90185
874.4908, 14.44240
874.9729, 14.45864
875.4550, 16.35902
875.9371, 17.38292
876.4193, 16.86466
876.9014, 15.75946
877.3835, 13.41773
877.8656, 11.39715
878.3477, 11.94046
878.8298, 14.55604
879.3120, 16.29790
879.7941, 15.39836
880.2762, 13.94239
880.7583, 14.00376
881.2404, 14.86389
881.7225, 15.35686
882.2047, 15.39721
882.6868, 15.10339
883.1689, 14.52959
883.6510, 14.08808
884.1331, 14.44173
884.6152, 15.41081
885.0974, 15.46453
885.5795, 14.42029
886.0616, 13.82909
886.5437, 14.18585
887.0258, 14.73931
887.5079, 14.85440
887.9901, 15.26186
888.4722, 14.81922
888.9543, 15.68023
889.4364, 16.08491
889.9185, 15.94746
890.4006, 15.46587
890.8828, 14.03399
891.3649, 12.69537
891.8470, 13.13612
892.3291, 15.34295
892.8112, 16.68018
893.2933, 15.02198
893.7755, 13.39487
894.2576, 14.03668
894.7397, 15.57556
895.2218, 16.46112
895.7039, 16.54874
896.1860, 16.15802
896.6682, 15.42144
897.1503, 14.68781
897.6324, 14.42723
898.1145, 14.49648
898.5966, 14.46195
899.0787, 14.32916
899.5609, 14.32304
900.0430, 14.53080
900.5251, 14.63468
901.0072, 14.31645
901.4893, 13.64665
901.9714, 12.87055
902.4536, 11.74288
902.9357, 11.50682
903.4178, 12.92303
903.8999, 14.05855
904.3820, 13.58785
904.8641, 12.38388
905.3463, 11.90620
905.8284, 12.19465
906.3105, 12.80409
906.7926, 14.31098
907.2747, 15.35731
907.7568, 15.27390
908.2390, 14.76972
908.7211, 14.45914
909.2032, 14.29716
909.6853, 13.85027
910.1674, 12.81796
910.6495, 12.09697
911.1317, 12.59476
911.6138, 13.47257
912.0959, 13.77642
912.5780, 13.66451
913.0601, 13.62781
913.5422, 13.80774
914.0244, 14.08655
914.5065, 14.41680
914.9886, 14.68741
915.4707, 14.61054
915.9528, 14.24077
916.4349, 13.91130
916.9171, 13.66810
917.3992, 13.44921
917.8813, 13.20149
918.3634, 13.04481
918.8455, 13.22999
919.3276, 13.79425
919.8098, 13.95724
920.2919, 13.31703
920.7740, 13.36234
921.2561, 15.04428
921.7382, 16.74306
922.2203, 16.89667
922.7025, 15.96054
923.1846, 15.80778
923.6667, 17.17006
924.1488, 17.71206
924.6309, 16.22254
925.1130, 15.00439
925.5952, 15.55137
926.0773, 16.68555
926.5594, 16.97714
927.0415, 16.29911
927.5236, 15.33748
928.0057, 13.82977
928.4879, 12.93723
928.9700, 14.21983
929.4521, 15.97034
929.9342, 16.13235
930.4163, 14.93785
930.8984, 13.35970
931.3806, 11.82257
931.8627, 10.94805
932.3448, 11.81939
932.8269, 13.51832
933.3090, 14.04200
933.7911, 13.66768
934.2733, 13.54338
934.7554, 13.89488
935.2375, 14.48261
935.7196, 15.20415
936.2017, 15.77284
936.6838, 15.40226
937.1660, 14.01553
937.6481, 13.26311
938.1302, 13.21630
938.6123, 13.53345
939.0944, 14.14525
939.5765, 15.05081
940.0587, 16.56039
940.5408, 18.40652
941.0229, 18.49734
941.5050, 15.02660
941.9871, 13.11270
942.4692, 14.31136
942.9514, 15.49291
943.4335, 15.34350
943.9156, 14.53377
944.3977, 13.64257
944.8798, 12.74084
945.3619, 12.80906
945.8441, 15.24570
946.3262, 17.12703
946.8083, 17.36847
947.2904, 16.67434
947.7725, 15.03097
948.2546, 13.09775
948.7368, 12.09347
949.2189, 12.38832
949.7010, 13.27493
950.1831, 14.70113
950.6652, 16.12960
951.1473, 17.18940
951.6295, 17.79122
952.1116, 17.61561
952.5937, 16.77984
953.0758, 15.92601
953.5579, 15.41209
954.0400, 15.08600
954.5222, 14.62525
955.0043, 14.20652
955.4864, 14.55144
955.9685, 15.54014
956.4506, 16.15291
956.9327, 16.08515
957.4149, 15.78287
957.8970, 15.67928
958.3791, 15.55476
958.8612, 14.42564
959.3433, 12.12948
959.8254, 11.53222
960.3076, 13.34851
960.7897, 14.34581
961.2718, 12.66368
961.7539, 10.58562
962.2360, 11.28641
962.7181, 14.58061
963.2003, 16.03202
963.6824, 14.57851
964.1645, 13.46220
964.6466, 13.09946
965.1287, 12.98416
965.6108, 12.71826
966.0930, 12.59827
966.5751, 13.34296
967.0572, 15.13321
967.5393, 15.88223
968.0214, 14.37147
968.5035, 13.13320
968.9857, 12.69563
969.4678, 12.92100
969.9499, 14.30306
970.4320, 16.10346
970.9141, 16.68641
971.3962, 15.53584
971.8784, 14.39032
972.3605, 14.13769
972.8426, 14.05744
973.3247, 13.60373
973.8068, 13.05912
974.2889, 12.67208
974.7711, 12.56702
975.2532, 13.08164
975.7353, 14.50540
976.2174, 15.63928
976.6995, 14.84682
977.1816, 13.49212
977.6638, 13.94853
978.1459, 15.37473
978.6280, 15.11251
979.1101, 12.89153
979.5922, 11.16731
980.0743, 11.75133
980.5565, 13.35394
981.0386, 13.98131
981.5207, 13.85107
982.0028, 13.61819
982.4849, 13.35699
982.9670, 13.24318
983.4492, 13.33488
983.9313, 13.92035
984.4134, 15.43704
984.8955, 17.35242
985.3776, 17.90494
985.8597, 17.06030
986.3419, 15.76669
986.8240, 13.91867
987.3061, 12.85255
987.7882, 13.35656
988.2703, 14.22124
988.7524, 13.86393
989.2346, 12.47806
989.7167, 12.28730
990.1988, 14.09345
990.6809, 14.51405
991.1630, 12.22485
991.6451, 10.48830
992.1273, 11.56015
992.6094, 13.53795
993.0915, 13.27713
993.5736, 10.57123
994.0557, 9.518025
994.5378, 11.77959
995.0200, 13.26163
995.5021, 12.84848
995.9842, 12.34270
996.4663, 12.97575
996.9484, 14.03877
997.4305, 14.18346
997.9127, 13.20441
998.3948, 12.78233
998.8769, 13.80681
999.3590, 14.59919
999.8411, 14.37528
1000.323, 13.97674
1000.805, 14.31003
1001.287, 14.90711
1001.770, 14.35802
1002.252, 12.23101
1002.734, 11.45377
1003.216, 14.90263
1003.698, 18.10915
1004.180, 18.59332
1004.662, 17.35662
1005.144, 14.49250
1005.627, 11.08811
1006.109, 9.645300
1006.591, 11.10499
1007.073, 12.96911
1007.555, 13.70525
1008.037, 13.84862
1008.519, 13.77723
1009.001, 13.52605
1009.483, 13.00724
1009.966, 12.33288
1010.448, 11.81198
1010.930, 11.58439
1011.412, 11.73986
1011.894, 12.65001
1012.376, 13.80879
1012.858, 14.51004
1013.340, 14.79509
1013.823, 14.80810
1014.305, 14.58166
1014.787, 13.94717
1015.269, 12.76171
1015.751, 11.85340
1016.233, 12.66372
1016.715, 14.55425
1017.197, 15.93583
1017.679, 16.74463
1018.162, 16.62825
1018.644, 15.59311
1019.126, 14.68534
1019.608, 14.62389
1020.090, 14.91015
1020.572, 14.65856
1021.054, 13.95557
1021.536, 13.29548
1022.018, 12.69990
1022.501, 12.67327
1022.983, 13.35498
1023.465, 14.42260
1023.947, 15.75869
1024.429, 16.89937
1024.911, 16.72198
1025.393, 15.19316
1025.875, 13.81097
1026.358, 12.55235
1026.840, 11.48438
1027.322, 10.43150
1027.804, 10.67253
1028.286, 13.69721
1028.768, 17.82072
1029.250, 18.52371
1029.732, 15.20488
1030.214, 13.04364
1030.697, 12.08788
1031.179, 12.34020
1031.661, 14.43281
1032.143, 16.28172
1032.625, 16.24680
1033.107, 14.73172
1033.589, 12.64516
1034.071, 9.350887
1034.553, 8.524265
1035.036, 11.54934
1035.518, 14.03426
1036.000, 14.75982
1036.482, 14.74916
1036.964, 14.56624
1037.446, 14.35668
1037.928, 14.64668
1038.410, 15.87576
1038.893, 16.03407
1039.375, 14.22779
1039.857, 12.76954
1040.339, 12.14274
1040.821, 12.10307
1041.303, 12.72790
1041.785, 13.76339
1042.267, 14.59676
1042.750, 15.55092
1043.232, 15.23905
1043.714, 11.49943
1044.196, 9.403409
1044.678, 11.81846
1045.160, 14.66457
1045.642, 14.75749
1046.124, 13.03244
1046.606, 11.73212
1047.089, 10.85136
1047.571, 11.01944
1048.053, 13.32453
1048.535, 15.30632
1049.017, 16.61398
1049.499, 17.07435
1049.981, 16.14455
1050.463, 14.39217
1050.945, 12.93393
1051.428, 11.84493
1051.910, 11.37869
1052.392, 11.55265
1052.874, 12.39911
1053.356, 15.35011
1053.838, 17.65168
1054.320, 16.56391
1054.802, 13.43725
1055.285, 11.05893
1055.767, 9.873401
1056.249, 9.158685
1056.731, 8.542054
1057.213, 8.620370
1057.695, 10.29336
1058.177, 12.09387
1058.659, 13.06945
1059.141, 13.27184
1059.624, 12.59527
1060.106, 11.02548
1060.588, 10.59939
1061.070, 13.77454
1061.552, 15.79403
1062.034, 13.25760
1062.516, 10.31067
1062.998, 10.51125
1063.480, 12.48853
1063.963, 13.73763
1064.445, 13.80774
1064.927, 13.21034
1065.409, 11.05990
1065.891, 9.729343
1066.373, 10.86840
1066.855, 12.52947
1067.337, 13.23266
1067.820, 13.41851
1068.302, 14.06477
1068.784, 15.22005
1069.266, 15.91872
1069.748, 15.75649
1070.230, 15.14325
1070.712, 13.56166
1071.194, 12.30055
1071.677, 12.60961
1072.159, 13.70081
1072.641, 14.70343
1073.123, 15.31815
1073.605, 14.85289
1074.087, 12.32732
1074.569, 10.45410
1075.051, 10.88490
1075.533, 12.00714
1076.016, 13.32632
1076.498, 14.21270
1076.980, 13.61032
1077.462, 11.83785
1077.944, 10.52303
1078.426, 10.26335
1078.908, 10.31206
1079.390, 9.982101
1079.873, 10.22109
1080.355, 12.59094
1080.837, 15.20386
1081.319, 15.64394
1081.801, 14.29904
1082.283, 13.09804
1082.765, 12.61203
1083.247, 12.20935
1083.729, 11.40047
1084.212, 10.83441
1084.694, 10.86054
1085.176, 11.34292
1085.658, 12.63136
1086.140, 14.12699
1086.622, 14.29883
1087.104, 12.71451
1087.586, 11.64132
1088.068, 12.31824
1088.551, 13.37058
1089.033, 14.49230
1089.515, 15.35247
1089.997, 15.82228
1090.479, 15.76389
1090.961, 14.68311
1091.443, 12.58575
1091.925, 11.08601
1092.408, 10.97062
1092.890, 11.31621
1093.372, 12.19650
1093.854, 12.95027
1094.336, 13.05003
1094.818, 12.73987
1095.300, 12.19744
1095.782, 11.57823
1096.265, 11.65607
1096.747, 13.40416
1097.229, 14.40995
1097.711, 12.92311
1098.193, 11.53750
1098.675, 12.33700
1099.157, 13.67785
1099.639, 13.32656
1100.121, 11.60378
1100.604, 10.60302
1101.086, 10.74665
1101.568, 11.67351
1102.050, 14.22941
1102.532, 16.37677
1103.014, 17.05578
1103.496, 17.09060
1103.978, 17.41687
1104.460, 17.71085
1104.943, 16.76231
1105.425, 14.02246
1105.907, 12.34206
1106.389, 12.83008
1106.871, 13.61447
1107.353, 14.63028
1107.835, 15.28776
1108.317, 14.90085
1108.800, 14.01331
1109.282, 13.48599
1109.764, 13.37787
1110.246, 13.69012
1110.728, 15.25316
1111.210, 15.98269
1111.692, 14.87590
1112.174, 13.71783
1112.656, 13.51422
1113.139, 13.62492
1113.621, 13.23059
1114.103, 12.37535
1114.585, 11.63044
1115.067, 10.48404
1115.549, 10.39583
1116.031, 12.33554
1116.513, 13.95529
1116.995, 14.44390
1117.478, 14.41958
1117.960, 14.39872
1118.442, 14.30029
1118.924, 13.89887
1119.406, 13.29302
1119.888, 11.86670
1120.370, 8.436770
1120.852, 6.746602
1121.335, 8.354371
1121.817, 10.53115
1122.299, 11.54826
1122.781, 11.97958
1123.263, 12.88715
1123.745, 14.28489
1124.227, 15.43208
1124.709, 16.51810
1125.192, 16.55064
1125.674, 15.00827
1126.156, 13.67769
1126.638, 13.54398
1127.120, 13.52360
1127.602, 12.12181
1128.084, 9.868607
1128.566, 9.589413
1129.048, 11.57800
1129.531, 12.89093
1130.013, 13.34243
1130.495, 13.57739
1130.977, 13.82254
1131.459, 13.63598
1131.941, 12.52405
1132.423, 11.17356
1132.905, 11.13924
1133.387, 12.35069
1133.870, 13.82070
1134.352, 15.53127
1134.834, 17.02796
1135.316, 18.20835
1135.798, 18.40191
1136.280, 17.19886
1136.762, 15.53057
1137.244, 14.59146
1137.727, 14.12317
1138.209, 13.11397
1138.691, 11.86586
1139.173, 11.87977
1139.655, 13.09765
1140.137, 14.32095
1140.619, 15.10555
1141.101, 15.48373
1141.583, 15.44156
1142.066, 15.15819
1142.548, 15.13422
1143.030, 14.95427
1143.512, 13.12906
1143.994, 10.53871
1144.476, 9.834407
1144.958, 11.18663
1145.440, 12.71620
1145.922, 13.50368
1146.405, 13.83951
1146.887, 13.83212
1147.369, 13.67609
1147.851, 13.35468
1148.333, 13.18335
1148.815, 14.04073
1149.297, 15.37633
1149.779, 15.63757
1150.262, 14.46004
1150.744, 12.98286
1151.226, 11.16029
1151.708, 10.38789
1152.190, 12.66555
1152.672, 15.27793
1153.154, 15.81380
1153.636, 15.24382
1154.119, 15.25082
1154.601, 15.80852
1155.083, 15.58915
1155.565, 13.80272
1156.047, 12.74585
1156.529, 14.17970
1157.011, 15.20147
1157.493, 13.86150
1157.975, 12.21367
1158.458, 11.95641
1158.940, 12.72531
1159.422, 13.70921
1159.904, 14.87764
1160.386, 15.62058
1160.868, 15.87946
1161.350, 15.70783
1161.832, 14.44047
1162.314, 13.63876
1162.797, 14.63850
1163.279, 15.70027
1163.761, 14.54294
1164.243, 11.88041
1164.725, 11.21483
1165.207, 13.39530
1165.689, 14.50020
1166.171, 13.99115
1166.654, 14.13598
1167.136, 15.83207
1167.618, 17.14378
1168.100, 16.64973
1168.582, 15.34693
1169.064, 14.89067
1169.546, 15.21508
1170.028, 15.97138
1170.510, 17.19365
1170.993, 17.02076
1171.475, 15.22336
1171.957, 14.44360
1172.439, 15.70709
1172.921, 17.21225
1173.403, 17.35212
1173.885, 16.59538
1174.367, 15.50414
1174.849, 14.37456
1175.332, 14.59385
1175.814, 15.72287
1176.296, 15.99612
1176.778, 15.14089
1177.260, 13.50543
1177.742, 11.27167
1178.224, 9.719234
1178.706, 10.39580
1179.189, 12.05046
1179.671, 13.62142
1180.153, 14.73592
1180.635, 14.46837
1181.117, 13.39052
1181.599, 12.84380
1182.081, 13.02685
1182.563, 13.08257
1183.046, 12.41517
1183.528, 12.21710
1184.010, 14.13617
1184.492, 15.67377
1184.974, 14.44325
1185.456, 12.52680
1185.938, 12.43272
1186.420, 11.40563
1186.902, 10.55421
1187.385, 10.99439
1187.867, 9.890441
1188.349, 10.75829
1188.831, 12.07003
1189.313, 14.13391
1189.795, 15.88140
1190.277, 16.79628
1190.759, 17.13867
1191.241, 17.03462
1191.724, 16.58311
1192.206, 16.19684
1192.688, 15.97793
1193.170, 15.35064
1193.652, 14.14688
1194.134, 12.97420
1194.616, 11.75740
1195.098, 11.33127
1195.581, 12.35183
1196.063, 13.79986
1196.545, 14.20711
1197.027, 13.91428
1197.509, 14.78348
1197.991, 14.05899
1198.473, 16.19168
1198.955, 13.47851
1199.438, 12.12399
1199.920, 13.02015
1200.402, 13.67047
1200.884, 12.33458
1201.366, 10.90317
1201.848, 12.49802
1202.330, 15.32697
1202.812, 16.01764
1203.294, 15.29239
1203.776, 14.36980
1204.259, 13.51290
1204.741, 12.87181
1205.223, 12.47317
1205.705, 12.12981
1206.187, 11.62842
1206.669, 11.43788
1207.151, 11.97362
1207.633, 12.84924
1208.116, 14.32908
1208.598, 15.53721
1209.080, 15.28095
1209.562, 13.96118
1210.044, 12.67752
1210.526, 11.57780
1211.008, 11.15388
1211.490, 11.93229
1211.973, 12.73153
1212.455, 13.66668
1212.937, 14.16018
1213.419, 13.84301
1213.901, 13.08785
1214.383, 11.93511
1214.865, 10.77546
1215.347, 11.09066
1215.829, 13.23016
1216.312, 14.31120
1216.794, 13.99858
1217.276, 14.45774
1217.758, 16.27591
1218.240, 17.44839
1218.722, 16.95265
1219.204, 15.66138
1219.686, 14.33181
1220.168, 13.42394
1220.651, 14.83505
1221.133, 17.62790
1221.615, 17.65157
1222.097, 15.42086
1222.579, 13.69424
1223.061, 12.96633
1223.543, 12.30614
1224.025, 11.27460
1224.508, 10.76000
1224.990, 11.89176
1225.472, 13.47702
1225.954, 14.72058
1226.436, 15.40814
1226.918, 14.77472
1227.400, 13.68415
1227.882, 13.56383
1228.365, 14.45698
1228.847, 15.58694
1229.329, 16.99256
1229.811, 17.53381
1230.293, 15.83162
1230.775, 14.70615
1231.257, 15.56822
1231.739, 16.75806
1232.221, 17.75235
1232.703, 18.05315
1233.186, 16.61438
1233.668, 13.83788
1234.150, 12.50451
1234.632, 13.14744
1235.114, 13.01467
1235.596, 11.74734
1236.078, 11.54961
1236.560, 13.15072
1237.043, 14.18090
1237.525, 13.15252
1238.007, 11.73023
1238.489, 12.19458
1238.971, 11.76698
1239.453, 13.83757
1239.935, 13.17684
1240.417, 14.49355
1240.900, 17.17067
1241.382, 18.56943
1241.864, 18.21515
1242.346, 16.79644
1242.828, 14.58252
1243.310, 13.04577
1243.792, 14.37566
1244.274, 15.63842
1244.756, 13.64354
1245.239, 11.25369
1245.721, 11.39475
1246.203, 12.96041
1246.685, 14.25343
1247.167, 15.01052
1247.649, 15.22305
1248.131, 14.72711
1248.613, 14.23793
1249.095, 13.59672
1249.578, 13.37639
1250.060, 14.20619
1250.542, 14.54891
1251.024, 13.10139
1251.506, 11.66636
1251.988, 12.58827
1252.470, 15.15562
1252.952, 16.76417
1253.435, 17.42318
1253.917, 16.52814
1254.399, 14.14590
1254.881, 12.42638
1255.363, 11.78810
1255.845, 12.28548
1256.327, 13.90288
1256.809, 15.23997
1257.292, 14.89194
1257.774, 13.73619
1258.256, 12.40421
1258.738, 11.48271
1259.220, 12.34503
1259.702, 13.92173
1260.184, 14.24680
1260.666, 13.50011
1261.148, 13.12392
1261.630, 13.51185
1262.113, 13.87865
1262.595, 14.25661
1263.077, 14.09058
1263.559, 11.96931
1264.041, 10.81555
1264.523, 13.30445
1265.005, 16.17343
1265.487, 16.15199
1265.970, 14.71472
1266.452, 15.54530
1266.934, 15.18213
1267.416, 14.44749
1267.898, 15.52379
1268.380, 13.62832
1268.862, 13.75922
1269.344, 14.30772
1269.827, 14.75612
1270.309, 15.08137
1270.791, 15.30393
1271.273, 15.08023
1271.755, 13.22196
1272.237, 13.96607
1272.719, 11.82634
1273.201, 13.81178
1273.683, 14.09112
1274.166, 13.21374
1274.648, 13.25263
1275.130, 14.34889
1275.612, 14.69062
1276.094, 13.31390
1276.576, 12.43274
1277.058, 13.73441
1277.540, 14.57440
1278.022, 12.99448
1278.505, 11.65614
1278.987, 12.65034
1279.469, 14.61686
1279.951, 16.28762
1280.433, 17.50449
1280.915, 17.49222
1281.397, 16.03425
1281.879, 14.98844
1282.362, 14.34680
1282.844, 14.42476
1283.326, 15.28943
1283.808, 15.38247
1284.290, 14.06058
1284.772, 12.74145
1285.254, 12.55186
1285.736, 13.48590
##END=



