##NAMES=Fettelite
##RRUFFID=R110042
##IDEAL CHEMISTRY=Ag_16_HgAs_4_S_15_
##LOCALITY=Nieder-Beerbach mine near Darmstadt, Odenwald, Germany
##OWNER=RRUFF
##SOURCE=Institute of Mineralogy, University of Heidelberg
##DESCRIPTION=Red hexagonal plates, type-sample. New data are reported in Bindi et al (2012)
##STATUS=The identification of this mineral is confirmed by single-crystal X-ray diffraction and chemical analysis.
##URL=rruff.info/R110042
##MEASURED CHEMISTRY=Ag_16.08_Cu_0.13_Fe_0.01_Hg_0.71_As_3.80_S_15.28_
178.2374, 218.4010
178.7195, 219.9854
179.2017, 221.2473
179.6838, 222.3129
180.1659, 223.4216
180.6480, 224.6159
181.1301, 225.5665
181.6122, 225.8389
182.0944, 225.5923
182.5765, 225.3282
183.0586, 225.0928
183.5407, 225.0141
184.0228, 225.5004
184.5049, 226.6330
184.9871, 227.8307
185.4692, 228.3728
185.9513, 228.3442
186.4334, 228.1671
186.9155, 227.5847
187.3976, 226.9482
187.8798, 227.7048
188.3619, 230.1326
188.8440, 233.0046
189.3261, 234.7130
189.8082, 235.3165
190.2903, 235.2830
190.7725, 234.5355
191.2546, 233.2308
191.7367, 232.2679
192.2188, 231.6140
192.7009, 231.4536
193.1830, 232.6817
193.6652, 235.3112
194.1473, 237.0740
194.6294, 235.8806
195.1115, 232.0718
195.5936, 230.2336
196.0757, 230.9718
196.5579, 233.1485
197.0400, 234.7632
197.5221, 235.7987
198.0042, 236.5009
198.4863, 237.0410
198.9684, 237.4210
199.4506, 237.3155
199.9327, 236.5140
200.4148, 235.4628
200.8969, 235.2406
201.3790, 235.9832
201.8611, 236.8127
202.3433, 237.2371
202.8254, 237.2346
203.3075, 237.1238
203.7896, 236.9313
204.2717, 236.6434
204.7538, 236.0603
205.2360, 234.9820
205.7181, 234.3201
206.2002, 234.8357
206.6823, 236.7755
207.1644, 238.2280
207.6465, 238.9460
208.1287, 239.1290
208.6108, 239.3255
209.0929, 239.4654
209.5750, 239.8027
210.0571, 240.5789
210.5392, 241.9379
211.0214, 243.1286
211.5035, 244.2672
211.9856, 245.1443
212.4677, 244.9414
212.9498, 243.3578
213.4319, 241.3862
213.9140, 239.5266
214.3962, 237.7117
214.8783, 236.2182
215.3604, 234.9535
215.8425, 234.0454
216.3246, 234.2104
216.8067, 235.9302
217.2889, 237.7896
217.7710, 238.9261
218.2531, 239.1425
218.7352, 239.1842
219.2173, 238.9758
219.6994, 238.6323
220.1816, 238.8035
220.6637, 239.8610
221.1458, 240.7847
221.6279, 240.7906
222.1100, 239.2962
222.5921, 238.4472
223.0743, 238.6059
223.5564, 239.5475
224.0385, 240.2074
224.5206, 240.3914
225.0027, 240.5878
225.4848, 241.1517
225.9670, 242.3577
226.4491, 243.3173
226.9312, 244.2051
227.4133, 244.8317
227.8954, 244.0391
228.3775, 240.7240
228.8597, 237.6253
229.3418, 236.5600
229.8239, 238.4957
230.3060, 240.2411
230.7881, 241.6954
231.2702, 242.7931
231.7524, 243.1113
232.2345, 242.3246
232.7166, 241.2100
233.1987, 240.1404
233.6808, 238.8660
234.1629, 238.1754
234.6451, 238.1493
235.1272, 238.7390
235.6093, 239.9071
236.0914, 242.5406
236.5735, 244.5403
237.0556, 244.4700
237.5378, 240.7038
238.0199, 238.5098
238.5020, 238.8735
238.9841, 241.0352
239.4662, 241.8156
239.9483, 240.3530
240.4305, 238.7055
240.9126, 237.9844
241.3947, 238.6740
241.8768, 239.2575
242.3589, 239.7749
242.8410, 240.1399
243.3232, 239.9670
243.8053, 238.8276
244.2874, 237.7372
244.7695, 237.3195
245.2516, 238.2239
245.7337, 238.2613
246.2159, 236.8441
246.6980, 234.5715
247.1801, 233.4354
247.6622, 233.8840
248.1443, 234.7622
248.6264, 235.6613
249.1086, 237.0282
249.5907, 237.2549
250.0728, 235.6239
250.5549, 233.0351
251.0370, 232.0226
251.5191, 233.5578
252.0013, 235.1364
252.4834, 235.5449
252.9655, 234.0276
253.4476, 233.3771
253.9297, 234.0246
254.4118, 235.3501
254.8940, 235.9823
255.3761, 235.7473
255.8582, 235.1214
256.3403, 234.2058
256.8224, 232.8047
257.3046, 231.7717
257.7867, 231.2242
258.2688, 230.9703
258.7509, 230.6164
259.2330, 230.0163
259.7151, 229.6169
260.1973, 229.7126
260.6794, 230.5391
261.1615, 230.7202
261.6436, 229.9105
262.1257, 228.7562
262.6078, 228.3476
263.0900, 228.8335
263.5721, 229.7557
264.0542, 231.2796
264.5363, 233.7501
265.0184, 234.4620
265.5005, 232.7570
265.9827, 230.1007
266.4648, 228.5442
266.9469, 228.3158
267.4290, 228.5945
267.9111, 229.4243
268.3932, 230.8994
268.8754, 231.0420
269.3575, 229.2886
269.8396, 227.0625
270.3217, 226.3717
270.8038, 227.6880
271.2859, 228.6775
271.7681, 228.5673
272.2502, 227.4033
272.7323, 226.6608
273.2144, 226.5349
273.6965, 226.4566
274.1786, 225.4383
274.6608, 223.0412
275.1429, 222.1602
275.6250, 224.1079
276.1071, 228.3403
276.5892, 230.7733
277.0714, 231.1536
277.5535, 230.3452
278.0356, 228.7529
278.5177, 226.2361
278.9998, 224.4331
279.4819, 223.8986
279.9641, 224.2820
280.4462, 224.0331
280.9283, 223.0291
281.4104, 221.9115
281.8925, 221.2206
282.3746, 220.9637
282.8568, 220.7202
283.3389, 220.5568
283.8210, 220.2676
284.3031, 218.9856
284.7852, 216.5628
285.2673, 214.4136
285.7495, 213.8279
286.2316, 214.6622
286.7137, 214.8891
287.1958, 214.0274
287.6779, 212.7769
288.1600, 212.7534
288.6422, 213.9764
289.1243, 215.1669
289.6064, 215.3829
290.0885, 214.8131
290.5706, 214.4831
291.0527, 214.5800
291.5349, 214.6954
292.0170, 213.8913
292.4991, 212.2805
292.9812, 211.0847
293.4633, 211.4333
293.9454, 212.7675
294.4276, 213.2300
294.9097, 212.6117
295.3918, 211.5996
295.8739, 210.9452
296.3560, 210.6209
296.8381, 210.4641
297.3203, 210.7073
297.8024, 211.0154
298.2845, 210.5446
298.7666, 209.2118
299.2487, 207.7691
299.7308, 206.8821
300.2130, 206.4720
300.6951, 206.3246
301.1772, 206.4116
301.6593, 206.6797
302.1414, 207.1611
302.6235, 207.8435
303.1057, 208.4120
303.5878, 208.9699
304.0699, 209.1906
304.5520, 208.3739
305.0341, 205.3765
305.5162, 202.1033
305.9984, 200.5531
306.4805, 200.5910
306.9626, 201.1943
307.4447, 201.8151
307.9268, 202.5456
308.4089, 203.6468
308.8911, 205.8604
309.3732, 207.4195
309.8553, 206.0973
310.3374, 202.7202
310.8195, 200.0522
311.3016, 200.2537
311.7838, 201.5876
312.2659, 202.5579
312.7480, 202.8593
313.2301, 202.7967
313.7122, 202.0724
314.1943, 201.1111
314.6765, 200.8262
315.1586, 202.6755
315.6407, 204.5932
316.1228, 205.2387
316.6049, 204.2473
317.0870, 202.7906
317.5692, 200.8880
318.0513, 198.9532
318.5334, 197.5783
319.0155, 197.3225
319.4976, 197.3493
319.9797, 197.2006
320.4619, 196.7913
320.9440, 196.8995
321.4261, 198.7225
321.9082, 200.7516
322.3903, 201.5483
322.8724, 199.3587
323.3546, 197.3629
323.8367, 196.6864
324.3188, 197.2760
324.8009, 197.1900
325.2830, 194.8023
325.7651, 192.4574
326.2473, 191.6802
326.7294, 194.8399
327.2115, 197.0061
327.6936, 197.0880
328.1757, 195.5806
328.6578, 194.9652
329.1400, 196.4075
329.6221, 197.8035
330.1042, 198.2251
330.5863, 196.6723
331.0684, 195.8220
331.5505, 196.2027
332.0327, 197.1881
332.5148, 197.3692
332.9969, 196.2794
333.4790, 194.9830
333.9611, 193.7366
334.4432, 192.4375
334.9254, 191.6181
335.4075, 191.5471
335.8896, 191.7275
336.3717, 191.3109
336.8538, 189.7055
337.3359, 188.9935
337.8180, 190.1646
338.3001, 193.1653
338.7823, 194.6049
339.2644, 193.9735
339.7465, 192.7723
340.2286, 192.6025
340.7107, 193.7341
341.1928, 194.2579
341.6750, 193.5630
342.1571, 192.0698
342.6392, 191.5350
343.1213, 192.0956
343.6034, 192.8671
344.0855, 193.3346
344.5677, 193.4932
345.0498, 193.1648
345.5319, 192.1334
346.0140, 190.9296
346.4961, 190.6965
346.9782, 191.3979
347.4604, 192.1372
347.9425, 192.2912
348.4246, 192.0525
348.9067, 192.2614
349.3888, 193.0797
349.8709, 193.7624
350.3531, 193.1685
350.8352, 191.5995
351.3173, 190.1814
351.7994, 189.3573
352.2815, 188.9883
352.7636, 188.8841
353.2458, 189.0423
353.7279, 189.3620
354.2100, 189.9616
354.6921, 190.6326
355.1742, 190.9829
355.6563, 190.5913
356.1385, 190.1539
356.6206, 190.4776
357.1027, 191.4124
357.5848, 192.2027
358.0669, 192.1038
358.5490, 191.7998
359.0312, 192.0530
359.5133, 193.3883
359.9954, 194.4476
360.4775, 193.7681
360.9596, 192.2451
361.4417, 191.7812
361.9239, 194.1639
362.4060, 197.0269
362.8881, 199.2212
363.3702, 200.6472
363.8523, 201.2859
364.3344, 200.2762
364.8166, 198.7744
365.2987, 198.0947
365.7808, 199.6954
366.2629, 201.0147
366.7450, 201.1297
367.2271, 200.0354
367.7093, 199.3840
368.1914, 199.7275
368.6735, 200.3420
369.1556, 200.7623
369.6377, 200.9945
370.1198, 200.9764
370.6020, 200.4753
371.0841, 199.6861
371.5662, 199.3362
372.0483, 199.7243
372.5304, 200.1926
373.0125, 200.5811
373.4947, 201.1825
373.9768, 200.7126
374.4589, 198.4515
374.9410, 195.6900
375.4231, 194.7160
375.9052, 196.2608
376.3874, 197.5430
376.8695, 197.7798
377.3516, 196.9847
377.8337, 195.5625
378.3158, 193.3119
378.7979, 190.9578
379.2801, 189.3831
379.7622, 188.6271
380.2443, 187.4398
380.7264, 185.3032
381.2085, 182.7929
381.6906, 181.5877
382.1728, 181.7101
382.6549, 182.0069
383.1370, 181.6352
383.6191, 180.7692
384.1012, 180.1615
384.5833, 179.9380
385.0655, 179.7727
385.5476, 179.2406
386.0297, 178.3953
386.5118, 177.4654
386.9939, 176.3593
387.4760, 175.3071
387.9582, 174.6438
388.4403, 174.3730
388.9224, 174.3638
389.4045, 174.9128
389.8866, 175.5572
390.3687, 175.6292
390.8509, 174.6910
391.3330, 173.3537
391.8151, 171.6483
392.2972, 169.7807
392.7793, 168.5464
393.2614, 168.8574
393.7436, 169.6222
394.2257, 170.1067
394.7078, 170.1901
395.1899, 169.9512
395.6720, 168.8050
396.1541, 167.4566
396.6363, 167.0411
397.1184, 169.0679
397.6005, 170.9197
398.0826, 171.5896
398.5647, 170.8737
399.0468, 170.3037
399.5290, 170.3302
400.0111, 170.3869
400.4932, 169.9988
400.9753, 168.2569
401.4574, 167.3080
401.9395, 167.6799
402.4217, 169.0637
402.9038, 170.0233
403.3859, 170.5308
403.8680, 170.6572
404.3501, 170.3988
404.8322, 169.6811
405.3144, 168.7361
405.7965, 167.2571
406.2786, 165.9258
406.7607, 166.1597
407.2428, 168.3386
407.7249, 169.9997
408.2071, 170.1980
408.6892, 169.1511
409.1713, 167.9957
409.6534, 166.6241
410.1355, 165.7580
410.6176, 166.7413
411.0998, 169.1068
411.5819, 169.9378
412.0640, 168.2700
412.5461, 165.4898
413.0282, 163.4880
413.5103, 162.2675
413.9925, 161.7744
414.4746, 162.3006
414.9567, 163.4221
415.4388, 164.6065
415.9209, 165.8639
416.4030, 166.7984
416.8852, 166.8421
417.3673, 166.3922
417.8494, 166.0990
418.3315, 166.7242
418.8136, 167.1678
419.2957, 166.4272
419.7779, 164.7127
420.2600, 163.3635
420.7421, 163.7328
421.2242, 164.2566
421.7063, 163.6589
422.1884, 160.7102
422.6706, 158.5263
423.1527, 158.2053
423.6348, 159.1065
424.1169, 160.0093
424.5990, 161.1123
425.0811, 161.8394
425.5633, 161.7278
426.0454, 160.5246
426.5275, 160.3047
427.0096, 161.8611
427.4917, 163.7677
427.9738, 164.8569
428.4560, 164.8323
428.9381, 164.5784
429.4202, 164.0751
429.9023, 163.4338
430.3844, 163.0089
430.8665, 162.8213
431.3487, 162.8009
431.8308, 163.1934
432.3129, 164.0761
432.7950, 163.5167
433.2771, 161.0283
433.7592, 158.3621
434.2414, 158.1671
434.7235, 160.2154
435.2056, 161.7167
435.6877, 161.5711
436.1698, 160.4842
436.6519, 159.8885
437.1341, 159.7681
437.6162, 159.7843
438.0983, 159.5423
438.5804, 159.2989
439.0625, 159.5847
439.5446, 160.6203
440.0268, 161.7398
440.5089, 162.2981
440.9910, 162.5054
441.4731, 162.7832
441.9552, 164.0106
442.4373, 164.8299
442.9195, 164.0504
443.4016, 161.6882
443.8837, 159.5453
444.3658, 158.3470
444.8479, 157.6693
445.3300, 157.1882
445.8122, 156.6516
446.2943, 156.5384
446.7764, 157.3874
447.2585, 158.7321
447.7406, 159.3770
448.2227, 158.2232
448.7049, 157.3810
449.1870, 157.6322
449.6691, 159.2715
450.1512, 160.1978
450.6333, 160.0905
451.1154, 159.6143
451.5976, 159.3894
452.0797, 159.4977
452.5618, 159.5910
453.0439, 159.5847
453.5260, 159.5495
454.0081, 159.8525
454.4903, 160.6047
454.9724, 160.9770
455.4545, 160.2002
455.9366, 158.4978
456.4187, 157.4560
456.9008, 157.1819
457.3830, 157.2838
457.8651, 157.1492
458.3472, 156.9857
458.8293, 157.5680
459.3114, 159.8006
459.7935, 162.2256
460.2757, 162.9839
460.7578, 162.2643
461.2399, 161.0732
461.7220, 159.4953
462.2041, 158.0327
462.6862, 157.2820
463.1684, 157.4758
463.6505, 157.7191
464.1326, 157.6982
464.6147, 157.4198
465.0968, 156.8860
465.5789, 155.5828
466.0611, 154.5650
466.5432, 154.1621
467.0253, 154.3573
467.5074, 154.8081
467.9895, 155.9293
468.4716, 156.9353
468.9538, 157.4075
469.4359, 156.9558
469.9180, 156.8509
470.4001, 157.4222
470.8822, 158.1090
471.3643, 157.9874
471.8465, 156.7387
472.3286, 155.5732
472.8107, 154.6760
473.2928, 154.1096
473.7749, 154.4766
474.2570, 156.0020
474.7392, 157.2597
475.2213, 156.6890
475.7034, 154.6684
476.1855, 153.9866
476.6676, 155.1864
477.1497, 156.9063
477.6319, 157.2015
478.1140, 156.4570
478.5961, 155.9207
479.0782, 156.8272
479.5603, 157.8002
480.0424, 156.5268
480.5246, 153.3687
481.0067, 151.3002
481.4888, 153.5104
481.9709, 156.8996
482.4530, 158.5682
482.9352, 157.2200
483.4173, 155.9774
483.8994, 156.6609
484.3815, 158.0925
484.8636, 158.4722
485.3457, 155.5984
485.8279, 153.4738
486.3100, 153.6546
486.7921, 156.1645
487.2742, 157.5991
487.7563, 157.3127
488.2384, 156.6264
488.7206, 156.2825
489.2027, 156.5009
489.6848, 156.4598
490.1669, 156.0534
490.6490, 155.4922
491.1311, 155.1666
491.6133, 155.1476
492.0954, 154.8549
492.5775, 153.8801
493.0596, 152.5552
493.5417, 152.2880
494.0238, 153.0926
494.5060, 153.9300
494.9881, 153.7211
495.4702, 152.9652
495.9523, 153.1170
496.4344, 154.5745
496.9165, 155.9542
497.3987, 155.4414
497.8808, 153.9011
498.3629, 152.9747
498.8450, 154.0259
499.3271, 155.3365
499.8092, 155.9303
500.2914, 155.8495
500.7735, 155.3275
501.2556, 153.6882
501.7377, 152.2036
502.2198, 151.7517
502.7019, 152.9977
503.1841, 153.7841
503.6662, 153.1406
504.1483, 152.2002
504.6304, 152.3595
505.1125, 154.8712
505.5946, 156.4163
506.0768, 156.1581
506.5589, 154.5060
507.0410, 153.4916
507.5231, 153.1827
508.0052, 153.3128
508.4873, 154.0331
508.9695, 155.3442
509.4516, 155.7061
509.9337, 154.9886
510.4158, 153.8210
510.8979, 152.6864
511.3800, 151.6519
511.8622, 151.1457
512.3443, 151.5551
512.8264, 152.1366
513.3085, 151.5300
513.7906, 150.1401
514.2728, 149.4177
514.7549, 151.0733
515.2370, 153.1699
515.7191, 153.9340
516.2012, 153.1749
516.6833, 152.3152
517.1655, 151.8509
517.6476, 151.6640
518.1297, 151.6602
518.6118, 152.1865
519.0939, 152.4392
519.5760, 152.1757
520.0582, 151.5577
520.5403, 150.9729
521.0224, 150.4377
521.5045, 149.9107
521.9866, 149.2891
522.4688, 148.5720
522.9509, 148.3808
523.4330, 148.8159
523.9151, 149.5314
524.3972, 150.3369
524.8793, 151.2316
525.3615, 152.0484
525.8436, 152.8181
526.3257, 153.3926
526.8078, 153.4516
527.2899, 153.0802
527.7720, 152.6735
528.2542, 152.3545
528.7363, 152.1129
529.2184, 152.0328
529.7005, 152.0620
530.1826, 151.9125
530.6647, 151.1399
531.1469, 150.2769
531.6290, 149.7978
532.1111, 149.8330
532.5932, 149.9590
533.0753, 150.1521
533.5574, 150.2935
534.0396, 150.2570
534.5217, 149.3449
535.0038, 149.0589
535.4859, 150.2647
535.9680, 152.2876
536.4501, 152.9270
536.9323, 151.4690
537.4144, 149.8266
537.8965, 148.5672
538.3786, 147.6864
538.8607, 147.5359
539.3428, 148.3096
539.8250, 149.2139
540.3071, 149.3299
540.7892, 148.7773
541.2713, 148.8368
541.7534, 149.8566
542.2355, 151.1070
542.7177, 151.6289
543.1998, 151.5419
543.6819, 151.2098
544.1640, 150.4947
544.6461, 149.8313
545.1282, 149.7991
545.6104, 150.2791
546.0925, 150.5274
546.5746, 150.0003
547.0567, 149.2233
547.5388, 148.5311
548.0209, 147.9945
548.5031, 147.4702
548.9852, 146.5975
549.4673, 145.8758
549.9494, 145.8586
550.4315, 147.2310
550.9136, 148.2359
551.3958, 148.6025
551.8779, 148.5076
552.3600, 148.4563
552.8421, 148.4525
553.3242, 148.4804
553.8063, 148.6131
554.2885, 148.8009
554.7706, 148.5003
555.2527, 147.6520
555.7348, 146.9455
556.2169, 147.0016
556.6990, 147.6660
557.1812, 148.7940
557.6633, 150.6393
558.1454, 151.8615
558.6275, 150.4443
559.1096, 147.6069
559.5917, 145.4654
560.0739, 145.1018
560.5560, 145.4501
561.0381, 146.4850
561.5202, 147.9342
562.0023, 148.6822
562.4844, 147.3469
562.9666, 146.1924
563.4487, 146.4176
563.9308, 148.4191
564.4129, 149.8557
564.8950, 150.7279
565.3771, 151.0309
565.8593, 150.6283
566.3414, 149.2802
566.8235, 148.2946
567.3056, 147.9341
567.7877, 147.7642
568.2698, 146.7188
568.7520, 144.8755
569.2341, 143.7175
569.7162, 144.1800
570.1983, 145.4168
570.6804, 145.9090
571.1625, 145.7313
571.6447, 145.4143
572.1268, 145.0976
572.6089, 144.9311
573.0910, 145.0299
573.5731, 145.3952
574.0552, 146.1339
574.5374, 147.9475
575.0195, 149.8390
575.5016, 150.8841
575.9837, 150.1819
576.4658, 149.5150
576.9479, 149.1628
577.4301, 148.9137
577.9122, 148.2718
578.3943, 146.7630
578.8764, 145.8189
579.3585, 146.0484
579.8406, 147.2186
580.3228, 147.7060
580.8049, 147.4645
581.2870, 146.8382
581.7691, 145.7325
582.2512, 144.3830
582.7333, 143.8591
583.2155, 144.2914
583.6975, 144.8724
584.1796, 144.8301
584.6617, 144.4301
585.1439, 144.1524
585.6260, 144.3443
586.1081, 144.2999
586.5902, 143.0553
587.0723, 141.3211
587.5544, 140.4833
588.0366, 141.4566
588.5187, 142.8354
589.0008, 144.4821
589.4829, 146.3220
589.9650, 147.3950
590.4471, 147.3475
590.9293, 146.9802
591.4114, 146.6528
591.8935, 146.3855
592.3756, 145.9556
592.8577, 145.3001
593.3398, 144.6472
593.8220, 144.0823
594.3041, 143.6593
594.7862, 143.9780
595.2683, 145.4416
595.7504, 146.9027
596.2325, 146.7430
596.7147, 145.3866
597.1968, 143.9452
597.6789, 142.4992
598.1610, 141.4802
598.6431, 141.2822
599.1252, 141.8171
599.6074, 142.6479
600.0895, 144.5699
600.5716, 145.9482
601.0537, 145.7061
601.5358, 143.2565
602.0179, 141.6453
602.5001, 140.9194
602.9822, 141.0269
603.4643, 142.2158
603.9464, 145.0906
604.4285, 146.5836
604.9106, 146.2029
605.3928, 144.9805
605.8749, 144.3816
606.3570, 144.3773
606.8391, 144.6509
607.3212, 145.2946
607.8033, 145.9209
608.2855, 145.8033
608.7676, 145.1175
609.2497, 144.5099
609.7318, 144.4076
610.2139, 144.4754
610.6960, 144.4682
611.1782, 144.3747
611.6603, 144.2931
612.1424, 144.2036
612.6245, 144.1756
613.1066, 144.2413
613.5887, 144.3633
614.0709, 144.7142
614.5530, 145.5993
615.0351, 146.4467
615.5172, 146.6257
615.9993, 146.0042
616.4814, 145.3107
616.9636, 144.6281
617.4457, 143.9565
617.9278, 143.1965
618.4099, 142.3804
618.8920, 141.8353
619.3741, 141.7520
619.8563, 141.9638
620.3384, 142.4086
620.8205, 143.0004
621.3026, 143.3140
621.7847, 142.6562
622.2668, 141.9471
622.7490, 141.9751
623.2311, 142.8787
623.7132, 143.6739
624.1953, 144.1957
624.6774, 144.4559
625.1595, 144.4552
625.6417, 144.0777
626.1238, 143.6631
626.6059, 143.1292
627.0880, 142.6581
627.5701, 142.5583
628.0522, 142.8799
628.5344, 143.1232
629.0165, 143.2348
629.4986, 143.1359
629.9807, 142.3206
630.4628, 141.0009
630.9449, 140.3352
631.4271, 141.7138
631.9092, 143.4975
632.3913, 143.6174
632.8734, 142.3432
633.3555, 141.4383
633.8376, 142.5581
634.3198, 143.7027
634.8019, 143.4052
635.2840, 141.0812
635.7661, 139.6770
636.2482, 139.9774
636.7303, 140.8696
637.2125, 141.6664
637.6946, 142.4177
638.1767, 142.9229
638.6588, 143.1355
639.1409, 143.1727
639.6230, 143.2636
640.1052, 143.3871
640.5873, 143.1260
641.0694, 142.2335
641.5515, 141.1592
642.0336, 140.4656
642.5157, 140.1474
642.9979, 140.1840
643.4800, 140.6524
643.9621, 141.4024
644.4442, 142.7997
644.9263, 144.5883
645.4084, 145.2959
645.8906, 142.7595
646.3727, 140.5009
646.8548, 140.6365
647.3369, 143.6916
647.8190, 144.9433
648.3011, 143.3644
648.7833, 141.5071
649.2654, 141.5115
649.7475, 143.5982
650.2296, 144.7938
650.7117, 144.8774
651.1938, 144.3023
651.6760, 143.1563
652.1581, 141.7611
652.6402, 141.2864
653.1223, 142.4787
653.6044, 143.7393
654.0865, 143.5109
654.5687, 142.3350
655.0508, 141.2614
655.5329, 140.5308
656.0150, 140.1136
656.4971, 140.0093
656.9792, 140.2148
657.4614, 140.7334
657.9435, 141.9476
658.4256, 142.9363
658.9077, 143.4533
659.3898, 143.4969
659.8719, 142.8111
660.3541, 141.1752
660.8362, 139.8465
661.3183, 140.0015
661.8004, 141.2344
662.2825, 141.9345
662.7646, 141.9991
663.2468, 141.7999
663.7289, 141.3252
664.2110, 140.9177
664.6931, 141.1792
665.1752, 142.6980
665.6573, 143.6755
666.1395, 142.7161
666.6216, 141.0185
667.1037, 140.0572
667.5858, 140.8123
668.0679, 141.3387
668.5500, 141.4079
669.0322, 141.2003
669.5143, 141.0740
669.9964, 141.0130
670.4785, 141.1173
670.9606, 141.4896
671.4427, 141.9969
671.9249, 142.2752
672.4070, 142.3391
672.8891, 142.2932
673.3712, 141.9995
673.8533, 141.7471
674.3354, 142.1393
674.8176, 143.0793
675.2997, 143.4708
675.7818, 141.8454
676.2639, 140.1950
676.7460, 139.9649
677.2281, 141.8949
677.7103, 142.9095
678.1924, 142.4683
678.6745, 141.5265
679.1566, 140.5966
679.6387, 139.4792
680.1208, 139.4900
680.6030, 140.9684
681.0851, 142.8653
681.5672, 143.9834
682.0493, 144.4110
682.5314, 144.5506
683.0135, 144.4521
683.4957, 144.1966
683.9778, 143.7457
684.4599, 143.2122
684.9420, 142.8252
685.4241, 142.7140
685.9063, 142.7085
686.3884, 142.9276
686.8705, 143.2278
687.3526, 143.0805
687.8347, 141.7764
688.3168, 141.0530
688.7990, 141.6455
689.2811, 143.2696
689.7632, 143.9337
690.2453, 143.5432
690.7274, 142.8555
691.2095, 142.2105
691.6917, 141.6164
692.1738, 141.0025
692.6559, 140.3890
693.1380, 140.0594
693.6201, 140.5123
694.1022, 141.1755
694.5844, 141.4264
695.0665, 141.0971
695.5486, 140.9411
696.0307, 141.3822
696.5128, 141.9902
696.9949, 142.4657
697.4771, 143.0468
697.9592, 142.9050
698.4413, 141.6361
698.9234, 140.1692
699.4055, 139.7260
699.8876, 140.3285
700.3698, 140.9311
700.8519, 141.4761
701.3340, 141.6283
701.8161, 140.4419
702.2982, 138.4802
702.7803, 137.1565
703.2625, 137.1702
703.7446, 137.7813
704.2267, 138.8315
704.7088, 140.0965
705.1909, 141.0757
705.6730, 141.5957
706.1552, 141.8250
706.6373, 141.5919
707.1194, 141.0727
707.6015, 141.2195
708.0836, 142.3694
708.5657, 143.1185
709.0479, 142.6287
709.5300, 141.3059
710.0121, 141.1340
710.4942, 142.0545
710.9763, 142.6713
711.4584, 141.5414
711.9406, 139.8401
712.4227, 139.0197
712.9048, 139.1452
713.3869, 139.5982
713.8690, 140.4949
714.3511, 141.3118
714.8333, 141.6689
715.3154, 141.3355
715.7975, 141.1383
716.2796, 141.0327
716.7617, 141.1270
717.2438, 141.6634
717.7260, 142.7346
718.2081, 143.2122
718.6902, 143.0016
719.1723, 142.3045
719.6544, 140.6572
720.1365, 138.7428
720.6187, 138.5771
721.1008, 141.2222
721.5829, 143.7826
722.0650, 143.8405
722.5471, 142.5798
723.0292, 141.5869
723.5114, 141.0455
723.9935, 141.1550
724.4756, 142.6423
724.9577, 144.5410
725.4398, 145.1566
725.9219, 144.0592
726.4041, 142.9554
726.8862, 142.2003
727.3683, 141.6660
727.8504, 140.9241
728.3325, 140.0645
728.8146, 139.7405
729.2968, 140.6995
729.7789, 141.9609
730.2610, 142.3895
730.7431, 142.1730
731.2252, 141.9350
731.7073, 142.1289
732.1895, 142.1792
732.6716, 141.7097
733.1537, 140.7646
733.6358, 140.1395
734.1179, 140.0369
734.6000, 139.8743
735.0822, 139.1573
735.5643, 138.0522
736.0464, 138.6781
736.5285, 141.1393
737.0106, 143.2686
737.4927, 143.2808
737.9749, 142.0296
738.4570, 140.6265
738.9391, 139.1797
739.4212, 138.4577
739.9033, 139.6894
740.3854, 141.2652
740.8676, 142.0060
741.3497, 141.5702
741.8318, 141.0965
742.3139, 140.6065
742.7960, 140.1641
743.2781, 139.7188
743.7603, 139.1855
744.2424, 139.3857
744.7245, 140.4900
745.2066, 141.7171
745.6887, 142.3667
746.1708, 142.5020
746.6530, 142.2585
747.1351, 141.6460
747.6172, 140.7524
748.0993, 139.1542
748.5814, 137.5275
749.0635, 136.6873
749.5457, 137.6411
750.0278, 138.0272
750.5099, 136.7406
750.9920, 135.2677
751.4741, 135.5423
751.9562, 138.1289
752.4384, 140.0879
752.9205, 141.0317
753.4026, 141.1526
753.8847, 140.2260
754.3668, 138.6163
754.8489, 137.7978
755.3311, 138.4113
755.8132, 139.5999
756.2953, 141.1173
756.7774, 142.5927
757.2595, 143.3437
757.7416, 142.4245
758.2238, 141.6331
758.7059, 141.5375
759.1880, 141.8033
759.6701, 141.7075
760.1522, 141.1160
760.6343, 140.6203
761.1165, 140.4303
761.5986, 140.3636
762.0807, 139.8346
762.5628, 138.9520
763.0449, 138.3437
763.5270, 138.2874
764.0092, 138.6463
764.4913, 139.6474
764.9734, 141.0040
765.4555, 141.8426
765.9376, 141.4416
766.4197, 140.8828
766.9019, 140.4176
767.3840, 140.0775
767.8661, 140.0986
768.3482, 140.7043
768.8303, 140.9835
769.3124, 140.3334
769.7946, 139.1615
770.2767, 139.0672
770.7588, 139.9333
771.2409, 140.6663
771.7230, 140.4322
772.2051, 139.8660
772.6873, 139.4251
773.1694, 139.1662
773.6515, 139.3363
774.1336, 141.1441
774.6157, 142.2975
775.0978, 141.4162
775.5800, 138.6128
776.0621, 136.8956
776.5442, 136.4681
777.0263, 136.5545
777.5084, 136.8730
777.9905, 137.3680
778.4727, 137.7464
778.9548, 138.0170
779.4369, 138.3466
779.9190, 139.2135
780.4011, 139.9587
780.8832, 139.6378
781.3654, 138.2216
781.8475, 137.4169
782.3296, 138.4336
782.8117, 139.5995
783.2938, 140.0036
783.7759, 139.5381
784.2581, 139.6702
784.7402, 140.6506
785.2223, 141.4470
785.7044, 140.9538
786.1865, 139.6561
786.6686, 139.7162
787.1508, 141.1782
787.6329, 142.5053
788.1150, 142.4895
788.5971, 141.8360
789.0792, 141.0928
789.5613, 140.2761
790.0435, 139.7553
790.5256, 139.9207
791.0077, 140.1333
791.4898, 140.0722
791.9719, 139.7154
792.4540, 139.1027
792.9362, 138.1090
793.4183, 137.4073
793.9004, 137.9016
794.3825, 139.1131
794.8646, 139.5953
795.3467, 139.2414
795.8289, 138.8559
796.3110, 139.6365
796.7931, 140.2404
797.2752, 139.0190
797.7573, 134.8498
798.2394, 133.1536
798.7216, 136.1935
799.2037, 139.9708
799.6858, 142.1106
800.1679, 142.4903
800.6500, 141.9555
801.1321, 140.3411
801.6143, 138.8095
802.0964, 138.6762
802.5785, 139.2999
803.0606, 139.2914
803.5427, 138.4364
804.0248, 137.9743
804.5070, 139.0592
804.9891, 140.5315
805.4712, 141.6199
805.9533, 142.3855
806.4354, 142.0743
806.9175, 139.9317
807.3997, 137.8135
807.8818, 137.1956
808.3639, 138.0482
808.8460, 138.8748
809.3281, 139.6424
809.8102, 140.1791
810.2924, 140.1126
810.7745, 139.8200
811.2566, 139.8593
811.7387, 140.3418
812.2208, 140.7660
812.7029, 140.9245
813.1851, 140.9525
813.6672, 140.8734
814.1493, 140.5561
814.6314, 140.8647
815.1135, 142.1519
815.5956, 143.1773
816.0778, 142.4038
816.5599, 140.4017
817.0420, 140.1199
817.5241, 141.7471
818.0062, 143.3845
818.4883, 143.4500
818.9705, 142.8649
819.4526, 142.4790
819.9347, 142.4213
820.4168, 142.3969
820.8989, 142.3498
821.3810, 142.3201
821.8632, 142.4142
822.3453, 142.7005
822.8274, 142.3314
823.3095, 141.2193
823.7916, 140.0427
824.2737, 139.1971
824.7559, 138.7283
825.2380, 138.9560
825.7201, 139.8649
826.2022, 140.5448
826.6843, 140.2045
827.1664, 139.6299
827.6486, 139.3313
828.1307, 139.3882
828.6128, 139.5035
829.0949, 139.7107
829.5770, 139.9055
830.0591, 139.8166
830.5413, 139.5517
831.0234, 140.8037
831.5055, 143.5423
831.9876, 145.5351
832.4697, 144.5266
832.9518, 142.3661
833.4340, 140.8690
833.9161, 140.1482
834.3982, 139.9061
834.8803, 140.4216
835.3624, 141.0325
835.8445, 141.4863
836.3267, 141.7827
836.8088, 141.8889
837.2909, 141.7558
837.7730, 141.6592
838.2551, 141.7470
838.7372, 141.9850
839.2194, 142.4302
839.7015, 143.0081
840.1836, 143.2837
840.6657, 142.8833
841.1478, 142.2130
841.6299, 141.4289
842.1121, 140.5619
842.5942, 139.7670
843.0763, 138.7084
843.5584, 138.3272
844.0405, 139.1420
844.5226, 140.7863
845.0048, 141.8922
845.4869, 142.4708
845.9690, 142.7082
846.4511, 142.7125
846.9332, 142.4073
847.4153, 141.2345
847.8975, 139.6505
848.3796, 138.9441
848.8617, 140.7550
849.3438, 142.1295
849.8259, 141.9390
850.3080, 140.8192
850.7902, 140.4929
851.2723, 141.1537
851.7544, 141.3982
852.2365, 140.6235
852.7186, 139.5463
853.2007, 139.5949
853.6829, 140.3958
854.1650, 140.9120
854.6471, 140.3124
855.1292, 139.8829
855.6113, 140.5253
856.0934, 141.6795
856.5756, 142.3180
857.0577, 142.2221
857.5398, 141.9007
858.0219, 141.1850
858.5040, 140.6072
858.9861, 141.4268
859.4683, 143.2975
859.9504, 144.2198
860.4325, 143.4957
860.9146, 142.4512
861.3967, 142.1753
861.8788, 142.3413
862.3610, 142.5627
862.8431, 142.9001
863.3252, 143.0237
863.8073, 142.9813
864.2894, 142.6635
864.7715, 141.7633
865.2537, 140.2179
865.7358, 139.6161
866.2179, 140.2215
866.7000, 140.7585
867.1821, 139.4724
867.6642, 137.4894
868.1464, 136.4516
868.6285, 136.6604
869.1106, 137.3770
869.5927, 139.0858
870.0748, 140.5648
870.5569, 140.8836
871.0391, 139.7795
871.5212, 139.3328
872.0033, 139.6323
872.4854, 140.2370
872.9675, 140.9395
873.4496, 141.6633
873.9318, 142.3253
874.4139, 142.8847
874.8960, 142.9754
875.3781, 141.6845
875.8602, 140.4596
876.3423, 140.4937
876.8245, 141.8094
877.3066, 142.0969
877.7887, 140.9090
878.2708, 139.7075
878.7529, 139.0044
879.2350, 138.7726
879.7172, 139.0599
880.1993, 139.7952
880.6814, 140.5163
881.1635, 140.9926
881.6456, 141.3452
882.1277, 141.6288
882.6099, 141.8578
883.0920, 142.0772
883.5741, 142.5675
884.0562, 142.5940
884.5383, 141.7511
885.0204, 140.6103
885.5026, 140.7097
885.9847, 141.9266
886.4668, 142.3608
886.9489, 141.1444
887.4310, 139.6847
887.9131, 139.5676
888.3953, 140.2337
888.8774, 140.8447
889.3595, 141.1773
889.8416, 141.4336
890.3237, 141.7303
890.8058, 141.8993
891.2880, 141.6036
891.7701, 140.7590
892.2522, 140.7504
892.7343, 141.8280
893.2164, 142.9018
893.6985, 142.7443
894.1807, 141.8930
894.6628, 141.0015
895.1449, 140.1154
895.6270, 139.6564
896.1091, 139.9134
896.5912, 140.5448
897.0734, 141.4654
897.5555, 142.7398
898.0376, 143.4138
898.5197, 143.4498
899.0018, 143.0987
899.4839, 142.1908
899.9661, 141.1565
900.4482, 140.7352
900.9303, 140.9271
901.4124, 141.6260
901.8945, 143.8612
902.3766, 145.5327
902.8588, 145.2377
903.3409, 143.4354
903.8230, 142.1615
904.3051, 141.4543
904.7872, 141.1017
905.2693, 141.1197
905.7515, 141.3335
906.2336, 141.4118
906.7157, 141.3877
907.1978, 141.3627
907.6799, 141.4661
908.1620, 141.4669
908.6442, 141.0568
909.1263, 140.5497
909.6084, 140.5022
910.0905, 141.2218
910.5726, 141.5652
911.0547, 141.3512
911.5369, 140.9419
912.0190, 140.8503
912.5011, 140.9508
912.9832, 140.7278
913.4653, 139.9665
913.9474, 139.7501
914.4296, 141.8051
914.9117, 144.0061
915.3938, 144.2164
915.8759, 141.5117
916.3580, 140.5013
916.8401, 141.7204
917.3223, 143.3046
917.8044, 144.0702
918.2865, 144.1477
918.7686, 143.8269
919.2507, 143.1861
919.7328, 142.8692
920.2150, 143.9740
920.6971, 144.9033
921.1792, 144.1789
921.6613, 142.1290
922.1434, 141.5960
922.6255, 143.6367
923.1077, 144.7729
923.5898, 143.6694
924.0719, 141.4122
924.5540, 140.1852
925.0361, 139.9752
925.5182, 140.8665
926.0004, 143.8438
926.4825, 146.3466
926.9646, 146.2789
927.4467, 144.9048
927.9288, 144.1527
928.4109, 144.7200
928.8931, 144.7161
929.3752, 143.8762
929.8573, 142.8171
930.3394, 142.2242
930.8215, 141.9994
931.3036, 141.6905
931.7858, 141.2206
932.2679, 141.0898
932.7500, 142.0977
933.2321, 143.2475
933.7142, 143.7704
934.1964, 143.5181
934.6785, 143.2102
935.1606, 142.7987
935.6427, 142.4653
936.1248, 142.3812
936.6069, 142.4280
937.0891, 142.0870
937.5712, 141.4606
938.0533, 141.0915
938.5354, 141.4982
939.0175, 142.0195
939.4996, 142.3321
939.9818, 142.4595
940.4639, 142.5162
940.9460, 142.5877
941.4281, 142.3409
941.9102, 141.6216
942.3923, 140.7399
942.8745, 140.0658
943.3566, 139.6429
943.8387, 139.6199
944.3208, 140.0444
944.8029, 140.8261
945.2850, 142.8810
945.7672, 144.6604
946.2493, 144.3903
946.7314, 141.1729
947.2135, 139.7470
947.6956, 140.5138
948.1777, 141.7086
948.6599, 141.9003
949.1420, 141.5108
949.6241, 141.6134
950.1062, 142.1645
950.5883, 142.5832
951.0704, 142.4995
951.5526, 142.2593
952.0347, 141.7906
952.5168, 141.2877
952.9989, 141.6962
953.4810, 143.3570
953.9631, 144.2448
954.4453, 143.5632
954.9274, 142.2118
955.4095, 141.5083
955.8916, 141.3056
956.3737, 141.3010
956.8558, 141.5765
957.3380, 141.7047
957.8201, 140.7939
958.3022, 140.1962
958.7843, 141.5225
959.2664, 145.4614
959.7485, 147.2420
960.2307, 146.5266
960.7128, 145.1267
961.1949, 144.4813
961.6770, 144.2300
962.1591, 143.9982
962.6412, 143.7308
963.1234, 143.1269
963.6055, 141.2241
964.0876, 139.9559
964.5697, 140.2843
965.0518, 141.7345
965.5339, 142.1001
966.0161, 141.3801
966.4982, 140.7929
966.9803, 140.8249
967.4624, 141.1591
967.9445, 141.5142
968.4266, 141.9070
968.9088, 142.3581
969.3909, 143.3612
969.8730, 143.6562
970.3551, 142.7419
970.8372, 141.6721
971.3193, 141.7386
971.8015, 142.7708
972.2836, 142.9787
972.7657, 142.2008
973.2478, 141.5101
973.7299, 142.1279
974.2120, 142.8981
974.6942, 142.6501
975.1763, 141.2983
975.6584, 140.6873
976.1405, 141.2187
976.6226, 141.7376
977.1047, 141.6530
977.5869, 141.4046
978.0690, 142.7594
978.5511, 145.1189
979.0332, 146.2126
979.5153, 144.1070
979.9974, 142.0118
980.4796, 141.7979
980.9617, 142.5684
981.4438, 143.0488
981.9259, 143.1400
982.4080, 143.1387
982.8901, 143.0355
983.3723, 142.9377
983.8544, 143.0036
984.3365, 143.1357
984.8186, 143.1030
985.3007, 142.8954
985.7828, 142.7983
986.2650, 143.1695
986.7471, 143.4198
987.2292, 143.1331
987.7113, 142.4996
988.1934, 142.5401
988.6755, 143.2686
989.1577, 144.4233
989.6398, 146.3620
990.1219, 147.8934
990.6040, 147.2437
991.0861, 145.2586
991.5682, 143.3466
992.0504, 141.0584
992.5325, 140.3250
993.0146, 142.1623
993.4967, 144.3432
993.9788, 144.7552
994.4609, 143.5711
994.9431, 141.9065
995.4252, 139.8277
995.9073, 138.6826
996.3894, 139.9895
996.8715, 142.1432
997.3536, 144.5496
997.8358, 146.9220
998.3179, 147.3696
998.8000, 144.9906
999.2821, 143.0325
999.7642, 142.5651
1000.246, 142.8473
1000.728, 142.1785
1001.211, 141.0571
1001.693, 140.8743
1002.175, 142.5579
1002.657, 144.1218
1003.139, 144.9404
1003.621, 145.0537
1004.103, 144.2864
1004.585, 142.2467
1005.068, 141.9075
1005.550, 143.4505
1006.032, 144.8831
1006.514, 144.1629
1006.996, 142.8108
1007.478, 143.0002
1007.960, 144.4525
1008.442, 145.2027
1008.924, 144.2300
1009.407, 143.0051
1009.889, 141.3873
1010.371, 140.0690
1010.853, 141.0967
1011.335, 144.0029
1011.817, 145.4832
1012.299, 144.5340
1012.781, 143.1705
1013.263, 142.9985
1013.746, 143.0890
1014.228, 142.2929
1014.710, 140.1035
1015.192, 139.6497
1015.674, 141.4107
1016.156, 143.3731
1016.638, 144.4451
1017.120, 144.8187
1017.603, 144.6013
1018.085, 144.0001
1018.567, 143.7572
1019.049, 144.9082
1019.531, 145.5915
1020.013, 145.0736
1020.495, 143.9093
1020.977, 142.6942
1021.459, 141.4104
1021.942, 140.8608
1022.424, 141.1974
1022.906, 141.8678
1023.388, 142.4975
1023.870, 143.1139
1024.352, 143.8847
1024.834, 144.8676
1025.316, 145.1165
1025.799, 144.2888
1026.281, 143.3482
1026.763, 142.5137
1027.245, 141.9632
1027.727, 142.3784
1028.209, 143.4763
1028.691, 144.2955
1029.173, 144.2459
1029.656, 144.1868
1030.138, 144.6398
1030.620, 145.1948
1031.102, 145.5048
1031.584, 145.6475
1032.066, 144.8158
1032.548, 142.8546
1033.030, 141.1960
1033.512, 141.0966
1033.995, 141.9285
1034.477, 143.5345
1034.959, 145.5943
1035.441, 146.3623
1035.923, 144.1944
1036.405, 142.5803
1036.887, 142.2831
1037.369, 142.8017
1037.851, 143.3200
1038.334, 143.8082
1038.816, 144.2182
1039.298, 144.5828
1039.780, 144.6673
1040.262, 143.8444
1040.744, 143.0689
1041.226, 143.3741
1041.708, 144.8996
1042.191, 144.6221
1042.673, 142.2475
1043.155, 140.6036
1043.637, 141.8983
1044.119, 144.1936
1044.601, 144.9535
1045.083, 144.5928
1045.565, 144.0360
1046.047, 143.1284
1046.530, 142.6607
1047.012, 142.7053
1047.494, 143.1872
1047.976, 144.4230
1048.458, 146.0992
1048.940, 146.4076
1049.422, 145.2532
1049.904, 144.1146
1050.386, 144.2003
1050.869, 144.3151
1051.351, 143.3624
1051.833, 141.7726
1052.315, 141.6071
1052.797, 143.1478
1053.279, 143.8309
1053.761, 142.6679
1054.243, 141.2020
1054.726, 141.4117
1055.208, 142.5526
1055.690, 143.6443
1056.172, 144.5690
1056.654, 145.1938
1057.136, 145.7325
1057.618, 145.6046
1058.100, 143.8687
1058.583, 141.2891
1059.065, 141.0594
1059.547, 142.8252
1060.029, 144.9608
1060.511, 147.6323
1060.993, 149.2957
1061.475, 148.7942
1061.957, 147.1198
1062.439, 145.3964
1062.922, 143.5181
1063.404, 142.6284
1063.886, 142.8745
1064.368, 143.6134
1064.850, 144.9541
1065.332, 146.0167
1065.814, 145.6558
1066.296, 143.9282
1066.778, 142.4790
1067.261, 141.0340
1067.743, 140.8890
1068.225, 142.8173
1068.707, 145.4583
1069.189, 146.2715
1069.671, 145.7933
1070.153, 145.1887
1070.635, 144.6649
1071.118, 144.3320
1071.600, 144.4218
1072.082, 144.5529
1072.564, 144.4860
1073.046, 144.2496
1073.528, 144.1760
1074.010, 144.2614
1074.492, 144.4317
1074.974, 145.0386
1075.457, 145.2738
1075.939, 143.7923
1076.421, 141.7911
1076.903, 141.4636
1077.385, 143.7957
1077.867, 144.8881
1078.349, 144.3458
1078.831, 143.5053
1079.313, 143.7092
1079.796, 144.3420
1080.278, 144.3793
1080.760, 143.8841
1081.242, 143.6642
1081.724, 144.6248
1082.206, 144.9014
1082.688, 143.6564
1083.170, 142.1177
1083.652, 143.1325
1084.135, 145.8781
1084.617, 147.0244
1085.099, 145.7634
1085.581, 144.3340
1086.063, 144.0487
1086.545, 144.0123
1087.027, 143.4620
1087.509, 142.5335
1087.992, 142.9947
1088.474, 144.8689
1088.956, 146.0760
1089.438, 145.3588
1089.920, 144.3541
1090.402, 145.1321
1090.884, 146.4239
1091.366, 146.3864
1091.849, 144.0978
1092.331, 142.2082
1092.813, 140.5367
1093.295, 139.8780
1093.777, 141.8330
1094.259, 144.7016
1094.741, 144.9146
1095.223, 143.1703
1095.705, 142.0286
1096.188, 143.0833
1096.670, 143.9394
1097.152, 144.0869
1097.634, 144.0272
1098.116, 144.5032
1098.598, 145.3630
1099.080, 145.8756
1099.562, 145.9785
1100.044, 145.9336
1100.527, 145.8627
1101.009, 145.7192
1101.491, 145.2754
1101.973, 144.7761
1102.455, 145.3074
1102.937, 146.8936
1103.419, 147.3974
1103.901, 146.0233
1104.384, 144.5144
1104.866, 144.7490
1105.348, 145.5859
1105.830, 145.9079
1106.312, 145.5459
1106.794, 144.9851
1107.276, 144.0940
1107.758, 143.5291
1108.240, 143.6701
1108.723, 144.1984
1109.205, 144.8523
1109.687, 145.4565
1110.169, 145.6672
1110.651, 145.1243
1111.133, 144.6456
1111.615, 144.2417
1112.097, 143.9917
1112.579, 143.8461
1113.062, 143.9119
1113.544, 144.9044
1114.026, 146.5726
1114.508, 147.6572
1114.990, 147.1624
1115.472, 146.4472
1115.954, 145.8322
1116.436, 145.3236
1116.919, 144.8723
1117.401, 144.4988
1117.883, 144.5934
1118.365, 145.1917
1118.847, 145.8991
1119.329, 146.6725
1119.811, 147.2385
1120.293, 147.4662
1120.776, 147.3247
1121.258, 146.4415
1121.740, 144.6306
1122.222, 144.1142
1122.704, 145.6493
1123.186, 147.2907
1123.668, 146.8734
1124.150, 145.6231
1124.632, 144.7999
1125.115, 144.5992
1125.597, 144.3586
1126.079, 144.0274
1126.561, 143.8036
1127.043, 143.7942
1127.525, 143.8852
1128.007, 143.5995
1128.489, 143.3709
1128.971, 144.1768
1129.454, 147.3278
1129.936, 148.3360
1130.418, 145.6545
1130.900, 143.1119
1131.382, 143.3673
1131.864, 145.3762
1132.346, 146.1841
1132.828, 145.9645
1133.311, 145.2905
1133.793, 143.0432
1134.275, 142.2941
1134.757, 145.0009
1135.239, 148.0044
1135.721, 147.9416
1136.203, 145.2689
1136.685, 143.9174
1137.167, 143.9154
1137.650, 144.3365
1138.132, 145.0530
1138.614, 145.5793
1139.096, 145.2807
1139.578, 144.8315
1140.060, 145.6631
1140.542, 147.8394
1141.024, 148.1568
1141.506, 146.1834
1141.989, 144.2924
1142.471, 144.9159
1142.953, 145.8684
1143.435, 145.0337
1143.917, 142.9590
1144.399, 142.7388
1144.881, 144.7259
1145.363, 146.2005
1145.846, 146.5329
1146.328, 146.2582
1146.810, 145.5988
1147.292, 144.8632
1147.774, 144.2867
1148.256, 143.9074
1148.738, 144.1632
1149.220, 145.3203
1149.703, 146.1132
1150.185, 145.9551
1150.667, 145.5037
1151.149, 145.8725
1151.631, 146.5648
1152.113, 146.6941
1152.595, 145.7404
1153.077, 145.5366
1153.559, 146.5686
1154.042, 147.4473
1154.524, 147.3377
1155.006, 146.6798
1155.488, 146.5698
1155.970, 146.6980
1156.452, 146.2801
1156.934, 144.3657
1157.416, 143.1993
1157.898, 143.1886
1158.381, 143.6700
1158.863, 144.3600
1159.345, 145.1225
1159.827, 145.3176
1160.309, 145.0569
1160.791, 144.7882
1161.273, 144.3107
1161.755, 144.4305
1162.238, 145.7297
1162.720, 147.2461
1163.202, 147.8460
1163.684, 147.7046
1164.166, 148.4465
1164.648, 149.9204
1165.130, 150.0149
1165.612, 145.3434
1166.094, 141.5709
1166.577, 141.7816
1167.059, 143.8693
1167.541, 144.4828
1168.023, 143.8188
1168.505, 144.6884
1168.987, 147.3981
1169.469, 149.4637
1169.951, 148.4358
1170.433, 146.9473
1170.916, 146.4906
1171.398, 146.8044
1171.880, 147.5204
1172.362, 148.6250
1172.844, 148.5384
1173.326, 146.8270
1173.808, 144.9780
1174.290, 143.6401
1174.773, 143.1635
1175.255, 144.5801
1175.737, 147.2702
1176.219, 147.7171
1176.701, 145.7785
1177.183, 144.7490
1177.665, 145.7041
1178.147, 147.1607
1178.630, 148.0199
1179.112, 148.4574
1179.594, 148.4712
1180.076, 148.0842
1180.558, 148.5015
1181.040, 149.9253
1181.522, 150.0336
1182.004, 147.2490
1182.486, 144.2879
1182.969, 144.3787
1183.451, 145.8240
1183.933, 146.4603
1184.415, 145.7925
1184.897, 146.3796
1185.379, 148.4959
1185.861, 150.1286
1186.343, 150.0318
1186.825, 149.2134
1187.308, 148.6349
1187.790, 148.2287
1188.272, 147.9604
1188.754, 148.0943
1189.236, 147.2702
1189.718, 145.1746
1190.200, 143.7855
1190.682, 145.2012
1191.165, 147.3707
1191.647, 147.6795
1192.129, 146.7236
1192.611, 145.6138
1193.093, 143.8035
1193.575, 143.7737
1194.057, 145.9495
1194.539, 148.3149
1195.021, 149.5694
1195.504, 149.8923
1195.986, 148.9774
1196.468, 147.3434
1196.950, 146.5414
1197.432, 147.5063
1197.914, 147.6113
1198.396, 146.4158
1198.878, 145.3744
1199.360, 146.1354
1199.843, 147.7475
1200.325, 149.2175
1200.807, 150.3505
1201.289, 150.4537
1201.771, 148.5783
1202.253, 147.7800
1202.735, 148.7481
1203.217, 149.7127
1203.700, 147.7132
1204.182, 145.0630
1204.664, 145.7155
1205.146, 149.2827
1205.628, 151.4889
1206.110, 151.1355
1206.592, 150.6710
1207.074, 150.4912
1207.557, 150.2503
1208.039, 149.2901
1208.521, 148.1142
1209.003, 147.5299
1209.485, 147.5593
1209.967, 147.3640
1210.449, 146.5089
1210.931, 146.2849
1211.413, 147.1819
1211.896, 148.2100
1212.378, 148.0370
1212.860, 147.1489
1213.342, 145.9201
1213.824, 144.4049
1214.306, 144.2932
1214.788, 146.4922
1215.270, 147.8534
1215.752, 147.3403
1216.235, 146.1776
1216.717, 146.1747
1217.199, 146.6312
1217.681, 146.3220
1218.163, 144.9824
1218.645, 144.7510
1219.127, 146.2123
1219.609, 147.3602
1220.092, 147.4944
1220.574, 147.1881
1221.056, 147.3558
1221.538, 147.6101
1222.020, 147.2353
1222.502, 145.9697
1222.984, 145.4843
1223.466, 145.9713
1223.948, 146.8386
1224.431, 148.0667
1224.913, 149.1634
1225.395, 149.3860
1225.877, 149.0286
1226.359, 148.3548
1226.841, 147.2246
1227.323, 146.9777
1227.805, 147.8249
1228.287, 148.7795
1228.770, 149.6615
1229.252, 150.0202
1229.734, 148.4504
1230.216, 146.3584
1230.698, 145.8755
1231.180, 147.8034
1231.662, 148.5269
1232.144, 147.7866
1232.627, 147.4539
1233.109, 148.9186
1233.591, 150.2944
1234.073, 148.4964
1234.555, 145.6378
1235.037, 144.7557
1235.519, 146.5051
1236.001, 147.7322
1236.484, 148.3871
1236.966, 148.9724
1237.448, 150.2387
1237.930, 150.7599
1238.412, 147.6326
1238.894, 143.6185
1239.376, 142.8183
1239.858, 145.8061
1240.340, 148.3837
1240.823, 150.5435
1241.305, 151.4705
1241.787, 150.0372
1242.269, 148.1414
1242.751, 146.9253
1243.233, 146.4967
1243.715, 147.2247
1244.197, 149.3240
1244.679, 149.8338
1245.162, 148.7882
1245.644, 147.6404
1246.126, 147.0377
1246.608, 146.7680
1247.090, 147.2597
1247.572, 147.5932
1248.054, 146.5583
1248.536, 144.0555
1249.019, 142.7651
1249.501, 142.6567
1249.983, 143.4027
1250.465, 145.8740
1250.947, 147.8364
1251.429, 147.5981
1251.911, 146.7068
1252.393, 146.5548
1252.875, 147.1014
1253.358, 147.6045
1253.840, 148.0978
1254.322, 148.8298
1254.804, 150.6947
1255.286, 151.7999
1255.768, 151.0273
1256.250, 149.7328
1256.732, 148.8847
1257.214, 148.4769
1257.697, 148.6512
1258.179, 149.2764
1258.661, 149.7431
1259.143, 149.9848
1259.625, 149.6566
1260.107, 148.1672
1260.589, 146.9899
1261.071, 147.7231
1261.554, 149.6955
1262.036, 151.1290
1262.518, 151.9131
1263.000, 151.7967
1263.482, 149.5481
1263.964, 148.1618
1264.446, 148.0882
1264.928, 148.4093
1265.411, 148.3598
1265.893, 148.1770
1266.375, 148.5546
1266.857, 149.1749
1267.339, 149.1453
1267.821, 147.1478
1268.303, 146.6687
1268.785, 148.1186
1269.267, 149.8205
1269.750, 150.4840
1270.232, 150.5940
1270.714, 150.8892
1271.196, 151.1134
1271.678, 150.5120
1272.160, 148.4451
1272.642, 147.5495
1273.124, 147.9704
1273.606, 148.8712
1274.089, 150.0296
1274.571, 151.0256
1275.053, 151.6793
1275.535, 151.7852
1276.017, 150.8327
1276.499, 148.4424
1276.981, 147.8767
1277.463, 149.1747
1277.946, 150.5970
1278.428, 150.9163
1278.910, 151.1046
1279.392, 152.1019
1279.874, 153.0469
1280.356, 152.7161
1280.838, 151.1638
1281.320, 150.7599
1281.802, 151.3934
1282.285, 151.7838
1282.767, 151.1945
1283.249, 150.2484
1283.731, 148.4217
1284.213, 147.1434
1284.695, 148.3297
1285.177, 151.2045
1285.659, 152.0695
1286.141, 151.1777
1286.624, 149.6864
1287.106, 146.0461
1287.588, 145.3136
1288.070, 149.3965
1288.552, 153.5206
1289.034, 153.1741
1289.516, 150.2493
1289.998, 148.4268
1290.481, 147.6606
1290.963, 147.7871
1291.445, 149.8886
1291.927, 150.8291
1292.409, 150.4244
1292.891, 149.5399
1293.373, 148.5248
1293.855, 147.6047
1294.338, 147.0075
1294.820, 146.7330
1295.302, 146.7940
1295.784, 147.0866
1296.266, 148.2274
1296.748, 150.3004
1297.230, 151.6946
1297.712, 150.6935
1298.194, 149.4884
1298.677, 150.3111
1299.159, 151.5652
1299.641, 151.1363
1300.123, 148.9555
1300.605, 147.7815
1301.087, 147.5706
1301.569, 147.9779
1302.051, 149.3400
1302.533, 150.4329
1303.016, 150.8349
##END=



