##NAMES=Fettelite
##RRUFFID=R110042
##IDEAL CHEMISTRY=Ag_16_HgAs_4_S_15_
##LOCALITY=Nieder-Beerbach mine near Darmstadt, Odenwald, Germany
##OWNER=RRUFF
##SOURCE=Institute of Mineralogy, University of Heidelberg
##DESCRIPTION=Red hexagonal plates, type-sample. New data are reported in Bindi et al (2012)
##STATUS=The identification of this mineral is confirmed by single-crystal X-ray diffraction and chemical analysis.
##URL=rruff.info/R110042
##MEASURED CHEMISTRY=Ag_16.08_Cu_0.13_Fe_0.01_Hg_0.71_As_3.80_S_15.28_
169.2243, 387.2845
169.7064, 387.1111
170.1885, 389.0277
170.6707, 391.0924
171.1528, 391.9934
171.6349, 391.9030
172.1170, 391.6336
172.5991, 392.0094
173.0812, 393.0966
173.5634, 393.4014
174.0455, 391.5492
174.5276, 389.9112
175.0097, 389.7422
175.4918, 390.8947
175.9739, 392.2722
176.4561, 392.6250
176.9382, 391.5769
177.4203, 390.7637
177.9024, 390.1512
178.3845, 389.7628
178.8666, 389.6507
179.3488, 389.8036
179.8309, 390.1563
180.3130, 390.6444
180.7951, 391.4087
181.2772, 391.9737
181.7593, 392.4883
182.2415, 392.7461
182.7236, 392.5504
183.2057, 391.8706
183.6878, 390.8564
184.1699, 389.6750
184.6520, 387.8937
185.1342, 386.9297
185.6163, 387.3438
186.0984, 388.3677
186.5805, 389.3034
187.0626, 389.9644
187.5447, 390.3044
188.0269, 390.1483
188.5090, 389.4247
188.9911, 388.6364
189.4732, 387.4020
189.9553, 386.2453
190.4374, 386.3529
190.9196, 388.4675
191.4017, 391.0561
191.8838, 391.8706
192.3659, 390.9098
192.8480, 389.5197
193.3301, 387.8639
193.8123, 386.1623
194.2944, 385.3638
194.7765, 386.3283
195.2586, 387.5150
195.7407, 387.2174
196.2228, 385.4134
196.7050, 383.4425
197.1871, 382.1216
197.6692, 381.4443
198.1513, 381.3036
198.6334, 382.3832
199.1155, 383.4043
199.5977, 383.3410
200.0798, 382.1858
200.5619, 380.9046
201.0440, 380.5532
201.5261, 381.3224
202.0082, 381.7456
202.4904, 381.5849
202.9725, 381.0585
203.4546, 379.9417
203.9367, 378.3451
204.4188, 376.9318
204.9009, 376.7145
205.3831, 378.3116
205.8652, 379.1935
206.3473, 378.7218
206.8294, 377.9918
207.3115, 377.5948
207.7936, 377.6372
208.2758, 377.8755
208.7579, 378.0222
209.2400, 378.2487
209.7221, 377.9398
210.2042, 376.0861
210.6863, 374.4785
211.1685, 374.5123
211.6506, 376.3747
212.1327, 379.1057
212.6148, 381.4667
213.0969, 384.0459
213.5790, 384.6061
214.0612, 381.5895
214.5433, 377.6839
215.0254, 374.9720
215.5075, 373.9572
215.9896, 373.7133
216.4717, 372.8783
216.9539, 370.7121
217.4360, 369.9043
217.9181, 371.9818
218.4002, 374.6979
218.8823, 375.6442
219.3644, 374.2259
219.8466, 371.9938
220.3287, 371.0735
220.8108, 371.7175
221.2929, 372.1629
221.7750, 372.0801
222.2571, 371.7152
222.7393, 371.3369
223.2214, 370.9910
223.7035, 370.6953
224.1856, 370.4111
224.6677, 370.1316
225.1498, 370.1621
225.6320, 370.8507
226.1141, 371.8340
226.5962, 372.5320
227.0783, 372.8430
227.5604, 372.8894
228.0425, 372.9144
228.5247, 372.8628
229.0068, 372.2695
229.4889, 370.2955
229.9710, 367.7135
230.4531, 366.4113
230.9352, 367.0713
231.4174, 367.9874
231.8995, 367.7370
232.3816, 366.6745
232.8637, 365.7400
233.3458, 365.5640
233.8279, 365.8829
234.3101, 365.7845
234.7922, 364.9875
235.2743, 364.2112
235.7564, 363.5509
236.2385, 363.1906
236.7206, 363.6113
237.2028, 365.8428
237.6849, 369.1228
238.1670, 369.9597
238.6491, 366.4716
239.1312, 363.2701
239.6133, 362.4631
240.0955, 363.1577
240.5776, 363.8553
241.0597, 363.7451
241.5418, 362.9219
242.0239, 361.7355
242.5060, 359.3024
242.9882, 357.7910
243.4703, 358.5469
243.9524, 360.3799
244.4345, 361.5267
244.9166, 360.8887
245.3987, 358.8881
245.8809, 357.5999
246.3630, 358.3844
246.8451, 358.0643
247.3272, 354.9188
247.8093, 350.6517
248.2914, 347.4898
248.7736, 346.6690
249.2557, 347.6865
249.7378, 348.5348
250.2199, 349.5481
250.7020, 349.9029
251.1841, 348.8370
251.6663, 347.2895
252.1484, 346.4486
252.6305, 346.8961
253.1126, 348.1779
253.5947, 348.8756
254.0768, 348.6639
254.5590, 348.1651
255.0411, 347.2211
255.5232, 346.0935
256.0053, 345.0356
256.4874, 344.1591
256.9695, 343.4279
257.4517, 342.7590
257.9338, 342.6841
258.4159, 341.9819
258.8980, 340.1174
259.3801, 337.8473
259.8622, 335.7841
260.3444, 334.1582
260.8265, 333.1173
261.3086, 332.9953
261.7907, 335.0080
262.2728, 335.9981
262.7549, 334.9922
263.2371, 333.4017
263.7192, 332.5564
264.2013, 332.8182
264.6834, 333.8454
265.1655, 335.2846
265.6476, 337.7723
266.1298, 338.9238
266.6119, 337.9707
267.0940, 336.0684
267.5761, 334.0874
268.0582, 332.2262
268.5403, 330.6304
269.0225, 329.6172
269.5046, 329.4740
269.9867, 328.3914
270.4688, 324.7079
270.9509, 321.0837
271.4330, 320.4284
271.9152, 322.9290
272.3973, 325.5736
272.8794, 325.3390
273.3615, 321.9420
273.8436, 319.4571
274.3257, 319.0219
274.8079, 318.7489
275.2900, 316.4296
275.7721, 312.1762
276.2542, 309.2103
276.7363, 310.7746
277.2184, 316.1284
277.7006, 318.2924
278.1827, 314.6576
278.6648, 309.8726
279.1469, 307.0091
279.6290, 305.9646
280.1111, 305.4195
280.5933, 304.7467
281.0754, 303.9559
281.5575, 303.0944
282.0396, 301.8455
282.5217, 300.9073
283.0038, 301.1046
283.4860, 302.1650
283.9681, 302.6322
284.4502, 301.7373
284.9323, 299.9003
285.4144, 298.0024
285.8965, 295.7525
286.3787, 294.1109
286.8608, 294.0063
287.3429, 295.0423
287.8250, 295.7707
288.3071, 295.6745
288.7892, 295.1212
289.2714, 294.6796
289.7535, 294.3806
290.2356, 293.9635
290.7177, 293.2192
291.1998, 292.2609
291.6819, 291.3689
292.1641, 290.5900
292.6462, 289.9208
293.1283, 289.3304
293.6104, 288.8159
294.0925, 288.4595
294.5746, 288.3751
295.0568, 288.4592
295.5389, 288.5095
296.0210, 288.4973
296.5031, 288.4681
296.9852, 288.6212
297.4673, 288.8263
297.9495, 288.6369
298.4316, 287.4709
298.9137, 285.9971
299.3958, 285.4358
299.8779, 286.0579
300.3600, 286.3826
300.8422, 284.8246
301.3243, 282.3777
301.8064, 280.8530
302.2885, 281.4717
302.7706, 282.3510
303.2527, 280.9105
303.7349, 276.9467
304.2170, 273.5509
304.6991, 273.0228
305.1812, 273.4969
305.6633, 272.2944
306.1454, 268.5620
306.6276, 264.4612
307.1097, 261.8554
307.5918, 260.6822
308.0739, 259.8020
308.5560, 258.9563
309.0381, 258.1933
309.5203, 257.8052
310.0024, 257.8949
310.4845, 257.3141
310.9666, 254.5683
311.4487, 250.2320
311.9308, 247.3061
312.4130, 246.9950
312.8951, 247.3830
313.3772, 246.7051
313.8593, 245.0956
314.3414, 243.3895
314.8235, 241.6029
315.3057, 240.0362
315.7878, 239.7112
316.2699, 241.2753
316.7520, 242.7261
317.2341, 242.4306
317.7162, 240.9288
318.1984, 239.2640
318.6805, 237.7353
319.1626, 236.2950
319.6447, 234.7781
320.1268, 233.1032
320.6089, 231.7682
321.0911, 231.1665
321.5732, 231.0655
322.0553, 231.2529
322.5374, 231.8790
323.0195, 232.4671
323.5016, 232.3381
323.9838, 231.4825
324.4659, 231.0398
324.9480, 232.0920
325.4301, 233.2859
325.9122, 232.7115
326.3943, 229.8899
326.8765, 227.2881
327.3586, 226.9182
327.8407, 228.4158
328.3228, 229.8654
328.8049, 231.1045
329.2870, 231.7469
329.7692, 231.0896
330.2513, 229.2730
330.7334, 227.9402
331.2155, 228.2329
331.6976, 229.5480
332.1797, 230.6132
332.6619, 231.4245
333.1440, 231.6204
333.6261, 230.4273
334.1082, 228.3562
334.5903, 226.5677
335.0724, 225.5074
335.5546, 224.8766
336.0367, 224.3013
336.5188, 223.7710
337.0009, 223.4008
337.4830, 223.1047
337.9651, 223.0944
338.4473, 223.8498
338.9294, 226.0255
339.4115, 228.0239
339.8936, 228.2912
340.3757, 227.0565
340.8578, 226.0574
341.3400, 226.0628
341.8221, 226.4794
342.3042, 226.3589
342.7863, 225.6174
343.2684, 224.8545
343.7505, 224.0573
344.2327, 223.4634
344.7148, 223.9541
345.1969, 226.1402
345.6790, 228.2912
346.1611, 227.7698
346.6432, 225.0461
347.1254, 223.1845
347.6075, 223.5849
348.0896, 224.9783
348.5717, 225.8540
349.0538, 226.0786
349.5359, 226.1515
350.0181, 226.5248
350.5002, 227.0461
350.9823, 227.0887
351.4644, 226.1100
351.9465, 225.0792
352.4286, 224.6053
352.9108, 224.6367
353.3929, 224.8919
353.8750, 225.1854
354.3571, 225.6874
354.8392, 226.9163
355.3214, 229.3925
355.8035, 231.3407
356.2856, 231.4243
356.7677, 230.6745
357.2498, 231.1204
357.7319, 233.4668
358.2141, 236.4084
358.6962, 238.0815
359.1783, 238.2210
359.6604, 238.8131
360.1425, 240.6589
360.6246, 242.7033
361.1068, 243.6468
361.5889, 243.4853
362.0710, 243.6362
362.5531, 245.3138
363.0352, 248.5508
363.5173, 251.8351
363.9995, 255.7293
364.4816, 259.1370
364.9637, 260.8948
365.4458, 261.6953
365.9279, 263.4671
366.4100, 267.3600
366.8922, 272.5455
367.3743, 276.2426
367.8564, 277.4327
368.3385, 278.6991
368.8206, 279.9868
369.3027, 281.6797
369.7849, 284.5752
370.2670, 288.8068
370.7491, 293.1580
371.2312, 295.7582
371.7133, 295.3647
372.1954, 297.0920
372.6776, 302.7194
373.1597, 308.7906
373.6418, 313.6905
374.1239, 317.1336
374.6060, 319.0999
375.0881, 319.3857
375.5703, 318.0676
376.0524, 317.8799
376.5345, 320.9711
377.0166, 322.7242
377.4987, 321.8630
377.9808, 319.0741
378.4630, 315.3068
378.9451, 310.9939
379.4272, 306.1934
379.9093, 301.1259
380.3914, 296.5157
380.8735, 290.2132
381.3557, 280.2078
381.8378, 270.0399
382.3199, 262.3495
382.8020, 257.4194
383.2841, 253.8033
383.7662, 250.0461
384.2484, 246.1463
384.7305, 242.0036
385.2126, 237.1178
385.6947, 232.4462
386.1768, 228.1184
386.6589, 224.2528
387.1411, 221.0471
387.6232, 218.6810
388.1053, 216.9356
388.5874, 215.0050
389.0695, 212.5639
389.5516, 210.5829
390.0338, 209.5218
390.5159, 208.8090
390.9980, 208.0885
391.4801, 207.2460
391.9622, 205.9942
392.4443, 203.5763
392.9265, 199.7541
393.4086, 197.1412
393.8907, 197.0128
394.3728, 197.3380
394.8549, 197.2299
395.3370, 196.6077
395.8192, 195.4084
396.3013, 192.7437
396.7834, 189.4877
397.2655, 188.9641
397.7476, 192.3092
398.2297, 195.4341
398.7119, 195.9986
399.1940, 195.1208
399.6761, 194.0575
400.1582, 193.0762
400.6403, 192.0942
401.1224, 190.8731
401.6046, 189.4429
402.0867, 188.5010
402.5688, 188.3646
403.0509, 188.7113
403.5330, 189.2180
404.0151, 189.8933
404.4973, 190.4021
404.9794, 190.6255
405.4615, 190.5797
405.9436, 190.1993
406.4257, 189.4370
406.9078, 188.6897
407.3900, 188.3405
407.8721, 188.3056
408.3542, 188.1064
408.8363, 187.6932
409.3184, 187.1258
409.8005, 186.0644
410.2827, 184.7995
410.7648, 184.5581
411.2469, 186.1671
411.7290, 188.5321
412.2111, 189.0179
412.6932, 186.9586
413.1754, 185.0351
413.6575, 183.4259
414.1396, 182.3180
414.6217, 182.0457
415.1038, 182.6158
415.5859, 183.5496
416.0681, 184.4379
416.5502, 185.3024
417.0323, 185.7857
417.5144, 185.5552
417.9965, 185.3552
418.4786, 185.7268
418.9608, 186.3243
419.4429, 186.4165
419.9250, 185.6094
420.4071, 184.2184
420.8892, 183.1486
421.3713, 183.2059
421.8535, 182.3174
422.3356, 179.4636
422.8177, 176.3755
423.2998, 174.0456
423.7819, 172.7904
424.2640, 172.8704
424.7462, 174.9365
425.2283, 179.2398
425.7104, 181.8862
426.1925, 181.2589
426.6746, 180.6274
427.1567, 181.1453
427.6389, 182.2206
428.1210, 182.8460
428.6031, 182.5092
429.0852, 181.6145
429.5673, 180.8886
430.0494, 180.2656
430.5316, 180.0402
431.0137, 180.6833
431.4958, 181.4908
431.9779, 182.4101
432.4600, 183.2907
432.9421, 183.1749
433.4243, 180.1331
433.9064, 175.2323
434.3885, 173.5083
434.8706, 176.4216
435.3527, 179.6379
435.8348, 180.0171
436.3170, 178.8753
436.7991, 178.4276
437.2812, 179.7614
437.7633, 181.1756
438.2454, 180.6695
438.7275, 178.5775
439.2097, 177.3460
439.6918, 178.1148
440.1739, 179.6627
440.6560, 180.0314
441.1381, 179.1260
441.6202, 178.6071
442.1024, 179.5795
442.5845, 180.8240
443.0666, 180.8204
443.5487, 179.4834
444.0308, 177.8500
444.5129, 176.6287
444.9951, 175.8029
445.4772, 175.1060
445.9593, 174.0831
446.4414, 173.6882
446.9235, 174.9894
447.4056, 176.8775
447.8878, 177.4344
448.3699, 176.0386
448.8520, 174.0719
449.3341, 173.7099
449.8162, 175.7637
450.2983, 177.1672
450.7805, 177.7103
451.2626, 177.9044
451.7447, 177.9292
452.2268, 177.8305
452.7089, 177.6073
453.1910, 177.2413
453.6732, 176.7875
454.1553, 176.4813
454.6374, 176.3693
455.1195, 176.3373
455.6016, 176.4077
456.0837, 176.5109
456.5659, 176.6727
457.0480, 176.8645
457.5301, 176.8627
458.0122, 176.0000
458.4943, 174.3177
458.9764, 174.4085
459.4586, 177.9149
459.9407, 180.8350
460.4228, 180.7007
460.9049, 178.6938
461.3870, 176.8569
461.8691, 175.8596
462.3513, 175.3884
462.8334, 175.2463
463.3155, 175.4140
463.7976, 175.3825
464.2797, 175.0063
464.7618, 174.3381
465.2440, 173.1551
465.7261, 171.4077
466.2082, 170.5637
466.6903, 171.7538
467.1724, 173.7645
467.6545, 175.3292
468.1367, 176.3135
468.6188, 176.6010
469.1009, 175.9036
469.5830, 174.4928
470.0651, 173.7354
470.5472, 174.3898
471.0294, 174.6522
471.5115, 173.6866
471.9936, 172.2366
472.4757, 171.0869
472.9578, 170.4830
473.4399, 170.5493
473.9221, 171.6100
474.4042, 174.0601
474.8863, 175.1625
475.3684, 174.0209
475.8505, 172.6632
476.3326, 171.4902
476.8148, 170.6836
477.2969, 170.5020
477.7790, 171.0852
478.2611, 172.1166
478.7432, 173.1080
479.2253, 174.4877
479.7075, 174.5757
480.1896, 171.0095
480.6717, 167.9092
481.1538, 168.2573
481.6359, 171.4316
482.1180, 174.1716
482.6002, 173.9055
483.0823, 171.7289
483.5644, 170.9314
484.0465, 172.0099
484.5286, 172.6333
485.0107, 171.0193
485.4929, 168.7908
485.9750, 167.8911
486.4571, 168.6634
486.9392, 170.0169
487.4213, 171.9745
487.9034, 173.9444
488.3856, 174.3870
488.8677, 172.9312
489.3498, 170.9825
489.8319, 169.6222
490.3140, 168.8560
490.7961, 168.2692
491.2783, 167.8469
491.7604, 167.6117
492.2425, 167.7784
492.7246, 168.1010
493.2067, 168.0291
493.6888, 167.3691
494.1710, 166.5956
494.6531, 166.4707
495.1352, 167.2617
495.6173, 167.8810
496.0994, 168.7179
496.5815, 169.0396
497.0637, 167.9023
497.5458, 166.0090
498.0279, 164.8890
498.5100, 165.4523
498.9921, 167.0505
499.4742, 168.1355
499.9564, 168.7503
500.4385, 168.7054
500.9206, 166.9168
501.4027, 165.2999
501.8848, 165.4115
502.3669, 167.0063
502.8491, 168.3365
503.3312, 167.8109
503.8133, 166.2425
504.2954, 166.0291
504.7775, 167.5010
505.2596, 168.7651
505.7418, 168.8138
506.2239, 168.2108
506.7060, 167.7066
507.1881, 167.2880
507.6702, 167.1891
508.1523, 168.0556
508.6345, 169.1477
509.1166, 169.0087
509.5987, 167.4185
510.0808, 165.6948
510.5629, 164.8776
511.0450, 164.9134
511.5272, 165.0011
512.0093, 165.6248
512.4914, 165.7241
512.9735, 164.3252
513.4556, 162.4954
513.9377, 161.6937
514.4199, 162.2842
514.9020, 163.5049
515.3841, 164.4757
515.8662, 165.2243
516.3483, 165.5287
516.8304, 164.8028
517.3126, 164.2478
517.7947, 164.3427
518.2768, 164.7768
518.7589, 165.1321
519.2410, 165.2524
519.7231, 165.1076
520.2053, 164.6560
520.6874, 163.8967
521.1695, 162.7496
521.6516, 160.5591
522.1337, 158.8315
522.6158, 158.7580
523.0980, 159.9122
523.5801, 161.0922
524.0622, 161.9298
524.5443, 162.5584
525.0264, 163.2307
525.5085, 163.8719
525.9907, 163.9134
526.4728, 163.0076
526.9549, 161.7502
527.4370, 160.9442
527.9191, 160.5614
528.4012, 160.7129
528.8834, 162.2838
529.3655, 163.6462
529.8476, 163.3933
530.3297, 161.9386
530.8118, 160.5844
531.2939, 160.0169
531.7761, 160.0553
532.2582, 160.2951
532.7403, 161.1337
533.2224, 161.4126
533.7045, 160.3128
534.1866, 159.4155
534.6688, 160.1887
535.1509, 162.0664
535.6330, 163.1158
536.1151, 161.8170
536.5972, 159.1801
537.0793, 157.9539
537.5615, 158.4329
538.0436, 159.1519
538.5257, 160.0291
539.0078, 160.7153
539.4899, 160.7505
539.9720, 160.1722
540.4542, 159.7917
540.9363, 160.3397
541.4184, 161.1530
541.9005, 161.1809
542.3826, 160.4271
542.8647, 159.6929
543.3469, 159.4045
543.8290, 159.3886
544.3111, 159.1894
544.7932, 158.7052
545.2753, 158.3049
545.7574, 157.8835
546.2396, 157.6743
546.7217, 158.4173
547.2038, 159.7217
547.6859, 159.8637
548.1680, 157.4364
548.6501, 153.2652
549.1323, 151.0292
549.6144, 151.4700
550.0965, 152.6949
550.5786, 155.5105
551.0607, 158.1457
551.5428, 159.1924
552.0250, 158.6880
552.5071, 157.6949
552.9892, 156.7477
553.4713, 155.9614
553.9534, 155.7004
554.4355, 156.0283
554.9177, 156.5715
555.3998, 157.1892
555.8819, 157.9595
556.3640, 159.2412
556.8461, 161.2159
557.3282, 162.2097
557.8104, 160.9615
558.2925, 158.7523
558.7746, 156.7276
559.2567, 155.0861
559.7388, 154.4949
560.2209, 155.5667
560.7031, 157.6284
561.1852, 158.5313
561.6673, 157.0249
562.1494, 156.0990
562.6315, 155.9972
563.1136, 156.3265
563.5958, 157.2130
564.0779, 158.3302
564.5600, 158.7127
565.0421, 157.5177
565.5242, 155.3755
566.0063, 154.6027
566.4885, 155.9413
566.9706, 156.4864
567.4527, 154.3601
567.9348, 152.1076
568.4169, 151.6093
568.8990, 152.7754
569.3812, 154.1367
569.8633, 155.5850
570.3454, 156.4333
570.8275, 154.8982
571.3096, 151.2194
571.7917, 148.9133
572.2739, 149.6471
572.7560, 152.2216
573.2381, 154.8101
573.7202, 157.8172
574.2023, 159.3408
574.6844, 157.9809
575.1666, 156.1530
575.6487, 155.8100
576.1308, 156.4019
576.6129, 155.9488
577.0950, 153.3427
577.5771, 149.9640
578.0593, 149.1047
578.5414, 152.1168
579.0235, 153.9503
579.5056, 153.8641
579.9877, 152.9922
580.4698, 150.9999
580.9520, 148.6497
581.4341, 147.6347
581.9162, 149.1371
582.3983, 151.4033
582.8804, 152.0220
583.3625, 151.1414
583.8447, 150.3263
584.3268, 149.9750
584.8089, 149.6942
585.2910, 148.8901
585.7731, 147.6692
586.2552, 147.1855
586.7374, 147.9394
587.2195, 149.0351
587.7016, 150.3592
588.1837, 151.6180
588.6658, 152.3150
589.1479, 152.3075
589.6301, 151.8126
590.1122, 150.9729
590.5943, 149.6692
591.0764, 149.2018
591.5585, 150.8750
592.0406, 151.8550
592.5228, 150.6418
593.0049, 148.7745
593.4870, 148.3313
593.9691, 149.7991
594.4512, 151.3130
594.9333, 150.8808
595.4155, 148.9586
595.8976, 147.4729
596.3797, 146.5096
596.8618, 146.0835
597.3439, 146.3502
597.8260, 147.1393
598.3082, 148.0460
598.7903, 149.3470
599.2724, 150.0715
599.7545, 149.5539
600.2366, 148.5259
600.7188, 147.3486
601.2009, 146.3125
601.6830, 146.4797
602.1651, 148.7746
602.6472, 152.3109
603.1293, 153.6892
603.6115, 151.2871
604.0936, 149.6883
604.5757, 149.6920
605.0578, 150.0708
605.5399, 150.2231
606.0220, 150.0941
606.5042, 149.7485
606.9863, 149.0766
607.4684, 148.4297
607.9505, 148.5233
608.4326, 149.3340
608.9147, 149.8369
609.3969, 149.5745
609.8790, 149.2812
610.3611, 150.0094
610.8432, 151.6392
611.3253, 152.5296
611.8074, 151.6406
612.2896, 150.8801
612.7717, 151.8401
613.2538, 153.4424
613.7359, 153.6508
614.2180, 151.9270
614.7001, 149.5920
615.1823, 148.1582
615.6644, 147.6585
616.1465, 147.3775
616.6286, 147.4329
617.1107, 147.5568
617.5928, 147.6331
618.0750, 147.7641
618.5571, 148.1975
619.0392, 148.9474
619.5213, 149.4121
620.0034, 148.8178
620.4855, 147.6920
620.9677, 147.3742
621.4498, 147.9524
621.9319, 148.2476
622.4140, 147.5692
622.8961, 146.3765
623.3782, 145.6534
623.8604, 145.5437
624.3425, 145.3832
624.8246, 144.9533
625.3067, 144.5801
625.7888, 144.4095
626.2709, 144.4836
626.7531, 145.0148
627.2352, 146.1258
627.7173, 147.1821
628.1994, 146.6897
628.6815, 144.1111
629.1636, 143.0613
629.6458, 145.2652
630.1279, 147.0293
630.6100, 145.8743
631.0921, 143.2357
631.5742, 141.7437
632.0563, 142.3569
632.5385, 143.2638
633.0206, 143.1376
633.5027, 142.3869
633.9848, 141.6313
634.4669, 140.9854
634.9490, 140.9726
635.4312, 142.1304
635.9133, 144.1307
636.3954, 145.4263
636.8775, 145.5195
637.3596, 145.5300
637.8417, 145.7320
638.3239, 145.6642
638.8060, 144.8315
639.2881, 143.4075
639.7702, 141.9083
640.2523, 140.5102
640.7344, 139.5488
641.2166, 139.8945
641.6987, 141.6115
642.1808, 143.3195
642.6629, 145.2220
643.1450, 146.2913
643.6271, 144.5984
644.1093, 141.0827
644.5914, 139.3290
645.0735, 141.7014
645.5556, 143.7865
646.0377, 142.7795
646.5198, 140.5397
647.0020, 139.8865
647.4841, 141.2422
647.9662, 143.0403
648.4483, 143.9878
648.9304, 144.0953
649.4125, 143.2592
649.8947, 140.1716
650.3768, 138.6500
650.8589, 141.2965
651.3410, 144.1071
651.8231, 143.8112
652.3052, 140.8398
652.7874, 138.3864
653.2695, 138.3094
653.7516, 139.2867
654.2337, 139.7698
654.7158, 139.8872
655.1979, 140.3241
655.6801, 141.3408
656.1622, 142.3697
656.6443, 142.9195
657.1264, 143.0216
657.6085, 141.9227
658.0906, 137.4480
658.5728, 134.6568
659.0549, 136.0759
659.5370, 138.9484
660.0191, 140.4868
660.5012, 140.2658
660.9833, 139.4638
661.4655, 138.7984
661.9476, 138.4244
662.4297, 139.2540
662.9118, 141.5956
663.3939, 142.5485
663.8760, 140.3535
664.3582, 137.4388
664.8403, 137.0333
665.3224, 138.8989
665.8045, 139.9901
666.2866, 139.1424
666.7687, 138.1199
667.2509, 137.9557
667.7330, 138.2565
668.2151, 138.3059
668.6972, 137.9333
669.1793, 137.5111
669.6614, 137.4101
670.1436, 137.6205
670.6257, 138.0456
671.1078, 138.9917
671.5899, 139.5209
672.0720, 139.0978
672.5541, 138.3463
673.0363, 137.4774
673.5184, 136.6053
674.0005, 136.4279
674.4826, 138.1499
674.9647, 139.9720
675.4468, 139.7907
675.9290, 138.2003
676.4111, 136.9494
676.8932, 136.5768
677.3753, 136.8631
677.8574, 137.6542
678.3395, 138.9854
678.8217, 139.9143
679.3038, 140.2791
679.7859, 140.4237
680.2680, 140.6756
680.7501, 140.5518
681.2322, 139.1933
681.7144, 136.7994
682.1965, 134.9462
682.6786, 134.9216
683.1607, 135.8974
683.6428, 136.8356
684.1249, 137.6640
684.6071, 137.4419
685.0892, 135.5483
685.5713, 133.8199
686.0534, 134.7148
686.5355, 138.4903
687.0176, 140.0992
687.4998, 137.5741
687.9819, 135.5615
688.4640, 135.7789
688.9461, 136.7187
689.4282, 136.7218
689.9103, 135.6853
690.3925, 134.7435
690.8746, 134.8120
691.3567, 135.5172
691.8388, 136.1456
692.3209, 136.7205
692.8030, 136.5101
693.2852, 134.9284
693.7673, 133.2440
694.2494, 132.9367
694.7315, 133.8960
695.2136, 134.2735
695.6957, 133.5963
696.1779, 132.8214
696.6600, 131.8321
697.1421, 131.1751
697.6242, 132.0660
698.1063, 134.1821
698.5884, 135.2710
699.0706, 133.2954
699.5527, 129.6293
700.0348, 128.3313
700.5169, 129.7520
700.9990, 131.3892
701.4811, 133.0470
701.9633, 134.3949
702.4454, 135.0774
702.9275, 135.2155
703.4096, 135.1541
703.8917, 134.5826
704.3738, 134.3067
704.8560, 135.1460
705.3381, 136.1853
705.8202, 136.0859
706.3023, 134.9323
706.7844, 134.0835
707.2665, 134.5533
707.7487, 135.6751
708.2308, 135.5401
708.7129, 133.8622
709.1950, 132.1944
709.6771, 130.1885
710.1592, 128.9455
710.6414, 129.6757
711.1235, 131.5638
711.6056, 132.9139
712.0877, 133.4124
712.5698, 133.4384
713.0519, 132.5549
713.5341, 131.6712
714.0162, 132.1469
714.4983, 133.7815
714.9804, 135.3422
715.4625, 136.1743
715.9446, 136.1966
716.4268, 134.8106
716.9089, 131.1916
717.3910, 130.0125
717.8731, 133.5410
718.3552, 136.5743
718.8373, 136.0652
719.3195, 133.8512
719.8016, 132.4912
720.2837, 132.4083
720.7658, 132.8073
721.2479, 133.7237
721.7300, 134.6353
722.2122, 135.0381
722.6943, 134.9232
723.1764, 134.3206
723.6585, 133.2357
724.1406, 131.9974
724.6227, 131.0259
725.1049, 130.2590
725.5870, 130.3649
726.0691, 132.0132
726.5512, 133.4481
727.0333, 134.2054
727.5154, 134.3895
727.9976, 133.9458
728.4797, 132.8918
728.9618, 131.7534
729.4439, 130.1671
729.9260, 129.0958
730.4081, 130.2556
730.8903, 132.5275
731.3724, 132.7455
731.8545, 130.1352
732.3366, 127.6449
732.8187, 128.6761
733.3008, 132.7941
733.7830, 134.6634
734.2651, 133.3510
734.7472, 131.7987
735.2293, 129.9230
735.7114, 128.6319
736.1935, 129.0054
736.6757, 130.6571
737.1578, 131.8180
737.6399, 131.8437
738.1220, 131.3651
738.6041, 130.4851
739.0862, 129.5022
739.5684, 128.7899
740.0505, 128.4595
740.5326, 128.7595
741.0147, 129.9758
741.4968, 131.6541
741.9789, 132.4322
742.4611, 132.2081
742.9432, 131.3956
743.4253, 129.2909
743.9074, 127.5482
744.3895, 127.5368
744.8716, 128.3987
745.3538, 128.4592
745.8359, 127.1554
746.3180, 126.0538
746.8001, 125.7556
747.2822, 126.0815
747.7643, 127.2552
748.2465, 128.9051
748.7286, 130.0691
749.2107, 130.3054
749.6928, 129.8318
750.1749, 128.6323
750.6570, 126.6014
751.1392, 126.2406
751.6213, 128.2518
752.1034, 130.3499
752.5855, 132.1380
753.0676, 133.1888
753.5497, 132.6855
754.0319, 130.5689
754.5140, 128.9792
754.9961, 128.8088
755.4782, 128.9071
755.9603, 128.4154
756.4424, 127.8097
756.9246, 128.1517
757.4067, 129.4675
757.8888, 130.3721
758.3709, 129.5441
758.8530, 127.5429
759.3351, 126.2635
759.8173, 125.7779
760.2994, 125.4010
760.7815, 124.9081
761.2636, 124.6540
761.7457, 125.0554
762.2278, 125.9822
762.7100, 126.7725
763.1921, 127.5068
763.6742, 127.9568
764.1563, 127.9249
764.6384, 127.7053
765.1205, 127.3844
765.6027, 127.0983
766.0848, 127.1643
766.5669, 127.7504
767.0490, 128.4073
767.5311, 128.5268
768.0132, 128.1859
768.4954, 127.6806
768.9775, 126.9562
769.4596, 126.8053
769.9417, 127.9310
770.4238, 129.3703
770.9059, 129.3357
771.3881, 127.2964
771.8702, 125.8856
772.3523, 125.1821
772.8344, 124.9781
773.3165, 125.7437
773.7986, 126.6551
774.2808, 126.5879
774.7629, 125.5474
775.2450, 124.8083
775.7271, 125.5297
776.2092, 126.7368
776.6913, 126.7540
777.1735, 125.9413
777.6556, 125.9271
778.1377, 127.1132
778.6198, 128.3672
779.1019, 128.6833
779.5840, 128.2777
780.0662, 128.2777
780.5483, 129.0859
781.0304, 129.5321
781.5125, 129.2807
781.9946, 128.9263
782.4767, 128.8008
782.9589, 128.7664
783.4410, 128.4487
783.9231, 127.6363
784.4052, 127.1568
784.8873, 127.8465
785.3694, 128.9147
785.8516, 129.5561
786.3337, 129.6943
786.8158, 129.2610
787.2979, 128.2356
787.7800, 126.9172
788.2621, 125.4954
788.7443, 124.0217
789.2264, 124.0828
789.7085, 126.4659
790.1906, 128.1660
790.6727, 127.8579
791.1548, 126.9635
791.6370, 127.3117
792.1191, 128.5791
792.6012, 128.3735
793.0833, 124.0560
793.5654, 121.0586
794.0475, 122.2761
794.5297, 125.2235
795.0118, 128.0227
795.4939, 130.1041
795.9760, 130.8532
796.4581, 129.8186
796.9402, 128.0621
797.4224, 127.1639
797.9045, 126.9936
798.3866, 126.6084
798.8687, 125.8659
799.3508, 125.5430
799.8329, 126.1087
800.3151, 127.2335
800.7972, 128.4744
801.2793, 130.2708
801.7614, 130.4113
802.2435, 127.3218
802.7256, 124.6717
803.2078, 123.2658
803.6899, 122.9884
804.1720, 124.2623
804.6541, 126.7300
805.1362, 128.3974
805.6183, 127.5266
806.1005, 126.1637
806.5826, 126.5112
807.0647, 127.9777
807.5468, 129.4974
808.0289, 130.7866
808.5110, 131.2386
808.9932, 130.3137
809.4753, 128.6306
809.9574, 127.9503
810.4395, 128.6503
810.9216, 128.5205
811.4037, 126.5474
811.8859, 125.2569
812.3680, 126.8897
812.8501, 129.5129
813.3322, 130.1016
813.8143, 128.1688
814.2964, 126.8932
814.7786, 127.7803
815.2607, 128.6887
815.7428, 128.0586
816.2249, 126.8167
816.7070, 126.4863
817.1891, 127.2117
817.6713, 127.8028
818.1534, 127.2332
818.6355, 126.1554
819.1176, 125.8309
819.5997, 126.1854
820.0818, 126.7847
820.5640, 127.6282
821.0461, 127.9356
821.5282, 126.9118
822.0103, 125.2245
822.4924, 125.0060
822.9745, 127.5238
823.4567, 128.6741
823.9388, 126.9890
824.4209, 125.6341
824.9030, 125.7208
825.3851, 126.7790
825.8672, 128.6488
826.3494, 131.2394
826.8315, 132.6080
827.3136, 130.8658
827.7957, 128.4710
828.2778, 127.4407
828.7599, 127.2820
829.2421, 127.0607
829.7242, 126.5856
830.2063, 126.0731
830.6884, 125.6143
831.1705, 125.4308
831.6526, 126.3227
832.1348, 128.3406
832.6169, 129.6869
833.0990, 130.0996
833.5811, 129.9385
834.0632, 129.1300
834.5453, 128.0987
835.0275, 127.8683
835.5096, 128.9580
835.9917, 129.2763
836.4738, 128.4380
836.9559, 127.2684
837.4380, 125.2770
837.9202, 123.5995
838.4023, 123.9347
838.8844, 126.1325
839.3665, 127.7773
839.8486, 127.0795
840.3307, 125.8879
840.8129, 126.4382
841.2950, 127.7638
841.7771, 127.6457
842.2592, 125.9976
842.7413, 124.6310
843.2234, 124.7188
843.7056, 125.5980
844.1877, 125.9403
844.6698, 125.6990
845.1519, 125.4774
845.6340, 125.2897
846.1161, 125.1157
846.5983, 124.8716
847.0804, 124.7094
847.5625, 125.0919
848.0446, 126.1162
848.5267, 126.0204
849.0089, 122.9904
849.4910, 121.0792
849.9731, 122.2361
850.4552, 124.3527
850.9373, 125.8603
851.4194, 126.5562
851.9016, 126.5163
852.3837, 125.5509
852.8658, 124.6848
853.3479, 125.3492
853.8300, 126.5192
854.3121, 125.9537
854.7943, 123.9836
855.2764, 122.9851
855.7585, 123.9942
856.2406, 125.7637
856.7227, 126.7936
857.2048, 127.0857
857.6870, 126.5533
858.1691, 124.9072
858.6512, 123.5888
859.1333, 122.9930
859.6154, 122.7729
860.0975, 122.8083
860.5797, 122.9924
861.0618, 122.7382
861.5439, 121.8059
862.0260, 120.8511
862.5081, 119.1032
862.9902, 118.1945
863.4724, 120.2160
863.9545, 123.3030
864.4366, 124.0672
864.9187, 121.7561
865.4008, 119.6723
865.8829, 120.2815
866.3651, 122.0301
866.8472, 123.3489
867.3293, 124.3292
867.8114, 125.6489
868.2935, 127.2573
868.7756, 127.4924
869.2578, 124.8167
869.7399, 120.8002
870.2220, 119.6351
870.7041, 121.4887
871.1862, 122.6541
871.6683, 122.6871
872.1505, 122.5047
872.6326, 122.5086
873.1147, 122.6344
873.5968, 122.7679
874.0789, 122.8866
874.5610, 123.1346
875.0432, 123.9674
875.5253, 124.3237
876.0074, 123.5123
876.4895, 122.4913
876.9716, 122.1489
877.4537, 122.3452
877.9359, 122.2559
878.4180, 121.3493
878.9001, 120.7444
879.3822, 121.6340
879.8643, 122.8222
880.3464, 122.9289
880.8286, 122.1250
881.3107, 121.0184
881.7928, 119.8883
882.2749, 119.1661
882.7570, 119.4638
883.2391, 120.4736
883.7213, 121.4087
884.2034, 122.2385
884.6855, 122.1019
885.1676, 120.5937
885.6497, 119.7207
886.1318, 121.3733
886.6140, 124.4971
887.0961, 125.3630
887.5782, 122.7082
888.0603, 121.0354
888.5424, 120.6709
889.0245, 120.8757
889.5067, 121.6612
889.9888, 122.6682
890.4709, 123.6727
890.9530, 124.6526
891.4351, 124.8853
891.9172, 124.1753
892.3994, 122.7513
892.8815, 119.5491
893.3636, 116.5505
893.8457, 115.7505
894.3278, 116.9274
894.8099, 119.1155
895.2921, 122.0986
895.7742, 124.3336
896.2563, 123.7742
896.7384, 121.7972
897.2205, 120.6882
897.7026, 120.3707
898.1848, 120.0833
898.6669, 119.5841
899.1490, 119.0740
899.6311, 118.7102
900.1132, 118.5371
900.5953, 118.8784
901.0775, 119.8282
901.5596, 120.1438
902.0417, 119.4945
902.5238, 118.7028
903.0059, 118.1683
903.4880, 117.8902
903.9702, 117.8792
904.4523, 118.1702
904.9344, 118.5877
905.4165, 119.8145
905.8986, 120.2793
906.3807, 118.5528
906.8629, 116.7821
907.3450, 117.3974
907.8271, 119.7438
908.3092, 120.6825
908.7913, 118.4993
909.2734, 116.7172
909.7556, 117.2890
910.2377, 118.6039
910.7198, 119.5495
911.2019, 120.0118
911.6840, 119.7101
912.1661, 118.7124
912.6483, 118.3921
913.1304, 120.6989
913.6125, 123.6639
914.0946, 123.7098
914.5767, 121.6850
915.0588, 120.2738
915.5410, 119.9125
916.0231, 119.8442
916.5052, 119.6243
916.9873, 119.2055
917.4694, 118.1009
917.9515, 116.2146
918.4337, 116.8545
918.9158, 120.8728
919.3979, 123.4301
919.8800, 122.3842
920.3621, 120.2605
920.8442, 119.8280
921.3264, 120.8392
921.8085, 120.6672
922.2906, 117.9188
922.7727, 116.2695
923.2548, 116.3757
923.7369, 117.0195
924.2191, 118.0241
924.7012, 119.0349
925.1833, 119.5088
925.6654, 119.3689
926.1475, 119.1552
926.6296, 118.8704
927.1118, 118.7353
927.5939, 119.1678
928.0760, 119.5923
928.5581, 119.2132
929.0402, 118.2182
929.5223, 117.4071
930.0045, 117.1045
930.4866, 117.2297
930.9687, 118.1381
931.4508, 119.1680
931.9329, 119.0861
932.4150, 118.2024
932.8972, 117.6640
933.3793, 117.7620
933.8614, 117.8894
934.3435, 117.4973
934.8256, 116.8223
935.3077, 116.3500
935.7899, 116.0960
936.2720, 116.3936
936.7541, 117.3260
937.2362, 118.3333
937.7183, 119.2839
938.2004, 119.6728
938.6826, 118.5074
939.1647, 115.7222
939.6468, 114.4449
940.1289, 115.1919
940.6110, 116.2532
941.0931, 117.9700
941.5753, 119.0519
942.0574, 118.0536
942.5395, 115.8275
943.0216, 114.7627
943.5037, 115.3788
943.9858, 115.5800
944.4680, 114.5160
944.9501, 113.8458
945.4322, 114.5833
945.9143, 115.7330
946.3964, 116.3313
946.8785, 116.3451
947.3607, 116.1393
947.8428, 115.6698
948.3249, 115.3593
948.8070, 115.6903
949.2891, 116.0654
949.7712, 115.3341
950.2534, 114.3820
950.7355, 115.5138
951.2176, 119.0028
951.6997, 121.8515
952.1818, 121.3434
952.6639, 119.5503
953.1461, 119.4882
953.6282, 120.2892
954.1103, 119.8659
954.5924, 118.1018
955.0745, 115.7620
955.5566, 113.1864
956.0388, 111.4469
956.5209, 112.5799
957.0030, 115.7686
957.4851, 116.6071
957.9672, 115.1135
958.4493, 113.7319
958.9315, 112.9663
959.4136, 112.7384
959.8957, 113.0299
960.3778, 113.7340
960.8599, 114.6844
961.3420, 116.0707
961.8242, 116.6344
962.3063, 115.9694
962.7884, 115.5082
963.2705, 115.9969
963.7526, 116.4790
964.2347, 115.6821
964.7169, 113.9112
965.1990, 113.4139
965.6811, 116.1013
966.1632, 117.1215
966.6453, 114.8374
967.1274, 112.7588
967.6096, 112.5285
968.0917, 113.2247
968.5738, 113.5649
969.0559, 113.5035
969.5380, 114.0826
970.0201, 117.0805
970.5023, 118.7298
970.9844, 116.2906
971.4665, 113.2642
971.9486, 112.4771
972.4307, 113.3207
972.9128, 114.2015
973.3950, 114.6870
973.8771, 114.9495
974.3592, 115.0785
974.8413, 115.0455
975.3234, 114.7290
975.8055, 114.2889
976.2877, 113.9167
976.7698, 113.6564
977.2519, 113.5349
977.7340, 113.5679
978.2161, 113.6624
978.6982, 113.6224
979.1804, 113.6249
979.6625, 113.9981
980.1446, 114.7137
980.6267, 116.0331
981.1088, 117.8138
981.5909, 118.5160
982.0731, 116.9951
982.5552, 114.2961
983.0373, 111.8247
983.5194, 109.7635
984.0015, 109.8140
984.4836, 112.0090
984.9658, 113.8583
985.4479, 114.6408
985.9300, 114.1501
986.4121, 111.8551
986.8942, 108.6628
987.3763, 108.0335
987.8585, 110.3572
988.3406, 112.9998
988.8227, 116.4296
989.3048, 117.9232
989.7869, 115.5418
990.2690, 112.2453
990.7512, 111.7785
991.2333, 113.8118
991.7154, 114.1015
992.1975, 111.0835
992.6796, 109.6866
993.1617, 111.4227
993.6439, 113.1820
994.1260, 113.5563
994.6081, 113.0818
995.0902, 112.1661
995.5723, 110.7475
996.0544, 110.6867
996.5366, 113.6976
997.0187, 115.7122
997.5008, 115.5813
997.9829, 114.7830
998.4650, 113.9712
998.9471, 113.2158
999.4293, 112.6316
999.9114, 112.2513
1000.393, 111.5767
1000.876, 109.4414
1001.358, 108.2997
1001.840, 110.3055
1002.322, 112.7975
1002.804, 113.2356
1003.286, 112.2311
1003.768, 111.7968
1004.250, 112.5382
1004.733, 112.7846
1005.215, 110.5081
1005.697, 108.6257
1006.179, 109.9165
1006.661, 112.5347
1007.143, 114.4071
1007.625, 115.2129
1008.107, 115.0642
1008.589, 113.9324
1009.072, 112.8132
1009.554, 112.7809
1010.036, 113.0243
1010.518, 112.5268
1011.000, 111.5695
1011.482, 110.6099
1011.964, 109.8216
1012.446, 109.4556
1012.929, 109.6695
1013.411, 110.1242
1013.893, 110.4910
1014.375, 110.7664
1014.857, 110.9036
1015.339, 110.9450
1015.821, 111.1224
1016.303, 111.4361
1016.785, 111.4177
1017.268, 110.6977
1017.750, 109.7931
1018.232, 109.4891
1018.714, 109.7278
1019.196, 110.4747
1019.678, 111.6219
1020.160, 112.2863
1020.642, 112.2278
1021.125, 111.9079
1021.607, 111.7150
1022.089, 111.4436
1022.571, 110.3504
1023.053, 108.5240
1023.535, 107.9992
1024.017, 108.8971
1024.499, 109.9224
1024.981, 110.7403
1025.464, 110.9959
1025.946, 110.2089
1026.428, 108.8952
1026.910, 108.8405
1027.392, 110.2423
1027.874, 110.8818
1028.356, 110.4526
1028.838, 110.5069
1029.321, 111.8317
1029.803, 113.0396
1030.285, 112.6070
1030.767, 113.1729
1031.249, 113.1780
1031.731, 112.2346
1032.213, 112.4759
1032.695, 110.7223
1033.177, 109.2296
1033.660, 108.7802
1034.142, 109.0216
1034.624, 109.8477
1035.106, 111.0431
1035.588, 111.2065
1036.070, 109.9286
1036.552, 108.4874
1037.034, 105.7845
1037.516, 104.9751
1037.999, 109.0152
1038.481, 113.5990
1038.963, 113.5181
1039.445, 109.5625
1039.927, 107.9055
1040.409, 110.9851
1040.891, 112.0388
1041.373, 109.1214
1041.855, 106.6255
1042.338, 106.8183
1042.820, 107.7264
1043.302, 106.9244
1043.784, 104.7896
1044.266, 104.2788
1044.748, 107.0045
1045.230, 108.7824
1045.712, 108.4973
1046.195, 108.3114
1046.677, 110.1299
1047.159, 111.7334
1047.641, 109.6540
1048.123, 104.6901
1048.605, 102.7317
1049.087, 106.3364
1049.569, 109.4368
1050.052, 111.2812
1050.534, 112.3152
1051.016, 112.8425
1051.498, 112.5902
1051.980, 110.6010
1052.462, 107.3425
1052.944, 105.5210
1053.426, 106.2430
1053.908, 107.1256
1054.391, 107.9482
1054.873, 108.4471
1055.355, 108.4301
1055.837, 108.0614
1056.319, 107.0952
1056.801, 105.8719
1057.283, 105.9881
1057.765, 108.7277
1058.248, 110.6493
1058.730, 110.3254
1059.212, 109.4120
1059.694, 108.3231
1060.176, 107.5033
1060.658, 107.6334
1061.140, 108.4819
1061.622, 108.8905
1062.104, 108.3475
1062.587, 107.9225
1063.069, 107.7730
1063.551, 108.1071
1064.033, 109.9700
1064.515, 111.7340
1064.997, 110.9557
1065.479, 108.2947
1065.961, 106.9506
1066.443, 108.2898
1066.926, 109.3687
1067.408, 108.7018
1067.890, 107.7553
1068.372, 107.1124
1068.854, 106.8756
1069.336, 107.4044
1069.818, 108.3832
1070.300, 108.8843
1070.782, 108.6470
1071.265, 107.8964
1071.747, 105.4794
1072.229, 104.0266
1072.711, 106.3657
1073.193, 109.5600
1073.675, 110.1552
1074.157, 108.7173
1074.639, 107.9431
1075.122, 108.7308
1075.604, 109.0168
1076.086, 106.4430
1076.568, 104.7750
1077.050, 107.7627
1077.532, 111.5375
1078.014, 111.6096
1078.496, 109.0698
1078.979, 107.7797
1079.461, 108.8226
1079.943, 109.2396
1080.425, 107.1006
1080.907, 104.6904
1081.389, 102.5124
1081.871, 101.3090
1082.353, 102.6080
1082.835, 105.1699
1083.318, 106.1922
1083.800, 105.0657
1084.282, 104.2623
1084.764, 105.3190
1085.246, 106.3508
1085.728, 106.1434
1086.210, 105.7610
1086.692, 106.2355
1087.175, 107.1831
1087.657, 107.8276
1088.139, 108.0274
1088.621, 108.0652
1089.103, 108.0725
1089.585, 107.9112
1090.067, 106.9265
1090.549, 106.3407
1091.031, 107.9341
1091.514, 110.1100
1091.996, 110.1258
1092.478, 107.9119
1092.960, 106.1495
1093.442, 105.7905
1093.924, 105.8975
1094.406, 106.5649
1094.888, 107.1027
1095.370, 106.8611
1095.853, 106.3533
1096.335, 106.2476
1096.817, 106.5492
1097.299, 106.8984
1097.781, 107.3462
1098.263, 107.4625
1098.745, 106.7973
1099.227, 106.1394
1099.709, 105.9664
1100.192, 105.9630
1100.674, 105.5311
1101.156, 104.9575
1101.638, 105.4703
1102.120, 107.8796
1102.602, 109.1463
1103.084, 107.6169
1103.566, 105.9882
1104.049, 105.1889
1104.531, 104.8473
1105.013, 104.6014
1105.495, 104.5341
1105.977, 104.9497
1106.459, 105.9606
1106.941, 106.9285
1107.423, 107.7393
1107.906, 108.5088
1108.388, 109.8340
1108.870, 110.5470
1109.352, 109.1883
1109.834, 106.9960
1110.316, 106.2948
1110.798, 107.2975
1111.280, 107.6722
1111.762, 106.8195
1112.245, 105.9624
1112.727, 104.9547
1113.209, 104.3103
1113.691, 104.5955
1114.173, 105.1839
1114.655, 105.2620
1115.137, 104.8683
1115.619, 104.5530
1116.102, 103.7860
1116.584, 104.0855
1117.066, 106.8567
1117.548, 108.6066
1118.030, 107.4118
1118.512, 105.4786
1118.994, 104.8904
1119.476, 105.3161
1119.958, 105.4420
1120.441, 105.2706
1120.923, 104.6917
1121.405, 103.0041
1121.887, 102.5924
1122.369, 104.9077
1122.851, 107.0687
1123.333, 106.7368
1123.815, 104.9941
1124.297, 104.2195
1124.780, 104.4812
1125.262, 104.9022
1125.744, 105.6286
1126.226, 105.8272
1126.708, 105.0203
1127.190, 104.9545
1127.672, 106.9798
1128.154, 109.2306
1128.636, 108.7102
1129.119, 109.8343
1129.601, 109.5187
1130.083, 108.1590
1130.565, 107.6915
1131.047, 103.0910
1131.529, 100.5176
1132.011, 102.6952
1132.493, 105.9584
1132.976, 106.5730
1133.458, 105.5022
1133.940, 105.6656
1134.422, 106.9062
1134.904, 107.0752
1135.386, 106.1374
1135.868, 105.3942
1136.350, 105.1978
1136.833, 105.0487
1137.315, 104.5371
1137.797, 104.2462
1138.279, 105.9228
1138.761, 108.4799
1139.243, 107.2045
1139.725, 103.2754
1140.207, 102.1878
1140.689, 104.3934
1141.172, 106.2467
1141.654, 106.0175
1142.136, 105.0576
1142.618, 104.7495
1143.100, 104.6911
1143.582, 104.1381
1144.064, 103.3469
1144.546, 102.5369
1145.029, 102.0250
1145.511, 102.9917
1145.993, 105.5001
1146.475, 107.2573
1146.957, 106.4165
1147.439, 104.9594
1147.921, 104.4021
1148.403, 104.6955
1148.885, 106.6014
1149.368, 108.9165
1149.850, 109.2183
1150.332, 107.7320
1150.814, 107.2629
1151.296, 109.3521
1151.778, 110.1522
1152.260, 105.4276
1152.742, 100.8709
1153.224, 100.8600
1153.707, 102.5921
1154.189, 102.6643
1154.671, 101.9628
1155.153, 103.8353
1155.635, 109.0068
1156.117, 111.9114
1156.599, 108.8128
1157.081, 106.0267
1157.563, 105.7876
1158.046, 106.1478
1158.528, 106.1617
1159.010, 105.8844
1159.492, 105.4468
1159.974, 104.8653
1160.456, 104.1244
1160.938, 102.3560
1161.420, 102.1327
1161.903, 105.6119
1162.385, 107.6734
1162.867, 105.6835
1163.349, 103.2420
1163.831, 103.2087
1164.313, 104.7274
1164.795, 105.7150
1165.277, 106.0773
1165.760, 106.7718
1166.242, 108.0014
1166.724, 108.9881
1167.206, 109.7862
1167.688, 109.6587
1168.170, 107.9666
1168.652, 105.8869
1169.134, 104.9464
1169.616, 104.9188
1170.099, 104.5336
1170.581, 103.7706
1171.063, 105.0592
1171.545, 108.5725
1172.027, 110.5436
1172.509, 109.8230
1172.991, 108.1487
1173.473, 106.7436
1173.956, 105.7570
1174.438, 105.8662
1174.920, 106.4949
1175.402, 105.1587
1175.884, 102.6967
1176.366, 102.7844
1176.848, 105.2702
1177.330, 106.2365
1177.813, 104.0728
1178.295, 101.4361
1178.777, 100.1652
1179.259, 100.4158
1179.741, 103.7242
1180.223, 107.7099
1180.705, 108.8159
1181.187, 107.8190
1181.669, 106.4286
1182.151, 105.2818
1182.634, 105.2118
1183.116, 107.0297
1183.598, 108.3298
1184.080, 106.9145
1184.562, 105.4199
1185.044, 105.6714
1185.526, 106.6914
1186.008, 107.6882
1186.490, 108.4752
1186.973, 108.7619
1187.455, 108.4469
1187.937, 108.6410
1188.419, 110.8690
1188.901, 111.6710
1189.383, 108.3617
1189.865, 105.8394
1190.347, 107.6526
1190.830, 110.6596
1191.312, 111.5006
1191.794, 110.5870
1192.276, 109.9820
1192.758, 109.9052
1193.240, 109.3102
1193.722, 107.8509
1194.204, 107.0302
1194.687, 107.5114
1195.169, 107.5401
1195.651, 105.7319
1196.133, 103.6478
1196.615, 104.0236
1197.097, 106.2746
1197.579, 106.6455
1198.061, 105.2519
1198.543, 104.2308
1199.026, 103.7926
1199.508, 103.9519
1199.990, 104.6775
1200.472, 105.2628
1200.954, 105.0799
1201.436, 104.7700
1201.918, 105.6726
1202.400, 105.2041
1202.883, 106.5423
1203.365, 105.2023
1203.847, 104.6731
1204.329, 104.9825
1204.811, 105.1811
1205.293, 104.9144
1205.775, 104.4506
1206.257, 103.6281
1206.740, 103.1546
1207.222, 103.7879
1207.704, 104.7640
1208.186, 105.4875
1208.668, 106.0274
1209.150, 106.5575
1209.632, 107.0924
1210.114, 107.6143
1210.596, 108.2418
1211.078, 108.4407
1211.561, 107.7837
1212.043, 107.1304
1212.525, 106.5259
1213.007, 106.2493
1213.489, 106.9016
1213.971, 107.6525
1214.453, 106.9738
1214.935, 107.0479
1215.417, 106.7177
1215.900, 105.6956
1216.382, 106.0000
1216.864, 104.6708
1217.346, 104.7764
1217.828, 107.7175
1218.310, 109.7563
1218.792, 107.7520
1219.274, 104.2968
1219.757, 104.4505
1220.239, 107.3159
1220.721, 108.5564
1221.203, 108.4993
1221.685, 109.3333
1222.167, 110.7669
1222.649, 108.9164
1223.131, 102.8709
1223.614, 98.21972
1224.096, 99.46259
1224.578, 103.0598
1225.060, 106.5098
1225.542, 108.8808
1226.024, 108.3074
1226.506, 106.3070
1226.988, 104.8377
1227.470, 104.2659
1227.953, 104.7899
1228.435, 106.5172
1228.917, 107.7622
1229.399, 107.7153
1229.881, 107.3101
1230.363, 106.5763
1230.845, 105.8839
1231.327, 105.9474
1231.810, 105.8006
1232.292, 103.7150
1232.774, 100.4143
1233.256, 98.77188
1233.738, 98.90621
1234.220, 100.4323
1234.702, 104.2156
1235.184, 106.4336
1235.667, 106.0672
1236.149, 105.2755
1236.631, 105.1055
1237.113, 105.2902
1237.595, 105.4857
1238.077, 105.8394
1238.559, 107.2771
1239.041, 109.3071
1239.523, 108.8664
1240.005, 106.4963
1240.488, 105.6514
1240.970, 106.7599
1241.452, 107.4756
1241.934, 106.6367
1242.416, 105.6726
1242.898, 106.0679
1243.380, 106.7795
1243.862, 106.6649
1244.344, 106.3769
1244.827, 106.6739
1245.309, 107.3369
1245.791, 108.1262
1246.273, 108.8357
1246.755, 108.7689
1247.237, 107.4249
1247.719, 106.4311
1248.201, 106.5709
1248.684, 106.5164
1249.166, 105.3290
1249.648, 104.5189
1250.130, 105.5402
1250.612, 106.7668
1251.094, 105.6240
1251.576, 102.7433
1252.058, 102.4355
1252.541, 105.1578
1253.023, 107.2499
1253.505, 108.6438
1253.987, 109.0332
1254.469, 108.3382
1254.951, 107.0982
1255.433, 105.5844
1255.915, 104.3472
1256.397, 104.0773
1256.880, 104.5059
1257.362, 105.4284
1257.844, 106.4779
1258.326, 107.0317
1258.808, 107.0407
1259.290, 106.2330
1259.772, 104.8801
1260.254, 104.1189
1260.737, 104.4122
1261.219, 105.3284
1261.701, 107.1946
1262.183, 108.8824
1262.665, 110.4595
1263.147, 111.0179
1263.629, 108.7447
1264.111, 105.7947
1264.594, 105.6086
1265.076, 107.6561
1265.558, 108.3394
1266.040, 107.2960
1266.522, 106.0403
1267.004, 104.1275
1267.486, 103.7691
1267.968, 105.7563
1268.450, 107.6823
1268.932, 108.4478
1269.415, 107.5338
1269.897, 103.6072
1270.379, 99.28242
1270.861, 102.6173
1271.343, 110.2163
1271.825, 111.2634
1272.307, 107.4005
1272.789, 104.2946
1273.271, 103.0311
1273.754, 103.0566
1274.236, 104.1096
1274.718, 105.1745
1275.200, 105.9378
1275.682, 106.0012
1276.164, 104.6073
1276.646, 103.0044
1277.128, 101.8577
1277.611, 101.1866
1278.093, 100.8150
1278.575, 100.9009
1279.057, 102.3908
1279.539, 101.8862
1280.021, 101.9823
1280.503, 103.0985
1280.985, 101.9904
1281.468, 104.6938
1281.950, 106.4730
1282.432, 105.2388
1282.914, 104.6865
1283.396, 108.0837
1283.878, 113.2770
1284.360, 116.8190
1284.842, 118.7174
1285.324, 119.0092
##END=



