##NAMES=Fettelite
##RRUFFID=R100124
##IDEAL CHEMISTRY=Ag_16_HgAs_4_S_15_
##LOCALITY=Nieder-Berbach, Odenwald, Germany
##OWNER=RRUFF
##SOURCE=William W. Pinch
##DESCRIPTION=Dark reddish thin platy crystals associated with proustite and xanthoconite.
##STATUS=The identification of this mineral is confirmed by single-crystal X-ray diffraction and chemical analysis.
##URL=rruff.info/R100124
##MEASURED CHEMISTRY=Ag_17.81_Fe_0.97_Hg_0.55_Cu_0.01_Sb_0.05_As_3.34_S_15_
140.2111, 11.05107
140.6932, 12.17621
141.1753, 13.99861
141.6575, 15.84315
142.1396, 17.93803
142.6217, 19.45026
143.1038, 20.00471
143.5859, 19.53426
144.0681, 19.58245
144.5502, 20.16946
145.0323, 21.25484
145.5144, 22.89490
145.9965, 25.61480
146.4786, 28.06813
146.9608, 29.89836
147.4429, 31.07420
147.9250, 31.85973
148.4071, 31.96862
148.8892, 31.79481
149.3713, 31.90795
149.8535, 32.14250
150.3356, 32.83318
150.8177, 34.19122
151.2998, 36.78251
151.7819, 38.81203
152.2640, 39.84253
152.7462, 40.36061
153.2283, 41.21425
153.7104, 42.95956
154.1925, 44.63697
154.6746, 45.91618
155.1567, 46.72022
155.6389, 47.18327
156.1210, 46.93135
156.6031, 46.32176
157.0852, 46.22971
157.5673, 47.13142
158.0495, 48.37721
158.5316, 49.70794
159.0137, 51.45905
159.4958, 52.72807
159.9779, 52.93654
160.4600, 52.40342
160.9422, 52.17033
161.4243, 52.63126
161.9064, 53.48412
162.3885, 54.54146
162.8706, 56.02515
163.3527, 57.41108
163.8349, 58.48424
164.3170, 59.27980
164.7991, 59.96613
165.2812, 60.67178
165.7633, 61.28247
166.2454, 61.68172
166.7276, 61.38424
167.2097, 61.27590
167.6918, 61.79419
168.1739, 62.92955
168.6560, 64.63078
169.1381, 67.64444
169.6203, 70.96232
170.1024, 72.92102
170.5845, 72.66762
171.0666, 71.91031
171.5487, 71.78379
172.0309, 72.24768
172.5130, 72.86240
172.9951, 73.85865
173.4772, 74.73643
173.9593, 74.70259
174.4414, 72.23989
174.9236, 69.36923
175.4057, 68.49997
175.8878, 69.63148
176.3699, 71.24809
176.8520, 72.33267
177.3341, 72.97096
177.8163, 73.34313
178.2984, 73.49448
178.7805, 73.43895
179.2626, 73.08705
179.7447, 72.41454
180.2268, 71.78445
180.7090, 71.71413
181.1911, 72.02513
181.6732, 72.16721
182.1553, 71.63605
182.6374, 70.79671
183.1195, 70.47492
183.6017, 70.73058
184.0838, 71.23251
184.5659, 71.62006
185.0480, 71.91978
185.5301, 72.28867
186.0123, 72.99529
186.4944, 73.84832
186.9765, 74.15761
187.4586, 73.83334
187.9407, 73.23247
188.4228, 72.80202
188.9050, 72.53223
189.3871, 72.31848
189.8692, 72.05981
190.3513, 71.79583
190.8334, 71.74040
191.3155, 71.91969
191.7977, 72.26569
192.2798, 72.83128
192.7619, 73.61769
193.2440, 74.09376
193.7261, 73.52675
194.2082, 72.09516
194.6904, 72.11211
195.1725, 74.07153
195.6546, 76.77989
196.1367, 77.82693
196.6188, 77.11071
197.1009, 76.25233
197.5831, 76.21752
198.0652, 77.00030
198.5473, 77.39551
199.0294, 77.23495
199.5115, 76.80113
199.9937, 76.63354
200.4758, 76.73825
200.9579, 77.05490
201.4400, 77.65886
201.9221, 78.58802
202.4042, 79.20911
202.8864, 79.34978
203.3685, 79.29961
203.8506, 79.93041
204.3327, 81.48809
204.8148, 82.70957
205.2969, 82.64141
205.7791, 81.00999
206.2612, 80.08253
206.7433, 80.03159
207.2254, 80.71751
207.7075, 82.04615
208.1896, 84.41183
208.6718, 86.28589
209.1539, 86.45798
209.6360, 84.33305
210.1181, 83.66795
210.6002, 85.20699
211.0823, 88.02439
211.5645, 89.37427
212.0466, 88.71215
212.5287, 87.88905
213.0108, 88.00710
213.4929, 89.42029
213.9750, 90.36582
214.4572, 90.62332
214.9393, 90.40531
215.4214, 90.34145
215.9035, 90.48658
216.3856, 90.67301
216.8678, 90.78600
217.3499, 90.75890
217.8320, 90.88723
218.3141, 91.24661
218.7962, 91.74732
219.2783, 92.13084
219.7605, 92.43186
220.2426, 92.54137
220.7247, 92.34111
221.2068, 91.65140
221.6889, 91.15478
222.1710, 90.86302
222.6532, 90.78841
223.1353, 91.04114
223.6174, 91.88319
224.0995, 92.62291
224.5816, 92.90158
225.0637, 92.58366
225.5459, 92.11988
226.0280, 91.33263
226.5101, 90.44941
226.9922, 90.24170
227.4743, 91.05227
227.9564, 91.99276
228.4386, 92.68517
228.9207, 93.16225
229.4028, 93.27797
229.8849, 92.97949
230.3670, 92.33364
230.8492, 91.41875
231.3313, 89.80205
231.8134, 88.58133
232.2955, 88.41145
232.7776, 90.17327
233.2597, 90.88150
233.7419, 89.99548
234.2240, 88.19248
234.7061, 87.29572
235.1882, 87.74633
235.6703, 88.42966
236.1524, 88.89604
236.6346, 89.08018
237.1167, 89.19298
237.5988, 89.24307
238.0809, 89.22110
238.5630, 89.12463
239.0451, 89.06501
239.5273, 88.75656
240.0094, 87.93989
240.4915, 86.04121
240.9736, 85.17868
241.4557, 85.78780
241.9378, 87.22800
242.4200, 88.19804
242.9021, 88.64346
243.3842, 88.70923
243.8663, 88.32254
244.3484, 87.11118
244.8306, 86.61242
245.3127, 87.21990
245.7948, 88.33463
246.2769, 88.83809
246.7590, 88.47233
247.2411, 87.92617
247.7233, 87.39160
248.2054, 86.82409
248.6875, 86.44734
249.1696, 86.34138
249.6517, 86.37672
250.1338, 86.29105
250.6160, 85.80623
251.0981, 85.71623
251.5802, 86.44930
252.0623, 88.31789
252.5444, 89.35536
253.0265, 89.12350
253.5087, 88.41410
253.9908, 88.41420
254.4729, 89.56046
254.9550, 90.52493
255.4371, 90.86458
255.9192, 90.47261
256.4014, 90.27330
256.8835, 90.17029
257.3656, 90.35662
257.8477, 91.16849
258.3298, 92.98283
258.8120, 94.57864
259.2941, 95.61801
259.7762, 96.06796
260.2583, 96.56214
260.7404, 97.11761
261.2225, 97.69894
261.7047, 98.33422
262.1868, 99.15587
262.6689, 99.64868
263.1510, 99.50323
263.6331, 98.75502
264.1152, 98.85345
264.5974, 100.1909
265.0795, 101.7689
265.5616, 102.6412
266.0437, 102.7486
266.5258, 102.3694
267.0079, 101.4028
267.4901, 99.93462
267.9722, 98.85329
268.4543, 98.32368
268.9364, 97.83379
269.4185, 96.85559
269.9006, 95.18388
270.3828, 93.92434
270.8649, 93.25375
271.3470, 93.11401
271.8291, 93.35316
272.3112, 94.19437
272.7933, 94.82839
273.2755, 94.49648
273.7576, 93.00588
274.2397, 91.94700
274.7218, 91.73061
275.2039, 91.93947
275.6860, 91.14027
276.1682, 89.05041
276.6503, 86.98840
277.1324, 85.80122
277.6145, 85.55225
278.0966, 85.49723
278.5787, 85.64082
279.0609, 85.88047
279.5430, 86.02757
280.0251, 86.09541
280.5072, 85.99764
280.9893, 85.73115
281.4715, 85.29911
281.9536, 84.43015
282.4357, 82.96858
282.9178, 81.34531
283.3999, 80.28248
283.8820, 79.79369
284.3642, 79.58640
284.8463, 79.60890
285.3284, 79.83837
285.8105, 80.03523
286.2926, 80.20476
286.7747, 80.31480
287.2569, 80.32387
287.7390, 80.23153
288.2211, 80.05937
288.7032, 79.95290
289.1853, 79.79389
289.6674, 78.89478
290.1496, 77.15258
290.6317, 75.32741
291.1138, 74.37124
291.5959, 74.16273
292.0780, 73.88651
292.5602, 73.27563
293.0423, 72.41389
293.5244, 71.50646
294.0065, 70.55960
294.4886, 69.52560
294.9707, 68.39828
295.4529, 67.14533
295.9350, 65.61759
296.4171, 63.49481
296.8992, 61.32300
297.3813, 60.24833
297.8634, 60.19572
298.3456, 60.28317
298.8277, 59.77087
299.3098, 58.91048
299.7919, 58.35466
300.2740, 58.49320
300.7561, 58.53510
301.2383, 56.98170
301.7204, 54.20602
302.2025, 52.01410
302.6846, 52.11813
303.1667, 53.34565
303.6488, 53.91610
304.1310, 53.46258
304.6131, 52.61868
305.0952, 51.87372
305.5773, 51.22259
306.0594, 50.65403
306.5415, 50.10553
307.0237, 49.65971
307.5058, 49.40649
307.9879, 49.36557
308.4700, 49.45451
308.9521, 49.82994
309.4343, 50.27030
309.9164, 50.39776
310.3985, 49.83421
310.8806, 49.04175
311.3627, 48.24217
311.8448, 47.43647
312.3270, 46.96469
312.8091, 47.15293
313.2912, 47.74815
313.7733, 48.45154
314.2554, 49.47316
314.7375, 50.30396
315.2197, 50.63209
315.7018, 50.49668
316.1839, 50.21065
316.6660, 49.76097
317.1481, 49.29966
317.6302, 48.95403
318.1124, 48.75351
318.5945, 48.66885
319.0766, 48.94954
319.5587, 49.39972
320.0408, 49.34997
320.5229, 47.68903
321.0051, 46.10197
321.4872, 45.59418
321.9693, 46.92011
322.4514, 48.20810
322.9335, 49.33899
323.4156, 50.16254
323.8978, 50.38879
324.3799, 49.25371
324.8620, 48.13480
325.3441, 47.58800
325.8262, 47.91610
326.3083, 47.99800
326.7905, 47.32350
327.2726, 46.49402
327.7547, 46.25660
328.2368, 47.41229
328.7189, 48.34895
329.2010, 48.69111
329.6832, 48.37317
330.1653, 48.17321
330.6474, 48.28791
331.1295, 48.37917
331.6116, 48.13084
332.0938, 47.03152
332.5759, 46.42079
333.0580, 46.65355
333.5401, 47.59426
334.0222, 48.19897
334.5043, 48.30215
334.9865, 48.30504
335.4686, 48.40776
335.9507, 48.53518
336.4328, 49.02961
336.9149, 50.16484
337.3970, 51.56325
337.8792, 52.07668
338.3613, 51.38827
338.8434, 50.73359
339.3255, 50.67689
339.8076, 51.28801
340.2898, 52.07257
340.7719, 53.21663
341.2540, 54.23006
341.7361, 54.14565
342.2182, 52.80880
342.7003, 51.89043
343.1825, 52.25367
343.6646, 53.62002
344.1467, 54.01722
344.6288, 53.32997
345.1109, 52.27444
345.5930, 51.69390
346.0752, 51.50500
346.5573, 50.71190
347.0394, 48.71592
347.5215, 46.27318
348.0036, 45.25311
348.4857, 45.62816
348.9679, 46.03258
349.4500, 45.27753
349.9321, 43.73898
350.4142, 42.54259
350.8963, 41.92633
351.3784, 41.52045
351.8606, 40.70805
352.3427, 39.65817
352.8248, 38.98339
353.3069, 39.60281
353.7890, 40.58971
354.2711, 40.53032
354.7533, 39.21940
355.2354, 37.77881
355.7175, 37.14271
356.1996, 37.04658
356.6817, 37.02915
357.1638, 37.02413
357.6460, 36.93204
358.1281, 36.59749
358.6102, 36.04612
359.0923, 35.57853
359.5744, 35.34860
360.0565, 35.29721
360.5387, 35.37895
361.0208, 35.73330
361.5029, 36.02879
361.9850, 36.12775
362.4671, 36.05296
362.9492, 35.86959
363.4314, 35.56439
363.9135, 35.18324
364.3956, 34.68803
364.8777, 33.87007
365.3598, 33.42956
365.8419, 34.01078
366.3241, 34.94836
366.8062, 35.23954
367.2883, 33.94226
367.7704, 32.75945
368.2526, 32.11642
368.7347, 32.06490
369.2168, 32.34361
369.6989, 33.45883
370.1810, 34.58244
370.6631, 35.01365
371.1453, 34.08168
371.6274, 33.45885
372.1095, 33.44248
372.5916, 33.93139
373.0737, 34.25296
373.5558, 34.36736
374.0380, 34.37797
374.5201, 34.33381
375.0022, 34.22582
375.4843, 34.09309
375.9664, 33.93164
376.4485, 33.75060
376.9307, 33.60571
377.4128, 33.54995
377.8949, 33.29564
378.3770, 32.51206
378.8591, 31.26270
379.3412, 30.97272
379.8234, 31.84070
380.3055, 32.97620
380.7876, 33.30952
381.2697, 32.89019
381.7518, 32.55791
382.2339, 32.59447
382.7161, 32.81191
383.1982, 32.69713
383.6803, 32.26490
384.1624, 31.91595
384.6445, 32.06120
385.1266, 32.51669
385.6088, 32.87597
386.0909, 33.12873
386.5730, 33.11560
387.0551, 32.37029
387.5372, 31.15948
388.0193, 30.23519
388.5015, 30.13484
388.9836, 30.45363
389.4657, 30.82460
389.9478, 31.23076
390.4299, 31.59073
390.9120, 32.00533
391.3942, 32.29415
391.8763, 32.22091
392.3584, 31.13893
392.8405, 30.21757
393.3226, 30.13853
393.8047, 30.76619
394.2869, 31.48021
394.7690, 32.39464
395.2511, 33.07851
395.7332, 33.20446
396.2154, 32.39644
396.6975, 31.71485
397.1796, 31.58043
397.6617, 31.67563
398.1438, 31.45840
398.6259, 30.19359
399.1081, 29.25227
399.5902, 29.08628
400.0723, 29.80309
400.5544, 30.57178
401.0365, 31.75043
401.5186, 32.71501
402.0008, 32.87017
402.4829, 31.54359
402.9650, 30.70506
403.4471, 30.76357
403.9292, 31.47100
404.4113, 31.75488
404.8935, 31.46280
405.3756, 31.10401
405.8577, 30.96062
406.3398, 31.07530
406.8219, 31.10016
407.3040, 31.02942
407.7862, 30.87380
408.2683, 30.57665
408.7504, 30.12912
409.2325, 29.83535
409.7146, 29.76072
410.1967, 29.92723
410.6789, 30.65169
411.1610, 31.96911
411.6431, 32.95825
412.1252, 32.48183
412.6073, 31.01713
413.0894, 29.92842
413.5716, 29.55526
414.0537, 29.52563
414.5358, 29.50799
415.0179, 29.48626
415.5000, 29.40744
415.9821, 29.18055
416.4643, 28.91559
416.9464, 28.71012
417.4285, 28.57097
417.9106, 28.51731
418.3927, 28.50519
418.8748, 28.60355
419.3570, 28.89385
419.8391, 29.72436
420.3212, 30.44389
420.8033, 30.80010
421.2854, 30.81953
421.7675, 30.64507
422.2497, 30.00009
422.7318, 29.41226
423.2139, 29.22582
423.6960, 29.80878
424.1781, 30.06943
424.6602, 29.51238
425.1424, 28.66792
425.6245, 28.32701
426.1066, 28.97909
426.5887, 29.52203
427.0709, 29.69245
427.5530, 29.49052
428.0351, 29.35085
428.5172, 29.29871
428.9993, 29.27153
429.4814, 29.24288
429.9636, 29.24077
430.4457, 29.09655
430.9278, 28.70655
431.4099, 28.25580
431.8920, 28.24188
432.3741, 28.73768
432.8563, 29.09712
433.3384, 28.85158
433.8205, 28.14618
434.3026, 28.13710
434.7847, 28.91786
435.2668, 29.64723
435.7490, 29.19086
436.2311, 27.90612
436.7132, 27.10667
437.1953, 27.27502
437.6774, 27.88935
438.1595, 28.36413
438.6417, 28.70276
439.1238, 28.91890
439.6059, 28.97636
440.0880, 28.93858
440.5701, 28.82648
441.0522, 28.61669
441.5344, 28.51911
442.0165, 28.81927
442.4986, 29.25768
442.9807, 29.51471
443.4628, 29.48592
443.9449, 29.25527
444.4271, 28.65117
444.9092, 27.78405
445.3913, 27.26547
445.8734, 27.40463
446.3555, 27.81835
446.8376, 28.37507
447.3198, 29.35645
447.8019, 29.89151
448.2840, 29.79292
448.7661, 29.31304
449.2482, 28.76952
449.7303, 28.03992
450.2125, 27.46051
450.6946, 27.08790
451.1767, 26.92106
451.6588, 26.97867
452.1409, 27.32682
452.6230, 27.74676
453.1052, 28.11239
453.5873, 28.43246
454.0694, 28.61398
454.5515, 28.63528
455.0337, 28.54624
455.5158, 28.42709
455.9979, 28.27470
456.4800, 28.05460
456.9621, 27.61871
457.4442, 27.14179
457.9264, 27.08313
458.4085, 27.43050
458.8906, 27.87750
459.3727, 28.10819
459.8548, 28.28967
460.3369, 28.80352
460.8191, 30.03226
461.3012, 30.90455
461.7833, 30.19253
462.2654, 28.50042
462.7475, 27.08869
463.2296, 26.41701
463.7118, 26.23185
464.1939, 26.60719
464.6760, 27.55631
465.1581, 28.20179
465.6402, 27.89520
466.1223, 27.40679
466.6045, 27.28170
467.0866, 28.12963
467.5687, 28.67628
468.0508, 28.63836
468.5329, 28.27693
469.0150, 28.18866
469.4972, 28.62462
469.9793, 28.95085
470.4614, 28.91806
470.9435, 28.49965
471.4256, 28.24955
471.9077, 28.16212
472.3899, 28.25472
472.8720, 28.70991
473.3541, 29.60820
473.8362, 29.85465
474.3183, 29.09143
474.8004, 27.93741
475.2826, 27.71181
475.7647, 28.35024
476.2468, 28.94049
476.7289, 29.05456
477.2110, 28.78398
477.6931, 28.15833
478.1753, 27.18010
478.6574, 26.42418
479.1395, 26.63647
479.6216, 27.29770
480.1037, 27.58560
480.5858, 27.01994
481.0680, 26.54491
481.5501, 27.09081
482.0322, 28.19381
482.5143, 28.88136
482.9964, 28.57389
483.4786, 27.93749
483.9607, 27.06080
484.4428, 25.91119
484.9249, 25.37507
485.4070, 26.32640
485.8892, 27.51645
486.3713, 28.04403
486.8534, 27.14556
487.3355, 26.69981
487.8176, 27.00641
488.2997, 27.70536
488.7819, 28.02595
489.2640, 27.83654
489.7461, 27.55725
490.2282, 27.27981
490.7103, 27.01001
491.1924, 26.96881
491.6746, 27.24039
492.1567, 27.39272
492.6388, 26.76331
493.1209, 25.50301
493.6030, 25.11071
494.0851, 25.95490
494.5673, 27.23216
495.0494, 27.84679
495.5315, 27.91486
496.0136, 27.83380
496.4957, 27.72647
496.9778, 27.60692
497.4600, 27.51445
497.9421, 27.43959
498.4242, 27.28995
498.9063, 26.77158
499.3884, 26.28865
499.8705, 26.27623
500.3527, 27.12459
500.8348, 27.68134
501.3169, 27.24401
501.7990, 26.34429
502.2811, 25.72714
502.7632, 25.71019
503.2454, 25.79567
503.7275, 25.95768
504.2096, 26.17358
504.6917, 26.16822
505.1738, 25.66108
505.6559, 25.31287
506.1381, 25.58044
506.6202, 26.74263
507.1023, 27.34703
507.5844, 27.25750
508.0665, 26.85720
508.5486, 26.61491
509.0308, 26.53169
509.5129, 26.57064
509.9950, 26.80887
510.4771, 27.07541
510.9592, 26.95027
511.4413, 26.46510
511.9235, 25.93010
512.4056, 25.27834
512.8877, 24.79944
513.3698, 25.14757
513.8519, 26.43663
514.3340, 27.50748
514.8162, 27.12217
515.2983, 26.17498
515.7804, 25.76265
516.2625, 26.79287
516.7446, 27.67330
517.2267, 27.55452
517.7089, 26.80445
518.1910, 26.32528
518.6731, 26.65450
519.1552, 26.96147
519.6373, 26.79660
520.1194, 26.04677
520.6016, 26.02500
521.0837, 27.37088
521.5658, 28.73085
522.0479, 29.01709
522.5300, 27.82097
523.0121, 27.05421
523.4943, 26.93854
523.9764, 27.17893
524.4585, 27.39255
524.9406, 27.58537
525.4227, 27.30909
525.9048, 25.99770
526.3870, 24.30664
526.8691, 24.06300
527.3513, 25.18339
527.8334, 26.39793
528.3155, 26.88579
528.7976, 26.87115
529.2797, 26.59290
529.7618, 26.02517
530.2440, 25.54589
530.7261, 25.43991
531.2082, 25.57783
531.6903, 25.79565
532.1724, 26.30980
532.6545, 26.61184
533.1367, 26.27019
533.6188, 25.53503
534.1009, 25.28756
534.5830, 26.39502
535.0651, 27.29472
535.5472, 27.30886
536.0294, 26.21891
536.5115, 25.90677
536.9936, 26.85976
537.4757, 27.91003
537.9578, 27.97823
538.4399, 26.86518
538.9221, 26.03054
539.4042, 25.62426
539.8863, 25.53820
540.3684, 25.68889
540.8505, 26.04933
541.3326, 26.29187
541.8148, 26.21262
542.2969, 25.97604
542.7790, 25.91634
543.2611, 26.00260
543.7432, 25.98818
544.2253, 25.47951
544.7075, 24.90576
545.1896, 24.74205
545.6717, 25.10410
546.1538, 25.58288
546.6359, 26.12028
547.1180, 26.61140
547.6002, 26.93719
548.0823, 27.22651
548.5644, 27.16857
549.0465, 26.47498
549.5286, 25.38110
550.0107, 24.54580
550.4929, 23.87749
550.9750, 23.62071
551.4571, 24.00041
551.9392, 25.02319
552.4213, 25.63721
552.9034, 25.81732
553.3856, 25.68451
553.8677, 25.12894
554.3498, 24.21851
554.8319, 23.84814
555.3140, 24.18937
555.7961, 24.77669
556.2783, 25.12316
556.7604, 25.23353
557.2425, 25.08906
557.7246, 24.42103
558.2067, 23.76908
558.6888, 23.77753
559.1710, 24.27499
559.6531, 24.68283
560.1352, 24.57897
560.6173, 24.40978
561.0994, 24.47002
561.5815, 24.82047
562.0637, 25.07522
562.5458, 25.04105
563.0279, 24.96101
563.5100, 25.03226
563.9921, 25.56771
564.4742, 25.66902
564.9564, 25.09952
565.4385, 24.25823
565.9206, 23.80087
566.4027, 23.75957
566.8848, 23.98795
567.3669, 24.56456
567.8491, 25.31913
568.3312, 25.73256
568.8133, 25.80653
569.2954, 25.57778
569.7775, 24.63813
570.2596, 23.53308
570.7418, 23.54105
571.2239, 24.77549
571.7060, 25.79902
572.1881, 24.92058
572.6702, 23.50279
573.1523, 23.15512
573.6345, 25.06475
574.1166, 26.66199
574.5987, 26.77913
575.0808, 26.00161
575.5629, 25.29760
576.0450, 24.86197
576.5272, 24.47784
577.0093, 24.04107
577.4914, 23.59988
577.9735, 23.51911
578.4556, 23.99059
578.9377, 24.42855
579.4199, 24.53997
579.9020, 24.31844
580.3841, 24.00532
580.8662, 23.56993
581.3483, 23.21138
581.8304, 23.25186
582.3126, 23.55573
582.7947, 23.57965
583.2768, 23.10632
583.7589, 22.68741
584.2410, 23.07826
584.7231, 23.94147
585.2053, 24.60929
585.6874, 24.72216
586.1696, 24.63566
586.6517, 24.46079
587.1338, 24.22460
587.6159, 24.03634
588.0980, 23.88480
588.5801, 23.82171
589.0623, 23.92523
589.5444, 24.24844
590.0265, 24.36677
590.5086, 24.20988
590.9907, 23.93863
591.4728, 23.61433
591.9550, 23.18798
592.4371, 23.05573
592.9192, 23.27490
593.4013, 23.72930
593.8834, 24.56301
594.3655, 25.62236
594.8477, 25.84350
595.3298, 24.44126
595.8119, 22.59874
596.2940, 21.91924
596.7761, 22.17065
597.2582, 22.55157
597.7404, 22.61818
598.2225, 22.67969
598.7046, 23.02015
599.1867, 23.64759
599.6688, 24.13230
600.1509, 24.31930
600.6331, 24.34700
601.1152, 24.29116
601.5973, 24.15160
602.0794, 23.92943
602.5615, 23.51815
603.0436, 23.12830
603.5258, 23.03304
604.0079, 23.29169
604.4900, 23.55283
604.9721, 23.81760
605.4542, 23.97182
605.9363, 23.57014
606.4185, 22.70975
606.9006, 22.23981
607.3827, 22.98723
607.8648, 24.08078
608.3469, 24.01250
608.8290, 23.00169
609.3112, 22.28536
609.7933, 22.97796
610.2754, 23.97392
610.7575, 24.43096
611.2396, 24.18948
611.7217, 23.87040
612.2039, 23.49368
612.6860, 23.19892
613.1681, 23.11603
613.6502, 23.67289
614.1323, 23.64126
614.6144, 22.57050
615.0966, 21.29373
615.5787, 21.13996
616.0608, 22.32144
616.5429, 23.26634
617.0250, 23.53981
617.5071, 23.44349
617.9893, 23.73256
618.4714, 24.33852
618.9535, 24.71752
619.4356, 24.48255
619.9177, 23.92358
620.3998, 23.16155
620.8820, 22.28144
621.3641, 21.96218
621.8462, 23.34368
622.3283, 24.90688
622.8104, 25.42796
623.2925, 24.45691
623.7747, 23.68201
624.2568, 23.55553
624.7389, 23.65357
625.2210, 23.63025
625.7031, 23.37285
626.1852, 23.25724
626.6674, 23.37170
627.1495, 23.55852
627.6316, 23.52378
628.1137, 23.25595
628.5958, 23.04323
629.0779, 22.94610
629.5601, 22.97776
630.0422, 23.22365
630.5243, 23.64350
631.0064, 24.05659
631.4885, 24.55959
631.9706, 24.87527
632.4528, 24.66936
632.9349, 23.96976
633.4170, 23.17206
633.8991, 22.06544
634.3812, 21.20566
634.8633, 21.00102
635.3455, 21.77609
635.8276, 22.30775
636.3097, 22.42048
636.7918, 22.41150
637.2739, 22.57631
637.7560, 23.03721
638.2382, 23.09595
638.7203, 22.53206
639.2024, 21.86456
639.6845, 21.99040
640.1666, 22.81156
640.6487, 23.53115
641.1309, 23.94801
641.6130, 24.10014
642.0951, 23.87807
642.5772, 23.41110
643.0594, 23.07354
643.5415, 23.13565
644.0236, 23.30238
644.5057, 23.46279
644.9879, 23.59717
645.4700, 23.58767
645.9521, 23.10720
646.4342, 22.75757
646.9163, 22.86795
647.3984, 23.55497
647.8806, 23.90725
648.3627, 23.83519
648.8448, 23.60506
649.3269, 23.38955
649.8090, 23.18964
650.2911, 23.09704
650.7733, 23.13548
651.2554, 23.19957
651.7375, 23.09383
652.2196, 22.91778
652.7017, 22.96787
653.1838, 23.53292
653.6660, 23.93714
654.1481, 23.30454
654.6302, 22.20529
655.1123, 21.63993
655.5944, 22.52671
656.0765, 23.38170
656.5587, 23.80558
657.0408, 23.82355
657.5229, 23.58827
658.0050, 22.84732
658.4871, 22.29831
658.9692, 22.26729
659.4514, 22.68923
659.9335, 22.85674
660.4156, 22.76379
660.8977, 22.47095
661.3798, 21.66121
661.8619, 20.71953
662.3441, 20.95863
662.8262, 22.48932
663.3083, 23.79785
663.7904, 23.19444
664.2725, 21.95222
664.7546, 21.55375
665.2368, 22.65823
665.7189, 23.62699
666.2010, 24.01348
666.6831, 23.94236
667.1652, 23.50465
667.6473, 22.09703
668.1295, 21.38636
668.6116, 21.75034
669.0937, 22.67280
669.5758, 23.10218
670.0579, 22.97722
670.5400, 22.99883
671.0222, 23.47117
671.5043, 24.10810
671.9864, 24.43123
672.4685, 24.42332
672.9506, 23.99857
673.4327, 22.25510
673.9149, 20.69785
674.3970, 21.15563
674.8791, 23.32808
675.3612, 24.85997
675.8433, 24.42572
676.3254, 23.45301
676.8076, 22.52052
677.2897, 21.59641
677.7718, 21.24329
678.2539, 21.65883
678.7360, 22.37309
679.2181, 23.26261
679.7003, 24.41257
680.1824, 24.62301
680.6645, 23.69309
681.1466, 22.51817
681.6287, 22.05373
682.1108, 22.12651
682.5930, 22.28086
683.0751, 22.43019
683.5572, 22.63148
684.0393, 23.05050
684.5214, 23.51948
685.0035, 23.80141
685.4857, 23.76550
685.9678, 23.59763
686.4499, 23.24144
686.9320, 22.79603
687.4141, 22.47152
687.8962, 22.28978
688.3784, 22.20551
688.8605, 22.26581
689.3426, 22.39382
689.8247, 22.25705
690.3068, 21.84002
690.7889, 21.55191
691.2711, 21.68116
691.7532, 22.03148
692.2353, 22.19617
692.7174, 22.20367
693.1995, 22.24179
693.6816, 22.33354
694.1638, 22.56676
694.6459, 23.19582
695.1280, 24.26723
695.6101, 24.79937
696.0922, 23.91977
696.5743, 22.96316
697.0565, 22.69921
697.5386, 23.37018
698.0207, 23.69162
698.5028, 23.57124
698.9849, 23.29798
699.4670, 23.14851
699.9492, 23.10401
700.4313, 22.95776
700.9135, 22.67887
701.3956, 22.34668
701.8777, 21.87567
702.3598, 21.45089
702.8419, 21.42992
703.3240, 22.10722
703.8062, 22.80247
704.2883, 23.34929
704.7704, 23.63941
705.2525, 23.50496
705.7346, 22.10049
706.2167, 21.35614
706.6989, 21.82244
707.1810, 22.89474
707.6631, 23.10008
708.1452, 22.23702
708.6273, 21.73282
709.1094, 22.20527
709.5916, 23.11751
710.0737, 23.09246
710.5558, 22.31362
711.0379, 21.72831
711.5200, 22.12415
712.0021, 22.72939
712.4843, 22.80367
712.9664, 22.44166
713.4485, 22.19437
713.9306, 22.38103
714.4127, 22.62656
714.8948, 22.76188
715.3770, 22.78400
715.8591, 22.81178
716.3412, 22.84863
716.8233, 22.88448
717.3054, 22.92282
717.7875, 22.96221
718.2697, 22.94926
718.7518, 22.88176
719.2339, 22.79293
719.7160, 22.69985
720.1981, 22.60886
720.6802, 22.43956
721.1624, 22.15016
721.6445, 22.19006
722.1266, 23.40820
722.6087, 24.72977
723.0908, 25.15097
723.5729, 23.81295
724.0551, 23.01799
724.5372, 23.17913
725.0193, 23.63067
725.5014, 23.70762
725.9835, 23.35572
726.4656, 22.92163
726.9478, 22.38226
727.4299, 21.91496
727.9120, 21.77602
728.3941, 21.91813
728.8762, 22.25205
729.3583, 22.89945
729.8405, 23.40904
730.3226, 23.31800
730.8047, 22.85189
731.2868, 22.38704
731.7689, 21.78250
732.2510, 21.48580
732.7332, 21.77470
733.2153, 22.39871
733.6974, 22.90353
734.1795, 23.30435
734.6616, 23.51886
735.1437, 23.46938
735.6259, 23.26958
736.1080, 23.17386
736.5901, 23.18490
737.0722, 23.33277
737.5543, 23.87436
738.0364, 24.37425
738.5186, 24.08165
739.0007, 23.25661
739.4828, 22.81879
739.9649, 23.75303
740.4470, 24.59913
740.9291, 24.53714
741.4113, 23.62885
741.8934, 23.21856
742.3755, 23.64945
742.8576, 23.94774
743.3397, 23.58908
743.8218, 22.70660
744.3040, 22.51031
744.7861, 23.01920
745.2682, 23.51661
745.7503, 23.40690
746.2324, 23.01705
746.7145, 22.85567
747.1967, 22.93383
747.6788, 23.11069
748.1609, 23.64800
748.6430, 23.99625
749.1251, 23.61878
749.6072, 22.20031
750.0894, 21.53690
750.5715, 22.01968
751.0536, 22.81586
751.5357, 23.50889
752.0178, 24.13080
752.4999, 24.20688
752.9821, 23.66010
753.4642, 23.07833
753.9463, 23.13868
754.4284, 23.53957
754.9105, 23.60133
755.3926, 23.19353
755.8748, 22.91331
756.3569, 23.54894
756.8390, 24.24653
757.3211, 24.16119
757.8032, 22.54712
758.2853, 21.53006
758.7675, 21.44473
759.2496, 21.76368
759.7318, 22.06145
760.2139, 22.34147
760.6960, 22.50362
761.1781, 22.47753
761.6602, 22.55532
762.1423, 23.42809
762.6245, 24.65555
763.1066, 25.08722
763.5887, 24.29823
764.0708, 23.28329
764.5529, 22.46020
765.0350, 21.92242
765.5172, 21.78118
765.9993, 22.55936
766.4814, 23.05415
766.9635, 23.01904
767.4456, 22.81082
767.9277, 22.97881
768.4099, 23.64013
768.8920, 23.85219
769.3741, 23.36422
769.8562, 22.63007
770.3383, 22.34290
770.8204, 22.34933
771.3026, 22.18243
771.7847, 21.44182
772.2668, 20.97397
772.7489, 21.65180
773.2310, 22.90305
773.7131, 23.81922
774.1953, 24.02429
774.6774, 24.12155
775.1595, 24.24217
775.6416, 24.25820
776.1237, 23.78438
776.6058, 22.69303
777.0880, 22.18893
777.5701, 22.80208
778.0522, 23.69589
778.5343, 23.09286
779.0164, 21.56882
779.4985, 20.82272
779.9807, 22.21258
780.4628, 23.77173
780.9449, 24.38260
781.4270, 24.28301
781.9091, 23.98511
782.3912, 23.10508
782.8734, 22.67090
783.3555, 23.02735
783.8376, 23.82340
784.3197, 24.11979
784.8018, 23.86350
785.2839, 23.80312
785.7661, 24.28283
786.2482, 24.91855
786.7303, 25.09749
787.2124, 24.89675
787.6945, 24.54153
788.1766, 23.93586
788.6588, 23.40271
789.1409, 23.08809
789.6230, 22.96740
790.1051, 22.97133
790.5872, 23.23456
791.0693, 23.37486
791.5515, 23.20184
792.0336, 22.91705
792.5157, 23.27855
792.9978, 24.29136
793.4799, 24.88124
793.9620, 24.42231
794.4442, 23.60101
794.9263, 23.51830
795.4084, 23.91523
795.8905, 24.06849
796.3726, 23.27410
796.8547, 22.56636
797.3369, 22.45890
797.8190, 22.79760
798.3011, 23.01200
798.7832, 23.13497
799.2653, 23.01054
799.7474, 22.44015
800.2296, 21.71461
800.7117, 21.84542
801.1938, 22.73511
801.6759, 23.29680
802.1580, 22.76012
802.6401, 22.00837
803.1223, 22.19668
803.6044, 22.99366
804.0865, 23.53049
804.5686, 23.05280
805.0507, 22.74524
805.5328, 23.33974
806.0150, 24.35916
806.4971, 24.44404
806.9792, 23.21205
807.4613, 22.27245
807.9434, 22.08725
808.4255, 22.44072
808.9077, 23.05538
809.3898, 23.82584
809.8719, 24.26538
810.3540, 23.81153
810.8361, 23.31266
811.3182, 23.61851
811.8004, 24.38345
812.2825, 24.79536
812.7646, 24.09844
813.2467, 23.72131
813.7288, 24.15064
814.2109, 24.97885
814.6931, 25.10023
815.1752, 24.43387
815.6573, 23.78831
816.1394, 23.32907
816.6215, 23.11257
817.1037, 23.57126
817.5858, 24.35881
818.0679, 24.56626
818.5500, 22.97672
819.0322, 21.62264
819.5143, 21.76999
819.9964, 22.82216
820.4785, 23.57042
820.9606, 23.92875
821.4427, 23.95732
821.9249, 23.48935
822.4070, 22.87432
822.8891, 22.94336
823.3712, 23.62515
823.8533, 24.13222
824.3354, 24.22540
824.8176, 24.09695
825.2997, 23.76712
825.7818, 23.41005
826.2639, 23.33043
826.7460, 23.91418
827.2281, 24.43944
827.7103, 24.92574
828.1924, 25.18415
828.6745, 24.82273
829.1566, 23.56297
829.6387, 22.86481
830.1208, 23.06203
830.6030, 23.61383
831.0851, 23.52632
831.5672, 23.11498
832.0493, 23.38992
832.5314, 24.98326
833.0135, 26.33354
833.4957, 26.07250
833.9778, 25.08011
834.4599, 24.38174
834.9420, 24.38065
835.4241, 24.44029
835.9063, 24.69873
836.3884, 24.84940
836.8705, 24.35052
837.3526, 23.23292
837.8347, 22.66984
838.3168, 22.84775
838.7990, 23.33019
839.2811, 23.83759
839.7632, 24.28710
840.2453, 24.55508
840.7274, 24.59391
841.2095, 24.54021
841.6917, 24.29943
842.1738, 24.08604
842.6559, 24.08186
843.1380, 24.38025
843.6201, 24.56934
844.1022, 24.65761
844.5844, 24.60732
845.0665, 24.24133
845.5486, 23.72143
846.0307, 23.55993
846.5128, 23.80905
846.9949, 24.03893
847.4771, 24.08524
847.9592, 23.90913
848.4413, 23.34248
848.9234, 22.19892
849.4055, 21.69203
849.8876, 22.18052
850.3698, 22.77780
850.8519, 22.95967
851.3340, 22.76263
851.8161, 22.62160
852.2982, 22.53625
852.7803, 22.48841
853.2625, 22.35208
853.7446, 22.32109
854.2267, 22.72830
854.7088, 23.53041
855.1909, 24.12195
855.6730, 24.28344
856.1552, 24.19618
856.6373, 23.85167
857.1194, 23.29932
857.6015, 22.95761
858.0836, 22.85313
858.5657, 22.73302
859.0479, 22.37635
859.5300, 21.99492
860.0121, 22.11180
860.4942, 22.58686
860.9763, 22.92885
861.4584, 22.65300
861.9406, 22.42678
862.4227, 22.63017
862.9048, 23.14212
863.3869, 23.51690
863.8690, 23.78548
864.3511, 23.83430
864.8333, 23.59803
865.3154, 23.17673
865.7975, 22.60547
866.2796, 21.98829
866.7617, 21.78816
867.2438, 22.33242
867.7260, 23.05871
868.2081, 23.82179
868.6902, 24.40635
869.1723, 24.49814
869.6544, 23.36663
870.1365, 22.69090
870.6187, 22.74641
871.1008, 23.07510
871.5829, 22.95388
872.0650, 22.42321
872.5471, 22.46618
873.0292, 23.37964
873.5114, 24.10620
873.9935, 23.02281
874.4756, 21.34740
874.9577, 20.76026
875.4399, 22.03754
875.9220, 22.93470
876.4041, 22.42994
876.8862, 21.74954
877.3683, 21.72611
877.8505, 22.50744
878.3326, 22.91078
878.8147, 22.90039
879.2968, 22.76815
879.7789, 22.71596
880.2610, 22.72870
880.7432, 22.83361
881.2253, 23.02191
881.7074, 23.08405
882.1895, 22.76097
882.6716, 22.42986
883.1537, 22.27318
883.6359, 22.28946
884.1180, 22.52890
884.6001, 23.09737
885.0822, 23.43802
885.5643, 23.10519
886.0464, 22.46243
886.5286, 22.42764
887.0107, 22.88480
887.4928, 23.35890
887.9749, 23.85412
888.4570, 24.03290
888.9391, 23.52231
889.4213, 22.54159
889.9034, 21.76760
890.3855, 21.08813
890.8676, 21.00438
891.3497, 21.86123
891.8318, 23.01598
892.3140, 23.18943
892.7961, 22.59641
893.2782, 22.08858
893.7603, 21.97375
894.2424, 21.89286
894.7245, 21.52809
895.2067, 21.06983
895.6888, 20.74804
896.1709, 20.67729
896.6530, 20.60319
897.1351, 20.41816
897.6172, 20.40009
898.0994, 21.03522
898.5815, 22.18501
899.0636, 22.79917
899.5457, 22.75981
900.0278, 22.42106
900.5099, 21.86986
900.9921, 21.28634
901.4742, 20.78890
901.9563, 20.37868
902.4384, 20.23092
902.9205, 20.41214
903.4026, 20.78366
903.8848, 21.45074
904.3669, 22.30228
904.8490, 22.28377
905.3311, 21.42565
905.8132, 20.57934
906.2953, 20.12910
906.7775, 20.03650
907.2596, 20.49448
907.7417, 21.30365
908.2238, 21.79026
908.7059, 21.53343
909.1880, 21.19548
909.6702, 20.84654
910.1523, 20.54182
910.6344, 20.45795
911.1165, 20.58934
911.5986, 20.66666
912.0807, 20.62366
912.5629, 20.48104
913.0450, 20.10705
913.5271, 19.70184
914.0092, 19.56643
914.4913, 19.88763
914.9734, 20.31603
915.4556, 20.95920
915.9377, 21.53377
916.4198, 21.76496
916.9019, 21.63660
917.3840, 21.36252
917.8661, 20.91522
918.3483, 20.68407
918.8304, 21.32742
919.3125, 22.21586
919.7946, 22.58651
920.2767, 22.35559
920.7589, 21.88948
921.2410, 20.85139
921.7231, 20.08140
922.2052, 20.01519
922.6873, 20.54494
923.1694, 20.70656
923.6516, 20.49047
924.1337, 20.18696
924.6158, 19.73529
925.0979, 19.45624
925.5800, 20.15480
926.0621, 21.35962
926.5443, 21.90104
927.0264, 20.49184
927.5085, 19.49924
927.9906, 19.58533
928.4727, 20.19543
928.9548, 20.51537
929.4370, 20.55121
929.9191, 20.03900
930.4012, 18.80851
930.8833, 17.58497
931.3654, 17.04887
931.8475, 17.08947
932.3297, 17.65714
932.8118, 18.94293
933.2939, 19.98733
933.7761, 20.47871
934.2582, 20.75077
934.7403, 20.99830
935.2224, 21.22808
935.7045, 21.12256
936.1866, 20.66847
936.6688, 20.22585
937.1509, 19.94078
937.6330, 19.87672
938.1151, 20.24563
938.5972, 20.95043
939.0793, 21.48638
939.5615, 21.83602
940.0436, 21.80236
940.5257, 21.18227
941.0078, 20.24660
941.4899, 19.76027
941.9720, 19.70813
942.4542, 19.67065
942.9363, 19.47430
943.4184, 19.37993
943.9005, 19.93455
944.3826, 20.66604
944.8647, 20.89882
945.3469, 20.06771
945.8290, 19.48761
946.3111, 19.26143
946.7932, 19.30847
947.2753, 19.66827
947.7574, 20.31866
948.2396, 20.70574
948.7217, 20.81226
949.2038, 20.73985
949.6859, 20.30082
950.1680, 19.91866
950.6501, 20.15007
951.1323, 20.96186
951.6144, 21.26465
952.0965, 20.52822
952.5786, 19.98588
953.0607, 20.09941
953.5428, 20.60398
954.0250, 20.67950
954.5071, 20.39521
954.9892, 20.14573
955.4713, 20.02058
955.9534, 20.08850
956.4355, 20.50300
956.9177, 21.10614
957.3998, 21.69438
957.8819, 22.52903
958.3640, 22.74436
958.8461, 22.11924
959.3282, 21.28115
959.8104, 20.93588
960.2925, 20.93765
960.7746, 20.82161
961.2567, 20.54816
961.7388, 20.17956
962.2209, 19.51413
962.7031, 18.96674
963.1852, 18.89802
963.6673, 19.29109
964.1494, 19.60841
964.6315, 19.87418
965.1136, 19.93557
965.5958, 19.56830
966.0779, 19.14691
966.5600, 19.67688
967.0421, 20.79973
967.5242, 21.53095
968.0063, 21.48939
968.4885, 20.99306
968.9706, 19.49909
969.4527, 17.98240
969.9348, 17.74129
970.4169, 19.16979
970.8990, 19.84206
971.3812, 19.50286
971.8633, 19.05824
972.3454, 19.82848
972.8275, 20.86542
973.3096, 20.43265
973.7917, 18.40920
974.2739, 17.05383
974.7560, 17.61076
975.2381, 18.55333
975.7202, 19.45654
976.2023, 20.25191
976.6844, 20.57346
977.1666, 20.42741
977.6487, 20.08770
978.1308, 19.50216
978.6129, 19.03712
979.0950, 19.30381
979.5771, 19.89330
980.0593, 20.13550
980.5414, 19.29169
981.0235, 18.96638
981.5056, 19.48495
981.9877, 20.14984
982.4698, 20.23865
982.9520, 19.83416
983.4341, 19.34962
983.9162, 18.81735
984.3983, 18.56977
984.8804, 19.05610
985.3625, 19.74249
985.8447, 20.42653
986.3268, 21.02862
986.8089, 20.81363
987.2910, 19.25796
987.7731, 18.42573
988.2552, 19.25101
988.7374, 20.82343
989.2195, 21.30544
989.7016, 21.00156
990.1837, 20.68596
990.6658, 20.65589
991.1479, 20.57683
991.6301, 20.15912
992.1122, 19.72908
992.5944, 19.61567
993.0765, 19.88583
993.5586, 20.14341
994.0407, 20.39607
994.5228, 20.54283
995.0049, 20.26990
995.4871, 19.98056
995.9692, 20.42344
996.4513, 21.46961
996.9334, 22.06639
997.4155, 21.58671
997.8976, 20.94544
998.3798, 20.24010
998.8619, 19.59747
999.3440, 19.31272
999.8261, 19.37108
1000.308, 19.70871
1000.790, 20.44793
1001.272, 20.98900
1001.755, 20.69538
1002.237, 20.01487
1002.719, 19.38508
1003.201, 18.77994
1003.683, 18.52841
1004.165, 18.70612
1004.647, 19.04290
1005.129, 19.56937
1005.612, 20.07987
1006.094, 19.68158
1006.576, 18.62655
1007.058, 18.08393
1007.540, 19.21898
1008.022, 20.36589
1008.504, 20.83972
1008.986, 20.88936
1009.468, 20.91386
1009.951, 20.91597
1010.433, 20.85506
1010.915, 20.71142
1011.397, 20.56352
1011.879, 20.63575
1012.361, 20.68433
1012.843, 20.30724
1013.325, 19.36788
1013.807, 18.70949
1014.290, 18.33324
1014.772, 18.48853
1015.254, 19.60097
1015.736, 21.24828
1016.218, 21.57364
1016.700, 20.76855
1017.182, 19.93026
1017.664, 19.46636
1018.147, 19.22963
1018.629, 19.11494
1019.111, 19.17790
1019.593, 19.52309
1020.075, 20.28558
1020.557, 20.97648
1021.039, 21.65929
1021.521, 21.93982
1022.003, 21.05165
1022.486, 19.66356
1022.968, 18.94587
1023.450, 18.93770
1023.932, 19.22648
1024.414, 20.15549
1024.896, 20.74104
1025.378, 20.49235
1025.860, 19.78024
1026.343, 19.80031
1026.825, 20.47822
1027.307, 20.71338
1027.789, 20.05660
1028.271, 19.36128
1028.753, 19.34378
1029.235, 19.73236
1029.717, 20.38190
1030.199, 21.66529
1030.682, 21.51284
1031.164, 19.31564
1031.646, 17.38137
1032.128, 17.40057
1032.610, 18.62778
1033.092, 19.14869
1033.574, 19.16380
1034.056, 19.39273
1034.539, 20.72397
1035.021, 21.62645
1035.503, 21.35905
1035.985, 20.57911
1036.467, 19.99065
1036.949, 19.58654
1037.431, 20.07136
1037.913, 21.63662
1038.396, 22.89160
1038.878, 22.32538
1039.360, 21.06120
1039.842, 19.91359
1040.324, 18.99487
1040.806, 18.97229
1041.288, 20.50091
1041.770, 21.36613
1042.252, 20.67814
1042.734, 19.18307
1043.217, 18.08851
1043.699, 17.46147
1044.181, 17.54700
1044.663, 18.79932
1045.145, 19.86472
1045.627, 20.18288
1046.109, 20.12883
1046.591, 19.83094
1047.074, 19.25467
1047.556, 19.55085
1048.038, 20.72531
1048.520, 21.65255
1049.002, 21.53129
1049.484, 20.88207
1049.966, 19.71944
1050.448, 18.40088
1050.931, 17.96009
1051.413, 18.96852
1051.895, 19.73775
1052.377, 20.06891
1052.859, 20.15488
1053.341, 20.13692
1053.823, 20.08438
1054.305, 20.22349
1054.787, 20.58088
1055.270, 20.73566
1055.752, 20.35177
1056.234, 19.86013
1056.716, 19.31399
1057.198, 18.84293
1057.680, 19.21478
1058.162, 20.34530
1058.644, 20.84767
1059.126, 20.04564
1059.609, 19.06347
1060.091, 18.94810
1060.573, 19.18734
1061.055, 19.17468
1061.537, 18.70306
1062.019, 18.61048
1062.501, 18.97672
1062.983, 19.43072
1063.466, 19.73336
1063.948, 19.95424
1064.430, 20.27700
1064.912, 20.63572
1065.394, 20.83270
1065.876, 20.64633
1066.358, 20.47751
1066.840, 20.36416
1067.323, 20.33102
1067.805, 20.47945
1068.287, 20.76225
1068.769, 20.85836
1069.251, 20.74135
1069.733, 20.40411
1070.215, 19.37398
1070.697, 18.54676
1071.179, 18.73569
1071.661, 19.68164
1072.144, 20.34481
1072.626, 20.73767
1073.108, 20.61811
1073.590, 19.73024
1074.072, 18.89637
1074.554, 19.51973
1075.036, 20.65839
1075.518, 20.92839
1076.001, 19.74911
1076.483, 19.39027
1076.965, 20.47145
1077.447, 21.42278
1077.929, 21.31715
1078.411, 20.56672
1078.893, 20.35978
1079.375, 20.54683
1079.858, 20.64688
1080.340, 20.51519
1080.822, 20.18870
1081.304, 19.43015
1081.786, 18.66511
1082.268, 18.31014
1082.750, 18.37514
1083.232, 18.37433
1083.714, 18.29968
1084.197, 18.45092
1084.679, 19.38535
1085.161, 20.31245
1085.643, 20.45345
1086.125, 20.09018
1086.607, 20.33590
1087.089, 21.67065
1087.571, 21.78343
1088.054, 20.03460
1088.536, 18.14598
1089.018, 18.48723
1089.500, 19.81596
1089.982, 20.31749
1090.464, 19.78024
1090.946, 19.22645
1091.428, 18.67828
1091.911, 18.45453
1092.393, 18.76183
1092.875, 19.34463
1093.357, 19.69162
1093.839, 19.79498
1094.321, 19.53295
1094.803, 18.61954
1095.285, 18.16341
1095.767, 19.33921
1096.250, 20.56686
1096.732, 20.69983
1097.214, 19.81120
1097.696, 19.38504
1098.178, 19.40862
1098.660, 19.63723
1099.142, 20.24908
1099.624, 20.65601
1100.106, 20.12262
1100.589, 19.20142
1101.071, 18.77333
1101.553, 18.97581
1102.035, 19.40620
1102.517, 20.14767
1102.999, 20.59874
1103.481, 19.84998
1103.963, 18.77389
1104.446, 18.60732
1104.928, 19.18396
1105.410, 19.66311
1105.892, 19.87293
1106.374, 19.90885
1106.856, 19.68605
1107.338, 19.47735
1107.820, 19.87152
1108.302, 20.51956
1108.785, 20.43693
1109.267, 19.51539
1109.749, 18.84934
1110.231, 19.30814
1110.713, 19.61493
1111.195, 19.09604
1111.677, 18.23038
1112.159, 18.64452
1112.641, 20.05700
1113.124, 20.59461
1113.606, 19.58317
1114.088, 18.53524
1114.570, 18.54578
1115.052, 18.87515
1115.534, 18.94834
1116.016, 18.76769
1116.498, 18.61444
1116.981, 18.48249
1117.463, 18.54356
1117.945, 18.95169
1118.427, 19.45792
1118.909, 19.97827
1119.391, 20.36862
1119.873, 20.38952
1120.355, 19.90725
1120.838, 19.36952
1121.320, 18.71866
1121.802, 18.26050
1122.284, 18.38581
1122.766, 18.72242
1123.248, 18.63313
1123.730, 18.28431
1124.212, 18.13093
1124.694, 18.42788
1125.177, 18.77811
1125.659, 19.20525
1126.141, 19.57793
1126.623, 19.88471
1127.105, 19.99839
1127.587, 19.25674
1128.069, 17.81797
1128.551, 17.05626
1129.033, 18.32293
1129.516, 19.41914
1129.998, 19.67915
1130.480, 19.50116
1130.962, 19.55395
1131.444, 19.77981
1131.926, 19.93482
1132.408, 19.99389
1132.890, 19.76529
1133.373, 18.50642
1133.855, 17.57063
1134.337, 17.99551
1134.819, 19.28036
1135.301, 19.67899
1135.783, 19.21534
1136.265, 18.57489
1136.747, 17.85032
1137.229, 17.33110
1137.712, 17.26173
1138.194, 17.50724
1138.676, 18.09413
1139.158, 19.00467
1139.640, 19.46756
1140.122, 19.45945
1140.604, 19.22597
1141.086, 18.71546
1141.569, 18.30184
1142.051, 18.60446
1142.533, 19.16256
1143.015, 19.31334
1143.497, 18.76547
1143.979, 18.52061
1144.461, 18.65513
1144.943, 18.79287
1145.426, 18.57535
1145.908, 18.32961
1146.390, 18.73200
1146.872, 19.48775
1147.354, 19.98517
1147.836, 20.10788
1148.318, 19.74038
1148.800, 18.62299
1149.282, 17.62959
1149.765, 17.82678
1150.247, 18.56653
1150.729, 18.07957
1151.211, 16.71834
1151.693, 16.06355
1152.175, 17.41433
1152.657, 18.60385
1153.139, 19.36798
1153.621, 19.71164
1154.104, 19.49257
1154.586, 18.86793
1155.068, 18.25684
1155.550, 17.71307
1156.032, 17.50805
1156.514, 18.04957
1156.996, 18.62833
1157.478, 19.12839
1157.961, 19.43035
1158.443, 19.23000
1158.925, 18.61337
1159.407, 17.99091
1159.889, 17.41536
1160.371, 17.11214
1160.853, 17.35560
1161.335, 17.78312
1161.818, 18.32382
1162.300, 18.85331
1162.782, 18.98310
1163.264, 18.73637
1163.746, 18.37996
1164.228, 17.94298
1164.710, 17.57748
1165.192, 17.18751
1165.674, 17.10715
1166.156, 17.83184
1166.639, 19.13534
1167.121, 19.54055
1167.603, 19.04988
1168.085, 18.44639
1168.567, 17.87726
1169.049, 17.56673
1169.531, 17.85867
1170.013, 18.40411
1170.496, 18.97460
1170.978, 19.56684
1171.460, 19.43441
1171.942, 18.52328
1172.424, 17.85286
1172.906, 17.92068
1173.388, 18.34514
1173.870, 19.07755
1174.353, 19.76978
1174.835, 19.85169
1175.317, 19.13744
1175.799, 18.91378
1176.281, 19.25853
1176.763, 19.44695
1177.245, 18.82968
1177.727, 18.10718
1178.209, 17.98655
1178.692, 18.34525
1179.174, 19.08640
1179.656, 20.77460
1180.138, 21.02026
1180.620, 19.54839
1181.102, 18.05354
1181.584, 17.92297
1182.066, 18.33782
1182.548, 18.23847
1183.031, 17.86342
1183.513, 17.80081
1183.995, 18.22790
1184.477, 18.83585
1184.959, 19.72900
1185.441, 20.36525
1185.923, 19.99896
1186.405, 19.26554
1186.888, 19.15277
1187.370, 18.75175
1187.852, 18.31806
1188.334, 18.38641
1188.816, 17.84153
1189.298, 17.92946
1189.780, 18.31186
1190.262, 18.80310
1190.745, 19.27217
1191.227, 19.57780
1191.709, 19.68816
1192.191, 19.46985
1192.673, 18.64834
1193.155, 17.98895
1193.637, 17.59398
1194.119, 17.37846
1194.601, 17.16406
1195.084, 17.09311
1195.566, 17.55096
1196.048, 18.48858
1196.530, 19.09279
1197.012, 19.07524
1197.494, 18.98017
1197.976, 18.86044
1198.458, 18.81615
1198.941, 19.35593
1199.423, 19.90616
1199.905, 19.07205
1200.387, 16.77586
1200.869, 15.75265
1201.351, 17.46891
1201.833, 18.47366
1202.315, 17.68049
1202.797, 16.31163
1203.280, 16.32293
1203.762, 17.15767
1204.244, 17.99146
1204.726, 18.71458
1205.208, 18.91746
1205.690, 18.18256
1206.172, 17.69521
1206.654, 17.90111
1207.136, 18.36041
1207.619, 18.18718
1208.101, 17.75681
1208.583, 17.82907
1209.065, 18.64765
1209.547, 19.02865
1210.029, 18.63391
1210.511, 18.17667
1210.993, 17.82188
1211.476, 17.68025
1211.958, 18.22048
1212.440, 19.01987
1212.922, 19.21320
1213.404, 18.44961
1213.886, 18.11761
1214.368, 18.57418
1214.850, 18.94956
1215.333, 18.84641
1215.815, 18.51190
1216.297, 18.30496
1216.779, 18.22705
1217.261, 18.29859
1217.743, 18.57276
1218.225, 18.80578
1218.707, 18.96162
1219.189, 19.12953
1219.672, 19.45281
1220.154, 19.68185
1220.636, 19.11158
1221.118, 18.19381
1221.600, 17.79005
1222.082, 18.39472
1222.564, 18.53041
1223.046, 17.94636
1223.528, 17.45832
1224.011, 17.55481
1224.493, 17.91848
1224.975, 17.98824
1225.457, 17.93958
1225.939, 18.10232
1226.421, 18.70351
1226.903, 19.10996
1227.385, 19.33368
1227.868, 19.28250
1228.350, 18.68527
1228.832, 18.02950
1229.314, 18.32049
1229.796, 19.00010
1230.278, 19.08655
1230.760, 18.13925
1231.242, 17.21433
1231.724, 16.20329
1232.207, 15.71384
1232.689, 16.37631
1233.171, 17.46998
1233.653, 18.24934
1234.135, 18.74325
1234.617, 18.99928
1235.099, 19.03535
1235.581, 18.75621
1236.063, 18.09664
1236.546, 17.59062
1237.028, 17.61708
1237.510, 17.91849
1237.992, 18.26369
1238.474, 18.68494
1238.956, 19.31436
1239.438, 20.39472
1239.920, 20.57855
1240.403, 19.80724
1240.885, 18.91623
1241.367, 18.38472
1241.849, 18.02339
1242.331, 17.70993
1242.813, 17.45222
1243.295, 17.26068
1243.777, 17.13003
1244.260, 17.07049
1244.742, 17.08106
1245.224, 17.16146
1245.706, 17.25715
1246.188, 17.48175
1246.670, 18.29541
1247.152, 19.04651
1247.634, 18.75149
1248.116, 17.27665
1248.599, 16.66333
1249.081, 16.89011
1249.563, 17.44320
1250.045, 18.42488
1250.527, 19.17371
1251.009, 19.24982
1251.491, 18.96247
1251.973, 18.52517
1252.455, 17.95729
1252.938, 17.72700
1253.420, 17.82134
1253.902, 18.08619
1254.384, 18.49455
1254.866, 18.99564
1255.348, 19.81930
1255.830, 20.48024
1256.313, 20.42963
1256.795, 19.79407
1257.277, 19.34293
1257.759, 19.05334
1258.241, 18.77202
1258.723, 18.09195
1259.205, 17.94327
1259.687, 18.78943
1260.169, 19.71564
1260.651, 19.92438
1261.134, 19.56833
1261.616, 18.94644
1262.098, 18.18317
1262.580, 17.66778
1263.062, 17.66718
1263.544, 17.76160
1264.026, 17.90961
1264.508, 18.13827
1264.991, 18.72134
1265.473, 19.26284
1265.955, 18.71120
1266.437, 17.49990
1266.919, 16.78534
1267.401, 17.19812
1267.883, 17.54032
1268.365, 17.79809
1268.848, 17.97241
1269.330, 17.97670
1269.812, 17.96383
1270.294, 18.22063
1270.776, 18.59467
1271.258, 18.72244
1271.740, 18.47718
1272.222, 18.31921
1272.704, 18.25557
1273.187, 18.27543
1273.669, 18.46565
1274.151, 18.64231
1274.633, 18.51183
1275.115, 18.32581
1275.597, 18.54008
1276.079, 19.27871
1276.561, 19.52282
1277.043, 19.27998
1277.526, 18.94597
1278.008, 18.54479
1278.490, 18.37638
1278.972, 19.03207
1279.454, 19.70233
1279.936, 19.44759
1280.418, 18.31574
1280.900, 17.53100
1281.383, 17.10728
1281.865, 17.10854
1282.347, 17.96694
1282.829, 18.69592
1283.311, 19.07921
1283.793, 19.08359
1284.275, 18.37969
1284.757, 17.29431
1285.240, 17.46629
1285.722, 18.48011
1286.204, 18.95345
1286.686, 17.57648
1287.168, 17.13626
1287.650, 18.27813
1288.132, 19.52189
1288.614, 19.81053
1289.096, 19.53318
1289.578, 19.46655
1290.061, 19.45694
1290.543, 19.17295
1291.025, 18.36787
1291.507, 17.58181
1291.989, 16.69397
1292.471, 16.42389
1292.953, 17.60028
1293.435, 19.07198
1293.918, 19.64064
1294.400, 19.52041
1294.882, 18.81430
1295.364, 17.40863
1295.846, 17.08484
1296.328, 17.86256
1296.810, 18.60568
1297.292, 18.74218
1297.775, 18.73140
1298.257, 19.00532
1298.739, 19.21188
1299.221, 18.89511
1299.703, 18.17129
1300.185, 18.42248
1300.667, 19.47418
1301.149, 20.33356
1301.631, 20.75556
1302.114, 20.56887
1302.596, 19.67925
##END=



