##NAMES=Fettelite
##RRUFFID=R100124
##IDEAL CHEMISTRY=Ag_16_HgAs_4_S_15_
##LOCALITY=Nieder-Berbach, Odenwald, Germany
##OWNER=RRUFF
##SOURCE=William W. Pinch
##DESCRIPTION=Dark reddish thin platy crystals associated with proustite and xanthoconite.
##STATUS=The identification of this mineral is confirmed by single-crystal X-ray diffraction and chemical analysis.
##URL=rruff.info/R100124
##MEASURED CHEMISTRY=Ag_17.81_Fe_0.97_Hg_0.55_Cu_0.01_Sb_0.05_As_3.34_S_15_
90.60547, 3404.966
91.08759, 3406.819
91.56970, 3435.643
92.05182, 3445.251
92.53394, 3468.522
93.01605, 3479.759
93.49817, 3474.633
93.98029, 3458.541
94.46240, 3432.671
94.94452, 3393.091
95.42664, 3348.085
95.90874, 3303.455
96.39086, 3260.222
96.87298, 3217.828
97.35509, 3172.953
97.83721, 3119.474
98.31933, 3069.782
98.80145, 3024.361
99.28356, 2982.155
99.76568, 2942.875
100.2478, 2906.069
100.7299, 2871.567
101.2120, 2839.640
101.6941, 2808.971
102.1763, 2782.060
102.6584, 2758.787
103.1405, 2738.828
103.6226, 2722.058
104.1047, 2708.280
104.5868, 2697.412
105.0690, 2688.787
105.5511, 2682.155
106.0332, 2676.996
106.5153, 2672.465
106.9974, 2668.692
107.4795, 2667.159
107.9617, 2669.169
108.4438, 2674.428
108.9259, 2681.496
109.4080, 2691.290
109.8901, 2702.371
110.3722, 2712.511
110.8544, 2720.904
111.3365, 2730.131
111.8186, 2742.772
112.3007, 2757.437
112.7828, 2771.455
113.2649, 2782.858
113.7471, 2791.890
114.2292, 2801.227
114.7113, 2811.270
115.1934, 2821.344
115.6755, 2831.497
116.1576, 2841.547
116.6397, 2851.102
117.1219, 2859.871
117.6040, 2867.980
118.0861, 2874.710
118.5682, 2880.468
119.0503, 2884.864
119.5324, 2887.427
120.0146, 2888.141
120.4967, 2887.538
120.9788, 2886.499
121.4609, 2885.060
121.9430, 2882.905
122.4251, 2879.418
122.9073, 2875.383
123.3894, 2871.948
123.8715, 2869.653
124.3536, 2867.726
124.8357, 2863.740
125.3178, 2855.867
125.8000, 2849.993
126.2821, 2849.113
126.7642, 2852.322
127.2463, 2856.261
127.7284, 2859.420
128.2105, 2862.577
128.6927, 2866.982
129.1748, 2872.977
129.6569, 2879.781
130.1390, 2886.646
130.6211, 2893.510
131.1032, 2900.862
131.5854, 2909.095
132.0675, 2917.926
132.5496, 2927.137
133.0317, 2936.669
133.5138, 2946.535
133.9959, 2956.977
134.4781, 2968.734
134.9602, 2979.933
135.4423, 2990.216
135.9244, 2999.702
136.4065, 3008.448
136.8886, 3016.470
137.3708, 3023.846
137.8529, 3031.036
138.3350, 3038.303
138.8171, 3045.123
139.2992, 3051.054
139.7813, 3056.402
140.2635, 3061.860
140.7456, 3068.018
141.2277, 3075.020
141.7098, 3081.621
142.1919, 3087.692
142.6740, 3093.558
143.1561, 3099.519
143.6383, 3105.537
144.1204, 3111.302
144.6025, 3116.759
145.0846, 3121.976
145.5667, 3124.935
146.0488, 3125.672
146.5310, 3124.060
147.0131, 3119.930
147.4952, 3113.211
147.9773, 3104.131
148.4594, 3091.938
148.9415, 3077.195
149.4237, 3061.507
149.9058, 3046.342
150.3879, 3030.745
150.8700, 3012.235
151.3521, 2989.654
151.8342, 2964.453
152.3164, 2937.797
152.7985, 2909.886
153.2806, 2881.250
153.7627, 2852.686
154.2448, 2824.157
154.7269, 2794.189
155.2091, 2759.084
155.6912, 2725.306
156.1733, 2697.188
156.6554, 2674.568
157.1375, 2653.542
157.6196, 2629.017
158.1018, 2599.132
158.5839, 2571.188
159.0660, 2544.606
159.5481, 2520.340
160.0302, 2499.389
160.5123, 2481.905
160.9945, 2467.113
161.4766, 2453.908
161.9587, 2443.392
162.4408, 2432.791
162.9229, 2421.179
163.4050, 2409.921
163.8871, 2400.327
164.3693, 2392.852
164.8514, 2387.132
165.3335, 2382.375
165.8156, 2378.497
166.2977, 2375.738
166.7798, 2374.404
167.2620, 2374.159
167.7441, 2374.671
168.2262, 2375.923
168.7083, 2377.564
169.1904, 2378.364
169.6725, 2376.941
170.1547, 2377.150
170.6368, 2381.774
171.1189, 2389.601
171.6010, 2396.466
172.0831, 2400.411
172.5652, 2402.200
173.0474, 2403.833
173.5295, 2404.982
174.0116, 2406.575
174.4937, 2409.587
174.9758, 2414.021
175.4579, 2418.341
175.9401, 2421.508
176.4222, 2424.437
176.9043, 2428.183
177.3864, 2433.168
177.8685, 2438.509
178.3506, 2443.073
178.8328, 2446.661
179.3149, 2450.205
179.7970, 2453.534
180.2791, 2457.188
180.7612, 2461.583
181.2433, 2466.860
181.7255, 2473.071
182.2076, 2480.336
182.6897, 2488.624
183.1718, 2498.202
183.6539, 2509.034
184.1360, 2520.912
184.6181, 2533.583
185.1003, 2546.935
185.5824, 2561.102
186.0645, 2575.821
186.5466, 2591.696
187.0287, 2608.113
187.5108, 2625.347
187.9930, 2642.876
188.4751, 2660.125
188.9572, 2676.701
189.4393, 2692.656
189.9214, 2708.038
190.4035, 2720.433
190.8857, 2734.911
191.3678, 2753.407
191.8499, 2774.512
192.3320, 2796.198
192.8141, 2817.496
193.2962, 2838.149
193.7784, 2856.195
194.2605, 2870.636
194.7426, 2884.249
195.2247, 2897.690
195.7068, 2911.028
196.1889, 2924.258
196.6711, 2937.076
197.1532, 2949.946
197.6353, 2964.805
198.1174, 2982.781
198.5995, 3001.508
199.0816, 3018.430
199.5638, 3034.269
200.0459, 3053.632
200.5280, 3079.946
201.0101, 3112.208
201.4922, 3145.104
201.9743, 3179.020
202.4565, 3213.182
202.9386, 3246.168
203.4207, 3277.958
203.9028, 3311.891
204.3849, 3350.063
204.8670, 3391.565
205.3492, 3434.995
205.8313, 3480.724
206.3134, 3527.538
206.7955, 3573.198
207.2776, 3617.114
207.7597, 3662.646
208.2419, 3711.687
208.7240, 3763.101
209.2061, 3815.925
209.6882, 3869.973
210.1703, 3925.090
210.6524, 3981.370
211.1346, 4039.012
211.6167, 4096.370
212.0988, 4153.035
212.5809, 4208.875
213.0630, 4264.198
213.5451, 4318.834
214.0273, 4372.794
214.5094, 4425.928
214.9915, 4478.618
215.4736, 4529.632
215.9557, 4580.391
216.4378, 4629.138
216.9200, 4674.034
217.4021, 4713.927
217.8842, 4750.578
218.3663, 4788.688
218.8484, 4832.866
219.3305, 4871.318
219.8127, 4900.847
220.2948, 4925.407
220.7769, 4949.128
221.2590, 4973.891
221.7411, 4998.832
222.2232, 5021.416
222.7054, 5041.478
223.1875, 5058.868
223.6696, 5072.278
224.1517, 5083.528
224.6338, 5094.459
225.1159, 5105.932
225.5980, 5117.722
226.0802, 5129.196
226.5623, 5139.932
227.0444, 5150.806
227.5265, 5163.780
228.0086, 5176.387
228.4907, 5184.979
228.9729, 5187.944
229.4550, 5187.009
229.9371, 5186.515
230.4192, 5188.411
230.9013, 5187.774
231.3834, 5184.969
231.8656, 5178.919
232.3477, 5167.780
232.8298, 5150.685
233.3119, 5128.875
233.7940, 5103.893
234.2761, 5074.628
234.7583, 5045.805
235.2404, 5020.733
235.7225, 4996.568
236.2046, 4967.593
236.6867, 4930.977
237.1688, 4890.753
237.6510, 4853.258
238.1331, 4818.786
238.6152, 4784.766
239.0973, 4750.133
239.5794, 4715.308
240.0615, 4680.649
240.5437, 4644.818
241.0258, 4611.951
241.5079, 4588.378
241.9900, 4573.643
242.4721, 4560.669
242.9542, 4548.083
243.4364, 4535.155
243.9185, 4519.193
244.4006, 4497.820
244.8827, 4476.913
245.3648, 4462.204
245.8469, 4453.081
246.3290, 4446.837
246.8112, 4442.527
247.2933, 4440.131
247.7754, 4439.538
248.2575, 4440.818
248.7396, 4443.972
249.2217, 4448.383
249.7039, 4454.204
250.1860, 4462.304
250.6681, 4473.221
251.1502, 4486.768
251.6323, 4502.274
252.1144, 4518.794
252.5966, 4539.049
253.0787, 4563.896
253.5608, 4592.922
254.0429, 4625.740
254.5250, 4662.093
255.0071, 4701.897
255.4893, 4745.292
255.9714, 4792.192
256.4535, 4843.203
256.9356, 4899.108
257.4177, 4958.330
257.8998, 5018.993
258.3820, 5080.532
258.8641, 5142.260
259.3462, 5201.553
259.8283, 5257.078
260.3104, 5312.154
260.7925, 5370.972
261.2747, 5429.726
261.7568, 5483.305
262.2389, 5529.445
262.7210, 5569.010
263.2031, 5605.067
263.6852, 5637.685
264.1674, 5666.067
264.6495, 5688.140
265.1316, 5707.409
265.6137, 5727.524
266.0958, 5750.096
266.5779, 5773.833
267.0601, 5795.758
267.5422, 5815.970
268.0243, 5833.746
268.5064, 5848.256
268.9885, 5861.181
269.4706, 5873.737
269.9528, 5886.393
270.4349, 5899.081
270.9170, 5911.536
271.3991, 5922.787
271.8812, 5935.700
272.3633, 5951.118
272.8455, 5967.515
273.3276, 5983.616
273.8097, 5999.173
274.2918, 6014.792
274.7739, 6031.768
275.2560, 6052.335
275.7382, 6069.260
276.2202, 6082.069
276.7024, 6092.460
277.1845, 6102.311
277.6666, 6111.447
278.1487, 6117.569
278.6308, 6117.850
279.1129, 6111.489
279.5951, 6101.474
280.0772, 6084.951
280.5593, 6067.863
281.0414, 6052.722
281.5235, 6039.897
282.0056, 6028.790
282.4878, 6018.819
282.9699, 6009.822
283.4520, 6003.050
283.9341, 5996.551
284.4162, 5993.716
284.8983, 5998.614
285.3805, 6008.792
285.8626, 6018.818
286.3447, 6025.240
286.8268, 6027.974
287.3089, 6020.096
287.7910, 6002.695
288.2732, 5974.837
288.7553, 5936.628
289.2374, 5887.602
289.7195, 5827.830
290.2016, 5757.587
290.6837, 5676.396
291.1659, 5577.923
291.6480, 5454.542
292.1301, 5323.591
292.6122, 5185.815
293.0943, 5042.497
293.5764, 4894.872
294.0586, 4742.715
294.5407, 4587.250
295.0228, 4431.032
295.5049, 4269.527
295.9870, 4112.805
296.4691, 3957.918
296.9513, 3809.434
297.4334, 3672.379
297.9155, 3548.913
298.3976, 3435.967
298.8797, 3328.939
299.3618, 3228.223
299.8440, 3134.340
300.3261, 3047.781
300.8082, 2968.196
301.2903, 2894.823
301.7724, 2827.800
302.2545, 2766.479
302.7367, 2709.717
303.2188, 2657.852
303.7009, 2611.972
304.1830, 2574.038
304.6651, 2539.603
305.1472, 2505.055
305.6294, 2470.825
306.1115, 2440.381
306.5936, 2416.749
307.0757, 2400.143
307.5578, 2387.695
308.0399, 2380.134
308.5221, 2375.109
309.0042, 2372.075
309.4863, 2370.792
309.9684, 2371.142
310.4505, 2373.199
310.9326, 2376.715
311.4148, 2379.906
311.8969, 2382.855
312.3790, 2385.480
312.8611, 2387.667
313.3432, 2389.536
313.8253, 2391.415
314.3075, 2393.484
314.7896, 2395.388
315.2717, 2396.138
315.7538, 2393.892
316.2359, 2393.191
316.7180, 2394.342
317.2001, 2397.241
317.6823, 2401.203
318.1644, 2406.131
318.6465, 2413.614
319.1286, 2426.156
319.6107, 2445.413
320.0928, 2466.576
320.5750, 2490.015
321.0571, 2515.078
321.5392, 2540.975
322.0213, 2567.685
322.5034, 2596.598
322.9855, 2629.073
323.4677, 2665.967
323.9498, 2702.231
324.4319, 2736.506
324.9140, 2771.545
325.3961, 2810.614
325.8782, 2852.015
326.3604, 2891.541
326.8425, 2926.575
327.3246, 2956.982
327.8067, 2981.430
328.2888, 2999.511
328.7709, 3013.210
329.2531, 3020.289
329.7352, 3023.738
330.2173, 3027.232
330.6994, 3032.300
331.1815, 3040.206
331.6636, 3054.555
332.1458, 3077.032
332.6279, 3104.608
333.1100, 3135.714
333.5921, 3172.442
334.0742, 3216.795
334.5563, 3269.117
335.0385, 3329.673
335.5206, 3398.373
336.0027, 3476.433
336.4848, 3561.880
336.9669, 3656.647
337.4490, 3757.064
337.9312, 3860.407
338.4133, 3967.195
338.8954, 4079.585
339.3775, 4200.122
339.8596, 4329.811
340.3417, 4458.372
340.8239, 4591.547
341.3060, 4717.669
341.7881, 4839.541
342.2702, 4951.105
342.7523, 5043.229
343.2344, 5111.147
343.7166, 5152.251
344.1987, 5152.630
344.6808, 5104.471
345.1629, 5018.102
345.6450, 4888.039
346.1271, 4722.786
346.6093, 4526.171
347.0914, 4301.990
347.5735, 4058.250
348.0556, 3812.831
348.5377, 3555.375
349.0198, 3314.266
349.5020, 3087.690
349.9841, 2875.854
350.4662, 2681.206
350.9483, 2504.098
351.4304, 2342.864
351.9125, 2197.362
352.3947, 2068.556
352.8768, 1950.927
353.3589, 1846.466
353.8410, 1751.251
354.3231, 1665.484
354.8052, 1588.199
355.2874, 1517.498
355.7695, 1452.568
356.2516, 1393.384
356.7337, 1338.284
357.2158, 1287.198
357.6979, 1241.034
358.1800, 1199.490
358.6621, 1162.639
359.1443, 1131.391
359.6264, 1105.897
360.1085, 1084.416
360.5906, 1063.703
361.0727, 1043.545
361.5548, 1024.778
362.0370, 1007.525
362.5191, 991.5770
363.0012, 977.4062
363.4833, 964.6595
363.9654, 952.1862
364.4475, 938.9567
364.9297, 924.9750
365.4118, 910.1369
365.8939, 894.3819
366.3760, 877.7079
366.8581, 859.9494
367.3402, 841.3779
367.8224, 822.4526
368.3045, 803.4697
368.7866, 784.4551
369.2687, 765.3517
369.7508, 745.9713
370.2329, 727.0269
370.7151, 708.1100
371.1972, 689.9732
371.6793, 673.2268
372.1614, 658.2291
372.6435, 644.3681
373.1256, 630.9974
373.6078, 618.1114
374.0899, 606.1428
374.5720, 595.3474
375.0541, 585.4493
375.5362, 576.3531
376.0183, 567.9620
376.5005, 559.9266
376.9826, 551.7947
377.4647, 543.7742
377.9468, 536.5854
378.4289, 530.3349
378.9110, 524.7955
379.3932, 520.4509
379.8753, 516.6354
380.3574, 511.9740
380.8395, 505.3471
381.3216, 498.3138
381.8037, 492.9087
382.2859, 489.1480
382.7680, 485.6668
383.2501, 481.9329
383.7322, 478.1257
384.2143, 474.5951
384.6964, 471.5458
385.1786, 468.1455
385.6607, 463.5761
386.1428, 458.3189
386.6249, 453.5616
387.1070, 449.5580
387.5891, 446.2289
388.0713, 443.7507
388.5534, 442.0386
389.0355, 440.2172
389.5176, 438.0002
389.9997, 435.6630
390.4818, 433.6296
390.9640, 431.8694
391.4461, 429.6986
391.9282, 426.4100
392.4103, 422.3469
392.8924, 419.3373
393.3745, 417.6934
393.8567, 416.6439
394.3388, 416.5712
394.8209, 416.8073
395.3030, 415.8411
395.7851, 412.9882
396.2672, 409.3892
396.7494, 407.1055
397.2315, 407.0049
397.7136, 406.1656
398.1957, 403.7624
398.6778, 401.0324
399.1599, 398.9366
399.6420, 397.5818
400.1241, 396.6552
400.6063, 395.9717
401.0884, 395.5547
401.5705, 394.4747
402.0526, 391.9931
402.5347, 389.7682
403.0168, 388.3339
403.4990, 387.4886
403.9811, 386.9541
404.4632, 386.6074
404.9453, 386.3177
405.4274, 385.7663
405.9095, 384.8970
406.3917, 383.8432
406.8738, 382.7604
407.3559, 381.4204
407.8380, 379.2751
408.3201, 376.5032
408.8022, 374.1469
409.2844, 373.3673
409.7665, 374.2885
410.2486, 374.8492
410.7307, 374.8948
411.2128, 374.7022
411.6949, 374.2755
412.1771, 373.6797
412.6592, 372.9785
413.1413, 372.1816
413.6234, 371.3670
414.1055, 370.7423
414.5876, 370.4086
415.0698, 369.9459
415.5519, 369.1234
416.0340, 368.2294
416.5161, 367.4806
416.9982, 366.8916
417.4803, 366.2946
417.9625, 365.3576
418.4446, 364.2018
418.9267, 363.7868
419.4088, 364.7486
419.8909, 365.4139
420.3730, 364.0211
420.8552, 361.6070
421.3373, 360.3994
421.8194, 361.9050
422.3015, 364.1436
422.7836, 364.7444
423.2657, 363.7201
423.7479, 362.2321
424.2300, 360.3627
424.7121, 358.6151
425.1942, 357.7368
425.6763, 357.8339
426.1584, 358.2035
426.6406, 358.7223
427.1227, 359.2710
427.6048, 359.7437
428.0869, 360.1514
428.5690, 360.1318
429.0511, 359.1273
429.5333, 357.1591
430.0154, 356.0128
430.4975, 356.3744
430.9796, 356.9175
431.4617, 356.9027
431.9438, 356.4724
432.4260, 356.0251
432.9081, 355.7323
433.3902, 355.6009
433.8723, 355.6898
434.3544, 356.6594
434.8365, 356.7031
435.3187, 354.7929
435.8008, 352.5753
436.2829, 351.3925
436.7650, 351.3858
437.2471, 351.9721
437.7292, 352.6935
438.2114, 353.5680
438.6935, 353.9449
439.1756, 353.2628
439.6577, 352.7039
440.1398, 352.7744
440.6219, 353.0529
441.1040, 352.8232
441.5862, 351.7901
442.0683, 350.5712
442.5504, 350.4255
443.0325, 351.8573
443.5146, 352.8177
443.9967, 353.0748
444.4789, 352.8648
444.9610, 351.9727
445.4431, 350.6325
445.9252, 349.5351
446.4073, 349.1979
446.8894, 349.5001
447.3716, 350.0651
447.8537, 351.0743
448.3358, 351.8853
448.8179, 352.2019
449.3000, 352.1767
449.7821, 351.8331
450.2643, 351.0768
450.7464, 350.4685
451.2285, 350.8013
451.7106, 351.8075
452.1927, 351.9763
452.6748, 350.6313
453.1570, 349.1672
453.6391, 349.2794
454.1212, 350.6098
454.6033, 351.5772
455.0854, 351.8409
455.5675, 351.5704
456.0497, 350.5640
456.5318, 349.0087
457.0139, 347.9663
457.4960, 348.1035
457.9781, 348.9479
458.4602, 349.2012
458.9424, 348.6352
459.4245, 348.0794
459.9066, 347.6911
460.3887, 347.3756
460.8708, 347.1164
461.3529, 346.8728
461.8351, 346.4477
462.3172, 345.6157
462.7993, 344.3629
463.2814, 343.2721
463.7635, 341.9659
464.2456, 341.2354
464.7278, 341.8205
465.2099, 342.9177
465.6920, 343.3712
466.1741, 342.7466
466.6562, 341.6234
467.1383, 341.0321
467.6205, 341.2683
468.1026, 341.0943
468.5847, 339.9530
469.0668, 338.8575
469.5489, 338.3889
470.0310, 338.3650
470.5132, 338.1948
470.9953, 337.4084
471.4774, 336.3383
471.9595, 336.0375
472.4416, 336.8916
472.9237, 337.0727
473.4059, 334.9679
473.8880, 332.4812
474.3701, 331.5173
474.8522, 332.3364
475.3343, 333.2343
475.8164, 333.2512
476.2986, 332.5185
476.7807, 331.2375
477.2628, 329.3495
477.7449, 327.3503
478.2270, 325.3977
478.7091, 323.6424
479.1913, 322.6171
479.6734, 322.9154
480.1555, 323.3176
480.6376, 323.3146
481.1197, 322.9477
481.6018, 322.2674
482.0839, 321.2803
482.5660, 320.0806
483.0482, 318.7098
483.5303, 316.9511
484.0124, 315.9438
484.4945, 316.3613
484.9766, 316.8503
485.4587, 316.7422
485.9409, 316.1073
486.4230, 315.2525
486.9051, 314.3401
487.3872, 313.3718
487.8693, 312.3369
488.3514, 311.0363
488.8336, 310.0455
489.3157, 309.4972
489.7978, 309.1497
490.2799, 309.0289
490.7620, 309.0106
491.2441, 308.7024
491.7263, 307.6234
492.2084, 306.0058
492.6905, 305.0754
493.1726, 305.2180
493.6547, 305.1270
494.1368, 303.7061
494.6190, 302.0575
495.1011, 301.4522
495.5832, 302.2265
496.0653, 303.1114
496.5474, 303.1517
497.0295, 302.5411
497.5117, 301.8301
497.9938, 301.0773
498.4759, 300.2984
498.9580, 299.4216
499.4401, 298.5060
499.9222, 297.8517
500.4044, 297.7173
500.8865, 297.5957
501.3686, 297.2409
501.8507, 296.7054
502.3328, 296.0932
502.8149, 295.4414
503.2971, 294.7072
503.7792, 293.7652
504.2613, 292.3595
504.7434, 291.7270
505.2255, 292.5794
505.7076, 293.4172
506.1898, 293.4209
506.6719, 292.8725
507.1540, 292.4825
507.6361, 292.6364
508.1182, 293.0201
508.6003, 292.8353
509.0825, 291.7391
509.5646, 290.9964
510.0467, 291.2501
510.5288, 291.4415
511.0109, 290.8260
511.4930, 289.5838
511.9752, 288.5056
512.4573, 288.1633
512.9394, 288.2624
513.4215, 288.0296
513.9036, 287.3525
514.3857, 287.0767
514.8679, 287.8612
515.3500, 288.9689
515.8321, 289.4847
516.3142, 289.3614
516.7963, 288.9151
517.2784, 287.9616
517.7606, 286.9121
518.2427, 286.3658
518.7248, 286.3633
519.2069, 286.6070
519.6890, 287.0083
520.1711, 287.4574
520.6533, 287.3714
521.1354, 286.1410
521.6175, 285.2715
522.0996, 285.4800
522.5817, 285.8953
523.0638, 285.5400
523.5460, 284.3297
524.0281, 282.9093
524.5102, 281.8231
524.9923, 281.0806
525.4744, 281.0814
525.9565, 282.8068
526.4387, 283.9913
526.9208, 283.7989
527.4029, 283.0706
527.8850, 282.7875
528.3671, 283.1705
528.8492, 283.4796
529.3314, 282.6703
529.8135, 280.9174
530.2956, 280.0554
530.7777, 280.6149
531.2598, 281.1818
531.7419, 280.6900
532.2241, 279.6644
532.7062, 278.9576
533.1883, 278.9082
533.6704, 278.8238
534.1525, 278.0165
534.6346, 276.8397
535.1168, 276.2486
535.5989, 276.5102
536.0810, 276.7829
536.5631, 276.0767
537.0452, 274.3279
537.5273, 273.5404
538.0095, 274.7491
538.4916, 275.6700
538.9737, 275.1125
539.4558, 273.8524
539.9379, 273.1840
540.4200, 273.4934
540.9022, 273.9921
541.3843, 273.5390
541.8664, 271.9368
542.3485, 270.4975
542.8306, 269.0557
543.3127, 267.9970
543.7948, 267.5397
544.2769, 267.5205
544.7590, 267.7863
545.2411, 268.3297
545.7233, 268.7992
546.2054, 268.8058
546.6875, 268.3522
547.1696, 267.4407
547.6517, 265.9260
548.1339, 264.2325
548.6160, 262.3640
549.0981, 260.5552
549.5802, 259.6105
550.0623, 260.4825
550.5444, 261.4081
551.0266, 261.2248
551.5087, 260.2412
551.9908, 258.9911
552.4729, 257.6077
552.9550, 256.5594
553.4371, 256.5387
553.9193, 257.8261
554.4014, 258.4341
554.8835, 258.1321
555.3656, 257.5179
555.8477, 256.5715
556.3298, 255.5275
556.8120, 254.7055
557.2941, 254.2164
557.7762, 253.9316
558.2583, 253.7879
558.7404, 253.8666
559.2225, 253.3629
559.7047, 251.6481
560.1868, 250.1531
560.6689, 249.7430
561.1510, 249.9230
561.6331, 249.7991
562.1152, 248.9759
562.5974, 248.1538
563.0795, 248.1152
563.5616, 248.6356
564.0437, 248.9149
564.5258, 248.7943
565.0079, 248.4142
565.4901, 247.8397
565.9722, 247.0809
566.4543, 246.4020
566.9364, 245.9721
567.4185, 245.4317
567.9006, 244.3034
568.3828, 243.1136
568.8649, 242.9005
569.3470, 243.8078
569.8291, 244.5586
570.3112, 243.4905
570.7933, 240.4292
571.2755, 238.6430
571.7576, 239.0191
572.2397, 239.6158
572.7218, 240.2572
573.2039, 240.7198
573.6860, 240.7580
574.1682, 240.3140
574.6503, 239.5704
575.1324, 238.5246
575.6145, 237.2902
576.0966, 236.4109
576.5787, 235.9816
577.0609, 235.6796
577.5430, 235.4991
578.0251, 235.2454
578.5072, 234.4233
578.9893, 232.6068
579.4714, 231.1616
579.9536, 231.0183
580.4357, 231.3192
580.9178, 230.9143
581.3999, 229.7396
581.8820, 228.5524
582.3641, 227.9251
582.8463, 227.7808
583.3284, 227.6876
583.8105, 228.3116
584.2926, 227.9689
584.7747, 225.6287
585.2568, 223.0143
585.7390, 221.3336
586.2211, 220.6779
586.7032, 220.5899
587.1853, 220.9351
587.6674, 221.4767
588.1495, 221.5669
588.6317, 221.1711
589.1138, 220.4924
589.5959, 219.2856
590.0780, 218.1185
590.5601, 217.7654
591.0422, 218.2084
591.5244, 218.4788
592.0065, 218.3737
592.4886, 217.8987
592.9707, 216.8272
593.4528, 215.3579
593.9349, 214.0964
594.4171, 213.3078
594.8992, 212.8966
595.3813, 212.7138
595.8634, 212.8279
596.3455, 212.9742
596.8276, 213.4648
597.3098, 213.6579
597.7919, 213.0664
598.2740, 212.0482
598.7561, 211.2205
599.2382, 210.8383
599.7203, 210.6269
600.2025, 210.2375
600.6846, 209.6725
601.1667, 208.9952
601.6488, 208.0413
602.1309, 207.3288
602.6130, 207.6128
603.0952, 208.3438
603.5773, 208.3097
604.0594, 206.8137
604.5415, 205.5719
605.0236, 205.9960
605.5057, 207.0221
605.9879, 206.8263
606.4700, 205.2067
606.9521, 203.4421
607.4342, 202.5730
607.9163, 202.5044
608.3984, 202.5249
608.8806, 202.9032
609.3627, 202.9842
609.8448, 202.3753
610.3269, 201.7083
610.8090, 201.7307
611.2911, 202.2663
611.7733, 202.2861
612.2554, 200.8393
612.7375, 198.6108
613.2196, 197.0429
613.7017, 196.1142
614.1838, 196.1794
614.6660, 198.1355
615.1481, 200.1772
615.6302, 199.7713
616.1123, 197.1199
616.5944, 195.2621
617.0765, 195.8308
617.5587, 196.4270
618.0408, 194.8013
618.5229, 192.0435
619.0050, 190.8700
619.4871, 192.1985
619.9692, 194.2389
620.4514, 194.5210
620.9335, 192.7554
621.4156, 191.4351
621.8977, 190.8269
622.3798, 190.3723
622.8619, 190.0670
623.3441, 189.7726
623.8262, 189.2352
624.3083, 188.4135
624.7904, 187.8036
625.2725, 188.1456
625.7546, 188.9921
626.2367, 188.9361
626.7188, 187.8178
627.2009, 186.9093
627.6830, 187.0262
628.1652, 187.6440
628.6473, 187.5087
629.1294, 186.4221
629.6115, 185.3926
630.0936, 184.4227
630.5757, 183.6773
631.0579, 183.4528
631.5400, 183.5482
632.0221, 183.4092
632.5042, 182.7471
632.9863, 181.8954
633.4684, 181.5263
633.9506, 181.7695
634.4327, 181.8469
634.9148, 181.6991
635.3969, 181.3972
635.8790, 180.8256
636.3611, 180.1781
636.8433, 179.8410
637.3254, 180.0259
637.8075, 180.1613
638.2896, 179.7919
638.7717, 179.0985
639.2538, 178.3450
639.7360, 177.5830
640.2181, 177.0268
640.7002, 176.9046
641.1823, 177.0413
641.6644, 176.7162
642.1465, 175.2856
642.6287, 174.2809
643.1108, 174.0547
643.5929, 173.9725
644.0750, 173.6759
644.5571, 173.1480
645.0392, 172.4383
645.5214, 171.5159
646.0035, 170.6350
646.4856, 170.3413
646.9677, 170.6319
647.4498, 170.7019
647.9319, 170.3913
648.4141, 169.8767
648.8962, 169.2358
649.3783, 168.4974
649.8604, 167.7961
650.3425, 167.1969
650.8246, 166.5593
651.3068, 165.7341
651.7889, 164.8900
652.2710, 164.2180
652.7531, 163.7529
653.2352, 163.5118
653.7173, 163.5704
654.1995, 163.7598
654.6816, 163.2875
655.1637, 161.7446
655.6458, 160.5233
656.1279, 160.0787
656.6100, 159.8258
657.0922, 159.5473
657.5743, 159.1912
658.0564, 158.6230
658.5385, 157.4801
659.0206, 156.5387
659.5027, 156.8759
659.9849, 158.0064
660.4670, 158.4912
660.9491, 157.9874
661.4312, 157.1957
661.9133, 156.7426
662.3954, 156.5958
662.8776, 156.3033
663.3597, 156.1806
663.8418, 155.4828
664.3239, 153.2209
664.8060, 151.0401
665.2881, 150.5637
665.7703, 151.5466
666.2524, 152.3913
666.7345, 152.0334
667.2166, 151.0445
667.6987, 150.5154
668.1808, 150.4283
668.6630, 150.0737
669.1451, 149.2141
669.6272, 148.2094
670.1093, 147.2527
670.5914, 146.4052
671.0735, 146.1970
671.5557, 147.5713
672.0378, 148.4384
672.5199, 147.7397
673.0020, 146.4124
673.4841, 145.3565
673.9662, 144.7616
674.4484, 144.5376
674.9305, 144.6937
675.4126, 145.0406
675.8947, 144.8598
676.3768, 143.9682
676.8589, 143.3857
677.3411, 143.5931
677.8232, 143.8557
678.3053, 143.5685
678.7874, 142.8467
679.2695, 142.0873
679.7516, 141.0877
680.2338, 140.4431
680.7159, 140.9281
681.1980, 141.8329
681.6801, 141.9931
682.1622, 141.2462
682.6443, 140.2016
683.1265, 139.3312
683.6086, 138.6059
684.0907, 137.8483
684.5728, 136.8858
685.0549, 136.2707
685.5370, 136.4826
686.0192, 136.7055
686.5013, 136.3638
686.9834, 135.6399
687.4655, 135.1347
687.9476, 135.1954
688.4297, 135.3208
688.9119, 135.0229
689.3940, 134.4596
689.8761, 133.9490
690.3582, 133.5514
690.8403, 133.3969
691.3224, 133.6922
691.8046, 134.2244
692.2867, 133.9382
692.7688, 131.7931
693.2509, 130.5142
693.7330, 131.0433
694.2151, 131.6480
694.6973, 131.2274
695.1794, 130.0403
695.6615, 128.8353
696.1436, 127.8397
696.6257, 127.2586
697.1078, 127.6448
697.5900, 128.6518
698.0721, 128.9186
698.5542, 128.1968
699.0363, 127.6103
699.5184, 127.9832
700.0005, 129.0220
700.4827, 129.7151
700.9648, 130.3628
701.4469, 130.1190
701.9290, 128.1058
702.4111, 126.0131
702.8932, 124.8185
703.3754, 124.3343
703.8575, 123.9611
704.3396, 123.4458
704.8217, 123.1133
705.3038, 123.5836
705.7859, 124.6300
706.2681, 125.1961
706.7502, 125.1984
707.2323, 124.6319
707.7144, 123.1843
708.1965, 121.4166
708.6786, 120.6593
709.1607, 121.1849
709.6428, 121.8518
710.1249, 123.1283
710.6071, 123.9894
711.0892, 123.5864
711.5713, 122.4461
712.0534, 121.3604
712.5355, 120.6209
713.0176, 120.3242
713.4998, 120.9003
713.9819, 122.0871
714.4640, 122.3349
714.9461, 121.4693
715.4282, 120.6730
715.9103, 120.4322
716.3925, 120.5321
716.8746, 120.6927
717.3567, 120.9250
717.8388, 121.1116
718.3209, 121.2972
718.8030, 121.3744
719.2852, 121.1113
719.7673, 120.7904
720.2494, 120.9305
720.7315, 121.5643
721.2136, 122.0580
721.6957, 121.7894
722.1779, 120.9377
722.6600, 120.0721
723.1421, 119.1573
723.6242, 118.4908
724.1063, 118.1756
724.5884, 118.1164
725.0706, 118.3443
725.5527, 118.8207
726.0348, 118.9962
726.5169, 118.6750
726.9990, 118.2561
727.4811, 117.6747
727.9633, 117.1873
728.4454, 117.1670
728.9275, 117.5583
729.4096, 117.9629
729.8917, 118.1391
730.3738, 118.0840
730.8560, 117.6686
731.3381, 116.8753
731.8202, 116.3856
732.3023, 116.3057
732.7844, 116.5758
733.2665, 117.4807
733.7487, 118.6798
734.2308, 118.8963
734.7129, 117.4476
735.1950, 116.3166
735.6771, 116.1036
736.1592, 116.1812
736.6414, 116.0641
737.1235, 115.8136
737.6056, 115.7543
738.0877, 116.0386
738.5698, 116.3566
739.0519, 116.2503
739.5341, 115.7643
740.0162, 115.2770
740.4983, 114.7933
740.9804, 114.3663
741.4625, 113.9755
741.9446, 113.6986
742.4268, 113.7347
742.9089, 114.1610
743.3910, 114.4650
743.8731, 114.6662
744.3552, 114.6702
744.8373, 114.2272
745.3195, 113.6500
745.8016, 113.3482
746.2837, 113.4222
746.7658, 113.7378
747.2479, 114.3391
747.7300, 115.0103
748.2122, 115.0456
748.6943, 114.4340
749.1764, 113.9652
749.6585, 113.8801
750.1406, 113.9615
750.6227, 114.0134
751.1049, 114.0357
751.5870, 114.0418
752.0691, 114.3511
752.5512, 114.2188
753.0333, 112.9543
753.5154, 111.6327
753.9976, 111.2354
754.4797, 111.6155
754.9618, 112.0173
755.4439, 112.0804
755.9260, 111.9164
756.4081, 111.5164
756.8903, 110.9946
757.3724, 110.9368
757.8545, 111.4454
758.3366, 111.8095
758.8187, 111.4986
759.3008, 110.8784
759.7830, 110.8956
760.2651, 112.0154
760.7472, 112.6742
761.2293, 112.6602
761.7114, 112.4559
762.1935, 112.0230
762.6757, 111.6264
763.1578, 111.7801
763.6399, 112.5574
764.1220, 112.9934
764.6041, 111.8873
765.0862, 110.3159
765.5684, 110.1234
766.0505, 111.0362
766.5326, 111.5551
767.0147, 111.1849
767.4968, 110.5828
767.9789, 110.4858
768.4611, 110.8662
768.9432, 111.0759
769.4253, 110.9389
769.9074, 110.9330
770.3895, 111.4935
770.8716, 111.8849
771.3538, 111.4258
771.8359, 110.3640
772.3180, 109.5401
772.8001, 109.2502
773.2822, 109.1978
773.7643, 109.2777
774.2465, 109.4245
774.7286, 109.5026
775.2107, 109.5354
775.6928, 109.7530
776.1749, 110.3078
776.6570, 110.9087
777.1392, 110.9079
777.6213, 110.1782
778.1034, 109.8051
778.5855, 110.0056
779.0676, 110.1527
779.5497, 109.7607
780.0319, 109.2964
780.5140, 109.5044
780.9961, 110.4682
781.4782, 111.0006
781.9603, 110.5422
782.4424, 109.8663
782.9246, 109.2794
783.4067, 108.8209
783.8888, 108.5660
784.3709, 108.4955
784.8530, 108.4403
785.3351, 108.2498
785.8173, 108.0060
786.2994, 107.8797
786.7815, 107.8708
787.2636, 108.1448
787.7457, 108.8408
788.2278, 109.4652
788.7100, 109.6237
789.1921, 109.4152
789.6742, 109.2152
790.1563, 108.9420
790.6384, 108.8266
791.1205, 109.2101
791.6026, 109.4249
792.0847, 108.9413
792.5668, 108.0870
793.0490, 107.3987
793.5311, 107.0383
794.0132, 106.8688
794.4953, 106.7735
794.9774, 106.7970
795.4595, 107.0830
795.9417, 107.5870
796.4238, 108.0947
796.9059, 108.5516
797.3880, 108.7503
797.8701, 108.3945
798.3522, 107.5356
798.8344, 107.0748
799.3165, 107.1953
799.7986, 107.3546
800.2807, 107.5166
800.7628, 107.6485
801.2449, 107.7114
801.7271, 107.7273
802.2092, 107.7803
802.6913, 107.9823
803.1734, 107.9922
803.6555, 107.3964
804.1376, 106.6924
804.6198, 106.4521
805.1019, 106.5955
805.5840, 106.7298
806.0661, 106.6883
806.5482, 106.6777
807.0303, 107.0528
807.5125, 107.7493
807.9946, 108.1142
808.4767, 108.1021
808.9588, 108.0300
809.4409, 108.0276
809.9230, 107.9615
810.4052, 107.5864
810.8873, 106.9070
811.3694, 106.6362
811.8515, 107.5471
812.3336, 107.8121
812.8157, 106.2038
813.2979, 104.5337
813.7800, 104.3291
814.2621, 105.3342
814.7442, 106.5911
815.2263, 107.8114
815.7084, 108.5764
816.1906, 108.1583
816.6727, 107.0862
817.1548, 106.3598
817.6369, 106.0548
818.1190, 106.1250
818.6011, 106.5747
819.0833, 107.1427
819.5654, 107.4505
820.0475, 107.4889
820.5296, 107.5306
821.0117, 107.6045
821.4938, 107.6237
821.9760, 107.6253
822.4581, 107.5072
822.9402, 107.1689
823.4223, 106.6363
823.9044, 106.0199
824.3865, 105.1004
824.8687, 104.4675
825.3508, 104.3750
825.8329, 104.6513
826.3150, 105.4524
826.7971, 106.4526
827.2792, 106.7968
827.7614, 106.0993
828.2435, 105.1714
828.7256, 105.0951
829.2077, 105.6212
829.6898, 105.8367
830.1719, 105.7158
830.6541, 105.2404
831.1362, 104.2851
831.6183, 103.4061
832.1004, 103.2716
832.5825, 103.8721
833.0646, 104.6327
833.5468, 106.0721
834.0289, 106.8388
834.5110, 106.3080
834.9931, 105.5346
835.4752, 105.0405
835.9573, 104.8491
836.4395, 104.9957
836.9216, 105.6915
837.4037, 106.0425
837.8858, 105.2195
838.3679, 104.0936
838.8500, 103.5615
839.3322, 103.5114
839.8143, 103.4531
840.2964, 103.2282
840.7785, 103.1480
841.2606, 103.7393
841.7427, 104.6827
842.2249, 104.3917
842.7070, 102.7774
843.1891, 102.2551
843.6712, 103.7361
844.1533, 105.3689
844.6354, 105.5237
845.1176, 104.5122
845.5997, 103.8617
846.0818, 103.9168
846.5639, 103.7934
847.0460, 103.1959
847.5281, 102.7442
848.0103, 102.9789
848.4924, 103.4352
848.9745, 103.2332
849.4566, 102.2032
849.9387, 101.6408
850.4208, 102.9021
850.9030, 104.3009
851.3851, 104.0966
851.8672, 102.9569
852.3493, 102.1079
852.8314, 101.8367
853.3135, 101.9727
853.7957, 102.4600
854.2778, 103.0496
854.7599, 103.0634
855.2420, 102.5194
855.7241, 102.3579
856.2062, 102.7314
856.6884, 103.2525
857.1705, 103.8371
857.6526, 104.2748
858.1347, 104.1212
858.6168, 103.1918
859.0989, 102.5029
859.5811, 102.1075
860.0632, 101.8748
860.5453, 101.7357
861.0274, 101.7763
861.5095, 102.2799
861.9916, 103.0764
862.4738, 103.4223
862.9559, 102.8149
863.4380, 102.1767
863.9201, 102.2679
864.4022, 102.5492
864.8843, 102.2657
865.3665, 101.5536
865.8486, 101.0610
866.3307, 101.0576
866.8128, 101.2089
867.2949, 101.0759
867.7770, 100.7502
868.2592, 100.6620
868.7413, 100.8155
869.2234, 100.9466
869.7055, 100.9763
870.1876, 100.9950
870.6697, 101.0996
871.1519, 101.2612
871.6340, 101.2985
872.1161, 100.9661
872.5981, 100.9795
873.0803, 101.7132
873.5624, 102.4262
874.0445, 102.9196
874.5266, 103.1535
875.0087, 102.9785
875.4908, 102.3443
875.9730, 101.9202
876.4551, 102.1912
876.9372, 102.4625
877.4193, 102.2393
877.9014, 101.7934
878.3835, 101.4570
878.8657, 101.2934
879.3478, 101.2605
879.8299, 101.3525
880.3120, 101.4928
880.7941, 101.6479
881.2762, 101.7591
881.7584, 101.5584
882.2405, 101.0584
882.7226, 100.6224
883.2047, 100.3969
883.6868, 100.4536
884.1689, 101.0089
884.6511, 102.0242
885.1332, 102.1091
885.6153, 100.8341
886.0974, 99.80483
886.5795, 99.35269
887.0616, 99.20462
887.5438, 99.24062
888.0259, 99.41385
888.5080, 99.58508
888.9901, 99.75157
889.4722, 99.91248
889.9543, 100.1033
890.4365, 100.2497
890.9186, 100.3481
891.4007, 100.3586
891.8828, 100.1726
892.3649, 99.81109
892.8470, 99.52834
893.3292, 99.46925
893.8113, 99.54815
894.2934, 99.85944
894.7755, 100.1770
895.2576, 99.87954
895.7397, 99.10789
896.2219, 98.90191
896.7040, 99.82734
897.1861, 100.9950
897.6682, 100.9470
898.1503, 99.87148
898.6324, 99.30926
899.1146, 99.29922
899.5967, 99.28993
900.0788, 99.07868
900.5609, 98.98444
901.0430, 99.47142
901.5251, 100.3213
902.0073, 100.0892
902.4894, 97.80265
902.9715, 96.43179
903.4536, 96.67591
903.9357, 97.21838
904.4178, 97.68491
904.9000, 97.99468
905.3821, 97.91909
905.8642, 97.40880
906.3463, 97.22791
906.8284, 97.86586
907.3105, 98.50276
907.7927, 98.77010
908.2748, 98.83932
908.7569, 98.89023
909.2390, 98.92480
909.7211, 98.79520
910.2032, 98.37466
910.6854, 98.15327
911.1675, 98.93470
911.6496, 100.0092
912.1317, 100.2090
912.6138, 99.63375
913.0959, 98.65910
913.5781, 97.46597
914.0602, 96.69961
914.5423, 97.09712
915.0244, 98.14747
915.5065, 98.18211
915.9886, 97.19036
916.4708, 96.54738
916.9529, 96.42513
917.4350, 96.67690
917.9171, 97.37328
918.3992, 98.11953
918.8813, 98.16446
919.3635, 97.37097
919.8456, 96.93225
920.3277, 96.91262
920.8098, 97.14579
921.2919, 98.25963
921.7740, 99.01699
922.2562, 98.06528
922.7383, 96.06764
923.2204, 95.05698
923.7025, 95.61144
924.1846, 96.26360
924.6667, 96.80405
925.1489, 97.18100
925.6310, 97.24395
926.1131, 97.18478
926.5952, 97.24283
927.0773, 97.45719
927.5594, 97.76685
928.0416, 98.31057
928.5237, 98.64777
929.0058, 98.05456
929.4879, 97.16132
929.9700, 97.07279
930.4521, 97.67677
930.9343, 98.17272
931.4164, 98.21938
931.8985, 98.02844
932.3806, 97.77164
932.8627, 97.50333
933.3448, 97.52329
933.8270, 97.77608
934.3091, 97.44101
934.7912, 96.29089
935.2733, 95.58766
935.7554, 96.36287
936.2375, 97.84329
936.7197, 98.06508
937.2018, 96.72009
937.6839, 95.87273
938.1660, 95.59071
938.6481, 95.65949
939.1302, 96.25230
939.6124, 96.86586
940.0945, 96.92472
940.5766, 96.49883
941.0587, 96.25253
941.5408, 96.06879
942.0229, 96.23121
942.5051, 97.44509
942.9872, 98.24622
943.4693, 97.39232
943.9514, 95.97018
944.4335, 95.57445
944.9156, 96.36349
945.3978, 97.04174
945.8799, 97.14332
946.3620, 97.05741
946.8441, 96.92597
947.3262, 96.74715
947.8083, 96.36465
948.2905, 95.95288
948.7726, 96.00623
949.2547, 96.71304
949.7368, 97.41389
950.2189, 97.55880
950.7010, 97.38261
951.1832, 97.09946
951.6653, 96.77721
952.1474, 96.62107
952.6295, 96.62123
953.1116, 96.46206
953.5938, 95.92152
954.0759, 95.23917
954.5580, 94.71873
955.0400, 94.39582
955.5222, 94.57828
956.0043, 95.26059
956.4864, 95.77525
956.9685, 95.89352
957.4506, 95.92696
957.9327, 96.21926
958.4149, 96.62800
958.8970, 96.49059
959.3791, 95.67897
959.8612, 94.93140
960.3433, 94.21626
960.8254, 93.79336
961.3076, 93.84530
961.7897, 94.18428
962.2718, 94.59879
962.7539, 95.09129
963.2360, 95.50015
963.7181, 96.05868
964.2003, 96.16317
964.6824, 95.29567
965.1645, 94.46492
965.6466, 94.15421
966.1287, 94.25182
966.6108, 94.63843
967.0930, 95.35006
967.5751, 95.84055
968.0572, 96.02164
968.5393, 95.92776
969.0214, 95.21914
969.5035, 94.52901
969.9857, 94.54710
970.4678, 95.06734
970.9499, 95.44034
971.4320, 95.45414
971.9141, 95.38615
972.3962, 95.61288
972.8784, 95.62074
973.3605, 94.63607
973.8426, 93.28211
974.3247, 92.50704
974.8068, 92.42365
975.2889, 92.70176
975.7711, 93.21214
976.2532, 93.74057
976.7353, 94.16141
977.2174, 94.37682
977.6995, 93.95967
978.1816, 93.16833
978.6638, 93.02438
979.1459, 93.74123
979.6280, 94.50356
980.1101, 94.66057
980.5922, 94.42628
981.0743, 94.20006
981.5565, 93.97433
982.0386, 93.64124
982.5207, 93.20346
983.0028, 92.93880
983.4849, 92.94913
983.9670, 93.27438
984.4492, 94.04735
984.9313, 95.08556
985.4134, 95.43152
985.8955, 94.94958
986.3776, 94.83579
986.8597, 95.32238
987.3419, 95.76479
987.8240, 95.89849
988.3061, 95.72559
988.7882, 95.14958
989.2703, 94.17686
989.7524, 93.75144
990.2346, 94.13708
990.7167, 94.50681
991.1988, 94.98512
991.6809, 95.09953
992.1630, 94.18755
992.6451, 92.94785
993.1273, 92.78847
993.6094, 93.94753
994.0915, 94.43598
994.5736, 93.35497
995.0557, 92.82024
995.5378, 94.09328
996.0200, 95.19324
996.5021, 94.19097
996.9842, 92.23338
997.4663, 91.84109
997.9484, 93.59455
998.4305, 95.01784
998.9127, 95.47472
999.3948, 95.50405
999.8769, 94.83886
1000.359, 94.24491
1000.841, 94.73800
1001.323, 95.86153
1001.805, 96.24809
1002.287, 95.41446
1002.770, 94.54818
1003.252, 94.26891
1003.734, 94.16492
1004.216, 93.76778
1004.698, 93.46422
1005.180, 94.07431
1005.662, 95.30809
1006.144, 95.91445
1006.627, 95.31271
1007.109, 94.31426
1007.591, 93.20353
1008.073, 92.37807
1008.555, 92.38611
1009.037, 93.01322
1009.519, 94.04423
1010.001, 95.25791
1010.483, 96.08733
1010.966, 96.20022
1011.448, 95.83688
1011.930, 95.02217
1012.412, 94.05990
1012.894, 93.51807
1013.376, 93.36699
1013.858, 93.53514
1014.340, 93.94388
1014.823, 94.23392
1015.305, 94.15794
1015.787, 93.80858
1016.269, 93.14494
1016.751, 92.34787
1017.233, 92.24314
1017.715, 92.75764
1018.197, 93.02058
1018.679, 92.79540
1019.162, 92.75781
1019.644, 93.54991
1020.126, 94.56853
1020.608, 94.14210
1021.090, 92.44759
1021.572, 91.98292
1022.054, 92.87333
1022.536, 94.29427
1023.018, 96.10638
1023.501, 97.26397
1023.983, 96.71072
1024.465, 95.01949
1024.947, 93.93698
1025.429, 93.49339
1025.911, 93.35608
1026.393, 93.52971
1026.875, 94.00833
1027.358, 94.95611
1027.840, 95.64926
1028.322, 95.28911
1028.804, 94.17270
1029.286, 93.50291
1029.768, 93.28959
1030.250, 93.54503
1030.732, 94.51939
1031.214, 95.31211
1031.697, 95.76956
1032.179, 95.58132
1032.661, 94.06145
1033.143, 91.69395
1033.625, 91.02280
1034.107, 92.94608
1034.589, 94.32973
1035.071, 95.14698
1035.553, 95.40518
1036.036, 94.74605
1036.518, 93.93475
1037.000, 93.82494
1037.482, 94.26076
1037.964, 94.27925
1038.446, 92.85285
1038.928, 93.07935
1039.410, 97.31672
1039.893, 99.99586
1040.375, 97.42244
1040.857, 93.93047
1041.339, 94.42284
1041.821, 97.93008
1042.303, 99.09261
1042.785, 95.98104
1043.267, 94.11752
1043.750, 94.78170
1044.232, 95.40871
1044.714, 94.87139
1045.196, 94.06759
1045.678, 93.86195
1046.160, 94.18430
1046.642, 94.58315
1047.124, 95.23075
1047.606, 95.46613
1048.089, 94.96500
1048.571, 94.32600
1049.053, 93.57494
1049.535, 92.96558
1050.017, 92.75217
1050.499, 92.89228
1050.981, 93.19016
1051.463, 93.76563
1051.945, 94.08972
1052.428, 93.83978
1052.910, 93.57349
1053.392, 93.59655
1053.874, 93.68321
1054.356, 93.45899
1054.838, 93.08739
1055.320, 93.24418
1055.802, 94.31667
1056.285, 95.03864
1056.767, 94.77676
1057.249, 94.41322
1057.731, 94.44953
1058.213, 94.53307
1058.695, 94.12854
1059.177, 93.45645
1059.659, 93.32069
1060.141, 94.06845
1060.624, 94.57376
1061.106, 94.30156
1061.588, 93.86699
1062.070, 93.23809
1062.552, 92.87595
1063.034, 93.62926
1063.516, 94.96691
1063.998, 95.32676
1064.480, 94.18316
1064.963, 93.29690
1065.445, 93.50532
1065.927, 93.97470
1066.409, 94.56802
1066.891, 94.96660
1067.373, 94.70579
1067.855, 94.04424
1068.337, 93.60814
1068.820, 93.55246
1069.302, 93.60915
1069.784, 93.81190
1070.266, 93.91477
1070.748, 93.62084
1071.230, 93.31509
1071.712, 93.43749
1072.194, 93.80524
1072.677, 93.90163
1073.159, 93.62613
1073.641, 93.64185
1074.123, 94.71573
1074.605, 95.54024
1075.087, 95.27101
1075.569, 94.62991
1076.051, 93.97896
1076.533, 93.54343
1077.016, 93.76111
1077.498, 94.63415
1077.980, 95.24792
1078.462, 95.21284
1078.944, 94.84476
1079.426, 93.96126
1079.908, 93.13369
1080.390, 92.79286
1080.872, 92.84104
1081.354, 93.22575
1081.837, 93.84079
1082.319, 94.14809
1082.801, 93.73973
1083.283, 93.39370
1083.765, 93.46106
1084.247, 93.73434
1084.729, 94.27584
1085.211, 94.79692
1085.694, 94.79866
1086.176, 94.37740
1086.658, 94.29906
1087.140, 95.06178
1087.622, 95.48596
1088.104, 94.64896
1088.586, 93.79454
1089.068, 93.74276
1089.551, 94.09225
1090.033, 94.54207
1090.515, 94.91458
1090.997, 94.77968
1091.479, 93.86366
1091.961, 93.16920
1092.443, 93.23521
1092.925, 93.42139
1093.407, 93.41143
1093.890, 93.35238
1094.372, 93.30795
1094.854, 93.36515
1095.336, 93.84648
1095.818, 94.92583
1096.300, 95.32103
1096.782, 93.68006
1097.264, 92.53207
1097.746, 93.46097
1098.229, 94.70654
1098.711, 94.69071
1099.193, 94.02455
1099.675, 94.11769
1100.157, 95.16569
1100.639, 95.75517
1101.121, 95.22827
1101.603, 94.63816
1102.086, 94.20493
1102.568, 93.85800
1103.050, 93.56676
1103.532, 93.32609
1104.014, 92.99271
1104.496, 92.62705
1104.978, 92.89356
1105.460, 94.81262
1105.943, 95.83557
1106.425, 94.55887
1106.907, 93.52677
1107.389, 94.45967
1107.871, 95.76114
1108.353, 95.45734
1108.835, 93.92635
1109.317, 93.25193
1109.799, 94.04648
1110.281, 94.55799
1110.764, 94.50504
1111.246, 94.36398
1111.728, 94.27628
1112.210, 94.14493
1112.692, 93.65565
1113.174, 93.10921
1113.656, 93.43335
1114.138, 93.32047
1114.621, 93.21053
1115.103, 94.21531
1115.585, 93.54783
1116.067, 94.78453
1116.549, 95.93873
1117.031, 95.67297
1117.513, 94.77326
1117.995, 94.50207
1118.478, 94.86732
1118.960, 95.23775
1119.442, 95.92962
1119.924, 95.77995
1120.406, 94.04488
1120.888, 92.82527
1121.370, 93.27222
1121.852, 94.24769
1122.334, 94.43382
1122.817, 94.00544
1123.299, 93.93658
1123.781, 94.33816
1124.263, 94.62264
1124.745, 94.71949
1125.227, 94.94012
1125.709, 95.46324
1126.191, 95.84618
1126.673, 95.66887
1127.156, 95.18514
1127.638, 95.01994
1128.120, 95.18472
1128.602, 95.29869
1129.084, 95.34232
1129.566, 95.57229
1130.048, 96.06932
1130.530, 96.46501
1131.013, 96.53358
1131.495, 96.44420
1131.977, 96.38155
1132.459, 96.41532
1132.941, 97.13756
1133.423, 98.44424
1133.905, 98.60971
1134.387, 97.50622
1134.870, 96.65160
1135.352, 96.64434
1135.834, 96.92477
1136.316, 97.01481
1136.798, 96.87450
1137.280, 96.10924
1137.762, 96.41624
1138.244, 96.40188
1138.726, 96.51021
1139.208, 97.26565
1139.691, 97.33455
1140.173, 98.44626
1140.655, 101.9083
1141.137, 104.8860
1141.619, 102.7287
1142.101, 98.37032
1142.583, 96.84241
1143.065, 97.36002
1143.548, 98.38743
1144.030, 99.43367
1144.512, 99.97790
1144.994, 99.82526
1145.476, 99.23177
1145.958, 97.97721
1146.440, 96.92770
1146.922, 97.18613
1147.405, 97.98955
1147.887, 98.58030
1148.369, 98.85122
1148.851, 98.66336
1149.333, 98.09457
1149.815, 97.70383
1150.297, 97.86342
1150.779, 97.94682
1151.261, 97.19176
1151.744, 96.65701
1152.226, 97.46485
1152.708, 98.68673
1153.190, 99.21046
1153.672, 99.10221
1154.154, 98.93356
1154.636, 98.81087
1155.118, 98.77319
1155.600, 98.56627
1156.083, 98.80905
1156.565, 100.5828
1157.047, 101.9937
1157.529, 101.0906
1158.011, 99.27259
1158.493, 98.97696
1158.975, 100.2917
1159.457, 101.1165
1159.940, 101.2101
1160.422, 100.9856
1160.904, 99.88351
1161.386, 99.32159
1161.868, 100.2360
1162.350, 101.3344
1162.832, 101.3323
1163.314, 100.6448
1163.796, 100.5605
1164.279, 101.1477
1164.761, 102.1120
1165.243, 103.8842
1165.725, 104.3588
1166.207, 102.7470
1166.689, 101.1123
1167.171, 100.6428
1167.653, 100.7604
1168.135, 100.6271
1168.618, 100.3454
1169.100, 100.5844
1169.582, 101.3328
1170.064, 101.7786
1170.546, 101.8573
1171.028, 101.8612
1171.510, 101.8874
1171.992, 101.9340
1172.474, 102.0159
1172.957, 102.0355
1173.439, 101.7115
1173.921, 101.2222
1174.403, 101.0385
1174.885, 101.1646
1175.367, 101.6925
1175.849, 102.5315
1176.331, 103.3233
1176.814, 103.8971
1177.296, 103.9469
1177.778, 102.7513
1178.260, 101.5007
1178.742, 101.8164
1179.224, 102.7544
1179.706, 103.1538
1180.188, 103.0838
1180.671, 102.7377
1181.153, 102.2935
1181.635, 102.3064
1182.117, 103.1827
1182.599, 103.9479
1183.081, 103.9800
1183.563, 103.8535
1184.045, 104.1377
1184.527, 104.2589
1185.010, 103.1635
1185.492, 101.5784
1185.974, 101.4235
1186.456, 103.0656
1186.938, 104.0248
1187.420, 103.3735
1187.902, 102.8159
1188.384, 102.4876
1188.866, 102.4709
1189.349, 102.9582
1189.831, 103.6165
1190.313, 104.1542
1190.795, 104.5617
1191.277, 104.8149
1191.759, 104.9455
1192.241, 104.6860
1192.723, 103.7632
1193.206, 103.5303
1193.688, 104.4985
1194.170, 105.2158
1194.652, 104.7501
1195.134, 103.9041
1195.616, 103.7940
1196.098, 104.2851
1196.580, 104.9776
1197.063, 105.8002
1197.545, 105.9705
1198.027, 105.4962
1198.509, 104.9380
1198.991, 104.4892
1199.473, 104.3887
1199.955, 104.8437
1200.437, 105.3755
1200.919, 105.2173
1201.401, 105.6138
1201.884, 105.0940
1202.366, 105.6515
1202.848, 105.5685
1203.330, 105.0071
1203.812, 104.8011
1204.294, 105.1660
1204.776, 105.5094
1205.258, 105.3858
1205.741, 105.3445
1206.223, 105.9574
1206.705, 106.5485
1207.187, 106.5322
1207.669, 106.2374
1208.151, 105.9846
1208.633, 105.8566
1209.115, 105.9835
1209.598, 106.4496
1210.080, 106.8050
1210.562, 106.7639
1211.044, 106.9359
1211.526, 107.9879
1212.008, 108.5745
1212.490, 107.6495
1212.972, 106.4009
1213.454, 106.2873
1213.937, 107.0484
1214.419, 107.4607
1214.901, 107.5425
1215.383, 107.0315
1215.865, 105.7168
1216.347, 105.2094
1216.829, 105.9667
1217.311, 106.6715
1217.793, 106.5166
1218.276, 106.2811
1218.758, 107.1603
1219.240, 108.5514
1219.722, 108.6420
1220.204, 107.7766
1220.686, 106.9260
1221.168, 106.3222
1221.650, 106.5940
1222.133, 107.7426
1222.615, 108.9109
1223.097, 109.6587
1223.579, 109.9210
1224.061, 109.3546
1224.543, 108.5759
1225.025, 108.2245
1225.507, 107.9788
1225.990, 107.2464
1226.472, 106.3879
1226.954, 106.2431
1227.436, 106.8749
1227.918, 107.4286
1228.400, 107.6730
1228.882, 107.7865
1229.364, 107.5041
1229.846, 107.4987
1230.328, 108.4383
1230.811, 109.3400
1231.293, 109.3980
1231.775, 108.9591
1232.257, 108.6024
1232.739, 108.3296
1233.221, 108.4170
1233.703, 108.9797
1234.185, 109.4221
1234.668, 109.7263
1235.150, 109.6697
1235.632, 109.1197
1236.114, 108.6952
1236.596, 108.8831
1237.078, 109.4612
1237.560, 110.2238
1238.042, 110.9906
1238.525, 111.0510
1239.007, 110.6321
1239.489, 110.4743
1239.971, 110.5732
1240.453, 110.5162
1240.935, 110.2065
1241.417, 109.9425
1241.899, 109.8970
1242.381, 109.9916
1242.864, 110.1842
1243.346, 110.4684
1243.828, 110.9927
1244.310, 111.4806
1244.792, 111.6101
1245.274, 111.4572
1245.756, 111.1595
1246.238, 110.7440
1246.720, 110.6055
1247.203, 110.9377
1247.685, 111.3429
1248.167, 112.1645
1248.649, 112.4436
1249.131, 111.5595
1249.613, 110.5677
1250.095, 110.2158
1250.577, 110.3383
1251.059, 110.5167
1251.542, 110.8385
1252.024, 112.9467
1252.506, 116.8186
1252.988, 117.5989
1253.470, 115.0345
1253.952, 112.8973
1254.434, 112.4098
1254.916, 113.1829
1255.399, 115.1082
1255.881, 116.7911
1256.363, 116.2022
1256.845, 114.5327
1257.327, 112.9883
1257.809, 111.8928
1258.291, 111.9923
1258.773, 112.8148
1259.255, 113.3521
1259.738, 113.3850
1260.220, 113.0811
1260.702, 112.2380
1261.184, 111.7984
1261.666, 112.6134
1262.148, 113.1524
1262.630, 112.5631
1263.112, 111.7441
1263.594, 111.2535
1264.077, 111.0013
1264.559, 110.8324
1265.041, 110.7754
1265.523, 111.1892
1266.005, 112.2779
1266.487, 112.4401
1266.969, 111.4687
1267.451, 111.3483
1267.934, 112.5828
1268.416, 113.2888
1268.898, 112.3643
1269.380, 111.3683
1269.862, 112.4028
1270.344, 114.1168
1270.826, 113.8302
1271.308, 112.5566
1271.791, 112.0217
1272.273, 112.1572
1272.755, 112.7278
1273.237, 113.5006
1273.719, 113.8712
1274.201, 113.5985
1274.683, 113.5769
1275.165, 114.5681
1275.647, 115.3704
1276.130, 115.6264
1276.612, 115.4610
1277.094, 114.4702
1277.576, 113.4972
1278.058, 113.2495
1278.540, 113.7963
1279.022, 115.6691
1279.504, 119.1454
1279.986, 119.6768
1280.469, 116.6844
1280.951, 114.7723
1281.433, 114.5216
1281.915, 114.7570
1282.397, 115.0558
1282.879, 115.5469
1283.361, 116.4182
1283.843, 116.9718
1284.326, 116.3805
1284.808, 114.6290
##END=



