##NAMES=Fettelite
##RRUFFID=R100083
##IDEAL CHEMISTRY=Ag_16_HgAs_4_S_15_
##LOCALITY=Chanarcillo, Chile
##OWNER=RRUFF
##SOURCE=William W Pinch
##DESCRIPTION=Red platy crystals on acanthite. Cell parameters match those reported by Bindi et al (2009), indicating a fettelite polytype.
##STATUS=The identification of this mineral is confirmed by single-crystal X-ray diffraction and chemical analysis.
##URL=rruff.info/R100083
##MEASURED CHEMISTRY=Ag_15.66_Hg_1.21_Fe_0.02_Cu_0.004_Sb_0.17_As_3.61_S_15_
140.1502, -4.350344
140.6323, -2.940936
141.1144, -0.7520481
141.5966, 1.768050
142.0787, 4.939763
142.5608, 6.895664
143.0429, 7.430928
143.5250, 6.872329
144.0071, 5.710085
144.4893, 3.137257
144.9714, 1.290252
145.4535, 1.345662
145.9356, 4.801146
146.4177, 7.163894
146.8998, 8.159884
147.3820, 8.001123
147.8641, 7.514742
148.3462, 5.873383
148.8283, 4.687348
149.3104, 4.860876
149.7925, 8.083784
150.2747, 10.46336
150.7568, 11.40143
151.2389, 11.03191
151.7210, 10.94782
152.2031, 11.40487
152.6852, 11.99080
153.1674, 12.45505
153.6495, 12.83056
154.1316, 13.03422
154.6137, 12.94549
155.0958, 12.55682
155.5779, 12.35018
156.0601, 12.51096
156.5422, 12.81887
157.0243, 13.08419
157.5064, 13.79408
157.9885, 13.97510
158.4706, 12.84658
158.9528, 10.10614
159.4349, 8.551544
159.9170, 10.10355
160.3991, 12.86522
160.8812, 14.64374
161.3633, 13.25759
161.8455, 11.99740
162.3276, 12.67619
162.8097, 15.95323
163.2918, 18.64957
163.7739, 19.41880
164.2560, 18.77415
164.7382, 17.44944
165.2203, 14.49932
165.7024, 12.06999
166.1845, 11.83571
166.6666, 14.72473
167.1487, 17.32620
167.6309, 17.30886
168.1130, 15.66066
168.5951, 14.46315
169.0772, 15.40650
169.5593, 16.82601
170.0414, 17.16634
170.5236, 15.72144
171.0057, 14.21445
171.4878, 13.87179
171.9699, 14.47093
172.4520, 15.35262
172.9341, 16.53486
173.4163, 17.65495
173.8984, 18.25237
174.3805, 18.09163
174.8626, 17.62240
175.3447, 17.00217
175.8268, 16.32998
176.3090, 16.08510
176.7911, 17.00422
177.2732, 18.48888
177.7553, 19.61043
178.2374, 20.27734
178.7195, 20.33163
179.2017, 19.10123
179.6838, 16.73066
180.1659, 14.71964
180.6480, 14.58249
181.1301, 15.67228
181.6122, 16.44897
182.0944, 16.24489
182.5765, 15.65972
183.0586, 15.81586
183.5407, 16.70059
184.0228, 17.62678
184.5049, 17.97073
184.9871, 17.83869
185.4692, 17.57845
185.9513, 17.17009
186.4334, 16.75304
186.9155, 16.73062
187.3976, 17.13284
187.8798, 17.57919
188.3619, 17.68623
188.8440, 17.48911
189.3261, 17.19586
189.8082, 16.81055
190.2903, 16.38296
190.7725, 16.11819
191.2546, 16.03697
191.7367, 15.99062
192.2188, 15.63936
192.7009, 15.01567
193.1830, 14.83010
193.6652, 15.53024
194.1473, 16.95967
194.6294, 18.16217
195.1115, 19.16438
195.5936, 19.86184
196.0757, 20.01675
196.5579, 19.61404
197.0400, 19.14492
197.5221, 18.84829
198.0042, 18.70191
198.4863, 18.20719
198.9684, 17.19890
199.4506, 16.21415
199.9327, 16.22803
200.4148, 17.35888
200.8969, 18.38255
201.3790, 18.64050
201.8611, 18.08667
202.3433, 18.19553
202.8254, 19.19068
203.3075, 20.49294
203.7896, 21.13843
204.2717, 21.08319
204.7538, 20.63611
205.2360, 19.73565
205.7181, 18.27329
206.2002, 17.42838
206.6823, 17.40418
207.1644, 17.75100
207.6465, 17.49592
208.1287, 16.36996
208.6108, 15.59049
209.0929, 15.86754
209.5750, 17.48610
210.0571, 18.64566
210.5392, 19.33609
211.0214, 19.58494
211.5035, 19.26998
211.9856, 18.07360
212.4677, 17.19728
212.9498, 17.44931
213.4319, 19.35415
213.9140, 20.01526
214.3962, 18.80817
214.8783, 16.73013
215.3604, 16.28472
215.8425, 18.19825
216.3246, 20.09428
216.8067, 20.78980
217.2889, 19.80783
217.7710, 19.27177
218.2531, 19.37349
218.7352, 19.85456
219.2173, 20.12993
219.6994, 20.22716
220.1816, 20.06436
220.6637, 19.54296
221.1458, 18.47004
221.6279, 17.59620
222.1100, 16.97857
222.5921, 16.54393
223.0743, 16.02337
223.5564, 15.17821
224.0385, 14.67423
224.5206, 14.92685
225.0027, 16.36100
225.4848, 17.42789
225.9670, 18.11363
226.4491, 18.41063
226.9312, 18.16542
227.4133, 16.82480
227.8954, 15.84158
228.3775, 16.11920
228.8597, 18.73026
229.3418, 19.84908
229.8239, 18.57231
230.3060, 16.00668
230.7881, 15.41744
231.2702, 18.06910
231.7524, 20.77469
232.2345, 22.06613
232.7166, 21.47092
233.1987, 20.52690
233.6808, 18.75307
234.1629, 16.76539
234.6451, 16.35907
235.1272, 18.62244
235.6093, 20.85161
236.0914, 21.77241
236.5735, 20.59622
237.0556, 19.93931
237.5378, 20.04289
238.0199, 20.59592
238.5020, 20.80311
238.9841, 20.50115
239.4662, 20.09940
239.9483, 19.74418
240.4305, 19.37782
240.9126, 19.20871
241.3947, 19.30712
241.8768, 19.57996
242.3589, 19.83783
242.8410, 20.24228
243.3232, 20.38453
243.8053, 20.01621
244.2874, 18.76192
244.7695, 17.92272
245.2516, 17.67358
245.7337, 17.76441
246.2159, 17.58547
246.6980, 16.78349
247.1801, 16.27045
247.6622, 16.51819
248.1443, 18.03057
248.6264, 18.84070
249.1086, 18.59381
249.5907, 17.82523
250.0728, 17.67432
250.5549, 18.48825
251.0370, 19.33699
251.5191, 19.89819
252.0013, 20.15150
252.4834, 20.14952
252.9655, 19.78990
253.4476, 19.23686
253.9297, 18.77777
254.4118, 18.40174
254.8940, 18.14627
255.3761, 18.01404
255.8582, 17.98648
256.3403, 18.19138
256.8224, 18.77076
257.3046, 19.47395
257.7867, 19.86624
258.2688, 19.86319
258.7509, 19.72560
259.2330, 19.42130
259.7151, 18.81448
260.1973, 18.96432
260.6794, 20.40993
261.1615, 22.08481
261.6436, 22.17149
262.1257, 19.80190
262.6078, 17.98387
263.0900, 17.89557
263.5721, 19.80371
264.0542, 20.74308
264.5363, 20.39416
265.0184, 19.47011
265.5005, 18.84208
265.9827, 18.56878
266.4648, 18.43897
266.9469, 18.42315
267.4290, 18.52333
267.9111, 18.66845
268.3932, 18.97116
268.8754, 19.14081
269.3575, 18.67886
269.8396, 17.26815
270.3217, 16.40865
270.8038, 16.66976
271.2859, 17.97151
271.7681, 18.60971
272.2502, 18.36093
272.7323, 17.91300
273.2144, 18.10767
273.6965, 19.15252
274.1786, 19.69715
274.6608, 19.30929
275.1429, 18.14172
275.6250, 17.28273
276.1071, 16.76800
276.5892, 16.45946
277.0714, 16.30963
277.5535, 16.34707
278.0356, 16.20637
278.5177, 15.58175
278.9998, 14.78516
279.4819, 15.41826
279.9641, 17.84399
280.4462, 20.21133
280.9283, 20.90258
281.4104, 19.85948
281.8925, 18.82515
282.3746, 18.00926
282.8568, 17.41177
283.3389, 17.09964
283.8210, 17.10518
284.3031, 17.14453
284.7852, 16.94424
285.2673, 16.53050
285.7495, 16.36679
286.2316, 16.55047
286.7137, 16.95168
287.1958, 17.34004
287.6779, 17.71648
288.1600, 18.04243
288.6422, 18.27758
289.1243, 18.43402
289.6064, 18.58417
290.0885, 18.73619
290.5706, 18.88401
291.0527, 19.12120
291.5349, 19.42516
292.0170, 19.45771
292.4991, 18.89611
292.9812, 17.88967
293.4633, 16.84130
293.9454, 15.65672
294.4276, 14.88246
294.9097, 15.61200
295.3918, 17.57205
295.8739, 19.31751
296.3560, 20.11306
296.8381, 20.19298
297.3203, 19.97857
297.8024, 19.45340
298.2845, 18.88801
298.7666, 18.54001
299.2487, 18.38297
299.7308, 18.32723
300.2130, 18.46273
300.6951, 18.63028
301.1772, 18.38473
301.6593, 17.72853
302.1414, 17.37463
302.6235, 18.55238
303.1057, 20.46381
303.5878, 21.43943
304.0699, 20.31797
304.5520, 18.48574
305.0341, 17.49362
305.5162, 17.27965
305.9984, 17.29747
306.4805, 17.11892
306.9626, 16.94231
307.4447, 17.10796
307.9268, 18.06677
308.4089, 18.91610
308.8911, 18.59525
309.3732, 17.38000
309.8553, 16.40588
310.3374, 16.69070
310.8195, 17.38424
311.3016, 17.57576
311.7838, 16.82209
312.2659, 16.08354
312.7480, 15.97274
313.2301, 16.36157
313.7122, 16.92466
314.1943, 18.06787
314.6765, 18.97940
315.1586, 18.89581
315.6407, 17.36513
316.1228, 16.06791
316.6049, 15.92827
317.0870, 16.53840
317.5692, 17.22463
318.0513, 18.10436
318.5334, 18.71611
319.0155, 18.62541
319.4976, 17.64676
319.9797, 17.09382
320.4619, 18.08219
320.9440, 19.48633
321.4261, 20.03676
321.9082, 18.36102
322.3903, 16.82748
322.8724, 16.19851
323.3546, 16.51427
323.8367, 16.99505
324.3188, 17.98053
324.8009, 18.81588
325.2830, 18.99314
325.7651, 17.57257
326.2473, 16.47412
326.7294, 16.04627
327.2115, 16.22523
327.6936, 16.48387
328.1757, 16.81169
328.6578, 17.19742
329.1400, 17.63569
329.6221, 18.06281
330.1042, 18.63504
330.5863, 19.72649
331.0684, 20.97614
331.5505, 21.25564
332.0327, 19.61679
332.5148, 18.12696
332.9969, 17.65828
333.4790, 18.70206
333.9611, 19.45281
334.4432, 19.95194
334.9254, 20.13312
335.4075, 19.76903
335.8896, 18.39507
336.3717, 17.42937
336.8538, 17.55256
337.3359, 18.95443
337.8180, 19.22361
338.3001, 17.80976
338.7823, 16.10586
339.2644, 15.87720
339.7465, 17.51336
340.2286, 18.90709
340.7107, 19.52375
341.1928, 19.46710
341.6750, 19.43623
342.1571, 19.47641
342.6392, 19.37549
343.1213, 18.90387
343.6034, 18.06055
344.0855, 17.10761
344.5677, 15.89826
345.0498, 14.80883
345.5319, 14.96665
346.0140, 16.40705
346.4961, 18.08101
346.9782, 19.61876
347.4604, 20.91150
347.9425, 21.17780
348.4246, 20.13493
348.9067, 18.70201
349.3888, 18.32304
349.8709, 18.81027
350.3531, 19.12091
350.8352, 18.33787
351.3173, 17.10877
351.7994, 16.67663
352.2815, 17.10812
352.7636, 18.07443
353.2458, 20.01959
353.7279, 22.26227
354.2100, 23.30367
354.6921, 21.49878
355.1742, 18.95654
355.6563, 18.07937
356.1385, 18.72220
356.6206, 19.31080
357.1027, 18.17771
357.5848, 16.60246
358.0669, 16.15320
358.5490, 17.83636
359.0312, 19.85166
359.5133, 21.43709
359.9954, 22.50554
360.4775, 22.82274
360.9596, 21.52746
361.4417, 19.93108
361.9239, 18.88760
362.4060, 18.57300
362.8881, 18.68963
363.3702, 19.71415
363.8523, 20.98971
364.3344, 21.50935
364.8166, 19.91718
365.2987, 18.47394
365.7808, 18.25184
366.2629, 19.47751
366.7450, 20.33087
367.2271, 19.84801
367.7093, 19.20425
368.1914, 19.43261
368.6735, 22.40891
369.1556, 24.28006
369.6377, 23.76489
370.1198, 21.24302
370.6020, 20.06500
371.0841, 21.10273
371.5662, 22.67655
372.0483, 23.94470
372.5304, 25.13350
373.0125, 25.55466
373.4947, 24.75194
373.9768, 23.32844
374.4589, 22.81926
374.9410, 23.83951
375.4231, 24.49330
375.9052, 23.79002
376.3874, 21.41121
376.8695, 20.35015
377.3516, 21.08384
377.8337, 22.31525
378.3158, 22.21095
378.7979, 20.52173
379.2801, 19.40750
379.7622, 19.67061
380.2443, 20.94213
380.7264, 21.59830
381.2085, 21.59996
381.6906, 21.22477
382.1728, 20.57278
382.6549, 19.69007
383.1370, 18.88930
383.6191, 18.18055
384.1012, 17.63874
384.5833, 17.43313
385.0655, 17.53506
385.5476, 17.71679
386.0297, 18.06390
386.5118, 18.35144
386.9939, 18.04499
387.4760, 17.02238
387.9582, 15.97102
388.4403, 15.55831
388.9224, 15.58872
389.4045, 15.65359
389.8866, 15.38979
390.3687, 15.21920
390.8509, 15.79986
391.3330, 17.02698
391.8151, 17.75748
392.2972, 16.78585
392.7793, 15.22522
393.2614, 14.12079
393.7436, 13.73474
394.2257, 13.87638
394.7078, 15.06115
395.1899, 16.77682
395.6720, 17.67798
396.1541, 16.49076
396.6363, 15.06864
397.1184, 14.25004
397.6005, 14.19283
398.0826, 14.51875
398.5647, 15.84872
399.0468, 17.30205
399.5290, 17.81119
400.0111, 16.31048
400.4932, 14.92368
400.9753, 13.85605
401.4574, 13.10861
401.9395, 13.11145
402.4217, 14.36316
402.9038, 15.83757
403.3859, 16.93325
403.8680, 17.81987
404.3501, 17.82762
404.8322, 16.49011
405.3144, 14.44278
405.7965, 13.44302
406.2786, 13.68771
406.7607, 14.30646
407.2428, 15.19341
407.7249, 16.38724
408.2071, 16.28720
408.6892, 14.54016
409.1713, 12.53884
409.6534, 12.27421
410.1355, 13.65126
410.6176, 14.65999
411.0998, 14.49342
411.5819, 13.72424
412.0640, 13.84216
412.5461, 14.81289
413.0282, 15.78818
413.5103, 15.95156
413.9925, 15.66339
414.4746, 15.77573
414.9567, 16.60204
415.4388, 17.33361
415.9209, 16.99437
416.4030, 15.89442
416.8852, 14.79314
417.3673, 14.02000
417.8494, 13.45266
418.3315, 12.98703
418.8136, 12.62111
419.2957, 12.38228
419.7779, 12.14022
420.2600, 12.09737
420.7421, 12.46125
421.2242, 14.09824
421.7063, 15.30813
422.1884, 15.21740
422.6706, 14.18173
423.1527, 13.54358
423.6348, 14.03727
424.1169, 14.65935
424.5990, 14.98740
425.0811, 14.99072
425.5633, 14.67438
426.0454, 13.51248
426.5275, 12.25618
427.0096, 11.88917
427.4917, 13.05899
427.9738, 14.15144
428.4560, 14.87452
428.9381, 15.23954
429.4202, 15.37834
429.9023, 15.29633
430.3844, 14.97903
430.8665, 14.27396
431.3487, 13.03768
431.8308, 12.30881
432.3129, 12.23105
432.7950, 12.63020
433.2771, 13.30650
433.7592, 14.27348
434.2414, 15.02817
434.7235, 15.36870
435.2056, 15.31011
435.6877, 14.76903
436.1698, 13.70798
436.6519, 12.65734
437.1341, 12.16450
437.6162, 12.10973
438.0983, 12.16070
438.5804, 12.19022
439.0625, 12.34243
439.5446, 13.00932
440.0268, 14.00787
440.5089, 14.66920
440.9910, 14.23034
441.4731, 13.50024
441.9552, 13.23625
442.4373, 13.60723
442.9195, 14.00290
443.4016, 14.21277
443.8837, 14.24051
444.3658, 14.09044
444.8479, 13.22001
445.3300, 12.71960
445.8122, 13.46201
446.2943, 15.19786
446.7764, 15.77516
447.2585, 13.22307
447.7406, 10.70997
448.2227, 9.918023
448.7049, 12.18701
449.1870, 13.61357
449.6691, 13.76388
450.1512, 13.28009
450.6333, 13.16588
451.1154, 13.56168
451.5976, 14.03603
452.0797, 14.54760
452.5618, 15.07688
453.0439, 15.25202
453.5260, 15.00051
454.0081, 14.61342
454.4903, 14.25204
454.9724, 13.92135
455.4545, 13.85307
455.9366, 14.19634
456.4187, 14.56218
456.9008, 13.99421
457.3830, 12.64959
457.8651, 11.79978
458.3472, 12.62949
458.8293, 14.15840
459.3114, 14.49030
459.7935, 13.61781
460.2757, 12.57567
460.7578, 12.06788
461.2399, 11.94864
461.7220, 12.06425
462.2041, 12.58543
462.6862, 12.97057
463.1684, 12.61022
463.6505, 11.83721
464.1326, 11.43093
464.6147, 11.96538
465.0968, 12.72951
465.5789, 13.36526
466.0611, 13.82261
466.5432, 14.32677
467.0253, 15.51212
467.5074, 16.44100
467.9895, 16.31645
468.4716, 13.64534
468.9538, 11.76492
469.4359, 10.99227
469.9180, 11.15263
470.4001, 11.81675
470.8822, 13.38816
471.3643, 14.74365
471.8465, 15.48083
472.3286, 15.59639
472.8107, 14.97634
473.2928, 13.36650
473.7749, 11.66448
474.2570, 10.89116
474.7392, 11.04135
475.2213, 11.56802
475.7034, 12.47523
476.1855, 13.54254
476.6676, 14.39554
477.1497, 15.02827
477.6319, 15.36067
478.1140, 15.20510
478.5961, 14.76785
479.0782, 14.31600
479.5603, 13.85238
480.0424, 13.58811
480.5246, 13.95615
481.0067, 14.56122
481.4888, 14.83779
481.9709, 14.38489
482.4530, 13.81659
482.9352, 13.43779
483.4173, 13.19710
483.8994, 12.93211
484.3815, 12.10340
484.8636, 11.63580
485.3457, 12.29581
485.8279, 14.77096
486.3100, 15.93401
486.7921, 14.10826
487.2742, 11.63250
487.7563, 10.58047
488.2384, 11.93475
488.7206, 13.05216
489.2027, 13.71258
489.6848, 13.91626
490.1669, 13.48449
490.6490, 12.13113
491.1311, 11.02421
491.6133, 10.83812
492.0954, 11.55391
492.5775, 12.10035
493.0596, 12.43556
493.5417, 12.76754
494.0238, 13.50981
494.5060, 14.51032
494.9881, 15.02984
495.4702, 14.82376
495.9523, 14.14107
496.4344, 12.95311
496.9165, 11.48398
497.3987, 10.57858
497.8808, 11.28096
498.3629, 12.41954
498.8450, 12.80861
499.3271, 12.33349
499.8092, 11.82173
500.2914, 11.49875
500.7735, 11.45361
501.2556, 11.77315
501.7377, 13.10794
502.2198, 14.04630
502.7019, 13.99730
503.1841, 13.31568
503.6662, 12.97424
504.1483, 13.32779
504.6304, 13.73538
505.1125, 14.07731
505.5946, 14.37285
506.0768, 14.31944
506.5589, 13.62076
507.0410, 13.01485
507.5231, 13.33986
508.0052, 14.86923
508.4873, 15.38516
508.9695, 14.32034
509.4516, 12.63615
509.9337, 12.31044
510.4158, 13.26403
510.8979, 13.99326
511.3800, 13.54738
511.8622, 12.52233
512.3443, 12.46544
512.8264, 13.31643
513.3085, 13.94402
513.7906, 13.05262
514.2728, 11.58751
514.7549, 10.84046
515.2370, 11.23616
515.7191, 11.81870
516.2012, 12.00518
516.6833, 11.98697
517.1655, 12.06163
517.6476, 12.38740
518.1297, 12.75956
518.6118, 13.27212
519.0939, 13.87110
519.5760, 13.99580
520.0582, 12.86417
520.5403, 11.86033
521.0224, 11.69904
521.5045, 12.96477
521.9866, 13.26626
522.4688, 12.03566
522.9509, 10.46675
523.4330, 10.16868
523.9151, 11.43000
524.3972, 12.32465
524.8793, 12.26618
525.3615, 11.72532
525.8436, 12.06922
526.3257, 13.28589
526.8078, 14.42373
527.2899, 15.05710
527.7720, 15.19977
528.2542, 14.58003
528.7363, 13.15425
529.2184, 12.08321
529.7005, 13.05800
530.1826, 14.77423
530.6647, 15.33220
531.1469, 13.33210
531.6290, 11.52385
532.1111, 11.91234
532.5932, 13.56495
533.0753, 14.57737
533.5574, 13.72562
534.0396, 12.79536
534.5217, 12.36701
535.0038, 12.49060
535.4859, 12.78312
535.9680, 13.23736
536.4501, 13.84842
536.9323, 14.73180
537.4144, 16.34030
537.8965, 16.86911
538.3786, 15.92886
538.8607, 14.38774
539.3428, 13.50554
539.8250, 13.29973
540.3071, 13.47483
540.7892, 14.16991
541.2713, 15.01291
541.7534, 14.86052
542.2355, 13.81078
542.7177, 12.90430
543.1998, 13.22340
543.6819, 13.94327
544.1640, 13.56477
544.6461, 11.91930
545.1282, 10.46885
545.6104, 10.45238
546.0925, 11.12230
546.5746, 11.64309
547.0567, 11.68475
547.5388, 11.68770
548.0209, 11.84164
548.5031, 12.05701
548.9852, 12.14025
549.4673, 11.88694
549.9494, 11.67994
550.4315, 11.54996
550.9136, 11.49794
551.3958, 11.86389
551.8779, 13.01437
552.3600, 13.96627
552.8421, 13.93929
553.3242, 12.78229
553.8063, 12.13182
554.2885, 12.14605
554.7706, 12.42224
555.2527, 12.53730
555.7348, 12.47504
556.2169, 12.02548
556.6990, 10.68801
557.1812, 9.507504
557.6633, 10.53582
558.1454, 13.18435
558.6275, 15.24435
559.1096, 15.00410
559.5917, 13.94890
560.0739, 13.19760
560.5560, 12.83100
561.0381, 12.55809
561.5202, 12.17557
562.0023, 11.89636
562.4844, 11.90541
562.9666, 12.76179
563.4487, 13.07890
563.9308, 12.31427
564.4129, 11.18176
564.8950, 10.81728
565.3771, 11.59846
565.8593, 12.31765
566.3414, 12.75933
566.8235, 12.92549
567.3056, 12.70891
567.7877, 12.03242
568.2698, 11.54623
568.7520, 11.70843
569.2341, 12.38513
569.7162, 13.26028
570.1983, 14.35541
570.6804, 15.03393
571.1625, 14.04133
571.6447, 12.39259
572.1268, 11.85383
572.6089, 13.36446
573.0910, 14.92870
573.5731, 15.30365
574.0552, 14.85365
574.5374, 14.22287
575.0195, 13.40892
575.5016, 12.66068
575.9837, 12.06489
576.4658, 11.62008
576.9479, 11.20071
577.4301, 10.33058
577.9122, 10.05941
578.3943, 11.20822
578.8764, 14.35197
579.3585, 15.37484
579.8406, 13.59656
580.3228, 11.21205
580.8049, 10.69561
581.2870, 11.92412
581.7691, 12.62462
582.2512, 12.29015
582.7333, 11.55626
583.2155, 11.24473
583.6975, 11.31066
584.1796, 11.60302
584.6617, 12.37435
585.1439, 13.10733
585.6260, 13.16295
586.1081, 12.68977
586.5902, 12.44211
587.0723, 13.15625
587.5544, 13.89597
588.0366, 14.09860
588.5187, 13.58353
589.0008, 13.05446
589.4829, 12.42474
589.9650, 11.92768
590.4471, 11.77087
590.9293, 12.16112
591.4114, 12.39026
591.8935, 12.31630
592.3756, 12.16753
592.8577, 12.49103
593.3398, 13.33266
593.8220, 13.81443
594.3041, 13.57186
594.7862, 12.84886
595.2683, 12.05837
595.7504, 11.24183
596.2325, 10.65389
596.7147, 10.50054
597.1968, 10.64117
597.6789, 10.98516
598.1610, 11.52892
598.6431, 12.03017
599.1252, 12.32593
599.6074, 12.53261
600.0895, 12.75153
600.5716, 13.04920
601.0537, 13.27570
601.5358, 13.54205
602.0179, 13.66963
602.5001, 13.36847
602.9822, 12.28319
603.4643, 11.48509
603.9464, 11.16926
604.4285, 11.25256
604.9106, 11.59783
605.3928, 12.26550
605.8749, 12.61152
606.3570, 11.92994
606.8391, 10.70811
607.3212, 10.67004
607.8033, 11.77550
608.2855, 13.10784
608.7676, 14.33900
609.2497, 15.21129
609.7318, 15.22114
610.2139, 14.12001
610.6960, 13.04981
611.1782, 12.59717
611.6603, 12.51934
612.1424, 12.55501
612.6245, 12.80844
613.1066, 12.97804
613.5887, 12.98611
614.0709, 12.89404
614.5530, 12.83921
615.0351, 12.91880
615.5172, 12.79882
615.9993, 12.20911
616.4814, 11.34589
616.9636, 11.48762
617.4457, 12.74203
617.9278, 13.77146
618.4099, 13.39625
618.8920, 12.17010
619.3741, 11.72629
619.8563, 12.13088
620.3384, 12.49703
620.8205, 11.75532
621.3026, 10.70331
621.7847, 10.37995
622.2668, 11.26091
622.7490, 12.16319
623.2311, 12.77876
623.7132, 13.04823
624.1953, 12.89565
624.6774, 11.51251
625.1595, 10.68496
625.6417, 10.69827
626.1238, 11.39230
626.6059, 12.49719
627.0880, 14.41548
627.5701, 15.50200
628.0522, 14.77840
628.5344, 12.75574
629.0165, 12.13074
629.4986, 12.92986
629.9807, 13.96008
630.4628, 14.50778
630.9449, 14.66064
631.4271, 14.47297
631.9092, 13.93299
632.3913, 13.49959
632.8734, 13.91787
633.3555, 14.41071
633.8376, 14.05279
634.3198, 11.86107
634.8019, 10.37198
635.2840, 10.72264
635.7661, 11.99952
636.2482, 12.93077
636.7303, 13.44146
637.2125, 13.67083
637.6946, 13.56892
638.1767, 13.22499
638.6588, 12.79861
639.1409, 12.22884
639.6230, 11.99881
640.1052, 12.50401
640.5873, 13.41731
641.0694, 13.65240
641.5515, 13.26940
642.0336, 12.92391
642.5157, 13.15913
642.9979, 13.62621
643.4800, 13.93078
643.9621, 14.03674
644.4442, 14.08698
644.9263, 14.40459
645.4084, 14.54537
645.8906, 14.05869
646.3727, 11.95325
646.8548, 10.96556
647.3369, 11.95267
647.8190, 13.60143
648.3011, 14.31507
648.7833, 13.80018
649.2654, 13.35623
649.7475, 13.22916
650.2296, 13.20683
650.7117, 12.65809
651.1938, 11.65377
651.6760, 11.10896
652.1581, 11.63294
652.6402, 12.64228
653.1223, 13.42882
653.6044, 13.96353
654.0865, 14.16623
654.5687, 13.55222
655.0508, 12.93135
655.5329, 12.95255
656.0150, 13.68618
656.4971, 14.15989
656.9792, 13.81404
657.4614, 13.43230
657.9435, 13.52777
658.4256, 14.43907
658.9077, 14.56502
659.3898, 13.60524
659.8719, 12.38845
660.3541, 11.78581
660.8362, 11.78049
661.3183, 11.72576
661.8004, 11.44736
662.2825, 11.36316
662.7646, 12.49851
663.2468, 14.26126
663.7289, 15.15054
664.2110, 13.94626
664.6931, 12.55413
665.1752, 12.31443
665.6573, 12.90624
666.1395, 13.56040
666.6216, 14.46923
667.1037, 14.97357
667.5858, 14.67178
668.0679, 13.69254
668.5500, 12.84725
669.0322, 12.03055
669.5143, 11.54849
669.9964, 11.63449
670.4785, 12.24457
670.9606, 12.71307
671.4427, 13.04927
671.9249, 13.15413
672.4070, 12.50503
672.8891, 11.65502
673.3712, 12.20293
673.8533, 14.47954
674.3354, 16.10830
674.8176, 14.28705
675.2997, 11.45362
675.7818, 10.27222
676.2639, 12.30661
676.7460, 14.14972
677.2281, 15.16265
677.7103, 15.49341
678.1924, 15.25804
678.6745, 14.14619
679.1566, 13.13139
679.6387, 12.27056
680.1208, 11.63689
680.6030, 11.43430
681.0851, 11.66366
681.5672, 12.00136
682.0493, 12.39886
682.5314, 12.76895
683.0135, 12.92339
683.4957, 12.90253
683.9778, 12.85989
684.4599, 13.16696
684.9420, 13.24764
685.4241, 12.32137
685.9063, 10.51347
686.3884, 9.556508
686.8705, 10.78520
687.3526, 12.17797
687.8347, 12.87412
688.3168, 12.80199
688.7990, 12.38763
689.2811, 11.35231
689.7632, 10.58007
690.2453, 11.13210
690.7274, 12.84316
691.2095, 13.26625
691.6917, 12.08985
692.1738, 10.77793
692.6559, 11.27223
693.1380, 12.60366
693.6201, 12.96131
694.1022, 11.45279
694.5844, 10.27175
695.0665, 11.21800
695.5486, 13.04473
696.0307, 14.15773
696.5128, 13.48234
696.9949, 12.99578
697.4771, 12.93578
697.9592, 13.15344
698.4413, 13.38577
698.9234, 13.65819
699.4055, 13.86390
699.8876, 14.04207
700.3698, 14.07310
700.8519, 13.48123
701.3340, 12.36957
701.8161, 11.44100
702.2982, 11.05268
702.7803, 11.04136
703.2625, 11.40426
703.7446, 12.05133
704.2267, 12.52991
704.7088, 12.69679
705.1909, 12.59949
705.6730, 12.04449
706.1552, 10.95405
706.6373, 10.62349
707.1194, 11.41025
707.6015, 12.46894
708.0836, 13.43694
708.5657, 14.32616
709.0479, 14.80478
709.5300, 14.84901
710.0121, 14.62468
710.4942, 14.16033
710.9763, 13.55890
711.4584, 13.02559
711.9406, 12.58151
712.4227, 12.27536
712.9048, 12.13378
713.3869, 12.14938
713.8690, 12.34357
714.3511, 12.93865
714.8333, 13.31367
715.3154, 13.14962
715.7975, 12.81399
716.2796, 12.73764
716.7617, 13.13105
717.2438, 13.10329
717.7260, 12.37828
718.2081, 11.45574
718.6902, 11.27376
719.1723, 11.75178
719.6544, 12.28449
720.1365, 12.70213
720.6187, 13.05761
721.1008, 13.37072
721.5829, 13.67255
722.0650, 14.04472
722.5471, 15.01921
723.0292, 15.56602
723.5114, 14.92373
723.9935, 13.39569
724.4756, 12.31031
724.9577, 11.85177
725.4398, 11.64633
725.9219, 11.64917
726.4041, 11.82388
726.8862, 11.86779
727.3683, 11.74340
727.8504, 11.94942
728.3325, 13.38324
728.8146, 15.16394
729.2968, 14.99882
729.7789, 13.10666
730.2610, 11.53006
730.7431, 11.95289
731.2252, 12.88192
731.7073, 13.13316
732.1895, 12.52165
732.6716, 12.32695
733.1537, 13.57775
733.6358, 14.56285
734.1179, 14.20648
734.6000, 12.06547
735.0822, 11.34105
735.5643, 12.34986
736.0464, 13.67013
736.5285, 14.11774
737.0106, 13.81083
737.4927, 12.96813
737.9749, 11.52223
738.4570, 10.44876
738.9391, 10.89683
739.4212, 12.06064
739.9033, 13.12068
740.3854, 14.12792
740.8676, 14.45702
741.3497, 13.29736
741.8318, 11.71959
742.3139, 10.81399
742.7960, 10.82045
743.2781, 10.88989
743.7603, 10.88895
744.2424, 11.07006
744.7245, 12.07271
745.2066, 13.73940
745.6887, 14.80106
746.1708, 14.89087
746.6530, 14.45659
747.1351, 13.66074
747.6172, 12.77725
748.0993, 12.30062
748.5814, 13.13361
749.0635, 13.56580
749.5457, 12.43819
750.0278, 10.59035
750.5099, 9.870303
750.9920, 10.97485
751.4741, 11.90657
751.9562, 12.23885
752.4384, 12.23249
752.9205, 12.59157
753.4026, 13.30410
753.8847, 13.89536
754.3668, 14.26112
754.8489, 14.31172
755.3311, 13.68091
755.8132, 12.59676
756.2953, 11.74630
756.7774, 11.15387
757.2595, 11.14974
757.7416, 12.54181
758.2238, 14.87576
758.7059, 15.69048
759.1880, 13.63668
759.6701, 12.09107
760.1522, 12.28620
760.6343, 13.79353
761.1165, 14.29741
761.5986, 13.75933
762.0807, 12.94333
762.5628, 11.86792
763.0449, 10.96197
763.5270, 11.27336
764.0092, 12.57081
764.4913, 13.62366
764.9734, 13.40097
765.4555, 13.01723
765.9376, 13.34908
766.4197, 14.43140
766.9019, 14.63410
767.3840, 13.22974
767.8661, 11.87714
768.3482, 11.25347
768.8303, 11.33915
769.3124, 11.99565
769.7946, 13.29859
770.2767, 14.18186
770.7588, 13.39156
771.2409, 11.85242
771.7230, 11.28725
772.2051, 11.72718
772.6873, 12.25000
773.1694, 12.23983
773.6515, 12.18003
774.1336, 12.47773
774.6157, 13.28168
775.0978, 13.69892
775.5800, 13.51011
776.0621, 13.19396
776.5442, 13.00797
777.0263, 12.95531
777.5084, 13.02014
777.9905, 13.22966
778.4727, 13.30130
778.9548, 12.78689
779.4369, 12.03941
779.9190, 11.70457
780.4011, 11.86361
780.8832, 12.10882
781.3654, 12.38837
781.8475, 12.53801
782.3296, 12.42920
782.8117, 12.00081
783.2938, 11.34482
783.7759, 9.925994
784.2581, 9.027802
784.7402, 10.21110
785.2223, 13.47721
785.7044, 14.37160
786.1865, 12.47834
786.6686, 10.38009
787.1508, 10.97032
787.6329, 12.79287
788.1150, 13.46982
788.5971, 12.46161
789.0792, 11.56505
789.5613, 11.82058
790.0435, 12.42971
790.5256, 12.73364
791.0077, 12.51317
791.4898, 12.49173
791.9719, 12.80083
792.4540, 13.08860
792.9362, 12.99390
793.4183, 12.54724
793.9004, 12.11634
794.3825, 11.72896
794.8646, 11.33496
795.3467, 10.65723
795.8289, 10.03397
796.3110, 10.04247
796.7931, 10.97726
797.2752, 11.66863
797.7573, 11.37895
798.2394, 10.88735
798.7216, 10.84485
799.2037, 11.41111
799.6858, 12.07403
800.1679, 12.95175
800.6500, 13.65966
801.1321, 13.76632
801.6143, 13.36003
802.0964, 12.79041
802.5785, 12.06147
803.0606, 11.53211
803.5427, 11.71107
804.0248, 12.17191
804.5070, 12.49295
804.9891, 12.66540
805.4712, 12.47983
805.9533, 11.16227
806.4354, 10.01730
806.9175, 10.18829
807.3997, 12.22451
807.8818, 13.03508
808.3639, 12.28127
808.8460, 11.28085
809.3281, 11.58499
809.8102, 12.69158
810.2924, 13.28730
810.7745, 13.16017
811.2566, 12.87288
811.7387, 12.75669
812.2208, 12.70241
812.7029, 12.60087
813.1851, 12.37360
813.6672, 12.30318
814.1493, 12.67469
814.6314, 12.87614
815.1135, 12.19464
815.5956, 10.55355
816.0778, 9.916477
816.5599, 10.45068
817.0420, 11.22744
817.5241, 11.25191
818.0062, 10.97306
818.4883, 11.17290
818.9705, 12.02745
819.4526, 12.74114
819.9347, 12.84776
820.4168, 12.73894
820.8989, 12.69957
821.3810, 12.78641
821.8632, 12.72429
822.3453, 12.40302
822.8274, 12.17530
823.3095, 12.46725
823.7916, 13.14428
824.2737, 13.39240
824.7559, 13.17224
825.2380, 12.89774
825.7201, 12.77826
826.2022, 12.85037
826.6843, 13.29777
827.1664, 14.21972
827.6486, 14.70780
828.1307, 14.24113
828.6128, 13.57175
829.0949, 12.97566
829.5770, 12.43999
830.0591, 12.34466
830.5413, 12.77315
831.0234, 13.13487
831.5055, 12.73755
831.9876, 12.04786
832.4697, 12.15491
832.9518, 13.03187
833.4340, 13.69777
833.9161, 13.19489
834.3982, 12.61165
834.8803, 12.73771
835.3624, 13.68755
835.8445, 14.24605
836.3267, 14.40938
836.8088, 14.16332
837.2909, 13.20406
837.7730, 11.79180
838.2551, 11.79652
838.7372, 13.11458
839.2194, 14.08835
839.7015, 13.21401
840.1836, 11.79817
840.6657, 11.03667
841.1478, 10.90019
841.6299, 10.99365
842.1121, 11.53525
842.5942, 11.89794
843.0763, 11.69359
843.5584, 11.11286
844.0405, 11.45261
844.5226, 12.91517
845.0048, 13.79565
845.4869, 12.92352
845.9690, 11.35312
846.4511, 11.52940
846.9332, 12.86083
847.4153, 13.40087
847.8975, 10.74131
848.3796, 8.553637
848.8617, 9.297863
849.3438, 11.99605
849.8259, 13.19915
850.3080, 12.15027
850.7902, 11.09934
851.2723, 10.45776
851.7544, 10.19100
852.2365, 10.44063
852.7186, 11.08785
853.2007, 11.37784
853.6829, 10.71214
854.1650, 10.12756
854.6471, 10.78562
855.1292, 12.09074
855.6113, 13.04386
856.0934, 13.35607
856.5756, 13.27034
857.0577, 12.59893
857.5398, 11.73979
858.0219, 11.20381
858.5040, 10.99127
858.9861, 11.16630
859.4683, 11.82348
859.9504, 12.56188
860.4325, 12.74436
860.9146, 12.69870
861.3967, 13.04628
861.8788, 14.19098
862.3610, 15.04460
862.8431, 15.15097
863.3252, 14.78733
863.8073, 14.19459
864.2894, 13.19615
864.7715, 12.51050
865.2537, 12.18260
865.7358, 12.05680
866.2179, 12.24012
866.7000, 12.47588
867.1821, 11.78901
867.6642, 10.02428
868.1464, 8.745421
868.6285, 9.318737
869.1106, 10.53474
869.5927, 11.50711
870.0748, 12.09982
870.5569, 12.73280
871.0391, 13.51387
871.5212, 14.13875
872.0033, 14.47021
872.4854, 14.49505
872.9675, 13.95394
873.4496, 12.88386
873.9318, 11.95910
874.4139, 11.92495
874.8960, 12.01894
875.3781, 11.31931
875.8602, 9.967370
876.3423, 9.291910
876.8245, 10.20621
877.3066, 11.16053
877.7887, 11.78490
878.2708, 12.12899
878.7529, 12.44211
879.2350, 12.72499
879.7172, 12.67473
880.1993, 11.85386
880.6814, 10.98693
881.1635, 11.28487
881.6456, 12.27210
882.1277, 12.83882
882.6099, 12.26969
883.0920, 11.57736
883.5741, 10.65611
884.0562, 9.942138
884.5383, 10.37250
885.0204, 12.24835
885.5026, 13.28330
885.9847, 12.93440
886.4668, 12.02101
886.9489, 11.50837
887.4310, 11.29903
887.9131, 11.21897
888.3953, 11.26301
888.8774, 11.31717
889.3595, 11.24463
889.8416, 11.21522
890.3237, 11.43659
890.8058, 12.15728
891.2880, 12.30748
891.7701, 11.70687
892.2522, 11.09376
892.7343, 11.27359
893.2164, 11.94991
893.6985, 12.27232
894.1807, 12.17675
894.6628, 12.16884
895.1449, 12.86569
895.6270, 13.52100
896.1091, 13.58085
896.5912, 12.96327
897.0734, 12.36484
897.5555, 11.64520
898.0376, 11.32861
898.5197, 12.01608
899.0018, 13.19549
899.4839, 12.58107
899.9661, 10.53913
900.4482, 9.207092
900.9303, 10.49372
901.4124, 12.18858
901.8945, 13.00924
902.3766, 13.06343
902.8588, 12.76178
903.3409, 11.80965
903.8230, 11.18398
904.3051, 11.13483
904.7872, 11.40565
905.2693, 11.49233
905.7515, 11.42848
906.2336, 11.45262
906.7157, 11.70475
907.1978, 11.85351
907.6799, 11.54440
908.1620, 10.99888
908.6442, 10.45892
909.1263, 9.698938
909.6084, 9.518903
910.0905, 10.26494
910.5726, 11.12355
911.0547, 11.25762
911.5369, 10.74993
912.0190, 10.62024
912.5011, 10.93703
912.9832, 11.37427
913.4653, 11.79505
913.9474, 12.11939
914.4296, 12.28830
914.9117, 12.29690
915.3938, 12.08619
915.8759, 11.47383
916.3580, 10.87895
916.8401, 10.39230
917.3223, 10.06048
917.8044, 10.33181
918.2865, 11.15671
918.7686, 11.75349
919.2507, 11.43230
919.7328, 10.92487
920.2150, 10.97631
920.6971, 11.40695
921.1792, 11.77025
921.6613, 12.06745
922.1434, 12.10453
922.6255, 11.74478
923.1077, 11.22011
923.5898, 10.89701
924.0719, 10.77579
924.5540, 10.83305
925.0361, 11.08204
925.5182, 11.43782
926.0004, 12.09914
926.4825, 12.68260
926.9646, 12.61238
927.4467, 11.32617
927.9288, 10.73989
928.4109, 11.43896
928.8931, 12.37629
929.3752, 12.87100
929.8573, 12.92878
930.3394, 12.84968
930.8215, 12.63454
931.3036, 12.35743
931.7858, 11.77822
932.2679, 11.37965
932.7500, 11.92017
933.2321, 13.23155
933.7142, 13.97122
934.1964, 13.55556
934.6785, 12.85866
935.1606, 11.85527
935.6427, 10.84558
936.1248, 11.04841
936.6069, 12.33692
937.0891, 13.07506
937.5712, 12.57472
938.0533, 11.60471
938.5354, 10.45096
939.0175, 9.465820
939.4996, 9.189989
939.9818, 10.53455
940.4639, 11.43205
940.9460, 11.65077
941.4281, 11.60529
941.9102, 11.71384
942.3923, 11.94715
942.8745, 12.04589
943.3566, 11.99305
943.8387, 11.77718
944.3208, 11.12106
944.8029, 10.49980
945.2850, 10.33177
945.7672, 10.66800
946.2493, 11.15626
946.7314, 11.78926
947.2135, 12.54719
947.6956, 13.65517
948.1777, 14.78315
948.6599, 14.32483
949.1420, 12.58224
949.6241, 11.29154
950.1062, 11.76675
950.5883, 12.36789
951.0704, 11.74488
951.5526, 10.50067
952.0347, 9.781865
952.5168, 9.643192
952.9989, 10.20662
953.4810, 11.82418
953.9631, 13.46520
954.4453, 13.78773
954.9274, 13.04832
955.4095, 11.91925
955.8916, 10.44071
956.3737, 9.469033
956.8558, 9.803822
957.3380, 10.68851
957.8201, 11.69562
958.3022, 12.81319
958.7843, 13.62874
959.2664, 14.15030
959.7485, 14.33726
960.2307, 14.09540
960.7128, 13.55878
961.1949, 12.97612
961.6770, 12.36324
962.1591, 11.78797
962.6412, 10.85657
963.1234, 10.44020
963.6055, 11.43318
964.0876, 12.96352
964.5697, 13.49992
965.0518, 12.74276
965.5339, 12.52538
966.0161, 13.26944
966.4982, 13.85473
966.9803, 12.21395
967.4624, 9.763462
967.9445, 9.181470
968.4266, 11.12442
968.9088, 12.68466
969.3909, 12.34648
969.8730, 11.75481
970.3551, 11.84311
970.8372, 12.54735
971.3193, 12.64961
971.8015, 12.13011
972.2836, 11.55813
972.7657, 11.25782
973.2478, 11.06655
973.7299, 10.64200
974.2120, 10.17630
974.6942, 10.13884
975.1763, 11.37091
975.6584, 12.06017
976.1405, 11.74734
976.6226, 11.05646
977.1047, 10.78935
977.5869, 10.94094
978.0690, 11.68611
978.5511, 13.14873
979.0332, 14.22615
979.5153, 13.50849
979.9974, 12.30393
980.4796, 11.92534
980.9617, 12.67797
981.4438, 12.83191
981.9259, 12.07726
982.4080, 11.24830
982.8901, 10.56406
983.3723, 10.16156
983.8544, 10.88142
984.3365, 12.37767
984.8186, 13.21452
985.3007, 11.75906
985.7828, 10.49848
986.2650, 11.23141
986.7471, 12.69308
987.2292, 12.58863
987.7113, 10.11245
988.1934, 9.123123
988.6755, 10.20779
989.1577, 11.79605
989.6398, 12.29879
990.1219, 12.04458
990.6040, 11.36160
991.0861, 10.28033
991.5682, 9.655930
992.0504, 9.979230
992.5325, 10.72604
993.0146, 11.87331
993.4967, 13.23160
993.9788, 13.81032
994.4609, 13.61175
994.9431, 12.99843
995.4252, 11.81145
995.9073, 10.74070
996.3894, 10.76884
996.8715, 11.35310
997.3536, 11.60159
997.8358, 10.66042
998.3179, 10.40155
998.8000, 11.35812
999.2821, 12.23396
999.7642, 11.20664
1000.246, 8.847207
1000.728, 8.791875
1001.211, 11.11128
1001.693, 12.93367
1002.175, 11.57890
1002.657, 9.808683
1003.139, 9.609994
1003.621, 10.76494
1004.103, 11.04856
1004.585, 10.09047
1005.068, 9.762431
1005.550, 10.86876
1006.032, 12.28313
1006.514, 11.84163
1006.996, 10.42434
1007.478, 9.873550
1007.960, 11.12936
1008.442, 12.19214
1008.924, 12.36865
1009.407, 12.19891
1009.889, 11.98333
1010.371, 11.72070
1010.853, 11.31051
1011.335, 10.74366
1011.817, 10.74195
1012.299, 12.57275
1012.781, 14.52690
1013.263, 15.16803
1013.746, 14.61403
1014.228, 13.32580
1014.710, 10.33329
1015.192, 8.650661
1015.674, 9.050482
1016.156, 10.40076
1016.638, 11.15827
1017.120, 11.43599
1017.603, 11.56320
1018.085, 11.59050
1018.567, 11.52812
1019.049, 11.31372
1019.531, 11.06723
1020.013, 10.80530
1020.495, 10.53875
1020.977, 10.69297
1021.459, 11.33239
1021.942, 11.81860
1022.424, 11.78060
1022.906, 11.51290
1023.388, 11.47445
1023.870, 11.50257
1024.352, 11.27881
1024.834, 9.979052
1025.316, 9.535411
1025.799, 10.51811
1026.281, 11.80578
1026.763, 12.21325
1027.245, 11.86451
1027.727, 11.55229
1028.209, 11.32553
1028.691, 11.24335
1029.173, 11.50088
1029.656, 11.77744
1030.138, 11.89245
1030.620, 11.83299
1031.102, 11.54554
1031.584, 10.88101
1032.066, 10.60106
1032.548, 10.92871
1033.030, 11.63150
1033.512, 12.77976
1033.995, 13.92491
1034.477, 14.19480
1034.959, 13.17554
1035.441, 12.12385
1035.923, 11.27508
1036.405, 10.52842
1036.887, 9.566585
1037.369, 8.568159
1037.851, 9.747184
1038.334, 12.78330
1038.816, 14.83328
1039.298, 13.32102
1039.780, 11.25583
1040.262, 10.38009
1040.744, 10.45324
1041.226, 11.04812
1041.708, 12.62446
1042.191, 13.20884
1042.673, 12.56879
1043.155, 11.32021
1043.637, 9.335619
1044.119, 7.499381
1044.601, 7.744274
1045.083, 10.09335
1045.565, 11.94929
1046.047, 11.98922
1046.530, 11.84084
1047.012, 11.98186
1047.494, 12.30328
1047.976, 12.62268
1048.458, 12.89581
1048.940, 12.66993
1049.422, 11.65105
1049.904, 10.66382
1050.386, 10.13766
1050.869, 10.06889
1051.351, 10.59722
1051.833, 11.86649
1052.315, 12.80358
1052.797, 13.49387
1053.279, 13.43549
1053.761, 11.51624
1054.243, 9.211493
1054.726, 9.574306
1055.208, 11.64114
1055.690, 12.86183
1056.172, 11.29946
1056.654, 10.24347
1057.136, 10.18534
1057.618, 10.71771
1058.100, 11.53722
1058.583, 12.57067
1059.065, 13.44623
1059.547, 14.12701
1060.029, 14.27090
1060.511, 13.25722
1060.993, 11.99016
1061.475, 10.76947
1061.957, 9.753612
1062.439, 9.564592
1062.922, 10.28604
1063.404, 11.51454
1063.886, 13.48850
1064.368, 14.88113
1064.850, 13.31946
1065.332, 10.50522
1065.814, 8.779910
1066.296, 8.842258
1066.778, 8.859826
1067.261, 8.442636
1067.743, 8.307507
1068.225, 8.922159
1068.707, 10.04614
1069.189, 11.14471
1069.671, 12.07534
1070.153, 12.26552
1070.635, 10.35567
1071.118, 9.155574
1071.600, 10.95729
1072.082, 13.26051
1072.564, 13.27944
1073.046, 10.73004
1073.528, 9.595466
1074.010, 10.04002
1074.492, 10.77626
1074.974, 11.11578
1075.457, 11.05830
1075.939, 10.20907
1076.421, 8.909536
1076.903, 8.556279
1077.385, 9.638358
1077.867, 10.47371
1078.349, 10.72153
1078.831, 10.80993
1079.313, 11.39040
1079.796, 12.18154
1080.278, 12.74199
1080.760, 13.02222
1081.242, 12.90209
1081.724, 11.74349
1082.206, 10.88170
1082.688, 10.87429
1083.170, 11.46423
1083.652, 12.06168
1084.135, 12.57221
1084.617, 12.36090
1085.099, 10.80895
1085.581, 9.576623
1086.063, 9.975799
1086.545, 10.97390
1087.027, 11.71690
1087.509, 12.22658
1087.992, 11.92749
1088.474, 10.76181
1088.956, 9.678970
1089.438, 9.285844
1089.920, 9.240455
1090.402, 8.991116
1090.884, 8.843017
1091.366, 9.525202
1091.849, 12.17187
1092.331, 13.51884
1092.813, 13.17942
1093.295, 12.14735
1093.777, 11.07306
1094.259, 10.15117
1094.741, 9.874804
1095.223, 10.18694
1095.705, 10.50853
1096.188, 10.37658
1096.670, 10.57515
1097.152, 11.61200
1097.634, 12.76188
1098.116, 12.38722
1098.598, 10.83943
1099.080, 10.11860
1099.562, 10.59036
1100.044, 11.38453
1100.527, 12.33900
1101.009, 13.05211
1101.491, 13.27857
1101.973, 13.04553
1102.455, 12.19631
1102.937, 10.68654
1103.419, 9.806303
1103.901, 10.17038
1104.384, 10.88238
1104.866, 11.04038
1105.348, 10.99452
1105.830, 11.21169
1106.312, 11.89485
1106.794, 12.15159
1107.276, 11.83692
1107.758, 11.62227
1108.240, 12.12460
1108.723, 12.77433
1109.205, 12.37204
1109.687, 11.34626
1110.169, 10.68268
1110.651, 11.20236
1111.133, 11.31255
1111.615, 10.66371
1112.097, 9.971008
1112.579, 9.781269
1113.062, 10.09427
1113.544, 11.17174
1114.026, 12.87581
1114.508, 14.25484
1114.990, 14.80618
1115.472, 14.95476
1115.954, 14.92128
1116.436, 14.53352
1116.919, 13.15350
1117.401, 10.89428
1117.883, 9.849092
1118.365, 10.27330
1118.847, 11.21359
1119.329, 12.68281
1119.811, 13.75974
1120.293, 13.43385
1120.776, 12.11819
1121.258, 11.44761
1121.740, 11.44720
1122.222, 11.99606
1122.704, 13.25293
1123.186, 14.31003
1123.668, 13.94541
1124.150, 13.05126
1124.632, 12.68631
1125.115, 13.07742
1125.597, 12.85752
1126.079, 11.80833
1126.561, 10.79673
1127.043, 10.04507
1127.525, 9.699515
1128.007, 10.29832
1128.489, 11.36998
1128.971, 12.09182
1129.454, 12.14425
1129.936, 12.18132
1130.418, 12.34267
1130.900, 12.38362
1131.382, 12.28295
1131.864, 11.89649
1132.346, 10.30447
1132.828, 8.014833
1133.311, 6.636805
1133.793, 7.267478
1134.275, 8.335332
1134.757, 9.808200
1135.239, 11.20423
1135.721, 12.03654
1136.203, 12.37536
1136.685, 13.07124
1137.167, 14.02428
1137.650, 14.24416
1138.132, 12.27432
1138.614, 10.44181
1139.096, 10.13597
1139.578, 10.42738
1140.060, 9.837815
1140.542, 8.338155
1141.024, 8.357675
1141.506, 10.11692
1141.989, 11.75198
1142.471, 11.67943
1142.953, 11.16138
1143.435, 11.09398
1143.917, 11.32296
1144.399, 11.11659
1144.881, 10.35001
1145.363, 10.14273
1145.846, 10.73077
1146.328, 11.62844
1146.810, 12.61638
1147.292, 13.47056
1147.774, 13.98071
1148.256, 14.10993
1148.738, 14.02260
1149.220, 13.70467
1149.703, 13.22400
1150.185, 12.55183
1150.667, 11.85943
1151.149, 11.21371
1151.631, 10.76191
1152.113, 10.76250
1152.595, 11.32649
1153.077, 11.85686
1153.559, 12.36879
1154.042, 12.69895
1154.524, 12.77333
1155.006, 12.64090
1155.488, 12.45502
1155.970, 12.11165
1156.452, 11.26935
1156.934, 9.313246
1157.416, 8.622020
1157.898, 10.09437
1158.381, 11.52366
1158.863, 11.55819
1159.345, 10.74614
1159.827, 10.61530
1160.309, 10.96494
1160.791, 11.24011
1161.273, 11.06130
1161.755, 11.15344
1162.238, 12.06696
1162.720, 12.74309
1163.202, 12.17538
1163.684, 10.67032
1164.166, 9.641567
1164.648, 9.120166
1165.130, 9.277887
1165.612, 11.03945
1166.094, 12.40967
1166.577, 12.48602
1167.059, 12.17457
1167.541, 12.46196
1168.023, 13.22034
1168.505, 13.11580
1168.987, 12.21140
1169.469, 11.40181
1169.951, 11.46489
1170.433, 11.44195
1170.916, 10.59590
1171.398, 9.610158
1171.880, 9.433208
1172.362, 10.02215
1172.844, 10.56669
1173.326, 11.00270
1173.808, 11.41118
1174.290, 12.01906
1174.773, 12.43364
1175.255, 12.24113
1175.737, 11.75979
1176.219, 11.71940
1176.701, 12.12507
1177.183, 11.55756
1177.665, 9.747738
1178.147, 8.471014
1178.630, 9.759086
1179.112, 11.49608
1179.594, 12.10442
1180.076, 11.92744
1180.558, 12.35097
1181.040, 13.44495
1181.522, 13.64801
1182.004, 12.52682
1182.486, 11.43455
1182.969, 11.59063
1183.451, 12.27138
1183.933, 13.19905
1184.415, 14.18474
1184.897, 14.03744
1185.379, 12.60293
1185.861, 11.78195
1186.343, 12.14593
1186.825, 12.92213
1187.308, 13.98567
1187.790, 14.64483
1188.272, 13.65828
1188.754, 14.23111
1189.236, 14.61989
1189.718, 13.45531
1190.200, 14.87393
1190.682, 13.73877
1191.165, 11.73160
1191.647, 9.850823
1192.129, 8.564073
1192.611, 8.625393
1193.093, 10.18458
1193.575, 11.37284
1194.057, 12.22378
1194.539, 12.39334
1195.021, 11.48848
1195.504, 10.39235
1195.986, 10.06895
1196.468, 10.16874
1196.950, 10.21377
1197.432, 10.07361
1197.914, 10.61052
1198.396, 12.00030
1198.878, 12.83363
1199.360, 12.09627
1199.843, 11.00068
1200.325, 11.18818
1200.807, 11.83148
1201.289, 11.63643
1201.771, 10.13537
1202.253, 9.335431
1202.735, 9.248568
1203.217, 9.820187
1203.700, 11.43023
1204.182, 13.17694
1204.664, 14.20420
1205.146, 14.59841
1205.628, 14.41932
1206.110, 13.44198
1206.592, 12.81600
1207.074, 12.59395
1207.557, 12.35262
1208.039, 11.75683
1208.521, 11.06338
1209.003, 10.26569
1209.485, 9.656565
1209.967, 9.898332
1210.449, 11.57412
1210.931, 12.33453
1211.413, 12.03691
1211.896, 11.76292
1212.378, 12.77158
1212.860, 13.75860
1213.342, 12.85972
1213.824, 11.00605
1214.306, 10.22849
1214.788, 11.16352
1215.270, 11.20451
1215.752, 10.13527
1216.235, 9.481741
1216.717, 11.12328
1217.199, 13.08039
1217.681, 13.16306
1218.163, 12.08251
1218.645, 11.50855
1219.127, 11.68070
1219.609, 11.80032
1220.092, 11.85363
1220.574, 11.66352
1221.056, 10.70236
1221.538, 9.783146
1222.020, 9.708194
1222.502, 10.26244
1222.984, 10.93980
1223.466, 11.84751
1223.948, 12.16477
1224.431, 11.80894
1224.913, 11.31486
1225.395, 11.01381
1225.877, 10.84630
1226.359, 10.77313
1226.841, 10.79752
1227.323, 10.94011
1227.805, 11.24122
1228.287, 11.41264
1228.770, 11.44019
1229.252, 11.20220
1229.734, 10.03240
1230.216, 9.116916
1230.698, 9.600615
1231.180, 10.94765
1231.662, 11.85470
1232.144, 12.28838
1232.627, 12.95987
1233.109, 13.94964
1233.591, 14.37300
1234.073, 12.94451
1234.555, 11.36625
1235.037, 10.48943
1235.519, 10.36562
1236.001, 11.44670
1236.484, 13.72469
1236.966, 14.42947
1237.448, 13.31546
1237.930, 11.96396
1238.412, 11.45478
1238.894, 11.00278
1239.376, 9.730813
1239.858, 10.21145
1240.340, 8.952633
1240.823, 10.95147
1241.305, 12.40954
1241.787, 13.11461
1242.269, 13.14797
1242.751, 11.63176
1243.233, 10.55593
1243.715, 10.96419
1244.197, 12.12381
1244.679, 13.21115
1245.162, 14.10617
1245.644, 13.78775
1246.126, 12.26741
1246.608, 11.25027
1247.090, 12.04474
1247.572, 13.02669
1248.054, 13.92479
1248.536, 14.39264
1249.019, 13.51260
1249.501, 11.78950
1249.983, 10.89123
1250.465, 10.90370
1250.947, 10.91165
1251.429, 10.18444
1251.911, 9.973288
1252.393, 10.78526
1252.875, 11.74541
1253.358, 11.40590
1253.840, 10.40163
1254.322, 10.28522
1254.804, 11.05940
1255.286, 11.54956
1255.768, 10.82549
1256.250, 10.96484
1256.732, 12.59643
1257.214, 14.36550
1257.697, 14.53470
1258.179, 13.77712
1258.661, 12.91584
1259.143, 12.09428
1259.625, 11.87610
1260.107, 12.85325
1260.589, 12.81140
1261.071, 11.18031
1261.554, 9.555315
1262.036, 9.910446
1262.518, 11.03200
1263.000, 11.61595
1263.482, 11.66641
1263.964, 11.66991
1264.446, 11.67419
1264.928, 11.48297
1265.411, 11.02487
1265.893, 10.75620
1266.375, 11.58234
1266.857, 12.33282
1267.339, 11.48320
1267.821, 9.794740
1268.303, 9.760651
1268.785, 11.54104
1269.267, 13.00142
1269.750, 13.92378
1270.232, 14.08794
1270.714, 12.65518
1271.196, 11.11026
1271.678, 10.29686
1272.160, 10.07775
1272.642, 10.49926
1273.124, 11.48011
1273.606, 11.80002
1274.089, 11.39284
1274.571, 10.89551
1275.053, 10.37558
1275.535, 10.27013
1276.017, 11.05741
1276.499, 11.95181
1276.981, 11.73993
1277.463, 10.74506
1277.946, 10.16552
1278.428, 10.05071
1278.910, 10.10101
1279.392, 10.46753
1279.874, 10.50994
1280.356, 9.845846
1280.838, 9.370595
1281.320, 10.46970
1281.802, 12.30113
1282.285, 12.89198
1282.767, 12.52294
1283.249, 12.80550
1283.731, 15.43507
1284.213, 15.94794
1284.695, 13.52272
1285.177, 10.78045
1285.659, 10.07545
1286.141, 10.47695
1286.624, 11.19214
1287.106, 12.00882
1287.588, 12.46786
1288.070, 12.59439
1288.552, 12.05500
1289.034, 10.75367
1289.516, 9.745566
1289.998, 10.19112
1290.481, 10.90329
1290.963, 10.86162
1291.445, 11.13273
1291.927, 11.22473
1292.409, 11.03266
1292.891, 11.09926
1293.373, 10.73049
1293.855, 10.48416
1294.338, 11.02016
1294.820, 11.36419
1295.302, 10.54822
1295.784, 9.772659
1296.266, 10.23594
1296.748, 11.73497
1297.230, 13.18759
1297.712, 14.43862
1298.194, 14.86903
1298.677, 13.37072
1299.159, 12.21906
1299.641, 11.73145
1300.123, 11.67717
1300.605, 12.18950
1301.087, 12.85233
1301.569, 12.41948
1302.051, 11.36540
1302.533, 10.75822
1303.016, 10.83908
##END=



