##NAMES=Fiedlerite
##RRUFFID=R060859
##IDEAL CHEMISTRY=Pb^2+^_3_Cl_4_F(OH)&#183;H_2_O
##LOCALITY=Laurium, Attica, Greece
##OWNER=RRUFF
##SOURCE=Michael Scott
##DESCRIPTION=Colorless prismatic crystals associated with phosgenite, polytype 1A
##STATUS=The identification of this mineral is confirmed by single-crystal X-ray diffraction and chemical analysis.
##URL=rruff.info/R060859
##MEASURED CHEMISTRY=Pb_3.00_Cl_4.00_F_1.00_(OH)Â·H_2_O ; OH and H_2_O estimated by difference
137.9194, 32841.53
138.4015, 33128.86
138.8836, 33572.05
139.3657, 34149.48
139.8479, 34862.75
140.3300, 35716.18
140.8121, 36630.61
141.2942, 37641.92
141.7763, 38682.12
142.2584, 39749.25
142.7406, 40830.39
143.2227, 41897.98
143.7048, 42938.52
144.1869, 43959.33
144.6690, 44903.83
145.1511, 45791.49
145.6333, 46589.83
146.1154, 47300.94
146.5975, 47914.14
147.0796, 48402.55
147.5617, 48729.19
148.0438, 48885.80
148.5260, 48888.05
149.0081, 48774.90
149.4902, 48515.38
149.9723, 48063.02
150.4544, 47421.71
150.9365, 46658.75
151.4187, 45870.37
151.9008, 45027.16
152.3829, 44202.06
152.8650, 43346.76
153.3471, 42532.50
153.8292, 41802.50
154.3114, 41168.38
154.7935, 40626.85
155.2756, 40174.14
155.7577, 39802.82
156.2398, 39554.99
156.7219, 39409.91
157.2041, 39385.75
157.6862, 39513.23
158.1683, 39798.27
158.6504, 40202.66
159.1325, 40656.31
159.6146, 41152.79
160.0968, 41719.88
160.5789, 42370.16
161.0610, 43078.39
161.5431, 43837.02
162.0252, 44641.69
162.5073, 45458.22
162.9895, 46216.14
163.4716, 46874.23
163.9537, 47522.00
164.4358, 48216.27
164.9179, 48882.91
165.4000, 49445.72
165.8822, 49874.52
166.3643, 50178.57
166.8464, 50373.06
167.3285, 50433.00
167.8106, 50418.02
168.2927, 50341.34
168.7749, 50190.91
169.2570, 49940.65
169.7391, 49578.36
170.2212, 49134.75
170.7033, 48673.06
171.1854, 48196.26
171.6676, 47702.10
172.1497, 47187.84
172.6318, 46659.01
173.1139, 46125.86
173.5960, 45590.25
174.0781, 45049.65
174.5603, 44497.90
175.0424, 43921.27
175.5245, 43354.26
176.0066, 42818.46
176.4887, 42293.01
176.9708, 41739.96
177.4530, 41135.28
177.9351, 40510.84
178.4172, 39947.87
178.8993, 39450.93
179.3814, 38978.40
179.8635, 38537.80
180.3457, 38112.62
180.8278, 37667.71
181.3099, 37188.27
181.7920, 36689.81
182.2741, 36215.45
182.7562, 35761.52
183.2384, 35327.09
183.7205, 34924.07
184.2026, 34539.71
184.6847, 34144.37
185.1668, 33727.30
185.6489, 33301.50
186.1311, 32897.07
186.6132, 32510.38
187.0953, 32143.61
187.5774, 31808.12
188.0595, 31491.78
188.5416, 31173.36
189.0238, 30843.35
189.5059, 30508.41
189.9880, 30176.41
190.4701, 29841.49
190.9522, 29521.66
191.4343, 29217.12
191.9165, 28931.28
192.3986, 28673.41
192.8807, 28449.69
193.3628, 28246.29
193.8449, 28035.31
194.3270, 27811.27
194.8092, 27596.56
195.2913, 27393.61
195.7734, 27204.39
196.2555, 27037.24
196.7376, 26898.69
197.2197, 26772.13
197.7019, 26630.66
198.1840, 26477.39
198.6661, 26305.94
199.1482, 26092.74
199.6303, 25862.03
200.1124, 25661.94
200.5946, 25508.93
201.0767, 25381.01
201.5588, 25245.25
202.0409, 25102.91
202.5230, 24954.51
203.0051, 24804.77
203.4873, 24648.42
203.9694, 24470.39
204.4515, 24261.45
204.9336, 24049.16
205.4157, 23877.87
205.8978, 23748.61
206.3800, 23627.27
206.8621, 23500.70
207.3442, 23377.97
207.8263, 23270.27
208.3084, 23178.35
208.7905, 23108.73
209.2727, 23083.16
209.7548, 23105.99
210.2369, 23112.86
210.7190, 23062.09
211.2011, 22998.25
211.6832, 22989.21
212.1654, 23052.85
212.6475, 23134.42
213.1296, 23160.57
213.6117, 23125.92
214.0938, 23128.94
214.5760, 23203.95
215.0581, 23315.39
215.5402, 23435.35
216.0223, 23560.62
216.5044, 23667.13
216.9865, 23723.56
217.4687, 23727.11
217.9508, 23735.23
218.4329, 23756.51
218.9150, 23783.25
219.3971, 23809.89
219.8792, 23835.91
220.3614, 23859.18
220.8435, 23879.82
221.3256, 23897.15
221.8077, 23900.45
222.2898, 23885.56
222.7719, 23859.02
223.2541, 23820.53
223.7362, 23771.55
224.2183, 23725.22
224.7004, 23691.13
225.1825, 23670.14
225.6646, 23657.59
226.1468, 23656.88
226.6289, 23660.98
227.1110, 23662.91
227.5931, 23663.95
228.0752, 23672.99
228.5573, 23697.02
229.0395, 23735.46
229.5216, 23774.87
230.0037, 23815.56
230.4858, 23856.58
230.9679, 23894.22
231.4500, 23930.87
231.9322, 23976.68
232.4143, 24041.55
232.8964, 24118.99
233.3785, 24169.59
233.8606, 24195.99
234.3427, 24198.82
234.8249, 24177.05
235.3070, 24131.93
235.7891, 24062.98
236.2712, 23966.49
236.7533, 23850.69
237.2354, 23746.98
237.7176, 23670.29
238.1997, 23585.66
238.6818, 23494.15
239.1639, 23388.30
239.6460, 23251.73
240.1281, 23075.32
240.6103, 22875.61
241.0924, 22692.23
241.5745, 22545.78
242.0566, 22385.68
242.5387, 22200.59
243.0208, 22003.45
243.5030, 21800.66
243.9851, 21595.55
244.4672, 21403.51
244.9493, 21254.54
245.4314, 21188.75
245.9135, 21099.40
246.3957, 20966.60
246.8778, 20822.81
247.3599, 20693.03
247.8420, 20582.96
248.3241, 20489.21
248.8062, 20406.32
249.2884, 20332.37
249.7705, 20277.61
250.2526, 20243.89
250.7347, 20224.33
251.2168, 20219.69
251.6989, 20226.66
252.1811, 20234.85
252.6632, 20231.60
253.1453, 20210.95
253.6274, 20213.58
254.1095, 20266.62
254.5916, 20313.96
255.0738, 20331.05
255.5559, 20321.54
256.0380, 20302.01
256.5201, 20284.97
257.0022, 20270.41
257.4843, 20253.17
257.9665, 20235.69
258.4486, 20213.14
258.9307, 20194.70
259.4128, 20169.33
259.8949, 20120.17
260.3770, 20037.16
260.8592, 19922.24
261.3413, 19780.14
261.8234, 19583.01
262.3055, 19395.85
262.7876, 19249.18
263.2697, 19111.25
263.7519, 18945.11
264.2340, 18734.38
264.7161, 18491.40
265.1982, 18243.05
265.6803, 17981.46
266.1624, 17729.43
266.6446, 17491.80
267.1267, 17263.13
267.6088, 17041.43
268.0909, 16825.03
268.5730, 16610.54
269.0551, 16389.91
269.5373, 16159.00
270.0194, 15941.49
270.5015, 15746.43
270.9836, 15562.94
271.4657, 15382.33
271.9478, 15204.74
272.4300, 15043.80
272.9121, 14920.53
273.3942, 14834.14
273.8763, 14727.68
274.3584, 14570.04
274.8405, 14422.55
275.3227, 14325.23
275.8048, 14271.61
276.2869, 14231.13
276.7690, 14186.21
277.2511, 14140.47
277.7332, 14105.64
278.2154, 14081.51
278.6975, 14069.88
279.1796, 14070.14
279.6617, 14082.72
280.1438, 14111.22
280.6259, 14160.28
281.1081, 14224.04
281.5902, 14295.72
282.0723, 14375.95
282.5544, 14460.93
283.0365, 14542.60
283.5186, 14630.10
284.0008, 14740.49
284.4829, 14876.47
284.9650, 15034.84
285.4471, 15226.09
285.9292, 15443.99
286.4113, 15648.78
286.8935, 15820.81
287.3756, 15974.21
287.8577, 16137.87
288.3398, 16310.92
288.8219, 16493.61
289.3040, 16699.15
289.7862, 16912.30
290.2683, 17108.74
290.7504, 17281.37
291.2325, 17429.55
291.7146, 17548.08
292.1967, 17633.13
292.6789, 17708.79
293.1610, 17805.30
293.6431, 17878.40
294.1252, 17873.47
294.6073, 17785.23
295.0894, 17663.56
295.5716, 17559.61
296.0537, 17480.08
296.5358, 17361.39
297.0179, 17178.93
297.5000, 16982.47
297.9821, 16805.60
298.4643, 16640.69
298.9464, 16451.88
299.4285, 16210.85
299.9106, 15923.78
300.3927, 15660.22
300.8748, 15435.66
301.3570, 15215.22
301.8391, 14989.79
302.3212, 14764.79
302.8033, 14547.53
303.2854, 14340.99
303.7675, 14144.32
304.2497, 13950.91
304.7318, 13752.76
305.2139, 13573.50
305.6960, 13415.18
306.1781, 13273.12
306.6602, 13148.89
307.1424, 13041.13
307.6245, 12936.02
308.1066, 12808.52
308.5887, 12643.91
309.0708, 12516.92
309.5529, 12475.26
310.0351, 12435.71
310.5172, 12353.14
310.9993, 12235.56
311.4814, 12125.00
311.9635, 12058.09
312.4456, 12029.55
312.9278, 11993.81
313.4099, 11933.19
313.8920, 11895.42
314.3741, 11915.37
314.8562, 11968.38
315.3383, 12011.71
315.8205, 12023.49
316.3026, 12021.05
316.7847, 12031.53
317.2668, 12056.30
317.7489, 12086.32
318.2310, 12115.86
318.7132, 12150.24
319.1953, 12199.63
319.6774, 12272.07
320.1595, 12339.69
320.6416, 12378.62
321.1237, 12394.16
321.6059, 12407.81
322.0880, 12425.04
322.5701, 12443.42
323.0522, 12462.15
323.5343, 12482.41
324.0164, 12492.57
324.4986, 12493.04
324.9807, 12479.78
325.4628, 12443.60
325.9449, 12383.18
326.4270, 12315.27
326.9091, 12258.08
327.3913, 12212.41
327.8734, 12140.89
328.3555, 12030.57
328.8376, 11907.50
329.3197, 11779.67
329.8018, 11651.11
330.2840, 11527.80
330.7661, 11414.78
331.2482, 11309.45
331.7303, 11196.83
332.2124, 11064.67
332.6945, 10940.33
333.1767, 10834.86
333.6588, 10735.86
334.1409, 10626.58
334.6230, 10502.29
335.1051, 10373.95
335.5873, 10258.56
336.0694, 10164.67
336.5515, 10066.31
337.0336, 9962.182
337.5157, 9855.648
337.9979, 9738.927
338.4800, 9618.130
338.9621, 9513.042
339.4442, 9445.953
339.9263, 9414.441
340.4084, 9370.422
340.8906, 9298.353
341.3727, 9234.657
341.8548, 9203.484
342.3369, 9186.659
342.8190, 9153.252
343.3011, 9083.759
343.7833, 9000.326
344.2654, 8940.366
344.7475, 8907.030
345.2296, 8876.843
345.7117, 8843.669
346.1938, 8808.203
346.6760, 8771.093
347.1581, 8731.661
347.6402, 8693.549
348.1223, 8659.551
348.6044, 8628.681
349.0865, 8597.116
349.5687, 8563.028
350.0508, 8530.641
350.5329, 8507.469
351.0150, 8492.753
351.4971, 8471.901
351.9792, 8438.607
352.4614, 8400.772
352.9435, 8361.481
353.4256, 8322.620
353.9077, 8294.130
354.3898, 8286.953
354.8719, 8296.388
355.3541, 8282.580
355.8362, 8226.290
356.3183, 8174.311
356.8004, 8143.945
357.2825, 8124.458
357.7646, 8098.575
358.2468, 8059.674
358.7289, 8017.479
359.2110, 7990.436
359.6931, 7991.582
360.1752, 7983.013
360.6573, 7957.844
361.1395, 7930.143
361.6216, 7908.627
362.1037, 7893.388
362.5858, 7878.670
363.0679, 7857.766
363.5500, 7831.439
364.0322, 7817.683
364.5143, 7833.204
364.9964, 7838.288
365.4785, 7810.421
365.9606, 7767.488
366.4427, 7735.706
366.9249, 7727.144
367.4070, 7729.910
367.8891, 7726.483
368.3712, 7716.120
368.8533, 7706.759
369.3354, 7702.598
369.8176, 7698.614
370.2997, 7691.010
370.7818, 7679.768
371.2639, 7662.227
371.7460, 7627.887
372.2281, 7588.076
372.7103, 7570.442
373.1924, 7582.737
373.6745, 7592.511
374.1566, 7565.818
374.6387, 7505.745
375.1208, 7466.714
375.6030, 7472.221
376.0851, 7480.009
376.5672, 7460.347
377.0493, 7421.911
377.5314, 7391.137
378.0135, 7381.634
378.4957, 7386.392
378.9778, 7386.417
379.4599, 7387.783
379.9420, 7375.463
380.4241, 7340.148
380.9063, 7296.718
381.3884, 7256.864
381.8705, 7223.064
382.3526, 7191.808
382.8347, 7158.494
383.3168, 7121.796
383.7990, 7095.877
384.2811, 7096.628
384.7632, 7091.944
385.2453, 7069.158
385.7274, 7034.748
386.2095, 7000.372
386.6917, 6971.620
387.1738, 6946.190
387.6559, 6918.976
388.1380, 6888.741
388.6201, 6862.846
389.1022, 6842.073
389.5844, 6828.165
390.0665, 6827.040
390.5486, 6840.063
391.0307, 6845.514
391.5128, 6823.606
391.9949, 6785.480
392.4771, 6756.346
392.9592, 6740.140
393.4413, 6729.590
393.9234, 6721.741
394.4055, 6715.354
394.8876, 6700.322
395.3698, 6671.570
395.8519, 6638.425
396.3340, 6599.292
396.8161, 6559.899
397.2982, 6536.076
397.7803, 6536.242
398.2625, 6549.235
398.7446, 6550.456
399.2267, 6536.318
399.7088, 6514.125
400.1909, 6475.292
400.6730, 6434.972
401.1552, 6404.317
401.6373, 6383.880
402.1194, 6366.093
402.6015, 6342.889
403.0836, 6315.020
403.5657, 6302.253
404.0479, 6325.401
404.5300, 6334.494
405.0121, 6307.796
405.4942, 6262.743
405.9763, 6221.862
406.4584, 6192.959
406.9406, 6168.136
407.4227, 6133.856
407.9048, 6090.415
408.3869, 6061.119
408.8690, 6058.168
409.3511, 6062.190
409.8333, 6053.047
410.3154, 6031.994
410.7975, 6012.843
411.2796, 6003.646
411.7617, 5996.751
412.2438, 5980.641
412.7260, 5955.795
413.2081, 5935.261
413.6902, 5927.407
414.1723, 5930.013
414.6544, 5933.482
415.1365, 5941.403
415.6187, 5945.378
416.1008, 5945.635
416.5829, 5940.186
417.0650, 5923.345
417.5471, 5895.017
418.0292, 5866.158
418.5114, 5851.590
418.9935, 5855.533
419.4756, 5849.531
419.9577, 5824.932
420.4398, 5798.839
420.9219, 5773.018
421.4041, 5750.220
421.8862, 5735.112
422.3683, 5731.018
422.8504, 5732.630
423.3325, 5731.945
423.8146, 5729.999
424.2968, 5719.136
424.7789, 5693.238
425.2610, 5660.606
425.7431, 5623.704
426.2252, 5582.853
426.7073, 5556.942
427.1895, 5569.169
427.6716, 5596.497
428.1537, 5599.308
428.6358, 5574.235
429.1179, 5548.847
429.6000, 5543.068
430.0822, 5552.422
430.5643, 5551.175
431.0464, 5530.505
431.5285, 5511.146
432.0106, 5501.671
432.4927, 5495.791
432.9749, 5484.070
433.4570, 5464.317
433.9391, 5442.876
434.4212, 5427.747
434.9033, 5419.559
435.3854, 5414.858
435.8676, 5420.730
436.3497, 5422.889
436.8318, 5415.638
437.3139, 5401.188
437.7960, 5382.957
438.2781, 5361.371
438.7603, 5340.525
439.2424, 5329.759
439.7245, 5330.794
440.2066, 5328.900
440.6887, 5317.597
441.1708, 5304.502
441.6530, 5297.993
442.1351, 5297.861
442.6172, 5295.250
443.0993, 5282.680
443.5814, 5267.201
444.0635, 5258.755
444.5457, 5257.648
445.0278, 5258.268
445.5099, 5257.473
445.9920, 5255.519
446.4741, 5253.643
446.9562, 5252.520
447.4384, 5250.551
447.9205, 5251.276
448.4026, 5249.021
448.8847, 5235.961
449.3668, 5211.608
449.8489, 5183.843
450.3311, 5160.094
450.8132, 5140.444
451.2953, 5126.186
451.7774, 5122.953
452.2595, 5118.640
452.7416, 5105.380
453.2238, 5090.597
453.7059, 5086.060
454.1880, 5097.615
454.6701, 5111.734
455.1522, 5111.250
455.6343, 5097.240
456.1165, 5083.918
456.5986, 5073.458
457.0807, 5064.961
457.5628, 5058.128
458.0449, 5052.605
458.5270, 5046.790
459.0092, 5035.659
459.4913, 5027.960
459.9734, 5032.729
460.4555, 5046.876
460.9376, 5062.856
461.4197, 5078.425
461.9019, 5087.654
462.3840, 5076.032
462.8661, 5020.410
463.3482, 4987.120
463.8303, 4995.147
464.3124, 5007.994
464.7946, 5001.646
465.2767, 4979.011
465.7588, 4957.628
466.2409, 4950.537
466.7230, 4952.408
467.2051, 4943.333
467.6873, 4917.512
468.1694, 4898.261
468.6515, 4897.752
469.1336, 4903.937
469.6157, 4908.592
470.0978, 4911.003
470.5800, 4907.875
471.0621, 4889.230
471.5442, 4866.643
472.0263, 4863.973
472.5084, 4883.226
472.9905, 4900.001
473.4727, 4898.042
473.9548, 4879.950
474.4369, 4859.896
474.9190, 4830.061
475.4011, 4808.399
475.8832, 4802.763
476.3654, 4804.477
476.8475, 4804.885
477.3296, 4802.148
477.8117, 4798.910
478.2938, 4798.287
478.7759, 4800.311
479.2581, 4800.033
479.7402, 4801.479
480.2223, 4794.310
480.7044, 4763.696
481.1865, 4728.645
481.6686, 4715.250
482.1508, 4732.895
482.6329, 4755.931
483.1150, 4762.531
483.5971, 4755.184
484.0792, 4741.673
484.5613, 4721.338
485.0435, 4702.547
485.5256, 4692.823
486.0077, 4691.804
486.4898, 4689.821
486.9719, 4685.725
487.4540, 4681.694
487.9362, 4679.303
488.4183, 4677.343
488.9004, 4673.039
489.3825, 4665.698
489.8646, 4658.835
490.3467, 4658.290
490.8289, 4666.719
491.3110, 4667.420
491.7931, 4648.841
492.2752, 4634.452
492.7573, 4637.931
493.2394, 4648.958
493.7216, 4649.264
494.2037, 4630.077
494.6858, 4605.386
495.1679, 4592.181
495.6500, 4589.151
496.1321, 4584.134
496.6143, 4573.471
497.0964, 4563.473
497.5785, 4563.354
498.0606, 4571.606
498.5427, 4570.801
499.0248, 4544.250
499.5070, 4523.193
499.9891, 4534.113
500.4712, 4561.789
500.9533, 4573.480
501.4355, 4557.102
501.9176, 4530.448
502.3997, 4522.514
502.8818, 4540.847
503.3639, 4549.481
503.8460, 4541.998
504.3282, 4530.879
504.8103, 4516.941
505.2924, 4503.173
505.7745, 4494.667
506.2566, 4494.417
506.7387, 4497.410
507.2209, 4497.887
507.7030, 4495.979
508.1851, 4492.542
508.6672, 4487.010
509.1493, 4481.643
509.6314, 4479.785
510.1136, 4481.031
510.5957, 4478.791
511.0778, 4468.563
511.5599, 4458.599
512.0420, 4450.928
512.5241, 4447.185
513.0062, 4452.669
513.4883, 4468.974
513.9705, 4486.618
514.4526, 4490.112
514.9347, 4475.441
515.4168, 4464.145
515.8989, 4461.539
516.3810, 4456.733
516.8632, 4443.556
517.3453, 4426.145
517.8274, 4411.083
518.3095, 4400.467
518.7916, 4394.102
519.2737, 4393.792
519.7559, 4398.247
520.2380, 4401.034
520.7201, 4400.775
521.2022, 4399.055
521.6843, 4397.825
522.1664, 4396.863
522.6486, 4391.930
523.1307, 4373.852
523.6128, 4362.033
524.0949, 4372.273
524.5770, 4390.317
525.0591, 4393.960
525.5413, 4377.527
526.0234, 4354.853
526.5055, 4342.781
526.9876, 4342.016
527.4697, 4342.220
527.9518, 4347.064
528.4340, 4347.368
528.9161, 4334.159
529.3982, 4316.925
529.8803, 4310.469
530.3624, 4320.937
530.8445, 4329.725
531.3267, 4319.412
531.8088, 4298.038
532.2909, 4283.872
532.7730, 4279.672
533.2551, 4279.493
533.7372, 4280.404
534.2194, 4281.484
534.7015, 4274.166
535.1836, 4244.529
535.6657, 4225.055
536.1478, 4225.210
536.6299, 4234.806
537.1121, 4246.429
537.5942, 4257.721
538.0763, 4267.339
538.5584, 4274.691
539.0405, 4279.340
539.5226, 4277.887
540.0048, 4267.518
540.4869, 4260.498
540.9690, 4266.282
541.4511, 4274.628
541.9332, 4271.583
542.4153, 4255.048
542.8975, 4239.980
543.3796, 4231.521
543.8617, 4227.586
544.3438, 4228.872
544.8259, 4233.498
545.3080, 4233.432
545.7902, 4223.541
546.2723, 4208.207
546.7544, 4199.017
547.2365, 4197.483
547.7186, 4199.402
548.2007, 4213.000
548.6829, 4222.120
549.1650, 4212.580
549.6471, 4190.894
550.1292, 4176.144
550.6113, 4180.292
551.0934, 4192.018
551.5756, 4197.362
552.0577, 4196.412
552.5398, 4188.592
553.0219, 4171.267
553.5040, 4153.727
553.9861, 4146.706
554.4683, 4151.519
554.9504, 4154.576
555.4325, 4158.373
555.9146, 4157.696
556.3967, 4141.344
556.8788, 4122.470
557.3610, 4124.883
557.8431, 4154.061
558.3252, 4185.443
558.8073, 4184.289
559.2894, 4150.147
559.7715, 4136.248
560.2537, 4154.445
560.7358, 4170.229
561.2179, 4158.933
561.7000, 4138.647
562.1821, 4134.578
562.6642, 4154.724
563.1464, 4172.155
563.6285, 4174.280
564.1106, 4165.468
564.5927, 4146.801
565.0748, 4120.886
565.5569, 4100.146
566.0391, 4093.372
566.5212, 4097.193
567.0033, 4099.268
567.4854, 4100.197
567.9675, 4098.131
568.4496, 4089.581
568.9318, 4081.295
569.4139, 4077.782
569.8960, 4078.406
570.3781, 4080.214
570.8602, 4084.143
571.3423, 4085.445
571.8245, 4072.010
572.3066, 4047.241
572.7887, 4037.350
573.2708, 4053.122
573.7529, 4074.357
574.2350, 4076.283
574.7172, 4055.671
575.1993, 4047.700
575.6814, 4072.570
576.1635, 4086.319
576.6456, 4057.196
577.1277, 4015.156
577.6099, 4002.889
578.0920, 4030.122
578.5741, 4064.671
579.0562, 4068.694
579.5383, 4046.738
580.0204, 4039.118
580.5026, 4050.581
580.9847, 4060.433
581.4668, 4057.575
581.9489, 4047.860
582.4310, 4040.956
582.9132, 4035.647
583.3953, 4037.521
583.8774, 4058.816
584.3596, 4079.811
584.8417, 4079.700
585.3238, 4062.944
585.8059, 4048.969
586.2880, 4048.801
586.7701, 4054.225
587.2523, 4044.994
587.7344, 4014.357
588.2165, 3996.818
588.6986, 4003.534
589.1807, 4014.269
589.6628, 4020.494
590.1450, 4022.011
590.6271, 4017.717
591.1092, 4002.728
591.5913, 3990.315
592.0734, 3994.840
592.5555, 4006.926
593.0377, 4007.363
593.5198, 3993.402
594.0019, 3978.422
594.4840, 3973.888
594.9661, 3978.380
595.4482, 3980.705
595.9304, 3975.020
596.4125, 3976.718
596.8946, 3996.387
597.3767, 4016.553
597.8588, 4022.449
598.3409, 4015.458
598.8231, 4008.914
599.3052, 4014.032
599.7873, 4020.383
600.2694, 4010.028
600.7515, 3986.938
601.2336, 3973.171
601.7158, 3976.873
602.1979, 3986.027
602.6800, 3985.456
603.1621, 3973.302
603.6442, 3967.710
604.1263, 3972.258
604.6085, 3978.553
605.0906, 3987.128
605.5727, 3994.802
606.0548, 3998.227
606.5369, 3996.666
607.0190, 3991.867
607.5012, 3984.123
607.9833, 3974.411
608.4654, 3964.969
608.9475, 3955.710
609.4296, 3948.265
609.9117, 3942.634
610.3939, 3940.266
610.8760, 3944.622
611.3581, 3959.190
611.8402, 3969.328
612.3223, 3975.607
612.8044, 3976.455
613.2866, 3964.374
613.7687, 3948.202
614.2508, 3944.595
614.7329, 3959.602
615.2150, 3977.935
615.6971, 3981.970
616.1793, 3972.948
616.6614, 3955.935
617.1435, 3927.364
617.6256, 3908.360
618.1077, 3913.694
618.5898, 3935.215
619.0720, 3953.141
619.5541, 3968.352
620.0362, 3978.455
620.5183, 3981.168
621.0004, 3980.249
621.4825, 3975.700
621.9647, 3969.933
622.4468, 3967.894
622.9289, 3972.138
623.4110, 3979.818
623.8931, 3989.073
624.3752, 3999.852
624.8574, 3998.240
625.3395, 3976.501
625.8216, 3957.934
626.3037, 3960.549
626.7858, 3977.877
627.2679, 3988.842
627.7501, 3989.221
628.2322, 3990.529
628.7143, 3993.745
629.1964, 4000.717
629.6785, 4016.992
630.1606, 4039.182
630.6428, 4056.250
631.1249, 4061.525
631.6070, 4058.870
632.0891, 4054.419
632.5712, 4047.635
633.0533, 4046.795
633.5355, 4056.300
634.0176, 4065.958
634.4997, 4067.294
634.9818, 4062.617
635.4639, 4059.053
635.9460, 4052.777
636.4282, 4054.056
636.9103, 4076.270
637.3924, 4101.150
637.8745, 4104.961
638.3566, 4090.838
638.8387, 4083.063
639.3209, 4098.949
639.8030, 4127.903
640.2851, 4146.119
640.7672, 4153.587
641.2493, 4147.829
641.7314, 4115.757
642.2136, 4090.804
642.6957, 4111.859
643.1778, 4163.810
643.6599, 4190.627
644.1420, 4163.682
644.6241, 4143.335
645.1063, 4156.259
645.5884, 4182.082
646.0705, 4202.974
646.5526, 4215.235
647.0347, 4217.789
647.5168, 4207.738
647.9990, 4192.909
648.4811, 4194.153
648.9632, 4213.283
649.4453, 4229.797
649.9274, 4239.692
650.4095, 4246.828
650.8917, 4250.122
651.3738, 4252.444
651.8559, 4267.377
652.3380, 4309.891
652.8201, 4347.023
653.3022, 4365.867
653.7844, 4376.525
654.2665, 4388.956
654.7486, 4403.668
655.2307, 4414.195
655.7128, 4413.796
656.1949, 4412.322
656.6771, 4435.452
657.1592, 4484.338
657.6413, 4522.551
658.1234, 4538.556
658.6055, 4554.326
659.0876, 4590.341
659.5698, 4643.081
660.0519, 4685.545
660.5340, 4713.463
661.0161, 4737.265
661.4982, 4753.577
661.9803, 4770.733
662.4625, 4796.519
662.9446, 4830.281
663.4267, 4866.000
663.9088, 4900.125
664.3909, 4934.804
664.8730, 4974.193
665.3552, 5017.925
665.8373, 5060.562
666.3194, 5100.252
666.8015, 5142.650
667.2836, 5192.828
667.7657, 5249.255
668.2479, 5303.342
668.7300, 5358.375
669.2121, 5406.685
669.6942, 5439.963
670.1763, 5472.629
670.6584, 5516.392
671.1406, 5568.420
671.6227, 5620.975
672.1048, 5673.474
672.5869, 5713.932
673.0690, 5719.139
673.5511, 5698.687
674.0333, 5688.691
674.5154, 5694.212
674.9975, 5707.596
675.4796, 5725.911
675.9617, 5746.021
676.4438, 5757.436
676.9260, 5760.927
677.4081, 5753.858
677.8902, 5728.719
678.3723, 5701.345
678.8544, 5686.541
679.3365, 5674.131
679.8187, 5641.684
680.3008, 5578.321
680.7829, 5510.062
681.2650, 5458.621
681.7471, 5416.937
682.2292, 5371.729
682.7114, 5322.832
683.1935, 5279.193
683.6756, 5246.660
684.1577, 5219.588
684.6398, 5185.390
685.1219, 5140.182
685.6041, 5100.293
686.0862, 5071.173
686.5683, 5040.705
687.0504, 4998.921
687.5325, 4955.058
688.0146, 4923.958
688.4968, 4909.972
688.9789, 4895.156
689.4610, 4866.185
689.9431, 4836.116
690.4252, 4819.364
690.9073, 4813.091
691.3895, 4808.778
691.8716, 4802.839
692.3537, 4791.847
692.8358, 4766.690
693.3179, 4727.466
693.8000, 4709.247
694.2822, 4718.549
694.7643, 4730.735
695.2464, 4735.639
695.7285, 4739.007
696.2106, 4747.414
696.6927, 4760.469
697.1749, 4781.198
697.6570, 4822.119
698.1391, 4857.878
698.6212, 4870.538
699.1033, 4872.116
699.5854, 4877.549
700.0676, 4891.237
700.5497, 4913.165
701.0318, 4947.171
701.5139, 4987.194
701.9960, 5017.087
702.4781, 5036.983
702.9603, 5052.874
703.4424, 5065.355
703.9245, 5077.744
704.4066, 5092.696
704.8887, 5110.271
705.3708, 5134.428
705.8530, 5179.689
706.3351, 5211.860
706.8172, 5220.736
707.2993, 5219.422
707.7814, 5214.709
708.2635, 5209.156
708.7457, 5206.756
709.2278, 5210.042
709.7099, 5215.910
710.1920, 5222.160
710.6741, 5228.468
711.1563, 5235.704
711.6384, 5243.349
712.1205, 5246.394
712.6026, 5241.875
713.0847, 5228.664
713.5668, 5199.908
714.0490, 5145.663
714.5311, 5110.820
715.0132, 5118.262
715.4953, 5120.289
715.9774, 5085.539
716.4595, 5029.380
716.9417, 4977.713
717.4238, 4932.010
717.9059, 4895.533
718.3880, 4878.688
718.8701, 4863.767
719.3522, 4836.157
719.8344, 4797.910
720.3165, 4756.423
720.7986, 4714.645
721.2807, 4670.764
721.7628, 4620.546
722.2449, 4565.594
722.7271, 4517.435
723.2092, 4477.004
723.6913, 4435.411
724.1734, 4388.165
724.6555, 4340.370
725.1376, 4299.434
725.6198, 4265.981
726.1019, 4236.704
726.5840, 4217.416
727.0661, 4194.877
727.5482, 4161.073
728.0303, 4125.809
728.5125, 4100.941
728.9946, 4085.930
729.4767, 4068.126
729.9588, 4038.473
730.4409, 4005.643
730.9230, 3977.360
731.4052, 3953.091
731.8873, 3931.361
732.3694, 3911.909
732.8515, 3896.641
733.3336, 3887.538
733.8157, 3882.659
734.2979, 3875.620
734.7800, 3866.290
735.2621, 3855.003
735.7442, 3841.175
736.2263, 3826.221
736.7084, 3811.538
737.1906, 3796.185
737.6727, 3777.087
738.1548, 3748.294
738.6369, 3729.353
739.1190, 3734.884
739.6011, 3742.652
740.0833, 3734.486
740.5654, 3716.988
741.0475, 3707.452
741.5296, 3711.835
742.0117, 3714.632
742.4938, 3695.017
742.9760, 3663.258
743.4581, 3649.070
743.9402, 3651.231
744.4223, 3642.270
744.9044, 3609.879
745.3865, 3573.337
745.8687, 3558.453
746.3508, 3566.025
746.8329, 3570.018
747.3150, 3564.494
747.7971, 3565.219
748.2792, 3588.305
748.7614, 3608.649
749.2435, 3602.917
749.7256, 3575.343
750.2077, 3551.917
750.6898, 3544.147
751.1719, 3536.439
751.6541, 3521.818
752.1362, 3502.470
752.6183, 3477.287
753.1004, 3449.437
753.5825, 3427.640
754.0646, 3416.550
754.5468, 3415.867
755.0289, 3433.915
755.5110, 3465.275
755.9931, 3467.376
756.4752, 3433.505
756.9573, 3402.646
757.4395, 3396.718
757.9216, 3403.809
758.4037, 3400.646
758.8858, 3384.382
759.3679, 3368.221
759.8500, 3347.926
760.3322, 3332.971
760.8143, 3328.573
761.2964, 3329.246
761.7785, 3330.052
762.2606, 3330.235
762.7427, 3328.951
763.2249, 3330.458
763.7070, 3325.637
764.1891, 3297.346
764.6712, 3262.704
765.1533, 3255.082
765.6354, 3274.738
766.1176, 3287.231
766.5997, 3265.136
767.0818, 3225.376
767.5639, 3203.723
768.0460, 3199.509
768.5281, 3199.639
769.0103, 3202.894
769.4924, 3207.796
769.9745, 3214.708
770.4566, 3221.319
770.9387, 3221.351
771.4208, 3214.002
771.9030, 3201.956
772.3851, 3173.888
772.8672, 3154.283
773.3493, 3156.406
773.8314, 3169.635
774.3135, 3184.208
774.7957, 3198.624
775.2778, 3200.526
775.7599, 3174.488
776.2420, 3143.904
776.7241, 3123.477
777.2062, 3112.171
777.6884, 3108.956
778.1705, 3112.444
778.6526, 3118.397
779.1347, 3125.152
779.6168, 3129.211
780.0989, 3120.426
780.5811, 3099.940
781.0632, 3081.102
781.5453, 3065.337
782.0274, 3056.749
782.5095, 3059.666
782.9916, 3070.120
783.4738, 3076.604
783.9559, 3077.052
784.4380, 3078.308
784.9201, 3082.983
785.4022, 3085.283
785.8843, 3083.460
786.3665, 3077.851
786.8486, 3065.573
787.3307, 3045.523
787.8128, 3036.371
788.2949, 3058.286
788.7770, 3078.191
789.2592, 3073.498
789.7413, 3054.275
790.2234, 3030.694
790.7055, 3007.882
791.1876, 2996.649
791.6697, 3008.587
792.1519, 3028.527
792.6340, 3030.450
793.1161, 3018.198
793.5982, 3006.770
794.0803, 2998.455
794.5624, 2995.574
795.0446, 3001.056
795.5267, 3008.782
796.0088, 3002.746
796.4909, 2977.182
796.9730, 2961.743
797.4551, 2960.457
797.9373, 2962.214
798.4194, 2965.004
798.9015, 2966.745
799.3836, 2964.772
799.8657, 2958.963
800.3478, 2950.991
800.8300, 2941.372
801.3121, 2929.239
801.7942, 2908.924
802.2763, 2889.703
802.7584, 2883.665
803.2405, 2888.582
803.7227, 2890.706
804.2048, 2881.600
804.6869, 2871.110
805.1690, 2869.072
805.6511, 2872.145
806.1332, 2874.912
806.6154, 2876.788
807.0975, 2878.926
807.5796, 2881.962
808.0617, 2884.121
808.5438, 2880.868
809.0259, 2872.831
809.5081, 2874.995
809.9902, 2890.263
810.4723, 2897.281
810.9544, 2887.234
811.4365, 2869.427
811.9186, 2852.204
812.4008, 2835.802
812.8829, 2830.225
813.3650, 2845.245
813.8471, 2856.678
814.3292, 2858.560
814.8113, 2859.752
815.2935, 2871.217
815.7756, 2885.539
816.2577, 2882.576
816.7398, 2850.757
817.2219, 2825.758
817.7040, 2827.989
818.1862, 2838.018
818.6683, 2846.515
819.1504, 2848.753
819.6325, 2832.978
820.1146, 2798.741
820.5967, 2771.482
821.0789, 2779.187
821.5610, 2803.038
822.0431, 2807.885
822.5252, 2798.737
823.0073, 2796.783
823.4894, 2805.982
823.9716, 2812.726
824.4537, 2806.322
824.9358, 2791.237
825.4179, 2778.660
825.9000, 2768.308
826.3821, 2763.863
826.8643, 2768.877
827.3464, 2770.481
827.8285, 2759.409
828.3106, 2744.108
828.7927, 2738.714
829.2748, 2745.163
829.7570, 2751.867
830.2391, 2766.505
830.7212, 2771.449
831.2033, 2753.774
831.6854, 2731.459
832.1675, 2719.467
832.6497, 2717.416
833.1318, 2718.298
833.6139, 2721.700
834.0960, 2724.297
834.5781, 2726.826
835.0602, 2725.786
835.5424, 2713.760
836.0245, 2695.623
836.5066, 2683.635
836.9887, 2682.286
837.4708, 2685.043
837.9529, 2687.826
838.4351, 2689.182
838.9172, 2683.128
839.3993, 2672.326
839.8814, 2671.167
840.3635, 2683.001
840.8456, 2693.231
841.3278, 2688.044
841.8099, 2673.469
842.2920, 2670.300
842.7741, 2680.131
843.2562, 2687.125
843.7383, 2690.296
844.2205, 2688.122
844.7026, 2677.792
845.1847, 2663.536
845.6668, 2651.935
846.1489, 2640.615
846.6310, 2642.614
847.1132, 2676.211
847.5953, 2699.503
848.0774, 2698.891
848.5595, 2687.839
849.0416, 2673.844
849.5237, 2659.305
850.0059, 2652.867
850.4880, 2668.088
850.9701, 2672.854
851.4522, 2640.996
851.9343, 2606.639
852.4164, 2600.731
852.8986, 2614.660
853.3807, 2628.660
853.8628, 2636.313
854.3449, 2634.562
854.8270, 2610.001
855.3091, 2583.039
855.7913, 2585.854
856.2734, 2606.822
856.7555, 2616.952
857.2376, 2610.667
857.7197, 2599.290
858.2018, 2590.555
858.6840, 2584.024
859.1661, 2578.174
859.6482, 2573.400
860.1303, 2573.833
860.6124, 2580.065
861.0945, 2586.130
861.5767, 2589.536
862.0588, 2589.745
862.5409, 2584.847
863.0230, 2574.547
863.5051, 2572.152
863.9872, 2581.288
864.4694, 2588.989
864.9515, 2595.537
865.4336, 2595.071
865.9157, 2577.354
866.3978, 2548.012
866.8799, 2533.369
867.3621, 2546.456
867.8442, 2550.154
868.3263, 2531.831
868.8084, 2516.545
869.2905, 2517.941
869.7726, 2527.734
870.2548, 2537.054
870.7369, 2544.394
871.2190, 2544.097
871.7011, 2528.038
872.1832, 2511.217
872.6653, 2497.603
873.1475, 2489.779
873.6296, 2493.106
874.1117, 2504.664
874.5938, 2516.748
875.0759, 2527.154
875.5580, 2530.131
876.0402, 2514.275
876.5223, 2491.962
877.0044, 2480.579
877.4865, 2478.348
877.9686, 2478.093
878.4507, 2477.560
878.9329, 2477.128
879.4150, 2476.064
879.8971, 2477.173
880.3792, 2491.990
880.8613, 2516.600
881.3434, 2521.936
881.8256, 2504.447
882.3077, 2489.446
882.7898, 2491.385
883.2719, 2499.882
883.7540, 2497.029
884.2361, 2482.697
884.7183, 2472.444
885.2004, 2468.022
885.6825, 2459.764
886.1646, 2441.188
886.6467, 2426.930
887.1288, 2433.504
887.6110, 2454.810
888.0931, 2459.531
888.5752, 2432.398
889.0573, 2418.729
889.5394, 2431.391
890.0215, 2442.378
890.5037, 2436.082
890.9858, 2424.448
891.4679, 2425.497
891.9500, 2440.248
892.4321, 2442.999
892.9142, 2413.845
893.3964, 2394.083
893.8785, 2403.619
894.3606, 2419.705
894.8427, 2426.922
895.3248, 2425.208
895.8069, 2415.877
896.2891, 2396.344
896.7712, 2387.285
897.2533, 2413.260
897.7354, 2439.592
898.2175, 2434.916
898.6996, 2414.400
899.1818, 2399.888
899.6639, 2395.935
900.1460, 2399.631
900.6281, 2413.509
901.1102, 2423.969
901.5923, 2409.626
902.0745, 2385.969
902.5566, 2378.689
903.0387, 2387.009
903.5208, 2402.539
904.0029, 2421.185
904.4850, 2433.723
904.9672, 2427.863
905.4493, 2410.799
905.9314, 2399.157
906.4135, 2392.276
906.8956, 2386.828
907.3777, 2382.236
907.8599, 2378.987
908.3420, 2377.553
908.8241, 2376.596
909.3062, 2372.830
909.7883, 2366.347
910.2704, 2364.099
910.7526, 2366.513
911.2347, 2370.213
911.7169, 2375.508
912.1990, 2375.668
912.6811, 2361.218
913.1632, 2338.642
913.6453, 2340.576
914.1274, 2381.841
914.6096, 2393.274
915.0917, 2355.403
915.5738, 2321.948
916.0559, 2319.651
916.5380, 2331.082
917.0201, 2332.562
917.5023, 2323.551
917.9844, 2316.476
918.4665, 2312.632
918.9486, 2308.762
919.4307, 2295.934
919.9128, 2291.662
920.3950, 2318.889
920.8771, 2358.017
921.3592, 2367.075
921.8413, 2335.178
922.3234, 2311.201
922.8055, 2303.889
923.2877, 2303.094
923.7698, 2316.644
924.2519, 2326.080
924.7340, 2304.300
925.2161, 2262.480
925.6982, 2245.146
926.1804, 2274.074
926.6625, 2301.241
927.1446, 2305.758
927.6267, 2303.648
928.1088, 2304.532
928.5909, 2306.927
929.0731, 2308.473
929.5552, 2308.222
930.0373, 2303.758
930.5194, 2288.125
931.0015, 2277.331
931.4836, 2291.016
931.9658, 2310.114
932.4479, 2309.004
932.9300, 2294.680
933.4121, 2291.752
933.8942, 2306.907
934.3763, 2316.052
934.8585, 2289.759
935.3406, 2256.387
935.8227, 2253.574
936.3048, 2269.010
936.7869, 2281.822
937.2690, 2288.308
937.7512, 2289.581
938.2333, 2286.107
938.7154, 2279.737
939.1975, 2269.500
939.6796, 2259.343
940.1617, 2264.146
940.6439, 2277.432
941.1260, 2269.421
941.6081, 2236.318
942.0902, 2206.711
942.5723, 2200.192
943.0544, 2209.097
943.5366, 2225.573
944.0187, 2246.126
944.5008, 2249.580
944.9829, 2236.586
945.4650, 2227.340
945.9471, 2228.485
946.4293, 2230.264
946.9114, 2222.896
947.3935, 2210.778
947.8756, 2209.248
948.3577, 2218.236
948.8398, 2216.836
949.3220, 2202.166
949.8041, 2191.070
950.2862, 2190.723
950.7683, 2196.726
951.2504, 2204.536
951.7325, 2213.535
952.2147, 2218.678
952.6968, 2219.231
953.1789, 2220.406
953.6610, 2222.887
954.1431, 2226.304
954.6252, 2231.465
955.1074, 2235.483
955.5895, 2233.281
956.0716, 2224.675
956.5537, 2215.591
957.0358, 2206.255
957.5179, 2195.255
958.0001, 2179.915
958.4822, 2168.117
958.9643, 2167.309
959.4464, 2171.900
959.9285, 2168.199
960.4106, 2152.412
960.8928, 2147.435
961.3749, 2158.914
961.8570, 2170.800
962.3391, 2182.538
962.8212, 2189.344
963.3033, 2183.280
963.7855, 2169.892
964.2676, 2169.019
964.7497, 2191.895
965.2318, 2198.594
965.7139, 2171.141
966.1960, 2151.601
966.6782, 2158.220
967.1603, 2172.516
967.6424, 2180.260
968.1245, 2181.695
968.6066, 2178.191
969.0887, 2165.010
969.5709, 2155.783
970.0530, 2153.707
970.5351, 2152.690
971.0172, 2150.646
971.4993, 2148.328
971.9814, 2145.998
972.4636, 2143.961
972.9457, 2144.405
973.4278, 2152.555
973.9099, 2155.491
974.3920, 2144.634
974.8741, 2135.739
975.3563, 2139.879
975.8384, 2148.835
976.3205, 2152.587
976.8026, 2150.249
977.2847, 2143.820
977.7668, 2126.465
978.2490, 2115.407
978.7311, 2117.724
979.2132, 2124.226
979.6953, 2131.699
980.1774, 2138.213
980.6595, 2141.504
981.1417, 2141.324
981.6238, 2139.030
982.1059, 2133.724
982.5880, 2128.110
983.0701, 2122.939
983.5522, 2117.958
984.0344, 2111.822
984.5165, 2106.179
984.9986, 2105.526
985.4807, 2110.750
985.9628, 2110.958
986.4449, 2098.769
986.9271, 2085.728
987.4092, 2073.798
987.8913, 2065.533
988.3734, 2062.865
988.8555, 2065.452
989.3376, 2075.523
989.8198, 2094.521
990.3019, 2101.951
990.7840, 2080.198
991.2661, 2057.174
991.7482, 2046.226
992.2303, 2040.814
992.7125, 2033.867
993.1946, 2027.219
993.6767, 2027.418
994.1588, 2036.646
994.6409, 2046.193
995.1230, 2052.981
995.6052, 2058.465
996.0873, 2062.820
996.5694, 2066.679
997.0515, 2071.793
997.5336, 2076.737
998.0157, 2077.334
998.4979, 2071.796
998.9800, 2066.982
999.4621, 2067.463
999.9442, 2067.759
1000.426, 2064.590
1000.908, 2059.593
1001.391, 2050.911
1001.873, 2042.492
1002.355, 2046.079
1002.837, 2067.478
1003.319, 2084.082
1003.801, 2083.271
1004.283, 2077.077
1004.765, 2068.889
1005.247, 2062.003
1005.730, 2061.832
1006.212, 2065.684
1006.694, 2064.079
1007.176, 2052.898
1007.658, 2044.623
1008.140, 2050.130
1008.622, 2054.286
1009.104, 2045.551
1009.587, 2032.461
1010.069, 2023.815
1010.551, 2019.670
1011.033, 2016.447
1011.515, 2013.032
1011.997, 2010.988
1012.479, 2014.468
1012.961, 2015.469
1013.443, 2004.786
1013.926, 1992.648
1014.408, 1990.306
1014.890, 1996.493
1015.372, 2005.509
1015.854, 2018.217
1016.336, 2021.398
1016.818, 1999.557
1017.300, 1979.088
1017.783, 1975.390
1018.265, 1979.167
1018.747, 1982.067
1019.229, 1983.284
1019.711, 1983.975
1020.193, 1984.586
1020.675, 1983.871
1021.157, 1982.716
1021.639, 1978.548
1022.122, 1964.598
1022.604, 1951.607
1023.086, 1954.369
1023.568, 1966.313
1024.050, 1965.785
1024.532, 1944.487
1025.014, 1930.169
1025.496, 1937.990
1025.979, 1944.702
1026.461, 1936.118
1026.943, 1926.381
1027.425, 1928.713
1027.907, 1940.221
1028.389, 1952.883
1028.871, 1967.395
1029.353, 1973.445
1029.835, 1961.699
1030.318, 1950.779
1030.800, 1944.931
1031.282, 1943.943
1031.764, 1952.351
1032.246, 1964.274
1032.728, 1965.822
1033.210, 1953.752
1033.692, 1941.717
1034.174, 1923.413
1034.657, 1916.168
1035.139, 1935.951
1035.621, 1956.748
1036.103, 1958.915
1036.585, 1949.846
1037.067, 1946.045
1037.549, 1949.604
1038.031, 1949.448
1038.514, 1941.004
1038.996, 1935.060
1039.478, 1936.892
1039.960, 1937.320
1040.442, 1925.219
1040.924, 1911.401
1041.406, 1918.884
1041.888, 1951.462
1042.370, 1964.174
1042.853, 1943.602
1043.335, 1929.121
1043.817, 1930.059
1044.299, 1930.751
1044.781, 1921.078
1045.263, 1908.211
1045.745, 1902.679
1046.227, 1904.484
1046.709, 1911.277
1047.192, 1929.212
1047.674, 1933.150
1048.156, 1913.537
1048.638, 1897.028
1049.120, 1897.323
1049.602, 1904.979
1050.084, 1908.399
1050.566, 1907.952
1051.049, 1906.848
1051.531, 1905.109
1052.013, 1902.089
1052.495, 1896.849
1052.977, 1894.726
1053.459, 1898.701
1053.941, 1903.390
1054.423, 1902.737
1054.906, 1898.194
1055.388, 1896.218
1055.870, 1896.999
1056.352, 1893.064
1056.834, 1883.808
1057.316, 1871.280
1057.798, 1855.320
1058.280, 1846.743
1058.762, 1856.416
1059.245, 1876.419
1059.727, 1890.463
1060.209, 1898.112
1060.691, 1893.234
1061.173, 1877.312
1061.655, 1865.746
1062.137, 1862.641
1062.619, 1867.507
1063.101, 1881.520
1063.584, 1894.064
1064.066, 1882.700
1064.548, 1858.049
1065.030, 1853.332
1065.512, 1862.734
1065.994, 1859.570
1066.476, 1841.907
1066.958, 1831.658
1067.441, 1841.165
1067.923, 1857.560
1068.405, 1871.465
1068.887, 1879.405
1069.369, 1872.371
1069.851, 1856.605
1070.333, 1844.346
1070.815, 1836.051
1071.297, 1823.485
1071.780, 1803.649
1072.262, 1793.115
1072.744, 1816.400
1073.226, 1842.404
1073.708, 1837.591
1074.190, 1822.194
1074.672, 1822.382
1075.154, 1833.417
1075.636, 1838.023
1076.119, 1832.405
1076.601, 1828.171
1077.083, 1834.227
1077.565, 1838.889
1078.047, 1833.210
1078.529, 1826.442
1079.011, 1829.302
1079.494, 1834.277
1079.976, 1827.708
1080.458, 1809.770
1080.940, 1795.207
1081.422, 1788.540
1081.904, 1784.322
1082.386, 1780.441
1082.868, 1779.709
1083.350, 1782.735
1083.833, 1790.169
1084.315, 1808.346
1084.797, 1832.320
1085.279, 1839.472
1085.761, 1819.373
1086.243, 1805.823
1086.725, 1803.027
1087.207, 1800.848
1087.689, 1797.014
1088.172, 1792.859
1088.654, 1788.784
1089.136, 1785.415
1089.618, 1784.235
1090.100, 1785.366
1090.582, 1787.172
1091.064, 1789.307
1091.546, 1794.149
1092.029, 1804.153
1092.511, 1808.785
1092.993, 1800.705
1093.475, 1789.219
1093.957, 1788.597
1094.439, 1796.033
1094.921, 1793.422
1095.403, 1780.847
1095.885, 1772.714
1096.368, 1770.370
1096.850, 1766.308
1097.332, 1757.579
1097.814, 1751.416
1098.296, 1754.848
1098.778, 1764.541
1099.260, 1778.646
1099.742, 1792.177
1100.224, 1782.972
1100.707, 1757.740
1101.189, 1747.698
1101.671, 1757.887
1102.153, 1769.710
1102.635, 1772.799
1103.117, 1767.526
1103.599, 1744.522
1104.081, 1721.667
1104.564, 1723.973
1105.046, 1742.692
1105.528, 1770.865
1106.010, 1799.342
1106.492, 1806.078
1106.974, 1782.845
1107.456, 1761.297
1107.938, 1763.260
1108.421, 1768.217
1108.903, 1763.347
1109.385, 1756.597
1109.867, 1756.156
1110.349, 1758.689
1110.831, 1757.708
1111.313, 1752.380
1111.795, 1745.476
1112.277, 1731.578
1112.760, 1725.433
1113.242, 1737.501
1113.724, 1748.007
1114.206, 1744.838
1114.688, 1738.477
1115.170, 1740.908
1115.652, 1749.242
1116.134, 1752.101
1116.616, 1748.840
1117.099, 1741.936
1117.581, 1729.632
1118.063, 1718.233
1118.545, 1708.361
1119.027, 1701.614
1119.509, 1698.993
1119.991, 1700.321
1120.473, 1706.115
1120.956, 1715.675
1121.438, 1721.085
1121.920, 1722.396
1122.402, 1726.752
1122.884, 1734.732
1123.366, 1733.719
1123.848, 1718.444
1124.330, 1702.977
1124.813, 1701.880
1125.295, 1707.356
1125.777, 1705.767
1126.259, 1698.934
1126.741, 1686.201
1127.223, 1673.108
1127.705, 1679.237
1128.187, 1704.047
1128.669, 1721.612
1129.151, 1717.519
1129.634, 1707.711
1130.116, 1705.814
1130.598, 1704.083
1131.080, 1690.119
1131.562, 1676.248
1132.044, 1681.484
1132.526, 1699.028
1133.008, 1709.253
1133.491, 1707.668
1133.973, 1703.538
1134.455, 1694.967
1134.937, 1691.353
1135.419, 1704.600
1135.901, 1713.072
1136.383, 1695.398
1136.865, 1672.111
1137.348, 1672.726
1137.830, 1692.419
1138.312, 1701.837
1138.794, 1697.817
1139.276, 1691.558
1139.758, 1680.464
1140.240, 1674.821
1140.722, 1679.862
1141.204, 1682.300
1141.687, 1670.978
1142.169, 1656.574
1142.651, 1660.675
1143.133, 1679.459
1143.615, 1679.676
1144.097, 1663.194
1144.579, 1655.267
1145.061, 1658.546
1145.543, 1665.397
1146.026, 1672.620
1146.508, 1677.061
1146.990, 1675.464
1147.472, 1670.743
1147.954, 1664.786
1148.436, 1660.217
1148.918, 1664.886
1149.400, 1673.197
1149.883, 1671.921
1150.365, 1661.410
1150.847, 1651.364
1151.329, 1644.750
1151.811, 1646.845
1152.293, 1671.719
1152.775, 1692.112
1153.257, 1691.763
1153.740, 1681.070
1154.222, 1660.418
1154.704, 1640.120
1155.186, 1639.738
1155.668, 1660.270
1156.150, 1673.049
1156.632, 1673.634
1157.114, 1669.347
1157.596, 1653.974
1158.078, 1645.891
1158.561, 1655.916
1159.043, 1665.940
1159.525, 1659.930
1160.007, 1644.551
1160.489, 1634.769
1160.971, 1630.571
1161.453, 1630.333
1161.935, 1634.024
1162.418, 1637.542
1162.900, 1640.180
1163.382, 1640.385
1163.864, 1637.490
1164.346, 1633.545
1164.828, 1630.516
1165.310, 1627.666
1165.792, 1622.811
1166.275, 1617.944
1166.757, 1617.095
1167.239, 1618.937
1167.721, 1620.393
1168.203, 1620.907
1168.685, 1621.098
1169.167, 1621.102
1169.649, 1621.548
1170.131, 1622.928
1170.614, 1624.624
1171.096, 1629.128
1171.578, 1631.034
1172.060, 1626.821
1172.542, 1616.626
1173.024, 1596.435
1173.506, 1567.079
1173.988, 1555.849
1174.470, 1574.948
1174.953, 1584.960
1175.435, 1580.465
1175.917, 1578.601
1176.399, 1584.774
1176.881, 1593.564
1177.363, 1601.072
1177.845, 1608.522
1178.327, 1620.303
1178.810, 1633.875
1179.292, 1630.822
1179.774, 1613.778
1180.256, 1596.778
1180.738, 1582.653
1181.220, 1576.166
1181.702, 1578.392
1182.184, 1581.996
1182.667, 1581.227
1183.149, 1580.865
1183.631, 1589.354
1184.113, 1597.578
1184.595, 1593.413
1185.077, 1584.161
1185.559, 1581.363
1186.041, 1583.120
1186.523, 1578.206
1187.005, 1563.030
1187.488, 1557.344
1187.970, 1577.832
1188.452, 1590.362
1188.934, 1578.654
1189.416, 1569.606
1189.898, 1577.396
1190.380, 1589.458
1190.862, 1594.257
1191.345, 1592.365
1191.827, 1584.269
1192.309, 1569.051
1192.791, 1561.572
1193.273, 1562.106
1193.755, 1562.093
1194.237, 1560.159
1194.719, 1563.009
1195.202, 1573.794
1195.684, 1583.061
1196.166, 1579.512
1196.648, 1572.793
1197.130, 1581.190
1197.612, 1593.676
1198.094, 1591.765
1198.576, 1580.617
1199.058, 1570.445
1199.541, 1563.393
1200.023, 1560.294
1200.505, 1562.429
1200.987, 1559.934
1201.469, 1542.778
1201.951, 1529.170
1202.433, 1526.813
1202.915, 1528.218
1203.397, 1531.918
1203.880, 1534.281
1204.362, 1530.500
1204.844, 1522.079
1205.326, 1516.460
1205.808, 1514.997
1206.290, 1506.715
1206.772, 1490.164
1207.254, 1482.723
1207.737, 1487.940
1208.219, 1497.765
1208.701, 1508.202
1209.183, 1517.679
1209.665, 1523.576
1210.147, 1529.089
1210.629, 1545.985
1211.111, 1562.092
1211.594, 1549.503
1212.076, 1522.595
1212.558, 1511.714
1213.040, 1518.931
1213.522, 1531.261
1214.004, 1546.083
1214.486, 1552.394
1214.968, 1537.154
1215.450, 1525.247
1215.932, 1525.669
1216.415, 1531.189
1216.897, 1545.791
1217.379, 1555.050
1217.861, 1537.225
1218.343, 1503.544
1218.825, 1499.460
1219.307, 1529.442
1219.789, 1544.614
1220.272, 1544.507
1220.754, 1541.327
1221.236, 1537.464
1221.718, 1538.861
1222.200, 1548.012
1222.682, 1551.850
1223.164, 1533.717
1223.646, 1513.907
1224.129, 1527.714
1224.611, 1549.512
1225.093, 1538.103
1225.575, 1514.828
1226.057, 1520.070
1226.539, 1547.556
1227.021, 1563.402
1227.503, 1559.542
1227.985, 1548.616
1228.468, 1526.267
1228.950, 1508.685
1229.432, 1498.400
1229.914, 1493.714
1230.396, 1497.611
1230.878, 1500.310
1231.360, 1491.588
1231.842, 1478.433
1232.324, 1477.368
1232.807, 1487.218
1233.289, 1499.531
1233.771, 1512.852
1234.253, 1517.078
1234.735, 1512.005
1235.217, 1501.945
1235.699, 1489.319
1236.181, 1480.773
1236.664, 1482.204
1237.146, 1482.636
1237.628, 1467.660
1238.110, 1454.436
1238.592, 1460.597
1239.074, 1471.039
1239.556, 1467.932
1240.038, 1458.506
1240.521, 1458.510
1241.003, 1469.006
1241.485, 1480.861
1241.967, 1496.533
1242.449, 1506.362
1242.931, 1509.021
1243.413, 1510.662
1243.895, 1512.856
1244.377, 1513.508
1244.859, 1511.401
1245.342, 1507.180
1245.824, 1501.483
1246.306, 1494.367
1246.788, 1484.550
1247.270, 1474.300
1247.752, 1467.420
1248.234, 1463.976
1248.716, 1462.988
1249.199, 1464.789
1249.681, 1473.366
1250.163, 1491.299
1250.645, 1499.352
1251.127, 1484.120
1251.609, 1468.640
1252.091, 1454.150
1252.573, 1446.773
1253.056, 1453.250
1253.538, 1460.761
1254.020, 1456.814
1254.502, 1447.745
1254.984, 1448.484
1255.466, 1457.872
1255.948, 1466.563
1256.430, 1474.080
1256.912, 1476.282
1257.395, 1474.142
1257.877, 1475.732
1258.359, 1482.156
1258.841, 1483.049
1259.323, 1470.575
1259.805, 1461.525
1260.287, 1474.062
1260.769, 1486.247
1261.251, 1478.645
1261.734, 1470.627
1262.216, 1488.087
1262.698, 1509.623
1263.180, 1495.061
1263.662, 1454.329
1264.144, 1438.612
1264.626, 1452.772
1265.108, 1466.271
1265.591, 1480.070
1266.073, 1478.180
1266.555, 1458.444
##END=



