##NAMES=Fiedlerite
##RRUFFID=R060859
##IDEAL CHEMISTRY=Pb^2+^_3_Cl_4_F(OH)&#183;H_2_O
##LOCALITY=Laurium, Attica, Greece
##OWNER=RRUFF
##SOURCE=Michael Scott
##DESCRIPTION=Colorless prismatic crystals associated with phosgenite, polytype 1A
##STATUS=The identification of this mineral is confirmed by single-crystal X-ray diffraction and chemical analysis.
##URL=rruff.info/R060859
##MEASURED CHEMISTRY=Pb_3.00_Cl_4.00_F_1.00_(OH)Â·H_2_O ; OH and H_2_O estimated by difference
107.0595, 8948.614
107.5417, 10371.63
108.0238, 12031.62
108.5059, 13915.14
108.9880, 16014.52
109.4701, 18344.14
109.9522, 20936.64
110.4344, 23810.98
110.9165, 26722.71
111.3986, 29763.88
111.8807, 32807.93
112.3628, 35730.66
112.8449, 38636.00
113.3271, 41298.14
113.8092, 43661.31
114.2913, 45688.49
114.7734, 47587.53
115.2555, 49305.85
115.7376, 50945.44
116.2198, 52600.98
116.7019, 54262.08
117.1840, 55972.70
117.6661, 57782.95
118.1482, 59712.63
118.6303, 61684.87
119.1124, 63704.41
119.5946, 65733.95
120.0767, 67658.25
120.5588, 69371.10
121.0409, 70962.48
121.5230, 72536.49
122.0051, 74116.82
122.4873, 75673.45
122.9694, 77141.54
123.4515, 78537.26
123.9336, 79934.66
124.4157, 81306.08
124.8979, 82722.50
125.3800, 84306.93
125.8621, 86109.56
126.3442, 88105.77
126.8263, 90249.14
127.3084, 92516.80
127.7905, 95010.96
128.2727, 97800.22
128.7548, 100879.8
129.2369, 104189.2
129.7190, 107707.8
130.2011, 111435.8
130.6832, 115394.1
131.1654, 119625.5
131.6475, 124028.2
132.1296, 128541.1
132.6117, 133178.8
133.0938, 137698.2
133.5759, 142026.2
134.0581, 146164.2
134.5402, 149914.8
135.0223, 153341.3
135.5044, 156342.6
135.9865, 158596.5
136.4686, 160087.5
136.9508, 160881.2
137.4329, 161003.2
137.9150, 160447.4
138.3971, 159267.1
138.8792, 157395.7
139.3613, 154873.5
139.8434, 152057.6
140.3256, 148854.6
140.8077, 145480.5
141.2898, 142083.1
141.7719, 138660.8
142.2540, 135297.0
142.7361, 132020.8
143.2183, 128776.8
143.7004, 125770.1
144.1825, 122996.7
144.6646, 120451.3
145.1467, 118190.4
145.6288, 116232.0
146.1110, 114488.8
146.5931, 112939.0
147.0752, 111596.8
147.5573, 110379.3
148.0394, 109327.9
148.5215, 108402.9
149.0037, 107476.2
149.4858, 106592.3
149.9679, 105682.1
150.4500, 104706.6
150.9321, 103599.4
151.4142, 102522.9
151.8964, 101487.6
152.3785, 100495.7
152.8606, 99543.38
153.3427, 98621.06
153.8248, 97745.94
154.3069, 96930.82
154.7890, 96097.67
155.2712, 95403.05
155.7533, 94880.55
156.2354, 94537.91
156.7175, 94323.71
157.1996, 94221.29
157.6817, 94243.09
158.1639, 94398.65
158.6460, 94723.84
159.1281, 95147.14
159.6102, 95643.76
160.0923, 96207.87
160.5744, 96839.51
161.0566, 97549.96
161.5387, 98317.25
162.0208, 99112.48
162.5029, 99992.91
162.9850, 100842.1
163.4671, 101602.1
163.9493, 102255.7
164.4314, 102816.6
164.9135, 103322.5
165.3956, 103741.3
165.8777, 104006.3
166.3598, 104078.3
166.8420, 103993.6
167.3241, 103784.1
167.8062, 103466.6
168.2883, 103016.8
168.7704, 102392.5
169.2525, 101616.4
169.7346, 100757.8
170.2168, 99835.00
170.6989, 98870.83
171.1810, 97893.19
171.6631, 96899.95
172.1452, 95907.88
172.6273, 94918.07
173.1095, 93937.12
173.5916, 92949.28
174.0737, 91906.68
174.5558, 90850.98
175.0379, 89870.46
175.5201, 89053.84
176.0022, 88275.14
176.4843, 87374.24
176.9664, 86354.95
177.4485, 85310.92
177.9306, 84338.77
178.4128, 83413.34
178.8949, 82449.09
179.3770, 81371.82
179.8591, 80242.59
180.3412, 79159.48
180.8233, 78114.27
181.3055, 77112.35
181.7876, 76159.38
182.2697, 75252.52
182.7518, 74339.17
183.2339, 73392.19
183.7160, 72421.89
184.1982, 71473.39
184.6803, 70543.34
185.1624, 69656.23
185.6445, 68855.84
186.1266, 68139.08
186.6087, 67414.94
187.0908, 66620.95
187.5730, 65773.02
188.0551, 64976.80
188.5372, 64234.63
189.0193, 63539.85
189.5014, 62873.90
189.9835, 62231.38
190.4657, 61593.49
190.9478, 60934.67
191.4299, 60257.02
191.9120, 59631.17
192.3941, 59076.22
192.8762, 58567.10
193.3584, 58047.28
193.8405, 57518.36
194.3226, 56989.75
194.8047, 56472.61
195.2868, 55967.39
195.7689, 55477.23
196.2511, 55000.57
196.7332, 54535.21
197.2153, 54060.88
197.6974, 53564.23
198.1795, 53112.14
198.6616, 52797.62
199.1438, 52632.54
199.6259, 52408.31
200.1080, 52064.50
200.5901, 51621.32
201.0722, 51208.61
201.5543, 50822.45
202.0364, 50467.96
202.5186, 50160.13
203.0007, 49905.94
203.4828, 49643.98
203.9649, 49354.02
204.4470, 49035.90
204.9291, 48726.90
205.4113, 48423.21
205.8934, 48127.74
206.3755, 47842.47
206.8576, 47565.18
207.3397, 47303.86
207.8218, 47058.26
208.3040, 46828.21
208.7861, 46627.23
209.2682, 46456.69
209.7503, 46319.60
210.2324, 46224.54
210.7145, 46180.72
211.1967, 46160.11
211.6788, 46156.77
212.1609, 46172.67
212.6430, 46200.74
213.1251, 46234.80
213.6072, 46289.47
214.0894, 46392.09
214.5715, 46555.55
215.0536, 46736.54
215.5357, 46917.80
216.0178, 47097.80
216.4999, 47284.56
216.9820, 47477.98
217.4642, 47672.39
217.9463, 47859.58
218.4284, 48030.36
218.9105, 48203.51
219.3926, 48394.28
219.8747, 48621.93
220.3569, 48794.70
220.8390, 48893.75
221.3211, 48946.42
221.8032, 49017.55
222.2853, 49109.11
222.7674, 49217.85
223.2496, 49343.67
223.7317, 49495.57
224.2138, 49646.93
224.6959, 49787.27
225.1780, 49931.50
225.6601, 50138.27
226.1423, 50453.26
226.6244, 50756.90
227.1065, 50974.81
227.5886, 51036.91
228.0707, 51179.86
228.5528, 51437.07
229.0350, 51778.83
229.5171, 52098.60
229.9992, 52391.19
230.4813, 52675.14
230.9634, 52962.64
231.4455, 53273.64
231.9276, 53552.41
232.4098, 53805.51
232.8919, 54027.14
233.3740, 54173.71
233.8561, 54222.41
234.3382, 54229.86
234.8203, 54231.97
235.3025, 54255.92
235.7846, 54220.55
236.2667, 54123.02
236.7488, 53962.76
237.2309, 53735.63
237.7130, 53424.25
238.1952, 53073.29
238.6773, 52714.28
239.1594, 52374.14
239.6415, 51972.00
240.1236, 51480.09
240.6057, 50913.70
241.0879, 50351.62
241.5700, 49796.13
242.0521, 49250.39
242.5342, 48718.88
243.0163, 48207.45
243.4984, 47694.99
243.9806, 47167.86
244.4627, 46632.04
244.9448, 46141.81
245.4269, 45720.97
245.9090, 45313.22
246.3911, 44869.40
246.8732, 44344.95
247.3554, 43874.05
247.8375, 43488.80
248.3196, 43176.59
248.8017, 42829.58
249.2838, 42418.46
249.7659, 42014.67
250.2481, 41669.61
250.7302, 41412.30
251.2123, 41154.61
251.6944, 40878.09
252.1765, 40592.63
252.6586, 40352.78
253.1408, 40176.40
253.6229, 40026.24
254.1050, 39876.69
254.5871, 39735.94
255.0692, 39583.11
255.5513, 39408.70
256.0334, 39218.83
256.5156, 39049.68
256.9977, 38909.90
257.4798, 38777.02
257.9619, 38633.69
258.4440, 38473.00
258.9261, 38314.49
259.4083, 38170.42
259.8904, 38031.65
260.3725, 37833.47
260.8546, 37553.61
261.3367, 37241.82
261.8188, 36940.93
262.3010, 36666.84
262.7831, 36346.04
263.2652, 35953.35
263.7473, 35502.72
264.2294, 35066.70
264.7115, 34668.58
265.1937, 34250.30
265.6758, 33761.16
266.1579, 33184.39
266.6400, 32620.38
267.1221, 32089.46
267.6042, 31583.99
268.0864, 31088.49
268.5685, 30598.53
269.0506, 30118.88
269.5327, 29651.17
270.0148, 29195.51
270.4969, 28753.63
270.9791, 28326.38
271.4612, 27912.02
271.9433, 27519.43
272.4254, 27150.43
272.9075, 26801.65
273.3896, 26470.25
273.8718, 26156.44
274.3539, 25879.79
274.8360, 25644.56
275.3181, 25445.45
275.8002, 25260.42
276.2823, 25089.42
276.7645, 24931.81
277.2466, 24778.82
277.7287, 24627.05
278.2108, 24514.76
278.6929, 24447.70
279.1750, 24420.55
279.6572, 24420.60
280.1393, 24448.68
280.6214, 24497.68
281.1035, 24555.87
281.5856, 24622.51
282.0677, 24737.19
282.5499, 24913.98
283.0320, 25131.60
283.5141, 25333.34
283.9962, 25515.50
284.4783, 25716.52
284.9604, 25963.15
285.4425, 26255.45
285.9247, 26567.89
286.4068, 26895.14
286.8889, 27243.73
287.3710, 27629.37
287.8531, 28052.66
288.3352, 28489.25
288.8174, 28929.94
289.2995, 29373.20
289.7816, 29812.79
290.2637, 30240.08
290.7458, 30659.79
291.2279, 31093.56
291.7101, 31536.74
292.1922, 31925.06
292.6743, 32209.21
293.1564, 32404.71
293.6385, 32563.28
294.1206, 32693.41
294.6028, 32772.33
295.0849, 32778.89
295.5670, 32712.09
296.0491, 32561.63
296.5312, 32300.35
297.0133, 31955.61
297.4955, 31586.09
297.9776, 31203.47
298.4597, 30796.07
298.9418, 30352.51
299.4239, 29877.15
299.9060, 29388.55
300.3882, 28884.12
300.8703, 28376.57
301.3524, 27896.25
301.8345, 27444.70
302.3166, 27013.12
302.7987, 26583.96
303.2809, 26165.33
303.7630, 25765.75
304.2451, 25396.31
304.7272, 25046.71
305.2093, 24711.49
305.6914, 24385.61
306.1736, 24078.22
306.6557, 23784.73
307.1378, 23509.78
307.6199, 23260.08
308.1020, 23047.21
308.5841, 22853.38
309.0663, 22652.79
309.5484, 22443.86
310.0305, 22275.21
310.5126, 22208.99
310.9947, 22190.40
311.4768, 22152.10
311.9590, 22015.73
312.4411, 21895.11
312.9232, 21877.71
313.4053, 21956.05
313.8874, 22035.78
314.3695, 22051.42
314.8517, 22054.29
315.3337, 22093.43
315.8159, 22205.32
316.2980, 22334.43
316.7801, 22466.79
317.2622, 22600.42
317.7443, 22727.36
318.2264, 22826.69
318.7086, 22927.78
319.1907, 23051.78
319.6728, 23223.40
320.1549, 23393.88
320.6370, 23557.44
321.1191, 23711.25
321.6013, 23845.59
322.0834, 23957.56
322.5655, 24047.51
323.0476, 24114.54
323.5297, 24153.61
324.0118, 24176.42
324.4940, 24193.00
324.9761, 24194.29
325.4582, 24158.83
325.9403, 24083.66
326.4224, 23971.16
326.9045, 23820.33
327.3867, 23623.35
327.8688, 23402.96
328.3509, 23151.25
328.8330, 22878.69
329.3151, 22597.76
329.7972, 22312.97
330.2794, 22015.01
330.7615, 21695.54
331.2436, 21344.59
331.7257, 21008.22
332.2078, 20693.73
332.6899, 20387.34
333.1721, 20070.03
333.6542, 19740.10
334.1363, 19407.13
334.6184, 19064.98
335.1005, 18714.92
335.5826, 18389.18
336.0648, 18086.71
336.5469, 17809.70
337.0290, 17558.19
337.5111, 17334.69
337.9932, 17126.69
338.4753, 16938.24
338.9575, 16765.07
339.4396, 16566.41
339.9217, 16331.60
340.4038, 16096.94
340.8859, 15891.30
341.3680, 15719.26
341.8502, 15545.52
342.3323, 15366.57
342.8144, 15184.66
343.2965, 15009.76
343.7786, 14839.14
344.2607, 14689.22
344.7429, 14585.41
345.2250, 14521.48
345.7071, 14423.46
346.1892, 14271.22
346.6713, 14102.72
347.1534, 13979.19
347.6355, 13898.54
348.1176, 13826.14
348.5998, 13739.30
349.0819, 13644.33
349.5640, 13559.44
350.0461, 13485.28
350.5282, 13417.08
351.0103, 13348.00
351.4925, 13278.91
351.9746, 13211.91
352.4567, 13151.90
352.9388, 13093.41
353.4209, 13030.91
353.9030, 12964.50
354.3852, 12889.42
354.8673, 12787.83
355.3494, 12677.22
355.8315, 12586.61
356.3136, 12546.63
356.7957, 12518.10
357.2779, 12467.89
357.7600, 12398.04
358.2421, 12331.94
358.7242, 12291.94
359.2063, 12258.19
359.6884, 12210.04
360.1706, 12127.00
360.6527, 12045.87
361.1348, 11982.03
361.6169, 11933.49
362.0990, 11894.24
362.5811, 11868.04
363.0633, 11845.46
363.5454, 11821.19
364.0275, 11795.75
364.5096, 11765.52
364.9917, 11729.06
365.4738, 11687.20
365.9560, 11641.50
366.4381, 11593.62
366.9202, 11541.60
367.4023, 11482.24
367.8844, 11409.13
368.3665, 11347.46
368.8487, 11303.41
369.3308, 11269.66
369.8129, 11237.73
370.2950, 11204.87
370.7771, 11177.83
371.2592, 11161.92
371.7414, 11158.68
372.2235, 11141.85
372.7056, 11108.60
373.1877, 11064.00
373.6698, 11008.83
374.1519, 10931.59
374.6341, 10873.97
375.1162, 10848.19
375.5983, 10847.26
376.0804, 10836.63
376.5625, 10814.99
377.0446, 10787.08
377.5267, 10755.40
378.0089, 10719.40
378.4910, 10684.74
378.9731, 10655.05
379.4552, 10623.20
379.9373, 10567.63
380.4194, 10486.47
380.9016, 10417.77
381.3837, 10393.74
381.8658, 10403.40
382.3479, 10380.50
382.8300, 10317.73
383.3121, 10248.84
383.7943, 10226.32
384.2764, 10238.00
384.7585, 10232.76
385.2406, 10172.93
385.7227, 10088.20
386.2048, 10030.54
386.6870, 9999.084
387.1691, 9980.092
387.6512, 9972.352
388.1333, 9967.689
388.6154, 9952.920
389.0975, 9921.928
389.5797, 9881.406
390.0618, 9828.773
390.5439, 9768.561
391.0260, 9721.605
391.5081, 9715.194
391.9902, 9717.918
392.4724, 9704.508
392.9545, 9667.173
393.4366, 9621.785
393.9187, 9564.114
394.4008, 9505.037
394.8829, 9462.153
395.3651, 9459.785
395.8472, 9459.522
396.3293, 9444.411
396.8114, 9410.158
397.2935, 9376.287
397.7756, 9352.221
398.2578, 9327.109
398.7399, 9289.633
399.2220, 9213.977
399.7041, 9153.396
400.1862, 9121.241
400.6683, 9115.810
401.1505, 9100.368
401.6326, 9068.715
402.1147, 9033.595
402.5968, 9002.027
403.0789, 8973.310
403.5610, 8951.166
404.0432, 8940.554
404.5253, 8934.796
405.0074, 8913.831
405.4895, 8872.596
405.9716, 8830.792
406.4537, 8797.908
406.9359, 8774.252
407.4180, 8751.341
407.9001, 8730.053
408.3822, 8707.048
408.8643, 8675.104
409.3464, 8634.554
409.8285, 8596.974
410.3106, 8565.406
410.7928, 8540.428
411.2749, 8524.529
411.7570, 8517.807
412.2391, 8515.258
412.7212, 8517.025
413.2033, 8519.618
413.6855, 8513.529
414.1676, 8493.176
414.6497, 8469.081
415.1318, 8452.620
415.6139, 8442.419
416.0960, 8434.459
416.5782, 8436.275
417.0603, 8433.618
417.5424, 8408.547
418.0245, 8353.698
418.5066, 8300.765
418.9887, 8264.200
419.4709, 8241.236
419.9530, 8227.243
420.4351, 8236.297
420.9172, 8240.255
421.3993, 8222.438
421.8814, 8182.770
422.3636, 8151.315
422.8457, 8140.167
423.3278, 8136.820
423.8099, 8132.910
424.2920, 8134.803
424.7741, 8127.519
425.2563, 8104.989
425.7384, 8071.918
426.2205, 8045.156
426.7026, 8032.055
427.1847, 8015.554
427.6668, 7987.096
428.1490, 7940.537
428.6311, 7904.029
429.1132, 7877.090
429.5953, 7859.963
430.0774, 7857.404
430.5595, 7874.621
431.0417, 7880.376
431.5238, 7859.902
432.0059, 7820.067
432.4880, 7804.213
432.9701, 7815.876
433.4522, 7829.516
433.9344, 7821.587
434.4165, 7795.536
434.8986, 7772.010
435.3807, 7754.178
435.8628, 7740.929
436.3449, 7731.366
436.8271, 7725.242
437.3092, 7721.046
437.7913, 7723.500
438.2734, 7725.177
438.7555, 7712.501
439.2376, 7683.137
439.7197, 7655.442
440.2018, 7643.173
440.6840, 7641.459
441.1661, 7643.354
441.6482, 7653.926
442.1303, 7660.365
442.6124, 7654.574
443.0945, 7637.797
443.5767, 7618.490
444.0588, 7592.708
444.5409, 7570.009
445.0230, 7557.372
445.5051, 7564.591
445.9872, 7566.402
446.4694, 7556.295
446.9515, 7539.098
447.4336, 7523.500
447.9157, 7505.462
448.3978, 7494.377
448.8799, 7497.290
449.3621, 7517.291
449.8442, 7517.428
450.3263, 7486.758
450.8084, 7450.521
451.2905, 7431.996
451.7726, 7436.242
452.2548, 7437.680
452.7369, 7431.279
453.2190, 7420.530
453.7011, 7416.574
454.1832, 7420.307
454.6653, 7422.768
455.1475, 7419.721
455.6296, 7411.296
456.1117, 7395.983
456.5938, 7372.525
457.0759, 7349.337
457.5580, 7339.813
458.0402, 7339.524
458.5223, 7334.403
459.0044, 7310.845
459.4865, 7286.533
459.9686, 7285.726
460.4507, 7305.383
460.9329, 7325.189
461.4150, 7341.374
461.8971, 7346.429
462.3792, 7328.481
462.8613, 7270.511
463.3434, 7224.244
463.8256, 7226.196
464.3077, 7254.143
464.7898, 7270.523
465.2719, 7245.768
465.7540, 7225.139
466.2361, 7229.356
466.7183, 7262.780
467.2004, 7282.142
467.6825, 7276.479
468.1646, 7261.235
468.6467, 7245.782
469.1288, 7226.382
469.6110, 7213.662
470.0930, 7210.788
470.5752, 7213.999
471.0573, 7213.457
471.5394, 7209.359
472.0215, 7200.352
472.5036, 7182.678
472.9857, 7156.180
473.4679, 7140.686
473.9500, 7137.980
474.4321, 7140.280
474.9142, 7140.773
475.3963, 7139.364
475.8784, 7135.009
476.3606, 7128.262
476.8427, 7117.898
477.3248, 7099.528
477.8069, 7074.724
478.2890, 7051.596
478.7711, 7036.096
479.2533, 7025.057
479.7354, 7013.663
480.2175, 7000.469
480.6996, 6992.038
481.1817, 6999.399
481.6638, 7012.354
482.1460, 7016.977
482.6281, 6997.268
483.1102, 6978.523
483.5923, 6968.955
484.0744, 6968.188
484.5565, 6972.914
485.0387, 6996.937
485.5208, 7014.847
486.0029, 7011.311
486.4850, 6964.820
486.9671, 6937.814
487.4492, 6940.712
487.9314, 6957.815
488.4135, 6964.834
488.8956, 6958.066
489.3777, 6950.946
489.8598, 6948.338
490.3419, 6949.194
490.8241, 6941.598
491.3062, 6923.795
491.7883, 6905.753
492.2704, 6897.911
492.7525, 6898.475
493.2346, 6889.174
493.7168, 6865.105
494.1989, 6838.710
494.6810, 6827.786
495.1631, 6829.610
495.6452, 6834.080
496.1273, 6840.577
496.6095, 6844.668
497.0916, 6840.399
497.5737, 6828.048
498.0558, 6812.063
498.5379, 6783.652
499.0201, 6758.965
499.5022, 6755.941
499.9843, 6795.315
500.4664, 6826.853
500.9485, 6829.803
501.4306, 6813.307
501.9127, 6794.251
502.3948, 6762.274
502.8770, 6741.561
503.3591, 6745.695
503.8412, 6777.236
504.3233, 6791.811
504.8054, 6779.340
505.2875, 6760.297
505.7697, 6748.291
506.2518, 6743.727
506.7339, 6745.050
507.2160, 6755.056
507.6981, 6767.537
508.1802, 6766.679
508.6624, 6751.305
509.1445, 6741.958
509.6266, 6755.552
510.1087, 6781.812
510.5908, 6780.523
511.0729, 6751.149
511.5551, 6721.041
512.0372, 6716.282
512.5193, 6727.153
513.0014, 6736.349
513.4835, 6741.340
513.9656, 6741.235
514.4478, 6731.659
514.9299, 6716.492
515.4120, 6703.816
515.8941, 6690.302
516.3762, 6685.690
516.8583, 6700.750
517.3405, 6736.444
517.8226, 6762.156
518.3047, 6762.720
518.7868, 6756.233
519.2689, 6755.239
519.7510, 6773.752
520.2332, 6777.278
520.7153, 6758.237
521.1974, 6727.200
521.6795, 6702.951
522.1616, 6682.700
522.6437, 6678.070
523.1259, 6701.020
523.6080, 6746.285
524.0901, 6759.306
524.5722, 6734.945
525.0543, 6707.107
525.5364, 6705.233
526.0186, 6723.738
526.5007, 6739.133
526.9828, 6748.349
527.4649, 6752.281
527.9470, 6747.308
528.4291, 6737.497
528.9113, 6732.978
529.3934, 6741.093
529.8755, 6754.307
530.3576, 6774.316
530.8397, 6798.287
531.3218, 6804.667
531.8040, 6763.040
532.2861, 6713.675
532.7682, 6686.657
533.2503, 6699.904
533.7324, 6705.592
534.2145, 6685.919
534.6967, 6659.230
535.1788, 6651.512
535.6609, 6680.211
536.1430, 6699.969
536.6251, 6698.063
537.1072, 6678.954
537.5894, 6672.860
538.0715, 6682.233
538.5536, 6696.737
539.0357, 6712.944
539.5178, 6730.270
539.9999, 6737.478
540.4821, 6732.029
540.9642, 6724.508
541.4463, 6730.200
541.9284, 6744.517
542.4105, 6752.562
542.8926, 6746.831
543.3748, 6735.743
543.8569, 6725.846
544.3390, 6717.813
544.8211, 6713.877
545.3032, 6714.708
545.7853, 6720.314
546.2675, 6734.629
546.7495, 6760.692
547.2316, 6775.360
547.7137, 6762.502
548.1959, 6740.822
548.6780, 6726.168
549.1601, 6721.529
549.6422, 6722.590
550.1243, 6735.205
550.6064, 6751.977
551.0886, 6750.417
551.5707, 6717.863
552.0528, 6700.752
552.5349, 6725.168
553.0170, 6784.898
553.4991, 6810.170
553.9813, 6797.596
554.4634, 6773.007
554.9455, 6755.623
555.4276, 6744.371
555.9097, 6736.034
556.3918, 6730.528
556.8740, 6726.583
557.3561, 6720.077
557.8382, 6714.317
558.3203, 6716.168
558.8024, 6736.358
559.2845, 6758.631
559.7667, 6777.168
560.2488, 6790.559
560.7309, 6792.125
561.2130, 6767.060
561.6951, 6739.178
562.1772, 6720.457
562.6594, 6713.255
563.1415, 6712.094
563.6236, 6716.199
564.1057, 6726.522
564.5878, 6747.239
565.0699, 6786.291
565.5521, 6809.995
566.0342, 6808.651
566.5163, 6791.455
566.9984, 6784.174
567.4805, 6787.317
567.9626, 6791.483
568.4448, 6790.972
568.9269, 6787.927
569.4090, 6788.527
569.8911, 6792.857
570.3732, 6798.420
570.8553, 6800.991
571.3375, 6804.265
571.8196, 6814.634
572.3017, 6838.214
572.7838, 6858.012
573.2659, 6866.262
573.7480, 6864.414
574.2302, 6855.010
574.7123, 6823.801
575.1944, 6800.570
575.6765, 6796.504
576.1586, 6810.173
576.6407, 6824.164
577.1229, 6843.246
577.6050, 6856.719
578.0871, 6857.906
578.5692, 6844.022
579.0513, 6834.220
579.5334, 6828.413
580.0156, 6827.159
580.4977, 6834.385
580.9798, 6848.734
581.4619, 6855.702
581.9440, 6848.532
582.4261, 6838.770
582.9083, 6847.297
583.3904, 6868.765
583.8725, 6885.373
584.3546, 6883.921
584.8367, 6876.396
585.3188, 6867.478
585.8010, 6858.236
586.2831, 6861.815
586.7652, 6903.374
587.2473, 6946.249
587.7294, 6964.883
588.2115, 6940.450
588.6937, 6922.916
589.1758, 6914.937
589.6579, 6914.641
590.1400, 6920.777
590.6221, 6936.519
591.1042, 6950.599
591.5864, 6960.859
592.0685, 6968.063
592.5506, 6976.785
593.0327, 6987.652
593.5148, 6989.158
593.9969, 6962.458
594.4791, 6923.131
594.9612, 6918.954
595.4433, 6950.072
595.9254, 6980.561
596.4075, 6971.185
596.8896, 6948.958
597.3718, 6950.262
597.8539, 6993.109
598.3360, 7033.005
598.8181, 7047.477
599.3002, 7046.146
599.7823, 7043.340
600.2645, 7044.163
600.7466, 7041.042
601.2287, 7029.478
601.7108, 7012.073
602.1929, 7000.581
602.6750, 6993.513
603.1572, 6995.571
603.6393, 7011.403
604.1214, 7040.714
604.6035, 7067.452
605.0856, 7092.247
605.5677, 7111.306
606.0499, 7119.424
606.5320, 7118.821
607.0141, 7116.674
607.4962, 7113.624
607.9783, 7111.152
608.4604, 7112.292
608.9425, 7114.882
609.4246, 7114.967
609.9067, 7101.577
610.3889, 7094.245
610.8710, 7110.637
611.3531, 7143.851
611.8352, 7161.900
612.3173, 7140.801
612.7994, 7120.514
613.2816, 7116.659
613.7637, 7131.790
614.2458, 7145.297
614.7279, 7156.876
615.2100, 7167.688
615.6921, 7177.771
616.1743, 7187.105
616.6564, 7201.165
617.1385, 7221.948
617.6206, 7243.494
618.1027, 7252.689
618.5848, 7254.616
619.0670, 7268.825
619.5491, 7314.529
620.0312, 7361.881
620.5133, 7379.415
620.9954, 7373.621
621.4775, 7367.212
621.9597, 7365.116
622.4418, 7369.627
622.9239, 7385.923
623.4060, 7415.817
623.8881, 7435.525
624.3702, 7429.172
624.8524, 7423.190
625.3345, 7434.542
625.8166, 7473.305
626.2987, 7500.119
626.7808, 7512.329
627.2629, 7516.846
627.7451, 7519.046
628.2272, 7519.439
628.7093, 7530.457
629.1914, 7556.698
629.6735, 7593.018
630.1556, 7641.791
630.6378, 7695.552
631.1199, 7727.498
631.6020, 7703.813
632.0841, 7668.036
632.5662, 7653.574
633.0483, 7660.113
633.5305, 7669.550
634.0126, 7668.271
634.4947, 7673.220
634.9768, 7695.732
635.4589, 7743.878
635.9410, 7788.635
636.4232, 7836.296
636.9053, 7874.190
637.3874, 7883.969
637.8695, 7857.437
638.3516, 7851.124
638.8337, 7876.042
639.3159, 7915.852
639.7980, 7946.273
640.2801, 7967.947
640.7622, 7983.228
641.2443, 7983.332
641.7264, 7986.722
642.2086, 8022.340
642.6907, 8083.102
643.1728, 8139.110
643.6549, 8175.579
644.1370, 8203.358
644.6191, 8229.441
645.1013, 8254.722
645.5834, 8273.948
646.0655, 8269.115
646.5476, 8271.961
647.0297, 8302.955
647.5118, 8377.296
647.9940, 8437.957
648.4761, 8482.384
648.9582, 8516.936
649.4403, 8543.284
649.9224, 8562.206
650.4045, 8605.117
650.8867, 8688.968
651.3688, 8782.391
651.8509, 8835.906
652.3330, 8859.942
652.8151, 8884.409
653.2972, 8929.068
653.7794, 8975.123
654.2615, 8998.543
654.7436, 9006.388
655.2257, 9041.854
655.7078, 9150.570
656.1899, 9262.457
656.6721, 9339.575
657.1542, 9372.834
657.6363, 9428.019
658.1184, 9514.874
658.6005, 9608.350
659.0826, 9685.747
659.5648, 9745.740
660.0469, 9811.681
660.5290, 9884.385
661.0111, 9967.002
661.4932, 10066.98
661.9753, 10179.90
662.4575, 10291.41
662.9396, 10392.51
663.4217, 10498.78
663.9038, 10629.05
664.3859, 10775.28
664.8680, 10916.70
665.3502, 11044.14
665.8323, 11169.20
666.3144, 11294.80
666.7965, 11421.13
667.2786, 11549.42
667.7607, 11678.59
668.2429, 11810.29
668.7250, 11947.41
669.2071, 12089.21
669.6892, 12220.30
670.1713, 12340.03
670.6534, 12452.68
671.1355, 12566.24
671.6176, 12676.06
672.0997, 12762.95
672.5818, 12821.56
673.0640, 12875.77
673.5461, 12955.04
674.0282, 13039.92
674.5103, 13106.16
674.9924, 13150.01
675.4745, 13171.36
675.9567, 13161.27
676.4388, 13130.57
676.9209, 13100.83
677.4030, 13083.67
677.8851, 13051.54
678.3672, 12997.13
678.8494, 12924.17
679.3315, 12844.29
679.8136, 12755.90
680.2957, 12673.81
680.7778, 12619.97
681.2599, 12576.20
681.7421, 12487.61
682.2242, 12355.77
682.7063, 12220.21
683.1884, 12102.65
683.6705, 11997.20
684.1526, 11901.10
684.6348, 11816.64
685.1169, 11724.91
685.5990, 11612.54
686.0811, 11495.80
686.5632, 11385.95
687.0453, 11270.03
687.5275, 11189.61
688.0096, 11163.68
688.4917, 11155.02
688.9738, 11107.14
689.4559, 11016.87
689.9380, 10938.82
690.4202, 10882.68
690.9023, 10847.41
691.3844, 10844.57
691.8665, 10864.32
692.3486, 10873.68
692.8307, 10834.93
693.3129, 10798.01
693.7950, 10807.98
694.2771, 10854.72
694.7592, 10895.01
695.2413, 10891.98
695.7234, 10901.78
696.2056, 10953.91
696.6877, 11048.79
697.1698, 11134.46
697.6519, 11201.50
698.1340, 11278.15
698.6161, 11401.17
699.0983, 11568.14
699.5804, 11637.39
700.0625, 11592.11
700.5446, 11564.61
701.0267, 11702.95
701.5089, 11943.33
701.9910, 12182.78
702.4731, 12416.46
702.9552, 12591.12
703.4373, 12645.92
703.9194, 12632.55
704.4016, 12614.25
704.8837, 12604.05
705.3658, 12590.02
705.8479, 12561.53
706.3300, 12532.05
706.8121, 12521.25
707.2943, 12523.43
707.7764, 12570.19
708.2585, 12690.09
708.7406, 12841.84
709.2227, 12919.47
709.7048, 12927.59
710.1870, 12896.95
710.6691, 12788.35
711.1512, 12685.15
711.6333, 12716.55
712.1154, 12857.03
712.5975, 12942.27
713.0797, 12841.29
713.5618, 12711.35
714.0439, 12653.87
714.5260, 12696.45
715.0081, 12651.61
715.4902, 12486.23
715.9724, 12276.99
716.4545, 12059.55
716.9366, 11827.00
717.4187, 11650.01
717.9008, 11535.20
718.3829, 11441.45
718.8651, 11323.33
719.3472, 11193.26
719.8293, 11077.02
720.3114, 10984.29
720.7935, 10891.84
721.2756, 10784.12
721.7578, 10666.75
722.2399, 10548.58
722.7220, 10411.22
723.2041, 10297.28
723.6862, 10229.62
724.1683, 10181.46
724.6505, 10109.22
725.1326, 10003.38
725.6147, 9903.557
726.0968, 9819.752
726.5789, 9746.813
727.0610, 9674.187
727.5432, 9601.708
728.0253, 9528.070
728.5074, 9456.316
728.9895, 9380.491
729.4716, 9281.467
729.9537, 9168.856
730.4359, 9085.304
730.9180, 9075.014
731.4001, 9074.084
731.8822, 9054.029
732.3643, 9012.255
732.8464, 8966.076
733.3285, 8906.496
733.8106, 8856.676
734.2927, 8833.579
734.7748, 8836.908
735.2570, 8821.628
735.7391, 8786.156
736.2212, 8745.991
736.7033, 8713.445
737.1854, 8685.764
737.6675, 8659.999
738.1497, 8636.965
738.6318, 8606.901
739.1139, 8549.355
739.5960, 8490.333
740.0781, 8455.271
740.5602, 8471.233
741.0424, 8468.932
741.5245, 8427.657
742.0066, 8379.959
742.4887, 8366.989
742.9708, 8397.762
743.4529, 8407.876
743.9351, 8384.278
744.4172, 8347.197
744.8993, 8327.148
745.3814, 8319.838
745.8635, 8310.885
746.3456, 8294.743
746.8278, 8275.995
747.3099, 8255.102
747.7920, 8234.690
748.2741, 8220.133
748.7562, 8232.358
749.2383, 8228.582
749.7205, 8194.599
750.2026, 8138.075
750.6847, 8078.259
751.1668, 8009.957
751.6489, 7955.468
752.1310, 7922.936
752.6132, 7908.902
753.0953, 7905.348
753.5774, 7911.603
754.0595, 7921.454
754.5416, 7941.390
755.0237, 7955.952
755.5059, 7943.011
755.9880, 7906.114
756.4701, 7876.327
756.9522, 7875.817
757.4343, 7875.836
757.9164, 7860.364
758.3986, 7828.562
758.8807, 7803.813
759.3628, 7792.281
759.8449, 7774.760
760.3270, 7729.717
760.8091, 7663.474
761.2913, 7634.297
761.7734, 7644.997
762.2555, 7661.717
762.7376, 7658.563
763.2197, 7644.499
763.7018, 7630.729
764.1840, 7619.362
764.6661, 7605.322
765.1482, 7581.008
765.6303, 7556.848
766.1124, 7541.426
766.5945, 7537.391
767.0767, 7534.667
767.5588, 7532.748
768.0409, 7532.084
768.5230, 7535.120
769.0051, 7540.857
769.4872, 7538.145
769.9694, 7523.280
770.4515, 7508.757
770.9336, 7513.109
771.4157, 7525.723
771.8978, 7529.894
772.3799, 7520.073
772.8621, 7503.041
773.3442, 7475.741
773.8263, 7445.018
774.3084, 7420.205
774.7905, 7400.901
775.2726, 7390.291
775.7548, 7392.778
776.2369, 7399.939
776.7190, 7396.047
777.2011, 7381.729
777.6832, 7363.792
778.1653, 7340.764
778.6475, 7320.893
779.1296, 7316.457
779.6117, 7322.837
780.0938, 7330.148
780.5759, 7337.122
781.0580, 7340.848
781.5402, 7340.750
782.0223, 7336.170
782.5044, 7325.771
782.9865, 7306.676
783.4686, 7287.533
783.9507, 7269.793
784.4329, 7253.872
784.9150, 7236.149
785.3971, 7217.756
785.8792, 7214.247
786.3613, 7249.623
786.8434, 7291.147
787.3256, 7294.021
787.8077, 7267.933
788.2898, 7246.393
788.7719, 7243.913
789.2540, 7248.641
789.7361, 7259.642
790.2183, 7275.203
790.7004, 7284.467
791.1825, 7288.999
791.6646, 7282.220
792.1467, 7253.542
792.6288, 7212.344
793.1110, 7203.172
793.5930, 7223.691
794.0751, 7243.965
794.5573, 7244.559
795.0394, 7235.179
795.5215, 7223.696
796.0036, 7210.925
796.4857, 7199.763
796.9678, 7195.029
797.4500, 7188.908
797.9321, 7175.826
798.4142, 7155.819
798.8963, 7145.893
799.3784, 7148.292
799.8605, 7153.913
800.3427, 7159.790
800.8248, 7164.591
801.3069, 7162.878
801.7890, 7154.669
802.2711, 7141.878
802.7532, 7113.686
803.2354, 7089.920
803.7175, 7095.996
804.1996, 7137.371
804.6817, 7155.247
805.1638, 7105.898
805.6459, 7058.122
806.1281, 7048.162
806.6102, 7080.936
807.0923, 7094.047
807.5744, 7085.414
808.0565, 7069.072
808.5386, 7045.069
809.0208, 7023.667
809.5029, 7040.315
809.9850, 7097.618
810.4671, 7141.691
810.9492, 7125.203
811.4313, 7089.885
811.9135, 7067.809
812.3956, 7067.432
812.8777, 7059.101
813.3598, 7034.468
813.8419, 7010.682
814.3240, 7000.110
814.8062, 7003.331
815.2883, 7005.381
815.7704, 7005.870
816.2525, 7006.741
816.7346, 7009.396
817.2167, 7013.708
817.6989, 7021.998
818.1810, 7035.645
818.6631, 7041.197
819.1452, 7018.455
819.6273, 6995.331
820.1094, 6998.389
820.5916, 7043.544
821.0737, 7051.180
821.5558, 7005.038
822.0379, 6955.751
822.5200, 6950.825
823.0021, 6982.526
823.4843, 7007.147
823.9664, 7021.449
824.4485, 7030.764
824.9306, 7038.737
825.4127, 7044.351
825.8948, 7046.593
826.3770, 7045.182
826.8591, 7040.203
827.3412, 7024.452
827.8233, 7010.782
828.3054, 7008.169
828.7875, 7019.460
829.2697, 7028.240
829.7518, 7035.201
830.2339, 7037.174
830.7160, 7029.370
831.1981, 7014.946
831.6802, 6999.937
832.1624, 6984.749
832.6445, 6972.511
833.1266, 6966.322
833.6087, 6963.264
834.0908, 6962.156
834.5729, 6965.914
835.0551, 6960.636
835.5372, 6938.875
836.0193, 6919.442
836.5014, 6918.718
836.9835, 6935.731
837.4656, 6950.635
837.9478, 6962.683
838.4299, 6970.269
838.9120, 6969.464
839.3941, 6964.680
839.8762, 6961.865
840.3583, 6962.388
840.8405, 6960.076
841.3226, 6948.513
841.8047, 6937.147
842.2868, 6931.746
842.7689, 6933.116
843.2510, 6936.583
843.7332, 6943.702
844.2153, 6946.644
844.6974, 6930.686
845.1795, 6906.405
845.6616, 6908.578
846.1437, 6938.844
846.6259, 6962.840
847.1080, 6949.518
847.5901, 6927.210
848.0722, 6919.839
848.5543, 6935.498
849.0364, 6931.531
849.5186, 6894.077
850.0007, 6857.788
850.4828, 6845.230
850.9649, 6854.989
851.4470, 6859.061
851.9291, 6857.459
852.4113, 6855.114
852.8934, 6853.533
853.3755, 6854.673
853.8576, 6862.166
854.3397, 6876.066
854.8218, 6888.924
855.3040, 6901.783
855.7860, 6909.479
856.2681, 6908.417
856.7502, 6898.728
857.2324, 6890.805
857.7145, 6884.333
858.1966, 6881.197
858.6787, 6884.146
859.1608, 6890.629
859.6429, 6896.239
860.1251, 6900.503
860.6072, 6901.973
861.0893, 6897.672
861.5714, 6892.042
862.0535, 6883.608
862.5356, 6873.626
863.0178, 6880.557
863.4999, 6916.552
863.9820, 6943.175
864.4641, 6942.292
864.9462, 6920.917
865.4283, 6900.545
865.9105, 6882.117
866.3926, 6871.958
866.8747, 6884.833
867.3568, 6898.611
867.8389, 6887.648
868.3210, 6860.378
868.8032, 6848.148
869.2853, 6880.714
869.7674, 6902.095
870.2495, 6895.922
870.7316, 6871.811
871.2137, 6861.371
871.6959, 6864.810
872.1780, 6871.917
872.6601, 6882.684
873.1422, 6890.256
873.6243, 6878.120
874.1064, 6855.632
874.5886, 6845.138
875.0707, 6871.234
875.5528, 6891.940
876.0349, 6883.442
876.5170, 6865.097
876.9991, 6877.724
877.4813, 6933.757
877.9634, 6960.894
878.4455, 6937.298
878.9276, 6893.737
879.4097, 6876.272
879.8918, 6878.936
880.3740, 6888.771
880.8561, 6907.880
881.3382, 6921.885
881.8203, 6917.887
882.3024, 6906.846
882.7845, 6904.481
883.2667, 6918.581
883.7488, 6923.987
884.2309, 6916.071
884.7130, 6905.097
885.1951, 6907.696
885.6772, 6919.239
886.1594, 6918.334
886.6415, 6898.647
887.1236, 6882.499
887.6057, 6893.829
888.0878, 6913.788
888.5699, 6922.145
889.0521, 6907.062
889.5342, 6903.644
890.0163, 6919.157
890.4984, 6937.674
890.9805, 6944.613
891.4626, 6941.328
891.9448, 6951.737
892.4269, 6977.294
892.9090, 6997.525
893.3911, 6983.796
893.8732, 6962.952
894.3553, 6968.494
894.8375, 7005.846
895.3196, 7024.988
895.8017, 6995.093
896.2838, 6966.378
896.7659, 6961.424
897.2480, 6978.655
897.7302, 6990.303
898.2123, 6996.422
898.6944, 6993.335
899.1765, 6971.921
899.6586, 6944.502
900.1407, 6928.264
900.6229, 6921.224
901.1050, 6912.542
901.5871, 6886.821
902.0692, 6872.483
902.5513, 6886.522
903.0334, 6918.088
903.5156, 6919.612
903.9977, 6885.949
904.4798, 6866.972
904.9619, 6887.902
905.4440, 6922.804
905.9261, 6932.479
906.4083, 6923.066
906.8904, 6909.109
907.3725, 6883.801
907.8546, 6869.612
908.3367, 6881.211
908.8188, 6905.819
909.3010, 6924.614
909.7831, 6938.160
910.2652, 6942.330
910.7473, 6933.657
911.2294, 6923.800
911.7115, 6931.350
912.1937, 6949.313
912.6758, 6962.992
913.1579, 6968.999
913.6400, 6969.400
914.1221, 6962.957
914.6042, 6952.458
915.0864, 6940.208
915.5685, 6925.214
916.0506, 6909.765
916.5327, 6890.386
917.0148, 6882.370
917.4969, 6916.455
917.9790, 6969.120
918.4611, 6973.379
918.9432, 6925.500
919.4254, 6888.918
919.9075, 6914.247
920.3896, 6952.309
920.8717, 6969.304
921.3538, 6963.871
921.8359, 6970.697
922.3181, 6996.244
922.8002, 7012.863
923.2823, 7000.065
923.7644, 6970.621
924.2465, 6962.543
924.7286, 6971.618
925.2108, 6980.932
925.6929, 6974.314
926.1750, 6972.628
926.6571, 7000.442
927.1392, 7042.405
927.6213, 7042.899
928.1035, 6974.996
928.5856, 6941.878
929.0677, 6975.625
929.5498, 7038.177
930.0319, 7068.527
930.5140, 7070.240
930.9962, 7051.195
931.4783, 7000.124
931.9604, 6959.000
932.4425, 6956.072
932.9246, 6973.750
933.4067, 6991.796
933.8889, 7012.701
934.3710, 7023.740
934.8531, 7023.034
935.3352, 7016.144
935.8173, 7004.225
936.2994, 6991.111
936.7816, 6990.923
937.2637, 7005.418
937.7458, 7018.485
938.2279, 7021.926
938.7100, 7018.647
939.1921, 7004.555
939.6743, 6978.215
940.1564, 6979.824
940.6385, 7020.283
941.1206, 7056.055
941.6027, 7062.151
942.0848, 7047.740
942.5670, 7035.495
943.0491, 7025.744
943.5312, 7019.222
944.0133, 7020.649
944.4954, 7021.130
944.9775, 7014.661
945.4597, 7003.784
945.9418, 6996.489
946.4239, 6993.074
946.9060, 6992.042
947.3881, 6992.059
947.8702, 6996.481
948.3524, 7017.766
948.8345, 7047.317
949.3166, 7063.696
949.7987, 7058.815
950.2808, 7045.327
950.7629, 7016.526
951.2451, 6990.290
951.7272, 6986.303
952.2093, 7016.323
952.6914, 7026.994
953.1735, 7013.977
953.6556, 6997.380
954.1378, 6999.190
954.6199, 7009.411
955.1020, 7004.727
955.5841, 6984.635
956.0662, 6975.990
956.5483, 7009.834
957.0305, 7040.717
957.5126, 7041.513
957.9947, 7016.948
958.4768, 7005.834
958.9589, 7009.158
959.4410, 7018.377
959.9232, 7032.757
960.4053, 7047.725
960.8874, 7057.663
961.3695, 7062.436
961.8516, 7061.700
962.3337, 7049.354
962.8159, 7038.649
963.2980, 7031.151
963.7801, 7027.820
964.2622, 7030.924
964.7443, 7040.903
965.2264, 7053.300
965.7086, 7068.799
966.1907, 7080.169
966.6728, 7076.724
967.1549, 7066.144
967.6370, 7058.675
968.1191, 7056.885
968.6013, 7053.688
969.0834, 7044.391
969.5655, 7037.082
970.0476, 7035.172
970.5297, 7038.722
971.0118, 7053.311
971.4940, 7078.315
971.9761, 7094.329
972.4582, 7079.877
972.9403, 7058.655
973.4224, 7052.868
973.9045, 7058.938
974.3867, 7060.366
974.8688, 7046.139
975.3509, 7040.683
975.8330, 7050.320
976.3151, 7068.600
976.7972, 7081.518
977.2794, 7090.739
977.7615, 7107.727
978.2436, 7139.964
978.7257, 7165.466
979.2078, 7163.256
979.6899, 7148.225
980.1720, 7135.672
980.6541, 7127.551
981.1362, 7122.124
981.6183, 7121.321
982.1005, 7118.115
982.5826, 7099.764
983.0647, 7075.854
983.5468, 7081.019
984.0289, 7112.735
984.5110, 7134.721
984.9932, 7120.440
985.4753, 7098.240
985.9574, 7075.047
986.4395, 7055.467
986.9216, 7061.488
987.4037, 7099.496
987.8859, 7127.154
988.3680, 7129.561
988.8501, 7119.248
989.3322, 7107.520
989.8143, 7098.428
990.2964, 7100.827
990.7786, 7127.084
991.2607, 7147.038
991.7428, 7149.794
992.2249, 7146.731
992.7070, 7148.682
993.1891, 7156.342
993.6713, 7147.938
994.1534, 7121.715
994.6355, 7101.114
995.1176, 7112.919
995.5997, 7134.680
996.0818, 7144.212
996.5640, 7140.766
997.0461, 7136.043
997.5282, 7127.838
998.0103, 7125.758
998.4924, 7136.244
998.9745, 7151.984
999.4567, 7146.480
999.9388, 7125.967
1000.421, 7122.206
1000.903, 7160.469
1001.385, 7193.038
1001.867, 7180.408
1002.349, 7147.364
1002.831, 7126.986
1003.314, 7125.310
1003.796, 7122.762
1004.278, 7117.363
1004.760, 7116.584
1005.242, 7134.402
1005.724, 7159.572
1006.206, 7169.500
1006.688, 7162.967
1007.171, 7151.022
1007.653, 7125.631
1008.135, 7110.104
1008.617, 7114.724
1009.099, 7136.297
1009.581, 7168.927
1010.063, 7214.051
1010.545, 7228.568
1011.027, 7183.528
1011.510, 7129.038
1011.992, 7122.142
1012.474, 7144.310
1012.956, 7167.388
1013.438, 7189.554
1013.920, 7203.256
1014.402, 7204.283
1014.884, 7203.196
1015.367, 7217.819
1015.849, 7240.565
1016.331, 7217.899
1016.813, 7150.496
1017.295, 7104.332
1017.777, 7142.967
1018.259, 7199.147
1018.741, 7237.780
1019.223, 7257.418
1019.706, 7259.067
1020.188, 7237.028
1020.670, 7221.486
1021.152, 7225.071
1021.634, 7232.275
1022.116, 7207.070
1022.598, 7169.190
1023.080, 7159.948
1023.563, 7212.924
1024.045, 7247.735
1024.527, 7231.376
1025.009, 7202.626
1025.491, 7186.324
1025.973, 7182.252
1026.455, 7201.592
1026.937, 7244.071
1027.419, 7276.855
1027.901, 7267.394
1028.384, 7245.386
1028.866, 7230.545
1029.348, 7224.377
1029.830, 7230.178
1030.312, 7255.395
1030.794, 7274.636
1031.276, 7283.095
1031.758, 7282.635
1032.241, 7269.818
1032.723, 7251.511
1033.205, 7245.179
1033.687, 7257.928
1034.169, 7272.803
1034.651, 7291.712
1035.133, 7301.211
1035.615, 7287.505
1036.098, 7248.628
1036.580, 7231.751
1037.062, 7237.042
1037.544, 7251.311
1038.026, 7273.636
1038.508, 7294.491
1038.990, 7301.821
1039.472, 7299.410
1039.954, 7299.625
1040.437, 7307.923
1040.919, 7313.400
1041.401, 7313.597
1041.883, 7313.019
1042.365, 7321.348
1042.847, 7334.537
1043.329, 7337.787
1043.811, 7328.019
1044.293, 7319.042
1044.776, 7328.119
1045.258, 7331.741
1045.740, 7308.629
1046.222, 7261.955
1046.704, 7246.475
1047.186, 7264.849
1047.668, 7279.893
1048.150, 7267.296
1048.633, 7251.791
1049.115, 7269.586
1049.597, 7304.911
1050.079, 7328.578
1050.561, 7322.247
1051.043, 7320.357
1051.525, 7328.213
1052.007, 7333.952
1052.490, 7316.833
1052.972, 7287.255
1053.454, 7288.040
1053.936, 7320.426
1054.418, 7351.193
1054.900, 7358.596
1055.382, 7360.641
1055.864, 7366.320
1056.346, 7374.080
1056.828, 7378.634
1057.311, 7380.020
1057.793, 7374.694
1058.275, 7357.965
1058.757, 7343.914
1059.239, 7356.520
1059.721, 7378.150
1060.203, 7383.858
1060.685, 7358.272
1061.168, 7348.878
1061.650, 7366.252
1062.132, 7382.634
1062.614, 7377.583
1063.096, 7357.313
1063.578, 7336.517
1064.060, 7317.930
1064.542, 7313.585
1065.025, 7349.905
1065.507, 7378.450
1065.989, 7372.845
1066.471, 7351.228
1066.953, 7340.517
1067.435, 7341.550
1067.917, 7331.035
1068.399, 7303.346
1068.881, 7283.458
1069.364, 7307.157
1069.846, 7341.269
1070.328, 7348.310
1070.810, 7323.077
1071.292, 7319.548
1071.774, 7345.296
1072.256, 7377.706
1072.738, 7415.250
1073.220, 7445.141
1073.703, 7427.832
1074.185, 7382.001
1074.667, 7352.926
1075.149, 7367.775
1075.631, 7377.016
1076.113, 7356.341
1076.595, 7336.041
1077.077, 7346.301
1077.559, 7385.557
1078.042, 7391.713
1078.524, 7366.081
1079.006, 7342.247
1079.488, 7347.252
1079.970, 7357.929
1080.452, 7355.317
1080.934, 7346.029
1081.416, 7354.188
1081.899, 7386.119
1082.381, 7409.149
1082.863, 7417.500
1083.345, 7416.201
1083.827, 7401.407
1084.309, 7385.472
1084.791, 7387.916
1085.273, 7413.690
1085.755, 7435.048
1086.238, 7448.322
1086.720, 7454.481
1087.202, 7451.504
1087.684, 7443.254
1088.166, 7442.744
1088.648, 7447.492
1089.130, 7447.702
1089.612, 7435.938
1090.094, 7425.780
1090.577, 7420.892
1091.059, 7422.660
1091.541, 7436.764
1092.023, 7466.350
1092.505, 7464.177
1092.987, 7429.149
1093.469, 7405.153
1093.951, 7441.510
1094.434, 7486.551
1094.916, 7492.523
1095.398, 7469.618
1095.880, 7460.156
1096.362, 7470.989
1096.844, 7481.658
1097.326, 7490.264
1097.808, 7494.308
1098.291, 7484.342
1098.773, 7470.260
1099.255, 7470.810
1099.737, 7489.354
1100.219, 7504.888
1100.701, 7517.754
1101.183, 7517.614
1101.665, 7491.727
1102.147, 7456.333
1102.630, 7470.365
1103.112, 7520.547
1103.594, 7556.093
1104.076, 7551.080
1104.558, 7545.689
1105.040, 7570.116
1105.522, 7593.842
1106.004, 7588.173
1106.486, 7550.321
1106.969, 7523.674
1107.451, 7508.249
1107.933, 7502.218
1108.415, 7512.407
1108.897, 7524.455
1109.379, 7528.137
1109.861, 7524.389
1110.343, 7515.088
1110.826, 7496.950
1111.308, 7486.715
1111.790, 7487.495
1112.272, 7491.105
1112.754, 7489.303
1113.236, 7484.675
1113.718, 7480.028
1114.200, 7475.690
1114.682, 7473.775
1115.165, 7477.613
1115.647, 7477.123
1116.129, 7464.192
1116.611, 7452.401
1117.093, 7480.069
1117.575, 7530.925
1118.057, 7558.068
1118.539, 7544.014
1119.021, 7531.061
1119.504, 7551.677
1119.986, 7562.669
1120.468, 7529.909
1120.950, 7463.060
1121.432, 7450.372
1121.914, 7487.149
1122.396, 7532.832
1122.878, 7584.963
1123.361, 7618.058
1123.843, 7601.699
1124.325, 7564.172
1124.807, 7543.771
1125.289, 7543.154
1125.771, 7550.042
1126.253, 7564.939
1126.735, 7576.878
1127.218, 7571.880
1127.700, 7563.783
1128.182, 7560.832
1128.664, 7565.944
1129.146, 7592.297
1129.628, 7655.973
1130.110, 7692.466
1130.592, 7688.393
1131.074, 7667.045
1131.557, 7648.159
1132.039, 7635.416
1132.521, 7637.878
1133.003, 7656.546
1133.485, 7673.971
1133.967, 7698.461
1134.449, 7699.961
1134.931, 7658.864
1135.413, 7602.404
1135.896, 7597.271
1136.378, 7627.414
1136.860, 7650.516
1137.342, 7654.369
1137.824, 7653.878
1138.306, 7653.797
1138.788, 7650.992
1139.270, 7639.583
1139.752, 7623.021
1140.235, 7631.383
1140.717, 7659.788
1141.199, 7680.514
1141.681, 7677.049
1142.163, 7666.069
1142.645, 7651.772
1143.127, 7636.804
1143.609, 7621.120
1144.092, 7602.478
1144.574, 7617.368
1145.056, 7667.309
1145.538, 7704.218
1146.020, 7683.842
1146.502, 7646.874
1146.984, 7611.437
1147.466, 7587.109
1147.948, 7597.898
1148.431, 7656.068
1148.913, 7692.480
1149.395, 7698.013
1149.877, 7686.745
1150.359, 7654.769
1150.841, 7626.044
1151.323, 7633.251
1151.805, 7675.765
1152.287, 7697.727
1152.770, 7685.342
1153.252, 7684.958
1153.734, 7713.862
1154.216, 7746.794
1154.698, 7740.513
1155.180, 7714.372
1155.662, 7698.764
1156.144, 7701.136
1156.627, 7702.267
1157.109, 7697.726
1157.591, 7696.207
1158.073, 7701.574
1158.555, 7712.691
1159.037, 7736.551
1159.519, 7762.936
1160.001, 7764.347
1160.484, 7711.786
1160.966, 7678.784
1161.448, 7684.440
1161.930, 7706.054
1162.412, 7736.981
1162.894, 7771.270
1163.376, 7775.666
1163.858, 7755.802
1164.340, 7737.740
1164.823, 7733.324
1165.305, 7733.961
1165.787, 7742.784
1166.269, 7750.469
1166.751, 7744.099
1167.233, 7726.109
1167.715, 7720.022
1168.197, 7726.323
1168.679, 7733.248
1169.162, 7729.470
1169.644, 7728.788
1170.126, 7742.982
1170.608, 7762.135
1171.090, 7766.060
1171.572, 7755.242
1172.054, 7761.481
1172.536, 7790.062
1173.019, 7813.987
1173.501, 7809.621
1173.983, 7796.026
1174.465, 7780.649
1174.947, 7767.445
1175.429, 7771.749
1175.911, 7794.262
1176.393, 7818.296
1176.875, 7840.671
1177.358, 7858.670
1177.840, 7872.046
1178.322, 7877.999
1178.804, 7869.609
1179.286, 7847.569
1179.768, 7836.131
1180.250, 7836.334
1180.732, 7837.184
1181.214, 7833.475
1181.697, 7830.961
1182.179, 7841.835
1182.661, 7854.322
1183.143, 7848.606
1183.625, 7814.179
1184.107, 7813.507
1184.589, 7852.215
1185.071, 7888.807
1185.554, 7894.464
1186.036, 7892.857
1186.518, 7926.046
1187.000, 7969.399
1187.482, 7974.637
1187.964, 7906.691
1188.446, 7871.986
1188.928, 7876.810
1189.411, 7887.434
1189.893, 7872.145
1190.375, 7851.577
1190.857, 7861.284
1191.339, 7889.756
1191.821, 7902.796
1192.303, 7886.012
1192.785, 7870.378
1193.267, 7855.758
1193.750, 7849.669
1194.232, 7865.412
1194.714, 7890.950
1195.196, 7913.284
1195.678, 7929.748
1196.160, 7930.112
1196.642, 7897.754
1197.124, 7879.349
1197.606, 7882.915
1198.089, 7898.095
1198.571, 7922.259
1199.053, 7944.074
1199.535, 7936.631
1200.017, 7900.097
1200.499, 7885.428
1200.981, 7919.519
1201.463, 7940.417
1201.945, 7929.786
1202.428, 7907.436
1202.910, 7904.428
1203.392, 7911.269
1203.874, 7907.808
1204.356, 7888.824
1204.838, 7886.476
1205.320, 7912.291
1205.802, 7943.398
1206.285, 7976.687
1206.767, 8003.901
1207.249, 8001.964
1207.731, 7983.620
1208.213, 7974.631
1208.695, 7984.120
1209.177, 7987.474
1209.659, 7978.132
1210.141, 7968.043
1210.624, 7959.582
1211.106, 7957.194
1211.588, 7977.991
1212.070, 8011.207
1212.552, 8033.349
1213.034, 8033.366
1213.516, 8030.967
1213.998, 8026.738
1214.480, 8024.654
1214.963, 8028.824
1215.445, 8035.742
1215.927, 8037.210
1216.409, 8034.189
1216.891, 8028.720
1217.373, 8013.805
1217.855, 8013.281
1218.337, 8041.235
1218.820, 8058.888
1219.302, 8020.912
1219.784, 7956.062
1220.266, 7937.896
1220.748, 7956.354
1221.230, 7980.950
1221.712, 8004.868
1222.194, 8030.599
1222.677, 8065.282
1223.159, 8086.892
1223.641, 8060.913
1224.123, 8012.526
1224.605, 7996.003
1225.087, 8007.040
1225.569, 8022.111
1226.051, 8037.338
1226.533, 8051.482
1227.016, 8068.132
1227.498, 8075.274
1227.980, 8045.214
1228.462, 8003.042
1228.944, 8000.778
1229.426, 8034.857
1229.908, 8065.482
1230.390, 8092.117
1230.872, 8093.189
1231.355, 8056.418
1231.837, 8016.374
1232.319, 8019.184
1232.801, 8047.251
1233.283, 8076.237
1233.765, 8103.169
1234.247, 8121.583
1234.729, 8125.509
1235.212, 8130.576
1235.694, 8138.752
1236.176, 8151.245
1236.658, 8181.441
1237.140, 8210.542
1237.622, 8202.976
1238.104, 8156.190
1238.586, 8127.793
1239.068, 8129.420
1239.551, 8130.296
1240.033, 8120.985
1240.515, 8113.899
1240.997, 8132.420
1241.479, 8160.110
1241.961, 8174.255
1242.443, 8171.528
1242.925, 8169.551
1243.407, 8167.392
1243.890, 8174.139
1244.372, 8195.559
1244.854, 8218.339
1245.336, 8222.887
1245.818, 8218.945
1246.300, 8216.839
1246.782, 8217.639
1247.264, 8225.556
1247.747, 8244.054
1248.229, 8245.777
1248.711, 8212.611
1249.193, 8179.471
1249.675, 8196.897
1250.157, 8229.590
1250.639, 8229.660
1251.121, 8191.788
1251.604, 8189.017
1252.086, 8225.458
1252.568, 8255.159
1253.050, 8260.106
1253.532, 8251.079
1254.014, 8225.106
1254.496, 8199.009
1254.978, 8193.350
1255.460, 8208.240
1255.943, 8223.229
1256.425, 8238.080
1256.907, 8241.068
1257.389, 8216.529
1257.871, 8198.419
1258.353, 8224.881
1258.835, 8261.099
1259.317, 8271.978
1259.799, 8257.452
1260.281, 8242.581
1260.764, 8228.135
1261.246, 8222.931
1261.728, 8237.652
1262.210, 8252.199
1262.692, 8252.084
1263.174, 8251.018
1263.656, 8266.375
1264.138, 8294.335
1264.621, 8279.908
1265.103, 8231.208
1265.585, 8192.628
1266.067, 8183.572
1266.549, 8191.513
1267.031, 8225.041
1267.513, 8260.528
1267.995, 8280.031
1268.478, 8286.437
1268.960, 8292.800
1269.442, 8300.522
1269.924, 8315.813
1270.406, 8359.464
1270.888, 8381.759
1271.370, 8366.249
1271.852, 8344.467
1272.334, 8341.932
1272.817, 8352.707
1273.299, 8362.944
1273.781, 8371.891
1274.263, 8378.075
1274.745, 8381.041
1275.227, 8381.078
1275.709, 8378.425
1276.191, 8373.700
1276.673, 8364.648
1277.156, 8355.903
1277.638, 8358.662
1278.120, 8368.135
1278.602, 8370.103
1279.084, 8353.377
1279.566, 8350.894
1280.048, 8366.684
1280.530, 8382.570
1281.013, 8379.640
1281.495, 8372.615
1281.977, 8379.546
1282.459, 8395.061
1282.941, 8406.178
1283.423, 8412.329
1283.905, 8409.085
1284.387, 8394.829
1284.870, 8390.440
1285.352, 8428.250
1285.834, 8465.022
1286.316, 8462.110
1286.798, 8437.976
1287.280, 8427.796
1287.762, 8432.276
1288.244, 8439.631
1288.726, 8449.023
1289.208, 8456.032
1289.691, 8460.513
1290.173, 8458.740
1290.655, 8441.507
1291.137, 8422.740
1291.619, 8418.494
##END=



