##NAMES=Fillowite
##RRUFFID=R110143
##IDEAL CHEMISTRY=Na_2_CaMn^2+^_7_(PO_4_)_6_
##LOCALITY=Gottcha claim, Cross Lake, Manitoba, Canada
##OWNER=RRUFF
##SOURCE=Donald M Doell 
##DESCRIPTION=Reddish-brown, greasy, massive
##STATUS=The identification of this mineral has been confirmed by single-crystal X-ray diffraction.
##URL=rruff.info/R110143
176.4561, 204.3588
176.9382, 203.7988
177.4203, 203.4225
177.9024, 203.0634
178.3845, 202.9844
178.8666, 203.5247
179.3488, 204.6198
179.8309, 205.8084
180.3130, 206.4344
180.7951, 206.1735
181.2772, 206.0369
181.7593, 205.8125
182.2415, 205.8216
182.7236, 206.4901
183.2057, 207.8573
183.6878, 209.3743
184.1699, 210.1740
184.6520, 209.6229
185.1342, 209.6045
185.6163, 210.8448
186.0984, 212.3403
186.5805, 212.9076
187.0626, 212.1636
187.5447, 210.8370
188.0269, 210.1101
188.5090, 210.0295
188.9911, 210.1620
189.4732, 210.5347
189.9553, 211.0438
190.4374, 211.5150
190.9196, 211.9094
191.4017, 212.2311
191.8838, 212.5121
192.3659, 212.7667
192.8480, 212.8993
193.3301, 212.6673
193.8123, 212.2267
194.2944, 212.3071
194.7765, 213.7197
195.2586, 214.8822
195.7407, 213.8289
196.2228, 210.5182
196.7050, 207.5506
197.1871, 207.2164
197.6692, 209.3796
198.1513, 210.9264
198.6334, 210.6284
199.1155, 210.0487
199.5977, 210.2064
200.0798, 211.1657
200.5619, 212.4703
201.0440, 213.8503
201.5261, 215.3996
202.0082, 216.4431
202.4904, 216.3918
202.9725, 216.1623
203.4546, 216.1696
203.9367, 216.4751
204.4188, 216.9217
204.9009, 217.3847
205.3831, 217.9871
205.8652, 218.2005
206.3473, 217.7665
206.8294, 217.1602
207.3115, 216.5317
207.7936, 215.9634
208.2758, 215.5793
208.7579, 215.6714
209.2400, 216.9065
209.7221, 217.0738
210.2042, 215.4133
210.6863, 213.4158
211.1685, 212.0182
211.6506, 211.4314
212.1327, 211.3347
212.6148, 211.3002
213.0969, 211.4941
213.5790, 211.3555
214.0612, 210.6897
214.5433, 209.8415
215.0254, 209.0268
215.5075, 208.3145
215.9896, 207.7139
216.4717, 207.2901
216.9539, 207.2954
217.4360, 206.7897
217.9181, 205.1432
218.4002, 203.2829
218.8823, 202.1980
219.3644, 202.1350
219.8466, 202.4609
220.3287, 202.3967
220.8108, 201.9448
221.2929, 201.1003
221.7750, 199.2963
222.2571, 197.3117
222.7393, 196.2172
223.2214, 196.3096
223.7035, 196.8465
224.1856, 196.9437
224.6677, 196.6408
225.1498, 196.3701
225.6320, 196.2425
226.1141, 196.2148
226.5962, 196.2044
227.0783, 196.1810
227.5604, 196.2294
228.0425, 196.5336
228.5247, 197.0208
229.0068, 197.3748
229.4889, 197.2504
229.9710, 196.9243
230.4531, 197.1072
230.9352, 198.1084
231.4174, 199.1091
231.8995, 199.3767
232.3816, 199.1329
232.8637, 198.9642
233.3458, 198.9604
233.8279, 199.2286
234.3101, 200.2791
234.7922, 202.7133
235.2743, 204.9057
235.7564, 205.8120
236.2385, 205.8433
236.7206, 205.8159
237.2028, 206.1970
237.6849, 206.8843
238.1670, 207.4431
238.6491, 207.7992
239.1312, 208.1281
239.6133, 208.5965
240.0955, 209.0852
240.5776, 209.3412
241.0597, 209.0471
241.5418, 208.4440
242.0239, 208.7785
242.5060, 210.9336
242.9882, 212.8529
243.4703, 214.2999
243.9524, 215.0893
244.4345, 214.8030
244.9166, 212.9879
245.3987, 210.1578
245.8809, 208.8516
246.3630, 210.7007
246.8451, 212.0358
247.3272, 212.1249
247.8093, 211.2938
248.2914, 209.8820
248.7736, 208.0295
249.2557, 205.9010
249.7378, 204.1938
250.2199, 203.3225
250.7020, 202.3811
251.1841, 201.0337
251.6663, 199.6295
252.1484, 198.7259
252.6305, 198.6015
253.1126, 198.8728
253.5947, 198.3050
254.0768, 195.8314
254.5590, 193.7594
255.0411, 192.4175
255.5232, 191.4692
256.0053, 190.4617
256.4874, 189.2116
256.9695, 187.9670
257.4517, 187.3311
257.9338, 188.3439
258.4159, 188.7289
258.8980, 188.0055
259.3801, 186.8483
259.8622, 185.9253
260.3444, 185.4704
260.8265, 185.3283
261.3086, 185.2254
261.7907, 185.3959
262.2728, 185.1916
262.7549, 184.2294
263.2371, 183.0685
263.7192, 182.3638
264.2013, 182.2728
264.6834, 182.3115
265.1655, 181.7406
265.6476, 180.2254
266.1298, 178.8649
266.6119, 177.4886
267.0940, 176.3753
267.5761, 176.0167
268.0582, 176.4660
268.5403, 176.9382
269.0225, 176.4200
269.5046, 174.5625
269.9867, 173.3274
270.4688, 173.4699
270.9509, 173.8122
271.4330, 173.2468
271.9152, 171.6727
272.3973, 169.8545
272.8794, 168.4237
273.3615, 167.4328
273.8436, 166.8728
274.3257, 167.0186
274.8079, 167.3969
275.2900, 167.7732
275.7721, 168.1026
276.2542, 168.1365
276.7363, 167.5488
277.2184, 166.4404
277.7006, 165.7538
278.1827, 165.9613
278.6648, 166.2212
279.1469, 165.9863
279.6290, 165.2741
280.1111, 164.2700
280.5933, 162.9301
281.0754, 161.4266
281.5575, 160.3003
282.0396, 159.6840
282.5217, 159.2773
283.0038, 158.9089
283.4860, 158.5936
283.9681, 158.4277
284.4502, 158.5391
284.9323, 158.7559
285.4144, 158.7246
285.8965, 158.3903
286.3787, 157.9625
286.8608, 157.4394
287.3429, 156.8899
287.8250, 156.6023
288.3071, 156.7948
288.7892, 157.1205
289.2714, 157.0933
289.7535, 156.7068
290.2356, 156.1514
290.7177, 155.1817
291.1998, 154.0962
291.6819, 153.8151
292.1641, 154.8401
292.6462, 156.1274
293.1283, 156.5512
293.6104, 156.2083
294.0925, 155.5816
294.5746, 154.7700
295.0568, 153.8181
295.5389, 152.6915
296.0210, 151.2267
296.5031, 150.0707
296.9852, 150.0144
297.4673, 150.7374
297.9495, 151.4594
298.4316, 152.1535
298.9137, 152.6160
299.3958, 152.4053
299.8779, 151.3820
300.3600, 150.3205
300.8422, 149.6442
301.3243, 149.2978
301.8064, 149.2800
302.2885, 149.8763
302.7706, 150.5244
303.2527, 150.4718
303.7349, 149.6640
304.2170, 148.9387
304.6991, 148.7963
305.1812, 148.9173
305.6633, 148.8768
306.1454, 148.6084
306.6276, 148.2149
307.1097, 147.6368
307.5918, 146.9034
308.0739, 146.5632
308.5560, 147.1124
309.0381, 147.8625
309.5203, 148.0101
310.0024, 147.4910
310.4845, 146.8375
310.9666, 146.3780
311.4487, 146.0815
311.9308, 145.8283
312.4130, 145.6833
312.8951, 145.4391
313.3772, 144.8350
313.8593, 143.9286
314.3414, 143.1217
314.8235, 142.4270
315.3057, 141.9829
315.7878, 142.2991
316.2699, 143.7454
316.7520, 145.1601
317.2341, 145.6127
317.7162, 145.3953
318.1984, 145.0746
318.6805, 144.8602
319.1626, 144.6551
319.6447, 144.0998
320.1268, 143.0060
320.6089, 142.5286
321.0911, 144.4375
321.5732, 147.0636
322.0553, 147.8954
322.5374, 145.7169
323.0195, 142.7951
323.5016, 141.5070
323.9838, 141.8552
324.4659, 142.3452
324.9480, 142.5238
325.4301, 142.4790
325.9122, 142.2422
326.3943, 141.7367
326.8765, 141.4473
327.3586, 141.9699
327.8407, 143.1159
328.3228, 143.8095
328.8049, 143.7097
329.2870, 143.1920
329.7692, 142.5256
330.2513, 141.7372
330.7334, 141.1931
331.2155, 141.2537
331.6976, 141.6707
332.1797, 141.8915
332.6619, 141.8681
333.1440, 141.6197
333.6261, 140.9041
334.1082, 139.9497
334.5903, 139.3363
335.0724, 139.4145
335.5546, 139.8424
336.0367, 140.3698
336.5188, 141.0480
337.0009, 141.2074
337.4830, 139.9882
337.9651, 138.1284
338.4473, 137.0581
338.9294, 137.2721
339.4115, 137.7589
339.8936, 137.6986
340.3757, 137.1653
340.8578, 136.7361
341.3400, 136.6985
341.8221, 136.7866
342.3042, 136.5302
342.7863, 135.8367
343.2684, 135.3140
343.7505, 135.5421
344.2327, 136.1512
344.7148, 136.1246
345.1969, 135.0547
345.6790, 133.8357
346.1611, 133.5607
346.6432, 134.0814
347.1254, 134.7376
347.6075, 135.7835
348.0896, 136.6677
348.5717, 136.4966
349.0538, 135.1601
349.5359, 133.7457
350.0181, 133.0828
350.5002, 133.0213
350.9823, 132.7760
351.4644, 131.8815
351.9465, 131.1581
352.4286, 131.4687
352.9108, 132.5589
353.3929, 133.1416
353.8750, 132.4141
354.3571, 130.9709
354.8392, 130.3004
355.3214, 130.5731
355.8035, 131.0738
356.2856, 132.0492
356.7677, 132.9925
357.2498, 132.6970
357.7319, 130.6425
358.2141, 128.2647
358.6962, 127.6285
359.1783, 129.0063
359.6604, 130.3458
360.1425, 131.9175
360.6246, 133.0504
361.1068, 132.7460
361.5889, 131.0370
362.0710, 129.3663
362.5531, 128.9963
363.0352, 129.9191
363.5173, 130.4118
363.9995, 130.2787
364.4816, 129.9598
364.9637, 129.5202
365.4458, 129.0520
365.9279, 128.7066
366.4100, 128.5299
366.8922, 128.6054
367.3743, 129.2609
367.8564, 131.5019
368.3385, 132.8698
368.8206, 132.4599
369.3027, 131.2661
369.7849, 130.4719
370.2670, 130.3985
370.7491, 130.4710
371.2312, 129.8496
371.7133, 128.1439
372.1954, 126.9478
372.6776, 126.3583
373.1597, 126.1504
373.6418, 126.4679
374.1239, 127.1126
374.6060, 127.4542
375.0881, 126.9157
375.5703, 125.5416
376.0524, 124.8344
376.5345, 125.3916
377.0166, 125.9099
377.4987, 126.0953
377.9808, 126.0630
378.4630, 125.9862
378.9451, 125.9440
379.4272, 125.9437
379.9093, 126.0320
380.3914, 126.5086
380.8735, 126.5401
381.3557, 125.8635
381.8378, 124.9510
382.3199, 123.9771
382.8020, 123.0592
383.2841, 122.4445
383.7662, 122.4346
384.2484, 123.0905
384.7305, 123.9247
385.2126, 125.6686
385.6947, 126.8744
386.1768, 126.6857
386.6589, 125.6174
387.1411, 124.7082
387.6232, 124.5851
388.1053, 125.0652
388.5874, 125.5442
389.0695, 126.1903
389.5516, 126.4914
390.0338, 126.0686
390.5159, 125.4455
390.9980, 125.0850
391.4801, 125.1163
391.9622, 125.3771
392.4443, 125.6436
392.9265, 125.8889
393.4086, 126.3995
393.8907, 127.3730
394.3728, 128.4869
394.8549, 129.6291
395.3370, 130.7624
395.8192, 131.7862
396.3013, 132.5737
396.7834, 133.2059
397.2655, 133.9076
397.7476, 134.6218
398.2297, 135.5530
398.7119, 137.3244
399.1940, 139.2236
399.6761, 140.1411
400.1582, 139.4114
400.6403, 138.4991
401.1224, 139.0044
401.6046, 140.8517
402.0867, 142.7151
402.5688, 144.3130
403.0509, 145.6245
403.5330, 146.3752
404.0151, 146.5254
404.4973, 147.4230
404.9794, 150.4829
405.4615, 154.4406
405.9436, 156.9402
406.4257, 157.5695
406.9078, 157.8014
407.3900, 158.7610
407.8721, 160.3328
408.3542, 161.8329
408.8363, 162.9816
409.3184, 164.2547
409.8005, 166.0316
410.2827, 168.2031
410.7648, 170.3738
411.2469, 172.3789
411.7290, 174.2642
412.2111, 176.1268
412.6932, 178.0118
413.1754, 179.7663
413.6575, 181.2715
414.1396, 182.6791
414.6217, 184.2641
415.1038, 186.0295
415.5859, 187.5666
416.0681, 188.4117
416.5502, 188.4728
417.0323, 188.8330
417.5144, 189.5981
417.9965, 190.4949
418.4786, 191.3912
418.9608, 192.3390
419.4429, 193.5329
419.9250, 195.0909
420.4071, 196.7906
420.8892, 198.0330
421.3713, 198.8672
421.8535, 199.0776
422.3356, 198.1272
422.8177, 196.9735
423.2998, 196.2966
423.7819, 196.2087
424.2640, 196.5122
424.7462, 197.1898
425.2283, 198.3437
425.7104, 198.3561
426.1925, 195.6311
426.6746, 193.4655
427.1567, 193.2589
427.6389, 194.1163
428.1210, 194.6062
428.6031, 194.0207
429.0852, 192.8284
429.5673, 191.9645
430.0494, 191.5141
430.5316, 191.0789
431.0137, 190.6373
431.4958, 190.1369
431.9779, 189.5434
432.4600, 188.8538
432.9421, 188.0888
433.4243, 187.0884
433.9064, 185.9885
434.3885, 185.3950
434.8706, 185.4260
435.3527, 185.7527
435.8348, 186.6972
436.3170, 187.7132
436.7991, 187.7628
437.2812, 186.2338
437.7633, 184.1640
438.2454, 182.2511
438.7275, 180.5403
439.2097, 179.4657
439.6918, 179.3430
440.1739, 179.6865
440.6560, 179.8531
441.1381, 179.8692
441.6202, 179.6478
442.1024, 178.8042
442.5845, 177.9069
443.0666, 177.7023
443.5487, 178.2226
444.0308, 178.8630
444.5129, 179.1814
444.9951, 179.2124
445.4772, 179.3232
445.9593, 179.7403
446.4414, 179.9648
446.9235, 179.8583
447.4056, 179.4607
447.8878, 178.7306
448.3699, 177.6661
448.8520, 176.5646
449.3341, 175.8819
449.8162, 175.7540
450.2983, 175.6989
450.7805, 175.9002
451.2626, 175.9962
451.7447, 175.7579
452.2268, 175.2496
452.7089, 174.6458
453.1910, 174.0403
453.6732, 173.4804
454.1553, 173.1875
454.6374, 173.3245
455.1195, 173.4622
455.6016, 173.5806
456.0837, 173.6396
456.5659, 173.6131
457.0480, 173.4932
457.5301, 173.2728
458.0122, 172.8950
458.4943, 172.3631
458.9764, 171.9571
459.4586, 171.8388
459.9407, 171.6109
460.4228, 170.7432
460.9049, 169.6875
461.3870, 169.3665
461.8691, 170.4999
462.3513, 171.8365
462.8334, 171.5385
463.3155, 169.6880
463.7976, 168.4783
464.2797, 168.8040
464.7618, 169.8143
465.2440, 170.4452
465.7261, 170.6972
466.2082, 170.9384
466.6903, 171.2634
467.1724, 171.6613
467.6545, 172.1706
468.1367, 172.7795
468.6188, 173.3086
469.1009, 173.5972
469.5830, 173.7150
470.0651, 174.0256
470.5472, 175.0083
471.0294, 175.5555
471.5115, 174.7427
471.9936, 173.6061
472.4757, 173.5781
472.9578, 174.9822
473.4399, 176.9553
473.9221, 178.5501
474.4042, 179.8259
474.8863, 180.3205
475.3684, 178.9924
475.8505, 178.0816
476.3326, 178.8261
476.8148, 180.4732
477.2969, 181.7186
477.7790, 181.9229
478.2611, 181.4417
478.7432, 181.0266
479.2253, 180.8123
479.7075, 180.2819
480.1896, 178.9129
480.6717, 177.6025
481.1538, 176.8607
481.6359, 176.6522
482.1180, 176.6368
482.6002, 176.7003
483.0823, 176.7559
483.5644, 176.5564
484.0465, 176.0888
484.5286, 175.4147
485.0107, 174.5808
485.4929, 173.5285
485.9750, 172.1324
486.4571, 170.3363
486.9392, 168.4623
487.4213, 166.5447
487.9034, 164.7102
488.3856, 163.3623
488.8677, 162.6129
489.3498, 161.8810
489.8319, 160.6588
490.3140, 158.9632
490.7961, 157.3517
491.2783, 155.5933
491.7604, 154.1465
492.2425, 153.5041
492.7246, 153.2617
493.2067, 152.6391
493.6888, 151.3656
494.1710, 149.7746
494.6531, 148.3912
495.1352, 147.2975
495.6173, 146.1621
496.0994, 144.8461
496.5815, 143.6284
497.0637, 142.8530
497.5458, 142.2717
498.0279, 141.3602
498.5100, 139.8113
498.9921, 137.8055
499.4742, 135.6114
499.9564, 132.7699
500.4385, 130.9452
500.9206, 131.5307
501.4027, 132.2661
501.8848, 131.5354
502.3669, 129.5053
502.8491, 127.6960
503.3312, 127.5117
503.8133, 128.2212
504.2954, 127.7419
504.7775, 125.8593
505.2596, 123.7993
505.7418, 121.9496
506.2239, 120.3586
506.7060, 119.1107
507.1881, 118.2881
507.6702, 117.4975
508.1523, 116.5264
508.6345, 115.4651
509.1166, 114.3909
509.5987, 113.3106
510.0808, 112.4738
510.5629, 112.1425
511.0450, 112.2691
511.5272, 112.2346
512.0093, 112.1605
512.4914, 111.8071
512.9735, 110.8394
513.4556, 109.6598
513.9377, 108.7390
514.4199, 108.2240
514.9020, 108.0455
515.3841, 108.1813
515.8662, 108.7135
516.3483, 108.9936
516.8304, 108.9676
517.3126, 108.7321
517.7947, 108.0647
518.2768, 107.2763
518.7589, 106.8186
519.2410, 106.8775
519.7231, 107.2058
520.2053, 107.6193
520.6874, 108.1643
521.1695, 107.9809
521.6516, 106.1359
522.1337, 104.6067
522.6158, 105.1005
523.0980, 106.9656
523.5801, 108.3236
524.0622, 108.2263
524.5443, 107.6225
525.0264, 107.4727
525.5085, 107.7046
525.9907, 107.8679
526.4728, 107.7539
526.9549, 107.6274
527.4370, 107.9631
527.9191, 108.8812
528.4012, 109.4876
528.8834, 109.2712
529.3655, 109.0799
529.8476, 109.5900
530.3297, 110.6389
530.8118, 111.6604
531.2939, 112.3497
531.7761, 112.8307
532.2582, 113.3989
532.7403, 113.9338
533.2224, 114.7972
533.7045, 116.2595
534.1866, 117.7684
534.6688, 118.9800
535.1509, 119.9429
535.6330, 120.8591
536.1151, 121.7611
536.5972, 122.8366
537.0793, 124.7195
537.5615, 127.6088
538.0436, 130.4493
538.5257, 132.9152
539.0078, 135.2030
539.4899, 137.4818
539.9720, 139.7591
540.4542, 141.9474
540.9363, 144.2579
541.4184, 146.3222
541.9005, 147.4450
542.3826, 147.6515
542.8647, 147.7931
543.3469, 148.2993
543.8290, 149.0406
544.3111, 149.7278
544.7932, 150.5152
545.2753, 150.9073
545.7574, 150.5280
546.2396, 149.9437
546.7217, 149.7405
547.2038, 149.8453
547.6859, 149.6646
548.1680, 148.7146
548.6501, 147.2725
549.1323, 146.5825
549.6144, 146.9729
550.0965, 147.5926
550.5786, 148.5871
551.0607, 149.5608
551.5428, 150.2281
552.0250, 150.5789
552.5071, 150.7679
552.9892, 150.8580
553.4713, 150.8872
553.9534, 151.0097
554.4355, 151.2755
554.9177, 151.3656
555.3998, 151.0203
555.8819, 150.5264
556.3640, 150.2898
556.8461, 150.3478
557.3282, 150.3977
557.8104, 150.2043
558.2925, 150.0091
558.7746, 150.2315
559.2567, 150.8180
559.7388, 151.1993
560.2209, 151.0273
560.7031, 150.4192
561.1852, 149.7472
561.6673, 148.6533
562.1494, 148.0112
562.6315, 148.0471
563.1136, 148.3703
563.5958, 148.8123
564.0779, 149.2892
564.5600, 149.6365
565.0421, 149.6805
565.5242, 149.6132
566.0063, 150.1636
566.4885, 151.6058
566.9706, 152.8537
567.4527, 153.5387
567.9348, 154.0167
568.4169, 154.5256
568.8990, 155.0584
569.3812, 155.4747
569.8633, 155.6363
570.3454, 155.6684
570.8275, 155.7156
571.3096, 155.7842
571.7917, 155.9158
572.2739, 156.0991
572.7560, 156.4029
573.2381, 156.9179
573.7202, 157.5673
574.2023, 158.7090
574.6844, 160.7646
575.1666, 162.9937
575.6487, 164.8746
576.1308, 166.5007
576.6129, 168.2738
577.0950, 170.4270
577.5771, 172.6674
578.0593, 174.3314
578.5414, 175.2302
579.0235, 176.0633
579.5056, 176.6139
579.9877, 177.3386
580.4698, 178.5652
580.9520, 180.1225
581.4341, 181.6427
581.9162, 183.0108
582.3983, 184.1644
582.8804, 184.9717
583.3625, 185.4561
583.8447, 185.8531
584.3268, 186.2592
584.8089, 186.4857
585.2910, 186.0055
585.7731, 184.9662
586.2552, 184.9604
586.7374, 187.4705
587.2195, 189.6409
587.7016, 189.8765
588.1837, 188.7909
588.6658, 187.3751
589.1479, 185.9569
589.6301, 184.5385
590.1122, 183.1562
590.5943, 181.8567
591.0764, 180.1253
591.5585, 177.3558
592.0406, 174.8503
592.5228, 173.2938
593.0049, 171.9817
593.4870, 169.9107
593.9691, 166.8442
594.4512, 163.8872
594.9333, 162.3081
595.4155, 161.7523
595.8976, 160.5925
596.3797, 158.5861
596.8618, 156.6719
597.3439, 155.3783
597.8260, 154.5823
598.3082, 153.9535
598.7903, 153.6183
599.2724, 153.1336
599.7545, 152.0579
600.2366, 150.9470
600.7188, 150.5277
601.2009, 150.7466
601.6830, 150.9352
602.1651, 150.6340
602.6472, 149.9759
603.1293, 149.4281
603.6115, 148.8591
604.0936, 148.6620
604.5757, 149.1262
605.0578, 149.6938
605.5399, 150.0658
606.0220, 150.2387
606.5042, 150.3252
606.9863, 150.3837
607.4684, 150.3937
607.9505, 150.2748
608.4326, 150.0328
608.9147, 149.8824
609.3969, 149.8347
609.8790, 149.9865
610.3611, 150.7405
610.8432, 152.0029
611.3253, 152.3653
611.8074, 150.7149
612.2896, 149.1383
612.7717, 149.1259
613.2538, 149.8200
613.7359, 149.5262
614.2180, 147.8120
614.7001, 145.9508
615.1823, 145.5236
615.6644, 146.6237
616.1465, 147.2390
616.6286, 147.6213
617.1107, 147.0973
617.5928, 144.5686
618.0750, 141.6516
618.5571, 140.2381
619.0392, 140.6292
619.5213, 141.0565
620.0034, 139.8248
620.4855, 137.7640
620.9677, 136.8871
621.4498, 137.3169
621.9319, 137.7103
622.4140, 137.4685
622.8961, 136.7277
623.3782, 135.6886
623.8604, 134.2218
624.3425, 132.9101
624.8246, 132.0569
625.3067, 131.1759
625.7888, 129.6133
626.2709, 127.7695
626.7531, 126.8129
627.2352, 127.3512
627.7173, 128.2598
628.1994, 127.2245
628.6815, 123.7056
629.1636, 121.2404
629.6458, 120.5731
630.1279, 120.2996
630.6100, 120.0670
631.0921, 119.6212
631.5742, 118.3875
632.0563, 115.9394
632.5385, 113.5520
633.0206, 112.1660
633.5027, 111.4879
633.9848, 111.1346
634.4669, 111.0257
634.9490, 110.5098
635.4312, 108.9895
635.9133, 106.7530
636.3954, 105.1495
636.8775, 104.4443
637.3596, 104.0747
637.8417, 104.2898
638.3239, 104.6223
638.8060, 104.7353
639.2881, 104.6586
639.7702, 104.6417
640.2523, 104.8838
640.7344, 105.1388
641.2166, 104.9051
641.6987, 104.1651
642.1808, 103.3070
642.6629, 102.4007
643.1450, 101.3934
643.6271, 99.98691
644.1093, 98.37840
644.5914, 97.39806
645.0735, 97.63215
645.5556, 97.97942
646.0377, 97.95837
646.5198, 97.72498
647.0020, 97.49137
647.4841, 97.30141
647.9662, 97.12280
648.4483, 96.97790
648.9304, 96.79550
649.4125, 95.95108
649.8947, 93.72207
650.3768, 92.21471
650.8589, 92.24358
651.3410, 92.72217
651.8231, 93.09225
652.3052, 93.25202
652.7874, 93.09203
653.2695, 92.34212
653.7516, 91.45112
654.2337, 91.04091
654.7158, 91.00161
655.1979, 90.77425
655.6801, 90.16094
656.1622, 89.54375
656.6443, 89.31817
657.1264, 89.49227
657.6085, 89.94508
658.0906, 91.22895
658.5728, 92.06368
659.0549, 92.02399
659.5370, 91.46709
660.0191, 90.58729
660.5012, 89.53122
660.9833, 88.66512
661.4655, 88.29968
661.9476, 88.34230
662.4297, 88.58781
662.9118, 89.07629
663.3939, 89.44128
663.8760, 89.51940
664.3582, 89.48653
664.8403, 89.54542
665.3224, 89.68783
665.8045, 89.81898
666.2866, 89.77894
666.7687, 89.87517
667.2509, 90.51511
667.7330, 91.32793
668.2151, 91.67431
668.6972, 91.40702
669.1793, 90.87998
669.6614, 90.40468
670.1436, 89.99703
670.6257, 89.90817
671.1078, 90.34102
671.5899, 90.67215
672.0720, 90.75743
672.5541, 90.65249
673.0363, 90.29549
673.5184, 89.72549
674.0005, 89.28062
674.4826, 89.23302
674.9647, 89.26840
675.4468, 89.00815
675.9290, 88.56533
676.4111, 88.28185
676.8932, 88.26381
677.3753, 88.43749
677.8574, 88.75761
678.3395, 89.23901
678.8217, 89.48448
679.3038, 89.36701
679.7859, 89.16336
680.2680, 88.90705
680.7501, 88.59550
681.2322, 88.12364
681.7144, 87.54720
682.1965, 87.18850
682.6786, 87.36759
683.1607, 87.82055
683.6428, 88.13246
684.1249, 88.31775
684.6071, 88.51707
685.0892, 88.80498
685.5713, 88.99149
686.0534, 88.78852
686.5355, 88.15439
687.0176, 87.90976
687.4998, 88.17172
687.9819, 88.63296
688.4640, 89.52800
688.9461, 90.38921
689.4282, 90.73579
689.9103, 90.53172
690.3925, 90.07497
690.8746, 89.54171
691.3567, 88.96294
691.8388, 88.30717
692.3209, 87.55427
692.8030, 87.32681
693.2852, 88.01771
693.7673, 88.85667
694.2494, 88.99726
694.7315, 88.48991
695.2136, 88.19643
695.6957, 88.46781
696.1779, 88.56943
696.6600, 88.09976
697.1421, 87.41813
697.6242, 86.76060
698.1063, 86.27343
698.5884, 86.32251
699.0706, 87.34978
699.5527, 88.82778
700.0348, 89.07852
700.5169, 87.85132
700.9990, 87.01592
701.4811, 87.07387
701.9633, 87.41868
702.4454, 87.72285
702.9275, 87.91748
703.4096, 87.71078
703.8917, 86.63710
704.3738, 85.74460
704.8560, 85.57365
705.3381, 85.75566
705.8202, 85.87837
706.3023, 85.88865
706.7844, 85.91051
707.2665, 86.02687
707.7487, 86.21917
708.2308, 86.39016
708.7129, 86.46577
709.1950, 86.92580
709.6771, 88.35783
710.1592, 89.47295
710.6414, 89.14649
711.1235, 87.96980
711.6056, 87.21974
712.0877, 87.31230
712.5698, 87.35844
713.0519, 86.52941
713.5341, 85.66545
714.0162, 86.11074
714.4983, 87.61418
714.9804, 88.57981
715.4625, 88.05445
715.9446, 86.80099
716.4268, 86.51968
716.9089, 87.51934
717.3910, 88.08981
717.8731, 87.94930
718.3552, 87.69425
718.8373, 87.55085
719.3195, 87.49291
719.8016, 87.55150
720.2837, 87.79356
720.7658, 87.77647
721.2479, 86.86443
721.7300, 85.88810
722.2122, 85.96240
722.6943, 86.82253
723.1764, 87.34016
723.6585, 87.02010
724.1406, 86.35011
724.6227, 86.02874
725.1049, 86.05390
725.5870, 86.50630
726.0691, 88.04571
726.5512, 88.92685
727.0333, 87.87983
727.5154, 86.32669
727.9976, 85.70012
728.4797, 86.11439
728.9618, 86.70203
729.4439, 87.09225
729.9260, 87.50733
730.4081, 88.33205
730.8903, 89.31682
731.3724, 89.93050
731.8545, 90.00500
732.3366, 89.46521
732.8187, 88.03548
733.3008, 85.88426
733.7830, 85.10592
734.2651, 86.39256
734.7472, 87.56083
735.2293, 88.31713
735.7114, 88.63257
736.1935, 88.19572
736.6757, 87.22147
737.1578, 86.63888
737.6399, 87.04862
738.1220, 87.51474
738.6041, 87.26286
739.0862, 86.72073
739.5684, 86.56089
740.0505, 86.87290
740.5326, 87.47163
741.0147, 88.29934
741.4968, 89.09817
741.9789, 88.92826
742.4611, 87.34100
742.9432, 86.47635
743.4253, 87.09664
743.9074, 87.76719
744.3895, 87.58359
744.8716, 86.91104
745.3538, 86.40011
745.8359, 86.14904
746.3180, 86.06866
746.8001, 86.22738
747.2822, 86.45937
747.7643, 86.55785
748.2465, 86.57072
748.7286, 86.77319
749.2107, 87.29051
749.6928, 87.73852
750.1749, 87.39600
750.6570, 86.19688
751.1392, 85.67226
751.6213, 86.15860
752.1034, 86.53539
752.5855, 86.17638
753.0676, 85.61097
753.5497, 85.53660
754.0319, 85.97745
754.5140, 86.28981
754.9961, 86.27908
755.4782, 86.13931
755.9603, 85.78164
756.4424, 85.45406
756.9246, 85.69624
757.4067, 86.50838
757.8888, 87.08639
758.3709, 86.57647
758.8530, 85.49000
759.3351, 85.81731
759.8173, 87.81152
760.2994, 88.96773
760.7815, 88.39573
761.2636, 87.51356
761.7457, 87.63174
762.2278, 88.48216
762.7100, 88.73991
763.1921, 88.13222
763.6742, 87.31430
764.1563, 85.88353
764.6384, 84.75454
765.1205, 84.89758
765.6027, 85.98971
766.0848, 87.10467
766.5669, 87.83250
767.0490, 88.17781
767.5311, 87.95750
768.0132, 87.30912
768.4954, 87.02708
768.9775, 87.18945
769.4596, 87.47275
769.9417, 87.78880
770.4238, 88.04067
770.9059, 88.03667
771.3881, 87.69108
771.8702, 87.42400
772.3523, 87.12602
772.8344, 87.02994
773.3165, 87.64835
773.7986, 88.25603
774.2808, 87.78145
774.7629, 86.26464
775.2450, 85.07109
775.7271, 85.42764
776.2092, 86.32144
776.6913, 85.96819
777.1735, 84.77837
777.6556, 84.64000
778.1377, 86.02202
778.6198, 87.55114
779.1019, 88.08614
779.5840, 87.75733
780.0662, 87.16604
780.5483, 85.83650
781.0304, 85.15604
781.5125, 85.48821
781.9946, 86.19267
782.4767, 87.36591
782.9589, 88.59209
783.4410, 89.06310
783.9231, 88.46956
784.4052, 87.71236
784.8873, 87.29284
785.3694, 87.03264
785.8516, 86.78151
786.3337, 86.49668
786.8158, 85.95040
787.2979, 85.06264
787.7800, 84.47535
788.2621, 85.22781
788.7443, 87.24728
789.2264, 88.26817
789.7085, 88.02849
790.1906, 87.47482
790.6727, 86.37276
791.1548, 85.55531
791.6370, 86.32067
792.1191, 88.33910
792.6012, 89.20896
793.0833, 87.19328
793.5654, 85.70386
794.0475, 86.53079
794.5297, 88.15782
795.0118, 89.30199
795.4939, 89.73695
795.9760, 89.42436
796.4581, 88.25292
796.9402, 86.92773
797.4224, 86.59840
797.9045, 87.11491
798.3866, 87.53676
798.8687, 87.80276
799.3508, 87.77000
799.8329, 87.21893
800.3151, 86.55197
800.7972, 86.52974
801.2793, 87.29941
801.7614, 88.14750
802.2435, 89.57081
802.7256, 90.46257
803.2078, 89.85193
803.6899, 88.97354
804.1720, 89.49728
804.6541, 91.28718
805.1362, 92.23318
805.6183, 90.51255
806.1005, 88.26038
806.5826, 87.74281
807.0647, 88.38578
807.5468, 89.01060
808.0289, 89.38101
808.5110, 89.53572
808.9932, 89.47593
809.4753, 89.30936
809.9574, 89.36277
810.4395, 89.73853
810.9216, 89.86101
811.4037, 89.58949
811.8859, 89.24502
812.3680, 88.64380
812.8501, 88.23138
813.3322, 88.97778
813.8143, 91.22762
814.2964, 92.35896
814.7786, 90.83067
815.2607, 89.02824
815.7428, 88.17239
816.2249, 87.99474
816.7070, 87.99862
817.1891, 88.11880
817.6713, 88.76732
818.1534, 90.59693
818.6355, 92.62271
819.1176, 92.61469
819.5997, 90.85966
820.0818, 89.59218
820.5640, 89.20607
821.0461, 89.33386
821.5282, 89.82613
822.0103, 90.52337
822.4924, 90.94257
822.9745, 91.04229
823.4567, 90.95805
823.9388, 90.22314
824.4209, 89.83955
824.9030, 90.76943
825.3851, 91.93977
825.8672, 91.71651
826.3494, 89.90967
826.8315, 88.53066
827.3136, 88.68517
827.7957, 89.48986
828.2778, 90.59461
828.7599, 91.68076
829.2421, 92.18710
829.7242, 92.03248
830.2063, 91.46071
830.6884, 90.55862
831.1705, 89.63461
831.6526, 89.58450
832.1348, 90.44394
832.6169, 91.10246
833.0990, 91.52310
833.5811, 91.36765
834.0632, 90.07531
834.5453, 88.34203
835.0275, 87.74650
835.5096, 88.77589
835.9917, 89.52420
836.4738, 89.60112
836.9559, 89.84451
837.4380, 91.08116
837.9202, 92.32860
838.4023, 92.09431
838.8844, 90.49644
839.3665, 89.60796
839.8486, 91.25999
840.3307, 93.20974
840.8129, 92.97424
841.2950, 91.43124
841.7771, 90.13500
842.2592, 89.38864
842.7413, 89.24704
843.2234, 89.79666
843.7056, 90.66328
844.1877, 91.07769
844.6698, 91.00338
845.1519, 90.89311
845.6340, 90.72037
846.1161, 90.60197
846.5983, 90.46510
847.0804, 90.52332
847.5625, 91.30299
848.0446, 92.89478
848.5267, 93.66148
849.0089, 92.89196
849.4910, 92.12162
849.9731, 91.75620
850.4552, 91.58668
850.9373, 91.31590
851.4194, 91.05177
851.9016, 91.27966
852.3837, 92.38366
852.8658, 93.40212
853.3479, 93.32849
853.8300, 92.63735
854.3121, 91.99925
854.7943, 91.53324
855.2764, 91.55090
855.7585, 92.19480
856.2406, 92.82045
856.7227, 92.47644
857.2048, 91.27432
857.6870, 90.66621
858.1691, 90.72192
858.6512, 91.16920
859.1333, 92.20915
859.6154, 93.19402
860.0975, 93.48828
860.5797, 93.21493
861.0618, 93.11171
861.5439, 93.46792
862.0260, 93.50913
862.5081, 92.73611
862.9902, 92.04893
863.4724, 92.00320
863.9545, 92.40136
864.4366, 92.95691
864.9187, 93.58846
865.4008, 94.04764
865.8829, 94.27951
866.3651, 94.17130
866.8472, 93.20251
867.3293, 91.86089
867.8114, 91.48208
868.2935, 92.23575
868.7756, 92.91238
869.2578, 92.53830
869.7399, 91.62759
870.2220, 91.48953
870.7041, 92.16039
871.1862, 92.90877
871.6683, 93.77483
872.1505, 94.31409
872.6326, 94.15384
873.1147, 93.69561
873.5968, 93.63139
874.0789, 94.05943
874.5610, 94.35076
875.0432, 94.41850
875.5253, 94.46811
876.0074, 94.40353
876.4895, 94.45222
876.9716, 95.10623
877.4537, 96.07347
877.9359, 96.22693
878.4180, 94.77422
878.9001, 93.47731
879.3822, 93.58646
879.8643, 94.29923
880.3464, 94.87824
880.8286, 95.23028
881.3107, 95.27470
881.7928, 95.01408
882.2749, 94.83458
882.7570, 95.15316
883.2391, 95.87991
883.7213, 96.82401
884.2034, 97.96388
884.6855, 99.02127
885.1676, 99.99300
885.6497, 100.3598
886.1318, 99.58950
886.6140, 98.05101
887.0961, 96.96725
887.5782, 96.32166
888.0603, 96.20700
888.5424, 97.18782
889.0245, 97.91945
889.5067, 97.23493
889.9888, 96.39638
890.4709, 97.10989
890.9530, 99.42089
891.4351, 101.2139
891.9172, 101.9535
892.3994, 102.2307
892.8815, 101.8959
893.3636, 101.5066
893.8457, 101.7775
894.3278, 102.4808
894.8099, 102.7390
895.2921, 102.1210
895.7742, 101.4825
896.2563, 101.7290
896.7384, 102.4437
897.2205, 102.8379
897.7026, 103.0195
898.1848, 103.6363
898.6669, 104.8695
899.1490, 106.1130
899.6311, 106.7820
900.1132, 106.9937
900.5953, 107.1493
901.0775, 107.2386
901.5596, 107.3540
902.0417, 107.4514
902.5238, 107.7833
903.0059, 108.6117
903.4880, 109.6553
903.9702, 110.3352
904.4523, 110.5604
904.9344, 110.7754
905.4165, 110.6606
905.8986, 110.9489
906.3807, 111.9701
906.8629, 113.3305
907.3450, 114.8695
907.8271, 116.4618
908.3092, 117.7349
908.7913, 118.7054
909.2734, 119.1385
909.7556, 118.2947
910.2377, 117.4257
910.7198, 117.7985
911.2019, 118.9804
911.6840, 119.9779
912.1661, 120.4978
912.6483, 120.9201
913.1304, 121.4515
913.6125, 122.1747
914.0946, 123.4139
914.5767, 124.9519
915.0588, 125.9798
915.5410, 126.4174
916.0231, 126.9198
916.5052, 127.9023
916.9873, 129.2153
917.4694, 130.6829
917.9515, 132.3270
918.4337, 133.4881
918.9158, 134.0293
919.3979, 134.7082
919.8800, 135.7578
920.3621, 137.0836
920.8442, 138.6084
921.3264, 140.3254
921.8085, 142.1054
922.2906, 144.0677
922.7727, 145.9106
923.2548, 147.4035
923.7369, 149.0190
924.2191, 150.9164
924.7012, 153.1016
925.1833, 155.6996
925.6654, 158.7529
926.1475, 161.4508
926.6296, 163.0340
927.1118, 164.8023
927.5939, 167.3831
928.0760, 170.5228
928.5581, 173.9749
929.0402, 177.7059
929.5223, 181.6948
930.0045, 185.9257
930.4866, 190.5921
930.9687, 196.0779
931.4508, 202.0240
931.9329, 207.6971
932.4150, 213.3082
932.8972, 219.6030
933.3793, 226.7628
933.8614, 234.4387
934.3435, 242.2371
934.8256, 250.4442
935.3077, 259.7032
935.7899, 269.9944
936.2720, 281.5356
936.7541, 294.3600
937.2362, 307.3663
937.7183, 319.7917
938.2004, 332.8056
938.6826, 348.3298
939.1647, 366.4560
939.6468, 384.2510
940.1289, 401.8146
940.6110, 418.8263
941.0931, 436.2421
941.5753, 451.5726
942.0574, 462.9154
942.5395, 470.8612
943.0216, 477.5018
943.5037, 481.5709
943.9858, 486.0775
944.4680, 482.9281
944.9501, 478.7495
945.4322, 473.4083
945.9143, 469.2232
946.3964, 468.5851
946.8785, 471.3214
947.3607, 475.4304
947.8428, 479.6754
948.3249, 486.4849
948.8070, 496.9543
949.2891, 510.7433
949.7712, 527.9156
950.2534, 548.0130
950.7355, 570.0548
951.2176, 593.7275
951.6997, 619.3351
952.1818, 647.1691
952.6639, 676.7515
953.1461, 707.6501
953.6282, 739.5711
954.1103, 771.4669
954.5924, 803.3049
955.0745, 836.2128
955.5566, 871.0030
956.0388, 904.6580
956.5209, 933.0002
957.0030, 960.6255
957.4851, 981.5800
957.9672, 1007.057
958.4493, 1028.839
958.9315, 1046.247
959.4136, 1057.888
959.8957, 1062.628
960.3778, 1061.290
960.8599, 1055.684
961.3420, 1045.417
961.8242, 1032.893
962.3063, 1017.891
962.7884, 1001.171
963.2705, 982.3729
963.7526, 962.7802
964.2347, 943.1444
964.7169, 923.7361
965.1990, 906.2827
965.6811, 891.0364
966.1632, 877.4768
966.6453, 865.0296
967.1274, 854.9473
967.6096, 846.7444
968.0917, 841.7429
968.5738, 841.9952
969.0559, 847.4655
969.5380, 855.1147
970.0201, 864.2699
970.5023, 875.4798
970.9844, 890.8647
971.4665, 906.6656
971.9486, 922.0060
972.4307, 934.8499
972.9128, 942.6946
973.3950, 944.8216
973.8771, 940.2396
974.3592, 928.7924
974.8413, 909.8747
975.3234, 881.0866
975.8055, 845.5115
976.2877, 806.4703
976.7698, 765.1479
977.2519, 722.5042
977.7340, 678.9295
978.2161, 635.6254
978.6982, 593.3021
979.1804, 552.6504
979.6625, 515.1535
980.1446, 481.0259
980.6267, 450.4424
981.1088, 423.4949
981.5909, 399.6826
982.0731, 378.7890
982.5552, 360.1533
983.0373, 342.3134
983.5194, 325.4488
984.0015, 310.6590
984.4836, 297.9270
984.9658, 286.9521
985.4479, 277.6854
985.9300, 269.7682
986.4121, 263.0548
986.8942, 257.1504
987.3763, 250.5951
987.8585, 243.1391
988.3406, 236.6725
988.8227, 231.4666
989.3048, 226.6613
989.7869, 222.1499
990.2690, 217.5070
990.7512, 212.1195
991.2333, 206.0908
991.7154, 200.8376
992.1975, 196.4355
992.6796, 192.6644
993.1617, 189.9524
993.6439, 187.2718
994.1260, 184.2760
994.6081, 180.9243
995.0902, 176.7254
995.5723, 171.5942
996.0544, 168.1645
996.5366, 167.9461
997.0187, 167.3884
997.5008, 165.5859
997.9829, 163.6321
998.4650, 162.1759
998.9471, 161.0266
999.4293, 159.7337
999.9114, 158.2055
1000.393, 157.2079
1000.876, 157.1648
1001.358, 157.4257
1001.840, 158.3539
1002.322, 158.9348
1002.804, 157.7232
1003.286, 155.5570
1003.768, 154.5177
1004.250, 155.2304
1004.733, 156.0657
1005.215, 156.0294
1005.697, 155.9284
1006.179, 156.6015
1006.661, 157.4198
1007.143, 157.4368
1007.625, 156.7932
1008.107, 156.2789
1008.589, 156.2215
1009.072, 156.3728
1009.554, 156.7673
1010.036, 157.0561
1010.518, 156.7680
1011.000, 156.0683
1011.482, 155.2507
1011.964, 154.3918
1012.446, 153.5050
1012.929, 152.5890
1013.411, 151.6516
1013.893, 150.6925
1014.375, 149.7216
1014.857, 148.6647
1015.339, 147.6126
1015.821, 146.9867
1016.303, 146.8028
1016.785, 146.4045
1017.268, 145.3374
1017.750, 143.8577
1018.232, 142.2046
1018.714, 140.4906
1019.196, 139.1608
1019.678, 138.2222
1020.160, 137.5927
1020.642, 137.2451
1021.125, 137.0165
1021.607, 136.7568
1022.089, 136.5857
1022.571, 137.0514
1023.053, 138.0654
1023.535, 137.4611
1024.017, 135.0594
1024.499, 133.8762
1024.981, 135.0133
1025.464, 136.4460
1025.946, 136.3027
1026.428, 135.1056
1026.910, 134.4849
1027.392, 134.4964
1027.874, 134.5063
1028.356, 134.4176
1028.838, 134.7666
1029.321, 135.8936
1029.803, 137.0500
1030.285, 137.4415
1030.767, 138.2253
1031.249, 138.8614
1031.731, 138.9846
1032.213, 139.7296
1032.695, 139.7743
1033.177, 139.6375
1033.660, 139.3553
1034.142, 139.2024
1034.624, 139.4081
1035.106, 139.9965
1035.588, 141.1371
1036.070, 143.1267
1036.552, 144.9992
1037.034, 147.1220
1037.516, 148.4205
1037.999, 147.8364
1038.481, 146.9258
1038.963, 147.4783
1039.445, 149.2680
1039.927, 150.5374
1040.409, 150.9845
1040.891, 151.4530
1041.373, 152.4257
1041.855, 152.8062
1042.338, 151.3722
1042.820, 149.7490
1043.302, 149.9673
1043.784, 151.6983
1044.266, 152.3648
1044.748, 151.3138
1045.230, 150.1720
1045.712, 148.8347
1046.195, 147.6482
1046.677, 146.7715
1047.159, 146.0927
1047.641, 145.8190
1048.123, 145.7449
1048.605, 144.5403
1049.087, 140.9257
1049.569, 138.2384
1050.052, 137.6261
1050.534, 137.2508
1051.016, 136.3162
1051.498, 135.1546
1051.980, 134.1651
1052.462, 133.3403
1052.944, 132.4635
1053.426, 131.6379
1053.908, 130.4626
1054.391, 128.3288
1054.873, 126.4299
1055.355, 125.5100
1055.837, 125.0461
1056.319, 124.5152
1056.801, 123.8498
1057.283, 123.0531
1057.765, 122.1235
1058.248, 121.0795
1058.730, 119.7889
1059.212, 118.5375
1059.694, 117.3287
1060.176, 116.3544
1060.658, 115.9554
1061.140, 116.0016
1061.622, 115.8991
1062.104, 115.5120
1062.587, 114.9021
1063.069, 113.9977
1063.551, 112.9863
1064.033, 111.5589
1064.515, 110.3785
1064.997, 110.3453
1065.479, 111.2688
1065.961, 112.2548
1066.443, 113.2054
1066.926, 113.6189
1067.408, 112.7130
1067.890, 111.8696
1068.372, 112.0076
1068.854, 112.5872
1069.336, 113.2632
1069.818, 113.7601
1070.300, 113.3594
1070.782, 111.5589
1071.265, 110.3266
1071.747, 111.1103
1072.229, 112.0409
1072.711, 111.9115
1073.193, 111.3953
1073.675, 111.3444
1074.157, 111.5960
1074.639, 111.3488
1075.122, 110.2748
1075.604, 109.5369
1076.086, 109.9869
1076.568, 110.5458
1077.050, 110.7775
1077.532, 110.6444
1078.014, 109.7917
1078.496, 108.6283
1078.979, 108.1882
1079.461, 108.7728
1079.943, 109.3107
1080.425, 108.9294
1080.907, 108.8417
1081.389, 110.2401
1081.871, 111.7973
1082.353, 112.3210
1082.835, 111.9543
1083.318, 111.0325
1083.800, 109.6547
1084.282, 108.8253
1084.764, 109.5977
1085.246, 110.2294
1085.728, 109.2945
1086.210, 108.3590
1086.692, 109.1088
1087.175, 110.7355
1087.657, 111.6955
1088.139, 111.7113
1088.621, 111.3874
1089.103, 110.8759
1089.585, 110.1944
1090.067, 109.0381
1090.549, 108.0225
1091.031, 107.7414
1091.514, 107.8561
1091.996, 107.8750
1092.478, 107.7176
1092.960, 107.4649
1093.442, 107.1309
1093.924, 106.7310
1094.406, 106.1780
1094.888, 105.6569
1095.370, 105.2626
1095.853, 104.9887
1096.335, 104.9424
1096.817, 105.0263
1097.299, 104.7819
1097.781, 103.9916
1098.263, 103.1196
1098.745, 102.1150
1099.227, 101.3000
1099.709, 100.9526
1100.192, 100.7979
1100.674, 100.5137
1101.156, 100.1575
1101.638, 100.0372
1102.120, 100.3027
1102.602, 100.4492
1103.084, 100.3325
1103.566, 100.1002
1104.049, 99.62716
1104.531, 99.22322
1105.013, 99.29689
1105.495, 99.60705
1105.977, 99.47104
1106.459, 98.67585
1106.941, 98.34337
1107.423, 99.01799
1107.906, 99.67673
1108.388, 99.93214
1108.870, 100.2075
1109.352, 101.1296
1109.834, 102.1104
1110.316, 102.0262
1110.798, 100.7685
1111.280, 99.61138
1111.762, 98.44440
1112.245, 97.69827
1112.727, 97.87100
1113.209, 97.96058
1113.691, 97.19157
1114.173, 96.25552
1114.655, 96.14846
1115.137, 96.79222
1115.619, 97.08101
1116.102, 96.74501
1116.584, 96.53297
1117.066, 96.65125
1117.548, 96.60201
1118.030, 96.22911
1118.512, 95.59038
1118.994, 94.60622
1119.476, 93.41518
1119.958, 92.56328
1120.441, 92.02543
1120.923, 91.96619
1121.405, 92.80732
1121.887, 93.17151
1122.369, 92.50598
1122.851, 91.65182
1123.333, 91.24705
1123.815, 91.05552
1124.297, 90.48324
1124.780, 90.28006
1125.262, 90.22417
1125.744, 89.77374
1126.226, 90.16607
1126.708, 90.06020
1127.190, 89.81397
1127.672, 89.61597
1128.154, 89.38410
1128.636, 88.92274
1129.119, 88.32505
1129.601, 88.55335
1130.083, 89.75182
1130.565, 90.08320
1131.047, 89.26814
1131.529, 88.47564
1132.011, 88.17414
1132.493, 87.73225
1132.976, 87.80960
1133.458, 87.53176
1133.940, 87.61220
1134.422, 87.99897
1134.904, 88.02801
1135.386, 87.67663
1135.868, 86.93641
1136.350, 85.82706
1136.833, 85.36401
1137.315, 86.35681
1137.797, 87.79497
1138.279, 87.91790
1138.761, 87.08683
1139.243, 86.61076
1139.725, 86.33035
1140.207, 85.49620
1140.689, 84.02844
1141.172, 82.15706
1141.654, 80.00130
1142.136, 78.36015
1142.618, 78.34193
1143.100, 79.10008
1143.582, 79.35470
1144.064, 79.23139
1144.546, 78.78751
1145.029, 78.23599
1145.511, 78.31184
1145.993, 79.09509
1146.475, 79.43902
1146.957, 78.42056
1147.439, 77.02740
1147.921, 76.03487
1148.403, 75.38109
1148.885, 75.16331
1149.368, 75.15651
1149.850, 75.00429
1150.332, 74.67474
1150.814, 74.28120
1151.296, 73.81912
1151.778, 73.62779
1152.260, 74.37648
1152.742, 74.92747
1153.224, 74.04941
1153.707, 72.94590
1154.189, 73.22750
1154.671, 74.27299
1155.153, 74.25862
1155.635, 72.80249
1156.117, 71.88947
1156.599, 72.61893
1157.081, 73.30514
1157.563, 73.57680
1158.046, 73.48277
1158.528, 72.82188
1159.010, 71.96137
1159.492, 71.16966
1159.974, 70.55428
1160.456, 70.74670
1160.938, 72.64294
1161.420, 73.70749
1161.903, 73.39317
1162.385, 72.87122
1162.867, 72.25938
1163.349, 71.77041
1163.831, 71.51232
1164.313, 71.53925
1164.795, 72.12624
1165.277, 71.83923
1165.760, 71.55751
1166.242, 71.85615
1166.724, 70.76159
1167.206, 70.82063
1167.688, 71.03080
1168.170, 70.85643
1168.652, 70.67503
1169.134, 71.02737
1169.616, 71.74150
1170.099, 72.07206
1170.581, 72.02059
1171.063, 71.09287
1171.545, 69.24546
1172.027, 68.46420
1172.509, 69.36198
1172.991, 70.61829
1173.473, 71.27049
1173.956, 71.44474
1174.438, 71.31388
1174.920, 70.89510
1175.402, 69.85349
1175.884, 68.60007
1176.366, 68.96770
1176.848, 70.82282
1177.330, 72.06660
1177.813, 71.81216
1178.295, 70.98144
1178.777, 70.06779
1179.259, 69.49076
1179.741, 70.18436
1180.223, 71.25288
1180.705, 71.34628
1181.187, 70.77646
1181.669, 70.32835
1182.151, 70.17988
1182.634, 70.15881
1183.116, 70.12731
1183.598, 70.44385
1184.080, 72.05293
1184.562, 73.22763
1185.044, 72.31168
1185.526, 70.78773
1186.008, 70.10917
1186.490, 70.15508
1186.973, 70.45623
1187.455, 70.98660
1187.937, 70.80254
1188.419, 68.69201
1188.901, 67.38493
1189.383, 68.04462
1189.865, 68.87521
1190.347, 68.82261
1190.830, 68.60950
1191.312, 69.16149
1191.794, 70.24429
1192.276, 70.67009
1192.758, 70.18443
1193.240, 69.90934
1193.722, 69.89279
1194.204, 69.99305
1194.687, 70.29260
1195.169, 70.29423
1195.651, 69.59373
1196.133, 68.65810
1196.615, 68.20344
1197.097, 68.19797
1197.579, 68.46986
1198.061, 69.01465
1198.543, 69.82385
1199.026, 70.85562
1199.508, 71.39871
1199.990, 71.24455
1200.472, 71.33207
1200.954, 72.51695
1201.436, 73.77919
1201.918, 73.38430
1202.400, 72.06611
1202.883, 71.02324
1203.365, 70.37807
1203.847, 70.38760
1204.329, 70.95739
1204.811, 71.80505
1205.293, 72.79662
1205.775, 73.42191
1206.257, 73.14213
1206.740, 72.63702
1207.222, 72.08216
1207.704, 71.83216
1208.186, 72.64397
1208.668, 73.71612
1209.150, 73.80637
1209.632, 72.95872
1210.114, 72.10750
1210.596, 71.39639
1211.078, 70.90067
1211.561, 70.79482
1212.043, 70.67802
1212.525, 70.19238
1213.007, 69.91895
1213.489, 70.32030
1213.971, 71.09351
1214.453, 71.88639
1214.935, 72.66551
1215.417, 72.78172
1215.900, 72.04438
1216.382, 71.33204
1216.864, 70.65012
1217.346, 70.17236
1217.828, 69.94276
1218.310, 70.04922
1218.792, 70.64050
1219.274, 71.28272
1219.757, 71.01714
1220.239, 70.13052
1220.721, 70.07142
1221.203, 70.67635
1221.685, 71.26882
1222.167, 71.68855
1222.649, 71.61470
1223.131, 70.97293
1223.614, 70.17269
1224.096, 69.39526
1224.578, 68.98840
1225.060, 69.52015
1225.542, 70.47141
1226.024, 71.59187
1226.506, 72.46831
1226.988, 72.32899
1227.470, 71.43385
1227.953, 70.73222
1228.435, 70.49443
1228.917, 70.25709
1229.399, 69.56844
1229.881, 69.25037
1230.363, 69.83361
1230.845, 70.56258
1231.327, 71.13889
1231.810, 71.51340
1232.292, 71.57423
1232.774, 71.40128
1233.256, 71.27885
1233.738, 71.16626
1234.220, 71.31277
1234.702, 71.85506
1235.184, 72.20272
1235.667, 72.22301
1236.149, 72.13445
1236.631, 72.04491
1237.113, 71.90706
1237.595, 71.62783
1238.077, 71.32051
1238.559, 71.26907
1239.041, 71.49154
1239.523, 72.36822
1240.005, 73.64440
1240.488, 73.87370
1240.970, 72.95173
1241.452, 72.19587
1241.934, 72.25388
1242.416, 72.51634
1242.898, 72.17171
1243.380, 72.04388
1243.862, 73.53650
1244.344, 75.20084
1244.827, 74.99610
1245.309, 73.97015
1245.791, 74.26263
1246.273, 75.81026
1246.755, 76.67576
1247.237, 76.17459
1247.719, 75.65376
1248.201, 75.49525
1248.684, 75.24493
1249.166, 74.36295
1249.648, 73.85007
1250.130, 74.61775
1250.612, 75.71054
1251.094, 75.75969
1251.576, 74.98418
1252.058, 74.86900
1252.541, 75.56217
1253.023, 75.77855
1253.505, 75.43240
1253.987, 75.23508
1254.469, 75.35092
1254.951, 75.69002
1255.433, 76.20994
1255.915, 76.76134
1256.397, 77.13820
1256.880, 77.45890
1257.362, 77.95907
1257.844, 78.57104
1258.326, 79.10117
1258.808, 79.64417
1259.290, 80.65376
1259.772, 81.98701
1260.254, 82.79869
1260.737, 82.76078
1261.219, 82.03758
1261.701, 79.49969
1262.183, 77.93134
1262.665, 79.60255
1263.147, 81.75362
1263.629, 82.51734
1264.111, 82.41599
1264.594, 82.04424
1265.076, 81.56454
1265.558, 81.76346
1266.040, 81.89943
1266.522, 82.03800
1267.004, 82.94242
1267.486, 82.88589
1267.968, 83.76234
1268.450, 84.61776
1268.932, 84.95361
1269.415, 85.15148
1269.897, 85.64970
1270.379, 86.31513
1270.861, 86.89113
1271.343, 87.35084
1271.825, 87.58466
1272.307, 87.63486
1272.789, 87.51333
1273.271, 87.33787
1273.754, 87.51728
1274.236, 88.19682
1274.718, 88.97996
1275.200, 89.91132
1275.682, 90.41663
1276.164, 89.71043
1276.646, 88.94857
1277.128, 88.85891
1277.611, 89.25773
1278.093, 90.21772
1278.575, 91.40640
1279.057, 91.65163
1279.539, 92.31231
1280.021, 92.71051
1280.503, 92.43159
1280.985, 93.09309
1281.468, 92.06208
1281.950, 91.86384
1282.432, 93.62843
1282.914, 95.24397
1283.396, 94.85273
1283.878, 93.69328
1284.360, 94.12656
1284.842, 95.57274
1285.324, 96.40743
##END=



