##NAMES=Fingerite
##RRUFFID=R070614
##IDEAL CHEMISTRY=Cu^2+^_11_O_2_(V^5+^O_4_)_6_
##LOCALITY=Izalco Volcano, Sonsonate Department, El Salvador
##OWNER=RRUFF
##SOURCE=Michael Scott
##DESCRIPTION=Black submetallic well-formed prismatic crystals associated with black, poorly-formed ziesite, R070482
##STATUS=The identification of this mineral has been confirmed by single-crystal X-ray diffraction.
##URL=rruff.info/R070614
125.9321, 1154.251
126.4143, 1214.732
126.8964, 1279.844
127.3785, 1333.191
127.8606, 1377.332
128.3427, 1420.581
128.8248, 1465.993
129.3070, 1510.953
129.7891, 1549.376
130.2712, 1581.461
130.7533, 1607.018
131.2354, 1623.960
131.7175, 1632.470
132.1996, 1642.632
132.6818, 1659.584
133.1639, 1682.577
133.6460, 1698.853
134.1281, 1705.853
134.6102, 1710.600
135.0923, 1725.204
135.5745, 1751.161
136.0566, 1780.978
136.5387, 1813.829
137.0208, 1852.185
137.5029, 1880.807
137.9850, 1897.883
138.4672, 1904.994
138.9493, 1908.847
139.4314, 1910.717
139.9135, 1907.227
140.3956, 1892.589
140.8777, 1855.297
141.3599, 1834.198
141.8420, 1840.496
142.3241, 1875.451
142.8062, 1896.273
143.2883, 1883.383
143.7704, 1860.089
144.2526, 1852.410
144.7347, 1868.397
145.2168, 1888.461
145.6989, 1911.007
146.1810, 1944.187
146.6631, 1957.979
147.1453, 1945.117
147.6274, 1914.656
148.1095, 1884.341
148.5916, 1837.276
149.0737, 1804.041
149.5558, 1795.735
150.0379, 1846.025
150.5201, 1877.042
151.0022, 1877.607
151.4843, 1853.870
151.9664, 1830.258
152.4485, 1802.868
152.9306, 1780.348
153.4128, 1767.850
153.8949, 1775.762
154.3770, 1783.509
154.8591, 1790.029
155.3412, 1795.236
155.8233, 1789.158
156.3055, 1756.561
156.7876, 1716.356
157.2697, 1687.786
157.7518, 1680.624
158.2339, 1682.009
158.7160, 1689.050
159.1982, 1703.275
159.6803, 1714.252
160.1624, 1713.952
160.6445, 1708.163
161.1266, 1706.781
161.6087, 1722.096
162.0909, 1737.784
162.5730, 1742.398
163.0551, 1729.313
163.5372, 1714.204
164.0193, 1705.482
164.5014, 1701.505
164.9836, 1696.996
165.4657, 1685.431
165.9478, 1673.539
166.4299, 1668.381
166.9120, 1678.938
167.3941, 1690.025
167.8763, 1689.261
168.3584, 1677.585
168.8405, 1664.922
169.3226, 1655.502
169.8047, 1649.629
170.2868, 1647.771
170.7690, 1659.557
171.2511, 1670.427
171.7332, 1661.955
172.2153, 1632.413
172.6974, 1601.442
173.1795, 1587.059
173.6617, 1584.752
174.1438, 1583.953
174.6259, 1576.136
175.1080, 1567.426
175.5901, 1568.428
176.0722, 1581.790
176.5544, 1598.697
177.0365, 1614.142
177.5186, 1626.637
178.0007, 1628.793
178.4828, 1605.547
178.9649, 1569.052
179.4471, 1547.721
179.9292, 1550.184
180.4113, 1564.001
180.8934, 1570.499
181.3755, 1570.091
181.8576, 1570.051
182.3397, 1579.559
182.8219, 1595.298
183.3040, 1603.420
183.7861, 1597.398
184.2682, 1583.395
184.7503, 1574.529
185.2324, 1570.887
185.7146, 1571.686
186.1967, 1580.585
186.6788, 1595.851
187.1609, 1603.631
187.6430, 1595.449
188.1251, 1575.340
188.6073, 1560.072
189.0894, 1550.457
189.5715, 1542.926
190.0536, 1532.235
190.5357, 1518.423
191.0178, 1505.933
191.5000, 1496.365
191.9821, 1489.819
192.4642, 1485.400
192.9463, 1482.816
193.4284, 1482.947
193.9105, 1488.479
194.3927, 1499.959
194.8748, 1512.119
195.3569, 1523.955
195.8390, 1535.810
196.3211, 1539.408
196.8032, 1531.605
197.2854, 1517.421
197.7675, 1510.403
198.2496, 1511.550
198.7317, 1515.338
199.2138, 1519.492
199.6959, 1524.681
200.1780, 1524.251
200.6602, 1515.982
201.1423, 1501.408
201.6244, 1487.651
202.1065, 1474.436
202.5886, 1462.705
203.0707, 1452.839
203.5529, 1444.428
204.0350, 1440.152
204.5171, 1442.226
204.9992, 1450.114
205.4813, 1453.867
205.9634, 1453.220
206.4456, 1449.082
206.9277, 1440.121
207.4098, 1422.589
207.8919, 1413.174
208.3740, 1420.351
208.8561, 1446.462
209.3383, 1458.999
209.8204, 1452.502
210.3025, 1438.835
210.7846, 1439.199
211.2667, 1463.313
211.7488, 1477.076
212.2310, 1462.588
212.7131, 1408.606
213.1952, 1378.013
213.6773, 1378.329
214.1594, 1397.403
214.6415, 1409.395
215.1236, 1410.901
215.6058, 1412.036
216.0879, 1418.709
216.5700, 1435.189
217.0521, 1444.076
217.5342, 1444.326
218.0163, 1436.840
218.4985, 1421.564
218.9806, 1388.858
219.4627, 1364.344
219.9448, 1366.325
220.4269, 1409.953
220.9090, 1441.629
221.3912, 1455.699
221.8733, 1454.134
222.3554, 1446.053
222.8375, 1425.400
223.3196, 1406.209
223.8017, 1400.079
224.2839, 1417.936
224.7660, 1424.564
225.2481, 1409.222
225.7302, 1374.592
226.2123, 1360.315
226.6944, 1377.604
227.1766, 1402.908
227.6587, 1416.138
228.1408, 1414.273
228.6229, 1405.932
229.1050, 1389.541
229.5871, 1364.604
230.0693, 1349.005
230.5514, 1346.785
231.0335, 1350.413
231.5156, 1352.112
231.9977, 1351.353
232.4798, 1349.566
232.9619, 1346.328
233.4441, 1340.975
233.9262, 1339.566
234.4083, 1345.847
234.8904, 1353.327
235.3725, 1352.114
235.8546, 1333.566
236.3368, 1320.966
236.8189, 1324.363
237.3010, 1351.243
237.7831, 1361.373
238.2652, 1344.917
238.7473, 1317.328
239.2295, 1305.170
239.7116, 1318.126
240.1937, 1331.162
240.6758, 1334.845
241.1579, 1324.610
241.6400, 1319.510
242.1222, 1321.156
242.6043, 1327.283
243.0864, 1333.727
243.5685, 1342.906
244.0506, 1348.709
244.5327, 1347.980
245.0149, 1337.006
245.4970, 1328.283
245.9791, 1321.989
246.4612, 1317.884
246.9433, 1315.372
247.4254, 1314.520
247.9075, 1315.142
248.3897, 1317.608
248.8718, 1323.682
249.3539, 1327.240
249.8360, 1327.260
250.3181, 1324.681
250.8002, 1322.616
251.2824, 1320.298
251.7645, 1319.628
252.2466, 1322.433
252.7287, 1331.719
253.2108, 1336.861
253.6929, 1335.395
254.1751, 1329.262
254.6572, 1327.497
255.1393, 1333.222
255.6214, 1338.545
256.1035, 1337.902
256.5856, 1328.078
257.0677, 1320.382
257.5499, 1315.613
258.0320, 1313.716
258.5141, 1315.175
258.9962, 1322.497
259.4783, 1329.113
259.9604, 1329.361
260.4426, 1319.886
260.9247, 1313.881
261.4068, 1314.112
261.8889, 1319.580
262.3710, 1324.044
262.8531, 1330.212
263.3353, 1330.702
263.8174, 1316.150
264.2995, 1279.428
264.7816, 1252.215
265.2637, 1241.465
265.7458, 1245.440
266.2280, 1251.993
266.7101, 1262.500
267.1922, 1272.859
267.6743, 1278.004
268.1564, 1275.748
268.6385, 1278.211
269.1207, 1291.404
269.6028, 1312.819
270.0849, 1317.699
270.5670, 1300.382
271.0491, 1278.747
271.5313, 1272.276
272.0134, 1284.607
272.4955, 1291.851
272.9776, 1286.123
273.4597, 1269.579
273.9418, 1260.946
274.4240, 1261.281
274.9061, 1266.520
275.3882, 1274.549
275.8703, 1286.255
276.3524, 1292.305
276.8345, 1286.458
277.3167, 1271.805
277.7988, 1272.643
278.2809, 1292.984
278.7630, 1316.261
279.2451, 1323.343
279.7272, 1313.495
280.2094, 1302.370
280.6915, 1291.932
281.1736, 1283.454
281.6557, 1288.408
282.1378, 1310.040
282.6199, 1331.497
283.1021, 1328.686
283.5842, 1302.342
284.0663, 1285.093
284.5484, 1294.261
285.0305, 1321.565
285.5126, 1324.612
285.9948, 1300.062
286.4769, 1272.308
286.9590, 1274.377
287.4411, 1302.426
287.9232, 1319.414
288.4053, 1303.656
288.8874, 1267.931
289.3695, 1255.418
289.8517, 1267.813
290.3338, 1287.665
290.8159, 1298.316
291.2980, 1300.659
291.7801, 1299.547
292.2622, 1295.389
292.7444, 1289.340
293.2265, 1283.548
293.7086, 1278.020
294.1907, 1273.586
294.6728, 1272.342
295.1549, 1273.226
295.6371, 1272.685
296.1192, 1265.546
296.6013, 1257.416
297.0834, 1260.852
297.5655, 1276.264
298.0476, 1291.843
298.5298, 1296.283
299.0119, 1292.643
299.4940, 1288.237
299.9761, 1285.318
300.4582, 1283.422
300.9403, 1282.032
301.4225, 1281.156
301.9046, 1280.491
302.3867, 1278.802
302.8688, 1277.226
303.3509, 1277.854
303.8330, 1285.334
304.3152, 1293.117
304.7973, 1294.421
305.2794, 1289.294
305.7615, 1281.865
306.2436, 1271.449
306.7257, 1261.320
307.2079, 1256.227
307.6900, 1261.090
308.1721, 1269.357
308.6542, 1278.680
309.1363, 1288.682
309.6184, 1293.851
310.1006, 1285.011
310.5827, 1271.416
311.0648, 1263.600
311.5469, 1274.382
312.0290, 1284.080
312.5111, 1278.897
312.9933, 1259.734
313.4754, 1245.026
313.9575, 1243.089
314.4396, 1249.089
314.9217, 1258.447
315.4038, 1276.862
315.8860, 1291.786
316.3681, 1296.508
316.8502, 1291.772
317.3323, 1288.374
317.8144, 1293.160
318.2965, 1298.865
318.7787, 1299.810
319.2608, 1291.940
319.7429, 1282.104
320.2250, 1269.380
320.7071, 1254.570
321.1892, 1245.132
321.6713, 1245.695
322.1534, 1250.179
322.6356, 1254.726
323.1177, 1257.417
323.5998, 1261.825
324.0819, 1271.911
324.5640, 1286.162
325.0461, 1291.731
325.5283, 1282.280
326.0104, 1268.014
326.4925, 1254.040
326.9746, 1233.802
327.4567, 1222.674
327.9388, 1225.312
328.4210, 1238.749
328.9031, 1247.803
329.3852, 1248.983
329.8673, 1249.399
330.3494, 1253.463
330.8315, 1266.661
331.3137, 1272.216
331.7958, 1265.740
332.2779, 1251.463
332.7600, 1245.068
333.2421, 1252.784
333.7242, 1257.697
334.2064, 1247.092
334.6885, 1210.885
335.1706, 1197.916
335.6527, 1219.940
336.1348, 1259.874
336.6169, 1275.208
337.0991, 1259.691
337.5812, 1239.784
338.0633, 1227.927
338.5454, 1224.459
339.0275, 1224.817
339.5096, 1230.584
339.9918, 1237.465
340.4739, 1235.270
340.9560, 1222.859
341.4381, 1213.816
341.9202, 1218.209
342.4023, 1233.899
342.8845, 1241.092
343.3666, 1237.968
343.8487, 1230.306
344.3308, 1225.445
344.8129, 1223.232
345.2950, 1221.892
345.7772, 1222.583
346.2593, 1223.509
346.7414, 1217.219
347.2235, 1202.217
347.7056, 1189.329
348.1877, 1194.059
348.6699, 1211.490
349.1520, 1225.836
349.6341, 1229.449
350.1162, 1226.352
350.5983, 1220.913
351.0804, 1213.136
351.5626, 1205.448
352.0447, 1198.924
352.5268, 1193.987
353.0089, 1191.366
353.4910, 1191.513
353.9731, 1193.948
354.4552, 1200.607
354.9373, 1210.906
355.4195, 1217.335
355.9016, 1212.986
356.3837, 1203.158
356.8658, 1193.469
357.3479, 1181.641
357.8300, 1174.396
358.3122, 1178.340
358.7943, 1191.372
359.2764, 1201.515
359.7585, 1202.380
360.2406, 1199.370
360.7227, 1196.569
361.2049, 1199.002
361.6870, 1196.683
362.1691, 1181.529
362.6512, 1158.257
363.1333, 1143.894
363.6154, 1149.426
364.0976, 1159.028
364.5797, 1164.832
365.0618, 1161.535
365.5439, 1161.324
366.0260, 1169.641
366.5081, 1181.560
366.9903, 1184.893
367.4724, 1165.598
367.9545, 1152.002
368.4366, 1156.434
368.9187, 1192.790
369.4008, 1210.427
369.8830, 1200.278
370.3651, 1176.257
370.8472, 1160.844
371.3293, 1157.173
371.8114, 1156.171
372.2935, 1156.164
372.7757, 1157.766
373.2578, 1153.189
373.7399, 1138.387
374.2220, 1123.738
374.7041, 1125.217
375.1862, 1146.411
375.6684, 1163.115
376.1505, 1167.644
376.6326, 1161.667
377.1147, 1155.433
377.5968, 1148.369
378.0789, 1143.852
378.5611, 1147.925
379.0432, 1159.430
379.5253, 1165.658
380.0074, 1160.808
380.4895, 1150.740
380.9716, 1149.274
381.4538, 1156.259
381.9359, 1163.875
382.4180, 1166.072
382.9001, 1164.309
383.3822, 1162.341
383.8643, 1161.856
384.3465, 1159.823
384.8286, 1149.191
385.3107, 1132.740
385.7928, 1120.806
386.2749, 1126.899
386.7570, 1137.832
387.2391, 1137.267
387.7213, 1118.744
388.2034, 1100.504
388.6855, 1095.654
389.1676, 1100.227
389.6497, 1106.222
390.1318, 1114.556
390.6140, 1119.951
391.0961, 1117.670
391.5782, 1105.596
392.0603, 1095.369
392.5424, 1090.805
393.0245, 1090.568
393.5067, 1093.039
393.9888, 1100.891
394.4709, 1108.406
394.9530, 1114.854
395.4351, 1120.376
395.9172, 1121.835
396.3994, 1112.763
396.8815, 1102.934
397.3636, 1100.475
397.8457, 1117.834
398.3278, 1125.978
398.8099, 1117.211
399.2921, 1094.548
399.7742, 1081.411
400.2563, 1080.600
400.7384, 1085.346
401.2205, 1093.373
401.7026, 1108.145
402.1848, 1114.829
402.6669, 1110.643
403.1490, 1099.037
403.6311, 1087.735
404.1132, 1076.109
404.5953, 1067.179
405.0775, 1063.247
405.5596, 1064.285
406.0417, 1064.022
406.5238, 1061.424
407.0059, 1059.842
407.4880, 1065.808
407.9702, 1078.572
408.4523, 1089.493
408.9344, 1094.359
409.4165, 1094.735
409.8986, 1094.508
410.3807, 1093.734
410.8629, 1091.428
411.3450, 1085.206
411.8271, 1076.832
412.3092, 1069.780
412.7913, 1063.130
413.2734, 1060.247
413.7556, 1067.874
414.2377, 1084.085
414.7198, 1097.047
415.2019, 1095.548
415.6840, 1089.040
416.1661, 1086.668
416.6483, 1092.655
417.1304, 1099.576
417.6125, 1108.146
418.0946, 1115.255
418.5767, 1112.771
419.0588, 1084.440
419.5410, 1056.492
420.0230, 1042.720
420.5052, 1049.588
420.9873, 1056.034
421.4694, 1060.622
421.9515, 1062.580
422.4336, 1060.683
422.9157, 1047.090
423.3979, 1038.432
423.8800, 1039.639
424.3621, 1051.911
424.8442, 1061.499
425.3263, 1068.889
425.8084, 1073.052
426.2906, 1071.612
426.7727, 1060.946
427.2548, 1055.973
427.7369, 1061.470
428.2190, 1073.945
428.7011, 1077.453
429.1833, 1070.300
429.6654, 1060.828
430.1475, 1053.011
430.6296, 1046.888
431.1117, 1045.573
431.5938, 1050.048
432.0760, 1057.841
432.5581, 1067.260
433.0402, 1077.641
433.5223, 1083.408
434.0044, 1077.011
434.4865, 1065.253
434.9687, 1062.478
435.4508, 1069.932
435.9329, 1078.265
436.4150, 1080.197
436.8971, 1077.080
437.3792, 1071.331
437.8614, 1057.564
438.3435, 1046.417
438.8256, 1047.705
439.3077, 1060.010
439.7898, 1072.131
440.2719, 1085.263
440.7541, 1092.268
441.2362, 1085.963
441.7183, 1046.881
442.2004, 1020.124
442.6825, 1026.675
443.1646, 1055.067
443.6468, 1075.222
444.1289, 1078.736
444.6110, 1076.523
445.0931, 1071.580
445.5752, 1062.393
446.0573, 1055.424
446.5395, 1050.720
447.0216, 1048.198
447.5037, 1048.438
447.9858, 1054.546
448.4679, 1056.523
448.9500, 1049.847
449.4322, 1035.712
449.9143, 1030.033
450.3964, 1034.692
450.8785, 1042.205
451.3606, 1047.036
451.8427, 1049.224
452.3249, 1048.726
452.8070, 1045.037
453.2891, 1039.390
453.7712, 1033.183
454.2533, 1026.581
454.7354, 1022.069
455.2175, 1023.021
455.6996, 1026.709
456.1818, 1026.396
456.6639, 1020.634
457.1460, 1016.686
457.6281, 1026.968
458.1102, 1043.293
458.5923, 1050.862
459.0745, 1035.202
459.5566, 1014.846
460.0387, 1000.974
460.5208, 993.7544
461.0029, 991.8240
461.4850, 996.0364
461.9672, 1004.446
462.4493, 1015.974
462.9314, 1041.554
463.4135, 1055.711
463.8956, 1044.021
464.3777, 1016.191
464.8599, 1001.552
465.3420, 1017.467
465.8241, 1031.803
466.3062, 1031.972
466.7883, 1010.893
467.2704, 1001.412
467.7526, 1008.358
468.2347, 1022.378
468.7168, 1032.552
469.1989, 1038.961
469.6810, 1040.569
470.1631, 1034.818
470.6453, 1024.173
471.1274, 1022.535
471.6095, 1031.171
472.0916, 1040.242
472.5737, 1041.220
473.0558, 1035.492
473.5380, 1030.053
474.0201, 1025.557
474.5022, 1022.516
474.9843, 1024.027
475.4664, 1028.331
475.9485, 1028.752
476.4307, 1018.932
476.9128, 1004.720
477.3949, 990.6656
477.8770, 976.6798
478.3591, 968.5858
478.8412, 976.3741
479.3234, 989.8102
479.8055, 997.1580
480.2876, 989.8190
480.7697, 980.6511
481.2518, 972.5237
481.7339, 965.7825
482.2161, 962.2477
482.6982, 959.5876
483.1803, 962.3182
483.6624, 974.1394
484.1445, 1005.371
484.6266, 1024.626
485.1088, 1026.200
485.5909, 1018.649
486.0730, 1015.140
486.5551, 1017.840
487.0372, 1019.331
487.5193, 1016.561
488.0014, 1010.048
488.4836, 1008.600
488.9657, 1013.391
489.4478, 1018.611
489.9299, 1018.079
490.4120, 1012.589
490.8941, 1010.661
491.3763, 1015.300
491.8584, 1021.149
492.3405, 1018.630
492.8226, 1009.282
493.3047, 1000.137
493.7868, 993.5666
494.2690, 990.2632
494.7511, 994.1131
495.2332, 1006.333
495.7153, 1013.353
496.1974, 998.7772
496.6795, 976.4820
497.1617, 962.8043
497.6438, 973.5630
498.1259, 983.4261
498.6080, 978.8861
499.0901, 963.7801
499.5722, 959.4507
500.0544, 983.0479
500.5365, 1007.767
501.0186, 1021.146
501.5007, 1020.098
501.9828, 1013.843
502.4649, 996.7408
502.9471, 978.1590
503.4292, 973.4762
503.9113, 989.3820
504.3934, 1000.526
504.8755, 998.1237
505.3576, 985.0433
505.8398, 979.4322
506.3219, 982.0586
506.8040, 988.2360
507.2861, 997.0006
507.7682, 1006.951
508.2503, 1009.808
508.7325, 1002.553
509.2146, 992.7950
509.6967, 990.9954
510.1788, 995.1546
510.6609, 998.9572
511.1430, 1000.584
511.6252, 999.4699
512.1072, 993.0612
512.5894, 981.3098
513.0715, 972.4591
513.5536, 970.7549
514.0357, 974.0001
514.5178, 980.3675
514.9999, 999.5210
515.4821, 1009.814
515.9642, 998.5359
516.4463, 974.0985
516.9284, 963.0734
517.4105, 979.7943
517.8926, 994.8002
518.3748, 997.6816
518.8569, 985.6835
519.3390, 978.1934
519.8211, 977.5607
520.3032, 977.8793
520.7853, 971.3439
521.2675, 956.5372
521.7496, 946.9144
522.2317, 945.9913
522.7138, 950.8120
523.1959, 954.2429
523.6780, 956.3993
524.1602, 959.4077
524.6423, 966.5629
525.1244, 974.9792
525.6065, 978.6543
526.0886, 976.6831
526.5707, 973.7025
527.0529, 974.3513
527.5350, 976.3174
528.0171, 976.1572
528.4992, 970.5381
528.9813, 964.5361
529.4634, 960.5694
529.9456, 958.3045
530.4277, 955.8409
530.9098, 952.6029
531.3919, 949.1152
531.8740, 945.3301
532.3561, 939.8159
532.8383, 937.6193
533.3204, 941.7936
533.8025, 947.2028
534.2846, 946.9953
534.7667, 939.1464
535.2488, 931.0894
535.7310, 923.4164
536.2131, 916.8864
536.6952, 915.0790
537.1773, 918.4031
537.6594, 922.9448
538.1415, 927.8309
538.6237, 932.0242
539.1058, 930.0816
539.5879, 920.3493
540.0700, 910.0112
540.5521, 906.5120
541.0342, 907.9956
541.5164, 910.4550
541.9985, 916.5235
542.4806, 919.5350
542.9627, 911.2186
543.4448, 893.7751
543.9269, 881.0864
544.4091, 880.3541
544.8912, 884.6997
545.3733, 890.2873
545.8554, 896.6635
546.3375, 904.2432
546.8196, 916.2668
547.3018, 928.1459
547.7839, 933.6807
548.2660, 930.0444
548.7481, 925.6485
549.2302, 921.6105
549.7123, 918.1428
550.1945, 917.1838
550.6766, 919.4016
551.1587, 921.0518
551.6408, 920.7728
552.1229, 918.1488
552.6050, 908.2267
553.0872, 888.7162
553.5693, 870.8287
554.0514, 872.3198
554.5335, 885.9485
555.0156, 893.4252
555.4977, 880.8253
555.9799, 865.2772
556.4620, 860.3779
556.9441, 864.6956
557.4262, 871.3068
557.9083, 880.5518
558.3904, 888.5054
558.8726, 892.5867
559.3547, 891.4229
559.8368, 889.1954
560.3189, 883.3463
560.8010, 878.1011
561.2831, 878.8406
561.7653, 891.6329
562.2474, 898.8026
562.7295, 895.7902
563.2116, 884.9985
563.6937, 877.1518
564.1758, 872.5952
564.6580, 869.0608
565.1401, 864.2616
565.6222, 858.9695
566.1043, 858.4576
566.5864, 863.4689
567.0685, 869.7093
567.5507, 874.0176
568.0327, 875.9776
568.5148, 874.3173
568.9969, 865.0181
569.4791, 856.3902
569.9612, 856.4012
570.4433, 862.7567
570.9254, 868.3694
571.4075, 869.9414
571.8896, 870.2174
572.3718, 870.7087
572.8539, 871.9442
573.3360, 871.3594
573.8181, 864.9940
574.3002, 859.2914
574.7823, 860.7525
575.2645, 875.8953
575.7466, 882.0351
576.2287, 874.1908
576.7108, 858.0352
577.1929, 845.0644
577.6750, 834.9557
578.1572, 831.9742
578.6393, 842.1418
579.1214, 861.0743
579.6035, 872.9955
580.0856, 877.9773
580.5677, 878.7399
581.0499, 874.1709
581.5320, 867.8518
582.0141, 865.9481
582.4962, 872.2738
582.9783, 877.4153
583.4604, 874.5134
583.9426, 866.7601
584.4247, 859.7106
584.9068, 850.7418
585.3889, 846.9692
585.8710, 855.1487
586.3531, 875.0650
586.8353, 882.4527
587.3174, 866.4878
587.7995, 851.1323
588.2816, 851.4995
588.7637, 873.3211
589.2458, 885.7487
589.7280, 887.5428
590.2101, 881.2940
590.6922, 865.0770
591.1743, 840.6548
591.6564, 828.0444
592.1385, 838.9973
592.6207, 858.9969
593.1028, 863.4029
593.5849, 855.0347
594.0670, 847.6802
594.5491, 849.0367
595.0313, 855.4858
595.5134, 866.4529
595.9955, 882.9579
596.4776, 893.4047
596.9597, 887.5629
597.4418, 876.5906
597.9240, 870.6766
598.4061, 876.6783
598.8882, 880.8920
599.3703, 883.1830
599.8524, 883.0438
600.3345, 878.1508
600.8167, 865.8312
601.2988, 856.3834
601.7809, 854.5071
602.2630, 859.0165
602.7451, 861.5894
603.2272, 862.2517
603.7094, 860.6384
604.1915, 853.1907
604.6736, 843.5217
605.1557, 841.5701
605.6378, 850.8448
606.1199, 860.0157
606.6021, 856.4381
607.0842, 846.5194
607.5663, 840.4127
608.0484, 843.2598
608.5305, 849.1221
609.0126, 858.6931
609.4948, 870.5567
609.9769, 876.2709
610.4590, 865.7910
610.9411, 857.9908
611.4232, 861.9981
611.9053, 882.0638
612.3875, 887.5275
612.8696, 871.7784
613.3517, 854.2338
613.8338, 859.1902
614.3159, 885.7703
614.7980, 900.5201
615.2802, 895.7785
615.7623, 881.6664
616.2444, 871.2029
616.7265, 864.2001
617.2086, 859.8696
617.6907, 857.7560
618.1729, 858.3084
618.6550, 864.1606
619.1371, 874.4173
619.6192, 881.0478
620.1013, 880.8170
620.5834, 875.9188
621.0656, 866.3073
621.5477, 845.6525
622.0298, 835.6064
622.5119, 843.3081
622.9940, 856.7200
623.4761, 862.0603
623.9583, 856.5941
624.4404, 852.0157
624.9225, 849.0700
625.4046, 849.2219
625.8867, 859.6696
626.3688, 879.7629
626.8510, 894.9387
627.3331, 892.9785
627.8152, 882.6313
628.2973, 879.3856
628.7794, 883.2613
629.2615, 888.1624
629.7437, 894.7805
630.2258, 897.7612
630.7079, 890.0778
631.1900, 862.4901
631.6721, 843.3440
632.1542, 846.1564
632.6364, 859.9355
633.1185, 869.8885
633.6006, 875.3217
634.0826, 877.1576
634.5648, 873.9446
635.0469, 867.6249
635.5290, 865.3149
636.0111, 867.5024
636.4932, 871.1387
636.9753, 874.8104
637.4575, 878.6890
637.9396, 884.1339
638.4217, 891.2477
638.9038, 897.3597
639.3859, 900.2840
639.8680, 900.8923
640.3502, 900.0743
640.8323, 897.3583
641.3144, 894.9854
641.7965, 894.3498
642.2786, 894.6246
642.7607, 894.6287
643.2429, 891.4036
643.7250, 877.3231
644.2071, 894.7527
644.6892, 904.7719
645.1713, 907.7788
645.6534, 882.7708
646.1356, 893.9384
646.6177, 890.6083
647.0998, 886.6838
647.5819, 902.9427
648.0640, 882.0095
648.5461, 897.9482
649.0283, 899.1685
649.5104, 907.1250
649.9925, 900.4946
650.4746, 898.3696
650.9567, 910.8363
651.4388, 915.2234
651.9210, 906.9139
652.4031, 915.2986
652.8852, 893.8558
653.3673, 898.5871
653.8494, 914.6113
654.3315, 907.0351
654.8137, 915.6866
655.2958, 918.1577
655.7779, 892.5415
656.2600, 915.7719
656.7421, 917.8777
657.2242, 898.2932
657.7064, 919.8500
658.1885, 903.2557
658.6706, 900.2791
659.1527, 907.5505
659.6348, 904.1386
660.1169, 917.5701
660.5991, 914.7753
661.0812, 910.5305
661.5633, 912.6127
662.0454, 896.7666
662.5275, 914.1810
663.0096, 908.8756
663.4918, 914.8638
663.9739, 923.4117
664.4560, 912.3593
664.9381, 922.0573
665.4202, 899.5762
665.9023, 904.0206
666.3845, 905.5657
666.8666, 915.9908
667.3487, 924.3163
667.8308, 928.9366
668.3129, 930.0508
668.7950, 917.1577
669.2772, 922.3520
669.7593, 920.2977
670.2414, 917.9462
670.7235, 925.6864
671.2056, 914.8305
671.6877, 922.4106
672.1699, 922.6314
672.6520, 926.2204
673.1341, 922.5159
673.6162, 921.0641
674.0983, 926.9081
674.5804, 928.7124
675.0626, 909.2976
675.5447, 909.5228
676.0268, 920.4855
676.5089, 930.2991
676.9910, 939.9918
677.4731, 944.8035
677.9553, 938.6964
678.4374, 924.7791
678.9195, 918.0327
679.4016, 918.5595
679.8837, 923.5905
680.3658, 936.3863
680.8480, 949.9352
681.3301, 953.9337
681.8122, 942.9621
682.2943, 933.3449
682.7764, 934.8088
683.2585, 941.0687
683.7407, 944.4631
684.2228, 937.9760
684.7049, 936.3885
685.1870, 944.4033
685.6691, 956.8707
686.1512, 959.3583
686.6334, 949.1462
687.1155, 941.8557
687.5976, 945.2432
688.0797, 955.0681
688.5618, 958.0532
689.0439, 954.5881
689.5261, 949.0472
690.0082, 940.3557
690.4903, 933.4368
690.9724, 935.6372
691.4545, 948.4480
691.9366, 959.6348
692.4188, 960.7850
692.9009, 959.8169
693.3830, 963.3438
693.8651, 980.0422
694.3472, 987.9686
694.8293, 983.9710
695.3115, 973.8860
695.7936, 963.9764
696.2757, 953.4155
696.7578, 950.1362
697.2399, 958.2883
697.7220, 971.3765
698.2042, 975.8312
698.6863, 973.4318
699.1684, 972.4177
699.6505, 978.6072
700.1326, 986.9044
700.6147, 994.6276
701.0968, 1001.136
701.5789, 1002.994
702.0610, 993.2285
702.5432, 983.1949
703.0253, 979.2784
703.5074, 982.8796
703.9895, 985.7634
704.4716, 987.2469
704.9537, 989.0666
705.4359, 993.2864
705.9180, 1000.006
706.4001, 1004.228
706.8822, 1004.992
707.3643, 1005.103
707.8464, 1007.994
708.3286, 1012.901
708.8107, 1018.570
709.2928, 1027.736
709.7749, 1032.610
710.2570, 1020.940
710.7391, 1001.562
711.2213, 993.5840
711.7034, 1017.187
712.1855, 1035.667
712.6676, 1037.826
713.1497, 1026.700
713.6318, 1019.704
714.1140, 1017.375
714.5961, 1017.727
715.0782, 1019.577
715.5603, 1023.201
716.0424, 1032.116
716.5245, 1046.372
717.0067, 1058.782
717.4888, 1063.041
717.9709, 1062.031
718.4530, 1058.157
718.9351, 1050.728
719.4172, 1046.391
719.8994, 1050.914
720.3815, 1058.641
720.8636, 1064.083
721.3457, 1063.793
721.8278, 1065.521
722.3099, 1071.438
722.7921, 1077.774
723.2742, 1076.638
723.7563, 1066.779
724.2384, 1063.216
724.7205, 1071.947
725.2026, 1086.049
725.6848, 1092.914
726.1669, 1093.934
726.6490, 1094.367
727.1311, 1097.540
727.6132, 1100.718
728.0953, 1101.198
728.5775, 1099.459
729.0596, 1099.132
729.5417, 1101.880
730.0238, 1105.729
730.5059, 1109.319
730.9880, 1112.336
731.4702, 1119.437
731.9523, 1132.317
732.4344, 1144.857
732.9165, 1153.290
733.3986, 1157.436
733.8807, 1153.412
734.3629, 1139.538
734.8450, 1128.499
735.3271, 1138.366
735.8092, 1157.014
736.2913, 1166.182
736.7734, 1155.544
737.2556, 1146.155
737.7377, 1148.674
738.2198, 1156.862
738.7019, 1161.279
739.1840, 1157.834
739.6661, 1157.170
740.1483, 1161.649
740.6304, 1169.070
741.1125, 1173.689
741.5946, 1175.365
742.0767, 1178.204
742.5588, 1184.662
743.0410, 1192.562
743.5231, 1198.451
744.0052, 1202.443
744.4873, 1205.293
744.9694, 1204.026
745.4515, 1204.520
745.9337, 1213.262
746.4158, 1230.724
746.8979, 1240.173
747.3800, 1231.709
747.8621, 1223.126
748.3442, 1223.938
748.8264, 1235.941
749.3085, 1240.388
749.7906, 1235.773
750.2727, 1229.617
750.7548, 1229.699
751.2369, 1233.832
751.7191, 1234.745
752.2012, 1230.478
752.6833, 1228.669
753.1654, 1238.950
753.6475, 1253.799
754.1296, 1264.162
754.6118, 1261.508
755.0939, 1263.427
755.5760, 1279.139
756.0581, 1298.052
756.5402, 1303.706
757.0223, 1289.859
757.5045, 1284.502
757.9866, 1296.208
758.4687, 1314.524
758.9508, 1314.257
759.4329, 1298.894
759.9150, 1287.554
760.3972, 1289.767
760.8793, 1299.377
761.3614, 1316.382
761.8435, 1337.149
762.3256, 1348.475
762.8077, 1335.221
763.2899, 1321.599
763.7720, 1319.201
764.2541, 1327.078
764.7362, 1327.990
765.2183, 1317.177
765.7004, 1311.259
766.1825, 1325.215
766.6646, 1354.693
767.1467, 1361.802
767.6288, 1346.242
768.1110, 1330.101
768.5931, 1335.789
769.0752, 1348.677
769.5573, 1349.657
770.0394, 1333.600
770.5215, 1322.250
771.0037, 1325.253
771.4858, 1335.510
771.9679, 1348.167
772.4500, 1369.572
772.9321, 1377.751
773.4142, 1367.739
773.8964, 1352.903
774.3785, 1350.028
774.8606, 1357.957
775.3427, 1365.539
775.8248, 1370.797
776.3069, 1374.860
776.7891, 1379.794
777.2712, 1384.401
777.7533, 1386.630
778.2354, 1383.837
778.7175, 1380.763
779.1996, 1379.332
779.6818, 1378.632
780.1639, 1376.317
780.6460, 1370.052
781.1281, 1367.283
781.6102, 1370.202
782.0923, 1377.242
782.5745, 1384.508
783.0566, 1391.954
783.5387, 1398.638
784.0208, 1403.399
784.5029, 1407.455
784.9850, 1411.949
785.4672, 1416.846
785.9493, 1422.238
786.4314, 1427.309
786.9135, 1433.561
787.3956, 1443.876
787.8777, 1457.786
788.3599, 1463.710
788.8420, 1458.564
789.3241, 1452.094
789.8062, 1449.058
790.2883, 1449.196
790.7704, 1451.716
791.2526, 1456.695
791.7347, 1460.015
792.2168, 1456.033
792.6989, 1450.044
793.1810, 1448.025
793.6631, 1450.781
794.1453, 1455.802
794.6274, 1465.469
795.1095, 1474.617
795.5916, 1479.390
796.0737, 1478.537
796.5558, 1477.117
797.0380, 1474.424
797.5201, 1472.743
798.0022, 1475.345
798.4843, 1481.320
798.9664, 1486.690
799.4485, 1491.641
799.9307, 1491.984
800.4128, 1475.784
800.8949, 1455.867
801.3770, 1449.615
801.8591, 1473.347
802.3412, 1490.970
802.8234, 1489.939
803.3055, 1481.297
803.7876, 1476.833
804.2697, 1477.211
804.7518, 1480.324
805.2339, 1487.601
805.7161, 1494.188
806.1982, 1488.682
806.6803, 1474.904
807.1624, 1466.798
807.6445, 1470.426
808.1266, 1479.314
808.6088, 1491.569
809.0909, 1505.109
809.5730, 1515.798
810.0551, 1521.701
810.5372, 1525.530
811.0193, 1527.256
811.5015, 1527.451
811.9836, 1527.674
812.4657, 1528.048
812.9478, 1527.490
813.4299, 1526.084
813.9120, 1523.014
814.3942, 1513.737
814.8763, 1500.790
815.3584, 1493.438
815.8405, 1500.059
816.3226, 1510.250
816.8047, 1519.478
817.2869, 1527.515
817.7690, 1534.197
818.2511, 1541.440
818.7332, 1544.244
819.2153, 1538.841
819.6974, 1527.601
820.1796, 1524.821
820.6617, 1530.641
821.1438, 1536.994
821.6259, 1538.999
822.1080, 1538.764
822.5901, 1538.584
823.0723, 1538.652
823.5544, 1539.847
824.0365, 1544.854
824.5186, 1549.082
825.0007, 1548.339
825.4828, 1542.248
825.9650, 1545.103
826.4471, 1563.229
826.9292, 1574.420
827.4113, 1556.540
827.8934, 1518.170
828.3755, 1506.870
828.8577, 1522.628
829.3398, 1546.760
829.8219, 1569.609
830.3040, 1590.811
830.7861, 1612.702
831.2682, 1636.646
831.7503, 1648.008
832.2324, 1628.874
832.7145, 1609.307
833.1967, 1606.136
833.6788, 1622.479
834.1609, 1630.286
834.6430, 1628.197
835.1251, 1624.494
835.6072, 1625.564
836.0894, 1630.475
836.5715, 1638.723
837.0536, 1650.677
837.5357, 1659.695
838.0178, 1655.969
838.4999, 1651.640
838.9821, 1657.749
839.4642, 1683.297
839.9463, 1696.242
840.4284, 1688.436
840.9105, 1680.794
841.3926, 1697.698
841.8748, 1735.789
842.3569, 1750.720
842.8390, 1737.499
843.3211, 1716.943
843.8032, 1701.915
844.2853, 1694.076
844.7675, 1697.391
845.2496, 1716.824
845.7317, 1733.422
846.2138, 1741.499
846.6959, 1744.891
847.1780, 1746.201
847.6602, 1744.816
848.1423, 1743.549
848.6244, 1742.236
849.1065, 1741.851
849.5886, 1745.810
850.0707, 1751.329
850.5529, 1750.633
851.0350, 1741.237
851.5171, 1730.546
851.9992, 1720.601
852.4813, 1713.209
852.9634, 1710.113
853.4456, 1714.415
853.9277, 1718.507
854.4098, 1724.095
854.8919, 1727.044
855.3740, 1721.759
855.8561, 1708.838
856.3383, 1694.115
856.8204, 1677.483
857.3025, 1664.361
857.7846, 1661.775
858.2667, 1665.294
858.7488, 1669.113
859.2310, 1671.906
859.7131, 1674.793
860.1952, 1678.718
860.6773, 1682.342
861.1594, 1684.753
861.6415, 1686.294
862.1237, 1684.080
862.6058, 1676.962
863.0879, 1668.947
863.5700, 1663.967
864.0521, 1661.928
864.5342, 1663.155
865.0164, 1669.187
865.4985, 1673.775
865.9806, 1671.394
866.4627, 1666.913
866.9448, 1666.032
867.4269, 1672.527
867.9091, 1675.617
868.3912, 1674.701
868.8733, 1671.210
869.3554, 1666.017
869.8375, 1659.546
870.3196, 1653.885
870.8018, 1649.139
871.2839, 1646.097
871.7660, 1646.768
872.2481, 1648.824
872.7302, 1649.544
873.2123, 1647.668
873.6945, 1645.474
874.1766, 1641.217
874.6587, 1638.594
875.1408, 1643.023
875.6229, 1654.987
876.1050, 1660.613
876.5872, 1657.378
877.0693, 1653.870
877.5514, 1660.370
878.0335, 1672.383
878.5156, 1684.274
878.9977, 1696.866
879.4799, 1702.563
879.9620, 1689.792
880.4441, 1675.025
880.9262, 1673.785
881.4083, 1692.283
881.8904, 1700.239
882.3726, 1693.764
882.8547, 1686.544
883.3368, 1698.521
883.8189, 1720.539
884.3010, 1729.608
884.7831, 1720.474
885.2653, 1708.611
885.7474, 1700.963
886.2295, 1696.035
886.7116, 1691.296
887.1937, 1680.419
887.6758, 1689.970
888.1580, 1730.975
888.6401, 1770.432
889.1222, 1771.364
889.6043, 1742.792
890.0864, 1731.156
890.5685, 1741.286
891.0507, 1753.295
891.5328, 1753.174
892.0149, 1746.754
892.4970, 1738.044
892.9791, 1725.898
893.4612, 1719.561
893.9434, 1723.089
894.4255, 1727.708
894.9076, 1725.810
895.3897, 1717.728
895.8718, 1720.596
896.3539, 1735.012
896.8361, 1750.574
897.3181, 1759.370
897.8002, 1764.121
898.2823, 1768.870
898.7645, 1774.367
899.2466, 1773.146
899.7287, 1756.629
900.2108, 1738.970
900.6929, 1725.357
901.1750, 1715.643
901.6572, 1715.278
902.1393, 1724.917
902.6214, 1735.634
903.1035, 1746.097
903.5856, 1751.139
904.0677, 1738.299
904.5499, 1709.262
905.0320, 1686.251
905.5141, 1688.041
905.9962, 1689.086
906.4783, 1675.127
906.9604, 1648.092
907.4426, 1633.770
907.9247, 1634.624
908.4068, 1634.453
908.8889, 1624.645
909.3710, 1608.214
909.8531, 1587.709
910.3353, 1564.876
910.8174, 1547.505
911.2995, 1542.288
911.7816, 1540.645
912.2637, 1540.404
912.7458, 1540.738
913.2280, 1538.370
913.7101, 1532.891
914.1922, 1526.378
914.6743, 1520.630
915.1564, 1513.097
915.6385, 1496.014
916.1207, 1471.800
916.6028, 1449.538
917.0849, 1430.555
917.5670, 1417.294
918.0491, 1415.957
918.5313, 1420.842
919.0134, 1417.323
919.4955, 1402.209
919.9776, 1384.823
920.4597, 1364.286
920.9418, 1346.547
921.4240, 1347.804
921.9061, 1361.898
922.3882, 1366.497
922.8703, 1350.502
923.3524, 1330.098
923.8345, 1313.007
924.3167, 1298.779
924.7988, 1286.784
925.2809, 1276.793
925.7630, 1268.718
926.2451, 1262.398
926.7272, 1258.404
927.2094, 1262.265
927.6915, 1270.020
928.1736, 1261.533
928.6557, 1229.244
929.1378, 1200.328
929.6199, 1200.949
930.1021, 1212.188
930.5842, 1215.091
931.0663, 1201.196
931.5484, 1191.771
932.0305, 1188.426
932.5126, 1186.878
932.9948, 1183.660
933.4769, 1179.062
933.9590, 1175.913
934.4411, 1174.509
934.9232, 1169.465
935.4053, 1151.691
935.8875, 1132.281
936.3696, 1120.521
936.8517, 1118.379
937.3338, 1118.137
937.8159, 1122.226
938.2980, 1123.107
938.7802, 1114.954
939.2623, 1099.822
939.7444, 1090.445
940.2265, 1086.159
940.7086, 1081.520
941.1907, 1070.201
941.6729, 1059.615
942.1550, 1056.655
942.6371, 1060.320
943.1192, 1060.792
943.6013, 1055.998
944.0834, 1050.678
944.5656, 1046.006
945.0477, 1041.943
945.5298, 1038.972
946.0119, 1036.724
946.4940, 1032.900
946.9761, 1025.490
947.4583, 1017.263
947.9404, 1010.701
948.4225, 1004.663
948.9046, 996.2333
949.3867, 980.9348
949.8688, 971.5245
950.3510, 971.2949
950.8331, 975.1475
951.3152, 975.5364
951.7973, 972.7150
952.2794, 966.6750
952.7615, 955.1075
953.2437, 947.4142
953.7258, 955.4271
954.2079, 968.6982
954.6900, 975.6061
955.1721, 974.6702
955.6542, 966.6130
956.1364, 947.6220
956.6185, 929.4624
957.1006, 924.9860
957.5827, 930.7393
958.0648, 936.0396
958.5469, 940.1298
959.0291, 937.3000
959.5112, 917.1960
959.9933, 893.6266
960.4754, 875.4926
960.9575, 863.0889
961.4396, 862.3647
961.9218, 878.7437
962.4039, 891.4257
962.8860, 885.6685
963.3680, 867.9869
963.8502, 854.9216
964.3323, 846.9648
964.8144, 846.2697
965.2965, 864.2036
965.7786, 879.7422
966.2607, 879.7529
966.7429, 867.8079
967.2250, 860.1382
967.7071, 858.7618
968.1892, 853.8978
968.6713, 840.5723
969.1534, 825.6796
969.6356, 823.4913
970.1177, 829.7047
970.5998, 833.5757
971.0819, 825.8699
971.5640, 822.6957
972.0461, 837.3688
972.5283, 856.0822
973.0104, 860.0439
973.4925, 845.7006
973.9746, 834.4784
974.4567, 828.7256
974.9388, 824.7693
975.4210, 819.5522
975.9031, 812.9802
976.3852, 804.5626
976.8673, 793.8721
977.3494, 783.4485
977.8315, 771.2797
978.3137, 762.4106
978.7958, 759.4225
979.2779, 762.3175
979.7600, 773.3156
980.2421, 793.2563
980.7242, 808.6381
981.2064, 808.7747
981.6885, 800.3879
982.1706, 788.1163
982.6527, 773.3442
983.1348, 762.8802
983.6169, 759.4756
984.0991, 760.1779
984.5812, 765.6511
985.0633, 774.0073
985.5454, 781.4100
986.0275, 787.3398
986.5096, 785.7827
986.9918, 771.1215
987.4739, 753.4661
987.9560, 737.6959
988.4381, 726.4063
988.9202, 724.2963
989.4023, 743.0122
989.8845, 753.1567
990.3666, 751.1740
990.8487, 744.2830
991.3308, 741.6617
991.8129, 741.9323
992.2950, 738.2099
992.7772, 728.9707
993.2593, 721.8663
993.7414, 725.2999
994.2235, 730.7542
994.7056, 730.0765
995.1877, 721.2632
995.6699, 720.5306
996.1520, 730.5602
996.6341, 739.0901
997.1162, 737.3653
997.5983, 728.9697
998.0804, 721.6838
998.5626, 715.2061
999.0447, 707.7881
999.5268, 691.0302
1000.009, 681.5751
1000.491, 693.2690
1000.973, 715.6633
1001.455, 719.9424
1001.937, 703.7506
1002.419, 692.9449
1002.902, 696.4205
1003.384, 703.8142
1003.866, 701.2943
1004.348, 693.6697
1004.830, 688.6527
1005.312, 690.5808
1005.794, 690.8708
1006.276, 683.8065
1006.759, 679.9635
1007.241, 695.0610
1007.723, 726.7134
1008.205, 732.6764
1008.687, 709.9414
1009.169, 684.0486
1009.651, 672.9381
1010.133, 669.2477
1010.615, 667.9123
1011.098, 668.5337
1011.580, 670.1575
1012.062, 672.8550
1012.544, 676.1992
1013.026, 680.0901
1013.508, 684.4318
1013.990, 689.8994
1014.472, 695.7462
1014.955, 699.3796
1015.437, 700.9510
1015.919, 698.6007
1016.401, 685.0648
1016.883, 669.6021
1017.365, 669.8869
1017.847, 691.3393
1018.329, 699.7758
1018.811, 688.9129
1019.294, 672.8583
1019.776, 667.2169
1020.258, 667.3180
1020.740, 665.8060
1021.222, 660.3701
1021.704, 659.1179
1022.186, 669.8022
1022.668, 678.3872
1023.151, 675.3756
1023.633, 662.4295
1024.115, 660.2079
1024.597, 668.1048
1025.079, 675.3106
1025.561, 674.4257
1026.043, 670.9825
1026.525, 669.2305
1027.007, 668.5052
1027.490, 665.6812
1027.972, 658.2633
1028.454, 654.6233
1028.936, 657.3535
1029.418, 662.6708
1029.900, 666.3958
1030.382, 667.4835
1030.864, 661.9433
1031.346, 644.9366
1031.829, 632.7715
1032.311, 634.6874
1032.793, 643.0338
1033.275, 652.8090
1033.757, 665.0165
1034.239, 670.4460
1034.721, 668.8157
1035.203, 664.0104
1035.686, 658.0135
1036.168, 651.0116
1036.650, 640.5152
1037.132, 628.0093
1037.614, 623.7336
1038.096, 636.7568
1038.578, 647.3227
1039.060, 650.1376
1039.542, 648.4035
1040.025, 650.0326
1040.507, 653.8649
1040.989, 654.8605
1041.471, 650.0477
1041.953, 645.2421
1042.435, 643.7237
1042.917, 644.1062
1043.399, 645.2021
1043.881, 648.2324
1044.364, 646.1564
1044.846, 637.7368
1045.328, 630.7418
1045.810, 634.8176
1046.292, 643.0410
1046.774, 645.8038
1047.256, 642.7287
1047.738, 636.6326
1048.221, 621.4551
1048.703, 612.1066
1049.185, 614.2175
1049.667, 624.1181
1050.149, 631.6847
1050.631, 637.1714
1051.113, 642.5156
1051.595, 650.8355
1052.078, 654.6030
1052.560, 642.5361
1053.042, 625.5410
1053.524, 618.6016
1054.006, 627.7484
1054.488, 631.0344
1054.970, 627.4192
1055.452, 620.9949
1055.934, 612.0383
1056.417, 604.2471
1056.899, 606.7357
1057.381, 618.7799
1057.863, 625.0015
1058.345, 612.0795
1058.827, 601.4663
1059.309, 600.6526
1059.791, 606.6767
1060.273, 610.8584
1060.756, 613.1385
1061.238, 612.3221
1061.720, 605.8733
1062.202, 600.4632
1062.684, 603.5237
1063.166, 609.6264
1063.648, 611.6115
1064.130, 607.3906
1064.612, 603.8809
1065.095, 601.0453
1065.577, 599.1385
1066.059, 597.5298
1066.541, 597.4178
1067.023, 603.3129
1067.505, 614.3045
1067.987, 619.7170
1068.469, 608.2430
1068.952, 599.7645
1069.434, 602.9462
1069.916, 611.3544
1070.398, 602.2178
1070.880, 579.2259
1071.362, 569.1718
1071.844, 586.0400
1072.326, 604.5110
1072.808, 604.6902
1073.291, 597.7971
1073.773, 597.4435
1074.255, 607.5234
1074.737, 611.4008
1075.219, 608.0797
1075.701, 603.3129
1076.183, 600.8623
1076.665, 600.2310
1077.147, 601.1826
1077.630, 603.4534
1078.112, 605.5602
1078.594, 610.2002
1079.076, 609.9920
1079.558, 601.3148
1080.040, 588.9781
1080.522, 582.6627
1081.004, 581.7584
1081.487, 584.2173
1081.969, 590.7831
1082.451, 596.3807
1082.933, 596.5027
1083.415, 595.2795
1083.897, 596.8834
1084.379, 602.2105
1084.861, 602.8538
1085.344, 598.3648
1085.826, 594.0884
1086.308, 594.9207
1086.790, 596.9396
1087.272, 595.0642
1087.754, 590.4190
1088.236, 587.5305
1088.718, 587.5016
1089.200, 589.1315
1089.682, 593.6044
1090.165, 597.2789
1090.647, 592.7260
1091.129, 583.1005
1091.611, 576.3522
1092.093, 574.0552
1092.575, 574.2205
1093.057, 579.1539
1093.539, 583.1345
1094.022, 582.0292
1094.504, 576.5402
1094.986, 577.0922
1095.468, 583.2957
1095.950, 586.8739
1096.432, 580.4580
1096.914, 572.8036
1097.396, 569.9208
1097.879, 570.7785
1098.361, 573.8256
1098.843, 580.8223
1099.325, 583.3652
1099.807, 579.5657
1100.289, 576.0428
1100.771, 582.4174
1101.253, 592.5737
1101.735, 598.1890
1102.218, 598.4603
1102.700, 592.6801
1103.182, 574.2242
1103.664, 559.0662
1104.146, 552.3478
1104.628, 552.5966
1105.110, 558.3668
1105.592, 567.9948
1106.074, 574.9902
1106.557, 577.6723
1107.039, 576.2585
1107.521, 564.7145
1108.003, 553.5590
1108.485, 554.2725
1108.967, 568.9918
1109.449, 574.5078
1109.931, 570.2962
1110.414, 564.6771
1110.896, 562.1909
1111.378, 562.2949
1111.860, 566.4297
1112.342, 573.1636
1112.824, 575.9533
1113.306, 573.3190
1113.788, 570.1059
1114.271, 566.5555
1114.753, 564.7309
1115.235, 571.2104
1115.717, 580.1528
1116.199, 580.1891
1116.681, 565.9409
1117.163, 558.7947
1117.645, 568.5316
1118.127, 577.2387
1118.609, 573.5682
1119.092, 562.3138
1119.574, 565.3707
1120.056, 578.9921
1120.538, 586.6573
1121.020, 571.8246
1121.502, 559.5115
1121.984, 564.2651
1122.466, 573.7783
1122.949, 571.2936
1123.431, 556.2795
1123.913, 556.4896
1124.395, 575.1039
1124.877, 589.9921
1125.359, 576.5303
1125.841, 557.1415
1126.323, 549.3113
1126.806, 553.2516
1127.288, 557.2868
1127.770, 562.2121
1128.252, 563.5520
1128.734, 559.4801
1129.216, 552.4638
1129.698, 542.4432
1130.180, 532.9594
1130.662, 529.9748
1131.145, 537.6849
1131.627, 544.4271
1132.109, 550.6204
1132.591, 553.5623
1133.073, 548.0458
1133.555, 538.7957
1134.037, 543.7041
1134.519, 558.2616
1135.001, 564.4521
1135.484, 542.2332
1135.966, 526.0878
1136.448, 524.6625
1136.930, 532.4388
1137.412, 545.0081
1137.894, 560.8407
1138.376, 570.9908
1138.858, 574.3057
1139.340, 571.9623
1139.823, 558.2362
1140.305, 545.1732
1140.787, 540.4059
1141.269, 542.7887
1141.751, 548.2374
1142.233, 556.8788
1142.715, 563.1058
1143.197, 564.4261
1143.680, 563.9432
1144.162, 565.8033
1144.644, 566.9213
1145.126, 562.2733
1145.608, 548.6356
1146.090, 541.5544
1146.572, 541.4995
1147.054, 545.3387
1147.536, 554.6774
1148.019, 563.9586
1148.501, 564.5842
1148.983, 558.5674
1149.465, 552.5941
1149.947, 546.6469
1150.429, 543.9595
1150.911, 546.4611
1151.393, 548.8983
1151.875, 541.5646
1152.358, 530.2481
1152.840, 527.9575
1153.322, 536.3185
1153.804, 543.0759
1154.286, 543.2792
1154.768, 541.6837
1155.250, 539.2173
1155.732, 536.3347
1156.215, 534.1814
1156.697, 532.6877
1157.179, 531.6432
1157.661, 531.2850
1158.143, 530.6467
1158.625, 528.6064
1159.107, 526.7444
1159.589, 526.0669
1160.072, 526.5603
1160.554, 527.7629
1161.036, 529.7834
1161.518, 534.0386
1162.000, 545.5796
1162.482, 555.0672
1162.964, 556.9179
1163.446, 552.8311
1163.928, 544.3441
1164.411, 530.1953
1164.893, 525.3707
1165.375, 532.2746
1165.857, 537.8721
1166.339, 525.1216
1166.821, 510.8975
1167.303, 511.7461
1167.785, 526.7886
1168.267, 534.4219
1168.750, 533.0203
1169.232, 532.8729
1169.714, 537.2280
1170.196, 542.5661
1170.678, 545.7894
1171.160, 546.7281
1171.642, 544.5482
1172.124, 537.6406
1172.607, 533.9957
1173.089, 534.5662
1173.571, 535.8696
1174.053, 537.4089
1174.535, 537.3187
1175.017, 529.7823
1175.499, 518.2039
1175.981, 510.4315
1176.464, 509.8472
1176.946, 512.8663
1177.428, 521.2255
1177.910, 528.9038
1178.392, 526.8690
1178.874, 520.8439
1179.356, 527.7960
1179.838, 545.7661
1180.320, 555.7983
1180.802, 540.0083
1181.285, 530.1602
1181.767, 534.9258
1182.249, 546.3585
1182.731, 553.1078
1183.213, 555.4814
1183.695, 553.4826
1184.177, 546.6574
1184.659, 541.1639
1185.142, 540.4679
1185.624, 541.0785
1186.106, 542.0975
1186.588, 542.9255
1187.070, 539.9983
1187.552, 534.5801
1188.034, 532.7783
1188.516, 538.4986
1188.999, 543.8397
1189.481, 543.2112
1189.963, 542.2647
1190.445, 547.6019
1190.927, 558.5639
1191.409, 551.5924
1191.891, 528.9056
1192.373, 512.0976
1192.855, 515.2079
1193.338, 525.5217
1193.820, 545.2369
1194.302, 563.2507
1194.784, 560.6078
1195.266, 536.0018
1195.748, 527.2751
1196.230, 536.9832
1196.712, 546.2961
1197.194, 540.1609
1197.677, 529.5328
1198.159, 519.7155
1198.641, 511.9580
1199.123, 509.5361
1199.605, 512.7548
1200.087, 516.5011
1200.569, 519.5278
1201.051, 524.4042
1201.533, 535.8747
1202.016, 548.4164
1202.498, 558.3955
1202.980, 565.3260
1203.462, 563.9351
1203.944, 553.4987
1204.426, 541.1977
1204.908, 526.5755
1205.390, 517.3433
1205.873, 529.3452
1206.355, 547.1932
1206.837, 548.9112
1207.319, 528.5151
1207.801, 521.0646
1208.283, 528.0910
1208.765, 536.0984
1209.247, 537.0399
1209.729, 534.2252
1210.212, 527.7676
1210.694, 520.7740
1211.176, 520.5871
1211.658, 529.8164
1212.140, 538.0974
1212.622, 544.9741
1213.104, 550.3777
1213.586, 558.6716
1214.068, 562.1483
1214.551, 545.4520
1215.033, 514.6213
1215.515, 500.9274
1215.997, 511.3735
1216.479, 521.7278
1216.961, 528.7642
1217.443, 531.8856
1217.925, 528.0536
1218.408, 521.1866
1218.890, 514.5085
1219.372, 508.5967
1219.854, 509.4578
1220.336, 519.3663
1220.818, 527.8795
1221.300, 530.6499
1221.782, 533.2869
1222.265, 550.4037
1222.747, 569.1151
1223.229, 568.4865
1223.711, 536.7125
1224.193, 522.8497
1224.675, 531.9856
1225.157, 541.4398
1225.639, 539.1646
1226.121, 531.7769
1226.604, 528.2866
1227.086, 527.1330
1227.568, 525.4722
1228.050, 522.1249
1228.532, 519.2028
1229.014, 516.2072
1229.496, 515.5339
1229.978, 520.6507
1230.460, 528.0743
1230.943, 534.2151
1231.425, 538.3960
1231.907, 538.5878
1232.389, 532.9796
1232.871, 526.1683
1233.353, 517.0082
1233.835, 512.2457
1234.317, 524.8409
1234.800, 541.8719
1235.282, 543.7446
1235.764, 532.6329
1236.246, 532.3178
1236.728, 551.5923
1237.210, 561.1902
1237.692, 554.9476
1238.174, 540.7954
1238.656, 521.8411
1239.139, 505.1513
1239.621, 501.9490
1240.103, 513.6812
1240.585, 522.4329
1241.067, 527.0380
1241.549, 529.8325
1242.031, 530.8811
1242.513, 532.0709
1242.995, 536.9177
1243.478, 542.9711
1243.960, 547.0867
1244.442, 548.5706
1244.924, 549.4586
1245.406, 550.5211
1245.888, 546.9886
1246.370, 533.6355
1246.852, 519.1948
1247.335, 514.9256
1247.817, 517.1288
1248.299, 520.4310
1248.781, 524.3439
1249.263, 528.7560
1249.745, 533.8782
1250.227, 537.8385
1250.709, 539.0796
1251.192, 538.8663
1251.674, 539.3343
1252.156, 539.1326
1252.638, 534.8964
1253.120, 524.8300
1253.602, 517.8680
1254.084, 514.4723
1254.566, 513.5549
1255.048, 515.1901
1255.531, 518.0799
1256.013, 521.3173
1256.495, 524.8600
1256.977, 529.1159
1257.459, 534.7889
1257.941, 535.7903
1258.423, 530.9152
1258.905, 526.6102
1259.387, 528.7144
1259.870, 533.5885
1260.352, 539.9874
1260.834, 546.5281
1261.316, 548.5362
1261.798, 545.8513
1262.280, 541.4933
1262.762, 535.6487
1263.244, 530.6786
1263.726, 528.0652
1264.209, 527.6694
1264.691, 529.8745
1265.173, 534.1764
1265.655, 539.6466
1266.137, 546.1595
1266.619, 551.6214
1267.101, 557.1025
1267.583, 555.3619
1268.066, 529.9872
1268.548, 506.2758
1269.030, 503.9774
1269.512, 519.2587
1269.994, 525.5378
1270.476, 524.0919
1270.958, 524.4935
1271.440, 532.7750
1271.922, 537.9923
1272.405, 532.9493
1272.887, 524.1743
1273.369, 514.2440
1273.851, 504.1892
1274.333, 503.7765
1274.815, 511.0364
1275.297, 516.6140
1275.779, 514.5590
##END=



