##NAMES=Finnemanite
##RRUFFID=R140329
##IDEAL CHEMISTRY=Pb^2+^_5_(As^3+^O_3_)_3_Cl
##LOCALITY=LÃ¥ngban, Varmland, Sweden
##OWNER=RRUFF
##SOURCE=Benjamin N. Schumer
##DESCRIPTION=Dark grey prismatic crystals, associated with hematite
##STATUS=The identification of this mineral has been confirmed by single-crystal X-ray diffraction.
##URL=rruff.info/R140329
173.1594, 461.8015
173.6415, 461.5034
174.1236, 460.3862
174.6057, 458.4977
175.0878, 456.1457
175.5699, 453.5530
176.0521, 450.1032
176.5342, 445.4355
177.0163, 439.8397
177.4984, 433.8642
177.9805, 427.8900
178.4626, 421.9071
178.9448, 415.4214
179.4269, 407.7435
179.9090, 400.2309
180.3911, 393.5388
180.8732, 387.4023
181.3553, 381.1271
181.8375, 374.0475
182.3196, 366.0151
182.8017, 358.7074
183.2838, 352.3194
183.7659, 346.2936
184.2480, 340.4854
184.7301, 334.8414
185.2123, 329.2606
185.6944, 323.6393
186.1765, 317.9538
186.6586, 312.7274
187.1407, 308.1282
187.6228, 303.8858
188.1050, 299.8239
188.5871, 295.9382
189.0692, 292.2525
189.5513, 288.7744
190.0334, 285.5344
190.5155, 282.6470
190.9977, 280.3646
191.4798, 278.3493
191.9619, 276.2742
192.4440, 274.1199
192.9261, 271.7878
193.4082, 268.8458
193.8904, 265.5371
194.3725, 262.7605
194.8546, 261.1278
195.3367, 260.1483
195.8188, 258.8427
196.3009, 257.0496
196.7831, 255.1037
197.2652, 253.1620
197.7473, 251.2475
198.2294, 249.4836
198.7115, 247.9570
199.1936, 246.6301
199.6758, 245.3491
200.1579, 244.0462
200.6400, 242.8942
201.1221, 242.0224
201.6042, 241.3609
202.0863, 240.7524
202.5685, 240.1376
203.0506, 239.5083
203.5327, 238.7199
204.0148, 237.7022
204.4969, 236.5822
204.9790, 235.3309
205.4612, 234.0169
205.9433, 232.7772
206.4254, 231.7650
206.9075, 230.9995
207.3896, 230.0874
207.8717, 228.6990
208.3539, 227.4582
208.8360, 226.7219
209.3181, 226.3400
209.8002, 225.8982
210.2823, 225.0219
210.7644, 223.6745
211.2466, 222.2490
211.7287, 220.4906
212.2108, 218.8967
212.6929, 217.6747
213.1750, 216.8047
213.6571, 216.1449
214.1393, 215.5877
214.6214, 215.1557
215.1035, 214.6665
215.5856, 214.1617
216.0677, 213.5801
216.5498, 212.8021
217.0320, 211.8839
217.5141, 211.0471
217.9962, 210.5289
218.4783, 210.3887
218.9604, 210.0052
219.4425, 208.8098
219.9247, 207.8517
220.4068, 208.0445
220.8889, 209.2852
221.3710, 210.4732
221.8531, 210.5735
222.3352, 209.5014
222.8174, 209.0269
223.2995, 209.6973
223.7816, 210.5550
224.2637, 210.7540
224.7458, 210.2845
225.2279, 209.9438
225.7100, 210.5043
226.1922, 211.8417
226.6743, 212.8122
227.1564, 212.8896
227.6385, 212.8546
228.1206, 213.5543
228.6027, 215.0495
229.0849, 216.4897
229.5670, 217.1138
230.0491, 217.1955
230.5312, 217.5077
231.0133, 218.3028
231.4954, 219.3122
231.9776, 220.1667
232.4597, 220.8130
232.9418, 221.6923
233.4239, 223.5818
233.9060, 225.8048
234.3881, 227.2369
234.8703, 227.1067
235.3524, 226.4810
235.8345, 226.9314
236.3166, 228.7292
236.7987, 230.4908
237.2808, 231.3904
237.7630, 231.8952
238.2451, 232.5029
238.7272, 233.4053
239.2093, 234.4168
239.6914, 235.2351
240.1735, 235.8220
240.6557, 236.3403
241.1378, 236.9140
241.6199, 237.4287
242.1020, 237.7350
242.5841, 237.7492
243.0662, 237.6346
243.5484, 237.7418
244.0305, 238.2762
244.5126, 238.4550
244.9947, 237.9318
245.4768, 237.0675
245.9589, 236.1738
246.4410, 235.3617
246.9232, 234.4666
247.4053, 233.1349
247.8874, 231.1501
248.3695, 229.2473
248.8516, 227.6120
249.3337, 226.0710
249.8159, 224.5686
250.2980, 223.0722
250.7801, 221.4486
251.2622, 219.4171
251.7443, 216.7789
252.2264, 214.1864
252.7086, 211.7614
253.1907, 209.3542
253.6728, 206.8463
254.1549, 204.2127
254.6370, 201.4940
255.1191, 198.7182
255.6013, 195.8293
256.0834, 193.0245
256.5655, 190.3527
257.0476, 187.7195
257.5297, 184.9691
258.0118, 182.1213
258.4940, 179.3902
258.9761, 177.0812
259.4582, 175.3470
259.9403, 173.6858
260.4224, 172.1859
260.9045, 170.6651
261.3867, 169.0141
261.8688, 167.2187
262.3509, 165.3452
262.8330, 163.4285
263.3151, 161.3756
263.7972, 159.6553
264.2794, 158.3790
264.7615, 157.2734
265.2436, 156.2053
265.7257, 155.1673
266.2078, 154.2262
266.6899, 153.4649
267.1721, 152.9291
267.6542, 152.2871
268.1363, 151.5305
268.6184, 150.7000
269.1005, 149.7465
269.5826, 148.7200
270.0648, 147.7529
270.5469, 146.9406
271.0290, 146.2871
271.5111, 145.8590
271.9932, 145.8988
272.4753, 145.8772
272.9575, 145.5237
273.4396, 144.9155
273.9217, 144.2906
274.4038, 143.8037
274.8859, 143.4458
275.3680, 143.1162
275.8501, 142.8437
276.3322, 142.5619
276.8144, 142.1532
277.2965, 141.7151
277.7786, 141.5063
278.2607, 141.7122
278.7428, 142.1891
279.2249, 142.3010
279.7071, 141.7820
280.1892, 141.2919
280.6713, 140.9990
281.1534, 140.8444
281.6355, 140.7009
282.1176, 140.4977
282.5998, 140.3256
283.0819, 140.4635
283.5640, 141.1412
284.0461, 141.6479
284.5282, 141.7389
285.0103, 141.5979
285.4925, 141.4649
285.9746, 141.4089
286.4567, 141.4391
286.9388, 141.5883
287.4209, 141.8749
287.9030, 142.1956
288.3852, 142.5417
288.8673, 142.9096
289.3494, 143.3416
289.8315, 143.8547
290.3136, 144.2807
290.7957, 144.3321
291.2779, 143.9270
291.7600, 143.8223
292.2421, 144.2432
292.7242, 144.9132
293.2063, 145.6476
293.6884, 146.4184
294.1706, 147.0664
294.6527, 147.3839
295.1348, 147.3691
295.6169, 147.5443
296.0990, 148.0277
296.5811, 148.6353
297.0633, 149.2229
297.5454, 149.7879
298.0275, 150.4215
298.5096, 151.2015
298.9917, 152.1126
299.4738, 153.0076
299.9560, 153.9164
300.4381, 154.7743
300.9202, 155.5122
301.4023, 156.1551
301.8844, 156.8253
302.3665, 157.5781
302.8487, 158.4161
303.3308, 159.3432
303.8129, 160.4377
304.2950, 161.4921
304.7771, 162.3479
305.2592, 163.0889
305.7414, 163.9405
306.2235, 165.0012
306.7056, 166.1853
307.1877, 167.3535
307.6698, 168.5528
308.1519, 169.6007
308.6341, 170.2702
309.1162, 170.7831
309.5983, 171.5528
310.0804, 172.7171
310.5625, 173.9970
311.0446, 174.9415
311.5268, 175.5289
312.0089, 176.3759
312.4910, 178.0720
312.9731, 179.8736
313.4552, 180.6905
313.9373, 180.3255
314.4195, 179.9438
314.9016, 180.7002
315.3837, 182.5378
315.8658, 184.1950
316.3479, 185.6057
316.8300, 186.7735
317.3121, 187.5771
317.7943, 188.0522
318.2764, 188.5950
318.7585, 189.5420
319.2406, 190.7616
319.7227, 191.6448
320.2048, 191.9502
320.6870, 192.1740
321.1691, 192.6282
321.6512, 193.2377
322.1333, 193.7070
322.6154, 193.8256
323.0975, 193.8077
323.5797, 194.2232
324.0618, 195.2798
324.5439, 196.2450
325.0260, 196.7720
325.5081, 197.0482
325.9902, 197.4489
326.4724, 198.1112
326.9545, 198.8591
327.4366, 199.3528
327.9187, 199.4970
328.4008, 199.9496
328.8829, 201.2186
329.3651, 202.6777
329.8472, 203.4810
330.3293, 203.4814
330.8114, 203.3803
331.2935, 203.8955
331.7756, 205.0869
332.2578, 206.1873
332.7399, 207.1171
333.2220, 207.9814
333.7041, 208.8354
334.1862, 209.6850
334.6683, 210.5781
335.1505, 211.5748
335.6326, 212.6398
336.1147, 213.5094
336.5968, 214.0405
337.0789, 214.5636
337.5610, 215.2325
338.0432, 216.0040
338.5253, 216.7908
339.0074, 217.5761
339.4895, 218.3007
339.9716, 218.7489
340.4537, 218.6064
340.9359, 218.7929
341.4180, 219.6559
341.9001, 220.8828
342.3822, 222.1175
342.8643, 223.2543
343.3464, 224.2891
343.8286, 225.2034
344.3107, 225.9479
344.7928, 226.6920
345.2749, 227.2175
345.7570, 227.8864
346.2391, 229.0869
346.7213, 230.7811
347.2034, 232.5684
347.6855, 234.1022
348.1676, 235.3785
348.6497, 236.4006
349.1318, 236.8586
349.6140, 237.4146
350.0961, 238.4418
350.5782, 239.7863
351.0603, 241.1213
351.5424, 242.2790
352.0245, 243.2166
352.5067, 243.7378
352.9888, 243.3382
353.4709, 243.1490
353.9530, 243.4848
354.4351, 244.0315
354.9172, 244.4401
355.3994, 244.5865
355.8815, 244.5491
356.3636, 244.4521
356.8457, 244.2444
357.3278, 244.0824
357.8099, 244.0145
358.2920, 243.9517
358.7741, 243.8200
359.2563, 243.6227
359.7384, 243.4326
360.2205, 243.3328
360.7026, 243.3462
361.1847, 243.2237
361.6668, 242.8366
362.1490, 242.4564
362.6311, 242.1238
363.1132, 241.8671
363.5953, 241.7276
364.0774, 241.7320
364.5595, 241.8653
365.0417, 242.0606
365.5238, 242.2296
366.0059, 242.6062
366.4880, 243.4302
366.9701, 244.3549
367.4522, 245.0352
367.9344, 245.3627
368.4165, 245.4967
368.8986, 245.6655
369.3807, 245.8591
369.8628, 246.1210
370.3449, 246.6796
370.8271, 247.1150
371.3092, 247.0627
371.7913, 246.6206
372.2734, 246.2668
372.7555, 246.5309
373.2376, 247.3794
373.7198, 247.6941
374.2019, 247.1643
374.6840, 246.4295
375.1661, 245.5657
375.6482, 244.6797
376.1303, 243.9514
376.6125, 243.4978
377.0946, 243.1671
377.5767, 242.6262
378.0588, 241.8465
378.5409, 240.9322
379.0230, 239.8128
379.5052, 238.6322
379.9873, 237.4649
380.4694, 236.3287
380.9515, 235.2853
381.4336, 234.4872
381.9157, 233.9246
382.3979, 233.1562
382.8800, 232.0231
383.3621, 230.7813
383.8442, 229.5732
384.3263, 228.4082
384.8084, 227.2794
385.2906, 225.9870
385.7727, 224.7729
386.2548, 224.3477
386.7369, 224.9668
387.2190, 225.4583
387.7011, 225.0338
388.1833, 224.0871
388.6654, 223.1113
389.1475, 222.1354
389.6296, 221.2622
390.1117, 220.5930
390.5938, 220.1137
391.0760, 219.7747
391.5581, 219.6845
392.0402, 219.5679
392.5223, 218.9646
393.0044, 217.8310
393.4865, 216.8548
393.9687, 216.4010
394.4508, 216.2420
394.9329, 216.0353
395.4150, 215.7285
395.8971, 215.4122
396.3792, 215.2392
396.8614, 215.1611
397.3435, 214.7413
397.8256, 213.4830
398.3077, 212.2926
398.7898, 211.7973
399.2719, 211.8869
399.7540, 212.1902
400.2361, 212.6112
400.7183, 212.9844
401.2004, 212.7901
401.6825, 211.9377
402.1646, 210.7910
402.6467, 209.0155
403.1288, 207.1558
403.6110, 205.8534
404.0931, 205.2538
404.5752, 205.0905
405.0573, 205.1193
405.5394, 205.4445
406.0215, 205.3970
406.5037, 204.6544
406.9858, 203.8968
407.4679, 203.5286
407.9500, 203.4263
408.4321, 203.2135
408.9142, 202.6414
409.3964, 201.7971
409.8785, 201.0720
410.3606, 200.4990
410.8427, 200.0200
411.3248, 199.6857
411.8069, 199.4097
412.2891, 199.1811
412.7712, 198.9675
413.2533, 198.6128
413.7354, 197.8361
414.2175, 196.4522
414.6996, 195.3745
415.1818, 194.9323
415.6639, 194.5014
416.1460, 193.7211
416.6281, 192.7496
417.1102, 192.0212
417.5923, 191.8575
418.0745, 192.0913
418.5566, 192.1525
419.0387, 192.0032
419.5208, 191.7608
420.0029, 191.5036
420.4850, 191.1580
420.9672, 190.5780
421.4493, 189.7198
421.9314, 188.9089
422.4135, 188.5588
422.8956, 188.6426
423.3777, 188.5806
423.8599, 188.2596
424.3420, 187.8068
424.8241, 187.2458
425.3062, 186.6269
425.7883, 186.1352
426.2704, 185.9559
426.7526, 185.8987
427.2347, 185.6452
427.7168, 185.1774
428.1989, 184.7696
428.6810, 184.5206
429.1631, 184.4648
429.6453, 184.6636
430.1274, 185.3007
430.6095, 185.7753
431.0916, 185.6174
431.5737, 185.1118
432.0558, 184.8220
432.5380, 184.8924
433.0201, 185.1662
433.5022, 185.4939
433.9843, 185.8836
434.4664, 186.2565
434.9485, 186.7389
435.4307, 187.0927
435.9128, 186.8997
436.3949, 186.3865
436.8770, 186.3884
437.3591, 187.4831
437.8412, 189.2706
438.3234, 190.2020
438.8055, 189.3038
439.2876, 188.7866
439.7697, 188.9814
440.2518, 189.5162
440.7339, 190.0256
441.2160, 190.4453
441.6982, 190.9924
442.1803, 191.9546
442.6624, 193.4256
443.1445, 194.6533
443.6266, 195.5344
444.1087, 196.2739
444.5909, 196.6678
445.0730, 197.0074
445.5551, 197.8042
446.0372, 199.3518
446.5193, 201.3042
447.0014, 202.8892
447.4836, 203.9920
447.9657, 205.0618
448.4478, 206.0748
448.9299, 207.1632
449.4120, 208.6570
449.8941, 210.4533
450.3763, 211.7978
450.8584, 211.9676
451.3405, 211.1767
451.8226, 210.3596
452.3047, 209.6539
452.7868, 208.6243
453.2690, 206.7353
453.7511, 204.4233
454.2332, 202.3062
454.7153, 200.6360
455.1974, 198.9624
455.6795, 196.8328
456.1617, 194.3583
456.6438, 191.9847
457.1259, 189.8445
457.6080, 187.8282
458.0901, 185.7508
458.5722, 183.6034
459.0544, 181.6946
459.5365, 180.1894
460.0186, 178.8754
460.5007, 177.6376
460.9828, 176.4406
461.4649, 175.1528
461.9471, 173.6321
462.4292, 172.0104
462.9113, 170.8134
463.3934, 170.6360
463.8755, 170.0746
464.3576, 168.5383
464.8398, 166.7696
465.3219, 165.5300
465.8040, 164.9576
466.2861, 164.7261
466.7682, 164.5132
467.2503, 164.3326
467.7325, 164.0159
468.2146, 163.5952
468.6967, 162.9973
469.1788, 162.0092
469.6609, 160.8823
470.1430, 159.9737
470.6252, 159.4400
471.1073, 159.1790
471.5894, 159.0730
472.0715, 159.1939
472.5536, 159.1563
473.0357, 158.8797
473.5179, 158.4383
474.0000, 157.7385
474.4821, 156.8751
474.9642, 156.1772
475.4463, 155.9708
475.9284, 156.0195
476.4106, 155.7528
476.8927, 155.1075
477.3748, 154.5530
477.8569, 154.3935
478.3390, 154.4093
478.8211, 154.2701
479.3033, 153.9609
479.7854, 153.5023
480.2675, 152.7357
480.7496, 151.8674
481.2317, 151.3389
481.7138, 151.2410
482.1959, 151.1578
482.6780, 150.6683
483.1602, 149.7868
483.6423, 149.2124
484.1244, 149.2355
484.6065, 149.2323
485.0886, 148.9329
485.5707, 148.4382
486.0529, 147.9267
486.5350, 147.4647
487.0171, 147.0252
487.4992, 146.5515
487.9813, 145.9471
488.4634, 145.5788
488.9456, 145.7500
489.4277, 145.8296
489.9098, 145.4946
490.3919, 144.8200
490.8740, 143.9996
491.3561, 143.1224
491.8383, 142.2611
492.3204, 141.6314
492.8025, 141.3003
493.2846, 141.0179
493.7667, 140.7519
494.2488, 140.5052
494.7310, 140.3169
495.2131, 140.1720
495.6952, 139.9558
496.1773, 139.5994
496.6594, 139.1127
497.1415, 138.5001
497.6237, 137.7386
498.1058, 136.9557
498.5879, 136.1650
499.0700, 135.4151
499.5521, 134.7717
500.0342, 134.1891
500.5164, 133.8293
500.9985, 134.0473
501.4806, 134.4683
501.9627, 134.3276
502.4448, 133.4633
502.9269, 132.4975
503.4091, 132.0497
503.8912, 132.1410
504.3733, 131.9689
504.8554, 131.3850
505.3375, 130.7365
505.8196, 130.0846
506.3018, 129.4647
506.7839, 128.9241
507.2660, 128.4791
507.7481, 128.1124
508.2302, 127.8387
508.7123, 127.7637
509.1945, 127.3952
509.6766, 126.2002
510.1587, 125.2456
510.6408, 125.1898
511.1229, 125.6380
511.6050, 125.7868
512.0872, 125.1928
512.5693, 124.2527
513.0514, 123.7265
513.5335, 123.6889
514.0156, 123.4619
514.4977, 122.7123
514.9799, 121.9129
515.4620, 121.5171
515.9441, 121.4627
516.4262, 121.3144
516.9083, 120.7818
517.3904, 120.1167
517.8726, 119.6496
518.3547, 119.3727
518.8368, 119.1038
519.3189, 118.7529
519.8010, 118.3638
520.2831, 118.0472
520.7653, 117.8204
521.2474, 117.5938
521.7295, 117.3707
522.2116, 117.1303
522.6937, 116.8179
523.1758, 116.4589
523.6580, 116.1701
524.1401, 116.0472
524.6222, 116.0521
525.1043, 115.9951
525.5864, 116.0619
526.0685, 115.7741
526.5507, 114.7779
527.0328, 113.6482
527.5149, 112.8238
527.9970, 112.3671
528.4791, 112.1160
528.9612, 111.9933
529.4434, 111.9635
529.9255, 111.7904
530.4076, 111.4218
530.8897, 111.0326
531.3718, 110.6987
531.8539, 110.3823
532.3361, 110.0111
532.8182, 109.5533
533.3003, 109.1945
533.7824, 109.1240
534.2645, 109.2241
534.7466, 109.2385
535.2288, 109.1300
535.7109, 108.9983
536.1930, 108.9361
536.6751, 108.9146
537.1572, 108.7702
537.6393, 108.4425
538.1215, 108.0777
538.6036, 107.5815
539.0857, 107.1318
539.5678, 107.0706
540.0499, 107.4103
540.5320, 107.6813
541.0142, 107.3494
541.4963, 106.3907
541.9784, 105.6804
542.4604, 105.2551
542.9426, 105.0671
543.4247, 105.4117
543.9068, 105.8426
544.3889, 105.7850
544.8710, 105.1079
545.3531, 104.3182
545.8353, 104.0042
546.3174, 104.1209
546.7995, 104.1340
547.2816, 103.9473
547.7637, 103.7991
548.2458, 103.8985
548.7280, 104.1212
549.2101, 104.2822
549.6922, 104.3695
550.1743, 104.3497
550.6564, 104.1252
551.1385, 103.7918
551.6207, 103.5428
552.1028, 103.4184
552.5849, 103.3757
553.0670, 103.3791
553.5491, 103.4297
554.0313, 103.5243
554.5134, 103.7630
554.9955, 103.9212
555.4776, 103.8969
555.9597, 103.7780
556.4418, 103.6316
556.9240, 103.4937
557.4061, 103.4437
557.8882, 103.5917
558.3703, 103.9444
558.8524, 104.2799
559.3345, 104.5766
559.8167, 104.8836
560.2988, 105.2062
560.7809, 105.5513
561.2630, 105.9655
561.7451, 106.4730
562.2272, 106.8948
562.7094, 106.9160
563.1915, 106.7147
563.6736, 106.9610
564.1557, 107.8108
564.6378, 108.7080
565.1199, 109.2493
565.6021, 109.5056
566.0842, 109.8398
566.5663, 110.2395
567.0484, 110.7321
567.5305, 111.3858
568.0126, 112.1093
568.4948, 112.8209
568.9769, 113.4890
569.4590, 114.0730
569.9411, 114.5057
570.4232, 114.8034
570.9053, 115.2524
571.3875, 115.9809
571.8696, 116.6972
572.3517, 117.4753
572.8338, 118.1516
573.3159, 118.5982
573.7980, 118.7888
574.2802, 118.7390
574.7623, 118.3237
575.2444, 117.6628
575.7265, 117.3085
576.2086, 117.3534
576.6907, 117.3220
577.1729, 117.0135
577.6550, 116.4759
578.1371, 115.7822
578.6192, 114.8927
579.1013, 114.0349
579.5834, 113.4731
580.0656, 112.8826
580.5477, 111.8055
581.0298, 110.2763
581.5119, 108.7032
581.9940, 107.3327
582.4761, 106.1278
582.9583, 104.9558
583.4404, 103.7766
583.9225, 102.6917
584.4046, 101.7838
584.8867, 100.8918
585.3688, 99.82197
585.8510, 98.66148
586.3331, 97.70592
586.8152, 97.18149
587.2973, 96.90044
587.7794, 96.45850
588.2615, 95.84566
588.7437, 95.11430
589.2258, 94.12395
589.7079, 93.18625
590.1900, 92.69876
590.6721, 92.57396
591.1542, 92.23941
591.6364, 91.22494
592.1185, 90.18392
592.6006, 89.79576
593.0827, 89.85705
593.5648, 89.70311
594.0469, 89.07932
594.5291, 88.32593
595.0112, 87.92992
595.4933, 87.99653
595.9754, 87.94687
596.4575, 87.65542
596.9396, 87.40539
597.4218, 87.35411
597.9039, 87.38524
598.3860, 87.33918
598.8681, 87.15968
599.3502, 86.87915
599.8323, 86.48847
600.3145, 85.99384
600.7966, 85.61228
601.2787, 85.36260
601.7608, 85.20832
602.2429, 85.23621
602.7250, 85.31479
603.2072, 85.20853
603.6893, 84.79756
604.1714, 84.47454
604.6535, 84.53125
605.1356, 84.75501
605.6177, 84.83356
606.0999, 84.73610
606.5820, 84.59356
607.0641, 84.48918
607.5462, 84.42744
608.0283, 84.43199
608.5104, 84.67039
608.9926, 84.72972
609.4747, 84.36217
609.9568, 84.00642
610.4389, 84.04646
610.9210, 84.39949
611.4031, 84.68628
611.8853, 84.65659
612.3674, 84.43294
612.8495, 84.20625
613.3316, 83.95506
613.8137, 83.98409
614.2958, 84.55463
614.7780, 85.18308
615.2601, 85.30164
615.7422, 85.00596
616.2243, 84.87200
616.7064, 85.18008
617.1885, 85.52076
617.6707, 85.65285
618.1528, 85.62303
618.6349, 85.47385
619.1170, 85.22903
619.5991, 85.07261
620.0812, 85.24501
620.5634, 85.77502
621.0455, 86.20750
621.5276, 86.42899
622.0097, 86.69292
622.4918, 87.17477
622.9739, 87.65432
623.4561, 87.85664
623.9382, 87.74805
624.4203, 87.60912
624.9023, 87.64111
625.3845, 87.81959
625.8666, 88.08594
626.3487, 88.44100
626.8308, 88.89151
627.3129, 89.53556
627.7950, 90.18786
628.2772, 90.39806
628.7593, 90.00932
629.2414, 89.98136
629.7235, 90.75432
630.2056, 91.66294
630.6877, 92.23495
631.1699, 92.56588
631.6520, 93.01675
632.1341, 93.75172
632.6162, 94.50063
633.0983, 94.75672
633.5804, 94.40546
634.0626, 94.15012
634.5447, 93.97922
635.0268, 93.94467
635.5089, 94.04551
635.9910, 94.28958
636.4731, 94.75136
636.9553, 95.51983
637.4374, 96.17282
637.9195, 96.37871
638.4016, 96.26920
638.8837, 96.08393
639.3658, 95.85015
639.8480, 95.47955
640.3301, 94.87093
640.8122, 94.13238
641.2943, 93.62635
641.7764, 93.70715
642.2585, 93.49516
642.7407, 92.72866
643.2228, 91.90295
643.7049, 91.42785
644.1870, 91.15444
644.6691, 90.61946
645.1512, 89.55202
645.6334, 88.26206
646.1155, 87.22662
646.5976, 86.44460
647.0797, 85.77268
647.5618, 85.20065
648.0439, 84.72368
648.5261, 84.45513
649.0082, 84.28154
649.4903, 83.83957
649.9724, 82.86451
650.4545, 81.98759
650.9366, 81.51050
651.4188, 81.23788
651.9009, 80.96854
652.3830, 80.66566
652.8651, 80.36015
653.3472, 80.07883
653.8293, 79.80479
654.3115, 79.46889
654.7936, 79.05358
655.2757, 78.62082
655.7578, 78.05688
656.2399, 77.58511
656.7220, 77.40749
657.2042, 77.43267
657.6863, 77.37759
658.1684, 77.11869
658.6505, 76.76633
659.1326, 76.41578
659.6147, 76.05560
660.0969, 75.62446
660.5790, 75.10706
661.0611, 74.61875
661.5432, 74.25347
662.0253, 74.00760
662.5074, 73.84574
662.9896, 73.88474
663.4717, 73.85458
663.9538, 73.65839
664.4359, 73.44197
664.9180, 73.34409
665.4001, 73.34285
665.8823, 73.31039
666.3644, 73.17226
666.8465, 72.94965
667.3286, 72.63409
667.8107, 72.23112
668.2928, 71.95977
668.7750, 71.92055
669.2571, 71.89842
669.7392, 71.64964
670.2213, 71.20946
670.7034, 70.95092
671.1855, 70.96064
671.6677, 71.05162
672.1498, 71.35391
672.6319, 71.59595
673.1140, 71.39102
673.5961, 70.77006
674.0782, 70.13909
674.5604, 69.79464
675.0425, 69.68697
675.5246, 69.68351
676.0067, 69.82549
676.4888, 69.89187
676.9709, 69.83688
677.4531, 69.69421
677.9352, 69.39629
678.4173, 69.02283
678.8994, 68.87830
679.3815, 69.27551
679.8636, 69.60537
680.3458, 69.39910
680.8279, 68.93582
681.3100, 68.65337
681.7921, 68.62302
682.2742, 68.65587
682.7563, 68.59171
683.2385, 68.46969
683.7206, 68.51240
684.2027, 68.89845
684.6848, 69.05659
685.1669, 68.66799
685.6490, 68.24326
686.1312, 68.12163
686.6133, 68.21222
687.0954, 68.18658
687.5775, 67.82462
688.0596, 67.48329
688.5417, 67.59728
689.0239, 67.95576
689.5060, 68.01639
689.9881, 67.68913
690.4702, 67.35567
690.9523, 67.31901
691.4344, 67.52082
691.9166, 67.66904
692.3987, 67.78878
692.8808, 67.80991
693.3629, 67.57901
693.8450, 67.39315
694.3271, 67.45231
694.8093, 67.70502
695.2914, 67.98953
695.7735, 68.23613
696.2556, 68.48579
696.7377, 68.80219
697.2198, 69.16108
697.7020, 69.47231
698.1841, 69.71622
698.6662, 69.96873
699.1483, 70.28460
699.6304, 70.64806
700.1125, 70.99462
700.5947, 71.22769
701.0768, 71.59304
701.5589, 72.19901
702.0410, 72.84030
702.5231, 73.39541
703.0052, 73.88508
703.4874, 74.36240
703.9695, 74.83732
704.4516, 75.39298
704.9337, 76.17149
705.4158, 77.12383
705.8979, 78.00750
706.3801, 78.78542
706.8622, 79.58051
707.3442, 80.45580
707.8264, 81.40747
708.3085, 82.42913
708.7906, 83.50546
709.2727, 84.68580
709.7548, 86.03027
710.2369, 87.43309
710.7191, 88.80433
711.2012, 90.19254
711.6833, 91.66657
712.1654, 93.26287
712.6475, 94.99790
713.1296, 96.98142
713.6118, 99.14816
714.0939, 101.1419
714.5760, 102.8994
715.0581, 104.7481
715.5402, 106.7913
716.0223, 109.0255
716.5045, 111.5013
716.9866, 114.2469
717.4687, 116.9900
717.9508, 119.4226
718.4329, 122.1427
718.9150, 125.7744
719.3972, 129.7397
719.8793, 133.1100
720.3614, 135.7028
720.8435, 138.2955
721.3256, 141.6887
721.8077, 145.6941
722.2899, 149.5534
722.7720, 153.2831
723.2541, 156.9055
723.7362, 160.3503
724.2183, 163.7849
724.7004, 167.3906
725.1826, 171.1913
725.6647, 174.9355
726.1468, 178.5195
726.6289, 182.1765
727.1110, 186.1482
727.5931, 190.1520
728.0753, 193.8010
728.5574, 197.0779
729.0395, 200.2860
729.5216, 203.7527
730.0037, 207.0982
730.4858, 209.3306
730.9680, 210.4079
731.4501, 211.5785
731.9322, 213.3189
732.4143, 214.6558
732.8964, 214.8563
733.3785, 213.9456
733.8607, 212.3324
734.3428, 210.0359
734.8249, 207.0403
735.3070, 203.2744
735.7891, 198.8462
736.2712, 193.6489
736.7534, 187.8514
737.2355, 181.8236
737.7176, 175.6894
738.1997, 169.4250
738.6818, 162.8921
739.1639, 156.1399
739.6461, 149.4729
740.1282, 142.9012
740.6103, 136.5954
741.0924, 130.6945
741.5745, 125.1260
742.0566, 119.7215
742.5388, 114.3953
743.0209, 109.4775
743.5030, 105.0927
743.9851, 101.0208
744.4672, 97.22688
744.9493, 93.63811
745.4315, 90.09789
745.9136, 86.60080
746.3957, 83.38740
746.8778, 80.79936
747.3599, 78.67591
747.8420, 76.53591
748.3242, 74.37195
748.8063, 72.37944
749.2884, 70.67138
749.7705, 69.03890
750.2526, 67.16544
750.7347, 65.03012
751.2169, 63.25927
751.6990, 62.07450
752.1811, 60.93758
752.6632, 59.61590
753.1453, 58.36972
753.6274, 57.50906
754.1096, 56.97430
754.5917, 56.41156
755.0738, 55.60657
755.5559, 54.70277
756.0380, 53.88038
756.5201, 53.13068
757.0023, 52.41947
757.4844, 51.73588
757.9665, 51.15090
758.4486, 50.72925
758.9307, 50.42982
759.4128, 50.11433
759.8950, 49.78894
760.3771, 49.43267
760.8592, 49.11083
761.3413, 48.69392
761.8234, 47.95013
762.3055, 47.13264
762.7877, 46.70107
763.2698, 46.79975
763.7519, 46.87251
764.2340, 46.35997
764.7161, 45.63833
765.1982, 45.37740
765.6804, 45.50546
766.1625, 45.48428
766.6446, 45.09970
767.1267, 44.57537
767.6088, 44.19790
768.0909, 43.96852
768.5731, 43.79282
769.0552, 43.71192
769.5373, 43.61650
770.0194, 43.51028
770.5015, 43.35952
770.9836, 43.08795
771.4658, 42.73256
771.9479, 42.47435
772.4300, 42.39628
772.9121, 42.40662
773.3942, 42.55482
773.8763, 42.70152
774.3585, 42.53342
774.8406, 42.08334
775.3227, 41.76579
775.8048, 41.86082
776.2869, 42.22621
776.7690, 42.56717
777.2512, 42.91021
777.7333, 43.03805
778.2154, 42.83104
778.6975, 42.60174
779.1796, 42.49672
779.6617, 42.48591
780.1439, 42.52625
780.6260, 42.62494
781.1081, 42.73423
781.5902, 42.83644
782.0723, 42.95201
782.5544, 43.12194
783.0366, 43.30501
783.5187, 43.38377
784.0008, 43.35499
784.4829, 43.42952
784.9650, 43.86708
785.4471, 44.51537
785.9293, 44.88425
786.4114, 44.96772
786.8935, 45.08900
787.3756, 45.33327
787.8577, 45.61596
788.3398, 45.84896
788.8220, 46.04643
789.3040, 46.32179
789.7861, 46.82592
790.2682, 47.18911
790.7504, 47.18562
791.2325, 47.21796
791.7146, 47.50067
792.1967, 48.03395
792.6788, 48.83397
793.1609, 49.94199
793.6431, 50.98743
794.1252, 51.60296
794.6073, 51.95339
795.0894, 52.25494
795.5715, 52.55812
796.0536, 53.05359
796.5358, 53.82596
797.0179, 54.77878
797.5000, 55.79254
797.9821, 56.87545
798.4642, 57.93675
798.9464, 58.94657
799.4285, 59.99334
799.9106, 61.07957
800.3927, 62.22366
800.8748, 63.38149
801.3569, 64.59154
801.8391, 66.01622
802.3212, 67.83858
802.8033, 69.67665
803.2854, 71.26427
803.7675, 72.78648
804.2496, 74.45567
804.7318, 76.27039
805.2139, 78.17735
805.6960, 80.14228
806.1781, 82.07677
806.6602, 83.83312
807.1423, 85.41971
807.6245, 86.84618
808.1066, 88.06365
808.5887, 89.41836
809.0708, 91.09950
809.5529, 92.94319
810.0350, 94.78407
810.5172, 96.69185
810.9993, 98.05588
811.4814, 98.41618
811.9635, 98.81999
812.4456, 99.85783
812.9277, 100.8425
813.4099, 101.0227
813.8920, 100.4756
814.3741, 99.86442
814.8562, 99.54007
815.3383, 99.23560
815.8204, 98.78311
816.3026, 98.11778
816.7847, 97.08024
817.2668, 95.66277
817.7489, 93.93703
818.2310, 91.91956
818.7131, 89.76265
819.1953, 87.81705
819.6774, 86.18295
820.1595, 84.06674
820.6416, 81.16369
821.1237, 78.31696
821.6058, 75.80918
822.0880, 73.54379
822.5701, 71.52940
823.0522, 69.74467
823.5343, 67.76378
824.0164, 65.19672
824.4985, 62.79657
824.9807, 60.96894
825.4628, 59.41712
825.9449, 57.85602
826.4270, 56.24352
826.9091, 54.61111
827.3912, 52.94042
827.8734, 51.39278
828.3555, 50.30338
828.8376, 49.54214
829.3197, 48.50921
829.8018, 47.15639
830.2839, 45.89863
830.7661, 44.94891
831.2482, 44.19834
831.7303, 43.47499
832.2124, 42.79290
832.6945, 42.05913
833.1766, 41.16368
833.6588, 40.38523
834.1409, 39.86207
834.6230, 39.41715
835.1051, 38.90774
835.5872, 38.33948
836.0693, 37.77852
836.5515, 37.23365
837.0336, 36.71791
837.5157, 36.25696
837.9978, 35.81366
838.4799, 35.28646
838.9620, 34.73194
839.4442, 34.38041
839.9263, 34.34302
840.4084, 34.34529
840.8905, 33.97630
841.3726, 33.30529
841.8547, 32.70489
842.3369, 32.17940
842.8190, 31.82577
843.3011, 31.73215
843.7832, 31.68212
844.2653, 31.41175
844.7474, 30.92805
845.2296, 30.54420
845.7117, 30.28245
846.1938, 30.09497
846.6759, 30.01161
847.1580, 29.96588
847.6401, 30.01471
848.1223, 30.05088
848.6044, 29.81740
849.0865, 29.18760
849.5686, 28.56441
850.0507, 28.16393
850.5328, 27.87437
851.0150, 27.59826
851.4971, 27.33171
851.9792, 27.11162
852.4613, 26.93882
852.9434, 26.70465
853.4255, 26.26246
853.9077, 25.71622
854.3898, 25.42603
854.8719, 25.39096
855.3540, 25.31508
855.8361, 25.11899
856.3182, 24.97750
856.8004, 25.05447
857.2825, 25.26153
857.7646, 25.31575
858.2467, 25.18547
858.7288, 24.96839
859.2109, 24.47362
859.6931, 24.11761
860.1752, 24.16821
860.6573, 24.36742
861.1394, 24.40349
861.6215, 24.24449
862.1036, 24.06180
862.5858, 23.85686
863.0679, 23.72140
863.5500, 23.80833
864.0321, 23.95597
864.5142, 23.87846
864.9963, 23.60777
865.4785, 23.46689
865.9606, 23.66068
866.4427, 23.93865
866.9248, 23.88174
867.4069, 23.55762
867.8890, 23.33027
868.3712, 23.22352
868.8533, 23.12080
869.3354, 22.96975
869.8175, 22.81691
870.2996, 22.73706
870.7817, 22.73142
871.2639, 22.62620
871.7459, 22.27479
872.2280, 22.08253
872.7101, 22.32005
873.1923, 22.54662
873.6744, 22.46874
874.1565, 22.18060
874.6386, 21.91402
875.1207, 21.69339
875.6028, 21.53885
876.0850, 21.53661
876.5671, 21.52827
877.0492, 21.33242
877.5313, 21.07198
878.0134, 20.97707
878.4955, 21.08776
878.9777, 21.24679
879.4598, 21.37791
879.9419, 21.43200
880.4240, 21.24935
880.9061, 20.91595
881.3882, 20.78447
881.8704, 20.89893
882.3525, 20.98498
882.8346, 20.85697
883.3167, 20.64998
883.7988, 20.68016
884.2809, 21.00549
884.7631, 21.13251
885.2452, 21.04037
885.7273, 20.78289
886.2094, 20.21018
886.6915, 19.65412
887.1736, 19.52768
887.6558, 19.80321
888.1379, 20.03034
888.6200, 20.21852
889.1021, 20.32740
889.5842, 20.30610
890.0663, 20.24560
890.5485, 20.23330
891.0306, 20.22201
891.5127, 20.08117
891.9948, 19.76643
892.4769, 19.50968
892.9590, 19.56914
893.4412, 19.66730
893.9233, 19.39626
894.4054, 18.96351
894.8875, 18.88494
895.3696, 19.21524
895.8517, 19.51699
896.3339, 19.45636
896.8160, 19.19736
897.2981, 19.05019
897.7802, 19.00804
898.2623, 19.00333
898.7444, 19.03209
899.2266, 19.08239
899.7087, 19.16190
900.1908, 19.22289
900.6729, 19.19275
901.1550, 19.06838
901.6371, 18.91139
902.1193, 18.65036
902.6014, 18.48864
903.0835, 18.51501
903.5656, 18.60338
904.0477, 18.71612
904.5298, 18.81911
905.0120, 18.81536
905.4941, 18.65391
905.9762, 18.50329
906.4583, 18.42817
906.9404, 18.35079
907.4225, 18.20855
907.9047, 18.04514
908.3868, 17.91752
908.8689, 17.83688
909.3510, 17.78775
909.8331, 17.77416
910.3152, 17.76813
910.7974, 17.75406
911.2795, 17.72149
911.7616, 17.62006
912.2437, 17.47272
912.7258, 17.39720
913.2079, 17.44940
913.6901, 17.56175
914.1722, 17.68171
914.6543, 17.78412
915.1364, 17.67078
915.6185, 17.32923
916.1006, 17.17215
916.5828, 17.35153
917.0649, 17.48614
917.5470, 17.19308
918.0291, 16.66463
918.5112, 16.63767
918.9933, 17.42725
919.4755, 17.91433
919.9576, 17.98771
920.4397, 17.91292
920.9218, 17.67633
921.4039, 17.41845
921.8860, 17.31458
922.3682, 17.35901
922.8503, 17.35974
923.3324, 17.24381
923.8145, 17.14385
924.2966, 17.13414
924.7787, 17.12076
925.2609, 16.97576
925.7430, 16.78260
926.2251, 16.75231
926.7072, 16.95219
927.1893, 17.10768
927.6714, 16.99978
928.1536, 16.79435
928.6357, 16.60920
929.1178, 16.47030
929.5999, 16.43313
930.0820, 16.49075
930.5641, 16.56744
931.0463, 16.61848
931.5284, 16.64411
932.0105, 16.63114
932.4926, 16.59219
932.9747, 16.59834
933.4568, 16.64727
933.9390, 16.60725
934.4211, 16.41725
934.9032, 16.26355
935.3853, 16.37466
935.8674, 16.68419
936.3495, 16.77713
936.8317, 16.58197
937.3138, 16.49774
937.7959, 16.63754
938.2780, 16.73295
938.7601, 16.57504
939.2422, 16.33411
939.7244, 16.34879
940.2065, 16.69954
940.6886, 16.82959
941.1707, 16.52944
941.6528, 16.30400
942.1349, 16.34030
942.6171, 16.39971
943.0992, 16.27044
943.5813, 16.02665
944.0634, 15.87218
944.5455, 15.84327
945.0276, 15.91602
945.5098, 16.22155
945.9919, 16.47844
946.4740, 16.46901
946.9561, 16.31121
947.4382, 16.14750
947.9203, 16.01289
948.4025, 15.90709
948.8846, 15.83729
949.3667, 15.77748
949.8488, 15.65871
950.3309, 15.55861
950.8130, 15.63535
951.2952, 15.84310
951.7773, 16.00838
952.2594, 16.07250
952.7415, 16.10129
953.2236, 16.17392
953.7057, 16.23628
954.1878, 16.10104
954.6699, 15.81391
955.1520, 15.69463
955.6342, 15.78743
956.1163, 15.93018
956.5984, 16.04653
957.0805, 16.10527
957.5626, 16.03220
958.0447, 15.83154
958.5269, 15.78650
959.0090, 15.94208
959.4911, 16.06127
959.9732, 16.09306
960.4553, 16.07637
960.9374, 16.02685
961.4196, 15.95814
961.9017, 15.91470
962.3838, 15.93193
962.8659, 15.86207
963.3480, 15.52332
963.8301, 15.34620
964.3123, 15.56555
964.7944, 15.88936
965.2765, 16.11169
965.7586, 16.22445
966.2407, 16.22065
966.7228, 16.01566
967.2050, 15.86549
967.6871, 15.85672
968.1692, 15.88218
968.6513, 15.89898
969.1334, 15.90267
969.6155, 15.88968
970.0977, 15.86206
970.5798, 15.83159
971.0619, 15.78065
971.5440, 15.76574
972.0261, 15.88512
972.5082, 16.00966
972.9904, 15.95978
973.4725, 15.80758
973.9546, 15.74264
974.4367, 15.81717
974.9188, 15.92366
975.4009, 15.99924
975.8831, 16.03556
976.3652, 15.98845
976.8473, 15.90422
977.3294, 15.89443
977.8115, 15.95638
978.2936, 16.01540
978.7758, 16.03589
979.2579, 15.99230
979.7400, 15.80577
980.2221, 15.54610
980.7042, 15.46967
981.1863, 15.55620
981.6685, 15.65635
982.1506, 15.74012
982.6327, 15.76682
983.1148, 15.69851
983.5969, 15.61114
984.0790, 15.67031
984.5612, 15.87758
985.0433, 15.98035
985.5254, 15.96590
986.0075, 15.91101
986.4896, 15.81833
986.9717, 15.74198
987.4539, 15.71887
987.9360, 15.75269
988.4181, 15.87248
988.9002, 16.14511
989.3823, 16.25657
989.8644, 16.12388
990.3466, 15.98727
990.8287, 15.89809
991.3108, 15.86048
991.7929, 15.90800
992.2750, 16.01797
992.7571, 16.05050
993.2393, 15.89124
993.7214, 15.86068
994.2035, 16.06924
994.6856, 16.28045
995.1677, 16.45271
995.6498, 16.54789
996.1320, 16.49959
996.6141, 16.32538
997.0962, 16.15958
997.5783, 15.99332
998.0604, 15.89446
998.5425, 15.92264
999.0247, 15.97937
999.5068, 15.96940
999.9889, 15.96696
1000.471, 16.15018
1000.953, 16.49995
1001.435, 16.66041
1001.917, 16.32825
1002.399, 16.01196
1002.882, 16.03747
1003.364, 16.16188
1003.846, 16.14946
1004.328, 16.05970
1004.810, 16.04944
1005.292, 16.15377
1005.774, 16.28952
1006.256, 16.43796
1006.739, 16.55142
1007.221, 16.57874
1007.703, 16.54683
1008.185, 16.47125
1008.667, 16.37373
1009.149, 16.28741
1009.631, 16.22800
1010.113, 16.22580
1010.595, 16.34531
1011.078, 16.49581
1011.560, 16.50619
1012.042, 16.45026
1012.524, 16.52491
1013.006, 16.72071
1013.488, 16.88621
1013.970, 16.95436
1014.452, 16.93759
1014.935, 16.81619
1015.417, 16.64704
1015.899, 16.53477
1016.381, 16.49886
1016.863, 16.71118
1017.345, 17.16135
1017.827, 17.45591
1018.309, 17.38613
1018.791, 17.17829
1019.274, 17.15152
1019.756, 17.25457
1020.238, 17.20072
1020.720, 17.00012
1021.202, 16.94931
1021.684, 17.10826
1022.166, 17.25749
1022.648, 17.27283
1023.130, 17.19706
1023.613, 17.08512
1024.095, 16.94167
1024.577, 16.84008
1025.059, 16.77662
1025.541, 16.80213
1026.023, 16.94560
1026.505, 17.09391
1026.987, 17.18156
1027.469, 17.21721
1027.952, 17.19355
1028.434, 17.10083
1028.916, 17.22777
1029.398, 17.68289
1029.880, 17.97351
1030.362, 17.98372
1030.844, 17.86224
1031.326, 17.65453
1031.809, 17.43405
1032.291, 17.35441
1032.773, 17.43161
1033.255, 17.51585
1033.737, 17.60602
1034.219, 17.71387
1034.701, 17.91167
1035.183, 18.01495
1035.666, 17.81467
1036.148, 17.48892
1036.630, 17.43484
1037.112, 17.72356
1037.594, 17.87939
1038.076, 17.73844
1038.558, 17.72952
1039.040, 18.10423
1039.522, 18.43599
1040.005, 18.37911
1040.487, 18.10891
1040.969, 17.99376
1041.451, 18.05886
1041.933, 18.14267
1042.415, 18.26349
1042.897, 18.37343
1043.379, 18.49362
1043.861, 18.57083
1044.344, 18.55034
1044.826, 18.46891
1045.308, 18.36681
1045.790, 18.21949
1046.272, 18.24972
1046.754, 18.72710
1047.236, 19.04445
1047.718, 18.92973
1048.201, 18.72686
1048.683, 18.65869
1049.165, 18.67884
1049.647, 18.66814
1050.129, 18.60593
1050.611, 18.61001
1051.093, 18.78822
1051.575, 18.91937
1052.057, 18.87506
1052.540, 18.82226
1053.022, 18.95077
1053.504, 19.13199
1053.986, 19.08268
1054.468, 18.75577
1054.950, 18.53955
1055.432, 18.60067
1055.914, 18.70107
1056.396, 18.69183
1056.879, 18.75781
1057.361, 19.17687
1057.843, 19.71123
1058.325, 19.90403
1058.807, 19.69362
1059.289, 19.55323
1059.771, 19.72393
1060.253, 19.87305
1060.736, 19.83397
1061.218, 19.76565
1061.700, 19.82243
1062.182, 19.92060
1062.664, 19.86603
1063.146, 19.64961
1063.628, 19.56232
1064.110, 19.79896
1064.593, 20.05656
1065.075, 20.25266
1065.557, 20.38101
1066.039, 20.26597
1066.521, 20.16614
1067.003, 20.66331
1067.485, 21.70837
1067.967, 22.24422
1068.449, 21.58452
1068.932, 20.85925
1069.414, 20.48956
1069.896, 20.32898
1070.378, 20.32622
1070.860, 20.42575
1071.342, 20.62534
1071.824, 20.87986
1072.306, 20.97879
1072.788, 20.73939
1073.271, 20.57807
1073.753, 20.79882
1074.235, 21.05211
1074.717, 20.96567
1075.199, 20.83072
1075.681, 21.20287
1076.163, 21.95998
1076.645, 22.25929
1077.127, 21.62650
1077.610, 21.12067
1078.092, 21.38024
1078.574, 21.77181
1079.056, 21.90401
1079.538, 21.89753
1080.020, 21.87277
1080.502, 21.87510
1080.984, 21.99074
1081.467, 22.28538
1081.949, 22.49302
1082.431, 22.39363
1082.913, 22.28962
1083.395, 22.36718
1083.877, 22.53502
1084.359, 22.74852
1084.841, 22.94940
1085.323, 23.00785
1085.806, 22.87351
1086.288, 22.76432
1086.770, 22.66934
1087.252, 22.75042
1087.734, 23.33735
1088.216, 23.92719
1088.698, 23.97388
1089.180, 23.67241
1089.662, 23.48596
1090.145, 23.50961
1090.627, 23.60826
1091.109, 23.76229
1091.591, 23.93965
1092.073, 24.21140
1092.555, 24.41937
1093.037, 24.36373
1093.519, 24.18852
1094.002, 24.14543
1094.484, 24.26425
1094.966, 24.38723
1095.448, 24.43216
1095.930, 24.52251
1096.412, 24.76394
1096.894, 24.99310
1097.376, 25.09002
1097.859, 25.12287
1098.341, 25.19404
1098.823, 25.30327
1099.305, 25.36604
1099.787, 25.27839
1100.269, 25.32109
1100.751, 25.79553
1101.233, 26.14356
1101.715, 25.92236
1102.198, 25.56555
1102.680, 25.55804
1103.162, 25.83567
1103.644, 26.02284
1104.126, 26.00572
1104.608, 26.08971
1105.090, 26.53496
1105.572, 26.81951
1106.054, 26.54700
1106.537, 26.24188
1107.019, 26.37327
1107.501, 26.79356
1107.983, 27.11047
1108.465, 27.27950
1108.947, 27.44125
1109.429, 27.73339
1109.911, 27.84072
1110.394, 27.44263
1110.876, 27.11427
1111.358, 27.27847
1111.840, 27.69675
1112.322, 27.96986
1112.804, 28.08234
1113.286, 28.26987
1113.768, 28.59359
1114.250, 28.88982
1114.733, 29.14600
1115.215, 29.37257
1115.697, 29.53600
1116.179, 29.71267
1116.661, 30.09746
1117.143, 30.60546
1117.625, 30.55819
1118.107, 29.44039
1118.589, 29.03440
1119.072, 29.78766
1119.554, 30.37913
1120.036, 30.32593
1120.518, 30.08761
1121.000, 30.02866
1121.482, 30.10694
1121.964, 30.19755
1122.446, 30.29198
1122.929, 30.46066
1123.411, 30.73834
1123.893, 30.97215
1124.375, 31.12272
1124.857, 31.23474
1125.339, 31.30959
1125.821, 31.42176
1126.303, 31.71093
1126.786, 32.16639
1127.268, 32.63088
1127.750, 33.13076
1128.232, 33.34538
1128.714, 33.19431
1129.196, 33.02954
1129.678, 32.99905
1130.160, 33.08853
1130.642, 33.29541
1131.125, 33.58945
1131.607, 33.94292
1132.089, 34.33137
1132.571, 34.14536
1133.053, 33.37928
1133.535, 33.18744
1134.017, 33.92109
1134.499, 34.77873
1134.981, 35.14414
1135.464, 35.23443
1135.946, 35.47011
1136.428, 35.76485
1136.910, 35.66895
1137.392, 35.30121
1137.874, 35.31920
1138.356, 35.78559
1138.838, 36.19616
1139.321, 36.29360
1139.803, 36.25565
1140.285, 36.20836
1140.767, 36.22961
1141.249, 36.50065
1141.731, 36.93459
1142.213, 37.40072
1142.695, 37.83996
1143.177, 38.10785
1143.660, 38.18351
1144.142, 38.30180
1144.624, 38.69850
1145.106, 39.04022
1145.588, 38.78579
1146.070, 38.43127
1146.552, 38.71772
1147.034, 39.33217
1147.516, 39.61993
1147.999, 39.54655
1148.481, 39.49567
1148.963, 39.60281
1149.445, 39.91462
1149.927, 40.75734
1150.409, 41.47839
1150.891, 41.35585
1151.373, 41.06529
1151.856, 41.49751
1152.338, 42.33952
1152.820, 42.64201
1153.302, 42.20998
1153.784, 42.02654
1154.266, 42.63309
1154.748, 43.23841
1155.230, 43.65430
1155.713, 43.91003
1156.195, 43.88519
1156.677, 43.80438
1157.159, 44.01912
1157.641, 44.48072
1158.123, 44.71239
1158.605, 44.48053
1159.087, 44.42894
1159.569, 44.65143
1160.052, 44.98826
1160.534, 45.50494
1161.016, 46.00241
1161.498, 46.32880
1161.980, 46.53384
1162.462, 46.71875
1162.944, 46.88188
1163.426, 47.03839
1163.908, 47.15480
1164.391, 47.38100
1164.873, 47.80058
1165.355, 48.12421
1165.837, 48.17173
1166.319, 48.18408
1166.801, 48.46259
1167.283, 48.92783
1167.765, 49.25042
1168.247, 49.42527
1168.730, 49.58941
1169.212, 49.74379
1169.694, 50.06833
1170.176, 50.61431
1170.658, 51.16883
1171.140, 51.58651
1171.622, 51.92291
1172.104, 52.28189
1172.587, 52.62820
1173.069, 52.79578
1173.551, 52.84900
1174.033, 53.05935
1174.515, 53.42494
1174.997, 53.71963
1175.479, 53.87078
1175.961, 54.08245
1176.443, 54.55064
1176.926, 55.10382
1177.408, 55.51880
1177.890, 55.89089
1178.372, 56.40649
1178.854, 56.96961
1179.336, 57.33519
1179.818, 57.52716
1180.300, 57.81030
1180.782, 58.30331
1181.265, 58.81783
1181.747, 59.34214
1182.229, 59.72359
1182.711, 59.61098
1183.193, 59.52954
1183.675, 60.09990
1184.157, 61.02909
1184.639, 61.73514
1185.122, 62.13623
1185.604, 62.45502
1186.086, 62.57533
1186.568, 62.88784
1187.050, 63.60148
1187.532, 64.34061
1188.014, 65.01190
1188.496, 65.57767
1188.979, 65.92805
1189.461, 66.17008
1189.943, 66.63367
1190.425, 67.39880
1190.907, 67.88324
1191.389, 67.90701
1191.871, 68.16898
1192.353, 68.84315
1192.835, 69.57217
1193.318, 70.16873
1193.800, 70.76484
1194.282, 71.52975
1194.764, 72.41228
1195.246, 73.29115
1195.728, 74.14939
1196.210, 74.31970
1196.692, 73.82394
1197.174, 73.79578
1197.657, 74.49974
1198.139, 75.35622
1198.621, 76.01138
1199.103, 76.56411
1199.585, 77.10689
1200.067, 77.66314
1200.549, 78.32631
1201.031, 79.02892
1201.514, 79.60975
1201.996, 80.09486
1202.478, 80.66560
1202.960, 81.33314
1203.442, 81.77157
1203.924, 81.68201
1204.406, 81.64777
1204.888, 82.21307
1205.370, 82.90553
1205.853, 83.28633
1206.335, 83.59808
1206.817, 84.21409
1207.299, 85.02518
1207.781, 85.68808
1208.263, 86.13453
1208.745, 86.42076
1209.227, 86.35811
1209.709, 86.43534
1210.192, 86.79951
1210.674, 87.27325
1211.156, 87.80122
1211.638, 88.36342
1212.120, 88.88420
1212.602, 89.43773
1213.084, 90.38210
1213.566, 91.96049
1214.049, 92.58074
1214.531, 91.87364
1215.013, 91.71279
1215.495, 92.52910
1215.977, 93.54578
1216.459, 94.36821
1216.941, 95.12377
1217.423, 96.01844
1217.906, 96.88257
1218.388, 96.97301
1218.870, 96.53458
1219.352, 96.94066
1219.834, 98.07191
1220.316, 98.85074
1220.798, 99.10205
1221.280, 99.51401
1221.762, 100.4685
1222.245, 101.4740
1222.727, 101.9249
1223.209, 102.2772
1223.691, 103.0928
1224.173, 104.0977
1224.655, 104.8740
1225.137, 105.5633
1225.619, 106.5826
1226.101, 107.9143
1226.584, 109.0745
1227.066, 109.9442
1227.548, 110.4601
1228.030, 110.2143
1228.512, 110.1143
1228.994, 110.4853
1229.476, 111.2057
1229.958, 112.4650
1230.441, 113.8563
1230.923, 114.5617
1231.405, 114.6196
1231.887, 115.2405
1232.369, 116.5470
1232.851, 118.1331
1233.333, 120.2320
1233.815, 121.6997
1234.297, 122.1150
1234.780, 122.1201
1235.262, 122.1047
1235.744, 122.2757
1236.226, 123.0531
1236.708, 124.2868
1237.190, 125.3936
1237.672, 126.3896
1238.154, 127.3270
1238.636, 128.2515
1239.119, 129.4160
1239.601, 130.8390
1240.083, 132.0855
1240.565, 132.8268
1241.047, 133.5859
1241.529, 135.0703
1242.011, 136.6040
1242.493, 137.3065
1242.975, 137.8516
1243.458, 139.1055
1243.940, 140.8940
1244.422, 142.7955
1244.904, 144.6975
1245.386, 146.1756
1245.868, 146.9285
1246.350, 147.5988
1246.832, 147.9742
1247.315, 148.7286
1247.797, 150.2807
1248.279, 152.0642
1248.761, 153.8480
1249.243, 155.4354
1249.725, 156.3600
1250.207, 156.6952
1250.689, 157.9069
1251.172, 160.1440
1251.654, 161.4374
1252.136, 161.5932
1252.618, 162.3071
1253.100, 164.0863
1253.582, 166.2139
1254.064, 168.2101
1254.546, 170.0498
1255.028, 171.6438
1255.510, 173.0614
1255.993, 174.3896
1256.475, 175.6475
1256.957, 176.5762
1257.439, 177.5260
1257.921, 179.5555
1258.403, 182.6291
1258.885, 185.2854
1259.367, 186.8062
1259.850, 188.1968
1260.332, 189.7766
1260.814, 191.5295
1261.296, 193.6210
1261.778, 195.7192
1262.260, 197.4618
1262.742, 199.1196
1263.224, 201.1916
1263.707, 203.6169
1264.189, 205.7023
1264.671, 207.2420
1265.153, 209.2316
1265.635, 211.8526
1266.117, 214.0014
1266.599, 215.3330
1267.081, 216.8646
1267.563, 219.1629
1268.046, 221.9467
1268.528, 225.0427
1269.010, 228.1379
1269.492, 230.3591
1269.974, 232.0906
1270.456, 234.2964
1270.938, 236.9001
1271.420, 239.4907
1271.902, 242.0610
1272.385, 245.0206
1272.867, 248.5264
1273.349, 251.7063
1273.831, 253.7442
1274.313, 255.7509
1274.795, 258.0856
1275.277, 260.8349
1275.759, 264.3378
1276.242, 268.0836
1276.724, 271.7290
1277.206, 275.1017
1277.688, 277.4950
1278.170, 278.6400
1278.652, 281.2289
1279.134, 285.7595
1279.616, 290.1165
1280.099, 294.0084
1280.581, 297.5003
1281.063, 300.5516
1281.545, 303.9060
1282.027, 308.2257
1282.509, 312.9099
1282.991, 317.1530
1283.473, 321.0364
1283.955, 324.7989
##END=



