##NAMES=Fizelyite
##RRUFFID=R060175
##IDEAL CHEMISTRY=Ag^1+^_5_Pb^2+^_14_Sb^3+^_21_S^2-^_48_
##LOCALITY=Van Silver mine, Squamish, British Columbia, Canada
##OWNER=RRUFF
##SOURCE=Ty Balacko
##DESCRIPTION=Dark gray deeply-striated single crystals
##STATUS=The identification of this mineral is confirmed by single-crystal X-ray diffraction and chemical analysis.
##URL=rruff.info/R060175
##MEASURED CHEMISTRY=Pb_13.74_Ag_5.94_Sb_20.87_S_48.00_
144.669, 8563.679
145.151, 8871.109
145.633, 9163.748
146.116, 9438.678
146.598, 9692.446
147.080, 9921.159
147.562, 10125.170
148.044, 10309.780
148.526, 10495.110
149.008, 10636.360
149.490, 10712.750
149.973, 10734.960
150.455, 10725.860
150.937, 10702.200
151.419, 10664.270
151.901, 10606.950
152.383, 10528.430
152.865, 10431.520
153.347, 10306.180
153.829, 10160.860
154.312, 10013.600
154.794, 9876.693
155.276, 9750.343
155.758, 9639.517
156.240, 9538.622
156.722, 9456.811
157.204, 9402.323
157.686, 9371.337
158.169, 9351.198
158.651, 9330.024
159.133, 9305.661
159.615, 9295.186
160.097, 9294.546
160.579, 9307.885
161.061, 9341.371
161.543, 9392.208
162.025, 9449.690
162.508, 9502.802
162.990, 9547.773
163.472, 9612.750
163.954, 9722.507
164.436, 9827.012
164.918, 9896.265
165.400, 9932.151
165.883, 9959.376
166.365, 10001.850
166.847, 10063.660
167.329, 10118.390
167.811, 10162.460
168.293, 10203.380
168.775, 10245.120
169.257, 10288.070
169.739, 10331.110
170.221, 10374.490
170.704, 10420.030
171.186, 10451.430
171.668, 10453.700
172.150, 10455.010
172.632, 10475.740
173.114, 10516.190
173.596, 10560.780
174.078, 10593.600
174.561, 10611.230
175.043, 10640.970
175.525, 10686.460
176.007, 10740.500
176.489, 10798.470
176.971, 10860.040
177.453, 10926.070
177.935, 10996.310
178.417, 11070.520
178.900, 11161.940
179.382, 11290.990
179.864, 11423.060
180.346, 11526.110
180.828, 11599.720
181.310, 11675.830
181.792, 11787.710
182.274, 11941.420
182.757, 12068.090
183.239, 12151.390
183.721, 12218.660
184.203, 12286.980
184.685, 12358.330
185.167, 12433.370
185.649, 12515.840
186.131, 12605.690
186.613, 12677.240
187.096, 12722.880
187.578, 12755.470
188.060, 12783.630
188.542, 12808.170
189.024, 12826.830
189.506, 12837.580
189.988, 12839.670
190.470, 12837.600
190.952, 12827.960
191.435, 12816.720
191.917, 12808.580
192.399, 12803.720
192.881, 12800.070
193.363, 12797.260
193.845, 12794.710
194.327, 12788.040
194.809, 12771.640
195.292, 12755.310
195.774, 12740.890
196.256, 12729.750
196.738, 12737.410
197.220, 12783.870
197.702, 12861.760
198.184, 12915.610
198.666, 12923.480
199.148, 12923.330
199.631, 12944.240
200.113, 12984.950
200.595, 13025.080
201.077, 13048.420
201.559, 13060.750
202.041, 13088.980
202.523, 13148.320
203.005, 13210.900
203.488, 13255.860
203.970, 13285.200
204.452, 13316.640
204.934, 13361.380
205.416, 13415.560
205.898, 13463.250
206.380, 13487.720
206.862, 13522.900
207.344, 13598.530
207.827, 13707.540
208.309, 13810.690
208.791, 13882.440
209.273, 13937.910
209.755, 14019.270
210.237, 14134.350
210.719, 14262.050
211.201, 14392.860
211.684, 14526.520
212.166, 14667.600
212.648, 14821.960
213.130, 14980.290
213.612, 15122.850
214.094, 15241.440
214.576, 15360.150
215.058, 15491.580
215.540, 15632.360
216.023, 15773.890
216.505, 15915.740
216.987, 16053.780
217.469, 16177.910
217.951, 16277.070
218.433, 16392.660
218.915, 16555.939
219.397, 16747.520
219.880, 16922.619
220.362, 17065.920
220.844, 17191.609
221.326, 17327.070
221.808, 17478.529
222.290, 17613.529
222.772, 17712.381
223.254, 17789.840
223.736, 17871.301
224.219, 17963.131
224.701, 18059.920
225.183, 18159.289
225.665, 18267.330
226.147, 18346.270
226.629, 18363.971
227.111, 18356.070
227.593, 18376.449
228.076, 18438.641
228.558, 18504.869
229.040, 18528.689
229.522, 18507.480
230.004, 18478.650
230.486, 18441.080
230.968, 18400.859
231.450, 18370.600
231.932, 18351.910
232.415, 18321.420
232.897, 18255.000
233.379, 18149.029
233.861, 18036.670
234.343, 17908.900
234.825, 17782.039
235.307, 17672.721
235.789, 17580.551
236.271, 17490.080
236.754, 17391.240
237.236, 17282.971
237.718, 17169.580
238.200, 17044.680
238.682, 16920.199
239.164, 16805.859
239.646, 16699.529
240.128, 16586.289
240.611, 16450.320
241.093, 16299.540
241.575, 16196.540
242.057, 16162.680
242.539, 16146.810
243.021, 16139.570
243.503, 16135.450
243.985, 16120.610
244.467, 16084.980
244.950, 16037.200
245.432, 16013.090
245.914, 16016.320
246.396, 16034.200
246.878, 16059.570
247.360, 16098.990
247.842, 16160.900
248.324, 16247.980
248.807, 16362.960
249.289, 16512.080
249.771, 16710.199
250.253, 16923.891
250.735, 17148.869
251.217, 17389.891
251.699, 17649.641
252.181, 17929.730
252.663, 18234.439
253.146, 18568.240
253.628, 18928.119
254.110, 19330.789
254.592, 19788.039
255.074, 20278.881
255.556, 20788.850
256.038, 21314.289
256.520, 21856.789
257.003, 22415.770
257.485, 22994.170
257.967, 23580.150
258.449, 24191.891
258.931, 24793.240
259.413, 25354.260
259.895, 25882.850
260.377, 26411.891
260.859, 26976.430
261.342, 27583.061
261.824, 28113.039
262.306, 28520.670
262.788, 28905.590
263.270, 29317.449
263.752, 29730.350
264.234, 30086.699
264.716, 30347.141
265.198, 30523.779
265.681, 30686.080
266.163, 30867.211
266.645, 30989.529
267.127, 31024.520
267.609, 31000.939
268.091, 30950.301
268.573, 30886.609
269.056, 30810.381
269.538, 30722.641
270.020, 30619.750
270.502, 30512.461
270.984, 30396.480
271.466, 30280.340
271.948, 30165.820
272.430, 30054.359
272.912, 29958.891
273.395, 29897.039
273.877, 29868.939
274.359, 29873.020
274.841, 29921.359
275.323, 29993.051
275.805, 30076.051
276.287, 30170.600
276.769, 30287.301
277.251, 30442.641
277.734, 30637.061
278.216, 30826.670
278.698, 30995.689
279.180, 31176.260
279.662, 31385.789
280.144, 31618.801
280.626, 31859.070
281.108, 32104.141
281.591, 32348.230
282.073, 32572.100
282.555, 32767.320
283.037, 32955.398
283.519, 33174.051
284.001, 33389.070
284.483, 33542.789
284.965, 33604.500
285.447, 33606.441
285.930, 33598.910
286.412, 33586.660
286.894, 33529.352
287.376, 33408.180
287.858, 33227.969
288.340, 32987.391
288.822, 32668.131
289.304, 32335.520
289.786, 32066.980
290.269, 31842.100
290.751, 31542.680
291.233, 31124.570
291.715, 30622.971
292.197, 30088.029
292.679, 29518.570
293.161, 28926.100
293.643, 28305.539
294.125, 27666.600
294.608, 27022.061
295.090, 26376.350
295.572, 25734.381
296.054, 25104.439
296.536, 24487.859
297.018, 23886.961
297.500, 23291.670
297.983, 22719.840
298.465, 22190.270
298.947, 21705.551
299.429, 21261.160
299.911, 20849.000
300.393, 20477.289
300.875, 20201.180
301.357, 20174.910
301.839, 20079.721
302.322, 19723.070
302.804, 19192.240
303.286, 18687.420
303.768, 18308.680
304.250, 18027.500
304.732, 17746.410
305.214, 17475.980
305.696, 17192.301
306.178, 16881.051
306.661, 16561.430
307.143, 16249.140
307.625, 15949.610
308.107, 15668.850
308.589, 15414.490
309.071, 15193.820
309.553, 14985.240
310.035, 14774.140
310.517, 14585.430
311.000, 14426.190
311.482, 14302.160
311.964, 14223.090
312.446, 14204.540
312.928, 14248.500
313.410, 14291.470
313.892, 14316.210
314.374, 14359.570
314.857, 14433.980
315.339, 14533.870
315.821, 14651.410
316.303, 14785.680
316.785, 14928.940
317.267, 15062.870
317.749, 15196.820
318.231, 15299.030
318.714, 15356.960
319.196, 15384.290
319.678, 15389.490
320.160, 15374.150
320.642, 15342.990
321.124, 15293.500
321.606, 15225.040
322.088, 15169.690
322.570, 15133.550
323.052, 15114.730
323.535, 15103.550
324.017, 15101.400
324.499, 15127.810
324.981, 15186.060
325.463, 15281.110
325.945, 15429.950
326.427, 15639.260
326.909, 15883.150
327.392, 16155.350
327.874, 16448.891
328.356, 16745.381
328.838, 17045.109
329.320, 17342.289
329.802, 17634.580
330.284, 17921.859
330.766, 18198.090
331.249, 18464.900
331.731, 18713.590
332.213, 18915.721
332.695, 19081.811
333.177, 19198.740
333.659, 19264.180
334.141, 19278.551
334.623, 19232.500
335.105, 19122.619
335.588, 18981.471
336.070, 18858.029
336.552, 18773.529
337.034, 18649.100
337.516, 18447.010
337.998, 18236.520
338.480, 18065.119
338.962, 17932.539
339.444, 17812.461
339.927, 17684.240
340.409, 17548.189
340.891, 17407.590
341.373, 17284.830
341.855, 17132.131
342.337, 16948.100
342.819, 16724.840
343.301, 16448.301
343.784, 16113.100
344.266, 15729.200
344.748, 15321.650
345.230, 14888.220
345.712, 14431.640
346.194, 13949.110
346.676, 13442.300
347.158, 12905.010
347.641, 12336.710
348.123, 11756.950
348.605, 11180.260
349.087, 10604.750
349.569, 10032.640
350.051, 9451.731
350.533, 8895.831
351.015, 8375.527
351.497, 7890.810
351.979, 7440.844
352.462, 7030.871
352.944, 6652.121
353.426, 6292.462
353.908, 5951.741
354.390, 5633.023
354.872, 5333.049
355.354, 5062.214
355.836, 4831.715
356.319, 4655.539
356.801, 4490.113
357.283, 4308.851
357.765, 4124.010
358.247, 3964.401
358.729, 3838.439
359.211, 3731.471
359.693, 3624.550
360.176, 3514.105
360.658, 3422.088
361.140, 3364.338
361.622, 3312.967
362.104, 3246.006
362.586, 3165.651
363.068, 3089.109
363.550, 3029.301
364.032, 2984.711
364.515, 2937.334
364.997, 2880.998
365.479, 2829.225
365.961, 2785.324
366.443, 2746.759
366.925, 2710.567
367.407, 2675.877
367.889, 2641.772
368.371, 2606.854
368.854, 2571.059
369.336, 2534.969
369.818, 2495.675
370.300, 2458.120
370.782, 2427.307
371.264, 2401.205
371.746, 2372.047
372.228, 2330.842
372.711, 2281.836
373.193, 2244.373
373.675, 2222.539
374.157, 2202.577
374.639, 2179.022
375.121, 2152.736
375.603, 2124.087
376.085, 2091.556
376.568, 2060.003
377.050, 2036.487
377.532, 2018.999
378.014, 1993.459
378.496, 1950.529
378.978, 1906.642
379.460, 1890.800
379.942, 1905.231
380.424, 1908.694
380.906, 1883.467
381.389, 1848.145
381.871, 1819.370
382.353, 1799.100
382.835, 1785.442
383.317, 1778.349
383.799, 1777.139
384.281, 1770.427
384.763, 1755.663
385.246, 1739.387
385.728, 1721.587
386.210, 1703.736
386.692, 1687.753
387.174, 1674.323
387.656, 1662.463
388.138, 1650.120
388.620, 1635.750
389.103, 1624.900
389.585, 1619.232
390.067, 1615.365
390.549, 1611.556
391.031, 1607.985
391.513, 1606.094
391.995, 1608.079
392.477, 1612.223
392.959, 1611.663
393.442, 1605.516
393.924, 1596.626
394.406, 1584.741
394.888, 1571.293
395.370, 1557.337
395.852, 1542.599
396.334, 1528.973
396.816, 1516.440
397.298, 1505.895
397.781, 1503.013
398.263, 1511.748
398.745, 1521.797
399.227, 1520.495
399.709, 1508.466
400.191, 1496.385
400.673, 1483.421
401.155, 1472.868
401.638, 1469.023
402.120, 1470.565
402.602, 1471.964
403.084, 1470.429
403.566, 1465.726
404.048, 1456.661
404.530, 1435.773
405.012, 1420.211
405.495, 1413.233
405.977, 1410.865
406.459, 1410.104
406.941, 1410.026
407.423, 1410.414
407.905, 1411.201
408.387, 1412.516
408.869, 1413.155
409.351, 1416.636
409.833, 1415.151
410.316, 1402.858
410.798, 1384.696
411.280, 1367.813
411.762, 1354.099
412.244, 1345.828
412.726, 1349.799
413.208, 1367.211
413.690, 1378.788
414.173, 1377.407
414.655, 1369.530
415.137, 1361.226
415.619, 1352.381
416.101, 1346.882
416.583, 1349.817
417.065, 1355.339
417.547, 1353.770
418.030, 1344.669
418.512, 1337.846
418.994, 1341.557
419.476, 1353.298
419.958, 1356.643
420.440, 1344.354
420.922, 1333.770
421.404, 1330.342
421.886, 1330.700
422.369, 1330.547
422.851, 1328.656
423.333, 1326.654
423.815, 1327.169
424.297, 1331.704
424.779, 1332.042
425.261, 1322.272
425.743, 1314.245
426.225, 1313.931
426.708, 1318.349
427.190, 1321.645
427.672, 1320.901
428.154, 1317.117
428.636, 1311.803
429.118, 1304.659
429.600, 1297.673
430.082, 1289.990
430.565, 1283.928
431.047, 1281.471
431.529, 1282.674
432.011, 1286.048
432.493, 1295.468
432.975, 1304.825
433.457, 1301.277
433.939, 1283.882
434.422, 1269.740
434.904, 1271.776
435.386, 1286.136
435.868, 1292.576
436.350, 1287.186
436.832, 1279.819
437.314, 1270.031
437.796, 1260.876
438.278, 1257.260
438.760, 1259.977
439.243, 1264.144
439.725, 1263.673
440.207, 1257.653
440.689, 1253.180
441.171, 1248.921
441.653, 1247.771
442.135, 1252.683
442.617, 1260.831
443.100, 1268.009
443.582, 1272.389
444.064, 1274.748
444.546, 1276.908
445.028, 1279.147
445.510, 1277.093
445.992, 1267.206
446.474, 1255.437
446.957, 1246.663
447.439, 1240.727
447.921, 1236.647
448.403, 1234.648
448.885, 1233.969
449.367, 1233.805
449.849, 1234.159
450.331, 1235.646
450.813, 1239.188
451.296, 1243.356
451.778, 1243.850
452.260, 1238.605
452.742, 1233.357
453.224, 1229.698
453.706, 1225.558
454.188, 1216.471
454.670, 1203.892
455.152, 1196.464
455.635, 1203.278
456.117, 1222.406
456.599, 1231.494
457.081, 1222.281
457.563, 1215.374
458.045, 1220.597
458.527, 1227.965
459.009, 1225.385
459.492, 1209.615
459.974, 1193.184
460.456, 1189.086
460.938, 1194.639
461.420, 1196.277
461.902, 1190.738
462.384, 1186.371
462.866, 1192.122
463.349, 1204.812
463.831, 1211.723
464.313, 1209.250
464.795, 1203.339
465.277, 1193.387
465.759, 1182.837
466.241, 1179.445
466.723, 1185.749
467.205, 1195.612
467.688, 1200.621
468.170, 1199.849
468.652, 1197.621
469.134, 1192.062
469.616, 1187.138
470.098, 1185.821
470.580, 1186.035
471.062, 1183.462
471.544, 1175.644
472.027, 1166.007
472.509, 1160.891
472.991, 1160.923
473.473, 1160.574
473.955, 1157.393
474.437, 1155.222
474.919, 1159.981
475.401, 1169.729
475.884, 1172.699
476.366, 1155.716
476.848, 1136.000
477.330, 1136.000
477.812, 1152.155
478.294, 1161.930
478.776, 1154.226
479.258, 1136.615
479.741, 1124.192
480.223, 1119.062
480.705, 1115.539
481.187, 1113.975
481.669, 1113.654
482.151, 1115.148
482.633, 1117.576
483.115, 1118.274
483.597, 1114.950
484.079, 1109.644
484.562, 1109.901
485.044, 1118.952
485.526, 1125.250
486.008, 1125.498
486.490, 1122.458
486.972, 1116.907
487.454, 1109.200
487.936, 1101.719
488.419, 1094.114
488.901, 1088.293
489.383, 1089.375
489.865, 1097.377
490.347, 1103.214
490.829, 1101.474
491.311, 1094.638
491.793, 1089.799
492.276, 1089.658
492.758, 1086.031
493.240, 1071.954
493.722, 1057.879
494.204, 1054.827
494.686, 1061.874
495.168, 1069.249
495.650, 1069.316
496.132, 1063.404
496.615, 1058.330
497.097, 1052.867
497.579, 1050.819
498.061, 1057.792
498.543, 1065.116
499.025, 1064.257
499.507, 1054.737
499.989, 1045.962
500.471, 1045.710
500.954, 1050.123
501.436, 1050.694
501.918, 1046.854
502.400, 1043.658
502.882, 1045.186
503.364, 1048.626
503.846, 1044.817
504.328, 1029.021
504.810, 1016.254
505.293, 1008.909
505.775, 1006.033
506.257, 1009.563
506.739, 1017.682
507.221, 1022.845
507.703, 1018.372
508.185, 1006.663
508.668, 1001.751
509.150, 1008.377
509.632, 1012.698
510.114, 1009.196
510.596, 1004.098
511.078, 1003.584
511.560, 1007.813
512.042, 1009.373
512.524, 999.797
513.006, 985.628
513.489, 979.769
513.971, 982.792
514.453, 987.224
514.935, 990.387
515.417, 991.325
515.899, 986.395
516.381, 969.068
516.864, 959.860
517.346, 966.245
517.828, 978.050
518.310, 990.115
518.792, 1000.188
519.274, 1004.894
519.756, 1001.138
520.238, 991.548
520.720, 985.508
521.203, 984.798
521.685, 982.958
522.167, 977.172
522.649, 970.864
523.131, 965.783
523.613, 962.154
524.095, 960.521
524.577, 963.041
525.059, 966.589
525.542, 968.252
526.024, 967.651
526.506, 961.384
526.988, 946.194
527.470, 928.692
527.952, 921.929
528.434, 932.638
528.916, 939.174
529.398, 938.477
529.881, 936.504
530.363, 938.602
530.845, 942.094
531.327, 940.027
531.809, 928.331
532.291, 911.579
532.773, 897.340
533.255, 885.210
533.737, 879.539
534.220, 885.864
534.702, 892.782
535.184, 888.629
535.666, 877.006
536.148, 871.787
536.630, 882.240
537.112, 895.052
537.594, 901.984
538.077, 903.702
538.559, 900.325
539.041, 891.852
539.523, 882.977
540.005, 880.383
540.487, 885.680
540.969, 886.336
541.451, 877.599
541.933, 869.566
542.416, 864.485
542.898, 861.893
543.380, 861.785
543.862, 864.174
544.344, 866.224
544.826, 864.707
545.308, 860.266
545.791, 855.443
546.273, 850.024
546.755, 846.257
547.237, 846.491
547.719, 849.453
548.201, 850.414
548.683, 848.610
549.165, 846.133
549.647, 843.497
550.130, 840.470
550.612, 835.931
551.094, 830.381
551.576, 826.914
552.058, 828.674
552.540, 833.661
553.022, 831.337
553.504, 816.567
553.987, 806.660
554.469, 809.622
554.951, 816.044
555.433, 821.568
555.915, 825.290
556.397, 823.603
556.879, 807.309
557.361, 789.791
557.843, 789.495
558.326, 803.174
558.808, 813.694
559.290, 813.781
559.772, 809.130
560.254, 809.350
560.736, 817.434
561.218, 820.813
561.700, 818.218
562.182, 812.955
562.665, 802.777
563.147, 791.878
563.629, 787.786
564.111, 793.809
564.593, 801.507
565.075, 798.528
565.557, 786.822
566.039, 783.127
566.521, 792.102
567.004, 799.344
567.486, 793.289
567.968, 777.135
568.450, 765.379
568.932, 758.437
569.414, 755.245
569.896, 756.870
570.378, 761.283
570.860, 768.584
571.343, 777.262
571.825, 781.750
572.307, 777.104
572.789, 765.655
573.271, 757.003
573.753, 751.121
574.235, 748.170
574.718, 752.268
575.200, 755.944
575.682, 751.945
576.164, 741.101
576.646, 732.140
577.128, 728.096
577.610, 727.456
578.092, 731.356
578.574, 737.661
579.057, 739.433
579.539, 734.064
580.021, 726.883
580.503, 725.525
580.985, 731.298
581.467, 734.805
581.949, 736.388
582.431, 735.091
582.914, 727.943
583.396, 718.947
583.878, 712.759
584.360, 710.597
584.842, 710.988
585.324, 714.698
585.806, 719.726
586.288, 720.813
586.770, 717.570
587.253, 713.242
587.735, 709.046
588.217, 705.652
588.699, 705.035
589.181, 711.051
589.663, 712.911
590.145, 705.594
590.627, 698.398
591.109, 698.000
591.592, 702.519
592.074, 706.526
592.556, 707.357
593.038, 706.201
593.520, 705.214
594.002, 704.293
594.484, 700.342
594.966, 691.275
595.448, 683.306
595.931, 681.939
596.413, 686.244
596.895, 689.922
597.377, 695.171
597.859, 696.972
598.341, 689.805
598.823, 680.849
599.305, 678.610
599.787, 683.311
600.270, 689.052
600.752, 691.637
601.234, 691.290
601.716, 687.664
602.198, 679.004
602.680, 674.922
603.162, 680.780
603.644, 688.894
604.127, 692.029
604.609, 690.734
605.091, 689.462
605.573, 692.060
606.055, 692.156
606.537, 682.685
607.019, 668.710
607.501, 659.052
607.984, 656.177
608.466, 656.293
608.948, 630.948
609.430, 659.885
609.912, 675.646
610.394, 678.939
610.876, 632.417
611.358, 650.220
611.841, 642.244
612.323, 633.212
612.805, 660.068
613.287, 620.792
613.769, 647.078
614.251, 647.194
614.733, 659.287
615.215, 645.443
615.697, 638.928
616.180, 638.073
616.662, 638.439
617.144, 639.485
617.626, 641.426
618.108, 642.852
618.590, 646.602
619.072, 645.926
619.554, 633.590
620.036, 618.538
620.519, 612.448
621.001, 617.979
621.483, 624.074
621.965, 624.799
622.447, 621.740
622.929, 615.612
623.411, 607.280
623.893, 600.924
624.375, 598.637
624.858, 599.043
625.340, 599.601
625.822, 600.312
626.304, 601.177
626.786, 606.306
627.268, 607.103
627.750, 596.687
628.232, 581.446
628.714, 570.956
629.197, 567.938
629.679, 567.971
630.161, 567.742
630.643, 568.312
631.125, 573.209
631.607, 582.049
632.089, 588.153
632.571, 587.772
633.054, 582.397
633.536, 574.886
634.018, 561.141
634.500, 554.569
634.982, 562.668
635.464, 569.841
635.946, 568.177
636.428, 561.321
636.911, 556.156
637.393, 555.018
637.875, 555.144
638.357, 554.644
638.839, 553.659
639.321, 552.425
639.803, 550.976
640.285, 549.328
640.768, 547.333
641.250, 545.442
641.732, 544.937
642.214, 546.379
642.696, 548.144
643.178, 552.552
643.660, 554.928
644.142, 552.052
644.624, 545.795
645.107, 539.932
645.589, 535.963
646.071, 531.498
646.553, 521.948
647.035, 511.204
647.517, 508.287
647.999, 513.734
648.481, 521.506
648.963, 528.803
649.446, 533.958
649.928, 531.430
650.410, 513.759
650.892, 503.852
651.374, 508.400
651.856, 513.965
652.338, 514.367
652.820, 511.490
653.302, 509.666
653.785, 510.718
654.267, 511.021
654.749, 506.135
655.231, 499.206
655.713, 496.817
656.195, 498.990
656.677, 499.968
657.159, 496.248
657.641, 489.288
658.124, 482.463
658.606, 474.784
659.088, 469.652
659.570, 470.596
660.052, 470.486
660.534, 464.818
661.016, 456.553
661.498, 450.826
661.981, 449.095
662.463, 449.201
662.945, 451.139
663.427, 453.412
663.909, 453.948
664.391, 452.677
664.873, 449.946
665.355, 445.711
665.838, 441.540
666.320, 441.419
666.802, 447.532
667.284, 449.015
667.766, 442.906
668.248, 435.953
668.730, 429.427
669.212, 424.615
669.695, 424.371
670.177, 430.354
670.659, 434.917
671.141, 434.385
671.623, 431.055
672.105, 425.916
672.587, 420.060
673.069, 416.431
673.551, 416.406
674.034, 417.008
674.516, 411.897
674.998, 400.091
675.480, 397.208
675.962, 407.584
676.444, 417.322
676.926, 419.135
677.408, 417.090
677.890, 418.387
678.373, 424.636
678.855, 425.726
679.337, 412.732
679.819, 399.960
680.301, 398.770
680.783, 404.591
681.265, 408.685
681.747, 407.981
682.229, 404.095
682.712, 397.081
683.194, 388.047
683.676, 385.005
684.158, 389.103
684.640, 391.506
685.122, 387.772
685.604, 382.246
686.086, 381.700
686.568, 387.466
687.051, 389.342
687.533, 384.040
688.015, 378.436
688.497, 373.969
688.979, 371.211
689.461, 371.906
689.943, 375.634
690.425, 378.016
690.908, 374.956
691.390, 368.909
691.872, 363.878
692.354, 359.959
692.836, 358.257
693.318, 359.276
693.800, 361.498
694.282, 363.625
694.765, 365.617
695.247, 366.005
695.729, 363.205
696.211, 360.975
696.693, 360.898
697.175, 360.649
697.657, 358.109
698.139, 353.684
698.622, 349.411
699.104, 345.729
699.586, 343.214
700.068, 342.794
700.550, 343.796
701.032, 345.783
701.514, 348.278
701.996, 348.155
702.478, 342.533
702.961, 333.874
703.443, 330.664
703.925, 334.572
704.407, 337.892
704.889, 339.812
705.371, 341.040
705.853, 342.100
706.335, 342.790
706.817, 342.500
707.300, 340.516
707.782, 339.070
708.264, 339.119
708.746, 339.888
709.228, 340.864
709.710, 341.935
710.192, 343.307
710.674, 345.100
711.156, 346.198
711.639, 344.699
712.121, 340.934
712.603, 337.311
713.085, 333.847
713.567, 331.194
714.049, 329.592
714.531, 329.081
715.013, 330.114
715.495, 333.880
715.978, 334.750
716.460, 331.253
716.942, 326.702
717.424, 320.519
717.906, 314.890
718.388, 312.281
718.870, 313.083
719.352, 316.073
719.835, 323.053
720.317, 329.983
720.799, 330.251
721.281, 325.763
721.763, 323.467
722.245, 325.266
722.727, 326.725
723.209, 322.945
723.692, 314.948
724.174, 310.831
724.656, 311.354
725.138, 314.086
725.620, 321.586
726.102, 328.119
726.584, 327.655
727.066, 322.565
727.549, 321.677
728.031, 331.715
728.513, 338.114
728.995, 331.091
729.477, 320.559
729.959, 316.619
730.441, 318.662
730.923, 320.820
731.405, 319.944
731.888, 318.244
732.370, 319.988
732.852, 324.191
733.334, 323.785
733.816, 317.673
734.298, 312.181
734.780, 310.482
735.262, 311.703
735.744, 314.616
736.227, 321.288
736.709, 322.988
737.191, 315.508
737.673, 308.214
738.155, 303.319
738.637, 300.604
739.119, 300.011
739.601, 301.451
740.083, 303.685
740.566, 307.120
741.048, 310.183
741.530, 310.987
742.012, 310.328
742.494, 309.864
742.976, 310.021
743.458, 310.751
743.940, 312.675
744.422, 314.366
744.905, 308.615
745.387, 293.557
745.869, 284.857
746.351, 286.906
746.833, 292.978
747.315, 299.416
747.797, 305.622
748.279, 308.833
748.762, 307.777
749.244, 305.937
749.726, 303.458
750.208, 300.523
750.690, 296.551
751.172, 292.359
751.654, 289.002
752.136, 286.654
752.619, 287.229
753.101, 295.072
753.583, 305.487
754.065, 310.004
754.547, 309.383
755.029, 309.922
755.511, 314.178
755.993, 317.674
756.476, 313.576
756.958, 302.171
757.440, 296.451
757.922, 297.835
758.404, 301.135
758.886, 306.917
759.368, 312.027
759.850, 311.804
760.332, 307.180
760.815, 305.637
761.297, 312.830
761.779, 316.558
762.261, 310.350
762.743, 301.668
763.225, 296.274
763.707, 294.511
764.189, 294.934
764.671, 297.261
765.154, 299.882
765.636, 301.534
766.118, 302.065
766.600, 300.307
767.082, 296.591
767.564, 294.746
768.046, 296.951
768.528, 299.791
769.010, 296.579
769.493, 286.235
769.975, 281.021
770.457, 281.903
770.939, 285.931
771.421, 295.186
771.903, 304.561
772.385, 307.027
772.867, 302.751
773.349, 300.598
773.832, 304.334
774.314, 306.867
774.796, 304.605
775.278, 300.844
775.760, 299.280
776.242, 299.515
776.724, 298.107
777.206, 292.592
777.689, 286.629
778.171, 283.729
778.653, 283.479
779.135, 286.289
779.617, 291.467
780.099, 293.661
780.581, 289.717
781.063, 283.441
781.545, 282.164
782.028, 286.568
782.510, 288.524
782.992, 286.648
783.474, 286.176
783.956, 290.506
784.438, 295.901
784.920, 297.424
785.403, 294.942
785.885, 291.647
786.367, 285.368
786.849, 281.212
787.331, 280.604
787.813, 282.725
788.295, 288.981
788.777, 297.466
789.259, 302.071
789.742, 298.820
790.224, 293.741
790.706, 292.013
791.188, 291.927
791.670, 289.876
792.152, 286.389
792.634, 285.808
793.116, 290.364
793.598, 296.804
794.081, 300.060
794.563, 300.277
795.045, 301.207
795.527, 303.219
796.009, 303.835
796.491, 302.093
796.973, 298.608
797.455, 293.552
797.938, 286.807
798.420, 282.641
798.902, 284.453
799.384, 284.286
799.866, 277.819
800.348, 272.052
800.830, 272.607
801.312, 278.114
801.794, 284.213
802.277, 291.289
802.759, 294.741
803.241, 287.525
803.723, 279.088
804.205, 280.338
804.687, 288.308
805.169, 294.336
805.651, 295.110
806.133, 292.835
806.616, 288.846
807.098, 283.879
807.580, 279.474
808.062, 275.777
808.544, 275.011
809.026, 278.049
809.508, 281.104
809.990, 280.159
810.472, 276.264
810.955, 275.861
811.437, 280.149
811.919, 284.508
812.401, 289.349
812.883, 292.821
813.365, 293.369
813.847, 291.782
814.330, 289.736
814.812, 287.074
815.294, 284.521
815.776, 281.461
816.258, 279.335
816.740, 279.437
817.222, 280.604
817.704, 281.286
818.186, 281.257
818.669, 281.391
819.151, 281.098
819.633, 282.307
820.115, 290.425
820.597, 300.097
821.079, 299.693
821.561, 289.255
822.043, 279.098
822.526, 275.657
823.008, 276.531
823.490, 278.904
823.972, 282.308
824.454, 281.188
824.936, 274.713
825.418, 270.039
825.900, 270.476
826.382, 274.076
826.865, 278.423
827.347, 283.672
827.829, 287.181
828.311, 290.103
828.793, 289.043
829.275, 278.375
829.757, 267.944
830.239, 266.198
830.721, 271.197
831.204, 274.993
831.686, 275.547
832.168, 276.803
832.650, 280.281
833.132, 284.217
833.614, 289.117
834.096, 292.985
834.578, 291.643
835.060, 284.023
835.543, 276.428
836.025, 273.216
836.507, 272.248
836.989, 271.880
837.471, 271.612
837.953, 269.836
838.435, 266.641
838.917, 264.999
839.400, 267.465
839.882, 272.023
840.364, 274.373
840.846, 274.767
841.328, 275.835
841.810, 277.943
842.292, 279.138
842.774, 278.179
843.256, 276.371
843.739, 276.249
844.221, 278.250
844.703, 277.277
845.185, 270.091
845.667, 266.809
846.149, 272.341
846.631, 280.608
847.114, 287.227
847.596, 291.935
848.078, 292.890
848.560, 285.001
849.042, 280.585
849.524, 285.877
850.006, 290.640
850.488, 287.299
850.970, 279.236
851.453, 272.322
851.935, 267.844
852.417, 266.659
852.899, 272.779
853.381, 278.970
853.863, 277.775
854.345, 273.029
854.827, 271.398
855.309, 273.640
855.792, 276.243
856.274, 277.273
856.756, 276.407
857.238, 271.500
857.720, 264.521
858.202, 261.477
858.684, 262.676
859.166, 265.555
859.648, 269.018
860.131, 272.575
860.613, 275.748
861.095, 278.456
861.577, 279.461
862.059, 278.597
862.541, 277.104
863.023, 275.226
863.505, 272.856
863.987, 269.463
864.470, 265.650
864.952, 264.184
865.434, 265.645
865.916, 268.324
866.398, 273.945
866.880, 278.610
867.362, 280.536
867.844, 280.689
868.327, 280.436
868.809, 279.900
869.291, 277.780
869.773, 270.792
870.255, 266.084
870.737, 268.967
871.219, 273.021
871.701, 271.476
872.183, 265.777
872.666, 261.967
873.148, 262.394
873.630, 264.300
874.112, 267.584
874.594, 270.117
875.076, 267.732
875.558, 263.291
876.041, 264.331
876.523, 271.990
877.005, 277.574
877.487, 271.739
877.969, 262.636
878.451, 265.472
878.933, 276.135
879.415, 282.144
879.897, 281.897
880.380, 278.849
880.862, 274.778
881.344, 270.700
881.826, 268.599
882.308, 268.322
882.790, 267.268
883.272, 265.351
883.754, 263.597
884.237, 262.107
884.719, 261.818
885.201, 263.982
885.683, 267.962
886.165, 270.341
886.647, 270.833
887.129, 270.330
887.611, 267.589
888.093, 266.237
888.576, 270.003
889.058, 275.020
889.540, 274.151
890.022, 265.806
890.504, 260.798
890.986, 260.482
891.468, 261.601
891.950, 265.388
892.432, 268.698
892.915, 268.505
893.397, 265.817
893.879, 263.941
894.361, 263.764
894.843, 263.730
895.325, 262.092
895.807, 261.710
896.289, 267.438
896.771, 274.116
897.254, 272.774
897.736, 263.201
898.218, 255.481
898.700, 256.049
899.182, 259.177
899.664, 261.980
900.146, 263.400
900.628, 260.648
901.110, 255.171
901.593, 251.514
902.075, 251.523
902.557, 254.030
903.039, 259.780
903.521, 266.196
904.003, 268.088
904.485, 266.462
904.968, 264.341
905.450, 262.546
905.932, 261.905
906.414, 263.398
906.896, 264.629
907.378, 259.450
907.860, 249.151
908.342, 243.583
908.824, 243.276
909.307, 248.025
909.789, 258.636
910.271, 267.295
910.753, 264.180
911.235, 251.835
911.717, 246.004
912.199, 247.727
912.681, 250.124
913.164, 252.977
913.646, 254.212
914.128, 251.814
914.610, 248.256
915.092, 248.482
915.574, 253.436
916.056, 255.057
916.538, 250.021
917.020, 248.117
917.503, 253.955
917.985, 260.831
918.467, 263.122
918.949, 262.129
919.431, 262.904
919.913, 266.938
920.395, 269.502
920.877, 270.044
921.359, 269.536
921.842, 268.646
922.324, 266.684
922.806, 260.917
923.288, 252.316
923.770, 249.521
924.252, 260.028
924.734, 268.622
925.216, 270.749
925.698, 269.751
926.181, 266.444
926.663, 262.312
927.145, 259.444
927.627, 258.288
928.109, 257.392
928.591, 254.349
929.073, 253.335
929.555, 261.272
930.037, 269.706
930.520, 266.243
931.002, 254.213
931.484, 247.171
931.966, 250.884
932.448, 255.549
932.930, 252.161
933.412, 247.033
933.894, 248.210
934.377, 252.672
934.859, 254.133
935.341, 251.805
935.823, 248.955
936.305, 247.408
936.787, 246.907
937.269, 246.948
937.751, 247.912
938.234, 251.559
938.716, 256.850
939.198, 259.675
939.680, 258.973
940.162, 258.295
940.644, 261.488
941.126, 265.564
941.608, 263.394
942.091, 256.766
942.573, 253.081
943.055, 252.781
943.537, 251.295
944.019, 246.456
944.501, 242.456
944.983, 245.763
945.465, 253.871
945.947, 255.100
946.430, 249.877
946.912, 247.704
947.394, 250.440
947.876, 250.452
948.358, 242.148
948.840, 232.495
949.322, 236.159
949.804, 252.891
950.286, 259.415
950.769, 254.219
951.251, 252.207
951.733, 258.100
952.215, 263.718
952.697, 262.353
953.179, 256.202
953.661, 251.116
954.143, 246.911
954.625, 245.076
955.108, 246.038
955.590, 248.050
956.072, 250.671
956.554, 254.168
957.036, 260.115
957.518, 266.984
958.000, 264.622
958.482, 246.476
958.964, 238.179
959.447, 245.975
959.929, 253.699
960.411, 254.204
960.893, 251.744
961.375, 251.645
961.857, 253.834
962.339, 255.144
962.821, 254.433
963.304, 255.106
963.786, 260.245
964.268, 263.132
964.750, 258.919
965.232, 251.214
965.714, 245.301
966.196, 241.146
966.678, 239.037
967.161, 238.846
967.643, 240.867
968.125, 249.760
968.607, 256.213
969.089, 251.160
969.571, 240.849
970.053, 238.308
970.535, 245.827
971.018, 251.866
971.500, 255.387
971.982, 257.493
972.464, 258.463
972.946, 258.118
973.428, 256.286
973.910, 253.027
974.392, 247.970
974.874, 239.662
975.357, 234.740
975.839, 237.028
976.321, 239.544
976.803, 237.982
977.285, 236.818
977.767, 242.404
978.249, 252.189
978.731, 256.103
979.213, 249.772
979.696, 244.690
980.178, 245.417
980.660, 246.037
981.142, 240.648
981.624, 235.763
982.106, 242.106
982.588, 256.631
983.070, 261.547
983.552, 246.887
984.035, 234.807
984.517, 233.529
984.999, 235.522
985.481, 238.257
985.963, 240.402
986.445, 239.805
986.927, 236.958
987.409, 236.161
987.891, 241.102
988.374, 243.933
988.856, 240.152
989.338, 234.807
989.820, 229.964
990.302, 226.604
990.784, 226.280
991.266, 228.822
991.748, 231.213
992.231, 231.144
992.713, 232.594
993.195, 241.008
993.677, 247.961
994.159, 244.061
994.641, 235.503
995.123, 233.337
995.605, 238.971
996.088, 243.834
996.570, 244.404
997.052, 243.461
997.534, 240.718
998.016, 238.452
998.498, 238.568
998.980, 240.561
999.462, 244.194
999.945, 249.139
1000.427, 251.621
1000.909, 247.540
1001.391, 243.761
1001.873, 244.278
1002.355, 246.046
1002.837, 246.702
1003.319, 246.423
1003.801, 245.957
1004.284, 245.478
1004.766, 244.987
1005.248, 244.888
1005.730, 244.274
1006.212, 240.145
1006.694, 237.536
1007.176, 244.121
1007.658, 254.713
1008.140, 257.535
1008.623, 250.033
1009.105, 244.466
1009.587, 248.896
1010.069, 253.039
1010.551, 251.603
1011.033, 247.693
1011.515, 241.992
1011.997, 236.767
1012.479, 236.997
1012.962, 243.859
1013.444, 248.181
1013.926, 244.383
1014.408, 239.470
1014.890, 234.567
1015.372, 231.959
1015.854, 236.049
1016.336, 243.202
1016.819, 245.026
1017.301, 239.512
1017.783, 236.817
1018.265, 246.318
1018.747, 252.118
1019.229, 242.024
1019.711, 230.026
1020.193, 229.379
1020.675, 235.540
1021.158, 237.589
1021.640, 233.348
1022.122, 228.240
1022.604, 223.008
1023.086, 218.409
1023.568, 215.326
1024.050, 212.460
1024.532, 205.789
1025.015, 199.630
1025.497, 204.313
1025.979, 222.332
1026.461, 234.870
1026.943, 232.173
1027.425, 230.261
1027.907, 237.732
1028.389, 244.305
1028.871, 239.415
1029.354, 229.460
1029.836, 227.667
1030.318, 236.277
1030.800, 241.873
1031.282, 239.581
1031.764, 237.668
1032.246, 240.621
1032.728, 241.974
1033.210, 234.397
1033.693, 223.734
1034.175, 220.531
1034.657, 225.995
1035.139, 231.501
1035.621, 238.437
1036.103, 242.225
1036.585, 238.461
1037.067, 235.320
1037.550, 239.232
1038.032, 245.725
1038.514, 247.241
1038.996, 243.283
1039.478, 240.831
1039.960, 240.870
1040.442, 240.840
1040.924, 240.599
1041.406, 240.140
1041.889, 239.311
1042.371, 238.357
1042.853, 237.450
1043.335, 236.601
1043.817, 237.039
1044.299, 241.060
1044.781, 240.923
1045.263, 232.411
1045.745, 226.592
1046.228, 230.102
1046.710, 236.452
1047.192, 237.044
1047.674, 232.683
1048.156, 232.212
1048.638, 238.020
1049.120, 238.872
1049.602, 231.707
1050.085, 226.505
1050.567, 227.804
1051.049, 231.575
1051.531, 233.511
1052.013, 233.968
1052.495, 235.070
1052.977, 237.273
1053.459, 235.693
1053.942, 228.979
1054.424, 225.806
1054.906, 229.971
1055.388, 234.393
1055.870, 231.863
1056.352, 225.481
1056.834, 225.061
1057.316, 230.408
1057.798, 233.602
1058.281, 234.337
1058.763, 233.895
1059.245, 232.598
1059.727, 232.424
1060.209, 235.408
1060.691, 238.537
1061.173, 233.775
1061.655, 223.668
1062.137, 220.961
1062.620, 225.134
1063.102, 232.205
1063.584, 240.602
1064.066, 244.529
1064.548, 239.879
1065.030, 232.898
1065.512, 233.637
1065.994, 238.075
1066.477, 235.921
1066.959, 229.652
1067.441, 226.140
1067.923, 226.643
1068.405, 230.744
1068.887, 238.397
1069.369, 244.900
1069.851, 244.398
1070.333, 241.050
1070.816, 240.704
1071.298, 241.374
1071.780, 239.193
1072.262, 234.683
1072.744, 230.791
1073.226, 228.567
1073.708, 227.338
1074.190, 226.757
1074.672, 226.826
1075.155, 227.125
1075.637, 228.417
1076.119, 232.917
1076.601, 238.605
1077.083, 241.214
1077.565, 239.940
1078.047, 238.303
1078.530, 238.898
1079.012, 237.960
1079.494, 231.126
1079.976, 225.055
1080.458, 225.617
1080.940, 229.371
1081.422, 231.521
1081.904, 231.578
1082.386, 230.542
1082.869, 226.684
1083.351, 225.151
1083.833, 229.437
1084.315, 232.931
1084.797, 232.148
1085.279, 229.684
1085.761, 228.384
1086.243, 227.828
1086.725, 225.665
1087.208, 219.850
1087.690, 217.989
1088.172, 222.657
1088.654, 226.383
1089.136, 226.774
1089.618, 226.489
1090.100, 227.654
1090.582, 229.368
1091.065, 229.076
1091.547, 226.308
1092.029, 228.377
1092.511, 237.062
1092.993, 240.472
1093.475, 235.457
1093.957, 230.267
1094.439, 229.630
1094.922, 231.094
1095.404, 231.140
1095.886, 230.083
1096.368, 229.545
1096.850, 229.486
1097.332, 229.711
1097.814, 230.097
1098.296, 229.150
1098.778, 226.303
1099.260, 223.844
1099.743, 224.336
1100.225, 225.846
1100.707, 224.738
1101.189, 221.880
1101.671, 218.216
1102.153, 214.851
1102.635, 215.344
1103.117, 219.936
1103.600, 224.345
1104.082, 225.954
1104.564, 226.402
1105.046, 226.944
1105.528, 227.423
1106.010, 228.606
1106.492, 229.056
1106.974, 223.967
1107.457, 215.998
1107.939, 216.598
1108.421, 231.230
1108.903, 242.030
1109.385, 237.213
1109.867, 230.571
1110.349, 227.312
1110.831, 227.121
1111.313, 231.852
1111.796, 238.446
1112.278, 240.714
1112.760, 237.690
1113.242, 235.493
1113.724, 233.850
1114.206, 234.703
1114.688, 242.896
1115.170, 247.995
1115.652, 244.408
1116.135, 236.456
1116.617, 227.533
1117.099, 218.561
1117.581, 215.744
1118.063, 221.115
1118.545, 225.303
1119.027, 228.159
1119.509, 229.657
1119.992, 229.760
1120.474, 228.233
1120.956, 224.215
1121.438, 220.398
1121.920, 224.674
1122.402, 235.443
1122.884, 234.581
1123.366, 223.602
1123.849, 217.454
1124.331, 218.383
1124.813, 219.983
1125.295, 219.094
1125.777, 216.480
1126.259, 211.933
1126.741, 207.366
1127.223, 205.973
1127.705, 207.019
1128.188, 209.106
1128.670, 212.355
1129.152, 218.849
1129.634, 228.196
1130.116, 234.181
1130.598, 232.427
1131.080, 228.549
1131.562, 224.782
1132.044, 222.287
1132.527, 223.432
1133.009, 225.441
1133.491, 224.117
1133.973, 220.321
1134.455, 218.774
1134.937, 221.283
1135.419, 222.447
1135.901, 219.018
1136.384, 217.156
1136.866, 221.165
1137.348, 224.448
1137.830, 221.832
1138.312, 216.603
1138.794, 213.747
1139.276, 213.250
1139.758, 214.646
1140.240, 219.026
1140.723, 221.040
1141.205, 219.497
1141.687, 218.852
1142.169, 220.889
1142.651, 223.751
1143.133, 225.744
1143.615, 227.205
1144.097, 229.949
1144.579, 233.092
1145.062, 229.023
1145.544, 219.555
1146.026, 216.973
1146.508, 222.837
1146.990, 229.999
1147.472, 234.909
1147.954, 236.795
1148.436, 233.712
1148.919, 228.264
1149.401, 221.720
1149.883, 216.312
1150.365, 216.588
1150.847, 220.306
1151.329, 221.643
1151.811, 219.666
1152.293, 218.863
1152.776, 222.822
1153.258, 224.938
1153.740, 218.538
1154.222, 214.299
1154.704, 222.126
1155.186, 231.935
1155.668, 231.987
1156.150, 224.875
1156.632, 221.325
1157.115, 222.750
1157.597, 222.075
1158.079, 216.955
1158.561, 215.619
1159.043, 221.552
1159.525, 225.622
1160.007, 222.261
1160.489, 217.008
1160.971, 217.069
1161.454, 221.229
1161.936, 225.215
1162.418, 228.764
1162.900, 228.147
1163.382, 223.623
1163.864, 219.436
1164.346, 216.771
1164.828, 214.527
1165.311, 211.832
1165.793, 210.685
1166.275, 215.311
1166.757, 221.396
1167.239, 222.746
1167.721, 221.551
1168.203, 221.635
1168.685, 222.448
1169.167, 220.950
1169.650, 216.518
1170.132, 212.662
1170.614, 210.747
1171.096, 209.947
1171.578, 210.616
1172.060, 211.555
1172.542, 212.294
1173.024, 212.799
1173.506, 212.115
1173.989, 211.267
1174.471, 214.728
1174.953, 225.249
1175.435, 226.592
1175.917, 214.542
1176.399, 206.946
1176.881, 207.070
1177.363, 212.505
1177.846, 223.114
1178.328, 233.082
1178.810, 234.929
1179.292, 230.912
1179.774, 227.057
1180.256, 223.441
1180.738, 219.840
1181.220, 216.677
1181.703, 216.351
1182.185, 218.774
1182.667, 219.397
1183.149, 215.201
1183.631, 212.839
1184.113, 222.751
1184.595, 231.726
1185.077, 224.550
1185.559, 213.408
1186.042, 212.012
1186.524, 217.129
1187.006, 220.600
1187.488, 221.145
1187.970, 219.733
1188.452, 212.240
1188.934, 209.920
1189.416, 218.118
1189.898, 224.607
1190.381, 224.827
1190.863, 223.642
1191.345, 225.262
1191.827, 227.586
1192.309, 225.274
1192.791, 218.840
1193.273, 219.777
1193.755, 227.643
1194.238, 226.084
1194.720, 214.227
1195.202, 208.898
1195.684, 215.967
1196.166, 223.278
1196.648, 220.593
1197.130, 214.253
1197.612, 211.027
1198.094, 209.898
1198.577, 210.329
1199.059, 211.366
1199.541, 211.982
1200.023, 211.887
1200.505, 210.077
1200.987, 206.011
1201.469, 205.468
1201.951, 216.430
1202.433, 221.902
1202.916, 209.939
1203.398, 201.304
1203.880, 209.210
1204.362, 220.969
1204.844, 224.823
1205.326, 221.840
1205.808, 214.749
1206.290, 202.995
1206.773, 194.343
1207.255, 188.773
1207.737, 185.925
1208.219, 185.766
1208.701, 190.134
1209.183, 199.837
1209.665, 208.845
1210.147, 211.218
1210.630, 209.723
1211.112, 206.205
1211.594, 203.018
1212.076, 205.409
1212.558, 209.748
1213.040, 207.847
1213.522, 201.228
1214.004, 199.950
1214.486, 207.928
1214.969, 213.070
1215.451, 209.135
1215.933, 205.658
1216.415, 205.333
1216.897, 205.836
1217.379, 205.667
1217.861, 206.234
1218.343, 209.572
1218.825, 214.574
1219.308, 217.084
1219.790, 216.943
1220.272, 217.658
1220.754, 219.184
1221.236, 218.083
1221.718, 214.207
1222.200, 214.967
1222.682, 223.473
1223.165, 228.878
1223.647, 218.310
1224.129, 205.023
1224.611, 206.095
1225.093, 212.326
1225.575, 213.894
1226.057, 212.320
1226.539, 209.820
1227.021, 207.587
1227.504, 208.611
1227.986, 214.685
1228.468, 216.283
1228.950, 205.337
1229.432, 200.454
1229.914, 208.385
1230.396, 214.341
1230.878, 211.141
1231.360, 205.939
1231.843, 205.746
1232.325, 208.518
1232.807, 209.486
1233.289, 208.579
1233.771, 204.051
1234.253, 197.036
1234.735, 193.287
1235.217, 193.060
1235.700, 192.710
1236.182, 191.124
1236.664, 191.393
1237.146, 196.695
1237.628, 201.970
1238.110, 205.430
1238.592, 205.317
1239.074, 195.656
1239.557, 185.682
1240.039, 186.970
1240.521, 195.425
1241.003, 198.831
1241.485, 196.580
1241.967, 196.380
1242.449, 198.809
1242.931, 201.398
1243.413, 204.040
1243.896, 206.562
1244.378, 208.938
1244.860, 211.154
1245.342, 213.463
1245.824, 213.633
1246.306, 206.054
1246.788, 195.802
1247.270, 192.553
1247.752, 193.927
1248.235, 197.774
1248.717, 201.895
1249.199, 202.313
1249.681, 198.822
1250.163, 194.516
1250.645, 188.532
1251.127, 187.692
1251.609, 199.262
1252.092, 208.151
1252.574, 208.214
1253.056, 207.779
1253.538, 211.979
1254.020, 216.483
1254.502, 215.660
1254.984, 211.229
1255.466, 209.111
1255.948, 209.223
1256.431, 212.370
1256.913, 217.159
1257.395, 215.066
1257.877, 206.563
1258.359, 202.139
1258.841, 205.717
1259.323, 208.905
1259.805, 204.057
1260.287, 200.375
1260.770, 207.577
1261.252, 213.717
1261.734, 208.008
1262.216, 199.208
1262.698, 195.846
1263.180, 197.525
1263.662, 203.176
1264.144, 212.940
1264.627, 215.999
1265.109, 211.196
1265.591, 207.127
1266.073, 204.374
1266.555, 206.666
1267.037, 214.731
1267.519, 218.240
1268.001, 210.240
1268.484, 200.228
1268.966, 198.684
1269.448, 201.297
1269.930, 204.725
1270.412, 207.932
1270.894, 210.379
1271.376, 211.421
1271.858, 209.399
1272.340, 204.963
1272.823, 201.861
##END=



