##NAMES=Fizelyite
##RRUFFID=R060175
##IDEAL CHEMISTRY=Ag^1+^_5_Pb^2+^_14_Sb^3+^_21_S^2-^_48_
##LOCALITY=Van Silver mine, Squamish, British Columbia, Canada
##OWNER=RRUFF
##SOURCE=Ty Balacko
##DESCRIPTION=Dark gray deeply-striated single crystals
##STATUS=The identification of this mineral is confirmed by single-crystal X-ray diffraction and chemical analysis.
##URL=rruff.info/R060175
##MEASURED CHEMISTRY=Pb_13.74_Ag_5.94_Sb_20.87_S_48.00_
160.574, 13762.430
161.057, 13708.990
161.539, 13668.250
162.021, 13668.290
162.503, 13782.990
162.985, 13892.710
163.467, 13928.220
163.949, 13868.210
164.431, 13792.250
164.913, 13735.210
165.396, 13688.650
165.878, 13637.100
166.360, 13555.050
166.842, 13476.760
167.324, 13434.450
167.806, 13448.890
168.288, 13462.300
168.770, 13438.080
169.253, 13383.300
169.735, 13316.810
170.217, 13220.310
170.699, 13129.870
171.181, 13090.130
171.663, 13138.930
172.145, 13199.960
172.627, 13196.250
173.109, 13139.980
173.592, 13092.410
174.074, 13112.980
174.556, 13165.530
175.038, 13191.360
175.520, 13152.290
176.002, 13097.770
176.484, 13099.680
176.966, 13153.540
177.449, 13198.030
177.931, 13162.350
178.413, 13078.770
178.895, 13020.410
179.377, 13035.760
179.859, 13082.490
180.341, 13085.790
180.823, 13043.930
181.305, 12993.240
181.788, 12972.390
182.270, 12973.640
182.752, 12968.250
183.234, 12928.810
183.716, 12874.500
184.198, 12859.740
184.680, 12889.480
185.162, 12932.620
185.645, 12972.760
186.127, 13003.780
186.609, 12986.190
187.091, 12845.330
187.573, 12626.550
188.055, 12533.350
188.537, 12596.070
189.019, 12721.480
189.501, 12778.020
189.984, 12767.540
190.466, 12731.490
190.948, 12681.320
191.430, 12620.020
191.912, 12574.040
192.394, 12546.760
192.876, 12533.290
193.358, 12528.190
193.840, 12532.200
194.323, 12534.260
194.805, 12520.650
195.287, 12492.560
195.769, 12487.610
196.251, 12517.830
196.733, 12566.600
197.215, 12585.300
197.697, 12569.400
198.180, 12552.730
198.662, 12563.630
199.144, 12604.490
199.626, 12635.490
200.108, 12650.140
200.590, 12651.210
201.072, 12643.860
201.554, 12622.920
202.036, 12611.260
202.519, 12633.740
203.001, 12696.110
203.483, 12747.520
203.965, 12776.350
204.447, 12785.880
204.929, 12804.070
205.411, 12841.270
205.893, 12860.450
206.376, 12809.700
206.858, 12663.880
207.340, 12566.170
207.822, 12560.580
208.304, 12639.130
208.786, 12689.600
209.268, 12708.300
209.750, 12705.700
210.232, 12689.320
210.714, 12655.890
211.197, 12623.130
211.679, 12598.080
212.161, 12581.440
212.643, 12550.280
213.125, 12498.000
213.607, 12441.410
214.089, 12400.040
214.572, 12377.840
215.054, 12359.900
215.536, 12340.620
216.018, 12318.320
216.500, 12309.810
216.982, 12319.830
217.464, 12337.770
217.946, 12349.260
218.428, 12350.620
218.911, 12352.060
219.393, 12355.300
219.875, 12359.240
220.357, 12371.820
220.839, 12400.050
221.321, 12431.380
221.803, 12446.540
222.285, 12438.720
222.767, 12428.870
223.250, 12424.470
223.732, 12427.930
224.214, 12427.050
224.696, 12416.300
225.178, 12405.390
225.660, 12412.020
226.142, 12445.110
226.624, 12480.000
227.107, 12506.550
227.589, 12519.750
228.071, 12542.050
228.553, 12581.270
229.035, 12625.730
229.517, 12652.890
229.999, 12664.270
230.481, 12655.780
230.963, 12618.420
231.445, 12525.750
231.928, 12479.090
232.410, 12503.150
232.892, 12564.320
233.374, 12583.160
233.856, 12534.470
234.338, 12483.320
234.820, 12453.790
235.303, 12447.590
235.785, 12463.110
236.267, 12519.240
236.749, 12592.290
237.231, 12618.900
237.713, 12576.620
238.195, 12521.100
238.677, 12473.780
239.159, 12431.720
239.641, 12404.980
240.124, 12395.190
240.606, 12400.420
241.088, 12414.130
241.570, 12429.490
242.052, 12462.960
242.534, 12529.640
243.016, 12670.580
243.498, 12750.290
243.981, 12731.610
244.463, 12656.430
244.945, 12655.080
245.427, 12785.080
245.909, 12906.400
246.391, 12947.140
246.873, 12848.990
247.355, 12801.660
247.837, 12836.080
248.320, 12918.310
248.802, 12941.970
249.284, 12866.200
249.766, 12792.500
250.248, 12772.030
250.730, 12835.710
251.212, 12881.240
251.694, 12902.110
252.176, 12904.760
252.659, 12909.230
253.141, 12922.520
253.623, 12928.240
254.105, 12915.140
254.587, 12869.210
255.069, 12842.240
255.551, 12840.580
256.033, 12858.030
256.516, 12877.300
256.998, 12901.740
257.480, 12922.250
257.962, 12934.500
258.444, 12937.850
258.926, 12930.670
259.408, 12899.080
259.890, 12860.480
260.372, 12872.730
260.855, 12963.000
261.337, 13052.940
261.819, 13096.640
262.301, 13069.570
262.783, 13077.470
263.265, 13141.150
263.747, 13233.790
264.229, 13277.410
264.711, 13242.340
265.194, 13221.330
265.676, 13278.200
266.158, 13449.160
266.640, 13543.750
267.122, 13528.880
267.604, 13451.110
268.086, 13429.210
268.569, 13482.280
269.051, 13542.190
269.533, 13575.800
270.015, 13579.240
270.497, 13575.540
270.979, 13561.080
271.461, 13544.010
271.943, 13543.500
272.425, 13562.610
272.908, 13588.380
273.390, 13611.260
273.872, 13628.040
274.354, 13672.630
274.836, 13763.680
275.318, 13862.850
275.800, 13879.970
276.282, 13794.980
276.764, 13719.900
277.247, 13719.120
277.729, 13800.720
278.211, 13847.010
278.693, 13846.890
279.175, 13825.040
279.657, 13821.600
280.139, 13836.810
280.621, 13867.170
281.103, 13913.420
281.586, 13975.330
282.068, 14049.810
282.550, 14146.830
283.032, 14234.460
283.514, 14246.870
283.996, 14179.720
284.478, 14125.510
284.960, 14140.120
285.443, 14215.380
285.925, 14245.300
286.407, 14218.010
286.889, 14183.830
287.371, 14226.220
287.853, 14341.620
288.335, 14439.000
288.817, 14461.680
289.299, 14428.930
289.782, 14444.820
290.264, 14517.150
290.746, 14598.050
291.228, 14621.180
291.710, 14594.480
292.192, 14577.080
292.674, 14598.900
293.156, 14646.900
293.638, 14688.960
294.121, 14725.980
294.603, 14747.750
295.085, 14724.690
295.567, 14671.770
296.049, 14648.760
296.531, 14698.510
297.013, 14785.320
297.496, 14836.710
297.978, 14851.640
298.460, 14858.530
298.942, 14894.400
299.424, 14943.260
299.906, 14961.430
300.388, 14907.430
300.870, 14832.330
301.352, 14820.080
301.835, 14866.950
302.317, 14913.300
302.799, 14897.210
303.281, 14849.150
303.763, 14827.310
304.245, 14878.030
304.727, 14931.860
305.209, 14901.840
305.691, 14796.790
306.174, 14687.240
306.656, 14633.450
307.138, 14598.250
307.620, 14531.540
308.102, 14409.420
308.584, 14267.280
309.066, 14127.800
309.548, 13990.140
310.030, 13858.520
310.513, 13736.690
310.995, 13619.720
311.477, 13503.170
311.959, 13381.840
312.441, 13269.290
312.923, 13182.690
313.405, 13113.170
313.887, 13038.560
314.370, 12925.160
314.852, 12816.040
315.334, 12751.770
315.816, 12768.590
316.298, 12754.880
316.780, 12632.330
317.262, 12446.670
317.744, 12286.700
318.226, 12204.290
318.709, 12142.720
319.191, 12071.220
319.673, 11977.960
320.155, 11903.840
320.637, 11876.430
321.119, 11871.620
321.601, 11854.940
322.083, 11790.020
322.565, 11737.070
323.048, 11722.560
323.530, 11757.080
324.012, 11782.170
324.494, 11798.510
324.976, 11797.370
325.458, 11769.450
325.940, 11681.090
326.422, 11598.500
326.905, 11530.160
327.387, 11475.070
327.869, 11445.850
328.351, 11472.060
328.833, 11507.640
329.315, 11516.990
329.797, 11492.890
330.279, 11450.880
330.762, 11375.560
331.244, 11271.040
331.726, 11218.460
332.208, 11255.530
332.690, 11305.940
333.172, 11317.510
333.654, 11265.670
334.136, 11224.380
334.618, 11201.770
335.100, 11194.590
335.583, 11188.880
336.065, 11186.920
336.547, 11182.450
337.029, 11170.280
337.511, 11146.420
337.993, 11128.780
338.475, 11118.970
338.957, 11114.700
339.440, 11113.490
339.922, 11118.290
340.404, 11114.290
340.886, 11085.510
341.368, 11029.030
341.850, 11006.290
342.332, 11028.700
342.814, 11065.180
343.297, 11064.070
343.779, 11024.100
344.261, 10982.910
344.743, 10960.570
345.225, 10952.290
345.707, 10923.350
346.189, 10870.350
346.671, 10813.490
347.153, 10760.060
347.635, 10715.560
348.118, 10714.700
348.600, 10654.673
349.082, 10699.363
349.564, 10718.636
350.046, 10713.855
350.528, 10612.980
351.010, 10636.191
351.492, 10609.672
351.975, 10581.116
352.457, 10621.792
352.939, 10534.894
353.421, 10574.472
353.903, 10563.562
354.385, 10575.757
354.867, 10537.919
355.349, 10514.220
355.832, 10464.150
356.314, 10385.080
356.796, 10304.500
357.278, 10242.130
357.760, 10195.390
358.242, 10158.210
358.724, 10130.750
359.206, 10109.160
359.688, 10095.690
360.171, 10096.380
360.653, 10080.330
361.135, 10017.200
361.617, 9930.747
362.099, 9857.375
362.581, 9816.603
363.063, 9783.533
363.545, 9744.754
364.027, 9697.557
364.510, 9665.086
364.992, 9663.756
365.474, 9674.836
365.956, 9681.130
366.438, 9687.673
366.920, 9680.997
367.402, 9652.244
367.884, 9603.031
368.366, 9561.889
368.849, 9534.376
369.331, 9512.467
369.813, 9493.160
370.295, 9496.323
370.777, 9470.900
371.259, 9389.302
371.741, 9278.163
372.224, 9227.272
372.706, 9286.830
373.188, 9333.095
373.670, 9297.318
374.152, 9131.996
374.634, 9050.702
375.116, 9080.042
375.598, 9168.291
376.080, 9235.720
376.562, 9283.684
377.045, 9302.547
377.527, 9281.852
378.009, 9222.822
378.491, 9167.534
378.973, 9116.108
379.455, 9069.129
379.937, 9020.790
380.419, 8971.492
380.902, 8956.225
381.384, 9004.484
381.866, 9082.315
382.348, 9078.170
382.830, 8991.646
383.312, 8915.359
383.794, 8961.403
384.276, 9080.693
384.759, 9117.454
385.241, 9011.129
385.723, 8873.785
386.205, 8879.233
386.687, 8993.937
387.169, 9088.627
387.651, 9053.968
388.133, 8967.747
388.615, 8931.910
389.098, 8966.311
389.580, 9002.599
390.062, 8979.195
390.544, 8922.688
391.026, 8877.824
391.508, 8880.125
391.990, 8887.454
392.472, 8867.339
392.954, 8818.974
393.437, 8785.847
393.919, 8795.194
394.401, 8824.947
394.883, 8855.837
395.365, 8924.442
395.847, 8949.974
396.329, 8865.674
396.811, 8703.928
397.293, 8619.132
397.776, 8708.445
398.258, 8826.895
398.740, 8907.053
399.222, 8934.520
399.704, 8940.047
400.186, 8920.755
400.668, 8880.182
401.151, 8820.464
401.633, 8698.246
402.115, 8619.296
402.597, 8632.143
403.079, 8756.385
403.561, 8813.101
404.043, 8775.474
404.525, 8705.203
405.007, 8670.432
405.490, 8682.135
405.972, 8683.757
406.454, 8654.922
406.936, 8608.480
407.418, 8605.270
407.900, 8650.173
408.382, 8713.432
408.864, 8777.805
409.346, 8843.014
409.828, 8910.580
410.311, 8986.145
410.793, 9050.980
411.275, 9066.467
411.757, 9038.608
412.239, 9010.557
412.721, 8998.296
413.203, 9002.897
413.685, 9032.541
414.168, 9089.115
414.650, 9147.837
415.132, 9183.142
415.614, 9204.698
416.096, 9229.062
416.578, 9265.460
417.060, 9304.864
417.542, 9347.712
418.025, 9390.813
418.507, 9413.792
418.989, 9364.277
419.471, 9313.839
419.953, 9325.480
420.435, 9456.481
420.917, 9574.843
421.399, 9624.956
421.881, 9630.751
422.364, 9643.026
422.846, 9678.150
423.328, 9717.704
423.810, 9754.861
424.292, 9788.614
424.774, 9824.442
425.256, 9859.167
425.738, 9898.335
426.220, 9947.396
426.703, 10017.340
427.185, 10079.100
427.667, 10119.740
428.149, 10144.440
428.631, 10202.070
429.113, 10314.860
429.595, 10420.720
430.077, 10469.860
430.560, 10449.260
431.042, 10460.430
431.524, 10519.510
432.006, 10599.770
432.488, 10647.970
432.970, 10662.650
433.452, 10678.680
433.934, 10715.640
434.417, 10767.520
434.899, 10808.370
435.381, 10837.260
435.863, 10865.790
436.345, 10913.760
436.827, 10971.330
437.309, 11010.660
437.791, 11016.440
438.273, 11008.680
438.755, 11003.370
439.238, 11002.190
439.720, 11012.780
440.202, 11070.700
440.684, 11126.030
441.166, 11119.990
441.648, 11023.270
442.130, 10937.070
442.612, 10912.860
443.095, 10932.560
443.577, 10968.690
444.059, 11031.360
444.541, 11091.360
445.023, 11151.010
445.505, 11211.210
445.987, 11221.240
446.469, 11110.800
446.952, 10988.150
447.434, 10926.110
447.916, 10984.700
448.398, 11022.140
448.880, 11035.550
449.362, 11024.060
449.844, 10979.190
450.326, 10876.650
450.808, 10786.620
451.290, 10735.920
451.773, 10726.730
452.255, 10748.710
452.737, 10820.470
453.219, 10884.970
453.701, 10856.150
454.183, 10730.150
454.665, 10639.650
455.147, 10629.800
455.630, 10667.420
456.112, 10670.250
456.594, 10638.940
457.076, 10592.430
457.558, 10532.560
458.040, 10469.210
458.522, 10427.900
459.004, 10416.510
459.487, 10406.940
459.969, 10367.430
460.451, 10309.400
460.933, 10255.230
461.415, 10210.210
461.897, 10177.920
462.379, 10168.100
462.861, 10179.340
463.343, 10183.300
463.826, 10147.630
464.308, 10110.570
464.790, 10104.100
465.272, 10183.330
465.754, 10225.530
466.236, 10183.220
466.718, 10087.390
467.200, 10013.130
467.682, 9979.455
468.165, 9953.854
468.647, 9924.466
469.129, 9886.831
469.611, 9873.674
470.093, 9896.979
470.575, 9929.920
471.057, 9951.953
471.539, 9967.510
472.022, 9948.313
472.504, 9872.510
472.986, 9769.784
473.468, 9737.716
473.950, 9782.396
474.432, 9832.818
474.914, 9852.517
475.396, 9844.463
475.878, 9813.577
476.361, 9756.162
476.843, 9702.396
477.325, 9700.903
477.807, 9730.379
478.289, 9736.455
478.771, 9669.352
479.253, 9598.478
479.735, 9611.585
480.217, 9691.063
480.700, 9750.469
481.182, 9717.950
481.664, 9658.812
482.146, 9627.021
482.628, 9644.813
483.110, 9649.022
483.592, 9592.229
484.074, 9515.505
484.556, 9475.818
485.039, 9537.535
485.521, 9581.460
486.003, 9561.867
486.485, 9483.033
486.967, 9450.449
487.449, 9486.030
487.931, 9543.617
488.414, 9605.288
488.896, 9690.157
489.378, 9717.731
489.860, 9673.036
490.342, 9585.948
490.824, 9496.124
491.306, 9399.696
491.788, 9335.515
492.270, 9329.632
492.753, 9365.250
493.235, 9375.604
493.717, 9359.870
494.199, 9339.588
494.681, 9328.698
495.163, 9326.777
495.645, 9332.558
496.127, 9345.162
496.609, 9366.651
497.092, 9416.146
497.574, 9475.530
498.056, 9506.187
498.538, 9468.406
499.020, 9412.880
499.502, 9355.883
499.984, 9299.189
500.466, 9288.099
500.948, 9383.130
501.431, 9503.204
501.913, 9590.377
502.395, 9630.846
502.877, 9645.085
503.359, 9605.414
503.841, 9544.962
504.323, 9530.935
504.805, 9593.489
505.288, 9655.763
505.770, 9697.729
506.252, 9719.403
506.734, 9728.795
507.216, 9721.747
507.698, 9712.426
508.180, 9723.468
508.662, 9754.296
509.145, 9739.002
509.627, 9653.564
510.109, 9550.136
510.591, 9522.181
511.073, 9558.526
511.555, 9597.593
512.037, 9603.754
512.519, 9597.089
513.001, 9618.343
513.484, 9665.405
513.966, 9683.929
514.448, 9602.983
514.930, 9490.273
515.412, 9416.574
515.894, 9413.817
516.376, 9422.742
516.858, 9428.197
517.341, 9428.003
517.823, 9418.140
518.305, 9402.918
518.787, 9372.604
519.269, 9316.684
519.751, 9233.457
520.233, 9165.677
520.715, 9127.394
521.197, 9090.179
521.680, 9031.128
522.162, 8936.877
522.644, 8870.931
523.126, 8847.414
523.608, 8841.546
524.090, 8808.369
524.572, 8746.476
525.054, 8677.910
525.536, 8601.337
526.019, 8526.196
526.501, 8489.774
526.983, 8490.624
527.465, 8480.923
527.947, 8396.083
528.429, 8285.222
528.911, 8233.587
529.393, 8147.947
529.875, 8206.821
530.358, 8230.616
530.840, 8221.216
531.322, 8079.199
531.804, 8108.423
532.286, 8069.027
532.768, 8026.814
533.250, 8080.147
533.732, 7957.417
534.214, 8009.237
534.697, 7991.373
535.179, 8005.406
535.661, 7950.383
536.143, 7914.871
536.625, 7873.245
537.107, 7807.831
537.589, 7779.316
538.071, 7796.487
538.554, 7804.063
539.036, 7782.005
539.518, 7746.061
540.000, 7744.425
540.482, 7777.151
540.964, 7825.326
541.446, 7891.351
541.928, 7962.062
542.411, 8004.189
542.893, 8013.471
543.375, 8018.362
543.857, 8055.011
544.339, 8099.162
544.821, 8115.363
545.303, 8067.698
545.785, 8021.492
546.268, 8015.653
546.750, 8037.010
547.232, 8050.217
547.714, 8026.561
548.196, 8010.806
548.678, 8029.117
549.160, 8093.027
549.642, 8118.413
550.124, 8077.467
550.606, 8026.398
551.089, 8006.654
551.571, 8023.244
552.053, 8056.182
552.535, 8108.554
553.017, 8169.972
553.499, 8228.773
553.981, 8285.140
554.463, 8309.734
554.945, 8266.624
555.428, 8193.000
555.910, 8185.767
556.392, 8240.784
556.874, 8306.853
557.356, 8354.898
557.838, 8389.061
558.320, 8411.713
558.802, 8420.135
559.284, 8430.400
559.767, 8459.893
560.249, 8494.212
560.731, 8515.240
561.213, 8492.219
561.695, 8483.120
562.177, 8504.902
562.659, 8554.191
563.141, 8611.770
563.624, 8704.266
564.106, 8768.892
564.588, 8767.319
565.070, 8684.248
565.552, 8668.978
566.034, 8745.110
566.516, 8836.366
566.998, 8854.663
567.481, 8803.939
567.963, 8790.944
568.445, 8841.787
568.927, 8920.947
569.409, 8984.655
569.891, 9032.072
570.373, 9062.359
570.855, 9043.142
571.338, 9026.877
571.820, 9076.008
572.302, 9185.117
572.784, 9294.296
573.266, 9400.513
573.748, 9478.296
574.230, 9502.857
574.712, 9438.145
575.194, 9398.651
575.677, 9406.575
576.159, 9447.968
576.641, 9509.508
577.123, 9617.410
577.605, 9698.429
578.087, 9733.041
578.569, 9735.877
579.051, 9756.804
579.533, 9797.574
580.016, 9848.067
580.498, 9901.646
580.980, 9960.193
581.462, 10044.200
581.944, 10155.450
582.426, 10251.770
582.908, 10264.770
583.390, 10241.130
583.872, 10266.840
584.355, 10370.440
584.837, 10496.770
585.319, 10618.260
585.801, 10734.680
586.283, 10846.660
586.765, 10974.090
587.247, 11076.990
587.729, 11121.450
588.211, 11116.540
588.694, 11156.620
589.176, 11281.530
589.658, 11410.160
590.140, 11502.980
590.622, 11546.380
591.104, 11639.080
591.586, 11802.820
592.068, 11967.380
592.551, 12040.960
593.033, 12028.920
593.515, 12059.400
593.997, 12161.220
594.479, 12303.040
594.961, 12447.140
595.443, 12593.090
595.925, 12737.490
596.407, 12891.190
596.890, 13034.340
597.372, 13137.240
597.854, 13206.580
598.336, 13285.870
598.818, 13409.750
599.300, 13539.210
599.782, 13648.230
600.265, 13725.270
600.747, 13810.190
601.229, 13899.400
601.711, 14001.050
602.193, 14125.660
602.675, 14283.500
603.157, 14436.800
603.639, 14588.420
604.121, 14727.690
604.604, 14818.350
605.086, 14858.210
605.568, 14926.260
606.050, 15039.240
606.532, 15210.980
607.014, 15524.840
607.496, 15961.160
607.978, 16344.380
608.460, 16542.471
608.943, 16623.850
609.425, 16636.471
609.907, 16572.670
610.389, 16527.270
610.871, 16543.660
611.353, 16599.471
611.835, 16672.320
612.317, 16780.779
612.799, 16878.400
613.282, 16945.381
613.764, 17004.830
614.246, 17112.449
614.728, 17290.750
615.210, 17460.439
615.692, 17605.820
616.174, 17723.930
616.656, 17774.820
617.138, 17754.670
617.621, 17739.580
618.103, 17780.689
618.585, 17865.910
619.067, 17977.551
619.549, 18116.270
620.031, 18250.029
620.513, 18364.561
620.995, 18456.080
621.477, 18520.180
621.960, 18549.820
622.442, 18560.330
622.924, 18545.539
623.406, 18516.930
623.888, 18495.301
624.370, 18486.760
624.852, 18480.340
625.334, 18473.461
625.817, 18466.850
626.299, 18466.131
626.781, 18473.020
627.263, 18480.471
627.745, 18487.881
628.227, 18494.141
628.709, 18490.301
629.191, 18476.910
629.674, 18448.330
630.156, 18393.789
630.638, 18322.711
631.120, 18252.561
631.602, 18189.311
632.084, 18120.010
632.566, 18026.170
633.048, 17923.600
633.531, 17834.090
634.013, 17768.520
634.495, 17714.600
634.977, 17686.160
635.459, 17669.510
635.941, 17614.461
636.423, 17498.561
636.905, 17381.180
637.387, 17279.779
637.870, 17194.320
638.352, 17117.381
638.834, 17046.301
639.316, 16994.539
639.798, 16987.900
640.280, 17009.199
640.762, 17000.631
641.244, 16955.520
641.726, 16894.051
642.209, 16821.869
642.691, 16749.080
643.173, 16692.279
643.655, 16668.461
644.137, 16642.150
644.619, 16602.990
645.101, 16551.000
645.583, 16485.930
646.065, 16417.270
646.548, 16321.510
647.030, 16175.240
647.512, 15993.120
647.994, 15882.930
648.476, 15874.340
648.958, 15838.680
649.440, 15695.810
649.922, 15461.280
650.404, 15226.340
650.887, 14987.270
651.369, 14782.360
651.851, 14694.280
652.333, 14646.190
652.815, 14501.330
653.297, 14217.710
653.779, 13932.230
654.261, 13735.650
654.744, 13586.250
655.226, 13435.350
655.708, 13243.870
656.190, 13081.290
656.672, 12985.100
657.154, 12919.510
657.636, 12811.270
658.118, 12644.600
658.601, 12470.580
659.083, 12293.820
659.565, 12123.260
660.047, 12010.160
660.529, 11956.270
661.011, 11902.200
661.493, 11810.810
661.975, 11694.620
662.458, 11576.510
662.940, 11457.600
663.422, 11335.520
663.904, 11187.670
664.386, 11047.520
664.868, 10950.030
665.350, 10911.390
665.832, 10885.880
666.314, 10896.390
666.797, 10897.340
667.279, 10835.460
667.761, 10654.280
668.243, 10522.850
668.725, 10471.150
669.207, 10465.290
669.689, 10441.980
670.171, 10401.050
670.653, 10331.670
671.135, 10209.810
671.618, 10073.210
672.100, 10004.600
672.582, 9994.092
673.064, 9992.000
673.546, 9996.196
674.028, 9978.030
674.510, 9889.460
674.992, 9730.315
675.474, 9624.248
675.957, 9692.754
676.439, 9766.632
676.921, 9728.939
677.403, 9517.999
677.885, 9400.799
678.367, 9418.904
678.849, 9472.812
679.331, 9456.747
679.814, 9367.516
680.296, 9291.394
680.778, 9237.875
681.260, 9209.697
681.742, 9230.979
682.224, 9282.926
682.706, 9314.500
683.188, 9311.409
683.670, 9276.237
684.153, 9171.777
684.635, 9035.817
685.117, 8962.467
685.599, 9071.187
686.081, 9159.093
686.563, 9140.779
687.045, 9029.955
687.528, 8948.355
688.010, 8914.729
688.492, 8875.463
688.974, 8791.776
689.456, 8667.909
689.938, 8592.286
690.420, 8565.301
690.902, 8581.819
691.384, 8688.433
691.867, 8823.000
692.349, 8854.053
692.831, 8750.507
693.313, 8637.437
693.795, 8602.621
694.277, 8602.269
694.759, 8590.626
695.241, 8562.984
695.723, 8514.254
696.206, 8415.170
696.688, 8307.262
697.170, 8254.236
697.652, 8278.814
698.134, 8293.423
698.616, 8279.605
699.098, 8248.379
699.580, 8228.479
700.062, 8218.629
700.545, 8200.081
701.027, 8154.095
701.509, 8101.435
701.991, 8074.732
702.473, 8068.372
702.955, 8056.320
703.437, 7956.954
703.919, 8021.854
704.402, 8046.870
704.884, 8034.163
705.366, 7870.719
705.848, 7901.920
706.330, 7855.115
706.812, 7805.114
707.294, 7863.705
707.776, 7722.183
708.258, 7779.061
708.741, 7756.739
709.223, 7770.664
709.705, 7706.104
710.187, 7665.776
710.669, 7703.968
711.151, 7698.690
711.633, 7625.092
712.115, 7641.320
712.597, 7497.060
713.080, 7506.665
713.562, 7481.221
714.044, 7503.436
714.526, 7544.965
715.008, 7550.570
715.490, 7504.568
715.972, 7449.901
716.455, 7385.920
716.937, 7323.747
717.419, 7306.413
717.901, 7334.301
718.383, 7359.899
718.865, 7360.312
719.347, 7345.557
719.829, 7334.153
720.311, 7324.096
720.794, 7304.454
721.276, 7246.976
721.758, 7195.592
722.240, 7187.259
722.722, 7226.422
723.204, 7252.195
723.686, 7247.542
724.168, 7235.393
724.651, 7230.779
725.133, 7239.845
725.615, 7208.417
726.097, 7125.865
726.579, 7037.463
727.061, 6980.986
727.543, 6953.613
728.025, 6947.991
728.507, 6965.129
728.990, 6990.661
729.472, 7031.474
729.954, 7065.392
730.436, 7061.287
730.918, 6991.914
731.400, 6919.105
731.882, 6835.515
732.364, 6767.554
732.846, 6753.866
733.328, 6831.641
733.811, 6883.530
734.293, 6892.631
734.775, 6868.729
735.257, 6821.962
735.739, 6754.204
736.221, 6699.695
736.703, 6681.867
737.185, 6670.478
737.667, 6610.948
738.150, 6521.220
738.632, 6453.513
739.114, 6446.120
739.596, 6454.136
740.078, 6455.543
740.560, 6451.727
741.042, 6462.545
741.524, 6515.524
742.007, 6546.136
742.489, 6528.224
742.971, 6464.856
743.453, 6381.646
743.935, 6272.878
744.417, 6192.344
744.899, 6202.761
745.381, 6262.088
745.864, 6275.760
746.346, 6240.535
746.828, 6198.631
747.310, 6168.437
747.792, 6150.258
748.274, 6147.474
748.756, 6166.167
749.238, 6179.581
749.721, 6199.674
750.203, 6135.902
750.685, 6202.250
751.167, 6237.011
751.649, 6241.885
752.131, 6127.354
752.613, 6167.008
753.095, 6144.873
753.577, 6120.204
754.060, 6181.561
754.542, 6084.396
755.024, 6144.390
755.506, 6141.646
755.988, 6167.618
756.470, 6131.415
756.952, 6114.416
757.434, 6159.609
757.916, 6170.367
758.399, 6127.005
758.881, 6154.802
759.363, 6083.814
759.845, 6063.483
760.327, 6044.754
760.809, 6028.958
761.291, 6027.498
761.773, 6034.826
762.255, 6018.915
762.738, 5941.669
763.220, 5862.910
763.702, 5850.411
764.184, 5882.227
764.666, 5900.992
765.148, 5867.041
765.630, 5836.754
766.112, 5843.447
766.594, 5872.201
767.077, 5839.405
767.559, 5703.621
768.041, 5624.395
768.523, 5695.633
769.005, 5863.912
769.487, 5931.385
769.969, 5904.138
770.451, 5847.598
770.934, 5771.522
771.416, 5708.132
771.898, 5705.433
772.380, 5758.896
772.862, 5794.970
773.344, 5775.565
773.826, 5742.301
774.308, 5711.917
774.791, 5684.148
775.273, 5671.328
775.755, 5678.662
776.237, 5688.528
776.719, 5691.729
777.201, 5688.108
777.683, 5671.599
778.165, 5641.865
778.648, 5617.334
779.130, 5625.414
779.612, 5639.911
780.094, 5628.022
780.576, 5581.231
781.058, 5538.066
781.540, 5499.113
782.022, 5477.385
782.504, 5485.958
782.987, 5543.567
783.469, 5567.331
783.951, 5550.371
784.433, 5514.943
784.915, 5473.003
785.397, 5428.964
785.879, 5407.552
786.361, 5413.251
786.843, 5429.780
787.326, 5446.242
787.808, 5463.192
788.290, 5484.717
788.772, 5527.099
789.254, 5540.039
789.736, 5467.314
790.218, 5385.496
790.700, 5374.063
791.182, 5459.980
791.665, 5527.497
792.147, 5567.817
792.629, 5586.481
793.111, 5595.062
793.593, 5589.143
794.075, 5542.303
794.557, 5426.728
795.039, 5329.391
795.521, 5362.280
796.004, 5449.563
796.486, 5488.549
796.968, 5393.621
797.450, 5321.743
797.932, 5294.232
798.414, 5298.069
798.896, 5324.940
799.378, 5387.795
799.860, 5400.845
800.343, 5332.769
800.825, 5242.604
801.307, 5234.706
801.789, 5284.793
802.271, 5316.580
802.753, 5276.027
803.235, 5248.659
803.718, 5319.359
804.200, 5435.413
804.682, 5500.873
805.164, 5452.077
805.646, 5405.976
806.128, 5369.240
806.610, 5346.887
807.092, 5363.255
807.574, 5421.771
808.057, 5442.605
808.539, 5388.092
809.021, 5308.098
809.503, 5277.517
809.985, 5285.065
810.467, 5301.388
810.949, 5335.346
811.431, 5352.184
811.914, 5317.043
812.396, 5253.485
812.878, 5228.106
813.360, 5266.679
813.842, 5299.085
814.324, 5313.546
814.806, 5310.724
815.288, 5286.455
815.770, 5242.854
816.253, 5201.499
816.735, 5159.756
817.217, 5137.441
817.699, 5180.990
818.181, 5263.354
818.663, 5313.927
819.145, 5272.574
819.627, 5232.981
820.109, 5237.306
820.592, 5265.684
821.074, 5261.254
821.556, 5213.886
822.038, 5168.527
822.520, 5138.308
823.002, 5119.196
823.484, 5104.485
823.966, 5093.153
824.448, 5080.242
824.931, 5062.227
825.413, 5042.540
825.895, 5023.393
826.377, 5004.452
826.859, 4984.538
827.341, 4951.512
827.823, 4932.670
828.305, 4936.406
828.787, 4957.166
829.270, 4982.253
829.752, 5013.329
830.234, 5026.216
830.716, 5005.557
831.198, 4969.149
831.680, 4939.174
832.162, 4916.729
832.644, 4905.764
833.127, 4915.114
833.609, 4929.054
834.091, 4940.259
834.573, 4950.755
835.055, 4970.601
835.537, 5014.156
836.019, 5032.333
836.501, 5005.296
836.984, 4951.404
837.466, 4919.188
837.948, 4905.906
838.430, 4892.393
838.912, 4867.411
839.394, 4841.542
839.876, 4815.240
840.358, 4795.612
840.841, 4800.151
841.323, 4880.378
841.805, 4927.543
842.287, 4905.937
842.769, 4842.861
843.251, 4806.318
843.733, 4796.250
844.215, 4818.148
844.697, 4890.981
845.180, 4970.882
845.662, 4973.196
846.144, 4921.969
846.626, 4877.988
847.108, 4881.468
847.590, 4882.729
848.072, 4839.126
848.554, 4780.966
849.036, 4783.794
849.519, 4897.446
850.001, 4958.602
850.483, 4927.320
850.965, 4844.031
851.447, 4773.163
851.929, 4718.806
852.411, 4706.993
852.893, 4770.893
853.375, 4834.706
853.858, 4821.974
854.340, 4765.426
854.822, 4719.660
855.304, 4695.305
855.786, 4689.569
856.268, 4713.024
856.750, 4745.668
857.232, 4752.536
857.714, 4731.329
858.197, 4721.851
858.679, 4736.079
859.161, 4752.352
859.643, 4729.193
860.125, 4690.389
860.607, 4681.558
861.089, 4737.290
861.571, 4786.234
862.054, 4807.125
862.536, 4803.575
863.018, 4779.435
863.500, 4720.968
863.982, 4686.419
864.464, 4690.337
864.946, 4695.641
865.428, 4638.598
865.911, 4543.080
866.393, 4482.925
866.875, 4476.501
867.357, 4490.225
867.839, 4507.612
868.321, 4528.708
868.803, 4554.993
869.285, 4598.625
869.767, 4622.545
870.250, 4622.313
870.732, 4608.957
871.214, 4583.246
871.696, 4548.114
872.178, 4553.685
872.660, 4607.531
873.142, 4652.378
873.624, 4619.534
874.106, 4559.529
874.589, 4528.823
875.071, 4538.534
875.553, 4561.185
876.035, 4605.519
876.517, 4647.071
876.999, 4676.958
877.481, 4697.011
877.963, 4669.025
878.445, 4585.738
878.928, 4513.369
879.410, 4505.666
879.892, 4542.415
880.374, 4612.853
880.856, 4711.383
881.338, 4769.723
881.820, 4707.446
882.302, 4640.498
882.784, 4642.868
883.267, 4710.771
883.749, 4732.885
884.231, 4699.808
884.713, 4655.423
885.195, 4614.464
885.677, 4581.888
886.159, 4581.155
886.641, 4604.373
887.124, 4611.458
887.606, 4547.437
888.088, 4491.891
888.570, 4497.407
889.052, 4555.099
889.534, 4607.703
890.016, 4662.658
890.498, 4691.005
890.981, 4675.639
891.463, 4637.843
891.945, 4639.956
892.427, 4673.237
892.909, 4691.969
893.391, 4665.196
893.873, 4630.696
894.355, 4618.185
894.838, 4618.408
895.320, 4613.403
895.802, 4573.368
896.284, 4569.962
896.766, 4629.997
897.248, 4709.091
897.730, 4738.132
898.212, 4718.439
898.694, 4651.974
899.177, 4516.263
899.659, 4414.147
900.141, 4503.796
900.623, 4669.336
901.105, 4755.509
901.587, 4684.681
902.069, 4612.929
902.551, 4542.064
903.033, 4493.086
903.516, 4500.960
903.998, 4569.888
904.480, 4569.620
904.962, 4483.208
905.444, 4400.303
905.926, 4423.365
906.408, 4491.276
906.890, 4531.839
907.372, 4534.099
907.855, 4515.986
908.337, 4444.522
908.819, 4390.929
909.301, 4403.389
909.783, 4483.288
910.265, 4517.160
910.747, 4502.490
911.229, 4469.965
911.711, 4419.557
912.194, 4374.476
912.676, 4381.886
913.158, 4433.034
913.640, 4470.742
914.122, 4447.198
914.604, 4431.649
915.086, 4459.364
915.568, 4516.952
916.051, 4549.628
916.533, 4556.212
917.015, 4543.246
917.497, 4498.492
917.979, 4454.622
918.461, 4478.974
918.943, 4547.585
919.425, 4601.855
919.907, 4612.173
920.390, 4610.986
920.872, 4595.458
921.354, 4580.197
921.836, 4591.346
922.318, 4637.804
922.800, 4666.769
923.282, 4667.175
923.764, 4658.367
924.247, 4672.321
924.729, 4694.650
925.211, 4657.579
925.693, 4727.334
926.175, 4771.158
926.657, 4790.444
927.139, 4711.694
927.621, 4759.536
928.104, 4756.648
928.586, 4751.677
929.068, 4817.337
929.550, 4752.847
930.032, 4817.386
930.514, 4830.418
930.996, 4867.027
931.478, 4842.042
931.960, 4829.349
932.443, 4794.584
932.925, 4766.585
933.407, 4765.381
933.889, 4786.779
934.371, 4794.968
934.853, 4784.069
935.335, 4789.027
935.817, 4836.169
936.299, 4897.916
936.782, 4911.663
937.264, 4893.070
937.746, 4888.597
938.228, 4935.871
938.710, 4982.145
939.192, 5009.250
939.674, 5021.181
940.156, 5019.326
940.638, 4992.912
941.121, 5008.265
941.603, 5087.497
942.085, 5179.237
942.567, 5210.777
943.049, 5203.993
943.531, 5196.448
944.013, 5188.749
944.495, 5208.022
944.977, 5302.151
945.460, 5400.432
945.942, 5440.543
946.424, 5403.650
946.906, 5411.536
947.388, 5471.078
947.870, 5533.274
948.352, 5536.515
948.834, 5526.664
949.317, 5598.289
949.799, 5745.962
950.281, 5861.367
950.763, 5852.442
951.245, 5846.853
951.727, 5909.196
952.209, 6020.742
952.691, 6068.664
953.174, 6043.583
953.656, 6055.114
954.138, 6164.997
954.620, 6308.067
955.102, 6397.564
955.584, 6450.247
956.066, 6501.255
956.548, 6534.147
957.031, 6605.526
957.513, 6758.519
957.995, 6931.542
958.477, 7044.792
958.959, 7096.513
959.441, 7142.914
959.923, 7189.901
960.405, 7238.131
960.887, 7304.556
961.370, 7365.121
961.852, 7378.323
962.334, 7324.545
962.816, 7306.114
963.298, 7368.565
963.780, 7439.760
964.262, 7488.184
964.744, 7514.585
965.226, 7532.932
965.709, 7542.326
966.191, 7519.530
966.673, 7433.995
967.155, 7322.751
967.637, 7199.801
968.119, 7077.079
968.601, 7001.556
969.083, 7027.987
969.565, 7031.335
970.048, 6994.535
970.530, 6919.286
971.012, 6788.308
971.494, 6614.677
971.976, 6466.478
972.458, 6358.032
972.940, 6283.325
973.422, 6253.899
973.904, 6244.324
974.387, 6231.353
974.869, 6233.198
975.351, 6167.171
975.833, 6010.032
976.315, 5841.207
976.797, 5730.025
977.279, 5660.750
977.761, 5577.876
978.244, 5481.338
978.726, 5392.877
979.208, 5325.061
979.690, 5269.288
980.172, 5224.240
980.654, 5187.961
981.136, 5149.638
981.618, 5110.209
982.101, 5064.136
982.583, 5007.856
983.065, 4947.287
983.547, 4893.690
984.029, 4844.347
984.511, 4793.010
984.993, 4725.581
985.475, 4675.024
985.957, 4660.523
986.440, 4661.720
986.922, 4666.536
987.404, 4678.515
987.886, 4651.072
988.368, 4577.009
988.850, 4512.008
989.332, 4517.622
989.814, 4553.530
990.296, 4580.648
990.779, 4594.687
991.261, 4581.940
991.743, 4523.526
992.225, 4457.000
992.707, 4384.525
993.189, 4316.488
993.671, 4302.177
994.153, 4335.438
994.635, 4369.969
995.118, 4386.098
995.600, 4396.769
996.082, 4414.502
996.564, 4432.894
997.046, 4439.521
997.528, 4411.925
998.010, 4343.228
998.492, 4410.864
998.974, 4445.405
999.457, 4448.630
999.939, 4326.751
1000.421, 4366.419
1000.903, 4341.349
1001.385, 4313.624
1001.867, 4376.032
1002.349, 4272.351
1002.831, 4333.331
1003.314, 4316.526
1003.796, 4279.715
1004.278, 4326.826
1004.760, 4353.566
1005.242, 4361.030
1005.724, 4291.480
1006.206, 4321.376
1006.688, 4311.419
1007.171, 4299.830
1007.653, 4343.723
1008.135, 4285.375
1008.617, 4328.388
1009.099, 4330.939
1009.581, 4352.009
1010.063, 4332.979
1010.545, 4325.280
1011.027, 4298.212
1011.510, 4270.234
1011.992, 4236.627
1012.474, 4283.391
1012.956, 4310.645
1013.438, 4319.439
1013.920, 4254.479
1014.402, 4284.756
1014.884, 4276.867
1015.367, 4267.417
1015.849, 4311.099
1016.331, 4256.867
1016.813, 4299.706
1017.295, 4303.795
1017.777, 4298.904
1018.259, 4296.174
1018.741, 4280.667
1019.223, 4251.521
1019.706, 4198.421
1020.188, 4107.773
1020.670, 4088.465
1021.152, 4157.991
1021.634, 4219.150
1022.116, 4149.730
1022.598, 4036.202
1023.080, 3985.757
1023.563, 4005.382
1024.045, 4035.430
1024.527, 4074.202
1025.009, 4104.658
1025.491, 4120.558
1025.973, 4124.705
1026.455, 4119.081
1026.937, 4107.052
1027.419, 4111.573
1027.901, 4161.096
1028.384, 4190.431
1028.866, 4112.840
1029.348, 4010.788
1029.830, 3996.388
1030.312, 4125.645
1030.794, 4185.918
1031.276, 4168.989
1031.758, 4113.156
1032.241, 4018.130
1032.723, 3922.403
1033.205, 3906.603
1033.687, 3964.425
1034.169, 4012.460
1034.651, 3993.358
1035.133, 3989.947
1035.615, 4042.953
1036.098, 4119.829
1036.580, 4121.288
1037.062, 4055.046
1037.544, 4016.597
1038.026, 4037.787
1038.508, 4074.506
1038.990, 4097.462
1039.472, 4109.679
1039.954, 4111.188
1040.437, 4092.214
1040.919, 4103.021
1041.401, 4156.934
1041.883, 4201.928
1042.365, 4204.692
1042.847, 4172.336
1043.329, 4091.111
1043.811, 3982.078
1044.293, 3936.727
1044.776, 4087.970
1045.258, 4197.466
1045.740, 4164.128
1046.222, 4063.235
1046.704, 4019.375
1047.186, 4032.635
1047.668, 4057.771
1048.150, 4089.995
1048.633, 4116.102
1049.115, 4099.522
1049.597, 4086.100
1050.079, 4140.340
1050.561, 4290.020
1051.043, 4332.994
1051.525, 4224.750
1052.007, 4119.017
1052.490, 4088.521
1052.972, 4109.881
1053.454, 4151.678
1053.936, 4200.056
1054.418, 4214.553
1054.900, 4148.557
1055.382, 4082.220
1055.864, 4010.068
1056.346, 3968.274
1056.828, 4020.683
1057.311, 4169.269
1057.793, 4231.830
1058.275, 4193.805
1058.757, 4124.932
1059.239, 4062.151
1059.721, 4008.242
1060.203, 3960.678
1060.685, 3922.331
1061.168, 3918.303
1061.650, 3967.686
1062.132, 3999.002
1062.614, 3992.509
1063.096, 3956.904
1063.578, 3871.937
1064.060, 3776.152
1064.542, 3759.038
1065.025, 3884.674
1065.507, 3979.522
1065.989, 3958.662
1066.471, 3919.252
1066.953, 3926.136
1067.435, 3975.793
1067.917, 3975.389
1068.399, 3927.884
1068.881, 3878.859
1069.364, 3853.970
1069.846, 3839.293
1070.328, 3818.971
1070.810, 3802.773
1071.292, 3815.896
1071.774, 3868.443
1072.256, 3916.960
1072.738, 3956.258
1073.220, 3988.442
1073.703, 4016.792
1074.185, 4038.294
1074.667, 4049.023
1075.149, 4048.751
1075.631, 4032.076
1076.113, 3980.541
1076.595, 3935.002
1077.077, 3907.150
1077.559, 3897.571
1078.042, 3924.370
1078.524, 3974.910
1079.006, 3988.539
1079.488, 3912.927
1079.970, 3856.342
1080.452, 3908.173
1080.934, 3989.936
1081.416, 4013.467
1081.899, 3961.821
1082.381, 3961.567
1082.863, 4018.533
1083.345, 4060.262
1083.827, 4010.695
1084.309, 3936.160
1084.791, 3899.715
1085.273, 3897.627
1085.755, 3908.511
1086.238, 3934.028
1086.720, 3961.829
1087.202, 3992.369
1087.684, 4019.822
1088.166, 4036.326
1088.648, 4043.664
1089.130, 4049.991
1089.612, 4057.896
1090.094, 4045.437
1090.577, 3969.193
1091.059, 3908.522
1091.541, 3908.603
1092.023, 3951.276
1092.505, 3946.816
1092.987, 3900.936
1093.469, 3859.884
1093.951, 3830.171
1094.434, 3831.674
1094.916, 3911.026
1095.398, 4012.410
1095.880, 4070.818
1096.362, 4088.122
1096.844, 4028.283
1097.326, 3873.721
1097.808, 3764.061
1098.291, 3870.440
1098.773, 4035.283
1099.255, 4033.444
1099.737, 3908.349
1100.219, 3824.458
1100.701, 3840.853
1101.183, 3866.189
1101.665, 3897.531
1102.147, 3919.512
1102.630, 3908.322
1103.112, 3871.321
1103.594, 3813.155
1104.076, 3733.352
1104.558, 3692.558
1105.040, 3758.814
1105.522, 3827.546
1106.004, 3851.512
1106.486, 3843.912
1106.969, 3860.927
1107.451, 3897.259
1107.933, 3906.858
1108.415, 3864.064
1108.897, 3817.012
1109.379, 3795.174
1109.861, 3791.273
1110.343, 3802.092
1110.826, 3831.679
1111.308, 3833.696
1111.790, 3803.767
1112.272, 3786.852
1112.754, 3823.879
1113.236, 3879.479
1113.718, 3933.841
1114.200, 3972.282
1114.682, 3954.130
1115.165, 3813.462
1115.647, 3739.635
1116.129, 3762.851
1116.611, 3812.862
1117.093, 3805.516
1117.575, 3772.456
1118.057, 3789.836
1118.539, 3856.950
1119.021, 3894.027
1119.504, 3814.472
1119.986, 3776.120
1120.468, 3843.858
1120.950, 3956.563
1121.432, 3968.203
1121.914, 3901.778
1122.396, 3854.522
1122.878, 3847.458
1123.361, 3864.783
1123.843, 3930.638
1124.325, 3987.316
1124.807, 3995.236
1125.289, 3958.236
1125.771, 3911.275
1126.253, 3855.339
1126.735, 3826.387
1127.218, 3847.842
1127.700, 3890.530
1128.182, 3942.923
1128.664, 3995.472
1129.146, 4039.132
1129.628, 4086.486
1130.110, 4066.637
1130.592, 3966.061
1131.074, 3880.775
1131.557, 3904.816
1132.039, 3970.620
1132.521, 3997.588
1133.003, 3992.126
1133.485, 3978.351
1133.967, 3947.152
1134.449, 3939.156
1134.931, 3969.635
1135.413, 3997.704
1135.896, 3951.296
1136.378, 3873.900
1136.860, 3864.093
1137.342, 3927.484
1137.824, 3956.906
1138.306, 3893.951
1138.788, 3811.944
1139.270, 3710.030
1139.752, 3620.428
1140.235, 3634.684
1140.717, 3723.554
1141.199, 3792.302
1141.681, 3820.397
1142.163, 3814.191
1142.645, 3728.004
1143.127, 3656.222
1143.609, 3664.572
1144.092, 3738.559
1144.574, 3771.834
1145.056, 3767.464
1145.538, 3750.462
1146.020, 3735.010
1146.502, 3705.079
1146.984, 3630.332
1147.466, 3549.099
1147.948, 3497.711
1148.431, 3473.623
1148.913, 3514.390
1149.395, 3623.556
1149.877, 3721.581
1150.359, 3741.043
1150.841, 3737.285
1151.323, 3775.008
1151.805, 3822.990
1152.287, 3793.475
1152.770, 3636.996
1153.252, 3580.965
1153.734, 3661.145
1154.216, 3757.112
1154.698, 3737.743
1155.180, 3672.549
1155.662, 3633.113
1156.144, 3624.733
1156.627, 3649.577
1157.109, 3725.676
1157.591, 3785.306
1158.073, 3814.924
1158.555, 3822.151
1159.037, 3810.270
1159.519, 3787.209
1160.001, 3761.347
1160.484, 3732.031
1160.966, 3726.721
1161.448, 3777.382
1161.930, 3802.357
1162.412, 3761.774
1162.894, 3689.374
1163.376, 3659.689
1163.858, 3661.690
1164.340, 3666.205
1164.823, 3658.729
1165.305, 3674.013
1165.787, 3747.724
1166.269, 3813.570
1166.751, 3835.495
1167.233, 3817.949
1167.715, 3754.055
1168.197, 3661.433
1168.679, 3618.241
1169.162, 3707.080
1169.644, 3786.165
1170.126, 3799.343
1170.608, 3787.580
1171.090, 3787.601
1171.572, 3796.616
1172.054, 3756.029
1172.536, 3672.183
1173.019, 3623.582
1173.501, 3717.919
1173.983, 3790.591
1174.465, 3713.655
1174.947, 3590.104
1175.429, 3577.701
1175.911, 3676.067
1176.393, 3735.748
1176.875, 3742.213
1177.358, 3722.363
1177.840, 3678.188
1178.322, 3631.237
1178.804, 3597.573
1179.286, 3572.902
1179.768, 3545.270
1180.250, 3514.984
1180.732, 3478.401
1181.214, 3431.703
1181.697, 3400.303
1182.179, 3417.673
1182.661, 3451.549
1183.143, 3484.268
1183.625, 3510.796
1184.107, 3484.477
1184.589, 3396.017
1185.071, 3353.849
1185.554, 3402.073
1186.036, 3474.751
1186.518, 3514.739
1187.000, 3532.807
1187.482, 3539.302
1187.964, 3535.661
1188.446, 3516.552
1188.928, 3477.669
1189.411, 3452.236
1189.893, 3462.628
1190.375, 3482.989
1190.857, 3469.895
1191.339, 3451.300
1191.821, 3474.989
1192.303, 3573.286
1192.785, 3618.420
1193.267, 3600.675
1193.750, 3577.981
1194.232, 3580.221
1194.714, 3604.659
1195.196, 3684.637
1195.678, 3777.065
1196.160, 3783.393
1196.642, 3618.164
1197.124, 3526.114
1197.606, 3522.830
1198.089, 3551.705
1198.571, 3576.000
1199.053, 3595.844
1199.535, 3610.902
1200.017, 3621.449
1200.499, 3628.974
1200.981, 3636.918
1201.463, 3629.538
1201.945, 3595.929
1202.428, 3579.374
1202.910, 3665.594
1203.392, 3774.865
1203.874, 3774.483
1204.356, 3674.115
1204.838, 3609.100
1205.320, 3619.936
1205.802, 3620.719
1206.285, 3593.555
1206.767, 3560.580
1207.249, 3544.335
1207.731, 3544.770
1208.213, 3565.083
1208.695, 3605.317
1209.177, 3653.335
1209.659, 3726.210
1210.141, 3761.115
1210.624, 3735.619
1211.106, 3676.657
1211.588, 3601.294
1212.070, 3530.725
1212.552, 3501.883
1213.034, 3525.697
1213.516, 3559.611
1213.998, 3622.107
1214.480, 3633.341
1214.963, 3547.675
1215.445, 3422.865
1215.927, 3330.057
1216.409, 3282.106
1216.891, 3316.954
1217.373, 3479.406
1217.855, 3572.893
1218.337, 3571.105
1218.820, 3533.150
1219.302, 3471.095
1219.784, 3409.587
1220.266, 3403.018
1220.748, 3430.574
1221.230, 3457.492
1221.712, 3494.320
1222.194, 3471.397
1222.677, 3364.382
1223.159, 3257.871
1223.641, 3191.757
1224.123, 3169.755
1224.605, 3226.492
1225.087, 3326.754
1225.569, 3394.448
1226.051, 3387.179
1226.533, 3380.861
1227.016, 3381.284
1227.498, 3369.198
1227.980, 3300.645
1228.462, 3228.142
1228.944, 3262.563
1229.426, 3365.284
1229.908, 3431.935
1230.390, 3397.501
1230.872, 3409.832
1231.355, 3492.113
1231.837, 3562.254
1232.319, 3534.933
1232.801, 3458.505
1233.283, 3377.173
1233.765, 3306.626
1234.247, 3301.472
1234.729, 3426.351
1235.212, 3464.398
1235.694, 3374.872
1236.176, 3284.177
1236.658, 3347.494
1237.140, 3463.801
1237.622, 3507.292
1238.104, 3482.424
1238.586, 3448.858
1239.068, 3404.420
1239.551, 3382.722
1240.033, 3392.242
1240.515, 3406.939
1240.997, 3380.747
1241.479, 3358.553
1241.961, 3404.514
1242.443, 3509.556
1242.925, 3590.842
1243.407, 3652.080
1243.890, 3650.117
1244.372, 3566.125
1244.854, 3472.667
1245.336, 3457.432
1245.818, 3466.054
1246.300, 3429.628
1246.782, 3356.475
1247.264, 3369.474
1247.747, 3485.875
1248.229, 3566.662
1248.711, 3579.096
1249.193, 3554.326
1249.675, 3504.252
1250.157, 3446.069
1250.639, 3400.181
1251.121, 3363.103
1251.604, 3288.541
1252.086, 3171.877
1252.568, 3118.599
1253.050, 3162.716
1253.532, 3248.124
1254.014, 3384.607
1254.496, 3492.189
1254.978, 3474.042
1255.460, 3360.480
1255.943, 3347.978
1256.425, 3430.534
1256.907, 3460.805
1257.389, 3381.366
1257.871, 3295.215
1258.353, 3279.957
1258.835, 3283.520
1259.317, 3271.286
1259.799, 3242.969
1260.281, 3179.024
1260.764, 3091.447
1261.246, 3068.417
1261.728, 3157.724
1262.210, 3257.139
1262.692, 3341.512
1263.174, 3385.771
1263.656, 3362.351
1264.138, 3291.773
1264.621, 3261.093
1265.103, 3265.595
1265.585, 3291.363
1266.067, 3353.054
1266.549, 3383.340
1267.031, 3314.133
1267.513, 3262.471
1267.995, 3308.357
1268.478, 3410.210
1268.960, 3421.780
1269.442, 3372.977
1269.924, 3353.562
1270.406, 3419.941
1270.888, 3446.888
1271.370, 3393.509
1271.852, 3345.380
1272.334, 3357.939
1272.817, 3407.586
1273.299, 3445.107
1273.781, 3475.595
1274.263, 3514.276
1274.745, 3596.177
1275.227, 3607.541
1275.709, 3524.917
1276.191, 3435.635
1276.673, 3383.188
1277.156, 3366.498
1277.638, 3413.761
1278.120, 3485.893
1278.602, 3505.071
1279.084, 3421.167
1279.566, 3400.116
1280.048, 3453.542
1280.530, 3496.946
1281.013, 3454.493
1281.495, 3397.648
1281.977, 3416.758
1282.459, 3465.615
1282.941, 3463.912
1283.423, 3393.214
1283.905, 3352.371
1284.387, 3341.552
1284.870, 3341.325
1285.352, 3339.008
1285.834, 3343.140
1286.316, 3379.228
1286.798, 3411.942
1287.280, 3385.984
1287.762, 3296.688
1288.244, 3301.836
1288.726, 3389.956
1289.208, 3438.588
1289.691, 3315.685
1290.173, 3214.271
1290.655, 3251.286
1291.137, 3317.720
1291.619, 3312.353
1292.101, 3248.662
1292.583, 3211.016
1293.065, 3201.775
1293.548, 3223.938
1294.030, 3331.657
1294.512, 3391.261
1294.994, 3370.157
1295.476, 3319.533
1295.958, 3270.034
1296.440, 3230.486
1296.922, 3228.752
1297.405, 3263.407
1297.887, 3309.063
1298.369, 3374.991
1298.851, 3397.917
1299.333, 3366.627
1299.815, 3318.532
1300.297, 3276.909
1300.779, 3241.758
##END=



