##NAMES=Fizelyite
##RRUFFID=R060175
##IDEAL CHEMISTRY=Ag^1+^_5_Pb^2+^_14_Sb^3+^_21_S^2-^_48_
##LOCALITY=Van Silver mine, Squamish, British Columbia, Canada
##OWNER=RRUFF
##SOURCE=Ty Balacko
##DESCRIPTION=Dark gray deeply-striated single crystals
##STATUS=The identification of this mineral is confirmed by single-crystal X-ray diffraction and chemical analysis.
##URL=rruff.info/R060175
##MEASURED CHEMISTRY=Pb_13.74_Ag_5.94_Sb_20.87_S_48.00_
178.900, 29691.090
179.382, 29759.801
179.864, 29853.650
180.346, 29951.811
180.828, 30050.461
181.310, 30141.439
181.792, 30205.750
182.274, 30238.730
182.757, 30347.070
183.239, 30538.221
183.721, 30799.211
184.203, 31129.160
184.685, 31524.779
185.167, 31970.930
185.649, 32489.561
186.131, 33080.090
186.613, 33495.090
187.096, 33730.320
187.578, 33792.770
188.060, 33629.699
188.542, 33250.109
189.024, 32817.711
189.506, 32444.961
189.988, 32140.000
190.470, 31872.350
190.952, 31653.490
191.435, 31466.211
191.917, 31290.980
192.399, 31128.330
192.881, 31006.721
193.363, 30957.939
193.845, 30980.010
194.327, 30998.520
194.809, 31012.430
195.292, 31022.600
195.774, 31024.279
196.256, 31018.830
196.738, 31023.039
197.220, 31049.971
197.702, 31098.990
198.184, 31151.051
198.666, 31209.910
199.148, 31268.980
199.631, 31325.609
200.113, 31379.340
200.595, 31425.820
201.077, 31464.529
201.559, 31491.721
202.041, 31501.561
202.523, 31467.061
203.005, 31436.939
203.488, 31461.689
203.970, 31531.631
204.452, 31571.150
204.934, 31522.811
205.416, 31412.211
205.898, 31341.420
206.380, 31324.920
206.862, 31331.350
207.344, 31351.891
207.827, 31382.900
208.309, 31404.170
208.791, 31401.250
209.273, 31383.199
209.755, 31377.580
210.237, 31389.010
210.719, 31405.490
211.201, 31422.301
211.684, 31439.080
212.166, 31455.330
212.648, 31471.449
213.130, 31486.080
213.612, 31495.711
214.094, 31494.920
214.576, 31499.740
215.058, 31514.320
215.540, 31540.230
216.023, 31585.131
216.505, 31658.811
216.987, 31744.650
217.469, 31815.230
217.951, 31880.730
218.433, 31912.170
218.915, 31860.910
219.397, 31768.221
219.880, 31734.109
220.362, 31802.600
220.844, 31917.430
221.326, 31981.100
221.808, 31987.689
222.290, 31991.350
222.772, 32007.930
223.254, 32032.740
223.736, 32057.369
224.219, 32079.029
224.701, 32101.320
225.183, 32137.670
225.665, 32195.619
226.147, 32216.961
226.629, 32148.930
227.111, 32050.330
227.593, 32005.039
228.076, 32032.490
228.558, 32087.811
229.040, 32119.461
229.522, 32124.939
230.004, 32136.221
230.486, 32162.801
230.968, 32194.119
231.450, 32212.109
231.932, 32214.359
232.415, 32229.961
232.897, 32294.631
233.379, 32413.109
233.861, 32505.320
234.343, 32555.029
234.825, 32586.650
235.307, 32608.689
235.789, 32625.051
236.271, 32659.020
236.754, 32736.260
237.236, 32855.820
237.718, 32941.910
238.200, 32964.570
238.682, 32981.988
239.164, 33027.699
239.646, 33099.422
240.128, 33177.219
240.611, 33244.480
241.093, 33307.180
241.575, 33409.090
242.057, 33553.020
242.539, 33726.039
243.021, 33915.410
243.503, 34129.699
243.985, 34391.461
244.467, 34717.199
244.950, 35095.922
245.432, 35487.219
245.914, 35861.000
246.396, 36280.250
246.878, 36813.750
247.360, 37393.391
247.842, 37939.129
248.324, 38422.281
248.807, 38807.840
249.289, 39002.398
249.771, 38970.691
250.253, 38793.738
250.735, 38407.039
251.217, 37905.711
251.699, 37367.840
252.181, 36818.789
252.663, 36285.719
253.146, 35813.430
253.628, 35410.789
254.110, 35065.531
254.592, 34776.309
255.074, 34539.469
255.556, 34363.070
256.038, 34243.461
256.520, 34159.551
257.003, 34092.988
257.485, 34057.340
257.967, 33982.859
258.449, 33807.230
258.931, 33653.879
259.413, 33608.051
259.895, 33652.840
260.377, 33707.559
260.859, 33700.520
261.342, 33627.500
261.824, 33580.660
262.306, 33584.641
262.788, 33588.629
263.270, 33579.570
263.752, 33559.000
264.234, 33528.711
264.716, 33486.570
265.198, 33439.551
265.681, 33433.648
266.163, 33528.148
266.645, 33594.281
267.127, 33600.859
267.609, 33571.801
268.091, 33534.621
268.573, 33501.590
269.056, 33471.961
269.538, 33441.691
270.020, 33396.250
270.502, 33380.328
270.984, 33421.852
271.466, 33476.840
271.948, 33505.738
272.430, 33498.512
272.912, 33478.309
273.395, 33481.281
273.877, 33518.160
274.359, 33538.051
274.841, 33500.711
275.323, 33471.371
275.805, 33495.270
276.287, 33570.012
276.769, 33650.621
277.251, 33686.859
277.734, 33677.500
278.216, 33696.719
278.698, 33769.762
279.180, 33846.910
279.662, 33904.531
280.144, 33945.102
280.626, 33978.422
281.108, 34009.289
281.591, 34037.410
282.073, 34061.379
282.555, 34078.512
283.037, 34096.539
283.519, 34121.602
284.001, 34149.699
284.483, 34172.469
284.965, 34176.031
285.447, 34184.680
285.930, 34250.719
286.412, 34385.551
286.894, 34485.270
287.376, 34481.500
287.858, 34425.410
288.340, 34382.680
288.822, 34361.531
289.304, 34353.359
289.786, 34357.352
290.269, 34371.371
290.751, 34380.730
291.233, 34379.172
291.715, 34374.141
292.197, 34377.609
292.679, 34391.512
293.161, 34401.391
293.643, 34389.820
294.125, 34372.852
294.608, 34388.059
295.090, 34448.520
295.572, 34509.141
296.054, 34507.059
296.536, 34439.980
297.018, 34410.141
297.500, 34457.449
297.983, 34528.500
298.465, 34572.621
298.947, 34588.289
299.429, 34608.941
299.911, 34663.309
300.393, 34747.859
300.875, 34807.469
301.357, 34791.711
301.839, 34803.289
302.322, 34919.629
302.804, 35097.141
303.286, 35236.898
303.768, 35287.660
304.250, 35268.789
304.732, 35244.781
305.214, 35184.328
305.696, 35158.852
306.178, 35207.391
306.661, 35279.109
307.143, 35320.750
307.625, 35316.270
308.107, 35283.500
308.589, 35247.410
309.071, 35200.891
309.553, 35168.949
310.035, 35168.430
310.517, 35166.520
311.000, 35142.520
311.482, 35097.191
311.964, 35044.430
312.446, 34997.059
312.928, 34955.461
313.410, 34910.090
313.892, 34850.801
314.374, 34798.770
314.857, 34752.570
315.339, 34719.320
315.821, 34712.660
316.303, 34744.430
316.785, 34800.500
317.267, 34842.660
317.749, 34872.230
318.231, 34884.672
318.714, 34868.859
319.196, 34842.180
319.678, 34818.180
320.160, 34800.051
320.642, 34788.012
321.124, 34780.719
321.606, 34777.789
322.088, 34784.730
322.570, 34798.230
323.052, 34826.961
323.535, 34878.340
324.017, 34950.930
324.499, 35030.789
324.981, 35124.059
325.463, 35216.871
325.945, 35269.281
326.427, 35266.500
326.909, 35260.191
327.392, 35300.320
327.874, 35371.160
328.356, 35423.320
328.838, 35433.699
329.320, 35432.461
329.802, 35441.172
330.284, 35460.238
330.766, 35492.730
331.249, 35549.289
331.731, 35613.980
332.213, 35635.238
332.695, 35592.430
333.177, 35548.141
333.659, 35525.711
334.141, 35512.922
334.623, 35486.141
335.105, 35438.051
335.588, 35390.680
336.070, 35379.398
336.552, 35431.121
337.034, 35449.719
337.516, 35414.102
337.998, 35364.012
338.480, 35313.750
338.962, 35271.590
339.444, 35253.840
339.927, 35277.379
340.409, 35341.371
340.891, 35393.020
341.373, 35419.160
341.855, 35446.250
342.337, 35482.922
342.819, 35522.801
343.301, 35552.500
343.784, 35564.129
344.266, 35573.789
344.748, 35624.621
345.230, 35748.430
345.712, 35833.781
346.194, 35835.141
346.676, 35815.590
347.158, 35813.699
347.641, 35835.820
348.123, 35870.871
348.605, 35913.820
349.087, 35963.770
349.569, 36004.859
350.051, 36033.449
350.533, 36056.551
351.015, 36073.879
351.497, 36089.391
351.979, 36113.930
352.462, 36162.980
352.944, 36216.691
353.426, 36248.059
353.908, 36256.852
354.390, 36247.602
354.872, 36209.449
355.354, 36161.172
355.836, 36143.359
356.319, 36172.191
356.801, 36197.949
357.283, 36196.820
357.765, 36175.301
358.247, 36141.250
358.729, 36094.301
359.211, 36051.422
359.693, 36037.230
360.176, 36060.809
360.658, 36079.109
361.140, 36097.422
361.622, 36105.449
362.104, 36087.070
362.586, 36048.602
363.068, 36015.500
363.550, 36005.852
364.032, 36018.430
364.515, 36041.379
364.997, 36092.559
365.479, 36133.309
365.961, 36142.148
366.443, 36143.410
366.925, 36167.102
367.407, 36223.578
367.889, 36298.328
368.371, 36370.520
368.854, 36442.898
369.336, 36502.160
369.818, 36546.461
370.300, 36578.180
370.782, 36589.289
371.264, 36585.879
371.746, 36588.660
372.228, 36614.371
372.711, 36658.359
373.193, 36703.871
373.675, 36755.859
374.157, 36797.129
374.639, 36822.949
375.121, 36831.859
375.603, 36813.738
376.085, 36750.941
376.568, 36692.730
377.050, 36687.801
377.532, 36728.301
378.014, 36774.852
378.496, 36821.121
378.978, 36859.730
379.460, 36887.660
379.942, 36911.219
380.424, 36886.961
380.906, 36745.250
381.389, 36587.301
381.871, 36518.551
382.353, 36544.020
382.835, 36611.672
383.317, 36692.129
383.799, 36782.148
384.281, 36827.480
384.763, 36802.570
385.246, 36771.340
385.728, 36743.121
386.210, 36720.449
386.692, 36706.711
387.174, 36703.000
387.656, 36704.809
388.138, 36702.762
388.620, 36688.828
389.103, 36691.578
389.585, 36710.691
390.067, 36745.539
390.549, 36807.102
391.031, 36886.520
391.513, 36956.949
391.995, 36994.148
392.477, 37008.691
392.959, 37046.211
393.442, 37117.379
393.924, 37185.711
394.406, 37231.520
394.888, 37268.371
395.370, 37312.410
395.852, 37369.738
396.334, 37423.609
396.816, 37459.449
397.298, 37479.852
397.781, 37493.539
398.263, 37499.430
398.745, 37505.941
399.227, 37528.422
399.709, 37565.891
400.191, 37584.980
400.673, 37566.449
401.155, 37538.230
401.638, 37520.270
402.120, 37512.551
402.602, 37508.691
403.084, 37504.730
403.566, 37502.371
404.048, 37508.031
404.530, 37541.871
405.012, 37558.641
405.495, 37550.160
405.977, 37527.141
406.459, 37499.172
406.941, 37468.641
407.423, 37430.520
407.905, 37367.621
408.387, 37270.910
408.869, 37252.930
409.351, 37410.129
409.833, 37541.109
410.316, 37550.961
410.798, 37496.090
411.280, 37476.020
411.762, 37541.590
412.244, 37639.539
412.726, 37678.020
413.208, 37650.500
413.690, 37650.762
414.173, 37710.480
414.655, 37802.430
415.137, 37901.051
415.619, 38006.750
416.101, 38095.738
416.583, 38152.859
417.065, 38190.211
417.547, 38217.980
418.030, 38237.801
418.512, 38267.648
418.994, 38326.621
419.476, 38405.891
419.958, 38448.391
420.440, 38416.430
420.922, 38399.430
421.404, 38432.430
421.886, 38488.641
422.369, 38535.500
422.851, 38563.398
423.333, 38581.078
423.815, 38598.109
424.297, 38611.441
424.779, 38638.711
425.261, 38695.590
425.743, 38751.129
426.225, 38793.309
426.708, 38825.891
427.190, 38859.180
427.672, 38901.172
428.154, 38940.250
428.636, 38941.262
429.118, 38890.762
429.600, 38882.820
430.082, 38985.621
430.565, 39106.129
431.047, 39141.039
431.529, 39088.711
432.011, 39075.371
432.493, 39211.809
432.975, 39405.199
433.457, 39499.680
433.939, 39483.289
434.422, 39451.840
434.904, 39460.129
435.386, 39506.609
435.868, 39579.391
436.350, 39675.879
436.832, 39797.949
437.314, 40004.371
437.796, 40212.211
438.278, 40297.859
438.760, 40238.621
439.243, 40137.922
439.725, 40121.629
440.207, 40204.379
440.689, 40272.699
441.171, 40303.539
441.653, 40342.828
442.135, 40406.461
442.617, 40486.781
443.100, 40577.199
443.582, 40678.969
444.064, 40767.781
444.546, 40786.820
445.028, 40726.801
445.510, 40717.621
445.992, 40824.199
446.474, 40948.250
446.957, 41012.352
447.439, 41018.551
447.921, 40979.031
448.403, 40856.660
448.885, 40716.488
449.367, 40646.781
449.849, 40639.738
450.331, 40609.449
450.813, 40502.781
451.296, 40353.320
451.778, 40259.820
452.260, 40264.520
452.742, 40253.461
453.224, 40210.602
453.706, 40152.430
454.188, 40081.488
454.670, 40005.910
455.152, 39952.289
455.635, 39950.840
456.117, 39993.730
456.599, 39989.020
457.081, 39898.230
457.563, 39816.789
458.045, 39749.648
458.527, 39711.289
459.009, 39727.219
459.492, 39804.859
459.974, 39889.148
460.456, 39927.551
460.938, 39928.070
461.420, 39927.730
461.902, 39927.199
462.384, 39936.270
462.866, 39974.488
463.349, 40030.500
463.831, 40059.129
464.313, 40032.770
464.795, 40003.090
465.277, 39999.230
465.759, 40011.281
466.241, 40018.191
466.723, 40013.281
467.205, 40009.012
467.688, 40024.320
468.170, 40067.941
468.652, 40098.430
469.134, 40105.770
469.616, 40112.270
470.098, 40126.211
470.580, 40145.871
471.062, 40168.801
471.544, 40195.148
472.027, 40217.129
472.509, 40214.961
472.991, 40182.949
473.473, 40169.949
473.955, 40199.719
474.437, 40234.590
474.919, 40250.988
475.401, 40247.871
475.884, 40220.230
476.366, 40136.648
476.848, 40047.988
477.330, 40016.578
477.812, 40034.551
478.294, 40049.391
478.776, 40034.980
479.258, 40010.629
479.741, 40016.859
480.223, 40077.590
480.705, 40123.738
481.187, 40150.371
481.669, 40165.891
482.151, 40161.391
482.633, 40149.539
483.115, 40167.762
483.597, 40247.621
484.079, 40362.891
484.562, 40421.988
485.044, 40399.430
485.526, 40386.109
486.008, 40405.891
486.490, 40439.629
486.972, 40474.680
487.454, 40510.250
487.936, 40553.230
488.419, 40630.441
488.901, 40707.789
489.383, 40706.469
489.865, 40625.172
490.347, 40578.949
490.829, 40645.148
491.311, 40775.980
491.793, 40833.539
492.276, 40770.980
492.758, 40737.238
493.240, 40770.840
493.722, 40830.789
494.204, 40904.590
494.686, 40975.422
495.168, 40996.129
495.650, 40919.172
496.132, 40770.719
496.615, 40694.398
497.097, 40726.809
497.579, 40762.711
498.061, 40790.039
498.543, 40804.711
499.025, 40788.410
499.507, 40743.539
499.989, 40725.379
500.471, 40794.629
500.954, 40909.879
501.436, 40984.680
501.918, 41013.930
502.400, 41027.891
502.882, 41044.020
503.364, 41056.238
503.846, 41044.000
504.328, 40992.320
504.810, 40949.379
505.293, 40902.250
505.775, 40882.352
506.257, 40939.359
506.739, 41062.078
507.221, 41181.551
507.703, 41245.000
508.185, 41259.770
508.668, 41265.398
509.150, 41260.238
509.632, 41248.961
510.114, 41205.359
510.596, 41174.680
511.078, 41203.039
511.560, 41291.648
512.042, 41385.090
512.524, 41450.230
513.006, 41495.180
513.489, 41536.539
513.971, 41574.750
514.453, 41601.359
514.935, 41609.910
515.417, 41605.352
515.899, 41601.020
516.381, 41603.980
516.864, 41592.879
517.346, 41543.289
517.828, 41494.609
518.310, 41481.949
518.792, 41501.840
519.274, 41528.910
519.756, 41547.602
520.238, 41555.648
520.720, 41538.102
521.203, 41471.102
521.685, 41440.461
522.167, 41510.211
522.649, 41588.570
523.131, 41616.078
523.613, 41591.750
524.095, 41543.531
524.577, 41459.570
525.059, 41374.328
525.542, 41339.379
526.024, 41349.762
526.506, 41361.238
526.988, 41353.641
527.470, 41339.672
527.952, 41346.531
528.434, 41403.879
528.916, 41412.578
529.398, 41326.680
529.881, 41236.012
530.363, 41190.781
530.845, 41183.359
531.327, 41186.820
531.809, 41188.172
532.291, 41188.250
532.773, 41183.988
533.255, 41172.441
533.737, 41183.641
534.220, 41237.711
534.702, 41296.629
535.184, 41325.129
535.666, 41332.000
536.148, 41351.512
536.630, 41406.641
537.112, 41463.578
537.594, 41489.820
538.077, 41498.879
538.559, 41530.109
539.041, 41595.711
539.523, 41657.309
540.005, 41660.070
540.487, 41589.770
540.969, 41554.270
541.451, 41586.320
541.933, 41615.719
542.416, 41613.898
542.898, 41602.680
543.380, 41618.539
543.862, 41673.070
544.344, 41723.090
544.826, 41721.711
545.308, 41677.281
545.791, 41618.340
546.273, 41538.172
546.755, 41487.641
547.237, 41515.609
547.719, 41598.000
548.201, 41645.160
548.683, 41651.730
549.165, 41633.539
549.647, 41548.031
550.130, 41467.859
550.612, 41488.539
551.094, 41603.898
551.576, 41722.129
552.058, 41773.871
552.540, 41768.238
553.022, 41743.441
553.504, 41676.129
553.987, 41644.730
554.469, 41697.391
554.951, 41771.738
555.433, 41832.809
555.915, 41877.051
556.397, 41901.719
556.879, 41878.789
557.361, 41853.961
557.843, 41891.090
558.326, 41978.660
558.808, 42061.180
559.290, 42118.559
559.772, 42147.410
560.254, 42135.219
560.736, 42053.359
561.218, 42021.801
561.700, 42069.480
562.182, 42129.020
562.665, 42174.672
563.147, 42212.160
563.629, 42261.129
564.111, 42330.469
564.593, 42386.801
565.075, 42375.469
565.557, 42306.941
566.039, 42265.641
566.521, 42265.309
567.004, 42276.840
567.486, 42286.391
567.968, 42291.289
568.450, 42283.398
568.932, 42259.570
569.414, 42228.250
569.896, 42159.012
570.378, 42103.750
570.860, 42143.461
571.343, 42266.980
571.825, 42367.699
572.307, 42354.109
572.789, 42263.602
573.271, 42265.480
573.753, 42409.391
574.235, 42501.840
574.718, 42452.520
575.200, 42374.449
575.682, 42353.641
576.164, 42388.262
576.646, 42435.789
577.128, 42491.512
577.610, 42544.301
578.092, 42588.980
578.574, 42622.340
579.057, 42625.102
579.539, 42588.789
580.021, 42556.000
580.503, 42591.078
580.985, 42710.230
581.467, 42795.980
581.949, 42836.441
582.431, 42853.820
582.914, 42827.461
583.396, 42791.910
583.878, 42790.578
584.360, 42834.660
584.842, 42895.449
585.324, 42963.320
585.806, 43027.379
586.288, 43056.141
586.770, 43047.129
587.253, 43027.859
587.735, 43007.719
588.217, 42994.281
588.699, 43009.211
589.181, 43081.770
589.663, 43130.980
590.145, 43133.230
590.627, 43132.102
591.109, 43156.199
591.592, 43199.762
592.074, 43245.461
592.556, 43286.629
593.038, 43317.840
593.520, 43323.629
594.002, 43305.672
594.484, 43303.020
594.966, 43325.922
595.448, 43353.391
595.931, 43367.270
596.413, 43370.730
596.895, 43382.941
597.377, 43402.852
597.859, 43432.809
598.341, 43477.180
598.823, 43529.660
599.305, 43589.879
599.787, 43653.289
600.270, 43703.461
600.752, 43724.609
601.234, 43727.078
601.716, 43747.871
602.198, 43790.730
602.680, 43838.359
603.162, 43897.238
603.644, 43949.359
604.127, 43968.711
604.609, 43961.359
605.091, 43976.930
605.573, 44067.340
606.055, 44143.738
606.537, 44127.129
607.019, 44063.379
607.501, 44040.469
607.984, 44080.078
608.466, 44132.711
608.948, 44137.719
609.430, 44098.270
609.912, 44113.410
610.394, 44220.539
610.876, 44309.691
611.358, 44351.879
611.841, 44356.738
612.323, 44308.781
612.805, 44209.172
613.287, 44152.762
613.769, 44220.270
614.251, 44320.469
614.733, 44364.102
615.215, 44361.012
615.697, 44354.141
616.180, 44360.699
616.662, 44366.090
617.144, 44342.230
617.626, 44276.820
618.108, 44264.980
618.590, 44355.879
619.072, 44438.430
619.554, 44477.781
620.036, 44490.738
620.519, 44490.469
621.001, 44477.910
621.483, 44478.000
621.965, 44523.039
622.447, 44579.922
622.929, 44590.660
623.411, 44562.039
623.893, 44556.809
624.375, 44608.789
624.858, 44683.020
625.340, 44709.711
625.822, 44667.570
626.304, 44643.969
626.786, 44638.422
627.268, 44653.449
627.750, 44709.359
628.232, 44780.449
628.714, 44826.191
629.197, 44833.801
629.679, 44835.941
630.161, 44863.391
630.643, 44900.039
631.125, 44909.469
631.607, 44892.328
632.089, 44888.910
632.571, 44925.809
633.054, 44979.398
633.536, 44990.871
634.018, 44928.770
634.500, 44893.852
634.982, 44896.230
635.464, 44913.410
635.946, 44936.629
636.428, 44967.629
636.911, 45016.730
637.393, 45092.711
637.875, 45155.012
638.357, 45156.359
638.839, 45123.141
639.321, 45105.121
639.803, 45107.988
640.285, 45137.488
640.768, 45203.031
641.250, 45285.320
641.732, 45331.730
642.214, 45334.488
642.696, 45315.121
643.178, 45228.891
643.660, 45167.391
644.142, 45198.961
644.624, 45280.871
645.107, 45329.531
645.589, 45314.102
646.071, 45277.520
646.553, 45247.539
647.035, 45225.719
647.517, 45209.910
647.999, 45201.898
648.481, 45226.590
648.963, 45307.039
649.446, 45415.391
649.928, 45469.359
650.410, 45428.539
650.892, 45416.730
651.374, 45459.570
651.856, 45505.852
652.338, 45523.340
652.820, 45529.250
653.302, 45564.520
653.785, 45652.449
654.267, 45725.781
654.749, 45719.789
655.231, 45668.191
655.713, 45614.230
656.195, 45568.281
656.677, 45578.930
657.159, 45686.559
657.641, 45833.059
658.124, 45861.500
658.606, 45692.641
659.088, 45601.680
659.570, 45662.539
660.052, 45730.891
660.534, 45742.250
661.016, 45722.660
661.498, 45725.160
661.981, 45772.488
662.463, 45802.180
662.945, 45743.961
663.427, 45661.289
663.909, 45656.879
664.391, 45723.930
664.873, 45780.051
665.355, 45780.699
665.838, 45749.262
666.320, 45731.371
666.802, 45727.730
667.284, 45736.422
667.766, 45762.590
668.248, 45794.500
668.730, 45832.930
669.212, 45871.320
669.695, 45897.078
670.177, 45904.430
670.659, 45917.930
671.141, 45949.090
671.623, 45990.879
672.105, 46046.078
672.587, 46105.738
673.069, 46146.359
673.551, 46156.988
674.034, 46149.551
674.516, 46133.148
674.998, 46104.020
675.480, 46122.398
675.962, 46209.840
676.444, 46298.059
676.926, 46362.000
677.408, 46404.891
677.890, 46428.941
678.373, 46429.801
678.855, 46436.730
679.337, 46474.000
679.819, 46503.219
680.301, 46476.609
680.783, 46428.398
681.265, 46431.551
681.747, 46507.391
682.229, 46594.289
682.712, 46624.570
683.194, 46604.430
683.676, 46567.000
684.158, 46507.441
684.640, 46456.012
685.122, 46415.672
685.604, 46400.320
686.086, 46440.691
686.568, 46551.262
687.051, 46623.059
687.533, 46629.699
688.015, 46626.398
688.497, 46625.461
688.979, 46630.781
689.461, 46651.852
689.943, 46686.699
690.425, 46711.551
690.908, 46690.262
691.390, 46659.449
691.872, 46707.480
692.354, 46822.391
692.836, 46896.781
693.318, 46895.969
693.800, 46871.859
694.282, 46876.219
694.765, 46908.391
695.247, 46951.500
695.729, 47017.852
696.211, 47076.590
696.693, 47124.250
697.175, 47161.680
697.657, 47183.238
698.139, 47193.820
698.622, 47211.309
699.104, 47242.648
699.586, 47284.660
700.068, 47354.949
700.550, 47428.480
701.032, 47446.512
701.514, 47404.621
701.996, 47353.340
702.478, 47329.012
702.961, 47325.781
703.443, 47324.340
703.925, 47324.020
704.407, 47332.879
704.889, 47387.531
705.371, 47405.230
705.853, 47276.840
706.335, 47084.871
706.817, 47014.340
707.300, 47142.000
707.782, 47262.512
708.264, 47302.500
708.746, 47307.199
709.228, 47307.801
709.710, 47309.328
710.192, 47311.641
710.674, 47314.590
711.156, 47319.328
711.639, 47319.090
712.121, 47318.371
712.603, 47366.859
713.085, 47477.941
713.567, 47554.570
714.049, 47534.840
714.531, 47475.891
715.013, 47480.941
715.495, 47574.691
715.978, 47644.000
716.460, 47686.090
716.942, 47708.500
717.424, 47699.160
717.906, 47679.770
718.388, 47672.020
718.870, 47680.789
719.352, 47705.219
719.835, 47762.238
720.317, 47822.699
720.799, 47844.879
721.281, 47836.930
721.763, 47819.301
722.245, 47798.172
722.727, 47797.672
723.209, 47849.352
723.692, 47941.531
724.174, 47975.039
724.656, 47915.398
725.138, 47883.898
725.620, 47928.691
726.102, 47981.578
726.584, 47978.699
727.066, 47940.570
727.549, 47943.531
728.031, 48052.590
728.513, 48125.379
728.995, 48060.320
729.477, 47965.180
729.959, 47958.781
730.441, 48026.262
730.923, 48077.078
731.405, 48061.090
731.888, 48025.809
732.370, 48044.250
732.852, 48107.539
733.334, 48161.109
733.816, 48199.559
734.298, 48238.219
734.780, 48293.488
735.262, 48338.441
735.744, 48308.910
736.227, 48148.102
736.709, 48093.719
737.191, 48240.609
737.673, 48377.180
738.155, 48437.789
738.637, 48451.930
739.119, 48447.148
739.601, 48430.109
740.083, 48421.699
740.566, 48447.109
741.048, 48474.199
741.530, 48462.141
742.012, 48430.461
742.494, 48422.539
742.976, 48448.031
743.458, 48490.422
743.940, 48542.770
744.422, 48591.141
744.905, 48566.172
745.387, 48450.480
745.869, 48383.891
746.351, 48389.801
746.833, 48456.219
747.315, 48611.750
747.797, 48823.469
748.279, 48932.441
748.762, 48869.930
749.244, 48819.500
749.726, 48812.410
750.208, 48812.430
750.690, 48795.559
751.172, 48768.102
751.654, 48734.988
752.136, 48693.180
752.619, 48699.461
753.101, 48856.480
753.583, 49064.371
754.065, 49155.039
754.547, 49135.820
755.029, 49077.559
755.511, 49007.148
755.993, 48941.672
756.476, 48900.730
756.958, 48884.730
757.440, 48914.289
757.922, 49023.910
758.404, 49077.590
758.886, 48993.051
759.368, 48884.422
759.850, 48871.469
760.332, 48943.590
760.815, 49027.422
761.297, 49166.301
761.779, 49253.020
762.261, 49210.711
762.743, 49140.180
763.225, 49122.090
763.707, 49157.609
764.189, 49222.230
764.671, 49314.461
765.154, 49388.789
765.636, 49368.691
766.118, 49301.090
766.600, 49304.770
767.082, 49380.730
767.564, 49442.211
768.046, 49445.398
768.528, 49418.180
769.010, 49401.000
769.493, 49390.262
769.975, 49438.840
770.457, 49597.789
770.939, 49700.359
771.421, 49645.961
771.903, 49542.398
772.385, 49522.301
772.867, 49584.020
773.349, 49629.102
773.832, 49641.781
774.314, 49643.129
774.796, 49636.539
775.278, 49625.141
775.760, 49602.980
776.242, 49577.551
776.724, 49575.012
777.206, 49616.250
777.689, 49665.691
778.171, 49685.410
778.653, 49684.250
779.135, 49675.359
779.617, 49663.539
780.099, 49672.539
780.581, 49717.910
781.063, 49770.852
781.545, 49771.770
782.028, 49712.559
782.510, 49685.922
782.992, 49695.512
783.474, 49728.730
783.956, 49791.328
784.438, 49864.840
784.920, 49924.621
785.403, 49969.340
785.885, 50018.500
786.367, 50075.410
786.849, 50132.039
787.331, 50182.191
787.813, 50232.711
788.295, 50304.770
788.777, 50384.531
789.259, 50419.371
789.742, 50363.770
790.224, 50307.820
790.706, 50363.559
791.188, 50455.309
791.670, 50439.410
792.152, 50327.551
792.634, 50235.578
793.116, 50221.090
793.598, 50256.941
794.081, 50321.789
794.563, 50412.281
795.045, 50422.469
795.527, 50331.781
796.009, 50290.449
796.491, 50372.801
796.973, 50491.691
797.455, 50546.039
797.938, 50534.898
798.420, 50496.238
798.902, 50369.840
799.384, 50296.410
799.866, 50314.199
800.348, 50369.281
800.830, 50440.309
801.312, 50515.391
801.794, 50569.469
802.277, 50591.430
802.759, 50601.809
803.241, 50585.039
803.723, 50581.750
804.205, 50666.520
804.687, 50795.410
805.169, 50845.699
805.651, 50774.309
806.133, 50684.359
806.616, 50694.230
807.098, 50770.012
807.580, 50817.930
808.062, 50840.512
808.544, 50863.910
809.026, 50896.172
809.508, 50922.949
809.990, 50927.160
810.472, 50915.410
810.955, 50923.980
811.437, 50943.129
811.919, 51017.191
812.401, 51214.770
812.883, 51377.621
813.365, 51384.719
813.847, 51290.852
814.330, 51212.051
814.812, 51140.719
815.294, 51113.238
815.776, 51159.660
816.258, 51224.520
816.740, 51308.809
817.222, 51379.820
817.704, 51375.422
818.186, 51298.219
818.669, 51260.590
819.151, 51372.031
819.633, 51507.750
820.115, 51554.609
820.597, 51537.602
821.079, 51492.441
821.561, 51431.020
822.043, 51358.930
822.526, 51273.789
823.008, 51217.910
823.490, 51304.871
823.972, 51511.629
824.454, 51605.000
824.936, 51562.211
825.418, 51503.449
825.900, 51473.371
826.382, 51479.422
826.865, 51541.852
827.347, 51666.801
827.829, 51741.211
828.311, 51736.500
828.793, 51732.031
829.275, 51763.449
829.757, 51783.090
830.239, 51725.020
830.721, 51620.289
831.204, 51594.398
831.686, 51728.129
832.168, 51824.988
832.650, 51781.051
833.132, 51739.328
833.614, 51831.109
834.096, 51988.301
834.578, 52073.840
835.060, 52050.551
835.543, 52005.230
836.025, 51980.648
836.507, 51978.879
836.989, 52027.469
837.471, 52094.949
837.953, 52096.930
838.435, 52026.789
838.917, 51972.988
839.400, 52007.898
839.882, 52086.750
840.364, 52105.020
840.846, 52073.109
841.328, 52101.910
841.810, 52208.641
842.292, 52286.949
842.774, 52273.980
843.256, 52221.430
843.739, 52219.551
844.221, 52274.680
844.703, 52320.129
845.185, 52354.379
845.667, 52379.461
846.149, 52376.809
846.631, 52382.871
847.114, 52448.281
847.596, 52558.559
848.078, 52630.148
848.560, 52630.699
849.042, 52632.160
849.524, 52636.129
850.006, 52650.730
850.488, 52705.789
850.970, 52766.020
851.453, 52755.648
851.935, 52652.762
852.417, 52579.500
852.899, 52645.910
853.381, 52725.520
853.863, 52688.391
854.345, 52601.859
854.827, 52586.852
855.309, 52654.602
855.792, 52727.469
856.274, 52752.961
856.756, 52761.711
857.238, 52801.371
857.720, 52859.988
858.202, 52901.680
858.684, 52924.199
859.166, 52938.621
859.648, 52949.180
860.131, 52965.320
860.613, 53002.199
861.095, 53058.020
861.577, 53119.078
862.059, 53194.078
862.541, 53210.820
863.023, 53132.590
863.505, 53043.039
863.987, 53015.840
864.470, 53036.250
864.952, 53035.180
865.434, 52975.621
865.916, 52973.352
866.398, 53086.180
866.880, 53188.641
867.362, 53230.809
867.844, 53232.270
868.327, 53210.270
868.809, 53164.211
869.291, 53130.371
869.773, 53107.121
870.255, 53107.230
870.737, 53164.340
871.219, 53224.238
871.701, 53214.949
872.183, 53164.141
872.666, 53173.859
873.148, 53299.211
873.630, 53416.379
874.112, 53424.609
874.594, 53400.762
875.076, 53428.719
875.558, 53487.641
876.041, 53516.762
876.523, 53503.641
877.005, 53499.379
877.487, 53558.762
877.969, 53633.199
878.451, 53619.328
878.933, 53554.988
879.415, 53572.379
879.897, 53679.801
880.380, 53773.840
880.862, 53794.891
881.344, 53783.660
881.826, 53808.512
882.308, 53866.988
882.790, 53917.828
883.272, 53963.531
883.754, 53974.160
884.237, 53932.730
884.719, 53888.711
885.201, 53893.750
885.683, 53935.910
886.165, 53944.180
886.647, 53897.852
887.129, 53880.340
887.611, 53905.141
888.093, 53945.770
888.576, 53986.961
889.058, 54037.480
889.540, 54121.762
890.022, 54253.570
890.504, 54334.102
890.986, 54354.621
891.468, 54335.430
891.950, 54217.500
892.432, 54115.469
892.915, 54137.570
893.397, 54249.531
893.879, 54340.469
894.361, 54390.180
894.843, 54414.629
895.325, 54389.199
895.807, 54371.762
896.289, 54420.801
896.771, 54492.102
897.254, 54510.070
897.736, 54470.828
898.218, 54448.750
898.700, 54490.570
899.182, 54555.570
899.664, 54637.352
900.146, 54705.371
900.628, 54696.109
901.110, 54634.281
901.593, 54613.770
902.075, 54672.039
902.557, 54741.809
903.039, 54739.391
903.521, 54710.891
904.003, 54756.301
904.485, 54851.309
904.968, 54912.520
905.450, 54924.301
905.932, 54922.801
906.414, 54932.238
906.896, 54948.859
907.378, 54975.180
907.860, 55005.660
908.342, 54971.871
908.824, 54870.391
909.307, 54871.480
909.789, 55052.719
910.271, 55246.070
910.753, 55253.520
911.235, 55110.078
911.717, 55026.910
912.199, 55008.441
912.681, 55028.301
913.164, 55096.148
913.646, 55164.160
914.128, 55211.961
914.610, 55233.379
915.092, 55206.559
915.574, 55115.160
916.056, 55099.129
916.538, 55199.910
917.020, 55299.039
917.503, 55384.770
917.985, 55446.270
918.467, 55466.570
918.949, 55455.781
919.431, 55450.500
919.913, 55443.270
920.395, 55457.871
920.877, 55545.949
921.359, 55595.340
921.842, 55510.461
922.324, 55401.172
922.806, 55402.059
923.288, 55506.879
923.770, 55583.820
924.252, 55566.039
924.734, 55571.340
925.216, 55653.602
925.698, 55750.031
926.181, 55831.180
926.663, 55888.039
927.145, 55900.371
927.627, 55864.719
928.109, 55851.770
928.591, 55918.391
929.073, 55989.480
929.555, 56008.969
930.037, 56012.070
930.520, 56036.980
931.002, 56084.359
931.484, 56140.719
931.966, 56200.980
932.448, 56263.480
932.930, 56356.480
933.412, 56425.949
933.894, 56379.641
934.377, 56275.699
934.859, 56221.629
935.341, 56236.781
935.823, 56290.180
936.305, 56372.078
936.787, 56450.309
937.269, 56483.109
937.751, 56486.238
938.234, 56479.789
938.716, 56472.359
939.198, 56494.801
939.680, 56552.219
940.162, 56586.699
940.644, 56531.012
941.126, 56446.309
941.608, 56473.461
942.091, 56580.359
942.573, 56634.422
943.055, 56627.660
943.537, 56630.340
944.019, 56674.020
944.501, 56746.578
944.983, 56842.961
945.465, 56950.738
945.947, 57016.469
946.430, 57041.500
946.912, 57043.980
947.394, 57024.840
947.876, 57043.000
948.358, 57139.461
948.840, 57271.750
949.322, 57357.309
949.804, 57396.859
950.286, 57490.301
950.769, 57652.621
951.251, 57719.531
951.733, 57620.840
952.215, 57546.488
952.697, 57663.301
953.179, 57891.500
953.661, 57992.191
954.143, 57927.512
954.625, 57938.590
955.108, 58046.309
955.590, 58157.570
956.072, 58210.148
956.554, 58320.930
957.036, 58290.551
957.518, 58440.543
958.000, 58546.754
958.482, 58611.531
958.964, 58510.789
959.447, 58623.797
959.929, 58651.129
960.411, 58674.957
960.893, 58818.035
961.375, 58741.371
961.857, 58882.551
962.339, 58936.785
962.821, 59030.801
963.304, 59020.840
963.786, 59011.410
964.268, 58998.199
964.750, 58953.859
965.232, 58905.852
965.714, 58901.301
966.196, 58945.391
966.678, 58985.199
967.161, 59044.590
967.643, 59064.762
968.125, 59018.281
968.607, 58950.609
969.089, 58881.301
969.571, 58812.512
970.053, 58741.859
970.535, 58661.359
971.018, 58621.129
971.500, 58656.680
971.982, 58691.539
972.464, 58745.762
972.946, 58757.148
973.428, 58622.230
973.910, 58414.891
974.392, 58342.191
974.874, 58474.430
975.357, 58563.000
975.839, 58537.820
976.321, 58496.949
976.803, 58462.762
977.285, 58440.301
977.767, 58437.180
978.249, 58448.602
978.731, 58459.730
979.213, 58472.961
979.696, 58471.250
980.178, 58415.199
980.660, 58384.539
981.142, 58443.422
981.624, 58530.809
982.106, 58590.941
982.588, 58616.371
983.070, 58564.293
983.552, 58611.199
984.035, 58634.082
984.517, 58634.223
984.999, 58543.531
985.481, 58570.133
985.963, 58549.730
986.445, 58527.398
986.927, 58544.629
987.409, 58529.730
987.891, 58481.461
988.374, 58430.801
988.856, 58373.211
989.338, 58333.379
989.820, 58341.648
990.302, 58371.781
990.784, 58387.371
991.266, 58383.660
991.748, 58374.840
992.231, 58370.961
992.713, 58355.809
993.195, 58292.270
993.677, 58244.680
994.159, 58280.078
994.641, 58358.391
995.123, 58402.238
995.605, 58403.730
996.088, 58440.672
996.570, 58592.230
997.052, 58722.090
997.534, 58750.969
998.016, 58747.020
998.498, 58744.840
998.980, 58760.500
999.462, 58825.328
999.945, 58940.410
1000.427, 59029.328
1000.909, 59019.680
1001.391, 59024.891
1001.873, 59147.988
1002.355, 59267.539
1002.837, 59253.930
1003.319, 59162.871
1003.801, 59108.750
1004.284, 59116.879
1004.766, 59150.551
1005.248, 59213.988
1005.730, 59274.539
1006.212, 59322.422
1006.694, 59355.328
1007.176, 59375.012
1007.658, 59378.070
1008.140, 59348.539
1008.623, 59283.672
1009.105, 59241.539
1009.587, 59276.641
1010.069, 59303.910
1010.551, 59269.578
1011.033, 59217.980
1011.515, 59166.770
1011.997, 59137.191
1012.479, 59179.750
1012.962, 59306.641
1013.444, 59394.301
1013.926, 59343.949
1014.408, 59302.641
1014.890, 59347.719
1015.372, 59425.488
1015.854, 59513.852
1016.336, 59588.000
1016.819, 59598.480
1017.301, 59532.230
1017.783, 59486.090
1018.265, 59515.129
1018.747, 59546.141
1019.229, 59541.949
1019.711, 59530.871
1020.193, 59542.840
1020.675, 59565.250
1021.158, 59563.012
1021.640, 59527.680
1022.122, 59514.031
1022.604, 59564.309
1023.086, 59606.289
1023.568, 59602.660
1024.050, 59589.211
1024.532, 59585.590
1025.015, 59596.820
1025.497, 59634.578
1025.979, 59703.121
1026.461, 59754.371
1026.943, 59763.898
1027.425, 59771.309
1027.907, 59770.359
1028.389, 59789.199
1028.871, 59854.039
1029.354, 59950.012
1029.836, 60069.719
1030.318, 60219.340
1030.800, 60271.379
1031.282, 60086.672
1031.764, 59966.539
1032.246, 60047.211
1032.728, 60147.500
1033.210, 60105.680
1033.693, 60022.609
1034.175, 60106.770
1034.657, 60391.172
1035.139, 60566.691
1035.621, 60566.090
1036.103, 60513.840
1036.585, 60315.012
1037.067, 60193.090
1037.550, 60382.969
1038.032, 60676.469
1038.514, 60717.711
1038.996, 60481.270
1039.478, 60331.430
1039.960, 60242.891
1040.442, 60287.520
1040.924, 60642.719
1041.406, 60904.922
1041.889, 60801.121
1042.371, 60553.281
1042.853, 60468.891
1043.335, 60545.820
1043.817, 60623.422
1044.299, 60721.648
1044.781, 60772.949
1045.263, 60740.840
1045.745, 60722.648
1046.228, 60783.699
1046.710, 60850.469
1047.192, 60816.559
1047.674, 60698.020
1048.156, 60663.379
1048.638, 60747.719
1049.120, 60795.762
1049.602, 60786.621
1050.085, 60775.988
1050.567, 60793.730
1051.049, 60799.711
1051.531, 60737.711
1052.013, 60632.609
1052.495, 60607.570
1052.977, 60670.051
1053.459, 60759.230
1053.942, 60878.520
1054.424, 60984.309
1054.906, 61065.379
1055.388, 61101.488
1055.870, 61061.621
1056.352, 60984.801
1056.834, 60996.570
1057.316, 61093.820
1057.798, 61169.039
1058.281, 61217.789
1058.763, 61259.172
1059.245, 61298.930
1059.727, 61320.969
1060.209, 61310.109
1060.691, 61285.051
1061.173, 61277.441
1061.655, 61288.988
1062.137, 61341.520
1062.620, 61424.789
1063.102, 61471.359
1063.584, 61467.359
1064.066, 61446.781
1064.548, 61433.340
1065.030, 61397.879
1065.512, 61251.570
1065.994, 61074.320
1066.477, 61071.871
1066.959, 61193.820
1067.441, 61298.738
1067.923, 61362.352
1068.405, 61417.500
1068.887, 61480.020
1069.369, 61541.551
1069.851, 61614.441
1070.333, 61664.211
1070.816, 61614.730
1071.298, 61525.449
1071.780, 61486.691
1072.262, 61506.828
1072.744, 61579.719
1073.226, 61701.520
1073.708, 61802.988
1074.190, 61829.801
1074.672, 61825.289
1075.155, 61780.941
1075.637, 61758.461
1076.119, 61873.961
1076.601, 62048.871
1077.083, 62107.039
1077.565, 62015.820
1078.047, 61923.172
1078.530, 61869.000
1079.012, 61860.680
1079.494, 61932.609
1079.976, 62018.531
1080.458, 62079.531
1080.940, 62118.680
1081.422, 62145.281
1081.904, 62159.922
1082.386, 62156.141
1082.869, 62105.879
1083.351, 62085.469
1083.833, 62132.691
1084.315, 62181.980
1084.797, 62226.070
1085.279, 62243.730
1085.761, 62186.320
1086.243, 62080.219
1086.725, 62045.449
1087.208, 62102.871
1087.690, 62181.840
1088.172, 62316.480
1088.654, 62405.359
1089.136, 62392.629
1089.618, 62376.309
1090.100, 62441.430
1090.582, 62541.211
1091.065, 62555.109
1091.547, 62467.699
1092.029, 62489.629
1092.511, 62650.070
1092.993, 62758.699
1093.475, 62774.969
1093.957, 62760.859
1094.439, 62745.750
1094.922, 62743.191
1095.404, 62776.230
1095.886, 62837.961
1096.368, 62891.422
1096.850, 62938.012
1097.332, 62997.711
1097.814, 63069.660
1098.296, 63109.672
1098.778, 63100.320
1099.260, 63074.371
1099.743, 63061.219
1100.225, 63056.422
1100.707, 63061.379
1101.189, 63064.629
1101.671, 63015.281
1102.153, 62940.801
1102.635, 62947.762
1103.117, 63047.789
1103.600, 63134.879
1104.082, 63146.051
1104.564, 63114.609
1105.046, 63028.102
1105.528, 62956.148
1106.010, 63028.328
1106.492, 63138.422
1106.974, 63068.461
1107.457, 62871.590
1107.939, 62831.309
1108.421, 63063.699
1108.903, 63292.840
1109.385, 63410.031
1109.867, 63461.121
1110.349, 63421.570
1110.831, 63367.699
1111.313, 63355.551
1111.796, 63380.891
1112.278, 63438.680
1112.760, 63531.219
1113.242, 63579.039
1113.724, 63505.199
1114.206, 63485.301
1114.688, 63613.578
1115.170, 63711.629
1115.652, 63656.699
1116.135, 63581.000
1116.617, 63667.199
1117.099, 63873.961
1117.581, 63915.398
1118.063, 63718.211
1118.545, 63636.109
1119.027, 63704.602
1119.509, 63791.531
1119.992, 63867.961
1120.474, 63906.711
1120.956, 63874.391
1121.438, 63825.012
1121.920, 63894.969
1122.402, 64064.879
1122.884, 64130.480
1123.366, 64102.230
1123.849, 64075.809
1124.331, 64071.281
1124.813, 64119.672
1125.295, 64236.480
1125.777, 64330.711
1126.259, 64278.020
1126.741, 64169.379
1127.223, 64162.020
1127.705, 64214.539
1128.188, 64258.199
1128.670, 64287.770
1129.152, 64321.602
1129.634, 64359.230
1130.116, 64359.660
1130.598, 64278.211
1131.080, 64207.379
1131.562, 64234.750
1132.044, 64276.199
1132.527, 64248.020
1133.009, 64204.309
1133.491, 64235.770
1133.973, 64321.141
1134.455, 64349.059
1134.937, 64276.320
1135.419, 64235.680
1135.901, 64282.961
1136.384, 64324.262
1136.866, 64304.629
1137.348, 64301.820
1137.830, 64384.359
1138.312, 64499.879
1138.794, 64571.441
1139.276, 64598.430
1139.758, 64563.051
1140.240, 64420.801
1140.723, 64387.148
1141.205, 64508.219
1141.687, 64617.461
1142.169, 64653.520
1142.651, 64654.488
1143.133, 64650.121
1143.615, 64652.238
1144.097, 64703.891
1144.579, 64790.871
1145.062, 64827.469
1145.544, 64815.199
1146.026, 64739.000
1146.508, 64621.320
1146.990, 64648.789
1147.472, 64921.449
1147.954, 65187.930
1148.436, 65143.180
1148.919, 64982.789
1149.401, 64922.199
1149.883, 64928.750
1150.365, 64983.039
1150.847, 65055.148
1151.329, 65090.809
1151.811, 65082.090
1152.293, 65074.238
1152.776, 65097.840
1153.258, 65104.289
1153.740, 65018.770
1154.222, 64976.859
1154.704, 65124.191
1155.186, 65297.090
1155.668, 65280.789
1156.150, 65143.391
1156.632, 65162.250
1157.115, 65402.469
1157.597, 65513.852
1158.079, 65433.949
1158.561, 65363.500
1159.043, 65327.750
1159.525, 65318.289
1160.007, 65328.859
1160.489, 65368.719
1160.971, 65459.000
1161.454, 65580.094
1161.936, 65651.008
1162.418, 65674.906
1162.900, 65690.180
1163.382, 65698.828
1163.864, 65690.797
1164.346, 65664.492
1164.828, 65619.906
1165.311, 65551.094
1165.793, 65518.180
1166.275, 65657.656
1166.757, 65822.367
1167.239, 65773.750
1167.721, 65630.477
1168.203, 65565.891
1168.685, 65587.031
1169.167, 65659.469
1169.650, 65769.102
1170.132, 65851.656
1170.614, 65863.867
1171.096, 65865.438
1171.578, 65895.227
1172.060, 65899.633
1172.542, 65811.789
1173.024, 65711.094
1173.506, 65680.289
1173.989, 65715.008
1174.471, 65801.094
1174.953, 65970.492
1175.435, 66038.641
1175.917, 65961.508
1176.399, 65933.344
1176.881, 66002.539
1177.363, 66063.602
1177.846, 66057.367
1178.328, 66029.594
1178.810, 66032.906
1179.292, 66065.633
1179.774, 66152.453
1180.256, 66262.820
1180.738, 66248.570
1181.220, 66136.867
1181.703, 66075.727
1182.185, 66095.156
1182.667, 66130.617
1183.149, 66147.992
1183.631, 66163.047
1184.113, 66212.570
1184.595, 66240.609
1185.077, 66145.906
1185.559, 66048.922
1186.042, 66110.633
1186.524, 66261.102
1187.006, 66327.883
1187.488, 66291.328
1187.970, 66314.133
1188.452, 66491.906
1188.934, 66620.422
1189.416, 66651.094
1189.898, 66678.430
1190.381, 66737.508
1190.863, 66788.906
1191.345, 66797.273
1191.827, 66782.508
1192.309, 66794.023
1192.791, 66828.023
1193.273, 66793.781
1193.755, 66695.227
1194.238, 66644.398
1194.720, 66655.203
1195.202, 66716.703
1195.684, 66821.672
1196.166, 66914.281
1196.648, 66945.539
1197.130, 66953.078
1197.612, 66978.844
1198.094, 67013.273
1198.577, 67043.227
1199.059, 67072.883
1199.541, 67113.789
1200.023, 67160.539
1200.505, 67190.453
1200.987, 67195.039
1201.469, 67217.367
1201.951, 67313.906
1202.433, 67363.797
1202.916, 67281.469
1203.398, 67215.523
1203.880, 67262.406
1204.362, 67327.203
1204.844, 67308.531
1205.326, 67236.641
1205.808, 67216.023
1206.290, 67254.039
1206.773, 67259.953
1207.255, 67234.227
1207.737, 67165.523
1208.219, 67057.008
1208.701, 67051.961
1209.183, 67215.656
1209.665, 67398.062
1210.147, 67459.242
1210.630, 67442.703
1211.112, 67366.523
1211.594, 67286.344
1212.076, 67272.477
1212.558, 67320.906
1213.040, 67443.297
1213.522, 67610.422
1214.004, 67733.258
1214.486, 67781.539
1214.969, 67817.156
1215.451, 67836.102
1215.933, 67877.141
1216.415, 67990.602
1216.897, 68078.906
1217.379, 68085.289
1217.861, 68057.188
1218.343, 68045.312
1218.825, 68041.859
1219.308, 68002.680
1219.790, 67921.820
1220.272, 67964.383
1220.754, 68126.711
1221.236, 68197.828
1221.718, 68149.023
1222.200, 68122.000
1222.682, 68180.953
1223.165, 68286.141
1223.647, 68428.953
1224.129, 68542.070
1224.611, 68522.711
1225.093, 68447.617
1225.575, 68382.109
1226.057, 68340.562
1226.539, 68361.352
1227.021, 68414.852
1227.504, 68380.156
1227.986, 68202.477
1228.468, 68136.492
1228.950, 68348.297
1229.432, 68478.062
1229.914, 68439.344
1230.396, 68390.492
1230.878, 68390.383
1231.360, 68426.203
1231.843, 68500.906
1232.325, 68573.531
1232.807, 68493.297
1233.289, 68297.938
1233.771, 68319.867
1234.253, 68511.641
1234.735, 68641.648
1235.217, 68684.148
1235.700, 68711.180
1236.182, 68747.367
1236.664, 68757.703
1237.146, 68694.750
1237.628, 68652.562
1238.110, 68717.609
1238.592, 68807.844
1239.074, 68872.273
1239.557, 68922.180
1240.039, 68971.781
1240.521, 69020.047
1241.003, 69061.469
1241.485, 69096.273
1241.967, 69122.977
1242.449, 69142.773
1242.931, 69148.578
1243.413, 69135.312
1243.896, 69139.719
1244.378, 69175.680
1244.860, 69207.047
1245.342, 69207.781
1245.824, 69192.883
1246.306, 69176.609
1246.788, 69165.898
1247.270, 69176.594
1247.752, 69200.953
1248.235, 69244.938
1248.717, 69283.883
1249.199, 69249.133
1249.681, 69147.227
1250.163, 69085.523
1250.645, 69093.297
1251.127, 69158.609
1251.609, 69386.367
1252.092, 69511.453
1252.574, 69380.070
1253.056, 69251.477
1253.538, 69272.492
1254.020, 69345.953
1254.502, 69353.344
1254.984, 69315.523
1255.466, 69292.508
1255.948, 69290.742
1256.431, 69408.703
1256.913, 69606.023
1257.395, 69634.094
1257.877, 69496.289
1258.359, 69455.312
1258.841, 69608.609
1259.323, 69743.422
1259.805, 69682.461
1260.287, 69610.977
1260.770, 69641.789
1261.252, 69711.227
1261.734, 69798.859
1262.216, 69882.031
1262.698, 69946.508
1263.180, 69985.953
1263.662, 69976.188
1264.144, 69915.523
1264.627, 69958.398
1265.109, 70130.672
1265.591, 70224.961
1266.073, 70224.258
1266.555, 70207.258
1267.037, 70200.094
1267.519, 70254.227
1268.001, 70405.992
1268.484, 70535.250
1268.966, 70460.391
1269.448, 70343.906
1269.930, 70398.258
1270.412, 70496.906
1270.894, 70480.672
1271.376, 70411.938
1271.858, 70414.258
1272.340, 70473.297
1272.823, 70488.156
##END=



