##NAMES=Fluellite
##RRUFFID=R070473
##IDEAL CHEMISTRY=Al_2_(PO_4_)F_2_(OH)&#183;7H_2_O
##LOCALITY=Gold Quarry mine (Maggie claims), Maggie Creek District, Eureka County, Nevada, USA
##OWNER=RRUFF
##SOURCE=Michael Scott
##DESCRIPTION=Colorless to pale green blocky prismatic crystals
##STATUS=The identification of this mineral has been confirmed by single-crystal X-ray diffraction.
##URL=rruff.info/R070473
143.0946, 9506.183
143.5767, 9775.520
144.0588, 10022.92
144.5410, 10256.78
145.0231, 10456.86
145.5052, 10653.77
145.9873, 10886.32
146.4694, 11169.53
146.9515, 11474.31
147.4337, 11730.78
147.9158, 11916.45
148.3979, 12072.41
148.8800, 12182.95
149.3621, 12271.59
149.8442, 12367.55
150.3264, 12484.07
150.8085, 12609.38
151.2906, 12709.84
151.7727, 12776.89
152.2548, 12827.84
152.7369, 12872.01
153.2191, 12898.57
153.7012, 12886.32
154.1833, 12823.11
154.6654, 12727.16
155.1475, 12660.29
155.6296, 12633.39
156.1118, 12619.27
156.5939, 12613.05
157.0760, 12617.00
157.5581, 12636.92
158.0402, 12653.86
158.5223, 12736.71
159.0045, 12807.43
159.4866, 12866.63
159.9687, 12879.88
160.4508, 12952.47
160.9329, 13001.28
161.4150, 13049.11
161.8972, 13130.06
162.3793, 13150.00
162.8614, 13230.41
163.3435, 13367.55
163.8256, 13517.37
164.3077, 13629.98
164.7899, 13722.88
165.2720, 13838.87
165.7541, 14001.91
166.2362, 14194.01
166.7183, 14364.28
167.2004, 14507.94
167.6826, 14646.57
168.1647, 14788.22
168.6468, 14932.88
169.1289, 15080.49
169.6110, 15232.83
170.0931, 15387.41
170.5753, 15544.69
171.0574, 15729.72
171.5395, 15875.72
172.0216, 15936.20
172.5037, 15927.36
172.9858, 15907.00
173.4680, 15903.75
173.9501, 15894.08
174.4322, 15837.40
174.9143, 15726.60
175.3964, 15589.36
175.8785, 15422.28
176.3607, 15234.18
176.8428, 15062.58
177.3249, 14916.42
177.8070, 14802.11
178.2891, 14724.19
178.7712, 14691.48
179.2534, 14666.81
179.7355, 14624.75
180.2176, 14568.85
180.6997, 14518.40
181.1818, 14471.34
181.6639, 14443.18
182.1461, 14457.40
182.6282, 14527.43
183.1103, 14589.57
183.5924, 14582.64
184.0745, 14520.32
184.5566, 14497.33
185.0388, 14565.22
185.5209, 14665.34
186.0030, 14725.80
186.4851, 14742.08
186.9672, 14740.76
187.4493, 14728.29
187.9315, 14708.09
188.4136, 14709.42
188.8957, 14758.13
189.3778, 14812.58
189.8599, 14833.36
190.3420, 14819.03
190.8242, 14779.63
191.3063, 14704.60
191.7884, 14601.29
192.2705, 14526.38
192.7526, 14502.66
193.2347, 14501.86
193.7169, 14494.75
194.1990, 14480.97
194.6811, 14472.60
195.1632, 14479.48
195.6453, 14500.06
196.1274, 14526.78
196.6096, 14580.91
197.0917, 14612.00
197.5738, 14580.43
198.0559, 14489.27
198.5380, 14376.34
199.0201, 14264.67
199.5023, 14152.56
199.9844, 14024.52
200.4665, 13866.89
200.9486, 13707.81
201.4307, 13563.43
201.9128, 13433.73
202.3950, 13322.66
202.8771, 13239.64
203.3592, 13179.02
203.8413, 13110.46
204.3234, 13013.95
204.8055, 12936.47
205.2877, 12918.88
205.7698, 12946.32
206.2519, 12968.41
206.7340, 12940.41
207.2161, 12880.29
207.6982, 12863.14
208.1804, 12912.50
208.6625, 12970.02
209.1446, 13004.02
209.6267, 13017.98
210.1088, 13019.08
210.5909, 13000.98
211.0731, 12972.65
211.5552, 12965.55
212.0373, 12995.97
212.5194, 13014.24
213.0015, 12985.89
213.4836, 12928.33
213.9658, 12870.40
214.4479, 12826.28
214.9300, 12789.91
215.4121, 12747.85
215.8942, 12698.06
216.3763, 12648.21
216.8584, 12613.37
217.3406, 12578.64
217.8227, 12519.59
218.3048, 12415.75
218.7869, 12294.25
219.2690, 12204.52
219.7511, 12155.82
220.2333, 12104.99
220.7154, 12025.17
221.1975, 11934.95
221.6796, 11855.07
222.1617, 11793.90
222.6438, 11739.71
223.1260, 11676.51
223.6081, 11603.10
224.0902, 11527.40
224.5723, 11450.01
225.0544, 11372.68
225.5365, 11297.38
226.0187, 11225.31
226.5008, 11153.67
226.9829, 11075.15
227.4650, 10988.76
227.9471, 10918.21
228.4292, 10879.05
228.9114, 10854.69
229.3935, 10834.99
229.8756, 10821.28
230.3577, 10794.84
230.8398, 10728.58
231.3219, 10625.82
231.8041, 10542.09
232.2862, 10496.73
232.7683, 10470.49
233.2504, 10448.40
233.7325, 10430.29
234.2146, 10403.74
234.6968, 10353.62
235.1789, 10285.68
235.6610, 10225.88
236.1431, 10173.24
236.6252, 10138.27
237.1073, 10135.42
237.5895, 10160.20
238.0716, 10180.46
238.5537, 10182.31
239.0358, 10167.72
239.5179, 10138.45
240.0000, 10088.40
240.4822, 10038.25
240.9643, 10002.18
241.4464, 9978.571
241.9285, 9966.760
242.4106, 9976.256
242.8927, 9994.380
243.3749, 9997.914
243.8570, 9982.847
244.3391, 9967.562
244.8212, 9975.476
245.3033, 9992.825
245.7854, 9987.310
246.2676, 9925.584
246.7497, 9854.147
247.2318, 9828.959
247.7139, 9851.794
248.1960, 9877.384
248.6781, 9880.877
249.1603, 9868.893
249.6424, 9858.438
250.1245, 9855.012
250.6066, 9848.127
251.0887, 9820.795
251.5708, 9777.846
252.0530, 9753.958
252.5351, 9770.151
253.0172, 9811.077
253.4993, 9843.171
253.9814, 9865.469
254.4635, 9881.933
254.9457, 9890.293
255.4278, 9893.869
255.9099, 9899.626
256.3920, 9906.646
256.8741, 9922.902
257.3563, 9969.462
257.8384, 10053.39
258.3205, 10123.55
258.8026, 10154.85
259.2847, 10165.82
259.7668, 10182.92
260.2490, 10211.78
260.7311, 10250.15
261.2132, 10296.38
261.6953, 10350.45
262.1774, 10411.90
262.6595, 10483.12
263.1417, 10560.92
263.6238, 10645.36
264.1059, 10736.12
264.5880, 10825.01
265.0701, 10904.57
265.5522, 10974.22
266.0344, 11043.59
266.5165, 11108.92
266.9986, 11177.32
267.4807, 11255.50
267.9628, 11341.26
268.4449, 11422.30
268.9271, 11483.74
269.4092, 11532.80
269.8913, 11643.73
270.3734, 11842.79
270.8555, 12058.46
271.3376, 12265.74
271.8198, 12473.42
272.3019, 12704.59
272.7840, 12970.44
273.2661, 13258.59
273.7482, 13531.88
274.2303, 13773.98
274.7125, 14021.69
275.1946, 14301.18
275.6767, 14576.18
276.1588, 14819.95
276.6409, 15020.98
277.1230, 15164.16
277.6052, 15227.92
278.0873, 15215.53
278.5694, 15098.45
279.0515, 14851.07
279.5336, 14532.42
280.0157, 14158.92
280.4979, 13746.99
280.9800, 13325.76
281.4621, 12922.47
281.9442, 12531.70
282.4263, 12185.60
282.9084, 11881.14
283.3906, 11622.47
283.8727, 11423.95
284.3548, 11273.91
284.8369, 11149.26
285.3190, 11036.27
285.8011, 10933.88
286.2833, 10836.65
286.7654, 10730.33
287.2475, 10649.16
287.7296, 10605.74
288.2117, 10588.51
288.6938, 10584.48
289.1760, 10588.27
289.6581, 10599.03
290.1402, 10617.20
290.6223, 10650.10
291.1044, 10672.43
291.5865, 10674.37
292.0687, 10668.22
292.5508, 10660.40
293.0329, 10652.82
293.5150, 10648.91
293.9971, 10652.63
294.4792, 10664.21
294.9614, 10680.37
295.4435, 10699.77
295.9256, 10725.18
296.4077, 10765.14
296.8898, 10815.40
297.3719, 10855.07
297.8541, 10867.04
298.3362, 10855.92
298.8183, 10839.92
299.3004, 10817.06
299.7825, 10794.00
300.2646, 10771.77
300.7468, 10752.19
301.2289, 10740.41
301.7110, 10749.17
302.1931, 10758.79
302.6752, 10736.99
303.1573, 10680.80
303.6395, 10627.54
304.1216, 10600.74
304.6037, 10586.30
305.0858, 10557.31
305.5679, 10502.51
306.0500, 10452.05
306.5322, 10429.31
307.0143, 10428.39
307.4964, 10429.26
307.9785, 10427.34
308.4606, 10421.44
308.9427, 10409.20
309.4249, 10390.99
309.9070, 10368.58
310.3891, 10336.28
310.8712, 10302.56
311.3533, 10285.09
311.8354, 10287.00
312.3176, 10281.59
312.7997, 10239.63
313.2818, 10155.23
313.7639, 10080.83
314.2460, 10028.57
314.7281, 9975.908
315.2103, 9903.959
315.6924, 9818.008
316.1745, 9737.779
316.6566, 9674.614
317.1387, 9628.312
317.6208, 9596.217
318.1030, 9594.486
318.5851, 9586.396
319.0672, 9561.674
319.5493, 9527.771
320.0314, 9491.017
320.5135, 9453.990
320.9957, 9423.709
321.4778, 9414.226
321.9599, 9439.136
322.4420, 9461.503
322.9241, 9483.513
323.4063, 9501.525
323.8884, 9511.620
324.3705, 9514.491
324.8526, 9514.983
325.3347, 9516.877
325.8168, 9519.864
326.2990, 9529.551
326.7811, 9570.375
327.2632, 9591.240
327.7453, 9561.539
328.2274, 9502.328
328.7095, 9451.945
329.1917, 9432.936
329.6738, 9434.379
330.1559, 9429.888
330.6380, 9420.324
331.1201, 9402.498
331.6022, 9372.397
332.0844, 9335.548
332.5665, 9293.511
333.0486, 9245.971
333.5307, 9202.661
334.0128, 9176.950
334.4949, 9167.531
334.9771, 9125.100
335.4592, 9143.031
335.9413, 9146.905
336.4234, 9137.479
336.9055, 9074.913
337.3876, 9080.966
337.8698, 9059.517
338.3519, 9036.942
338.8340, 9052.653
339.3161, 8997.816
339.7982, 9012.921
340.2803, 9000.104
340.7624, 9000.067
341.2445, 8972.360
341.7267, 8953.197
342.2088, 8961.715
342.6909, 8954.908
343.1730, 8924.016
343.6551, 8924.791
344.1372, 8868.987
344.6194, 8862.830
345.1015, 8878.096
345.5836, 8848.596
346.0657, 8808.343
346.5478, 8767.338
347.0299, 8727.804
347.5121, 8701.402
347.9942, 8689.513
348.4763, 8685.088
348.9584, 8683.009
349.4405, 8686.683
349.9226, 8669.002
350.4048, 8609.053
350.8869, 8552.621
351.3690, 8517.422
351.8511, 8499.171
352.3332, 8486.462
352.8153, 8472.818
353.2975, 8459.977
353.7796, 8455.044
354.2617, 8468.811
354.7438, 8471.060
355.2259, 8452.934
355.7080, 8426.159
356.1902, 8400.004
356.6723, 8376.542
357.1544, 8352.458
357.6365, 8321.201
358.1186, 8282.153
358.6007, 8253.076
359.0829, 8243.362
359.5650, 8234.083
360.0471, 8213.382
360.5292, 8184.049
361.0113, 8154.630
361.4934, 8125.966
361.9756, 8101.127
362.4577, 8089.427
362.9398, 8093.309
363.4219, 8090.540
363.9040, 8066.326
364.3861, 8029.781
364.8683, 7998.700
365.3504, 7975.244
365.8325, 7953.943
366.3146, 7926.958
366.7967, 7900.191
367.2788, 7890.839
367.7610, 7906.046
368.2431, 7926.973
368.7252, 7928.596
369.2073, 7906.015
369.6894, 7891.477
370.1715, 7896.754
370.6537, 7902.830
371.1358, 7896.589
371.6179, 7878.509
372.1000, 7853.467
372.5821, 7823.047
373.0642, 7789.991
373.5464, 7772.339
374.0285, 7782.960
374.5106, 7794.095
374.9927, 7804.293
375.4748, 7812.620
375.9569, 7819.198
376.4391, 7823.802
376.9212, 7824.508
377.4033, 7815.616
377.8854, 7790.696
378.3675, 7779.933
378.8496, 7802.101
379.3318, 7822.227
379.8139, 7824.581
380.2960, 7812.778
380.7781, 7799.153
381.2602, 7791.113
381.7423, 7786.613
382.2245, 7780.211
382.7066, 7771.359
383.1887, 7755.581
383.6708, 7758.455
384.1529, 7757.756
384.6350, 7753.758
385.1172, 7732.015
385.5993, 7736.678
386.0814, 7732.894
386.5635, 7730.225
387.0456, 7742.962
387.5277, 7731.643
388.0099, 7747.209
388.4920, 7754.176
388.9741, 7760.552
389.4562, 7776.653
389.9383, 7807.903
390.4204, 7836.757
390.9026, 7847.706
391.3847, 7843.987
391.8668, 7837.948
392.3489, 7834.673
392.8310, 7837.203
393.3131, 7856.132
393.7953, 7917.098
394.2774, 7961.255
394.7595, 7980.829
395.2416, 7985.630
395.7237, 7978.068
396.2058, 7962.148
396.6880, 7951.333
397.1701, 7961.985
397.6522, 7996.467
398.1343, 8023.989
398.6164, 8030.863
399.0985, 8046.154
399.5807, 8088.856
400.0628, 8143.056
400.5449, 8183.129
401.0270, 8196.399
401.5091, 8195.351
401.9912, 8200.985
402.4734, 8214.770
402.9555, 8221.466
403.4376, 8197.604
403.9197, 8184.101
404.4018, 8224.721
404.8839, 8318.005
405.3661, 8405.244
405.8482, 8455.439
406.3303, 8482.538
406.8124, 8509.297
407.2945, 8537.553
407.7766, 8559.678
408.2588, 8567.845
408.7409, 8565.728
409.2230, 8571.647
409.7051, 8596.450
410.1872, 8615.978
410.6693, 8638.820
411.1515, 8646.242
411.6336, 8597.518
412.1157, 8481.917
412.5978, 8347.311
413.0799, 8260.598
413.5620, 8236.688
414.0442, 8206.622
414.5263, 8173.237
415.0084, 8132.199
415.4905, 8075.034
415.9726, 8009.128
416.4547, 7947.573
416.9369, 7897.209
417.4190, 7858.171
417.9011, 7832.979
418.3832, 7828.581
418.8653, 7819.313
419.3474, 7789.079
419.8296, 7759.557
420.3117, 7751.688
420.7938, 7765.212
421.2759, 7771.833
421.7580, 7740.413
422.2401, 7687.247
422.7223, 7664.330
423.2044, 7681.726
423.6865, 7697.560
424.1686, 7678.715
424.6507, 7639.112
425.1328, 7618.963
425.6150, 7637.243
426.0971, 7652.676
426.5792, 7640.347
427.0613, 7610.885
427.5434, 7583.929
428.0255, 7564.952
428.5077, 7551.510
428.9898, 7539.366
429.4719, 7525.446
429.9540, 7527.665
430.4361, 7556.682
430.9182, 7589.364
431.4004, 7619.624
431.8825, 7644.379
432.3646, 7658.707
432.8467, 7659.104
433.3288, 7651.454
433.8109, 7651.320
434.2931, 7663.361
434.7752, 7671.032
435.2573, 7668.863
435.7394, 7664.213
436.2215, 7662.777
436.7036, 7663.981
437.1858, 7661.653
437.6679, 7647.370
438.1500, 7626.926
438.6321, 7618.035
439.1142, 7623.366
439.5963, 7626.391
440.0785, 7614.636
440.5606, 7596.630
441.0427, 7590.049
441.5248, 7598.698
442.0069, 7611.209
442.4890, 7625.296
442.9712, 7639.103
443.4533, 7647.948
443.9354, 7651.105
444.4175, 7655.710
444.8996, 7669.805
445.3817, 7694.271
445.8639, 7711.839
446.3460, 7718.224
446.8281, 7723.501
447.3102, 7723.912
447.7923, 7727.284
448.2744, 7747.654
448.7566, 7789.943
449.2387, 7838.563
449.7208, 7868.240
450.2029, 7874.362
450.6850, 7883.653
451.1671, 7894.619
451.6493, 7912.732
452.1314, 7942.784
452.6135, 7981.932
453.0956, 8023.057
453.5777, 8062.989
454.0598, 8103.153
454.5420, 8149.313
455.0241, 8200.738
455.5062, 8239.063
455.9883, 8252.432
456.4704, 8256.904
456.9525, 8275.935
457.4347, 8308.368
457.9168, 8353.104
458.3989, 8414.360
458.8810, 8484.449
459.3631, 8560.919
459.8452, 8640.748
460.3274, 8717.504
460.8095, 8787.024
461.2916, 8849.275
461.7737, 8901.896
462.2558, 8940.572
462.7379, 8975.072
463.2201, 9010.952
463.7022, 9039.640
464.1843, 9061.894
464.6664, 9073.029
465.1485, 9056.121
465.6306, 8988.047
466.1128, 8879.554
466.5949, 8785.217
467.0770, 8712.284
467.5591, 8636.144
468.0412, 8537.441
468.5233, 8433.779
469.0055, 8345.192
469.4876, 8275.994
469.9697, 8216.441
470.4518, 8162.271
470.9339, 8113.769
471.4160, 8071.023
471.8982, 8034.042
472.3803, 8003.630
472.8624, 7984.017
473.3445, 7973.619
473.8266, 7943.703
474.3087, 7864.841
474.7909, 7805.145
475.2730, 7798.950
475.7551, 7812.770
476.2372, 7802.118
476.7193, 7757.604
477.2014, 7708.776
477.6836, 7693.957
478.1657, 7716.230
478.6478, 7726.981
479.1299, 7717.561
479.6120, 7707.813
480.0941, 7705.229
480.5763, 7707.118
481.0584, 7709.200
481.5405, 7709.578
482.0226, 7712.193
482.5047, 7724.375
482.9868, 7742.731
483.4690, 7749.444
483.9511, 7736.386
484.4332, 7729.587
484.9153, 7759.257
485.3974, 7824.770
485.8795, 7870.533
486.3617, 7875.187
486.8438, 7882.294
487.3259, 7917.461
487.8080, 7966.875
488.2901, 8002.738
488.7722, 8016.405
489.2544, 8029.419
489.7365, 8075.759
490.2186, 8166.404
490.7007, 8240.368
491.1828, 8283.199
491.6649, 8323.403
492.1471, 8370.188
492.6292, 8420.977
493.1113, 8467.089
493.5934, 8501.400
494.0755, 8545.335
494.5576, 8635.507
495.0398, 8765.447
495.5219, 8873.621
496.0040, 8940.399
496.4861, 8999.108
496.9682, 9079.363
497.4503, 9179.920
497.9325, 9287.733
498.4146, 9412.161
498.8967, 9533.523
499.3788, 9635.707
499.8609, 9728.163
500.3430, 9827.737
500.8252, 9940.466
501.3073, 10062.38
501.7894, 10187.51
502.2715, 10313.22
502.7536, 10450.39
503.2357, 10606.21
503.7179, 10766.15
504.2000, 10927.22
504.6821, 11088.25
505.1642, 11249.17
505.6463, 11411.31
506.1284, 11566.92
506.6106, 11698.36
507.0927, 11809.62
507.5748, 11947.39
508.0569, 12126.60
508.5390, 12317.91
509.0211, 12488.50
509.5033, 12646.95
509.9854, 12837.70
510.4675, 13093.43
510.9496, 13353.41
511.4317, 13584.80
511.9138, 13800.59
512.3960, 14025.60
512.8781, 14266.32
513.3602, 14508.98
513.8423, 14730.91
514.3245, 14927.88
514.8066, 15141.96
515.2887, 15379.95
515.7708, 15628.92
516.2529, 15883.51
516.7350, 16147.41
517.2172, 16435.81
517.6993, 16753.76
518.1814, 17064.19
518.6635, 17321.20
519.1456, 17533.36
519.6277, 17743.97
520.1099, 17959.38
520.5920, 18166.51
521.0741, 18366.76
521.5562, 18549.84
522.0383, 18684.23
522.5204, 18775.17
523.0026, 18809.95
523.4847, 18775.10
523.9668, 18686.13
524.4489, 18563.66
524.9310, 18410.47
525.4131, 18213.48
525.8953, 17959.00
526.3774, 17648.24
526.8595, 17301.31
527.3416, 16908.38
527.8237, 16492.55
528.3058, 16043.24
528.7880, 15584.70
529.2701, 15134.58
529.7522, 14697.46
530.2343, 14278.31
530.7164, 13879.52
531.1985, 13500.46
531.6807, 13136.12
532.1628, 12787.08
532.6449, 12450.16
533.1270, 12121.67
533.6091, 11805.42
534.0912, 11521.20
534.5734, 11267.25
535.0555, 11043.50
535.5376, 10873.80
536.0197, 10714.50
536.5018, 10526.53
536.9839, 10316.88
537.4661, 10121.84
537.9482, 9964.415
538.4303, 9834.886
538.9124, 9706.216
539.3945, 9574.749
539.8766, 9457.322
540.3588, 9352.669
540.8409, 9268.387
541.3230, 9220.627
541.8051, 9201.379
542.2872, 9165.338
542.7693, 9079.331
543.2515, 8983.343
543.7336, 8913.577
544.2157, 8864.954
544.6978, 8821.699
545.1799, 8779.082
545.6620, 8732.360
546.1442, 8671.874
546.6263, 8566.312
547.1084, 8587.750
547.5905, 8595.132
548.0726, 8589.213
548.5547, 8530.152
549.0369, 8539.709
549.5190, 8521.771
550.0011, 8502.702
550.4832, 8521.920
550.9653, 8470.590
551.4474, 8489.199
551.9296, 8479.888
552.4117, 8483.357
552.8938, 8459.156
553.3759, 8443.502
553.8580, 8455.526
554.3401, 8452.225
554.8223, 8424.835
555.3044, 8429.117
555.7865, 8376.819
556.2686, 8374.170
556.7507, 8392.942
557.2328, 8347.726
557.7150, 8330.595
558.1971, 8321.545
558.6792, 8319.557
559.1613, 8320.317
559.6434, 8324.310
560.1255, 8330.230
560.6077, 8346.817
561.0898, 8358.333
561.5719, 8350.583
562.0540, 8326.469
562.5361, 8304.542
563.0182, 8291.975
563.5004, 8287.052
563.9825, 8288.721
564.4646, 8296.552
564.9467, 8309.906
565.4288, 8329.020
565.9109, 8350.593
566.3931, 8370.714
566.8752, 8389.919
567.3573, 8404.106
567.8394, 8402.715
568.3215, 8408.648
568.8036, 8428.384
569.2858, 8460.375
569.7679, 8506.508
570.2500, 8566.249
570.7321, 8624.729
571.2142, 8660.486
571.6964, 8679.606
572.1785, 8715.399
572.6606, 8771.614
573.1427, 8835.958
573.6248, 8904.354
574.1069, 8975.505
574.5891, 9047.999
575.0712, 9126.227
575.5533, 9195.356
576.0354, 9247.760
576.5175, 9292.951
576.9996, 9334.205
577.4818, 9375.232
577.9639, 9424.296
578.4460, 9486.620
578.9281, 9558.383
579.4102, 9629.871
579.8923, 9699.492
580.3745, 9779.107
580.8566, 9888.309
581.3387, 9985.759
581.8208, 10034.78
582.3029, 10052.26
582.7850, 10085.25
583.2672, 10156.23
583.7493, 10231.63
584.2314, 10300.11
584.7135, 10353.88
585.1956, 10374.82
585.6777, 10359.98
586.1598, 10320.90
586.6419, 10264.67
587.1240, 10193.73
587.6061, 10136.69
588.0883, 10106.96
588.5704, 10070.73
589.0525, 10026.31
589.5346, 9971.854
590.0167, 9898.967
590.4988, 9811.464
590.9810, 9731.582
591.4631, 9681.279
591.9452, 9640.722
592.4273, 9579.903
592.9094, 9500.981
593.3915, 9422.147
593.8737, 9351.964
594.3558, 9275.150
594.8379, 9168.942
595.3200, 9023.768
595.8021, 8900.936
596.2842, 8806.451
596.7664, 8723.803
597.2485, 8652.291
597.7306, 8586.783
598.2127, 8523.846
598.6948, 8461.860
599.1769, 8396.516
599.6591, 8319.764
600.1412, 8236.086
600.6233, 8160.985
601.1054, 8095.437
601.5875, 8034.122
602.0696, 7974.385
602.5518, 7918.012
603.0339, 7869.840
603.5160, 7834.592
603.9981, 7788.754
604.4802, 7726.174
604.9623, 7656.391
605.4445, 7572.109
605.9266, 7487.460
606.4087, 7431.561
606.8908, 7416.401
607.3729, 7412.315
607.8550, 7375.917
608.3372, 7308.079
608.8193, 7247.281
609.3014, 7195.177
609.7835, 7150.604
610.2656, 7112.405
610.7477, 7082.024
611.2299, 7063.761
611.7120, 7065.115
612.1941, 7057.855
612.6762, 7033.795
613.1583, 6997.628
613.6404, 6942.661
614.1226, 6878.693
614.6047, 6834.229
615.0868, 6825.605
615.5689, 6834.952
616.0510, 6824.880
616.5331, 6790.626
617.0153, 6770.609
617.4974, 6779.436
617.9795, 6785.011
618.4616, 6764.343
618.9437, 6727.869
619.4258, 6694.142
619.9080, 6664.740
620.3901, 6640.775
620.8722, 6631.583
621.3543, 6623.243
621.8364, 6592.260
622.3185, 6542.585
622.8007, 6502.012
623.2828, 6488.014
623.7649, 6494.970
624.2470, 6511.722
624.7291, 6546.498
625.2112, 6561.523
625.6934, 6538.862
626.1755, 6512.005
626.6576, 6503.242
627.1397, 6504.583
627.6218, 6495.704
628.1039, 6463.417
628.5861, 6437.375
629.0682, 6444.125
629.5503, 6464.110
630.0324, 6463.932
630.5145, 6442.988
630.9966, 6430.711
631.4788, 6450.574
631.9609, 6487.936
632.4430, 6490.159
632.9251, 6436.766
633.4072, 6403.357
633.8893, 6416.261
634.3715, 6433.212
634.8536, 6430.219
635.3357, 6412.975
635.8178, 6396.475
636.2999, 6380.363
636.7820, 6374.523
637.2642, 6389.813
637.7463, 6418.118
638.2284, 6454.520
638.7105, 6494.252
639.1926, 6513.486
639.6747, 6492.496
640.1569, 6441.954
640.6390, 6400.837
641.1211, 6371.733
641.6032, 6344.497
642.0853, 6304.128
642.5674, 6279.458
643.0496, 6301.679
643.5317, 6351.694
644.0138, 6378.626
644.4959, 6358.733
644.9780, 6329.993
645.4601, 6321.512
645.9423, 6319.737
646.4244, 6298.712
646.9065, 6257.437
647.3886, 6219.650
647.8707, 6203.198
648.3528, 6199.758
648.8350, 6177.954
649.3171, 6122.333
649.7992, 6090.930
650.2813, 6111.003
650.7634, 6134.709
651.2455, 6133.563
651.7277, 6116.091
652.2098, 6105.647
652.6919, 6116.575
653.1740, 6117.646
653.6561, 6070.601
654.1382, 6011.220
654.6204, 5998.004
655.1025, 6031.079
655.5846, 6067.268
656.0667, 6079.353
656.5488, 6072.380
657.0309, 6058.979
657.5131, 6037.563
657.9952, 6015.111
658.4773, 5988.243
658.9594, 5965.160
659.4415, 5954.803
659.9236, 5950.438
660.4058, 5936.973
660.8879, 5906.833
661.3700, 5879.732
661.8521, 5867.735
662.3342, 5862.293
662.8163, 5854.020
663.2985, 5842.658
663.7806, 5832.383
664.2627, 5825.714
664.7448, 5820.280
665.2269, 5813.170
665.7090, 5805.781
666.1912, 5784.051
666.6733, 5734.481
667.1554, 5692.388
667.6375, 5684.772
668.1196, 5695.554
668.6017, 5698.470
669.0839, 5691.153
669.5660, 5677.732
670.0481, 5656.817
670.5302, 5632.657
671.0123, 5606.605
671.4944, 5580.550
671.9766, 5558.152
672.4587, 5541.177
672.9408, 5526.113
673.4229, 5505.839
673.9050, 5480.855
674.3871, 5470.272
674.8693, 5482.888
675.3514, 5480.526
675.8335, 5428.765
676.3156, 5362.645
676.7977, 5355.123
677.2798, 5423.568
677.7620, 5461.207
678.2441, 5426.941
678.7262, 5385.898
679.2083, 5377.294
679.6904, 5385.485
680.1725, 5381.704
680.6547, 5357.803
681.1368, 5328.353
681.6189, 5306.489
682.1010, 5291.124
682.5831, 5277.258
683.0652, 5264.583
683.5474, 5259.561
684.0295, 5265.952
684.5116, 5278.320
684.9937, 5292.917
685.4758, 5313.063
685.9579, 5308.028
686.4401, 5246.751
686.9222, 5200.375
687.4043, 5200.112
687.8864, 5216.771
688.3685, 5219.456
688.8506, 5205.449
689.3328, 5193.119
689.8149, 5198.021
690.2970, 5207.999
690.7791, 5206.400
691.2612, 5194.687
691.7433, 5175.485
692.2255, 5148.850
692.7076, 5127.761
693.1897, 5125.836
693.6718, 5140.630
694.1539, 5147.785
694.6360, 5139.760
695.1182, 5137.360
695.6003, 5146.035
696.0824, 5158.183
696.5645, 5173.883
697.0466, 5189.258
697.5287, 5193.789
698.0109, 5182.356
698.4930, 5162.362
698.9751, 5127.244
699.4572, 5092.167
699.9393, 5087.800
700.4214, 5111.185
700.9036, 5126.663
701.3857, 5111.139
701.8678, 5077.138
702.3499, 5051.485
702.8320, 5034.243
703.3141, 5025.409
703.7963, 5027.453
704.2784, 5033.612
704.7605, 5045.630
705.2426, 5057.328
705.7247, 5055.802
706.2068, 5035.855
706.6890, 5018.591
707.1711, 5010.270
707.6532, 5005.371
708.1353, 4996.081
708.6174, 4988.232
709.0995, 4996.363
709.5817, 5024.638
710.0638, 5055.361
710.5459, 5068.676
711.0280, 5068.244
711.5101, 5070.850
711.9922, 5077.250
712.4744, 5067.762
712.9565, 5028.917
713.4386, 4986.006
713.9207, 4974.255
714.4028, 4998.802
714.8849, 5009.006
715.3671, 4990.933
715.8492, 4977.136
716.3313, 4980.378
716.8134, 4986.386
717.2955, 4975.768
717.7776, 4952.285
718.2598, 4944.555
718.7419, 4979.610
719.2240, 5020.742
719.7061, 5027.721
720.1882, 5013.199
720.6703, 5006.045
721.1525, 5010.906
721.6346, 5013.938
722.1167, 5002.997
722.5988, 4986.082
723.0809, 4994.315
723.5630, 5040.473
724.0452, 5060.369
724.5273, 5031.126
725.0094, 4997.867
725.4915, 4992.387
725.9736, 5001.087
726.4557, 4996.698
726.9379, 4969.624
727.4200, 4950.804
727.9021, 4961.031
728.3842, 4971.947
728.8663, 4956.634
729.3484, 4926.513
729.8306, 4907.785
730.3127, 4909.706
730.7948, 4920.305
731.2769, 4928.593
731.7590, 4934.917
732.2411, 4941.411
732.7233, 4948.085
733.2054, 4948.036
733.6875, 4936.718
734.1696, 4924.384
734.6517, 4925.450
735.1339, 4941.237
735.6160, 4945.769
736.0981, 4924.478
736.5802, 4911.358
737.0623, 4914.346
737.5444, 4925.120
738.0266, 4943.131
738.5087, 4963.937
738.9908, 4971.833
739.4729, 4951.495
739.9550, 4930.856
740.4371, 4929.920
740.9193, 4941.427
741.4014, 4961.854
741.8835, 4985.620
742.3656, 4992.996
742.8477, 4970.905
743.3298, 4933.418
743.8120, 4904.416
744.2941, 4883.838
744.7762, 4880.411
745.2583, 4901.557
745.7404, 4916.782
746.2225, 4903.450
746.7047, 4879.786
747.1868, 4884.264
747.6689, 4929.205
748.1510, 4956.431
748.6331, 4956.246
749.1152, 4947.099
749.5974, 4931.271
750.0795, 4913.438
750.5616, 4893.430
751.0437, 4873.900
751.5258, 4870.994
752.0079, 4911.359
752.4901, 4959.788
752.9722, 4971.119
753.4543, 4956.185
753.9364, 4942.939
754.4185, 4937.509
754.9006, 4932.480
755.3828, 4922.315
755.8649, 4907.091
756.3470, 4883.013
756.8291, 4843.042
757.3112, 4828.494
757.7933, 4855.521
758.2755, 4888.681
758.7576, 4907.656
759.2397, 4916.333
759.7218, 4924.629
760.2039, 4933.094
760.6860, 4939.668
761.1682, 4944.588
761.6503, 4946.967
762.1324, 4944.820
762.6145, 4940.406
763.0966, 4937.359
763.5787, 4936.495
764.0609, 4935.308
764.5430, 4930.184
765.0251, 4924.558
765.5072, 4924.529
765.9893, 4928.969
766.4714, 4933.796
766.9536, 4937.932
767.4357, 4940.885
767.9178, 4942.021
768.3999, 4941.841
768.8820, 4942.979
769.3641, 4946.381
769.8463, 4947.827
770.3284, 4945.713
770.8105, 4943.071
771.2926, 4943.247
771.7747, 4944.176
772.2568, 4939.324
772.7390, 4895.333
773.2211, 4928.378
773.7032, 4947.551
774.1853, 4953.607
774.6674, 4906.708
775.1495, 4928.613
775.6317, 4923.203
776.1138, 4916.850
776.5959, 4948.966
777.0780, 4910.720
777.5601, 4942.599
778.0422, 4946.742
778.5244, 4963.850
779.0065, 4953.472
779.4886, 4951.825
779.9707, 4978.041
780.4528, 4989.115
780.9349, 4976.290
781.4171, 4995.318
781.8992, 4957.951
782.3813, 4970.417
782.8634, 5004.489
783.3455, 4993.979
783.8276, 5014.434
784.3098, 5023.353
784.7919, 4979.177
785.2740, 5027.841
785.7561, 5036.620
786.2382, 5004.439
786.7203, 5050.482
787.2025, 5024.345
787.6846, 5024.221
788.1667, 5043.721
788.6488, 5043.141
789.1309, 5074.695
789.6130, 5075.654
790.0952, 5074.050
790.5773, 5084.629
791.0594, 5061.387
791.5415, 5101.419
792.0236, 5098.541
792.5057, 5117.268
792.9879, 5141.038
793.4700, 5127.810
793.9521, 5154.129
794.4342, 5119.594
794.9163, 5136.316
795.3984, 5147.723
795.8806, 5191.963
796.3627, 5189.995
796.8448, 5192.266
797.3269, 5205.880
797.8090, 5239.900
798.2911, 5255.742
798.7733, 5234.572
799.2554, 5219.084
799.7375, 5228.814
800.2196, 5246.359
800.7017, 5250.550
801.1838, 5241.548
801.6660, 5240.266
802.1481, 5265.417
802.6302, 5289.299
803.1123, 5290.367
803.5944, 5281.741
804.0765, 5278.814
804.5587, 5283.750
805.0408, 5293.493
805.5229, 5306.283
806.0050, 5323.580
806.4871, 5351.815
806.9692, 5386.585
807.4514, 5407.804
807.9335, 5414.508
808.4156, 5421.426
808.8977, 5435.335
809.3798, 5449.088
809.8619, 5451.903
810.3441, 5443.494
810.8262, 5441.060
811.3083, 5445.793
811.7904, 5454.270
812.2725, 5469.961
812.7546, 5484.885
813.2368, 5487.254
813.7189, 5482.803
814.2010, 5494.111
814.6831, 5538.281
815.1652, 5571.662
815.6473, 5578.488
816.1295, 5577.766
816.6116, 5572.377
817.0937, 5572.092
817.5758, 5598.111
818.0579, 5655.854
818.5400, 5704.743
819.0222, 5708.168
819.5043, 5692.937
819.9864, 5682.194
820.4685, 5680.496
820.9506, 5703.544
821.4327, 5750.880
821.9149, 5792.100
822.3970, 5801.103
822.8791, 5791.231
823.3612, 5795.851
823.8433, 5814.432
824.3254, 5826.006
824.8076, 5826.580
825.2897, 5831.055
825.7718, 5848.870
826.2539, 5873.903
826.7360, 5894.563
827.2181, 5910.284
827.7003, 5924.577
828.1824, 5943.928
828.6645, 5951.933
829.1466, 5930.691
829.6287, 5906.498
830.1108, 5898.725
830.5930, 5907.982
831.0751, 5932.389
831.5572, 5988.195
832.0393, 6036.205
832.5214, 6062.068
833.0035, 6077.243
833.4857, 6089.816
833.9678, 6099.728
834.4499, 6101.526
834.9320, 6092.626
835.4141, 6090.670
835.8962, 6120.468
836.3784, 6158.103
836.8605, 6167.191
837.3426, 6156.864
837.8247, 6155.570
838.3068, 6170.101
838.7889, 6186.712
839.2711, 6193.853
839.7532, 6194.404
840.2353, 6190.265
840.7174, 6182.519
841.1995, 6202.652
841.6816, 6258.987
842.1638, 6309.694
842.6459, 6330.305
843.1280, 6331.088
843.6101, 6330.086
844.0922, 6324.112
844.5743, 6335.911
845.0565, 6388.060
845.5386, 6417.866
846.0207, 6384.513
846.5028, 6340.308
846.9849, 6328.602
847.4670, 6348.314
847.9492, 6393.193
848.4313, 6506.974
848.9134, 6583.168
849.3955, 6578.700
849.8776, 6551.674
850.3597, 6536.007
850.8419, 6529.934
851.3240, 6520.701
851.8061, 6504.449
852.2882, 6501.429
852.7703, 6539.308
853.2524, 6581.703
853.7346, 6592.568
854.2167, 6583.735
854.6988, 6574.475
855.1809, 6570.103
855.6630, 6572.765
856.1451, 6586.546
856.6273, 6599.641
857.1094, 6581.698
857.5915, 6547.180
858.0736, 6558.882
858.5557, 6617.804
859.0378, 6661.161
859.5200, 6659.491
860.0021, 6637.771
860.4842, 6632.338
860.9663, 6640.927
861.4484, 6621.260
861.9305, 6562.430
862.4127, 6528.807
862.8948, 6539.438
863.3769, 6569.175
863.8590, 6605.868
864.3411, 6643.227
864.8232, 6656.516
865.3054, 6633.641
865.7875, 6610.982
866.2696, 6580.826
866.7517, 6560.068
867.2338, 6557.515
867.7159, 6566.024
868.1981, 6582.248
868.6802, 6605.135
869.1623, 6614.350
869.6444, 6585.335
870.1265, 6567.983
870.6086, 6592.461
871.0908, 6626.243
871.5729, 6644.458
872.0550, 6646.524
872.5371, 6636.955
873.0192, 6615.574
873.5013, 6596.639
873.9835, 6589.777
874.4656, 6590.405
874.9477, 6600.188
875.4298, 6611.510
875.9119, 6605.146
876.3940, 6580.333
876.8762, 6561.321
877.3583, 6566.852
877.8404, 6586.437
878.3225, 6611.146
878.8046, 6634.946
879.2867, 6632.438
879.7689, 6603.938
880.2510, 6579.409
880.7331, 6573.251
881.2152, 6573.423
881.6973, 6559.904
882.1794, 6536.444
882.6616, 6543.402
883.1437, 6585.083
883.6258, 6619.413
884.1079, 6638.850
884.5900, 6641.331
885.0721, 6618.492
885.5543, 6583.638
886.0364, 6582.173
886.5185, 6634.504
887.0006, 6660.444
887.4827, 6639.372
887.9648, 6626.126
888.4470, 6645.983
888.9291, 6679.606
889.4112, 6705.591
889.8933, 6724.255
890.3754, 6742.442
890.8575, 6754.894
891.3397, 6774.890
891.8218, 6818.003
892.3039, 6856.039
892.7860, 6861.111
893.2681, 6851.767
893.7502, 6866.209
894.2324, 6914.368
894.7145, 6953.951
895.1966, 6959.773
895.6787, 6963.754
896.1608, 6987.192
896.6429, 7017.784
897.1251, 7040.496
897.6072, 7054.809
898.0893, 7065.551
898.5714, 7070.243
899.0535, 7089.381
899.5356, 7151.935
900.0178, 7229.853
900.4999, 7297.385
900.9820, 7348.048
901.4641, 7364.828
901.9462, 7348.010
902.4283, 7337.140
902.9105, 7369.542
903.3926, 7419.668
903.8747, 7441.291
904.3568, 7443.760
904.8389, 7454.522
905.3210, 7477.363
905.8032, 7514.350
906.2853, 7567.325
906.7674, 7619.975
907.2495, 7645.789
907.7316, 7651.086
908.2137, 7678.258
908.6959, 7727.689
909.1780, 7758.270
909.6601, 7758.159
910.1422, 7759.392
910.6243, 7787.906
911.1064, 7830.359
911.5886, 7851.446
912.0707, 7848.026
912.5528, 7839.297
913.0349, 7821.009
913.5170, 7812.862
913.9991, 7832.591
914.4813, 7846.297
914.9634, 7815.310
915.4455, 7743.989
915.9276, 7675.294
916.4097, 7597.022
916.8918, 7546.329
917.3740, 7545.964
917.8561, 7547.534
918.3382, 7538.485
918.8203, 7512.580
919.3024, 7453.549
919.7845, 7357.796
920.2667, 7279.885
920.7488, 7236.892
921.2309, 7193.814
921.7130, 7152.481
922.1951, 7099.925
922.6772, 7011.202
923.1594, 6908.108
923.6415, 6844.224
924.1236, 6839.739
924.6057, 6814.195
925.0878, 6718.289
925.5699, 6623.542
926.0521, 6571.630
926.5342, 6538.535
927.0163, 6499.602
927.4984, 6452.047
927.9805, 6399.573
928.4626, 6340.378
928.9448, 6286.740
929.4269, 6248.231
929.9090, 6216.152
930.3911, 6190.547
930.8732, 6162.017
931.3553, 6114.840
931.8375, 6047.004
932.3196, 5968.929
932.8017, 5876.069
933.2838, 5796.167
933.7659, 5769.648
934.2480, 5766.939
934.7302, 5744.926
935.2123, 5705.375
935.6944, 5668.938
936.1765, 5641.989
936.6586, 5609.661
937.1407, 5550.230
937.6229, 5485.884
938.1050, 5467.524
938.5871, 5472.957
939.0692, 5430.540
939.5513, 5342.145
940.0334, 5280.403
940.5156, 5282.035
940.9977, 5305.759
941.4798, 5304.240
941.9619, 5279.306
942.4440, 5227.752
942.9261, 5155.477
943.4083, 5104.306
943.8904, 5082.428
944.3725, 5066.561
944.8546, 5041.396
945.3367, 5012.058
945.8188, 4988.245
946.3010, 4969.505
946.7831, 4950.920
947.2652, 4932.469
947.7473, 4915.483
948.2294, 4900.903
948.7115, 4883.570
949.1937, 4858.519
949.6758, 4828.225
950.1579, 4797.649
950.6400, 4765.473
951.1221, 4752.559
951.6042, 4766.349
952.0864, 4763.608
952.5685, 4723.410
953.0506, 4674.827
953.5327, 4648.546
954.0148, 4641.542
954.4969, 4636.661
954.9791, 4635.613
955.4612, 4629.974
955.9433, 4618.760
956.4254, 4603.372
956.9075, 4582.682
957.3896, 4560.623
957.8718, 4541.846
958.3539, 4526.422
958.8360, 4518.087
959.3181, 4523.339
959.8002, 4520.082
960.2823, 4498.612
960.7645, 4480.619
961.2466, 4485.259
961.7287, 4494.775
962.2108, 4475.687
962.6929, 4422.879
963.1750, 4388.470
963.6572, 4378.807
964.1393, 4377.670
964.6214, 4397.612
965.1035, 4409.255
965.5856, 4386.059
966.0677, 4344.159
966.5499, 4319.865
967.0320, 4320.744
967.5141, 4305.498
967.9962, 4248.296
968.4783, 4208.824
968.9604, 4211.848
969.4426, 4225.803
969.9247, 4234.738
970.4068, 4235.706
970.8889, 4220.660
971.3710, 4182.130
971.8531, 4152.005
972.3353, 4121.464
972.8174, 4115.656
973.2995, 4175.134
973.7816, 4235.999
974.2637, 4235.390
974.7458, 4188.530
975.2280, 4153.109
975.7101, 4137.450
976.1922, 4133.538
976.6743, 4148.982
977.1564, 4164.816
977.6385, 4170.973
978.1207, 4174.955
978.6028, 4183.873
979.0849, 4197.915
979.5670, 4216.095
980.0491, 4245.021
980.5313, 4261.431
981.0134, 4257.387
981.4955, 4241.058
981.9776, 4201.848
982.4597, 4162.797
982.9418, 4154.063
983.4240, 4172.528
983.9061, 4187.977
984.3882, 4188.387
984.8703, 4193.198
985.3524, 4216.404
985.8345, 4238.040
986.3167, 4246.795
986.7988, 4245.643
987.2809, 4236.816
987.7630, 4222.141
988.2451, 4207.702
988.7272, 4189.111
989.2094, 4183.123
989.6915, 4203.708
990.1736, 4231.710
990.6557, 4261.623
991.1378, 4285.856
991.6199, 4290.851
992.1021, 4278.289
992.5842, 4272.138
993.0663, 4288.437
993.5484, 4300.165
994.0305, 4284.668
994.5126, 4270.575
994.9948, 4284.942
995.4769, 4312.830
995.9590, 4330.284
996.4411, 4333.933
996.9232, 4334.438
997.4053, 4330.530
997.8875, 4333.209
998.3696, 4352.935
998.8517, 4376.227
999.3338, 4392.119
999.8159, 4404.207
1000.298, 4418.817
1000.780, 4437.210
1001.262, 4458.921
1001.744, 4485.996
1002.227, 4512.814
1002.709, 4541.966
1003.191, 4564.674
1003.673, 4563.406
1004.155, 4555.237
1004.637, 4571.669
1005.119, 4615.661
1005.601, 4656.150
1006.083, 4680.408
1006.566, 4698.596
1007.048, 4703.352
1007.530, 4715.841
1008.012, 4761.348
1008.494, 4823.196
1008.976, 4874.674
1009.458, 4910.856
1009.940, 4939.501
1010.422, 4950.290
1010.905, 4973.794
1011.387, 5035.331
1011.869, 5104.067
1012.351, 5157.153
1012.833, 5199.920
1013.315, 5243.224
1013.797, 5288.808
1014.279, 5334.648
1014.762, 5369.761
1015.244, 5419.980
1015.726, 5520.798
1016.208, 5616.514
1016.690, 5644.855
1017.172, 5650.155
1017.654, 5710.006
1018.136, 5829.957
1018.618, 5937.428
1019.101, 5986.773
1019.583, 6053.114
1020.065, 6181.054
1020.547, 6316.723
1021.029, 6424.280
1021.511, 6514.727
1021.993, 6594.269
1022.475, 6669.896
1022.958, 6786.942
1023.440, 6990.763
1023.922, 7185.841
1024.404, 7334.847
1024.886, 7478.269
1025.368, 7628.834
1025.850, 7797.214
1026.332, 8003.092
1026.814, 8243.513
1027.297, 8481.718
1027.779, 8702.436
1028.261, 8936.766
1028.743, 9202.293
1029.225, 9470.840
1029.707, 9715.645
1030.189, 9963.437
1030.671, 10261.52
1031.154, 10600.20
1031.636, 10889.94
1032.118, 11086.97
1032.600, 11291.12
1033.082, 11521.02
1033.564, 11751.33
1034.046, 11988.23
1034.528, 12207.15
1035.010, 12395.16
1035.493, 12546.14
1035.975, 12635.59
1036.457, 12642.19
1036.939, 12624.76
1037.421, 12599.51
1037.903, 12532.70
1038.385, 12431.48
1038.867, 12268.56
1039.349, 11989.85
1039.832, 11624.78
1040.314, 11299.29
1040.796, 11037.17
1041.278, 10755.86
1041.760, 10449.11
1042.242, 10130.83
1042.724, 9797.653
1043.206, 9462.238
1043.689, 9128.226
1044.171, 8799.749
1044.653, 8496.346
1045.135, 8219.016
1045.617, 7959.403
1046.099, 7721.271
1046.581, 7489.184
1047.063, 7256.447
1047.546, 7036.249
1048.028, 6836.852
1048.510, 6660.354
1048.992, 6512.771
1049.474, 6397.163
1049.956, 6281.678
1050.438, 6165.775
1050.920, 6052.103
1051.402, 5939.961
1051.885, 5832.574
1052.367, 5731.080
1052.849, 5637.227
1053.331, 5554.524
1053.813, 5481.959
1054.295, 5407.571
1054.777, 5330.658
1055.259, 5255.590
1055.741, 5181.585
1056.224, 5126.144
1056.706, 5101.129
1057.188, 5082.529
1057.670, 5036.852
1058.152, 4971.354
1058.634, 4911.840
1059.116, 4859.830
1059.598, 4839.361
1060.081, 4850.507
1060.563, 4847.646
1061.045, 4811.949
1061.527, 4762.310
1062.009, 4714.055
1062.491, 4673.219
1062.973, 4658.811
1063.455, 4663.342
1063.938, 4662.174
1064.420, 4654.015
1064.902, 4643.494
1065.384, 4632.347
1065.866, 4621.249
1066.348, 4610.493
1066.830, 4600.767
1067.312, 4593.982
1067.794, 4588.338
1068.276, 4573.536
1068.759, 4558.582
1069.241, 4576.303
1069.723, 4624.344
1070.205, 4652.969
1070.687, 4630.675
1071.169, 4597.687
1071.651, 4588.377
1072.133, 4590.964
1072.616, 4603.192
1073.098, 4611.957
1073.580, 4585.967
1074.062, 4536.845
1074.544, 4516.501
1075.026, 4547.107
1075.508, 4581.564
1075.990, 4598.038
1076.473, 4602.283
1076.955, 4590.580
1077.437, 4574.906
1077.919, 4564.196
1078.401, 4560.689
1078.883, 4569.011
1079.365, 4590.749
1079.847, 4605.836
1080.329, 4604.447
1080.812, 4600.240
1081.294, 4590.266
1081.776, 4586.885
1082.258, 4603.340
1082.740, 4629.175
1083.222, 4648.672
1083.704, 4660.845
1084.186, 4670.883
1084.668, 4672.934
1085.151, 4682.676
1085.633, 4706.794
1086.115, 4731.267
1086.597, 4749.312
1087.079, 4767.000
1087.561, 4789.550
1088.043, 4817.193
1088.525, 4852.258
1089.007, 4900.786
1089.490, 4938.118
1089.972, 4961.766
1090.454, 4979.840
1090.936, 4990.780
1091.418, 5008.998
1091.900, 5050.716
1092.382, 5097.294
1092.864, 5100.976
1093.347, 5062.053
1093.829, 5057.113
1094.311, 5087.786
1094.793, 5122.099
1095.275, 5154.353
1095.757, 5187.980
1096.239, 5225.960
1096.721, 5254.719
1097.203, 5251.986
1097.686, 5229.947
1098.168, 5227.007
1098.650, 5238.299
1099.132, 5242.745
1099.614, 5240.165
1100.096, 5247.505
1100.578, 5268.682
1101.060, 5276.331
1101.542, 5243.591
1102.025, 5196.917
1102.507, 5165.343
1102.989, 5147.018
1103.471, 5149.643
1103.953, 5159.373
1104.435, 5141.955
1104.917, 5098.415
1105.399, 5067.185
1105.882, 5069.057
1106.364, 5074.666
1106.846, 5058.505
1107.328, 5044.779
1107.810, 5054.460
1108.292, 5074.722
1108.774, 5091.554
1109.256, 5104.980
1109.739, 5122.192
1110.221, 5146.208
1110.703, 5157.670
1111.185, 5133.864
1111.667, 5121.255
1112.149, 5144.007
1112.631, 5170.975
1113.113, 5178.628
1113.595, 5180.004
1114.078, 5201.303
1114.560, 5240.951
1115.042, 5256.208
1115.524, 5229.695
1116.006, 5216.362
1116.488, 5220.724
1116.970, 5232.568
1117.452, 5248.529
1117.934, 5271.805
1118.417, 5309.492
1118.899, 5351.463
1119.381, 5367.063
1119.863, 5354.442
1120.345, 5348.064
1120.827, 5348.737
1121.309, 5338.569
1121.791, 5313.815
1122.274, 5278.182
1122.756, 5232.273
1123.238, 5193.439
1123.720, 5192.100
1124.202, 5208.376
1124.684, 5187.762
1125.166, 5139.658
1125.648, 5091.007
1126.130, 5044.004
1126.613, 4991.500
1127.095, 4932.402
1127.577, 4879.715
1128.059, 4844.423
1128.541, 4814.320
1129.023, 4783.216
1129.505, 4745.756
1129.987, 4690.206
1130.469, 4627.261
1130.952, 4572.051
1131.434, 4526.065
1131.916, 4485.627
1132.398, 4451.213
1132.880, 4411.689
1133.362, 4352.761
1133.844, 4300.352
1134.326, 4271.080
1134.809, 4246.691
1135.291, 4208.241
1135.773, 4166.584
1136.255, 4147.886
1136.737, 4154.929
1137.219, 4137.716
1137.701, 4074.615
1138.183, 4033.517
1138.666, 4032.019
1139.148, 4023.204
1139.630, 3986.098
1140.112, 3943.038
1140.594, 3911.615
1141.076, 3894.339
1141.558, 3904.598
1142.040, 3943.360
1142.522, 3958.000
1143.005, 3948.532
1143.487, 3913.906
1143.969, 3855.036
1144.451, 3806.172
1144.933, 3785.471
1145.415, 3782.700
1145.897, 3792.034
1146.379, 3804.124
1146.861, 3798.386
1147.344, 3782.925
1147.826, 3777.204
1148.308, 3776.941
1148.790, 3764.001
1149.272, 3735.894
1149.754, 3707.941
1150.236, 3686.154
1150.718, 3673.205
1151.201, 3681.768
1151.683, 3687.807
1152.165, 3666.954
1152.647, 3639.189
1153.129, 3624.438
1153.611, 3622.992
1154.093, 3631.420
1154.575, 3651.192
1155.057, 3665.257
1155.540, 3681.957
1156.022, 3675.503
1156.504, 3622.771
1156.986, 3575.153
1157.468, 3551.331
1157.950, 3549.635
1158.432, 3573.936
1158.914, 3615.963
1159.396, 3637.487
1159.879, 3636.341
1160.361, 3633.942
1160.843, 3630.625
1161.325, 3628.149
1161.807, 3627.031
1162.289, 3618.552
1162.771, 3596.479
1163.253, 3575.702
1163.736, 3576.671
1164.218, 3592.339
1164.700, 3614.944
1165.182, 3636.664
1165.664, 3636.011
1166.146, 3618.668
1166.628, 3605.101
1167.110, 3600.842
1167.593, 3601.070
1168.075, 3604.738
1168.557, 3607.689
1169.039, 3603.235
1169.521, 3601.701
1170.003, 3618.124
1170.485, 3634.834
1170.967, 3630.013
1171.449, 3610.223
1171.932, 3596.690
1172.414, 3593.511
1172.896, 3581.103
1173.378, 3545.430
1173.860, 3523.907
1174.342, 3522.694
1174.824, 3531.633
1175.306, 3551.539
1175.788, 3569.273
1176.271, 3569.260
1176.753, 3560.423
1177.235, 3572.924
1177.717, 3605.643
1178.199, 3618.815
1178.681, 3613.136
1179.163, 3598.960
1179.645, 3580.042
1180.128, 3571.854
1180.610, 3581.655
1181.092, 3596.062
1181.574, 3602.092
1182.056, 3605.120
1182.538, 3618.440
1183.020, 3628.159
1183.502, 3599.916
1183.984, 3560.876
1184.467, 3573.894
1184.949, 3632.005
1185.431, 3656.594
1185.913, 3613.103
1186.395, 3577.154
1186.877, 3576.067
1187.359, 3582.948
1187.841, 3595.267
1188.323, 3605.058
1188.806, 3609.158
1189.288, 3606.109
1189.770, 3590.237
1190.252, 3564.409
1190.734, 3555.453
1191.216, 3566.195
1191.698, 3579.394
1192.180, 3595.227
1192.663, 3605.664
1193.145, 3608.530
1193.627, 3603.624
1194.109, 3589.661
1194.591, 3579.305
1195.073, 3594.210
1195.555, 3621.390
1196.037, 3635.498
1196.520, 3640.506
1197.002, 3646.495
1197.484, 3650.366
1197.966, 3637.903
1198.448, 3609.670
1198.930, 3588.359
1199.412, 3584.380
1199.894, 3588.394
1200.376, 3608.105
1200.859, 3619.155
1201.341, 3592.676
1201.823, 3567.871
1202.305, 3589.881
1202.787, 3631.891
1203.269, 3640.606
1203.751, 3616.723
1204.233, 3584.897
1204.715, 3534.064
1205.198, 3522.023
1205.680, 3561.016
1206.162, 3588.975
1206.644, 3586.709
1207.126, 3580.111
1207.608, 3587.695
1208.090, 3599.220
1208.572, 3598.428
1209.055, 3590.093
1209.537, 3583.538
1210.019, 3579.682
1210.501, 3584.782
1210.983, 3593.743
1211.465, 3588.591
1211.947, 3568.625
1212.429, 3558.028
1212.911, 3567.718
1213.394, 3589.305
1213.876, 3649.296
1214.358, 3681.048
1214.840, 3617.341
1215.322, 3543.485
1215.804, 3532.343
1216.286, 3559.462
1216.768, 3583.939
1217.250, 3604.973
1217.733, 3609.011
1218.215, 3594.818
1218.697, 3563.920
1219.179, 3510.882
1219.661, 3488.368
1220.143, 3511.429
1220.625, 3544.805
1221.107, 3566.893
1221.590, 3579.641
1222.072, 3584.527
1222.554, 3582.777
1223.036, 3572.441
1223.518, 3559.662
1224.000, 3554.674
1224.482, 3556.479
1224.964, 3561.399
1225.447, 3568.352
1225.929, 3577.576
1226.411, 3591.167
1226.893, 3598.894
1227.375, 3594.735
1227.857, 3587.868
1228.339, 3577.055
1228.821, 3569.364
1229.303, 3567.250
1229.786, 3572.473
1230.268, 3591.493
1230.750, 3617.654
1231.232, 3615.579
1231.714, 3584.048
1232.196, 3574.011
1232.678, 3584.941
1233.160, 3586.273
1233.642, 3572.631
1234.125, 3552.129
1234.607, 3528.819
1235.089, 3511.784
1235.571, 3507.771
1236.053, 3516.292
1236.535, 3548.449
1237.017, 3581.605
1237.499, 3589.667
1237.982, 3584.690
1238.464, 3583.509
1238.946, 3586.330
1239.428, 3586.244
1239.910, 3581.330
1240.392, 3579.907
1240.874, 3584.277
1241.356, 3589.264
1241.839, 3599.522
1242.321, 3594.501
1242.803, 3561.486
1243.285, 3531.626
1243.767, 3531.800
1244.249, 3548.219
1244.731, 3557.980
1245.213, 3561.196
1245.695, 3552.034
##END=



