##NAMES=Fluorapatite
##RRUFFID=R050340
##IDEAL CHEMISTRY=Ca_5_(PO_4_)_3_F
##LOCALITY=Buckingham, Quebec, Canada
##OWNER=RRUFF
##SOURCE=California Institute of Technology
##DESCRIPTION=Blue fragment
##STATUS=The identification of this mineral has been confirmed by X-ray diffraction and chemical analysis
##URL=rruff.info/R050340
##MEASURED CHEMISTRY=Ca_5.00_((P_0.98_Si_0.02_)O_4_)_3_F_1.00_
98.13892, 102.5673
98.62103, 106.4443
99.10315, 110.8203
99.58527, 115.6398
100.0674, 120.1028
100.5495, 123.8637
101.0316, 127.9464
101.5137, 133.5244
101.9958, 140.7918
102.4780, 148.9839
102.9601, 157.7191
103.4422, 166.8587
103.9243, 177.5748
104.4064, 190.7311
104.8885, 204.9711
105.3707, 218.1336
105.8528, 229.5630
106.3349, 240.6695
106.8170, 251.8179
107.2991, 262.7421
107.7813, 274.2242
108.2634, 286.4943
108.7455, 299.4150
109.2276, 312.0656
109.7097, 324.8593
110.1918, 337.1945
110.6740, 348.8403
111.1561, 356.6397
111.6382, 367.2882
112.1203, 382.2739
112.6024, 401.1069
113.0845, 419.9828
113.5667, 437.2638
114.0488, 454.8865
114.5309, 474.3651
115.0130, 496.6339
115.4951, 520.0424
115.9772, 544.1852
116.4594, 569.2634
116.9415, 595.3622
117.4236, 623.3994
117.9057, 652.2192
118.3878, 680.4620
118.8699, 706.9664
119.3521, 733.5747
119.8342, 762.7671
120.3163, 795.1202
120.7984, 825.1876
121.2805, 848.5695
121.7626, 867.4852
122.2448, 885.7298
122.7269, 905.8276
123.2090, 925.7526
123.6911, 943.5039
124.1732, 958.7526
124.6553, 972.3215
125.1375, 983.7622
125.6196, 993.8226
126.1017, 1004.870
126.5838, 1018.760
127.0659, 1034.523
127.5480, 1050.029
128.0302, 1064.302
128.5123, 1079.857
128.9944, 1100.365
129.4765, 1125.593
129.9586, 1153.337
130.4407, 1182.911
130.9229, 1213.939
131.4050, 1245.075
131.8871, 1275.235
132.3692, 1305.281
132.8513, 1337.349
133.3334, 1369.537
133.8156, 1394.484
134.2977, 1409.981
134.7798, 1421.099
135.2619, 1432.252
135.7440, 1444.068
136.2261, 1456.625
136.7083, 1472.921
137.1904, 1494.855
137.6725, 1515.012
138.1546, 1527.210
138.6367, 1531.989
139.1188, 1527.056
139.6010, 1509.427
140.0831, 1479.188
140.5652, 1453.112
141.0473, 1432.392
141.5294, 1413.604
142.0115, 1391.761
142.4937, 1363.530
142.9758, 1339.390
143.4579, 1322.531
143.9400, 1314.182
144.4221, 1307.119
144.9042, 1301.548
145.3864, 1297.019
145.8685, 1292.806
146.3506, 1287.838
146.8327, 1284.479
147.3148, 1283.593
147.7969, 1286.121
148.2791, 1288.969
148.7612, 1292.236
149.2433, 1295.806
149.7254, 1299.460
150.2075, 1302.526
150.6896, 1306.264
151.1718, 1311.067
151.6539, 1316.553
152.1360, 1323.648
152.6181, 1332.146
153.1002, 1342.212
153.5823, 1354.312
154.0645, 1371.135
154.5466, 1388.174
155.0287, 1403.315
155.5108, 1415.915
155.9929, 1427.396
156.4750, 1438.851
156.9572, 1449.641
157.4393, 1456.826
157.9214, 1458.177
158.4035, 1456.802
158.8856, 1454.660
159.3677, 1451.838
159.8499, 1448.638
160.3320, 1445.822
160.8141, 1443.093
161.2962, 1438.442
161.7783, 1427.559
162.2604, 1416.190
162.7426, 1409.073
163.2247, 1410.788
163.7068, 1414.238
164.1889, 1416.332
164.6710, 1417.148
165.1531, 1418.530
165.6353, 1422.119
166.1174, 1426.482
166.5995, 1430.071
167.0816, 1431.658
167.5637, 1432.774
168.0458, 1434.396
168.5280, 1436.517
169.0101, 1438.618
169.4922, 1440.729
169.9743, 1442.520
170.4564, 1443.515
170.9385, 1442.037
171.4207, 1440.560
171.9028, 1441.705
172.3849, 1445.673
172.8670, 1449.871
173.3491, 1451.442
173.8312, 1451.863
174.3134, 1453.978
174.7955, 1460.633
175.2776, 1468.970
175.7597, 1475.300
176.2418, 1479.281
176.7239, 1483.127
177.2061, 1490.209
177.6882, 1499.143
178.1703, 1506.025
178.6524, 1508.144
179.1345, 1507.300
179.6166, 1506.522
180.0988, 1506.087
180.5809, 1505.114
181.0630, 1502.714
181.5451, 1498.938
182.0272, 1494.096
182.5093, 1487.955
182.9915, 1480.820
183.4736, 1473.610
183.9557, 1466.386
184.4378, 1458.830
184.9199, 1449.564
185.4020, 1439.084
185.8842, 1429.722
186.3663, 1423.648
186.8484, 1419.939
187.3305, 1415.140
187.8126, 1408.449
188.2947, 1401.907
188.7769, 1399.323
189.2590, 1400.524
189.7411, 1401.876
190.2232, 1400.723
190.7053, 1397.629
191.1874, 1396.166
191.6696, 1396.671
192.1517, 1398.794
192.6338, 1401.963
193.1159, 1406.177
193.5980, 1411.410
194.0801, 1418.280
194.5623, 1426.578
195.0444, 1433.605
195.5265, 1438.700
196.0086, 1442.902
196.4907, 1448.613
196.9728, 1456.014
197.4550, 1463.322
197.9371, 1468.255
198.4192, 1470.704
198.9013, 1477.865
199.3834, 1491.780
199.8655, 1509.216
200.3477, 1521.782
200.8298, 1528.270
201.3119, 1535.250
201.7940, 1547.210
202.2761, 1564.606
202.7582, 1581.808
203.2404, 1598.051
203.7225, 1614.023
204.2046, 1632.004
204.6867, 1652.622
205.1688, 1673.231
205.6509, 1692.410
206.1331, 1710.463
206.6152, 1725.813
207.0973, 1738.037
207.5794, 1747.641
208.0615, 1756.408
208.5436, 1764.877
209.0258, 1771.115
209.5079, 1773.407
209.9900, 1770.976
210.4721, 1768.483
210.9542, 1767.078
211.4363, 1765.580
211.9185, 1759.878
212.4006, 1749.278
212.8827, 1735.823
213.3648, 1720.634
213.8469, 1703.012
214.3290, 1685.368
214.8112, 1666.894
215.2933, 1648.779
215.7754, 1635.249
216.2575, 1628.274
216.7396, 1622.102
217.2217, 1612.658
217.7038, 1597.483
218.1860, 1586.931
218.6681, 1583.447
219.1502, 1584.864
219.6323, 1583.074
220.1144, 1576.439
220.5965, 1569.469
221.0787, 1564.676
221.5608, 1562.358
222.0429, 1561.476
222.5250, 1562.071
223.0071, 1564.080
223.4892, 1567.391
223.9714, 1572.812
224.4535, 1578.346
224.9356, 1582.846
225.4177, 1585.523
225.8998, 1589.075
226.3819, 1593.852
226.8641, 1599.582
227.3462, 1605.300
227.8283, 1611.495
228.3104, 1616.907
228.7925, 1620.399
229.2746, 1619.919
229.7568, 1622.632
230.2389, 1631.276
230.7210, 1642.898
231.2031, 1647.489
231.6852, 1641.818
232.1673, 1633.899
232.6495, 1627.210
233.1316, 1620.896
233.6137, 1618.254
234.0958, 1622.822
234.5779, 1630.439
235.0600, 1628.815
235.5422, 1613.374
236.0243, 1595.287
236.5064, 1579.082
236.9885, 1564.379
237.4706, 1552.664
237.9527, 1545.791
238.4349, 1541.543
238.9170, 1534.179
239.3991, 1521.232
239.8812, 1508.855
240.3633, 1499.952
240.8454, 1496.674
241.3276, 1491.342
241.8097, 1482.375
242.2918, 1472.011
242.7739, 1465.482
243.2560, 1464.931
243.7381, 1464.901
244.2203, 1463.093
244.7024, 1458.141
245.1845, 1455.329
245.6666, 1455.247
246.1487, 1457.033
246.6308, 1459.095
247.1130, 1461.492
247.5951, 1464.080
248.0772, 1466.818
248.5593, 1469.781
249.0414, 1472.656
249.5235, 1475.452
250.0057, 1478.133
250.4878, 1480.721
250.9699, 1483.357
251.4520, 1485.595
251.9341, 1486.830
252.4162, 1486.361
252.8984, 1488.496
253.3805, 1494.273
253.8626, 1501.902
254.3447, 1508.427
254.8268, 1512.931
255.3089, 1518.487
255.7911, 1526.718
256.2732, 1538.422
256.7553, 1545.934
257.2374, 1546.696
257.7195, 1545.814
258.2017, 1549.838
258.6838, 1560.824
259.1659, 1572.054
259.6480, 1581.491
260.1301, 1588.876
260.6122, 1599.703
261.0944, 1615.932
261.5765, 1633.254
262.0586, 1646.553
262.5407, 1653.545
263.0228, 1663.003
263.5049, 1678.121
263.9871, 1698.622
264.4692, 1713.639
264.9513, 1722.207
265.4334, 1727.087
265.9155, 1730.383
266.3976, 1731.384
266.8798, 1733.134
267.3619, 1736.797
267.8440, 1741.882
268.3261, 1743.912
268.8082, 1742.037
269.2903, 1738.893
269.7725, 1736.389
270.2546, 1734.546
270.7367, 1733.349
271.2188, 1732.838
271.7009, 1732.961
272.1830, 1733.687
272.6652, 1735.240
273.1473, 1736.745
273.6294, 1736.811
274.1115, 1734.643
274.5936, 1736.558
275.0757, 1744.675
275.5579, 1756.219
276.0400, 1762.354
276.5221, 1761.817
277.0042, 1760.914
277.4863, 1762.899
277.9684, 1767.788
278.4506, 1776.027
278.9327, 1789.271
279.4148, 1803.839
279.8969, 1811.000
280.3790, 1809.791
280.8611, 1808.035
281.3433, 1809.375
281.8254, 1813.828
282.3075, 1821.021
282.7896, 1832.248
283.2717, 1843.441
283.7538, 1847.122
284.2360, 1843.027
284.7181, 1838.525
285.2002, 1836.850
285.6823, 1837.710
286.1644, 1838.656
286.6465, 1839.763
287.1287, 1840.614
287.6108, 1840.664
288.0929, 1839.919
288.5750, 1838.669
289.0571, 1836.908
289.5392, 1834.703
290.0214, 1832.169
290.5035, 1829.235
290.9856, 1826.633
291.4677, 1825.831
291.9498, 1826.399
292.4319, 1825.541
292.9141, 1821.393
293.3962, 1815.839
293.8783, 1813.552
294.3604, 1814.600
294.8425, 1816.550
295.3246, 1817.882
295.8068, 1818.543
296.2889, 1818.153
296.7710, 1816.134
297.2531, 1813.640
297.7352, 1812.325
298.2173, 1812.187
298.6995, 1813.214
299.1816, 1816.359
299.6637, 1820.580
300.1458, 1823.461
300.6279, 1824.202
301.1100, 1824.278
301.5922, 1825.906
302.0743, 1828.583
302.5564, 1830.342
303.0385, 1829.114
303.5206, 1826.514
304.0027, 1825.230
304.4849, 1826.047
304.9670, 1826.311
305.4491, 1822.743
305.9312, 1816.608
306.4133, 1810.935
306.8954, 1809.237
307.3776, 1807.712
307.8597, 1802.038
308.3418, 1791.638
308.8239, 1780.461
309.3060, 1770.720
309.7881, 1762.182
310.2703, 1754.772
310.7524, 1750.000
311.2345, 1745.118
311.7166, 1737.438
312.1987, 1727.065
312.6808, 1717.820
313.1630, 1713.604
313.6451, 1710.887
314.1272, 1705.811
314.6093, 1694.101
315.0914, 1682.607
315.5735, 1675.406
316.0557, 1671.721
316.5378, 1667.490
317.0199, 1659.658
317.5020, 1651.410
317.9841, 1645.100
318.4662, 1642.901
318.9484, 1640.438
319.4305, 1636.077
319.9126, 1630.360
320.3947, 1624.703
320.8768, 1618.651
321.3589, 1613.430
321.8411, 1609.836
322.3232, 1608.741
322.8053, 1607.455
323.2874, 1604.514
323.7695, 1601.240
324.2516, 1599.731
324.7338, 1603.428
325.2159, 1606.052
325.6980, 1605.176
326.1801, 1599.715
326.6622, 1595.127
327.1443, 1592.115
327.6265, 1589.979
328.1086, 1588.020
328.5907, 1586.696
329.0728, 1585.038
329.5549, 1582.201
330.0370, 1578.152
330.5192, 1576.629
331.0013, 1579.271
331.4834, 1583.043
331.9655, 1585.984
332.4476, 1588.295
332.9297, 1589.391
333.4119, 1588.900
333.8940, 1587.108
334.3761, 1585.107
334.8582, 1582.282
335.3403, 1580.244
335.8224, 1580.085
336.3046, 1582.763
336.7867, 1584.323
337.2688, 1584.286
337.7509, 1583.391
338.2330, 1583.415
338.7151, 1584.963
339.1973, 1585.509
339.6794, 1583.503
340.1615, 1578.779
340.6436, 1575.891
341.1257, 1575.103
341.6078, 1575.703
342.0899, 1577.398
342.5721, 1580.346
343.0542, 1582.175
343.5363, 1581.902
344.0184, 1579.998
344.5005, 1578.178
344.9826, 1576.392
345.4648, 1575.224
345.9469, 1575.486
346.4290, 1577.006
346.9111, 1578.492
347.3932, 1579.730
347.8753, 1580.704
348.3575, 1581.199
348.8396, 1581.234
349.3217, 1581.341
349.8038, 1582.162
350.2859, 1583.268
350.7680, 1583.459
351.2502, 1582.361
351.7323, 1581.157
352.2144, 1581.351
352.6965, 1582.595
353.1786, 1583.844
353.6607, 1584.387
354.1429, 1584.764
354.6250, 1585.710
355.1071, 1587.295
355.5892, 1589.028
356.0713, 1590.846
356.5534, 1592.539
357.0356, 1593.783
357.5177, 1594.574
357.9998, 1594.813
358.4819, 1594.021
358.9640, 1592.411
359.4461, 1591.175
359.9283, 1590.147
360.4104, 1590.168
360.8925, 1592.129
361.3746, 1597.342
361.8567, 1602.533
362.3388, 1607.521
362.8210, 1611.488
363.3031, 1612.727
363.7852, 1606.876
364.2673, 1601.218
364.7494, 1599.324
365.2315, 1602.372
365.7137, 1606.214
366.1958, 1610.912
366.6779, 1615.647
367.1600, 1619.501
367.6421, 1622.655
368.1242, 1624.631
368.6064, 1624.846
369.0885, 1623.192
369.5706, 1622.241
370.0527, 1622.256
370.5348, 1622.786
371.0169, 1623.568
371.4991, 1624.720
371.9812, 1625.915
372.4633, 1626.891
372.9454, 1627.927
373.4275, 1629.990
373.9096, 1633.455
374.3918, 1637.378
374.8739, 1641.680
375.3560, 1647.049
375.8381, 1649.472
376.3202, 1647.439
376.8023, 1644.371
377.2845, 1646.181
377.7666, 1653.866
378.2487, 1660.836
378.7308, 1664.617
379.2129, 1665.711
379.6950, 1666.950
380.1772, 1668.247
380.6593, 1670.130
381.1414, 1673.972
381.6235, 1679.370
382.1056, 1682.488
382.5877, 1681.471
383.0699, 1679.209
383.5520, 1681.690
384.0341, 1688.542
384.5162, 1695.677
384.9983, 1700.787
385.4804, 1704.327
385.9626, 1706.978
386.4447, 1708.588
386.9268, 1710.495
387.4089, 1714.360
387.8910, 1719.581
388.3731, 1724.728
388.8553, 1729.423
389.3374, 1733.585
389.8195, 1736.482
390.3016, 1738.208
390.7837, 1740.895
391.2658, 1747.385
391.7480, 1754.856
392.2301, 1760.415
392.7122, 1763.154
393.1943, 1764.047
393.6764, 1761.928
394.1585, 1758.095
394.6407, 1756.244
395.1228, 1759.936
395.6049, 1764.123
396.0870, 1765.844
396.5691, 1763.408
397.0512, 1762.966
397.5334, 1767.221
398.0155, 1773.621
398.4976, 1778.901
398.9797, 1781.868
399.4618, 1784.627
399.9439, 1787.136
400.4261, 1789.380
400.9082, 1793.020
401.3903, 1798.821
401.8724, 1805.233
402.3545, 1811.374
402.8366, 1817.340
403.3188, 1822.521
403.8009, 1826.161
404.2830, 1829.307
404.7651, 1834.555
405.2472, 1841.916
405.7293, 1851.261
406.2115, 1863.584
406.6936, 1878.955
407.1757, 1890.722
407.6578, 1897.963
408.1399, 1904.215
408.6220, 1913.647
409.1042, 1926.216
409.5863, 1939.483
410.0684, 1952.060
410.5505, 1965.497
411.0326, 1985.563
411.5147, 2012.138
411.9969, 2038.584
412.4790, 2059.235
412.9611, 2076.605
413.4432, 2096.277
413.9253, 2119.306
414.4074, 2144.341
414.8896, 2170.563
415.3717, 2197.769
415.8538, 2225.331
416.3359, 2252.121
416.8180, 2279.460
417.3001, 2307.556
417.7823, 2336.844
418.2644, 2368.312
418.7465, 2403.649
419.2286, 2441.660
419.7107, 2480.564
420.1928, 2518.121
420.6750, 2559.557
421.1571, 2607.645
421.6392, 2661.384
422.1213, 2717.014
422.6034, 2773.592
423.0855, 2831.590
423.5677, 2892.076
424.0498, 2955.444
424.5319, 3018.690
425.0140, 3083.130
425.4961, 3147.234
425.9782, 3209.838
426.4604, 3273.391
426.9425, 3332.168
427.4246, 3386.546
427.9067, 3436.254
428.3888, 3476.930
428.8709, 3511.921
429.3531, 3532.046
429.8352, 3530.629
430.3173, 3504.792
430.7994, 3471.655
431.2815, 3431.688
431.7636, 3384.544
432.2458, 3329.269
432.7279, 3265.530
433.2100, 3198.263
433.6921, 3126.611
434.1742, 3052.828
434.6563, 2986.666
435.1385, 2927.280
435.6206, 2874.099
436.1027, 2826.256
436.5848, 2784.051
437.0669, 2748.726
437.5490, 2721.201
438.0312, 2698.805
438.5133, 2678.279
438.9954, 2660.110
439.4775, 2645.609
439.9596, 2636.509
440.4417, 2630.760
440.9239, 2626.633
441.4060, 2624.043
441.8881, 2623.475
442.3702, 2626.235
442.8523, 2630.695
443.3344, 2635.372
443.8166, 2641.973
444.2987, 2646.225
444.7808, 2645.521
445.2629, 2641.258
445.7450, 2637.542
446.2271, 2636.928
446.7093, 2635.525
447.1914, 2631.708
447.6735, 2624.743
448.1556, 2617.476
448.6377, 2610.949
449.1198, 2603.484
449.6020, 2593.230
450.0841, 2579.557
450.5662, 2564.983
451.0483, 2550.285
451.5304, 2534.908
452.0125, 2516.392
452.4947, 2493.714
452.9768, 2470.580
453.4589, 2448.761
453.9410, 2428.094
454.4231, 2408.389
454.9052, 2389.887
455.3874, 2370.537
455.8695, 2346.041
456.3516, 2317.141
456.8337, 2290.264
457.3158, 2267.203
457.7979, 2247.230
458.2801, 2230.098
458.7622, 2215.440
459.2443, 2199.951
459.7264, 2179.391
460.2085, 2157.601
460.6906, 2140.409
461.1728, 2129.430
461.6549, 2119.601
462.1370, 2107.334
462.6191, 2094.104
463.1012, 2082.347
463.5833, 2074.070
464.0655, 2066.392
464.5476, 2057.492
465.0297, 2047.719
465.5118, 2039.921
465.9939, 2036.172
466.4760, 2033.769
466.9582, 2031.267
467.4403, 2028.093
467.9224, 2025.585
468.4045, 2025.040
468.8866, 2024.635
469.3687, 2021.552
469.8509, 2014.341
470.3330, 2007.158
470.8151, 2000.661
471.2972, 1994.921
471.7793, 1990.708
472.2614, 1988.239
472.7436, 1986.648
473.2257, 1985.780
473.7078, 1985.663
474.1899, 1983.948
474.6720, 1979.902
475.1541, 1975.706
475.6363, 1975.371
476.1184, 1978.231
476.6005, 1980.021
477.0826, 1978.094
477.5647, 1974.622
478.0468, 1973.304
478.5290, 1973.955
479.0111, 1974.902
479.4932, 1972.973
479.9753, 1971.534
480.4574, 1976.242
480.9395, 1991.042
481.4217, 2002.199
481.9038, 1997.546
482.3859, 1984.603
482.8680, 1974.418
483.3501, 1972.275
483.8322, 1971.879
484.3144, 1971.399
484.7965, 1970.751
485.2786, 1969.978
485.7607, 1969.891
486.2428, 1968.994
486.7249, 1966.149
487.2071, 1958.582
487.6892, 1955.150
488.1713, 1957.227
488.6534, 1962.508
489.1355, 1968.747
489.6176, 1978.157
490.0998, 1981.744
490.5819, 1975.422
491.0640, 1961.791
491.5461, 1954.525
492.0282, 1954.255
492.5103, 1955.534
492.9925, 1953.992
493.4746, 1950.552
493.9567, 1950.330
494.4388, 1953.966
494.9209, 1959.208
495.4030, 1964.900
495.8852, 1970.209
496.3673, 1973.131
496.8494, 1971.291
497.3315, 1968.158
497.8136, 1966.209
498.2957, 1965.547
498.7779, 1966.765
499.2600, 1972.530
499.7421, 1978.651
500.2242, 1982.077
500.7063, 1982.024
501.1884, 1981.361
501.6706, 1980.039
502.1527, 1978.984
502.6348, 1979.164
503.1169, 1983.924
503.5990, 1986.078
504.0811, 1983.259
504.5633, 1977.148
505.0454, 1973.956
505.5275, 1974.817
506.0096, 1976.761
506.4917, 1978.684
506.9738, 1980.562
507.4560, 1983.085
507.9381, 1986.668
508.4202, 1989.744
508.9023, 1989.902
509.3844, 1987.387
509.8665, 1986.941
510.3487, 1990.308
510.8308, 1994.547
511.3129, 1993.395
511.7950, 1988.187
512.2772, 1985.128
512.7593, 1990.284
513.2414, 1997.912
513.7235, 2000.605
514.2056, 1998.406
514.6877, 1996.032
515.1699, 1996.900
515.6520, 1998.750
516.1341, 1999.585
516.6162, 1999.115
517.0983, 1997.251
517.5804, 1992.063
518.0626, 1985.804
518.5447, 1982.180
519.0268, 1981.921
519.5089, 1984.293
519.9910, 1990.967
520.4731, 2001.412
520.9553, 2006.594
521.4374, 2003.985
521.9195, 1999.850
522.4016, 1997.693
522.8837, 1998.049
523.3658, 1997.842
523.8480, 1997.095
524.3301, 1995.752
524.8122, 1992.924
525.2943, 1988.841
525.7764, 1987.076
526.2585, 1989.477
526.7407, 1993.761
527.2228, 1994.933
527.7049, 1993.747
528.1870, 1994.518
528.6691, 2003.009
529.1512, 2013.265
529.6334, 2017.827
530.1155, 2016.058
530.5976, 2013.098
531.0797, 2012.187
531.5618, 2011.470
532.0439, 2008.928
532.5261, 2000.735
533.0082, 1995.362
533.4903, 1996.799
533.9724, 2002.275
534.4545, 2005.884
534.9366, 2004.426
535.4188, 2004.196
535.9009, 2007.763
536.3830, 2014.968
536.8651, 2017.494
537.3472, 2013.355
537.8293, 2008.541
538.3115, 2007.044
538.7936, 2009.087
539.2757, 2011.692
539.7578, 2014.832
540.2399, 2018.215
540.7220, 2021.682
541.2042, 2025.116
541.6863, 2028.078
542.1684, 2030.258
542.6505, 2032.118
543.1326, 2034.262
543.6147, 2036.628
544.0969, 2039.092
544.5790, 2041.451
545.0611, 2043.870
545.5432, 2046.572
546.0253, 2049.578
546.5074, 2052.381
546.9896, 2055.123
547.4717, 2057.341
547.9538, 2058.643
548.4359, 2057.917
548.9180, 2057.731
549.4001, 2058.804
549.8823, 2060.407
550.3644, 2061.184
550.8465, 2060.302
551.3286, 2060.194
551.8107, 2061.371
552.2928, 2063.839
552.7750, 2067.962
553.2571, 2074.202
553.7392, 2079.963
554.2213, 2083.184
554.7034, 2084.285
555.1855, 2085.695
555.6677, 2087.455
556.1498, 2089.996
556.6319, 2094.138
557.1140, 2099.325
557.5961, 2104.443
558.0782, 2109.324
558.5604, 2113.770
559.0425, 2116.973
559.5246, 2119.582
560.0067, 2123.042
560.4888, 2128.409
560.9709, 2134.304
561.4531, 2139.518
561.9352, 2144.055
562.4173, 2150.762
562.8994, 2162.454
563.3815, 2174.456
563.8636, 2184.463
564.3458, 2191.446
564.8279, 2199.129
565.3100, 2207.959
565.7921, 2217.058
566.2742, 2224.339
566.7563, 2229.302
567.2385, 2238.093
567.7206, 2252.997
568.2027, 2271.204
568.6848, 2285.245
569.1669, 2295.975
569.6490, 2308.396
570.1312, 2325.769
570.6133, 2346.385
571.0954, 2366.789
571.5775, 2387.405
572.0596, 2411.471
572.5417, 2441.247
573.0239, 2475.608
573.5060, 2513.686
573.9881, 2557.068
574.4702, 2600.279
574.9523, 2639.573
575.4344, 2679.170
575.9166, 2723.917
576.3987, 2779.756
576.8808, 2834.304
577.3629, 2886.434
577.8450, 2936.635
578.3271, 2988.038
578.8093, 3042.350
579.2914, 3092.390
579.7735, 3135.148
580.2556, 3170.339
580.7377, 3199.272
581.2198, 3221.496
581.7020, 3240.208
582.1841, 3254.334
582.6662, 3267.173
583.1483, 3285.133
583.6304, 3307.525
584.1125, 3342.310
584.5947, 3400.960
585.0768, 3475.346
585.5589, 3553.529
586.0410, 3627.374
586.5231, 3708.834
587.0052, 3808.765
587.4873, 3920.523
587.9694, 4024.252
588.4515, 4132.610
588.9337, 4216.469
589.4158, 4271.790
589.8979, 4298.688
590.3800, 4285.606
590.8621, 4230.249
591.3442, 4138.401
591.8264, 4005.534
592.3085, 3827.813
592.7906, 3657.909
593.2727, 3495.242
593.7548, 3346.627
594.2369, 3215.699
594.7191, 3102.788
595.2012, 3012.753
595.6833, 2948.893
596.1654, 2902.087
596.6475, 2865.098
597.1296, 2837.603
597.6118, 2817.954
598.0939, 2806.204
598.5760, 2801.542
599.0581, 2803.829
599.5402, 2813.012
600.0223, 2828.481
600.5045, 2852.398
600.9866, 2880.791
601.4687, 2911.675
601.9508, 2944.265
602.4329, 2983.345
602.9150, 3031.348
603.3972, 3082.131
603.8793, 3132.588
604.3614, 3184.051
604.8435, 3225.500
605.3256, 3257.841
605.8077, 3273.634
606.2899, 3259.551
606.7720, 3217.540
607.2541, 3156.548
607.7362, 3072.246
608.2183, 2978.547
608.7004, 2888.142
609.1826, 2801.787
609.6647, 2725.392
610.1468, 2659.807
610.6289, 2605.475
611.1110, 2565.603
611.5931, 2539.991
612.0753, 2517.277
612.5574, 2494.005
613.0395, 2473.779
613.5216, 2458.840
614.0037, 2451.145
614.4858, 2443.634
614.9680, 2437.048
615.4501, 2429.623
615.9322, 2418.877
616.4143, 2404.686
616.8964, 2390.186
617.3785, 2376.106
617.8607, 2361.843
618.3428, 2345.434
618.8249, 2327.636
619.3070, 2311.635
619.7891, 2297.077
620.2712, 2286.353
620.7534, 2284.841
621.2355, 2290.410
621.7176, 2293.154
622.1997, 2284.024
622.6818, 2274.219
623.1639, 2270.482
623.6461, 2274.312
624.1282, 2277.786
624.6103, 2280.542
625.0924, 2282.350
625.5745, 2282.658
626.0566, 2279.979
626.5388, 2280.655
627.0209, 2286.633
627.5030, 2292.799
627.9851, 2290.573
628.4672, 2280.467
628.9493, 2273.317
629.4315, 2272.455
629.9136, 2274.235
630.3957, 2273.921
630.8778, 2271.700
631.3599, 2268.125
631.8420, 2261.459
632.3242, 2255.208
632.8063, 2252.318
633.2884, 2252.407
633.7705, 2252.918
634.2526, 2252.816
634.7347, 2253.093
635.2169, 2254.473
635.6990, 2257.265
636.1811, 2259.223
636.6632, 2259.483
637.1453, 2259.989
637.6274, 2262.657
638.1096, 2268.171
638.5917, 2270.696
639.0738, 2269.253
639.5559, 2266.876
640.0380, 2267.836
640.5201, 2271.333
641.0023, 2273.571
641.4844, 2272.715
641.9665, 2272.087
642.4486, 2276.518
642.9307, 2283.872
643.4128, 2289.417
643.8950, 2289.299
644.3771, 2288.822
644.8592, 2290.294
645.3413, 2293.553
645.8234, 2297.444
646.3055, 2303.034
646.7877, 2307.897
647.2698, 2311.170
647.7519, 2312.840
648.2340, 2314.104
648.7161, 2315.208
649.1982, 2315.189
649.6804, 2312.811
650.1625, 2308.345
650.6446, 2304.492
651.1267, 2301.415
651.6088, 2298.726
652.0909, 2295.890
652.5731, 2293.243
653.0552, 2291.291
653.5373, 2290.041
654.0194, 2289.885
654.5015, 2291.914
654.9836, 2294.977
655.4658, 2297.390
655.9479, 2297.701
656.4300, 2298.555
656.9121, 2300.773
657.3942, 2303.933
657.8763, 2307.097
658.3585, 2310.993
658.8406, 2312.982
659.3227, 2311.087
659.8048, 2306.588
660.2869, 2306.970
660.7690, 2312.353
661.2512, 2318.145
661.7333, 2321.407
662.2154, 2322.924
662.6975, 2323.447
663.1796, 2323.072
663.6617, 2324.096
664.1439, 2330.522
664.6260, 2337.631
665.1081, 2341.007
665.5902, 2338.994
666.0723, 2336.565
666.5544, 2334.607
667.0366, 2333.051
667.5187, 2331.828
668.0008, 2331.100
668.4829, 2330.390
668.9650, 2329.088
669.4471, 2328.586
669.9293, 2331.980
670.4114, 2339.342
670.8935, 2345.151
671.3756, 2347.645
671.8577, 2348.281
672.3398, 2348.881
672.8220, 2349.587
673.3041, 2350.919
673.7862, 2352.916
674.2683, 2355.736
674.7504, 2360.348
675.2325, 2366.177
675.7147, 2370.420
676.1968, 2371.436
676.6789, 2371.407
677.1610, 2370.552
677.6431, 2368.728
678.1252, 2369.863
678.6074, 2375.864
679.0895, 2381.261
679.5716, 2381.365
680.0537, 2376.186
680.5358, 2376.093
681.0179, 2381.870
681.5001, 2388.225
681.9822, 2389.118
682.4643, 2386.877
682.9464, 2386.672
683.4285, 2390.157
683.9106, 2392.647
684.3928, 2388.326
684.8749, 2382.101
685.3570, 2379.848
685.8391, 2387.785
686.3212, 2393.943
686.8033, 2395.781
687.2855, 2395.030
687.7676, 2394.146
688.2497, 2392.855
688.7318, 2392.301
689.2139, 2393.155
689.6960, 2394.567
690.1782, 2393.302
690.6603, 2389.604
691.1424, 2388.028
691.6245, 2392.992
692.1066, 2399.839
692.5887, 2399.866
693.0709, 2394.761
693.5530, 2391.882
694.0351, 2398.470
694.5172, 2405.922
694.9993, 2408.578
695.4814, 2405.937
695.9636, 2403.549
696.4457, 2401.921
696.9278, 2400.960
697.4099, 2400.542
697.8920, 2400.552
698.3741, 2402.148
698.8563, 2405.927
699.3384, 2409.447
699.8205, 2409.570
700.3026, 2407.320
700.7847, 2407.909
701.2668, 2412.184
701.7490, 2417.036
702.2311, 2420.335
702.7132, 2422.088
703.1953, 2422.044
703.6774, 2419.053
704.1595, 2416.611
704.6417, 2416.326
705.1238, 2417.271
705.6059, 2418.167
706.0880, 2418.518
706.5701, 2419.627
707.0522, 2422.479
707.5344, 2425.524
708.0165, 2425.057
708.4986, 2420.839
708.9807, 2416.748
709.4628, 2413.494
709.9449, 2411.558
710.4271, 2412.939
710.9092, 2416.697
711.3913, 2419.397
711.8734, 2418.253
712.3555, 2416.238
712.8376, 2414.878
713.3198, 2414.324
713.8019, 2415.088
714.2840, 2419.235
714.7661, 2422.802
715.2482, 2424.147
715.7303, 2423.355
716.2125, 2422.550
716.6946, 2421.244
717.1767, 2421.247
717.6588, 2425.014
718.1409, 2431.639
718.6230, 2432.642
719.1052, 2427.875
719.5873, 2424.083
720.0694, 2429.072
720.5515, 2437.042
721.0336, 2439.713
721.5157, 2435.378
721.9979, 2432.305
722.4800, 2436.634
722.9621, 2442.339
723.4442, 2444.307
723.9263, 2439.087
724.4084, 2436.660
724.8906, 2437.961
725.3727, 2440.920
725.8548, 2443.946
726.3369, 2447.171
726.8190, 2448.295
727.3011, 2446.616
727.7833, 2444.296
728.2654, 2444.024
728.7475, 2445.314
729.2296, 2447.048
729.7117, 2448.942
730.1938, 2451.135
730.6760, 2455.058
731.1581, 2458.972
731.6402, 2460.268
732.1223, 2456.052
732.6044, 2451.871
733.0865, 2446.674
733.5687, 2442.711
734.0508, 2445.978
734.5329, 2458.989
735.0150, 2468.785
735.4971, 2471.479
735.9792, 2469.610
736.4614, 2468.044
736.9435, 2466.827
737.4256, 2466.164
737.9077, 2466.459
738.3898, 2467.112
738.8719, 2467.078
739.3541, 2466.816
739.8362, 2467.981
740.3183, 2473.027
740.8004, 2477.710
741.2825, 2479.958
741.7646, 2480.118
742.2468, 2481.201
742.7289, 2483.597
743.2110, 2485.917
743.6931, 2487.902
744.1752, 2489.314
744.6573, 2487.570
745.1395, 2482.835
745.6216, 2480.140
746.1037, 2485.835
746.5858, 2494.060
747.0679, 2496.806
747.5500, 2493.951
748.0322, 2492.045
748.5143, 2496.235
748.9964, 2500.600
749.4785, 2500.811
749.9606, 2495.157
750.4427, 2493.410
750.9249, 2497.319
751.4070, 2502.096
751.8891, 2503.655
752.3712, 2502.114
752.8533, 2504.637
753.3354, 2511.833
753.8176, 2519.329
754.2997, 2524.032
754.7818, 2526.002
755.2639, 2523.940
755.7460, 2516.590
756.2281, 2512.452
756.7103, 2520.568
757.1924, 2531.240
757.6745, 2535.574
758.1566, 2526.138
758.6387, 2523.506
759.1208, 2531.424
759.6030, 2541.564
760.0851, 2544.584
760.5672, 2540.192
761.0493, 2537.607
761.5314, 2537.695
762.0135, 2540.259
762.4957, 2547.732
762.9778, 2556.942
763.4599, 2561.395
763.9420, 2557.267
764.4241, 2553.489
764.9063, 2556.648
765.3884, 2562.263
765.8705, 2564.790
766.3526, 2558.868
766.8347, 2556.721
767.3168, 2560.439
767.7990, 2566.748
768.2811, 2570.419
768.7632, 2571.270
769.2453, 2573.995
769.7274, 2580.485
770.2095, 2586.728
770.6917, 2585.607
771.1738, 2579.966
771.6559, 2576.078
772.1380, 2576.982
772.6201, 2579.077
773.1022, 2581.475
773.5844, 2583.554
774.0665, 2584.107
774.5486, 2580.442
775.0307, 2579.167
775.5128, 2582.239
775.9949, 2587.438
776.4771, 2590.257
776.9592, 2590.743
777.4413, 2588.181
777.9234, 2580.645
778.4055, 2572.754
778.8876, 2572.416
779.3698, 2577.511
779.8519, 2582.596
780.3340, 2585.936
780.8161, 2587.894
781.2982, 2586.978
781.7803, 2584.791
782.2625, 2585.908
782.7446, 2593.146
783.2267, 2599.328
783.7088, 2603.002
784.1909, 2604.684
784.6730, 2605.766
785.1552, 2606.246
785.6373, 2606.158
786.1194, 2604.611
786.6015, 2603.513
787.0836, 2607.331
787.5657, 2614.056
788.0479, 2618.094
788.5300, 2612.435
789.0121, 2607.936
789.4942, 2611.719
789.9763, 2620.972
790.4584, 2623.836
790.9406, 2614.772
791.4227, 2610.059
791.9048, 2616.200
792.3869, 2628.671
792.8690, 2632.389
793.3511, 2627.859
793.8333, 2622.144
794.3154, 2615.537
794.7975, 2612.115
795.2796, 2620.989
795.7617, 2638.000
796.2438, 2649.406
796.7260, 2644.437
797.2081, 2638.458
797.6902, 2637.193
798.1723, 2639.769
798.6544, 2642.937
799.1365, 2647.867
799.6187, 2649.914
800.1008, 2645.969
800.5829, 2639.079
801.0650, 2639.516
801.5471, 2646.160
802.0292, 2651.867
802.5114, 2651.618
802.9935, 2649.583
803.4756, 2648.159
803.9577, 2647.909
804.4398, 2650.717
804.9219, 2664.096
805.4041, 2672.593
805.8862, 2668.912
806.3683, 2656.908
806.8504, 2653.319
807.3325, 2659.839
807.8146, 2666.536
808.2968, 2669.567
808.7789, 2670.515
809.2610, 2673.282
809.7431, 2677.256
810.2252, 2679.913
810.7073, 2679.024
811.1895, 2677.273
811.6716, 2676.487
812.1537, 2676.309
812.6358, 2675.206
813.1179, 2670.191
813.6000, 2668.206
814.0822, 2672.027
814.5643, 2679.686
815.0464, 2683.620
815.5285, 2683.748
816.0106, 2684.395
816.4927, 2688.099
816.9749, 2692.518
817.4570, 2694.180
817.9391, 2693.584
818.4212, 2692.224
818.9033, 2688.972
819.3854, 2686.932
819.8676, 2687.903
820.3497, 2691.163
820.8318, 2693.854
821.3139, 2694.524
821.7960, 2698.290
822.2781, 2708.031
822.7603, 2720.049
823.2424, 2725.254
823.7245, 2724.467
824.2066, 2723.003
824.6887, 2723.770
825.1708, 2723.846
825.6530, 2717.621
826.1351, 2708.859
826.6172, 2706.047
827.0993, 2717.750
827.5814, 2728.300
828.0635, 2735.791
828.5457, 2739.873
829.0278, 2738.444
829.5099, 2730.174
829.9920, 2725.997
830.4741, 2729.767
830.9562, 2736.577
831.4384, 2738.141
831.9205, 2736.415
832.4026, 2736.525
832.8847, 2742.101
833.3668, 2747.375
833.8489, 2748.055
834.3311, 2746.808
834.8132, 2748.411
835.2953, 2755.171
835.7774, 2760.524
836.2595, 2763.213
836.7416, 2764.874
837.2238, 2768.897
837.7059, 2774.836
838.1880, 2777.965
838.6701, 2776.669
839.1522, 2774.135
839.6343, 2771.654
840.1165, 2770.683
840.5986, 2773.754
841.0807, 2786.643
841.5628, 2795.060
842.0449, 2792.199
842.5270, 2786.318
843.0092, 2785.841
843.4913, 2791.931
843.9734, 2797.091
844.4555, 2800.782
844.9376, 2803.021
845.4197, 2801.794
845.9019, 2799.527
846.3840, 2802.135
846.8661, 2811.884
847.3482, 2820.913
847.8303, 2822.313
848.3124, 2822.491
848.7946, 2827.823
849.2767, 2842.104
849.7588, 2852.223
850.2409, 2856.853
850.7230, 2859.798
851.2051, 2864.168
851.6873, 2869.738
852.1694, 2875.931
852.6515, 2882.781
853.1336, 2888.110
853.6157, 2886.360
854.0978, 2884.626
854.5800, 2891.607
855.0621, 2909.744
855.5442, 2923.316
856.0263, 2926.589
856.5084, 2927.078
856.9905, 2927.451
857.4727, 2927.721
857.9548, 2931.132
858.4369, 2937.955
858.9190, 2945.578
859.4011, 2952.983
859.8832, 2959.780
860.3654, 2964.417
860.8475, 2967.305
861.3296, 2971.707
861.8117, 2979.704
862.2938, 2989.073
862.7759, 3000.163
863.2581, 3012.262
863.7402, 3020.076
864.2223, 3022.282
864.7044, 3024.457
865.1865, 3029.085
865.6686, 3035.133
866.1508, 3039.363
866.6329, 3042.381
867.1150, 3046.711
867.5971, 3055.189
868.0792, 3063.880
868.5613, 3070.927
869.0435, 3076.350
869.5256, 3080.049
870.0077, 3082.286
870.4898, 3082.521
870.9719, 3080.358
871.4540, 3076.442
871.9362, 3071.106
872.4183, 3064.812
872.9004, 3061.653
873.3825, 3064.705
873.8646, 3067.521
874.3467, 3062.128
874.8289, 3052.905
875.3110, 3046.531
875.7931, 3047.062
876.2752, 3047.793
876.7573, 3048.122
877.2394, 3048.345
877.7216, 3048.782
878.2037, 3049.428
878.6858, 3050.245
879.1679, 3051.175
879.6500, 3052.574
880.1321, 3056.251
880.6143, 3060.111
881.0964, 3060.173
881.5785, 3054.347
882.0606, 3051.324
882.5427, 3056.933
883.0248, 3064.323
883.5070, 3068.593
883.9891, 3069.076
884.4712, 3070.610
884.9533, 3073.227
885.4354, 3076.554
885.9175, 3081.023
886.3997, 3085.729
886.8818, 3087.583
887.3639, 3086.896
887.8460, 3088.911
888.3281, 3099.361
888.8102, 3110.626
889.2924, 3118.641
889.7745, 3123.423
890.2566, 3127.201
890.7387, 3130.104
891.2208, 3131.489
891.7029, 3130.541
892.1851, 3128.307
892.6672, 3126.814
893.1493, 3126.307
893.6314, 3127.760
894.1135, 3133.622
894.5956, 3139.670
895.0778, 3143.354
895.5599, 3145.442
896.0420, 3147.601
896.5241, 3148.140
897.0062, 3152.942
897.4883, 3164.579
897.9705, 3178.524
898.4526, 3186.385
898.9347, 3189.028
899.4168, 3190.024
899.8989, 3189.615
900.3810, 3189.881
900.8632, 3193.570
901.3453, 3198.345
901.8274, 3201.503
902.3095, 3200.836
902.7916, 3201.468
903.2737, 3203.619
903.7559, 3206.763
904.2380, 3210.214
904.7201, 3214.107
905.2022, 3220.192
905.6843, 3228.534
906.1664, 3236.526
906.6486, 3242.179
907.1307, 3246.257
907.6128, 3249.468
908.0949, 3251.882
908.5770, 3253.188
909.0591, 3251.201
909.5413, 3251.418
910.0234, 3257.758
910.5055, 3268.430
910.9876, 3270.685
911.4697, 3265.014
911.9518, 3260.443
912.4340, 3263.724
912.9161, 3269.171
913.3982, 3271.339
913.8803, 3270.964
914.3624, 3270.107
914.8445, 3267.797
915.3267, 3267.088
915.8088, 3269.152
916.2909, 3272.519
916.7730, 3273.859
917.2551, 3273.244
917.7372, 3274.354
918.2194, 3278.520
918.7015, 3283.072
919.1836, 3284.302
919.6657, 3284.432
920.1478, 3286.571
920.6299, 3292.235
921.1121, 3298.436
921.5942, 3306.254
922.0763, 3312.966
922.5584, 3315.721
923.0405, 3314.339
923.5226, 3314.613
924.0048, 3316.679
924.4869, 3320.678
924.9690, 3329.145
925.4511, 3338.113
925.9332, 3341.533
926.4153, 3339.478
926.8975, 3340.744
927.3796, 3352.465
927.8617, 3362.480
928.3438, 3365.514
928.8259, 3363.583
929.3080, 3368.387
929.7902, 3379.788
930.2723, 3389.514
930.7544, 3392.431
931.2365, 3393.528
931.7186, 3398.678
932.2007, 3406.318
932.6829, 3413.188
933.1650, 3416.229
933.6471, 3421.484
934.1292, 3430.080
934.6113, 3440.810
935.0934, 3452.564
935.5756, 3465.417
936.0577, 3475.163
936.5398, 3480.422
937.0219, 3487.187
937.5040, 3503.219
937.9861, 3522.964
938.4683, 3539.169
938.9504, 3549.352
939.4325, 3562.908
939.9146, 3581.082
940.3967, 3602.732
940.8788, 3628.190
941.3610, 3657.076
941.8431, 3684.108
942.3252, 3709.738
942.8073, 3740.993
943.2894, 3785.766
943.7715, 3834.883
944.2537, 3876.445
944.7358, 3914.693
945.2179, 3966.219
945.7000, 4039.530
946.1821, 4119.816
946.6642, 4204.391
947.1464, 4296.375
947.6285, 4400.913
948.1106, 4518.213
948.5927, 4645.958
949.0748, 4781.532
949.5569, 4934.198
950.0391, 5114.151
950.5212, 5315.584
951.0033, 5529.747
951.4854, 5757.351
951.9675, 5997.396
952.4496, 6249.925
952.9318, 6514.063
953.4139, 6781.513
953.8960, 7057.935
954.3781, 7377.226
954.8602, 7737.219
955.3423, 8133.615
955.8245, 8548.946
956.3066, 9011.321
956.7887, 9531.226
957.2708, 10117.55
957.7529, 10787.68
958.2350, 11547.29
958.7172, 12382.00
959.1993, 13292.61
959.6814, 14283.84
960.1635, 15372.03
960.6456, 16540.09
961.1277, 17736.58
961.6099, 19020.84
962.0920, 20181.29
962.5741, 21257.96
963.0562, 22057.54
963.5383, 22362.01
964.0204, 22187.07
964.5026, 21477.26
964.9847, 20170.31
965.4668, 18571.96
965.9489, 16804.65
966.4310, 15009.35
966.9131, 13385.67
967.3953, 11960.65
967.8774, 10706.61
968.3595, 9650.818
968.8416, 8745.838
969.3237, 7995.815
969.8058, 7381.474
970.2880, 6847.743
970.7701, 6393.155
971.2522, 5997.731
971.7343, 5653.890
972.2164, 5358.731
972.6985, 5108.452
973.1807, 4897.617
973.6628, 4718.003
974.1449, 4570.104
974.6270, 4443.040
975.1091, 4338.788
975.5912, 4248.274
976.0734, 4162.189
976.5555, 4080.610
977.0376, 4016.457
977.5197, 3971.718
978.0018, 3934.906
978.4839, 3897.493
978.9661, 3862.534
979.4482, 3833.410
979.9303, 3810.153
980.4124, 3789.011
980.8945, 3767.987
981.3766, 3750.716
981.8588, 3738.472
982.3409, 3730.271
982.8230, 3724.376
983.3051, 3720.298
983.7872, 3715.517
984.2693, 3708.608
984.7515, 3701.659
985.2336, 3695.894
985.7157, 3691.008
986.1978, 3686.558
986.6799, 3681.531
987.1620, 3679.184
987.6442, 3680.077
988.1263, 3682.024
988.6084, 3683.172
989.0905, 3683.851
989.5726, 3683.863
990.0547, 3683.569
990.5369, 3686.473
991.0190, 3699.447
991.5011, 3710.943
991.9832, 3713.776
992.4653, 3710.750
992.9474, 3711.591
993.4296, 3716.632
993.9117, 3722.370
994.3938, 3727.451
994.8759, 3733.515
995.3580, 3744.512
995.8401, 3757.394
996.3223, 3767.220
996.8044, 3769.925
997.2865, 3775.991
997.7686, 3790.196
998.2507, 3804.202
998.7328, 3808.483
999.2150, 3804.008
999.6971, 3817.531
1000.179, 3848.442
1000.661, 3879.154
1001.143, 3893.761
1001.626, 3906.564
1002.108, 3930.398
1002.590, 3962.926
1003.072, 3991.266
1003.554, 4011.036
1004.036, 4033.850
1004.518, 4061.274
1005.000, 4093.748
1005.482, 4134.901
1005.965, 4181.190
1006.447, 4222.549
1006.929, 4256.736
1007.411, 4285.374
1007.893, 4311.561
1008.375, 4330.448
1008.857, 4338.586
1009.339, 4335.460
1009.822, 4330.509
1010.304, 4324.116
1010.786, 4312.060
1011.268, 4287.918
1011.750, 4259.599
1012.232, 4236.048
1012.714, 4216.606
1013.196, 4198.946
1013.678, 4181.786
1014.161, 4166.941
1014.643, 4153.146
1015.125, 4143.745
1015.607, 4146.072
1016.089, 4158.120
1016.571, 4167.537
1017.053, 4172.327
1017.535, 4176.582
1018.018, 4180.982
1018.500, 4188.048
1018.982, 4200.839
1019.464, 4219.668
1019.946, 4237.411
1020.428, 4253.649
1020.910, 4270.382
1021.392, 4287.706
1021.874, 4306.974
1022.357, 4332.557
1022.839, 4361.790
1023.321, 4388.110
1023.803, 4404.285
1024.285, 4424.218
1024.767, 4454.954
1025.249, 4487.755
1025.731, 4512.552
1026.214, 4529.270
1026.696, 4554.368
1027.178, 4588.904
1027.660, 4625.109
1028.142, 4657.237
1028.624, 4688.621
1029.106, 4722.483
1029.588, 4758.566
1030.070, 4794.490
1030.553, 4831.904
1031.035, 4865.045
1031.517, 4891.142
1031.999, 4914.690
1032.481, 4945.647
1032.963, 4980.852
1033.445, 5011.827
1033.927, 5035.154
1034.410, 5059.851
1034.892, 5086.510
1035.374, 5118.974
1035.856, 5160.747
1036.338, 5212.280
1036.820, 5257.397
1037.302, 5295.252
1037.784, 5334.511
1038.266, 5381.074
1038.749, 5430.415
1039.231, 5478.235
1039.713, 5524.931
1040.195, 5570.466
1040.677, 5617.823
1041.159, 5658.875
1041.641, 5693.425
1042.123, 5721.291
1042.605, 5738.306
1043.088, 5749.127
1043.570, 5765.415
1044.052, 5788.421
1044.534, 5819.187
1045.016, 5858.987
1045.498, 5906.125
1045.980, 5956.831
1046.462, 6013.366
1046.945, 6089.194
1047.427, 6185.443
1047.909, 6288.285
1048.391, 6394.729
1048.873, 6499.819
1049.355, 6601.718
1049.837, 6698.237
1050.319, 6789.157
1050.802, 6886.871
1051.284, 6946.094
1051.766, 6965.283
1052.248, 6948.047
1052.730, 6889.728
1053.212, 6797.691
1053.694, 6687.722
1054.176, 6563.303
1054.658, 6440.175
1055.141, 6325.692
1055.623, 6214.055
1056.105, 6093.953
1056.587, 5979.481
1057.069, 5895.825
1057.551, 5843.896
1058.033, 5790.359
1058.515, 5730.661
1058.997, 5671.727
1059.480, 5618.261
1059.962, 5568.817
1060.444, 5522.083
1060.926, 5478.500
1061.408, 5437.184
1061.890, 5396.440
1062.372, 5362.500
1062.854, 5338.803
1063.337, 5321.589
1063.819, 5304.677
1064.301, 5288.971
1064.783, 5276.707
1065.265, 5269.074
1065.747, 5263.595
1066.229, 5259.835
1066.711, 5257.619
1067.193, 5255.688
1067.676, 5254.394
1068.158, 5262.433
1068.640, 5279.371
1069.122, 5298.119
1069.604, 5316.042
1070.086, 5332.802
1070.568, 5350.185
1071.050, 5366.062
1071.532, 5374.816
1072.015, 5372.210
1072.497, 5378.101
1072.979, 5395.374
1073.461, 5417.615
1073.943, 5438.577
1074.425, 5459.901
1074.907, 5484.659
1075.389, 5512.780
1075.872, 5541.034
1076.354, 5569.684
1076.836, 5596.976
1077.318, 5624.550
1077.800, 5647.768
1078.282, 5659.255
1078.764, 5658.069
1079.246, 5640.247
1079.729, 5602.343
1080.211, 5555.755
1080.693, 5501.749
1081.175, 5444.997
1081.657, 5389.405
1082.139, 5334.788
1082.621, 5283.739
1083.103, 5235.844
1083.585, 5193.462
1084.068, 5159.328
1084.550, 5129.493
1085.032, 5102.075
1085.514, 5075.982
1085.996, 5049.863
1086.478, 5022.038
1086.960, 4998.331
1087.442, 4980.726
1087.924, 4961.616
1088.406, 4928.400
1088.889, 4891.202
1089.371, 4871.997
1089.853, 4868.366
1090.335, 4858.616
1090.817, 4826.684
1091.299, 4797.963
1091.781, 4778.286
1092.263, 4765.005
1092.746, 4755.035
1093.228, 4747.583
1093.710, 4739.694
1094.192, 4731.140
1094.674, 4719.136
1095.156, 4697.477
1095.638, 4675.521
1096.120, 4660.073
1096.603, 4650.257
1097.085, 4639.208
1097.567, 4626.740
1098.049, 4616.906
1098.531, 4612.342
1099.013, 4608.451
1099.495, 4602.431
1099.977, 4593.147
1100.459, 4577.673
1100.942, 4550.592
1101.424, 4535.040
1101.906, 4534.277
1102.388, 4534.481
1102.870, 4525.813
1103.352, 4512.464
1103.834, 4502.606
1104.316, 4494.868
1104.798, 4485.638
1105.281, 4469.918
1105.763, 4457.997
1106.245, 4452.087
1106.727, 4448.965
1107.209, 4445.618
1107.691, 4442.107
1108.173, 4438.958
1108.655, 4436.146
1109.138, 4433.191
1109.620, 4430.450
1110.102, 4426.733
1110.584, 4420.128
1111.066, 4412.740
1111.548, 4408.673
1112.030, 4407.863
1112.512, 4410.764
1112.995, 4418.396
1113.477, 4423.176
1113.959, 4413.862
1114.441, 4402.331
1114.923, 4400.522
1115.405, 4408.413
1115.887, 4409.018
1116.369, 4400.853
1116.851, 4393.636
1117.333, 4390.891
1117.816, 4390.486
1118.298, 4390.292
1118.780, 4390.332
1119.262, 4390.525
1119.744, 4390.544
1120.226, 4392.345
1120.708, 4397.301
1121.190, 4400.810
1121.673, 4398.451
1122.155, 4393.780
1122.637, 4395.052
1123.119, 4401.151
1123.601, 4408.974
1124.083, 4423.522
1124.565, 4430.314
1125.047, 4422.768
1125.530, 4413.194
1126.012, 4414.445
1126.494, 4424.025
1126.976, 4426.548
1127.458, 4422.712
1127.940, 4422.558
1128.422, 4437.678
1128.904, 4451.064
1129.386, 4453.234
1129.869, 4450.201
1130.351, 4449.746
1130.833, 4451.896
1131.315, 4461.870
1131.797, 4480.990
1132.279, 4495.292
1132.761, 4486.526
1133.243, 4475.166
1133.725, 4478.931
1134.208, 4494.178
1134.690, 4499.413
1135.172, 4492.944
1135.654, 4489.584
1136.136, 4493.526
1136.618, 4499.001
1137.100, 4498.834
1137.582, 4497.249
1138.065, 4499.351
1138.547, 4506.495
1139.029, 4511.597
1139.511, 4514.648
1139.993, 4515.354
1140.475, 4512.682
1140.957, 4509.096
1141.439, 4507.964
1141.922, 4508.854
1142.404, 4511.404
1142.886, 4517.171
1143.368, 4519.536
1143.850, 4516.331
1144.332, 4513.464
1144.814, 4515.769
1145.296, 4520.407
1145.778, 4518.940
1146.260, 4513.500
1146.743, 4510.274
1147.225, 4514.230
1147.707, 4517.436
1148.189, 4520.469
1148.671, 4520.170
1149.153, 4510.319
1149.635, 4494.355
1150.117, 4491.826
1150.600, 4500.890
1151.082, 4505.581
1151.564, 4493.083
1152.046, 4480.284
1152.528, 4472.318
1153.010, 4468.117
1153.492, 4467.642
1153.974, 4470.406
1154.457, 4469.865
1154.939, 4465.521
1155.421, 4462.572
1155.903, 4467.261
1156.385, 4471.640
1156.867, 4469.680
1157.349, 4464.213
1157.831, 4462.126
1158.313, 4463.463
1158.796, 4461.476
1159.278, 4454.703
1159.760, 4446.944
1160.242, 4440.157
1160.724, 4434.739
1161.206, 4431.796
1161.688, 4430.836
1162.170, 4428.369
1162.652, 4424.245
1163.135, 4420.321
1163.617, 4417.196
1164.099, 4414.149
1164.581, 4409.843
1165.063, 4405.521
1165.545, 4402.596
1166.027, 4401.327
1166.509, 4400.921
1166.992, 4402.180
1167.474, 4399.453
1167.956, 4389.048
1168.438, 4376.003
1168.920, 4365.362
1169.402, 4356.871
1169.884, 4350.474
1170.366, 4347.841
1170.849, 4341.219
1171.331, 4328.881
1171.813, 4318.769
1172.295, 4316.190
1172.777, 4317.688
1173.259, 4319.660
1173.741, 4320.948
1174.223, 4319.192
1174.705, 4312.889
1175.188, 4304.413
1175.670, 4292.942
1176.152, 4281.417
1176.634, 4270.099
1177.116, 4261.079
1177.598, 4261.297
1178.080, 4267.141
1178.562, 4267.730
1179.044, 4251.496
1179.527, 4242.688
1180.009, 4246.325
1180.491, 4250.944
1180.973, 4243.593
1181.455, 4229.601
1181.937, 4220.879
1182.419, 4217.321
1182.901, 4215.549
1183.384, 4218.991
1183.866, 4216.993
1184.348, 4205.512
1184.830, 4192.442
1185.312, 4188.591
1185.794, 4190.835
1186.276, 4190.594
1186.758, 4187.539
1187.240, 4185.972
1187.723, 4188.778
1188.205, 4191.971
1188.687, 4195.032
1189.169, 4197.179
1189.651, 4196.708
1190.133, 4194.253
1190.615, 4192.138
1191.097, 4190.618
1191.579, 4187.647
1192.062, 4180.792
1192.544, 4173.946
1193.026, 4167.624
1193.508, 4162.923
1193.990, 4164.177
1194.472, 4169.221
1194.954, 4169.764
1195.436, 4163.875
1195.919, 4158.294
1196.401, 4155.041
1196.883, 4154.527
1197.365, 4158.842
1197.847, 4164.626
1198.329, 4160.330
1198.811, 4148.610
1199.293, 4139.760
1199.776, 4136.637
1200.258, 4134.729
1200.740, 4134.821
1201.222, 4132.001
1201.704, 4121.715
1202.186, 4107.414
1202.668, 4105.637
1203.150, 4112.946
1203.632, 4114.997
1204.115, 4104.990
1204.597, 4095.861
1205.079, 4094.628
1205.561, 4095.230
1206.043, 4094.890
1206.525, 4093.429
1207.007, 4088.427
1207.489, 4081.040
1207.971, 4076.591
1208.454, 4079.872
1208.936, 4080.958
1209.418, 4073.016
1209.900, 4063.779
1210.382, 4058.764
1210.864, 4056.925
1211.346, 4050.323
1211.828, 4040.151
1212.311, 4032.553
1212.793, 4030.356
1213.275, 4031.012
1213.757, 4037.167
1214.239, 4042.318
1214.721, 4041.343
1215.203, 4034.866
1215.685, 4026.260
1216.167, 4016.086
1216.650, 4007.118
1217.132, 3999.846
1217.614, 3995.389
1218.096, 3997.961
1218.578, 3999.405
1219.060, 3991.007
1219.542, 3974.514
1220.024, 3961.086
1220.506, 3950.774
1220.989, 3942.101
1221.471, 3934.452
1221.953, 3928.202
1222.435, 3923.542
1222.917, 3920.108
1223.399, 3918.436
1223.881, 3917.798
1224.363, 3914.306
1224.846, 3908.191
1225.328, 3901.741
1225.810, 3895.148
1226.292, 3889.674
1226.774, 3885.955
1227.256, 3882.812
1227.738, 3879.194
1228.220, 3874.968
1228.703, 3869.934
1229.185, 3863.882
1229.667, 3855.626
1230.149, 3839.559
1230.631, 3828.471
1231.113, 3826.488
1231.595, 3828.040
1232.077, 3826.458
1232.559, 3822.524
1233.042, 3818.278
1233.524, 3813.851
1234.006, 3809.074
1234.488, 3805.046
1234.970, 3798.881
1235.452, 3789.978
1235.934, 3779.094
1236.416, 3765.533
1236.898, 3751.511
1237.381, 3741.589
1237.863, 3736.292
1238.345, 3735.501
1238.827, 3747.325
1239.309, 3750.539
1239.791, 3739.090
1240.273, 3723.484
1240.755, 3718.075
1241.238, 3718.333
1241.720, 3716.005
1242.202, 3710.589
1242.684, 3705.954
1243.166, 3704.160
1243.648, 3699.925
1244.130, 3691.127
1244.612, 3682.372
1245.094, 3680.413
1245.577, 3681.887
1246.059, 3681.873
1246.541, 3679.983
1247.023, 3678.316
1247.505, 3676.680
1247.987, 3676.557
1248.469, 3678.863
1248.951, 3680.500
1249.433, 3676.729
1249.916, 3670.668
1250.398, 3665.747
1250.880, 3662.322
1251.362, 3659.359
1251.844, 3657.139
1252.326, 3654.108
1252.808, 3649.880
1253.290, 3645.109
1253.773, 3640.073
1254.255, 3635.139
1254.737, 3629.396
1255.219, 3623.650
1255.701, 3625.041
1256.183, 3635.073
1256.665, 3637.984
1257.147, 3628.918
1257.630, 3619.241
1258.112, 3619.917
1258.594, 3624.191
1259.076, 3627.409
1259.558, 3629.197
1260.040, 3628.480
1260.522, 3625.292
1261.004, 3621.878
1261.486, 3618.782
1261.969, 3615.142
1262.451, 3608.341
1262.933, 3602.781
1263.415, 3602.588
1263.897, 3605.477
1264.379, 3603.542
1264.861, 3597.415
1265.343, 3591.612
1265.825, 3587.061
1266.308, 3583.549
1266.790, 3583.676
1267.272, 3581.415
1267.754, 3572.075
1268.236, 3560.138
1268.718, 3557.800
1269.200, 3563.014
1269.682, 3569.255
1270.165, 3575.667
1270.647, 3579.135
1271.129, 3575.382
1271.611, 3572.085
1272.093, 3571.871
1272.575, 3573.234
1273.057, 3574.111
1273.539, 3573.942
1274.021, 3570.823
1274.504, 3564.048
1274.986, 3559.068
1275.468, 3558.021
1275.950, 3556.102
1276.432, 3551.580
1276.914, 3546.135
1277.396, 3541.629
1277.878, 3538.248
1278.360, 3536.065
1278.843, 3535.166
1279.325, 3537.241
1279.807, 3544.295
1280.289, 3546.122
1280.771, 3538.396
1281.253, 3529.429
1281.735, 3531.702
1282.217, 3536.390
1282.700, 3531.641
1283.182, 3517.727
1283.664, 3512.785
1284.146, 3517.517
1284.628, 3523.492
1285.110, 3529.424
##END=



