##NAMES=Fluorapatite
##RRUFFID=R050369
##IDEAL CHEMISTRY=Ca_5_(PO_4_)_3_F
##LOCALITY=Russia
##OWNER=RRUFF
##SOURCE=Eugene Schlepp
##DESCRIPTION=Blueish-green hexagonal prismatic crystal
##STATUS=The identification of this mineral has been confirmed by X-ray diffraction and chemical analysis
##URL=rruff.info/R050369
##MEASURED CHEMISTRY=(Ca_0.99_Na_0.01_)_5_((P_0.98_S_0.02_)O_4_)_3_F_1.00_
92.52344, 275.3930
93.00555, 273.2418
93.48767, 273.7167
93.96979, 283.1396
94.45190, 292.1724
94.93402, 299.4178
95.41614, 301.6553
95.89825, 301.0142
96.38037, 300.2786
96.86249, 299.0940
97.34460, 296.3293
97.82672, 290.5015
98.30884, 285.7850
98.79095, 283.6990
99.27307, 282.8610
99.75519, 281.0280
100.2373, 277.7991
100.7194, 273.5368
101.2015, 269.3203
101.6837, 264.4142
102.1658, 259.9135
102.6479, 256.6334
103.1300, 254.5729
103.6121, 253.2540
104.0942, 252.5992
104.5764, 252.3782
105.0585, 252.3775
105.5406, 252.9840
106.0227, 253.7816
106.5048, 253.3382
106.9869, 250.5777
107.4691, 247.8979
107.9512, 246.3610
108.4333, 245.7891
108.9154, 245.7027
109.3975, 245.7314
109.8796, 245.8489
110.3618, 246.1993
110.8439, 247.2588
111.3260, 248.1504
111.8081, 248.1290
112.2902, 247.2957
112.7723, 246.5553
113.2544, 247.2922
113.7366, 251.0862
114.2187, 253.4039
114.7008, 253.1073
115.1829, 252.0402
115.6650, 251.9248
116.1471, 253.3821
116.6293, 255.7052
117.1114, 257.2128
117.5935, 257.3707
118.0756, 257.8249
118.5577, 259.2756
119.0398, 261.3342
119.5220, 263.0624
120.0041, 263.9334
120.4862, 264.2682
120.9683, 264.8823
121.4504, 265.9429
121.9325, 266.9910
122.4147, 267.4313
122.8968, 267.1733
123.3789, 267.3895
123.8610, 269.2082
124.3431, 271.6479
124.8252, 273.8255
125.3074, 275.4339
125.7895, 276.6764
126.2716, 277.9056
126.7537, 278.8881
127.2358, 280.3089
127.7179, 282.2928
128.2001, 284.7626
128.6822, 287.7257
129.1643, 291.2831
129.6464, 295.3570
130.1285, 298.7481
130.6107, 300.4033
131.0928, 302.3656
131.5749, 305.1708
132.0570, 308.6865
132.5391, 312.5491
133.0212, 316.4501
133.5034, 320.4357
133.9855, 324.2211
134.4676, 327.3449
134.9497, 330.6715
135.4318, 334.7377
135.9139, 339.5614
136.3960, 344.8117
136.8782, 350.2672
137.3603, 356.0918
137.8424, 360.9357
138.3245, 365.0215
138.8066, 367.9617
139.2887, 369.2704
139.7709, 368.8336
140.2530, 366.7425
140.7351, 362.7678
141.2172, 357.1727
141.6993, 350.6321
142.1814, 342.3528
142.6636, 333.1207
143.1457, 325.8204
143.6278, 321.5384
144.1099, 319.1478
144.5920, 317.7743
145.0741, 317.3623
145.5563, 316.9546
146.0384, 315.3813
146.5205, 312.3908
147.0026, 310.4209
147.4847, 310.5302
147.9668, 311.4154
148.4490, 312.6210
148.9311, 313.9954
149.4132, 315.3899
149.8953, 316.4822
150.3774, 316.8055
150.8595, 317.8530
151.3417, 320.0307
151.8238, 322.6534
152.3059, 325.0687
152.7880, 327.0361
153.2701, 328.9623
153.7522, 331.8563
154.2344, 337.2591
154.7165, 341.9046
155.1986, 345.4089
155.6807, 348.1781
156.1628, 350.7596
156.6449, 353.4317
157.1271, 356.0474
157.6092, 357.9349
158.0913, 358.8726
158.5734, 359.5235
159.0555, 360.4620
159.5376, 361.3160
160.0198, 360.9046
160.5019, 358.1113
160.9840, 353.7973
161.4661, 351.2192
161.9482, 351.0976
162.4303, 351.8287
162.9125, 352.6712
163.3946, 353.6089
163.8767, 354.2067
164.3588, 354.0170
164.8409, 353.3464
165.3230, 352.6297
165.8052, 351.4700
166.2873, 350.7244
166.7694, 351.9179
167.2515, 355.7245
167.7336, 359.1751
168.2157, 360.7766
168.6979, 361.2374
169.1800, 361.2809
169.6621, 361.2260
170.1442, 360.9375
170.6263, 359.8598
171.1084, 356.9691
171.5906, 354.9877
172.0727, 355.0863
172.5548, 356.4208
173.0369, 357.7945
173.5190, 358.4335
174.0011, 358.4794
174.4833, 359.1412
174.9654, 361.8436
175.4475, 363.7361
175.9296, 363.3341
176.4117, 361.6858
176.8938, 360.7783
177.3760, 362.2127
177.8581, 366.0739
178.3402, 368.9672
178.8223, 370.0520
179.3044, 371.1089
179.7865, 373.2741
180.2687, 376.0825
180.7508, 377.9394
181.2329, 377.2244
181.7150, 373.5797
182.1971, 372.1778
182.6792, 374.4547
183.1614, 377.4137
183.6435, 379.2855
184.1256, 380.0283
184.6077, 380.8310
185.0898, 382.9510
185.5719, 386.4615
186.0541, 388.8408
186.5362, 388.6143
187.0183, 388.0499
187.5004, 389.6235
187.9825, 393.7034
188.4646, 397.9223
188.9468, 399.9634
189.4289, 400.2647
189.9110, 400.4969
190.3931, 400.8756
190.8752, 401.4435
191.3573, 402.3846
191.8395, 403.8860
192.3216, 405.2680
192.8037, 405.4265
193.2858, 404.9929
193.7679, 405.5338
194.2500, 408.7107
194.7322, 413.5041
195.2143, 416.5858
195.6964, 417.2230
196.1785, 417.0359
196.6606, 416.4785
197.1427, 415.8758
197.6249, 415.9810
198.1070, 417.6293
198.5891, 420.6153
199.0712, 422.8232
199.5533, 423.4758
200.0354, 424.1549
200.5176, 425.6275
200.9997, 427.6100
201.4818, 429.3561
201.9639, 430.0150
202.4460, 429.5182
202.9281, 430.5314
203.4103, 435.4465
203.8924, 439.7569
204.3745, 441.4992
204.8566, 441.3763
205.3387, 441.4389
205.8208, 443.6935
206.3030, 448.6068
206.7851, 451.3595
207.2672, 449.8785
207.7493, 448.4339
208.2314, 448.9178
208.7135, 451.0535
209.1957, 453.4275
209.6778, 454.8321
210.1599, 455.2198
210.6420, 454.7006
211.1241, 452.2086
211.6062, 449.9135
212.0884, 449.0574
212.5705, 449.5601
213.0526, 450.4750
213.5347, 450.9783
214.0168, 451.0008
214.4989, 451.2617
214.9811, 451.3176
215.4632, 451.9149
215.9453, 454.2181
216.4274, 458.0612
216.9095, 461.2406
217.3916, 461.4983
217.8737, 458.7726
218.3559, 457.4767
218.8380, 459.1188
219.3201, 461.2864
219.8022, 461.2616
220.2843, 458.8489
220.7664, 457.3576
221.2486, 460.3428
221.7307, 466.7267
222.2128, 471.6386
222.6949, 473.5754
223.1770, 474.1555
223.6591, 475.1529
224.1413, 476.6951
224.6234, 478.1078
225.1055, 478.3024
225.5876, 478.0511
226.0697, 478.8826
226.5518, 481.7690
227.0340, 485.6500
227.5161, 489.0750
227.9982, 492.0391
228.4803, 494.5423
228.9624, 495.7946
229.4445, 496.7429
229.9267, 498.8590
230.4088, 503.3205
230.8909, 508.6908
231.3730, 512.1385
231.8551, 513.1760
232.3372, 513.4419
232.8194, 512.6061
233.3015, 511.7772
233.7836, 512.4410
234.2657, 515.4940
234.7478, 519.9340
235.2299, 523.5702
235.7121, 526.3344
236.1942, 528.3700
236.6763, 529.7096
237.1584, 530.4969
237.6405, 530.7746
238.1227, 530.5021
238.6048, 529.9538
239.0869, 529.7577
239.5690, 529.6787
240.0511, 530.4777
240.5332, 532.7047
241.0154, 535.5359
241.4975, 538.2926
241.9796, 540.6954
242.4617, 542.6256
242.9438, 543.6846
243.4259, 543.1273
243.9081, 542.8363
244.3902, 542.4052
244.8723, 542.5835
245.3544, 544.1991
245.8365, 547.5630
246.3186, 552.1253
246.8008, 556.7803
247.2829, 562.5972
247.7650, 566.7573
248.2471, 567.9352
248.7292, 568.1430
249.2113, 569.2451
249.6935, 571.8696
250.1756, 575.3015
250.6577, 578.1152
251.1398, 579.0639
251.6219, 581.2396
252.1040, 585.8941
252.5862, 591.0296
253.0683, 594.7399
253.5504, 596.4968
254.0325, 597.3254
254.5146, 598.8790
254.9967, 601.5935
255.4789, 604.3167
255.9610, 606.7653
256.4431, 609.3698
256.9252, 612.3790
257.4073, 615.8924
257.8894, 620.1324
258.3716, 625.5406
258.8537, 632.9304
259.3358, 639.3152
259.8179, 644.0035
260.3000, 648.1309
260.7821, 652.7746
261.2643, 658.1077
261.7464, 663.3634
262.2285, 667.5265
262.7106, 670.1780
263.1927, 674.2156
263.6748, 681.0147
264.1570, 688.3537
264.6391, 694.2500
265.1212, 698.5243
265.6033, 702.4226
266.0854, 707.2690
266.5675, 713.0513
267.0497, 717.2654
267.5318, 718.6801
268.0139, 719.3026
268.4960, 720.6466
268.9781, 722.7920
269.4602, 725.1472
269.9424, 727.3599
270.4245, 729.3994
270.9066, 731.2452
271.3887, 732.9437
271.8708, 734.4226
272.3529, 735.2065
272.8351, 735.4186
273.3172, 736.4957
273.7993, 739.8190
274.2814, 744.5866
274.7635, 748.0208
275.2456, 748.6548
275.7278, 749.5134
276.2099, 753.1656
276.6920, 759.2802
277.1741, 765.1088
277.6562, 769.1567
278.1383, 772.2175
278.6205, 775.9681
279.1026, 780.6239
279.5847, 785.5754
280.0668, 790.2896
280.5489, 794.8942
281.0310, 800.0918
281.5132, 806.3492
281.9953, 813.1217
282.4774, 819.5949
282.9595, 825.7523
283.4416, 831.7032
283.9237, 837.6045
284.4059, 843.3690
284.8880, 848.5646
285.3701, 852.6063
285.8522, 856.6881
286.3343, 862.0825
286.8164, 868.7228
287.2986, 875.6810
287.7807, 882.7814
288.2628, 889.8666
288.7449, 896.1627
289.2270, 901.0366
289.7091, 906.1247
290.1913, 913.2067
290.6734, 921.7390
291.1555, 929.9789
291.6376, 937.1024
292.1197, 943.3105
292.6018, 948.9535
293.0840, 953.5796
293.5661, 958.6831
294.0482, 965.1688
294.5303, 972.7544
295.0124, 981.2420
295.4945, 990.8312
295.9767, 1001.068
296.4588, 1011.084
296.9409, 1020.747
297.4230, 1030.675
297.9051, 1042.011
298.3872, 1053.646
298.8694, 1064.279
299.3515, 1073.518
299.8336, 1081.669
300.3157, 1088.495
300.7978, 1093.539
301.2799, 1100.283
301.7621, 1111.260
302.2442, 1124.059
302.7263, 1137.174
303.2084, 1150.576
303.6905, 1162.935
304.1726, 1172.476
304.6548, 1179.047
305.1369, 1185.896
305.6190, 1193.721
306.1011, 1202.258
306.5832, 1211.407
307.0653, 1221.140
307.5475, 1230.991
308.0296, 1240.334
308.5117, 1249.258
308.9938, 1259.133
309.4759, 1270.406
309.9580, 1282.419
310.4402, 1295.318
310.9223, 1308.651
311.4044, 1320.815
311.8865, 1330.320
312.3686, 1337.642
312.8507, 1344.871
313.3329, 1351.494
313.8150, 1359.009
314.2971, 1367.483
314.7792, 1377.365
315.2613, 1389.885
315.7434, 1407.049
316.2256, 1426.307
316.7077, 1442.192
317.1898, 1454.263
317.6719, 1464.446
318.1540, 1471.417
318.6361, 1477.867
319.1183, 1487.188
319.6004, 1501.111
320.0825, 1516.297
320.5646, 1528.026
321.0467, 1535.750
321.5288, 1543.521
322.0110, 1552.523
322.4931, 1562.158
322.9752, 1572.221
323.4573, 1582.663
323.9394, 1592.749
324.4215, 1601.555
324.9037, 1609.062
325.3858, 1616.914
325.8679, 1626.076
326.3500, 1634.891
326.8321, 1642.164
327.3142, 1648.026
327.7964, 1653.347
328.2785, 1658.659
328.7606, 1663.904
329.2427, 1669.048
329.7248, 1674.809
330.2069, 1679.113
330.6891, 1679.543
331.1712, 1677.782
331.6533, 1677.461
332.1354, 1681.082
332.6175, 1686.729
333.0996, 1690.547
333.5818, 1692.255
334.0639, 1693.080
334.5460, 1693.356
335.0281, 1693.181
335.5102, 1692.395
335.9923, 1690.567
336.4745, 1688.997
336.9566, 1689.692
337.4387, 1692.826
337.9208, 1695.086
338.4029, 1694.531
338.8850, 1693.223
339.3671, 1693.378
339.8492, 1695.274
340.3314, 1697.080
340.8135, 1696.850
341.2956, 1695.057
341.7777, 1694.921
342.2598, 1698.065
342.7419, 1701.473
343.2241, 1702.781
343.7062, 1702.197
344.1883, 1700.505
344.6704, 1697.032
345.1525, 1692.872
345.6346, 1690.839
346.1168, 1691.805
346.5989, 1692.536
347.0810, 1690.182
347.5631, 1686.017
348.0452, 1682.071
348.5273, 1678.781
349.0095, 1676.002
349.4916, 1673.728
349.9737, 1671.983
350.4558, 1670.266
350.9379, 1668.927
351.4200, 1667.083
351.9022, 1663.360
352.3843, 1657.238
352.8664, 1650.557
353.3485, 1643.915
353.8306, 1637.585
354.3127, 1632.822
354.7949, 1630.354
355.2770, 1628.931
355.7591, 1627.520
356.2412, 1626.203
356.7233, 1623.153
357.2054, 1617.032
357.6876, 1608.987
358.1697, 1600.399
358.6518, 1591.268
359.1339, 1582.868
359.6160, 1577.268
360.0981, 1573.669
360.5803, 1567.932
361.0624, 1557.447
361.5445, 1546.258
362.0266, 1537.474
362.5087, 1531.023
362.9908, 1526.201
363.4730, 1523.515
363.9551, 1521.648
364.4372, 1516.559
364.9193, 1506.694
365.4014, 1496.566
365.8835, 1487.612
366.3657, 1479.775
366.8478, 1473.227
367.3299, 1468.285
367.8120, 1463.672
368.2941, 1456.943
368.7762, 1447.254
369.2584, 1439.312
369.7405, 1435.149
370.2226, 1432.238
370.7047, 1428.332
371.1868, 1423.077
371.6689, 1417.029
372.1511, 1410.443
372.6332, 1403.289
373.1153, 1397.054
373.5974, 1391.760
374.0795, 1387.206
374.5616, 1383.078
375.0438, 1379.587
375.5259, 1377.680
376.0080, 1378.227
376.4901, 1379.929
376.9722, 1378.071
377.4543, 1368.427
377.9365, 1360.731
378.4186, 1357.405
378.9007, 1355.848
379.3828, 1352.995
379.8649, 1348.066
380.3470, 1342.814
380.8292, 1339.657
381.3113, 1339.016
381.7934, 1339.494
382.2755, 1342.567
382.7576, 1345.338
383.2397, 1345.651
383.7219, 1344.024
384.2040, 1342.612
384.6861, 1343.179
385.1682, 1345.576
385.6503, 1347.297
386.1324, 1347.031
386.6146, 1347.557
387.0967, 1349.844
387.5788, 1353.033
388.0609, 1356.089
388.5430, 1358.556
389.0251, 1360.626
389.5073, 1362.544
389.9894, 1363.612
390.4715, 1366.075
390.9536, 1370.853
391.4357, 1376.199
391.9178, 1381.412
392.4000, 1386.186
392.8821, 1390.138
393.3642, 1392.441
393.8463, 1392.994
394.3284, 1395.403
394.8105, 1401.047
395.2927, 1407.111
395.7748, 1412.580
396.2569, 1417.797
396.7390, 1423.524
397.2211, 1430.259
397.7032, 1437.469
398.1854, 1443.662
398.6675, 1448.214
399.1496, 1453.755
399.6317, 1462.622
400.1138, 1471.837
400.5959, 1478.483
401.0781, 1482.133
401.5602, 1486.212
402.0423, 1494.881
402.5244, 1507.542
403.0065, 1517.403
403.4886, 1521.780
403.9708, 1525.955
404.4529, 1534.372
404.9350, 1545.609
405.4171, 1555.744
405.8992, 1562.563
406.3813, 1567.535
406.8635, 1572.991
407.3456, 1579.013
407.8277, 1584.758
408.3098, 1589.431
408.7919, 1593.829
409.2740, 1599.162
409.7562, 1605.519
410.2383, 1612.804
410.7204, 1621.698
411.2025, 1631.571
411.6846, 1640.529
412.1667, 1647.942
412.6489, 1654.897
413.1310, 1662.387
413.6131, 1670.389
414.0952, 1679.845
414.5773, 1693.369
415.0594, 1706.782
415.5416, 1715.287
416.0237, 1719.202
416.5058, 1723.252
416.9879, 1730.586
417.4700, 1740.589
417.9521, 1749.858
418.4343, 1757.761
418.9164, 1765.805
419.3985, 1775.437
419.8806, 1785.161
420.3627, 1791.869
420.8448, 1794.635
421.3270, 1796.866
421.8091, 1803.778
422.2912, 1817.374
422.7733, 1830.165
423.2554, 1842.826
423.7375, 1854.146
424.2197, 1862.803
424.7018, 1869.278
425.1839, 1875.100
425.6660, 1881.316
426.1481, 1887.856
426.6302, 1894.476
427.1124, 1902.419
427.5945, 1908.748
428.0766, 1912.143
428.5587, 1914.272
429.0408, 1917.360
429.5229, 1921.896
430.0051, 1925.808
430.4872, 1926.086
430.9693, 1922.194
431.4514, 1916.982
431.9335, 1909.799
432.4156, 1901.808
432.8978, 1892.942
433.3799, 1883.589
433.8620, 1874.498
434.3441, 1866.431
434.8262, 1858.783
435.3083, 1849.705
435.7905, 1838.724
436.2726, 1827.691
436.7547, 1817.575
437.2368, 1807.464
437.7189, 1795.943
438.2010, 1782.560
438.6832, 1770.436
439.1653, 1763.477
439.6474, 1760.560
440.1295, 1755.281
440.6116, 1745.900
441.0938, 1735.512
441.5759, 1726.173
442.0580, 1717.890
442.5401, 1711.051
443.0222, 1707.761
443.5043, 1704.622
443.9865, 1697.326
444.4686, 1686.403
444.9507, 1676.556
445.4328, 1670.281
445.9149, 1666.131
446.3970, 1661.006
446.8792, 1655.155
447.3613, 1648.028
447.8434, 1638.723
448.3255, 1628.405
448.8076, 1618.286
449.2897, 1608.582
449.7719, 1599.380
450.2540, 1590.706
450.7361, 1582.532
451.2182, 1575.429
451.7003, 1570.341
452.1824, 1565.131
452.6646, 1559.224
453.1467, 1552.601
453.6288, 1545.251
454.1109, 1537.147
454.5930, 1528.607
455.0751, 1520.159
455.5573, 1511.714
456.0394, 1503.547
456.5215, 1495.230
457.0036, 1487.494
457.4857, 1480.558
457.9678, 1474.554
458.4500, 1469.787
458.9321, 1466.944
459.4142, 1465.376
459.8963, 1460.850
460.3784, 1450.510
460.8605, 1442.373
461.3427, 1440.276
461.8248, 1440.125
462.3069, 1437.634
462.7890, 1431.740
463.2711, 1425.390
463.7532, 1422.061
464.2354, 1421.467
464.7175, 1419.873
465.1996, 1416.932
465.6817, 1412.767
466.1638, 1406.796
466.6459, 1399.725
467.1281, 1393.316
467.6102, 1388.170
468.0923, 1383.933
468.5744, 1380.122
469.0565, 1376.774
469.5386, 1374.954
470.0208, 1376.021
470.5029, 1377.615
470.9850, 1374.677
471.4671, 1366.055
471.9492, 1360.089
472.4313, 1361.178
472.9135, 1364.596
473.3956, 1365.925
473.8777, 1364.563
474.3598, 1360.560
474.8419, 1353.255
475.3240, 1343.293
475.8062, 1337.262
476.2883, 1338.104
476.7704, 1338.677
477.2525, 1338.082
477.7346, 1336.241
478.2167, 1332.707
478.6989, 1327.513
479.1810, 1321.904
479.6631, 1317.375
480.1452, 1314.085
480.6273, 1311.208
481.1094, 1308.865
481.5916, 1306.820
482.0737, 1305.180
482.5558, 1303.751
483.0379, 1302.314
483.5200, 1300.804
484.0021, 1298.967
484.4843, 1295.910
484.9664, 1291.028
485.4485, 1287.736
485.9306, 1289.027
486.4127, 1290.099
486.8948, 1287.048
487.3770, 1280.480
487.8591, 1274.522
488.3412, 1272.494
488.8233, 1272.368
489.3054, 1269.981
489.7875, 1265.101
490.2697, 1260.062
490.7518, 1255.396
491.2339, 1251.789
491.7160, 1250.776
492.1981, 1253.975
492.6802, 1255.053
493.1624, 1248.927
493.6445, 1239.924
494.1266, 1235.105
494.6087, 1235.559
495.0908, 1236.596
495.5729, 1233.831
496.0551, 1227.334
496.5372, 1222.994
497.0193, 1222.217
497.5014, 1221.610
497.9835, 1220.609
498.4656, 1218.979
498.9478, 1216.001
499.4299, 1211.567
499.9120, 1207.166
500.3941, 1205.225
500.8762, 1206.730
501.3583, 1206.698
501.8405, 1203.897
502.3226, 1200.805
502.8047, 1198.185
503.2868, 1195.923
503.7689, 1193.649
504.2510, 1191.104
504.7331, 1188.722
505.2152, 1187.452
505.6974, 1187.498
506.1795, 1187.341
506.6616, 1186.233
507.1437, 1185.279
507.6258, 1185.858
508.1079, 1187.563
508.5901, 1188.114
509.0722, 1186.005
509.5543, 1182.317
510.0364, 1178.037
510.5185, 1173.219
511.0006, 1169.719
511.4828, 1169.090
511.9649, 1169.706
512.4470, 1167.859
512.9291, 1162.671
513.4113, 1158.443
513.8934, 1156.429
514.3755, 1155.823
514.8576, 1156.380
515.3397, 1157.770
515.8218, 1158.750
516.3040, 1158.439
516.7861, 1156.890
517.2682, 1154.509
517.7503, 1149.324
518.2324, 1145.802
518.7145, 1145.514
519.1967, 1146.340
519.6788, 1146.424
520.1609, 1145.381
520.6430, 1143.785
521.1251, 1142.167
521.6072, 1140.516
522.0894, 1138.746
522.5715, 1136.880
523.0536, 1134.842
523.5357, 1132.275
524.0178, 1129.690
524.4999, 1127.708
524.9821, 1126.506
525.4642, 1125.680
525.9463, 1125.387
526.4284, 1125.286
526.9105, 1123.445
527.3926, 1119.017
527.8748, 1114.649
528.3569, 1112.963
528.8390, 1113.073
529.3211, 1111.849
529.8032, 1107.903
530.2853, 1103.809
530.7675, 1101.217
531.2496, 1099.434
531.7317, 1096.952
532.2138, 1093.309
532.6959, 1089.530
533.1780, 1086.899
533.6602, 1085.590
534.1423, 1084.360
534.6244, 1084.143
535.1065, 1082.975
535.5886, 1079.191
536.0707, 1074.251
536.5529, 1070.595
537.0350, 1069.179
537.5171, 1068.516
537.9992, 1066.297
538.4813, 1062.311
538.9634, 1057.838
539.4456, 1051.755
539.9277, 1046.548
540.4098, 1043.634
540.8919, 1042.387
541.3740, 1041.674
541.8561, 1041.430
542.3383, 1040.750
542.8204, 1038.161
543.3025, 1033.880
543.7846, 1029.857
544.2667, 1026.312
544.7488, 1023.674
545.2310, 1023.149
545.7131, 1024.427
546.1952, 1024.429
546.6773, 1021.660
547.1594, 1018.443
547.6415, 1016.639
548.1237, 1015.588
548.6058, 1013.138
549.0879, 1008.363
549.5700, 1003.121
550.0521, 1000.517
550.5342, 1001.315
551.0164, 1002.593
551.4985, 1006.729
551.9806, 1008.874
552.4627, 1004.894
552.9448, 997.7126
553.4269, 992.9756
553.9091, 993.4468
554.3912, 996.5992
554.8733, 998.2335
555.3554, 998.2073
555.8375, 997.6247
556.3196, 996.4603
556.8018, 994.9035
557.2839, 992.8714
557.7660, 990.5607
558.2481, 988.4901
558.7302, 986.4334
559.2123, 985.1917
559.6945, 986.0305
560.1766, 988.5363
560.6587, 990.8229
561.1408, 992.2711
561.6229, 993.5306
562.1050, 995.7049
562.5872, 999.1122
563.0693, 1000.632
563.5514, 997.3592
564.0335, 995.0807
564.5156, 998.1691
564.9977, 1004.052
565.4799, 1007.861
565.9620, 1007.659
566.4441, 1005.349
566.9262, 1003.598
567.4083, 1002.010
567.8904, 1002.599
568.3726, 1008.086
568.8547, 1012.991
569.3368, 1015.146
569.8189, 1015.545
570.3010, 1015.957
570.7831, 1017.098
571.2653, 1018.129
571.7474, 1017.430
572.2295, 1015.389
572.7116, 1015.374
573.1937, 1018.411
573.6758, 1022.314
574.1580, 1025.301
574.6401, 1027.653
575.1222, 1030.463
575.6043, 1032.516
576.0864, 1036.543
576.5685, 1045.625
577.0507, 1057.050
577.5328, 1066.137
578.0149, 1071.781
578.4970, 1076.349
578.9791, 1082.571
579.4612, 1090.617
579.9434, 1096.112
580.4255, 1099.142
580.9076, 1099.356
581.3897, 1096.113
581.8718, 1090.297
582.3539, 1082.987
582.8361, 1074.349
583.3182, 1063.642
583.8003, 1047.713
584.2824, 1027.969
584.7645, 1015.512
585.2466, 1011.839
585.7288, 1011.240
586.2108, 1012.644
586.6929, 1014.714
587.1750, 1015.272
587.6572, 1013.681
588.1393, 1012.699
588.6214, 1013.864
589.1035, 1016.205
589.5856, 1019.309
590.0677, 1022.754
590.5499, 1024.165
591.0320, 1021.925
591.5141, 1016.635
591.9962, 1010.530
592.4783, 1003.444
592.9604, 995.7482
593.4426, 987.3104
593.9247, 978.4123
594.4068, 969.0049
594.8889, 959.3172
595.3710, 949.4549
595.8531, 939.0681
596.3353, 929.5673
596.8174, 924.7415
597.2995, 925.4259
597.7816, 926.2186
598.2637, 926.1000
598.7458, 925.5314
599.2280, 924.7543
599.7101, 923.8464
600.1922, 923.2314
600.6743, 922.8478
601.1564, 922.9673
601.6385, 923.5240
602.1207, 924.7499
602.6028, 927.6556
603.0849, 932.6584
603.5670, 938.2492
604.0491, 942.4172
604.5313, 944.8287
605.0134, 947.8657
605.4955, 953.0338
605.9776, 957.0270
606.4597, 960.2228
606.9418, 961.0423
607.4240, 956.6447
607.9061, 946.5801
608.3882, 934.7037
608.8703, 925.5278
609.3524, 918.8038
609.8345, 910.6334
610.3167, 900.1724
610.7988, 890.3112
611.2809, 881.8766
611.7630, 875.2331
612.2451, 871.1927
612.7272, 870.2750
613.2094, 869.9203
613.6915, 869.4471
614.1736, 868.6292
614.6557, 867.1195
615.1378, 864.9377
615.6199, 862.3558
616.1021, 859.4730
616.5842, 856.4888
617.0663, 854.0838
617.5484, 853.4899
618.0305, 851.2712
618.5126, 846.4092
618.9948, 841.0204
619.4769, 835.7948
619.9590, 831.0653
620.4411, 827.3683
620.9232, 825.0443
621.4053, 823.4920
621.8875, 821.6094
622.3696, 819.4193
622.8517, 818.3101
623.3338, 819.0297
623.8159, 819.8909
624.2980, 819.4689
624.7802, 818.0526
625.2623, 816.5350
625.7444, 815.3434
626.2265, 813.6493
626.7086, 810.3765
627.1907, 806.6580
627.6729, 804.1200
628.1550, 803.0349
628.6371, 802.7379
629.1192, 802.7428
629.6013, 802.9669
630.0834, 802.7446
630.5656, 802.0741
631.0477, 800.9149
631.5298, 798.4657
632.0119, 796.2062
632.4940, 795.8716
632.9761, 797.0225
633.4583, 797.0360
633.9404, 793.4608
634.4225, 788.6083
634.9046, 786.2228
635.3867, 786.1528
635.8688, 786.5534
636.3510, 786.8690
636.8331, 787.4498
637.3152, 789.1260
637.7973, 792.1300
638.2794, 793.0365
638.7615, 789.5596
639.2437, 786.4883
639.7258, 786.4749
640.2079, 787.7979
640.6900, 788.0358
641.1721, 786.5515
641.6542, 784.1620
642.1364, 781.3979
642.6185, 778.3911
643.1006, 777.2943
643.5827, 779.3823
644.0648, 780.5517
644.5469, 778.3065
645.0291, 775.1409
645.5112, 773.2116
645.9933, 772.6786
646.4754, 772.5121
646.9575, 772.9106
647.4396, 772.9885
647.9218, 771.2631
648.4039, 768.2194
648.8860, 766.0523
649.3681, 765.7010
649.8502, 766.1287
650.3323, 765.8444
650.8145, 764.8867
651.2966, 762.9999
651.7787, 758.4846
652.2608, 755.0378
652.7429, 754.8915
653.2250, 755.9478
653.7072, 755.5157
654.1893, 752.9278
654.6714, 749.6349
655.1535, 746.3358
655.6356, 743.4268
656.1177, 742.8666
656.5999, 745.1092
657.0820, 746.0958
657.5641, 743.1627
658.0462, 738.6315
658.5283, 737.0864
659.0104, 739.0927
659.4926, 740.4681
659.9747, 740.7528
660.4568, 740.1356
660.9389, 737.9489
661.4210, 735.0866
661.9031, 733.7125
662.3853, 734.5825
662.8674, 735.4008
663.3495, 732.0237
663.8316, 723.9271
664.3137, 720.2924
664.7958, 724.0163
665.2780, 726.9286
665.7601, 723.9012
666.2422, 718.8185
666.7243, 716.3130
667.2064, 717.1680
667.6885, 718.0313
668.1707, 717.9219
668.6528, 716.6304
669.1349, 712.8593
669.6170, 707.4266
670.0991, 703.8998
670.5812, 704.0702
671.0634, 705.9069
671.5455, 705.8071
672.0276, 703.0701
672.5097, 701.0798
672.9918, 701.1744
673.4739, 700.5504
673.9561, 697.1722
674.4382, 693.1284
674.9203, 691.4313
675.4024, 692.8276
675.8845, 694.5535
676.3666, 694.4290
676.8488, 693.0280
677.3309, 691.3401
677.8130, 689.4358
678.2951, 688.1564
678.7772, 688.2789
679.2593, 688.4886
679.7415, 686.0731
680.2236, 679.3495
680.7057, 675.2881
681.1878, 676.2940
681.6699, 677.2967
682.1520, 675.2261
682.6342, 671.9466
683.1163, 670.9242
683.5984, 673.0313
684.0805, 675.1296
684.5626, 672.9694
685.0447, 667.6351
685.5269, 665.4772
686.0090, 667.2236
686.4911, 668.4774
686.9732, 667.2499
687.4553, 664.5915
687.9374, 661.9934
688.4196, 659.4105
688.9017, 657.2448
689.3838, 655.8071
689.8659, 654.5710
690.3480, 653.3242
690.8301, 652.0325
691.3123, 650.5806
691.7944, 648.9655
692.2765, 647.4775
692.7586, 646.3325
693.2407, 645.5645
693.7228, 646.0217
694.2050, 648.7397
694.6871, 649.8295
695.1692, 646.5316
695.6513, 641.9780
696.1334, 639.8058
696.6155, 640.0251
697.0977, 639.4500
697.5798, 635.5645
698.0619, 632.0299
698.5440, 632.3969
699.0261, 634.9599
699.5082, 636.1295
699.9904, 634.8993
700.4725, 632.7570
700.9546, 631.3256
701.4367, 630.5231
701.9188, 628.8401
702.4009, 625.1671
702.8831, 622.8455
703.3652, 624.8446
703.8473, 626.8866
704.3294, 624.6603
704.8115, 618.9510
705.2936, 615.5428
705.7758, 619.1079
706.2579, 623.5203
706.7400, 623.3739
707.2221, 620.2989
707.7042, 617.7971
708.1863, 616.7102
708.6685, 616.1749
709.1506, 615.4276
709.6327, 614.5178
710.1148, 613.9246
710.5969, 614.5135
711.0790, 613.8035
711.5612, 609.8295
712.0433, 605.9663
712.5254, 604.5262
713.0075, 605.0612
713.4896, 605.8566
713.9717, 606.4510
714.4539, 606.7220
714.9360, 606.9076
715.4181, 606.6213
715.9002, 604.4617
716.3823, 600.3433
716.8644, 596.6271
717.3466, 595.0245
717.8287, 595.1592
718.3108, 595.7206
718.7929, 597.4991
719.2750, 598.1732
719.7571, 597.2017
720.2393, 595.6571
720.7214, 594.0829
721.2035, 592.3191
721.6856, 589.7491
722.1677, 585.9456
722.6498, 582.5906
723.1320, 581.0787
723.6141, 581.0214
724.0962, 582.2943
724.5783, 584.6628
725.0604, 585.6627
725.5425, 583.7402
726.0247, 580.3458
726.5068, 578.4938
726.9889, 578.9417
727.4710, 578.6270
727.9531, 577.3431
728.4352, 575.5567
728.9174, 572.3488
729.3995, 569.2338
729.8816, 568.6005
730.3637, 570.8623
730.8458, 573.0034
731.3279, 572.9515
731.8101, 571.4261
732.2922, 569.0468
732.7743, 566.0891
733.2564, 564.1266
733.7385, 563.8045
734.2206, 564.1991
734.7028, 564.2083
735.1849, 563.8278
735.6670, 563.1153
736.1491, 561.4462
736.6312, 560.2550
737.1133, 560.2631
737.5955, 560.4709
738.0776, 559.9141
738.5597, 558.6493
739.0418, 557.4954
739.5239, 556.8256
740.0060, 556.5125
740.4882, 556.6238
740.9703, 556.9667
741.4524, 556.7899
741.9345, 555.9425
742.4166, 555.3863
742.8987, 556.1163
743.3809, 557.6469
743.8630, 557.4190
744.3451, 553.4499
744.8272, 551.3515
745.3093, 553.0969
745.7914, 555.0336
746.2736, 554.6251
746.7557, 553.0645
747.2378, 553.4457
747.7199, 557.4496
748.2020, 560.3835
748.6841, 557.0017
749.1663, 550.8951
749.6484, 548.2894
750.1305, 549.3518
750.6126, 551.5724
751.0947, 553.8586
751.5768, 555.4645
752.0590, 554.6649
752.5411, 550.3810
753.0232, 548.8914
753.5053, 552.4745
753.9874, 555.8521
754.4695, 557.4395
754.9517, 558.0277
755.4338, 558.1672
755.9159, 557.9855
756.3980, 558.2555
756.8801, 559.9157
757.3622, 561.7031
757.8444, 562.1642
758.3265, 561.8121
758.8086, 561.7924
759.2907, 562.4326
759.7728, 563.8082
760.2549, 566.2449
760.7371, 569.3114
761.2192, 569.9097
761.7013, 566.4567
762.1834, 564.8424
762.6655, 567.1708
763.1476, 570.5160
763.6298, 572.9904
764.1119, 574.8878
764.5940, 577.2330
765.0761, 581.0027
765.5582, 583.6509
766.0403, 582.9515
766.5225, 581.1470
767.0046, 580.4186
767.4867, 580.9919
767.9688, 582.8014
768.4509, 585.8629
768.9330, 588.9789
769.4152, 589.8572
769.8973, 588.3878
770.3794, 587.6547
770.8615, 587.6950
771.3436, 588.5485
771.8257, 590.6703
772.3079, 593.3023
772.7900, 595.3538
773.2721, 596.7961
773.7542, 598.0592
774.2363, 598.7784
774.7184, 599.8243
775.2006, 602.2143
775.6827, 604.9022
776.1648, 606.3634
776.6469, 606.4669
777.1290, 606.2765
777.6111, 606.4464
778.0933, 607.1180
778.5754, 609.0952
779.0575, 612.2901
779.5396, 613.8942
780.0217, 612.9943
780.5038, 611.8355
780.9860, 612.2809
781.4681, 613.8626
781.9502, 614.5173
782.4323, 613.0714
782.9144, 612.6636
783.3965, 614.8888
783.8787, 616.7321
784.3608, 615.7736
784.8429, 613.4284
785.3250, 612.3395
785.8071, 613.3422
786.2892, 615.1202
786.7714, 617.1689
787.2535, 618.9692
787.7356, 619.1906
788.2177, 618.0578
788.6998, 617.3360
789.1819, 617.6746
789.6641, 618.6124
790.1462, 619.7296
790.6283, 621.0219
791.1104, 621.3160
791.5925, 619.9636
792.0746, 618.7018
792.5568, 617.5383
793.0389, 616.8079
793.5210, 616.9501
794.0031, 617.7492
794.4852, 618.5294
794.9673, 619.3350
795.4495, 619.5976
795.9316, 618.3804
796.4137, 616.7492
796.8958, 616.3388
797.3779, 616.9540
797.8600, 617.0939
798.3422, 615.9676
798.8243, 614.2943
799.3064, 613.1542
799.7885, 612.5425
800.2706, 612.6127
800.7527, 613.8376
801.2349, 614.2026
801.7170, 612.1356
802.1991, 609.5051
802.6812, 609.4652
803.1633, 612.0561
803.6454, 612.6823
804.1276, 608.1196
804.6097, 604.9609
805.0918, 607.1905
805.5739, 610.9845
806.0560, 612.4330
806.5381, 611.3615
807.0203, 609.6819
807.5024, 608.4418
807.9845, 607.2974
808.4666, 605.5967
808.9487, 603.5659
809.4308, 602.0245
809.9130, 601.0630
810.3951, 600.8127
810.8772, 601.4716
811.3593, 602.5964
811.8414, 603.3304
812.3235, 603.7054
812.8057, 603.5533
813.2878, 602.1459
813.7699, 601.1140
814.2520, 601.0703
814.7341, 601.4795
815.2162, 601.8150
815.6984, 602.0396
816.1805, 602.3936
816.6626, 603.6179
817.1447, 604.3450
817.6268, 602.9520
818.1089, 600.6669
818.5911, 599.3207
819.0732, 599.1864
819.5553, 599.8453
820.0374, 601.1111
820.5195, 602.5502
821.0016, 603.0793
821.4838, 602.6544
821.9659, 603.2349
822.4480, 605.6215
822.9301, 606.7040
823.4122, 604.1992
823.8943, 600.0756
824.3765, 597.6816
824.8586, 597.2042
825.3407, 597.4900
825.8228, 599.6881
826.3049, 601.2106
826.7870, 600.3249
827.2692, 598.8940
827.7513, 599.1533
828.2334, 600.9849
828.7155, 602.3398
829.1976, 601.7604
829.6797, 600.9186
830.1619, 602.3271
830.6440, 604.7828
831.1261, 605.1338
831.6082, 603.1912
832.0903, 601.0197
832.5724, 599.7371
833.0546, 599.2759
833.5367, 599.6626
834.0188, 601.0988
834.5009, 602.0004
834.9830, 602.4720
835.4651, 602.1725
835.9473, 600.5603
836.4294, 598.4291
836.9115, 596.6615
837.3936, 595.2417
837.8757, 593.6669
838.3578, 591.5663
838.8400, 589.6617
839.3221, 588.1700
839.8042, 587.0351
840.2863, 586.5714
840.7684, 586.4135
841.2505, 585.4378
841.7327, 582.9935
842.2148, 580.2909
842.6969, 579.3436
843.1790, 579.1943
843.6611, 576.7899
844.1432, 572.1061
844.6254, 567.4271
845.1075, 563.6940
845.5896, 560.3898
846.0717, 556.7379
846.5538, 552.7496
847.0359, 549.6215
847.5181, 548.3936
848.0002, 545.9981
848.4823, 540.6522
848.9644, 535.0386
849.4465, 530.7623
849.9286, 527.6947
850.4108, 525.3660
850.8929, 523.8574
851.3750, 522.7289
851.8571, 522.9713
852.3392, 522.5155
852.8214, 519.1122
853.3035, 513.8113
853.7856, 508.6969
854.2677, 504.4955
854.7498, 501.0046
855.2319, 497.8416
855.7141, 495.3537
856.1962, 495.1459
856.6783, 496.6999
857.1604, 496.1644
857.6425, 492.5509
858.1246, 487.3199
858.6068, 481.2309
859.0889, 475.0696
859.5710, 472.0943
860.0531, 474.2727
860.5352, 474.3574
861.0173, 470.3263
861.4995, 466.5079
861.9816, 465.3029
862.4637, 465.1561
862.9458, 464.1785
863.4279, 462.2347
863.9100, 459.5245
864.3922, 455.1217
864.8743, 451.0515
865.3564, 448.7570
865.8385, 447.1715
866.3206, 444.6087
866.8027, 441.3296
867.2849, 439.4193
867.7670, 440.3900
868.2491, 441.9676
868.7312, 441.0584
869.2133, 438.4142
869.6954, 436.0514
870.1776, 434.1408
870.6597, 432.4937
871.1418, 431.0374
871.6239, 429.7197
872.1060, 428.5192
872.5881, 427.4346
873.0703, 425.9059
873.5524, 423.9540
874.0345, 421.4709
874.5166, 417.8820
874.9987, 414.3642
875.4808, 411.7545
875.9630, 409.9507
876.4451, 408.7866
876.9272, 408.7263
877.4093, 408.2802
877.8914, 407.2645
878.3735, 405.6660
878.8557, 402.8517
879.3378, 399.7066
879.8199, 397.8177
880.3020, 397.3641
880.7841, 396.5441
881.2662, 393.4967
881.7484, 390.0244
882.2305, 388.5538
882.7126, 388.3653
883.1947, 387.8287
883.6768, 386.6703
884.1589, 385.2758
884.6411, 383.8976
885.1232, 382.4208
885.6053, 380.3421
886.0874, 377.6083
886.5695, 376.5637
887.0516, 377.8465
887.5338, 378.2800
888.0159, 376.1806
888.4980, 373.4968
888.9801, 372.6957
889.4622, 373.7698
889.9443, 374.0404
890.4265, 373.2913
890.9086, 372.0619
891.3907, 369.8975
891.8728, 367.7506
892.3549, 366.1402
892.8370, 364.9950
893.3192, 364.2220
893.8013, 363.8704
894.2834, 363.2466
894.7655, 361.2575
895.2476, 359.5732
895.7297, 360.5898
896.2119, 362.4995
896.6940, 361.6470
897.1761, 357.8569
897.6582, 354.5569
898.1403, 354.2281
898.6224, 355.3211
899.1046, 355.5358
899.5867, 354.9576
900.0688, 353.7469
900.5509, 351.9495
901.0330, 350.6165
901.5151, 350.2796
901.9973, 350.4363
902.4794, 350.4217
902.9615, 350.2364
903.4436, 349.5594
903.9257, 348.2480
904.4078, 346.8001
904.8900, 345.2169
905.3721, 343.6517
905.8542, 342.2383
906.3363, 340.9388
906.8184, 339.5787
907.3005, 337.7374
907.7827, 336.8892
908.2648, 338.4608
908.7469, 339.6694
909.2290, 339.0503
909.7111, 337.3653
910.1932, 335.4329
910.6754, 333.4678
911.1575, 331.5911
911.6396, 329.3874
912.1217, 328.0052
912.6038, 329.4985
913.0859, 331.7338
913.5681, 331.1019
914.0502, 328.1955
914.5323, 326.5098
915.0144, 327.5483
915.4965, 329.0599
915.9786, 327.9669
916.4607, 325.2065
916.9428, 324.5450
917.4249, 325.7612
917.9070, 325.5692
918.3892, 323.0529
918.8713, 320.3795
919.3534, 319.2850
919.8355, 319.3060
920.3176, 319.0563
920.7997, 318.4504
921.2819, 317.9318
921.7640, 317.7729
922.2461, 317.1336
922.7282, 314.9062
923.2103, 312.6797
923.6924, 312.7876
924.1746, 315.0701
924.6567, 316.6052
925.1388, 316.9858
925.6209, 317.0045
926.1030, 316.5967
926.5851, 316.0570
927.0673, 315.5827
927.5494, 315.1202
928.0315, 314.4234
928.5136, 313.4194
928.9957, 312.8443
929.4778, 313.5154
929.9600, 314.3403
930.4421, 314.3398
930.9242, 313.9482
931.4063, 313.7660
931.8884, 313.9284
932.3705, 314.5503
932.8527, 315.7933
933.3348, 316.8399
933.8169, 316.0910
934.2990, 314.4344
934.7811, 314.4886
935.2632, 316.1447
935.7454, 317.7377
936.2275, 318.7202
936.7096, 319.8672
937.1917, 322.1481
937.6738, 324.8981
938.1559, 325.0331
938.6381, 321.9811
939.1202, 321.2169
939.6023, 323.8806
940.0844, 326.8778
940.5665, 328.6698
941.0486, 329.8631
941.5308, 331.2175
942.0129, 332.6323
942.4950, 335.3851
942.9771, 340.2001
943.4592, 345.2912
943.9413, 350.9640
944.4235, 356.2857
944.9056, 359.5858
945.3877, 362.3803
945.8698, 368.1083
946.3519, 377.7105
946.8340, 387.7760
947.3162, 396.2960
947.7983, 406.3715
948.2804, 419.7277
948.7625, 435.3970
949.2446, 452.1650
949.7267, 470.1089
950.2089, 490.2861
950.6910, 513.4354
951.1731, 538.1567
951.6552, 565.2341
952.1373, 591.9056
952.6194, 613.1365
953.1016, 631.2044
953.5837, 651.8278
954.0658, 676.7473
954.5479, 705.1470
955.0300, 736.6177
955.5121, 771.0096
955.9943, 807.0176
956.4764, 845.7235
956.9585, 891.6187
957.4406, 945.2963
957.9227, 1003.530
958.4048, 1064.915
958.8870, 1131.772
959.3691, 1206.720
959.8512, 1290.002
960.3333, 1384.635
960.8154, 1491.171
961.2975, 1603.242
961.7797, 1720.463
962.2618, 1840.774
962.7439, 1969.405
963.2260, 2091.002
963.7081, 2175.805
964.1902, 2228.351
964.6724, 2220.739
965.1545, 2140.685
965.6366, 2020.209
966.1187, 1842.014
966.6008, 1649.201
967.0829, 1466.074
967.5651, 1294.608
968.0472, 1140.956
968.5293, 1004.389
969.0114, 887.4117
969.4935, 793.5435
969.9756, 714.8307
970.4578, 650.1396
970.9399, 596.5686
971.4220, 552.4674
971.9041, 516.6088
972.3862, 485.6203
972.8683, 459.2486
973.3505, 435.8612
973.8326, 414.2300
974.3147, 395.4206
974.7968, 381.1330
975.2789, 370.1704
975.7610, 360.7422
976.2432, 352.2741
976.7253, 344.3799
977.2074, 336.5934
977.6895, 329.7476
978.1716, 324.9076
978.6537, 321.5680
979.1359, 318.7419
979.6180, 316.5107
980.1001, 316.0460
980.5822, 317.6033
981.0643, 318.6085
981.5464, 316.0244
982.0286, 311.5363
982.5107, 309.0667
982.9928, 308.2856
983.4749, 307.7304
983.9570, 307.1673
984.4391, 306.3387
984.9213, 305.0656
985.4034, 303.9514
985.8855, 303.9520
986.3676, 304.9317
986.8497, 305.8222
987.3318, 306.6603
987.8140, 306.8992
988.2961, 306.3411
988.7782, 305.5965
989.2603, 305.0456
989.7424, 304.5808
990.2245, 303.8815
990.7067, 302.8093
991.1888, 302.7059
991.6709, 303.9605
992.1530, 305.2630
992.6351, 306.4799
993.1172, 307.3982
993.5994, 307.6111
994.0815, 307.4697
994.5636, 308.1312
995.0457, 310.1758
995.5278, 311.3761
996.0099, 310.6693
996.4921, 310.5147
996.9742, 311.8977
997.4563, 313.7661
997.9384, 315.4589
998.4205, 316.8893
998.9026, 317.7826
999.3848, 317.6853
999.8669, 318.1284
1000.349, 319.7018
1000.831, 321.5361
1001.313, 323.2682
1001.795, 325.0086
1002.277, 327.0752
1002.760, 329.3238
1003.242, 331.0622
1003.724, 331.6901
1004.206, 332.7315
1004.688, 334.9444
1005.170, 337.7902
1005.652, 341.3760
1006.134, 345.0612
1006.617, 347.9236
1007.099, 349.9099
1007.581, 351.6391
1008.063, 353.2809
1008.545, 355.1316
1009.027, 358.2911
1009.509, 361.1245
1009.991, 361.3615
1010.473, 359.7969
1010.956, 358.4298
1011.438, 357.6722
1011.920, 356.4665
1012.402, 353.9330
1012.884, 350.9977
1013.366, 348.3765
1013.848, 346.3685
1014.330, 345.8562
1014.813, 346.4907
1015.295, 346.9849
1015.777, 346.9369
1016.259, 346.7695
1016.741, 346.7858
1017.223, 347.0438
1017.705, 347.6408
1018.187, 348.5741
1018.669, 350.2110
1019.152, 352.3448
1019.634, 353.0476
1020.116, 351.6478
1020.598, 350.3106
1021.080, 351.3001
1021.562, 353.9246
1022.044, 356.5066
1022.526, 358.9853
1023.008, 360.2491
1023.491, 360.1872
1023.973, 361.3935
1024.455, 365.0689
1024.937, 369.2770
1025.419, 371.7055
1025.901, 372.8563
1026.383, 375.1214
1026.865, 378.5738
1027.348, 381.9604
1027.830, 385.1059
1028.312, 388.6865
1028.794, 393.1827
1029.276, 397.6662
1029.758, 400.8662
1030.240, 402.9972
1030.722, 405.5011
1031.204, 408.2132
1031.687, 412.3654
1032.169, 419.1812
1032.651, 424.0947
1033.133, 424.4240
1033.615, 422.7220
1034.097, 422.1142
1034.579, 422.5609
1035.061, 423.5746
1035.544, 425.5920
1036.026, 426.9460
1036.508, 426.8328
1036.990, 427.3203
1037.472, 429.7736
1037.954, 432.8810
1038.436, 434.6838
1038.918, 435.2672
1039.401, 437.3995
1039.883, 442.2206
1040.365, 446.4658
1040.847, 450.6102
1041.329, 453.2511
1041.811, 453.1238
1042.293, 451.6183
1042.775, 450.4231
1043.257, 449.5301
1043.740, 448.4539
1044.222, 445.8416
1044.704, 445.1419
1045.186, 448.0711
1045.668, 451.1502
1046.150, 453.1501
1046.632, 454.2979
1047.114, 454.1392
1047.596, 452.9409
1048.079, 454.0545
1048.561, 458.4426
1049.043, 464.1207
1049.525, 472.9254
1050.007, 480.5932
1050.489, 484.4349
1050.971, 486.4793
1051.453, 489.3472
1051.936, 492.9676
1052.418, 495.2881
1052.900, 495.7560
1053.382, 495.3078
1053.864, 493.5114
1054.346, 491.5390
1054.828, 489.7113
1055.310, 488.2367
1055.792, 487.2039
1056.275, 486.6942
1056.757, 487.1212
1057.239, 489.1202
1057.721, 490.9236
1058.203, 492.4274
1058.685, 493.1855
1059.167, 492.2753
1059.649, 490.9384
1060.131, 491.0233
1060.614, 492.1468
1061.096, 491.7969
1061.578, 488.5390
1062.060, 485.8658
1062.542, 484.9661
1063.024, 484.9848
1063.506, 486.0589
1063.988, 487.3502
1064.471, 487.5516
1064.953, 487.0870
1065.435, 487.8803
1065.917, 490.7179
1066.399, 493.8994
1066.881, 496.6743
1067.363, 499.6968
1067.845, 504.2810
1068.328, 508.6244
1068.810, 510.0723
1069.292, 509.4908
1069.774, 510.3026
1070.256, 513.7631
1070.738, 516.7773
1071.220, 516.0508
1071.702, 516.7933
1072.184, 524.4508
1072.667, 533.2103
1073.149, 535.8844
1073.631, 534.4333
1074.113, 535.4712
1074.595, 540.8726
1075.077, 546.8736
1075.559, 551.4083
1076.041, 556.5005
1076.523, 564.1212
1077.006, 572.1208
1077.488, 578.9144
1077.970, 584.2365
1078.452, 587.7694
1078.934, 589.4449
1079.416, 591.1115
1079.898, 594.4948
1080.380, 596.9384
1080.862, 596.1629
1081.345, 594.6631
1081.827, 594.5294
1082.309, 595.4514
1082.791, 596.5214
1083.273, 597.5636
1083.755, 598.8448
1084.237, 599.7710
1084.719, 601.9716
1085.202, 607.6886
1085.684, 613.5538
1086.166, 616.4454
1086.648, 617.8363
1087.130, 620.1027
1087.612, 623.5924
1088.094, 627.5595
1088.576, 632.1781
1089.058, 636.2948
1089.541, 637.7907
1090.023, 640.3444
1090.505, 648.0726
1090.987, 657.4757
1091.469, 663.6515
1091.951, 666.7437
1092.433, 670.4222
1092.915, 675.9790
1093.397, 681.6451
1093.880, 686.8770
1094.362, 691.8147
1094.844, 696.0196
1095.326, 700.3008
1095.808, 705.8604
1096.290, 712.2363
1096.772, 717.6794
1097.254, 721.3505
1097.737, 726.0873
1098.219, 734.5062
1098.701, 742.0479
1099.183, 746.9513
1099.665, 749.8314
1100.147, 750.4296
1100.629, 749.7612
1101.111, 749.6249
1101.594, 750.2899
1102.076, 751.9855
1102.558, 755.3530
1103.040, 758.9752
1103.522, 762.7609
1104.004, 766.2967
1104.486, 769.6557
1104.968, 772.3937
1105.450, 772.8344
1105.932, 771.0394
1106.415, 772.5870
1106.897, 782.1180
1107.379, 789.6888
1107.861, 791.8119
1108.343, 793.3279
1108.825, 796.7360
1109.307, 800.9294
1109.789, 804.1381
1110.272, 806.5936
1110.754, 810.6816
1111.236, 818.3061
1111.718, 824.2391
1112.200, 825.7192
1112.682, 828.4040
1113.164, 835.5804
1113.646, 843.7116
1114.129, 849.7875
1114.611, 854.2028
1115.093, 858.0900
1115.575, 860.6373
1116.057, 865.3768
1116.539, 873.9893
1117.021, 882.2629
1117.503, 889.3591
1117.985, 895.8656
1118.468, 900.9385
1118.950, 906.3483
1119.432, 915.9836
1119.914, 930.3456
1120.396, 942.7729
1120.878, 952.7393
1121.360, 961.8685
1121.842, 970.0920
1122.324, 977.8477
1122.807, 985.1036
1123.289, 992.2904
1123.771, 999.8928
1124.253, 1007.962
1124.735, 1017.122
1125.217, 1027.962
1125.699, 1037.977
1126.181, 1046.664
1126.664, 1055.654
1127.146, 1065.209
1127.628, 1076.193
1128.110, 1089.906
1128.592, 1104.866
1129.074, 1116.375
1129.556, 1123.907
1130.038, 1132.907
1130.521, 1143.405
1131.003, 1155.479
1131.485, 1169.456
1131.967, 1183.098
1132.449, 1194.898
1132.931, 1205.835
1133.413, 1217.350
1133.895, 1229.587
1134.377, 1244.446
1134.859, 1261.857
1135.342, 1275.924
1135.824, 1285.946
1136.306, 1297.392
1136.788, 1312.669
1137.270, 1328.669
1137.752, 1341.951
1138.234, 1353.722
1138.716, 1366.909
1139.199, 1381.222
1139.681, 1395.771
1140.163, 1410.274
1140.645, 1423.616
1141.127, 1435.483
1141.609, 1446.356
1142.091, 1456.420
1142.573, 1466.628
1143.056, 1478.771
1143.538, 1491.689
1144.020, 1503.270
1144.502, 1513.536
1144.984, 1521.907
1145.466, 1529.142
1145.948, 1538.603
1146.430, 1551.686
1146.912, 1564.233
1147.395, 1571.637
1147.877, 1577.723
1148.359, 1586.054
1148.841, 1596.379
1149.323, 1609.160
1149.805, 1623.445
1150.287, 1638.191
1150.769, 1652.583
1151.251, 1663.489
1151.734, 1666.845
1152.216, 1672.389
1152.698, 1688.728
1153.180, 1707.585
1153.662, 1722.762
1154.144, 1735.666
1154.626, 1747.863
1155.108, 1760.082
1155.591, 1773.331
1156.073, 1787.819
1156.555, 1803.576
1157.037, 1821.831
1157.519, 1839.727
1158.001, 1856.104
1158.483, 1871.785
1158.965, 1887.197
1159.448, 1902.589
1159.930, 1918.614
1160.412, 1935.281
1160.894, 1950.591
1161.376, 1961.445
1161.858, 1975.396
1162.340, 1995.053
1162.822, 2015.305
1163.304, 2034.129
1163.786, 2052.738
1164.269, 2072.727
1164.751, 2093.362
1165.233, 2112.262
1165.715, 2128.813
1166.197, 2146.139
1166.679, 2164.106
1167.161, 2183.442
1167.643, 2205.127
1168.126, 2226.068
1168.608, 2244.108
1169.090, 2261.314
1169.572, 2281.166
1170.054, 2303.137
1170.536, 2321.958
1171.018, 2337.489
1171.500, 2354.362
1171.983, 2372.986
1172.465, 2393.420
1172.947, 2415.803
1173.429, 2437.954
1173.911, 2457.926
1174.393, 2477.126
1174.875, 2499.262
1175.357, 2522.989
1175.839, 2542.722
1176.322, 2559.492
1176.804, 2578.987
1177.286, 2601.264
1177.768, 2619.001
1178.250, 2629.140
1178.732, 2640.109
1179.214, 2661.353
1179.696, 2686.062
1180.178, 2705.538
1180.661, 2722.349
1181.143, 2740.521
1181.625, 2759.331
1182.107, 2775.837
1182.589, 2789.781
1183.071, 2803.505
1183.553, 2818.047
1184.035, 2832.534
1184.518, 2846.499
1185.000, 2860.026
1185.482, 2873.146
1185.964, 2885.894
1186.446, 2897.083
1186.928, 2908.221
1187.410, 2922.636
1187.892, 2940.909
1188.375, 2960.477
1188.857, 2985.179
1189.339, 3004.361
1189.821, 3008.681
1190.303, 3015.567
1190.785, 3035.899
1191.267, 3061.236
1191.749, 3082.879
1192.231, 3101.675
1192.714, 3121.325
1193.196, 3142.653
1193.678, 3161.208
1194.160, 3173.813
1194.642, 3193.019
1195.124, 3223.564
1195.606, 3254.427
1196.088, 3279.272
1196.570, 3300.732
1197.053, 3321.805
1197.535, 3343.195
1198.017, 3369.686
1198.499, 3401.094
1198.981, 3429.431
1199.463, 3454.339
1199.945, 3478.097
1200.427, 3501.581
1200.910, 3523.991
1201.392, 3544.520
1201.874, 3567.458
1202.356, 3601.837
1202.838, 3641.635
1203.320, 3673.158
1203.802, 3699.865
1204.284, 3729.538
1204.766, 3762.415
1205.249, 3794.866
1205.731, 3825.904
1206.213, 3857.047
1206.695, 3889.462
1207.177, 3922.033
1207.659, 3953.396
1208.141, 3984.902
1208.623, 4018.257
1209.105, 4051.849
1209.588, 4083.787
1210.070, 4114.068
1210.552, 4143.456
1211.034, 4171.683
1211.516, 4202.447
1211.998, 4238.403
1212.480, 4274.819
1212.962, 4311.036
1213.445, 4346.882
1213.927, 4384.008
1214.409, 4419.418
1214.891, 4448.775
1215.373, 4473.523
1215.855, 4500.274
1216.337, 4529.456
1216.819, 4557.252
1217.302, 4581.357
1217.784, 4614.203
1218.266, 4660.749
1218.748, 4704.668
1219.230, 4736.961
1219.712, 4763.972
1220.194, 4793.917
1220.676, 4825.841
1221.158, 4857.185
1221.641, 4888.087
1222.123, 4918.381
1222.605, 4948.435
1223.087, 4981.147
1223.569, 5016.554
1224.051, 5049.210
1224.533, 5075.930
1225.015, 5102.550
1225.497, 5133.829
1225.980, 5169.530
1226.462, 5212.210
1226.944, 5256.993
1227.426, 5297.798
1227.908, 5335.771
1228.390, 5372.612
1228.872, 5409.609
1229.354, 5450.616
1229.837, 5499.681
1230.319, 5545.116
1230.801, 5576.397
1231.283, 5611.870
1231.765, 5660.993
1232.247, 5715.680
1232.729, 5771.935
1233.211, 5828.179
1233.693, 5881.733
1234.176, 5932.791
1234.658, 5985.953
1235.140, 6041.039
1235.622, 6099.949
1236.104, 6164.135
1236.586, 6226.791
1237.068, 6284.796
1237.550, 6347.253
1238.032, 6421.065
1238.515, 6498.775
1238.997, 6566.419
1239.479, 6627.923
1239.961, 6702.009
1240.443, 6785.728
1240.925, 6863.681
1241.407, 6936.599
1241.889, 7016.163
1242.372, 7105.353
1242.854, 7198.253
1243.336, 7291.776
1243.818, 7384.854
1244.300, 7475.171
1244.782, 7566.724
1245.264, 7661.523
1245.746, 7761.805
1246.229, 7873.135
1246.711, 7990.280
1247.193, 8100.721
1247.675, 8203.060
1248.157, 8309.707
1248.639, 8425.163
1249.121, 8542.245
1249.603, 8658.900
1250.085, 8777.561
1250.568, 8895.946
1251.050, 9019.215
1251.532, 9154.389
1252.014, 9294.609
1252.496, 9429.519
1252.978, 9559.326
1253.460, 9683.650
1253.942, 9800.646
1254.424, 9941.575
1254.907, 10109.42
1255.389, 10266.56
1255.871, 10401.93
1256.353, 10527.43
1256.835, 10649.32
1257.317, 10776.67
1257.799, 10928.68
1258.281, 11087.72
1258.764, 11218.69
1259.246, 11335.43
1259.728, 11460.94
1260.210, 11595.95
1260.692, 11738.62
1261.174, 11885.42
1261.656, 12027.05
1262.138, 12160.29
1262.620, 12282.30
1263.103, 12376.09
1263.585, 12478.69
1264.067, 12618.95
1264.549, 12760.37
1265.031, 12880.87
1265.513, 12985.64
1265.995, 13081.30
1266.477, 13169.18
1266.959, 13257.47
1267.442, 13349.34
1267.924, 13428.36
1268.406, 13491.10
1268.888, 13559.12
1269.370, 13637.47
1269.852, 13712.98
1270.334, 13779.08
1270.816, 13834.61
1271.299, 13877.53
1271.781, 13911.34
1272.263, 13941.72
1272.745, 13969.50
1273.227, 13998.20
1273.709, 14025.52
1274.191, 14048.32
1274.673, 14063.88
1275.156, 14064.58
1275.638, 14048.73
1276.120, 14031.09
1276.602, 14017.05
1277.084, 14007.49
1277.566, 14011.93
1278.048, 14010.02
1278.530, 13987.81
1279.012, 13954.75
1279.495, 13916.43
1279.977, 13876.35
1280.459, 13841.60
1280.941, 13811.51
1281.423, 13781.47
1281.905, 13757.88
1282.387, 13715.10
1282.869, 13646.41
1283.351, 13592.19
1283.834, 13566.14
1284.316, 13538.84
1284.798, 13489.82
1285.280, 13430.30
1285.762, 13374.40
1286.244, 13328.45
##END=



