##NAMES=Fluorapatite
##RRUFFID=R040098
##IDEAL CHEMISTRY=Ca_5_(PO_4_)_3_F
##LOCALITY=Cerro de Mercado mine, Durango, Mexico
##OWNER=RRUFF
##SOURCE=Marcus Origlieri
##DESCRIPTION=Pale yellow short hexagonal prism
##STATUS=The identification of this mineral has been confirmed by X-ray diffraction and chemical analysis
##URL=rruff.info/R040098
##MEASURED CHEMISTRY=Ca_5.00_((P_0.98_Si_0.01_S_0.01_)O_4_)_3_F_1.00_
178.9366, 8394.808
179.4187, 8402.447
179.9009, 8390.977
180.3830, 8361.788
180.8651, 8336.745
181.3472, 8338.289
181.8293, 8359.483
182.3114, 8377.661
182.7936, 8381.293
183.2757, 8379.340
183.7578, 8396.273
184.2399, 8433.675
184.7220, 8468.058
185.2041, 8461.292
185.6863, 8421.874
186.1684, 8401.213
186.6505, 8434.824
187.1326, 8505.359
187.6147, 8547.722
188.0968, 8558.001
188.5790, 8554.831
189.0611, 8566.070
189.5432, 8590.616
190.0253, 8606.939
190.5074, 8595.283
190.9895, 8561.703
191.4717, 8551.691
191.9538, 8573.948
192.4359, 8609.035
192.9180, 8616.698
193.4001, 8595.250
193.8822, 8579.185
194.3644, 8595.291
194.8465, 8642.450
195.3286, 8679.849
195.8107, 8701.857
196.2928, 8713.119
196.7749, 8722.409
197.2570, 8728.213
197.7392, 8739.909
198.2213, 8766.542
198.7034, 8809.092
199.1855, 8852.204
199.6676, 8895.835
200.1497, 8937.621
200.6319, 8964.767
201.1140, 8972.951
201.5961, 8979.188
202.0782, 9002.429
202.5603, 9046.766
203.0424, 9081.037
203.5246, 9091.927
204.0067, 9082.971
204.4888, 9098.647
204.9709, 9146.938
205.4530, 9204.183
205.9352, 9243.162
206.4173, 9260.557
206.8994, 9273.101
207.3815, 9283.529
207.8636, 9291.745
208.3457, 9305.467
208.8279, 9326.590
209.3100, 9350.884
209.7921, 9375.134
210.2742, 9404.185
210.7563, 9419.185
211.2384, 9406.862
211.7206, 9359.067
212.2027, 9334.655
212.6848, 9341.063
213.1669, 9364.764
213.6490, 9380.118
214.1311, 9386.008
214.6133, 9386.241
215.0954, 9381.398
215.5775, 9369.887
216.0596, 9357.401
216.5417, 9338.958
217.0238, 9321.654
217.5059, 9327.560
217.9881, 9371.539
218.4702, 9411.985
218.9523, 9424.351
219.4344, 9392.771
219.9165, 9377.403
220.3986, 9384.131
220.8808, 9409.055
221.3629, 9437.908
221.8450, 9472.928
222.3271, 9508.893
222.8092, 9543.140
223.2913, 9574.870
223.7735, 9605.728
224.2556, 9633.727
224.7377, 9660.212
225.2198, 9692.385
225.7019, 9726.957
226.1840, 9770.946
226.6662, 9833.534
227.1483, 9930.941
227.6304, 10011.39
228.1125, 10067.50
228.5946, 10099.65
229.0767, 10122.05
229.5589, 10123.18
230.0410, 10126.78
230.5231, 10158.57
231.0052, 10248.68
231.4873, 10308.15
231.9694, 10311.05
232.4516, 10255.30
232.9337, 10233.46
233.4158, 10263.45
233.8979, 10310.54
234.3800, 10340.07
234.8621, 10348.15
235.3443, 10345.36
235.8264, 10325.00
236.3085, 10281.83
236.7906, 10283.12
237.2727, 10373.33
237.7548, 10471.14
238.2369, 10473.62
238.7191, 10315.81
239.2012, 10170.78
239.6833, 10081.32
240.1654, 10052.57
240.6475, 10047.00
241.1296, 10085.25
241.6118, 10131.87
242.0939, 10133.57
242.5760, 10059.47
243.0581, 9992.103
243.5402, 9955.495
244.0223, 9956.012
244.5045, 9960.866
244.9866, 9972.275
245.4687, 9986.853
245.9508, 9998.389
246.4329, 10002.42
246.9150, 10011.22
247.3972, 10031.15
247.8793, 10068.02
248.3614, 10093.73
248.8435, 10099.69
249.3256, 10099.04
249.8077, 10117.74
250.2899, 10166.30
250.7720, 10216.45
251.2541, 10255.66
251.7362, 10274.20
252.2183, 10310.82
252.7004, 10372.36
253.1826, 10448.04
253.6647, 10514.68
254.1468, 10567.76
254.6289, 10618.94
255.1110, 10673.68
255.5931, 10735.10
256.0753, 10790.43
256.5574, 10833.17
257.0395, 10873.47
257.5216, 10936.70
258.0037, 11033.90
258.4858, 11134.63
258.9680, 11226.18
259.4501, 11311.03
259.9322, 11380.94
260.4143, 11429.75
260.8964, 11466.66
261.3785, 11515.88
261.8607, 11586.35
262.3428, 11652.71
262.8249, 11701.42
263.3070, 11725.26
263.7891, 11757.12
264.2712, 11803.45
264.7534, 11856.05
265.2355, 11889.85
265.7176, 11901.08
266.1997, 11903.19
266.6818, 11906.83
267.1639, 11919.04
267.6461, 11901.08
268.1282, 11840.03
268.6103, 11753.30
269.0924, 11686.92
269.5745, 11642.77
270.0566, 11614.46
270.5387, 11606.60
271.0208, 11628.54
271.5030, 11617.18
271.9851, 11555.15
272.4672, 11465.43
272.9493, 11414.31
273.4314, 11410.25
273.9135, 11416.23
274.3957, 11412.06
274.8778, 11397.13
275.3599, 11376.72
275.8420, 11348.09
276.3241, 11317.18
276.8062, 11302.64
277.2884, 11308.71
277.7705, 11313.33
278.2526, 11299.12
278.7347, 11264.64
279.2168, 11238.40
279.6989, 11219.95
280.1811, 11213.70
280.6632, 11239.36
281.1453, 11302.80
281.6274, 11357.27
282.1095, 11363.34
282.5916, 11321.77
283.0738, 11298.31
283.5559, 11301.18
284.0380, 11322.88
284.5201, 11352.98
285.0022, 11392.75
285.4843, 11422.70
285.9665, 11419.87
286.4486, 11389.19
286.9307, 11381.57
287.4128, 11406.13
287.8949, 11451.00
288.3770, 11499.29
288.8592, 11551.39
289.3413, 11594.10
289.8234, 11615.15
290.3055, 11618.46
290.7876, 11620.74
291.2697, 11621.06
291.7519, 11627.16
292.2340, 11657.70
292.7161, 11710.92
293.1982, 11762.67
293.6803, 11790.01
294.1624, 11803.34
294.6446, 11836.49
295.1267, 11896.27
295.6088, 11969.34
296.0909, 12035.88
296.5730, 12096.69
297.0551, 12165.13
297.5373, 12264.01
298.0194, 12373.70
298.5015, 12444.97
298.9836, 12460.67
299.4657, 12469.96
299.9478, 12540.42
300.4300, 12657.95
300.9121, 12769.79
301.3942, 12835.50
301.8763, 12878.77
302.3584, 12935.41
302.8405, 13012.58
303.3227, 13094.27
303.8048, 13168.39
304.2869, 13234.95
304.7690, 13298.07
305.2511, 13359.42
305.7332, 13417.71
306.2154, 13474.75
306.6975, 13532.30
307.1796, 13578.25
307.6617, 13599.71
308.1438, 13601.43
308.6259, 13593.98
309.1081, 13574.37
309.5901, 13552.33
310.0723, 13538.79
310.5544, 13537.41
311.0365, 13528.78
311.5186, 13491.14
312.0007, 13438.90
312.4828, 13396.73
312.9650, 13388.37
313.4471, 13383.28
313.9292, 13361.85
314.4113, 13321.15
314.8934, 13276.16
315.3755, 13221.87
315.8577, 13170.21
316.3398, 13138.39
316.8219, 13143.69
317.3040, 13159.79
317.7861, 13174.58
318.2682, 13186.59
318.7504, 13205.27
319.2325, 13240.17
319.7146, 13281.09
320.1967, 13316.71
320.6788, 13348.09
321.1609, 13370.25
321.6431, 13375.54
322.1252, 13362.66
322.6073, 13360.34
323.0894, 13382.23
323.5715, 13412.90
324.0536, 13439.23
324.5358, 13437.19
325.0179, 13453.34
325.5000, 13510.88
325.9821, 13609.54
326.4642, 13676.99
326.9464, 13683.70
327.4285, 13673.04
327.9106, 13675.13
328.3927, 13707.42
328.8748, 13731.15
329.3569, 13738.18
329.8391, 13731.24
330.3212, 13733.77
330.8033, 13746.99
331.2854, 13769.46
331.7675, 13802.54
332.2496, 13864.89
332.7318, 13904.77
333.2139, 13910.75
333.6960, 13891.79
334.1781, 13885.91
334.6602, 13899.25
335.1423, 13916.48
335.6245, 13928.82
336.1066, 13933.16
336.5887, 13942.76
337.0708, 13961.33
337.5529, 13983.58
338.0350, 13994.07
338.5172, 13989.03
338.9993, 13982.50
339.4814, 13980.97
339.9635, 13984.55
340.4456, 13994.18
340.9277, 14017.49
341.4099, 14035.27
341.8920, 14000.77
342.3741, 13907.40
342.8562, 13826.55
343.3383, 13802.70
343.8204, 13829.57
344.3026, 13836.59
344.7847, 13822.13
345.2668, 13789.48
345.7489, 13733.95
346.2310, 13657.79
346.7131, 13591.26
347.1953, 13553.00
347.6774, 13533.91
348.1595, 13506.45
348.6416, 13470.42
349.1237, 13434.46
349.6058, 13404.63
350.0880, 13382.49
350.5700, 13372.19
351.0522, 13383.87
351.5343, 13404.39
352.0164, 13416.45
352.4985, 13420.17
352.9806, 13414.39
353.4627, 13386.40
353.9449, 13350.23
354.4270, 13329.19
354.9091, 13337.40
355.3912, 13355.13
355.8733, 13367.22
356.3554, 13373.45
356.8376, 13375.12
357.3197, 13368.39
357.8018, 13358.83
358.2839, 13351.20
358.7660, 13343.47
359.2481, 13342.64
359.7303, 13359.28
360.2124, 13386.95
360.6945, 13407.91
361.1766, 13411.14
361.6587, 13408.39
362.1408, 13407.27
362.6230, 13411.13
363.1051, 13413.32
363.5872, 13403.25
364.0693, 13391.71
364.5514, 13398.23
365.0335, 13455.79
365.5157, 13507.32
365.9978, 13526.43
366.4799, 13496.09
366.9620, 13483.25
367.4441, 13500.46
367.9262, 13535.64
368.4084, 13573.83
368.8905, 13620.51
369.3726, 13662.68
369.8547, 13699.71
370.3368, 13732.69
370.8189, 13745.81
371.3011, 13722.55
371.7832, 13693.17
372.2653, 13684.21
372.7474, 13700.50
373.2295, 13729.32
373.7116, 13776.69
374.1938, 13838.09
374.6759, 13872.89
375.1580, 13872.14
375.6401, 13864.73
376.1222, 13872.56
376.6043, 13898.86
377.0865, 13921.45
377.5686, 13936.46
378.0507, 13947.98
378.5328, 13963.18
379.0149, 13981.24
379.4970, 14009.90
379.9792, 14058.57
380.4613, 14125.26
380.9434, 14184.44
381.4255, 14234.75
381.9076, 14277.86
382.3897, 14314.20
382.8719, 14344.60
383.3540, 14374.33
383.8361, 14402.12
384.3182, 14431.50
384.8003, 14474.33
385.2824, 14532.05
385.7646, 14588.24
386.2467, 14627.28
386.7288, 14653.41
387.2109, 14676.22
387.6930, 14697.56
388.1751, 14719.03
388.6573, 14744.42
389.1394, 14773.37
389.6215, 14798.94
390.1036, 14815.33
390.5857, 14826.72
391.0678, 14837.51
391.5499, 14847.26
392.0320, 14859.04
392.5142, 14874.11
392.9963, 14892.44
393.4784, 14914.00
393.9605, 14947.23
394.4426, 14977.71
394.9247, 14995.65
395.4069, 14992.71
395.8890, 14991.76
396.3711, 15000.75
396.8532, 15014.58
397.3353, 15024.08
397.8174, 15021.14
398.2996, 15020.12
398.7817, 15026.46
399.2638, 15043.06
399.7459, 15055.30
400.2280, 15055.26
400.7101, 15055.33
401.1923, 15069.36
401.6744, 15105.86
402.1565, 15140.67
402.6386, 15165.99
403.1207, 15183.42
403.6028, 15221.14
404.0850, 15294.48
404.5671, 15360.90
405.0492, 15380.19
405.5313, 15339.65
406.0134, 15326.52
406.4955, 15358.16
406.9777, 15417.48
407.4598, 15456.83
407.9419, 15473.18
408.4240, 15498.25
408.9061, 15558.46
409.3882, 15647.02
409.8704, 15719.08
410.3525, 15769.04
410.8346, 15811.84
411.3167, 15866.19
411.7988, 15931.41
412.2809, 16001.22
412.7631, 16089.18
413.2452, 16175.51
413.7273, 16218.48
414.2094, 16217.90
414.6915, 16216.18
415.1736, 16244.33
415.6558, 16295.06
416.1379, 16356.77
416.6200, 16437.68
417.1021, 16516.98
417.5842, 16577.06
418.0663, 16622.50
418.5485, 16671.79
419.0306, 16737.72
419.5127, 16809.09
419.9948, 16878.13
420.4769, 16937.33
420.9590, 17003.93
421.4412, 17090.01
421.9233, 17185.98
422.4054, 17276.10
422.8875, 17364.00
423.3696, 17438.52
423.8517, 17491.24
424.3339, 17513.66
424.8160, 17545.49
425.2981, 17590.33
425.7802, 17642.34
426.2623, 17696.73
426.7444, 17752.47
427.2266, 17811.82
427.7087, 17873.86
428.1908, 17939.38
428.6729, 18023.94
429.1550, 18139.43
429.6371, 18248.81
430.1193, 18318.15
430.6014, 18339.39
431.0835, 18386.29
431.5656, 18467.81
432.0477, 18572.71
432.5298, 18677.89
433.0119, 18782.82
433.4940, 18902.13
433.9762, 19053.16
434.4583, 19225.21
434.9404, 19373.74
435.4225, 19494.60
435.9046, 19618.69
436.3867, 19785.92
436.8689, 19981.09
437.3510, 20164.84
437.8331, 20319.42
438.3152, 20459.64
438.7973, 20603.88
439.2794, 20749.90
439.7616, 20884.38
440.2437, 20986.30
440.7258, 21077.98
441.2079, 21183.28
441.6900, 21320.63
442.1721, 21442.73
442.6543, 21524.52
443.1364, 21576.01
443.6185, 21616.87
444.1006, 21662.63
444.5827, 21690.44
445.0648, 21694.78
445.5470, 21677.52
446.0291, 21625.28
446.5112, 21514.42
446.9933, 21379.27
447.4754, 21250.29
447.9576, 21146.27
448.4397, 21022.43
448.9218, 20871.06
449.4039, 20694.87
449.8860, 20509.72
450.3681, 20306.73
450.8503, 20113.72
451.3324, 19946.57
451.8145, 19808.38
452.2966, 19684.76
452.7787, 19578.27
453.2608, 19479.11
453.7430, 19365.73
454.2251, 19238.94
454.7072, 19118.75
455.1893, 19015.77
455.6714, 18926.35
456.1535, 18835.49
456.6357, 18743.78
457.1178, 18655.04
457.5999, 18569.84
458.0820, 18491.17
458.5641, 18428.36
459.0462, 18386.62
459.5284, 18355.60
460.0105, 18325.50
460.4926, 18296.83
460.9747, 18273.35
461.4568, 18251.88
461.9389, 18238.40
462.4211, 18240.60
462.9032, 18263.08
463.3853, 18280.90
463.8674, 18287.78
464.3495, 18282.34
464.8316, 18263.06
465.3138, 18195.56
465.7959, 18149.29
466.2780, 18150.75
466.7601, 18198.94
467.2422, 18239.13
467.7243, 18266.96
468.2065, 18290.67
468.6886, 18316.63
469.1707, 18354.72
469.6528, 18374.45
470.1349, 18369.55
470.6170, 18350.44
471.0992, 18335.43
471.5813, 18323.29
472.0634, 18320.78
472.5455, 18330.92
473.0276, 18353.10
473.5097, 18385.00
473.9918, 18428.86
474.4739, 18470.55
474.9561, 18491.04
475.4382, 18495.28
475.9203, 18508.90
476.4024, 18541.83
476.8845, 18580.06
477.3666, 18601.16
477.8488, 18608.84
478.3309, 18619.10
478.8130, 18649.80
479.2951, 18683.63
479.7772, 18701.48
480.2593, 18700.33
480.7415, 18693.12
481.2236, 18683.94
481.7057, 18674.01
482.1878, 18664.77
482.6699, 18666.19
483.1520, 18658.35
483.6342, 18620.80
484.1163, 18560.57
484.5984, 18529.79
485.0805, 18578.30
485.5626, 18624.04
486.0447, 18627.17
486.5269, 18563.99
487.0090, 18505.50
487.4911, 18442.44
487.9732, 18390.99
488.4553, 18379.89
488.9374, 18422.69
489.4196, 18467.68
489.9017, 18504.10
490.3838, 18531.41
490.8659, 18545.04
491.3480, 18543.70
491.8301, 18536.01
492.3123, 18524.21
492.7944, 18510.43
493.2765, 18507.08
493.7586, 18517.49
494.2407, 18534.46
494.7228, 18545.54
495.2050, 18554.16
495.6871, 18571.69
496.1692, 18615.83
496.6513, 18664.56
497.1334, 18690.66
497.6155, 18693.93
498.0977, 18705.61
498.5798, 18765.18
499.0619, 18832.41
499.5440, 18865.75
500.0261, 18813.08
500.5082, 18784.49
500.9904, 18831.41
501.4725, 18925.31
501.9546, 18996.91
502.4367, 19017.46
502.9188, 19031.16
503.4009, 19049.15
503.8831, 19070.87
504.3652, 19097.63
504.8473, 19132.56
505.3294, 19167.44
505.8115, 19193.71
506.2936, 19208.99
506.7758, 19223.31
507.2579, 19237.59
507.7400, 19251.92
508.2221, 19272.25
508.7042, 19299.70
509.1863, 19310.93
509.6685, 19279.69
510.1506, 19222.99
510.6327, 19197.57
511.1148, 19207.84
511.5969, 19223.13
512.0790, 19211.30
512.5612, 19185.09
513.0433, 19167.48
513.5254, 19170.48
514.0075, 19178.41
514.4896, 19182.91
514.9717, 19183.04
515.4539, 19176.45
515.9360, 19142.59
516.4181, 19116.06
516.9002, 19122.88
517.3823, 19177.48
517.8644, 19207.60
518.3466, 19172.37
518.8287, 19121.00
519.3108, 19101.91
519.7929, 19140.24
520.2750, 19171.58
520.7571, 19193.25
521.2393, 19202.64
521.7214, 19183.90
522.2035, 19122.83
522.6856, 19074.60
523.1677, 19077.91
523.6498, 19131.75
524.1320, 19149.20
524.6141, 19124.81
525.0962, 19088.76
525.5783, 19073.48
526.0604, 19074.79
526.5425, 19075.82
527.0247, 19072.15
527.5068, 19065.92
527.9889, 19057.15
528.4710, 19047.42
528.9531, 19042.05
529.4352, 19051.16
529.9174, 19061.33
530.3995, 19056.36
530.8816, 19031.68
531.3637, 19023.00
531.8458, 19060.20
532.3279, 19112.88
532.8101, 19152.54
533.2922, 19170.96
533.7743, 19180.34
534.2564, 19171.54
534.7385, 19154.34
535.2206, 19158.25
535.7027, 19194.46
536.1848, 19233.15
536.6669, 19265.44
537.1490, 19291.04
537.6312, 19304.39
538.1133, 19299.78
538.5954, 19297.67
539.0775, 19322.98
539.5596, 19373.17
540.0417, 19418.07
540.5239, 19453.74
541.0060, 19479.94
541.4881, 19494.67
541.9702, 19499.42
542.4523, 19499.67
542.9344, 19488.94
543.4166, 19481.20
543.8987, 19499.06
544.3808, 19542.76
544.8629, 19573.46
545.3450, 19539.02
545.8271, 19498.96
546.3093, 19507.23
546.7914, 19619.02
547.2735, 19711.80
547.7556, 19748.67
548.2377, 19751.38
548.7198, 19763.95
549.2020, 19788.02
549.6841, 19821.04
550.1662, 19863.87
550.6483, 19915.61
551.1304, 19970.33
551.6125, 20031.17
552.0947, 20085.63
552.5768, 20116.68
553.0589, 20124.28
553.5410, 20158.93
554.0231, 20231.34
554.5052, 20310.17
554.9874, 20347.00
555.4695, 20350.91
555.9516, 20355.92
556.4337, 20377.59
556.9158, 20405.29
557.3979, 20425.93
557.8801, 20441.71
558.3622, 20462.41
558.8443, 20494.79
559.3264, 20534.38
559.8085, 20578.66
560.2906, 20629.16
560.7728, 20680.33
561.2549, 20729.53
561.7370, 20780.08
562.2191, 20834.83
562.7012, 20871.44
563.1833, 20946.51
563.6655, 21082.67
564.1476, 21259.03
564.6297, 21400.47
565.1118, 21493.19
565.5939, 21586.47
566.0760, 21700.93
566.5582, 21833.95
567.0403, 21981.65
567.5224, 22144.15
568.0045, 22310.98
568.4866, 22468.39
568.9688, 22620.38
569.4509, 22774.64
569.9330, 22924.08
570.4151, 23090.40
570.8972, 23292.90
571.3793, 23527.46
571.8615, 23779.66
572.3436, 24063.83
572.8257, 24349.23
573.3078, 24612.96
573.7899, 24859.27
574.2720, 25116.09
574.7542, 25389.92
575.2363, 25680.84
575.7184, 25988.46
576.2005, 26315.96
576.6826, 26658.27
577.1647, 27015.33
577.6469, 27388.96
578.1290, 27790.03
578.6111, 28240.02
579.0932, 28619.11
579.5753, 28927.10
580.0574, 29122.31
580.5396, 29092.17
581.0217, 28838.96
581.5038, 28409.50
581.9859, 27732.28
582.4680, 26934.62
582.9501, 26230.55
583.4323, 25624.02
583.9144, 25081.02
584.3965, 24554.27
584.8786, 24084.93
585.3607, 23719.34
585.8428, 23498.13
586.3250, 23339.38
586.8071, 23239.18
587.2892, 23181.13
587.7713, 23135.18
588.2534, 23102.98
588.7355, 23078.27
589.2177, 23062.60
589.6998, 23055.45
590.1819, 23045.53
590.6640, 23030.14
591.1461, 23019.21
591.6282, 23021.04
592.1104, 23035.34
592.5925, 23043.35
593.0746, 23043.12
593.5567, 23040.31
594.0388, 23032.09
594.5209, 23025.13
595.0031, 23042.37
595.4852, 23098.52
595.9673, 23166.03
596.4494, 23221.62
596.9315, 23267.82
597.4136, 23310.65
597.8958, 23331.52
598.3779, 23368.96
598.8600, 23451.41
599.3421, 23582.23
599.8242, 23703.94
600.3063, 23804.32
600.7885, 23898.70
601.2706, 23990.49
601.7527, 24068.76
602.2348, 24176.98
602.7169, 24319.67
603.1990, 24484.57
603.6812, 24667.16
604.1633, 24868.46
604.6454, 25032.84
605.1275, 25140.48
605.6096, 25206.22
606.0917, 25269.44
606.5739, 25322.55
607.0560, 25328.22
607.5381, 25238.79
608.0202, 25104.87
608.5023, 24977.69
608.9844, 24860.02
609.4666, 24748.57
609.9487, 24624.29
610.4308, 24516.37
610.9129, 24446.78
611.3950, 24420.01
611.8771, 24431.09
612.3593, 24518.23
612.8414, 24627.93
613.3235, 24689.15
613.8056, 24672.55
614.2877, 24681.98
614.7698, 24753.66
615.2520, 24855.88
615.7341, 24878.77
616.2162, 24818.46
616.6983, 24724.99
617.1804, 24612.68
617.6625, 24487.37
618.1446, 24360.37
618.6267, 24232.01
619.1088, 24116.08
619.5909, 24029.55
620.0731, 23960.07
620.5552, 23892.13
621.0373, 23816.96
621.5194, 23760.74
622.0015, 23763.53
622.4836, 23782.86
622.9658, 23763.17
623.4479, 23635.08
623.9300, 23540.18
624.4121, 23497.72
624.8942, 23502.25
625.3763, 23542.11
625.8585, 23635.88
626.3406, 23714.36
626.8227, 23744.18
627.3048, 23731.37
627.7869, 23723.70
628.2690, 23720.81
628.7512, 23723.28
629.2333, 23729.82
629.7154, 23742.13
630.1975, 23768.58
630.6796, 23814.62
631.1617, 23853.44
631.6439, 23867.12
632.1260, 23861.26
632.6081, 23843.23
633.0902, 23804.92
633.5723, 23767.31
634.0544, 23727.62
634.5366, 23693.16
635.0187, 23687.24
635.5008, 23755.63
635.9829, 23785.17
636.4650, 23721.97
636.9471, 23578.98
637.4293, 23523.63
637.9114, 23571.51
638.3935, 23641.05
638.8756, 23675.74
639.3577, 23682.55
639.8398, 23696.82
640.3220, 23719.59
640.8041, 23752.17
641.2862, 23805.31
641.7683, 23866.51
642.2504, 23913.45
642.7325, 23928.44
643.2147, 23950.92
643.6968, 24005.39
644.1789, 24080.62
644.6610, 24159.05
645.1431, 24246.92
645.6252, 24326.19
646.1074, 24397.73
646.5895, 24459.53
647.0716, 24493.32
647.5537, 24488.19
648.0358, 24482.40
648.5179, 24488.22
649.0001, 24507.18
649.4822, 24565.95
649.9643, 24670.22
650.4464, 24760.80
650.9285, 24758.07
651.4106, 24709.21
651.8928, 24718.75
652.3749, 24812.83
652.8570, 24913.65
653.3391, 24946.11
653.8212, 24956.22
654.3033, 25002.32
654.7855, 25174.22
655.2676, 25301.91
655.7497, 25311.96
656.2318, 25250.47
656.7139, 25229.60
657.1960, 25268.54
657.6782, 25315.06
658.1603, 25358.69
658.6424, 25398.60
659.1245, 25428.18
659.6066, 25446.67
660.0887, 25462.31
660.5709, 25476.99
661.0530, 25493.45
661.5351, 25518.13
662.0172, 25551.35
662.4993, 25592.91
662.9814, 25646.67
663.4636, 25706.57
663.9457, 25769.48
664.4278, 25843.28
664.9099, 25897.91
665.3920, 25904.80
665.8741, 25892.82
666.3563, 25901.27
666.8384, 25944.94
667.3205, 25988.33
667.8026, 26031.98
668.2847, 26070.94
668.7668, 26089.67
669.2490, 26085.43
669.7311, 26080.50
670.2132, 26078.24
670.6953, 26084.45
671.1774, 26124.09
671.6595, 26193.11
672.1417, 26254.95
672.6238, 26279.47
673.1059, 26287.75
673.5880, 26298.68
674.0701, 26313.75
674.5522, 26332.65
675.0344, 26357.02
675.5165, 26383.29
675.9986, 26408.81
676.4807, 26437.19
676.9628, 26455.03
677.4449, 26453.11
677.9271, 26447.65
678.4092, 26459.74
678.8913, 26492.15
679.3734, 26522.25
679.8555, 26547.38
680.3376, 26566.19
680.8198, 26569.97
681.3019, 26563.52
681.7840, 26566.51
682.2661, 26605.39
682.7482, 26644.04
683.2303, 26639.29
683.7125, 26603.33
684.1946, 26582.26
684.6767, 26607.70
685.1588, 26642.41
685.6409, 26673.45
686.1230, 26700.32
686.6052, 26712.64
687.0873, 26696.96
687.5694, 26684.86
688.0515, 26696.36
688.5336, 26733.95
689.0157, 26770.98
689.4979, 26807.68
689.9800, 26839.78
690.4621, 26859.92
690.9442, 26870.99
691.4263, 26884.61
691.9084, 26906.84
692.3906, 26918.90
692.8727, 26881.28
693.3548, 26829.61
693.8369, 26815.85
694.3190, 26892.17
694.8011, 26970.48
695.2833, 27032.55
695.7654, 27079.71
696.2475, 27116.92
696.7296, 27145.07
697.2117, 27160.81
697.6938, 27158.01
698.1760, 27142.47
698.6581, 27141.52
699.1402, 27154.95
699.6223, 27182.78
700.1044, 27246.75
700.5865, 27318.10
701.0686, 27319.03
701.5507, 27252.79
702.0328, 27218.35
702.5150, 27317.24
702.9971, 27449.82
703.4792, 27538.58
703.9613, 27567.13
704.4434, 27573.04
704.9255, 27541.67
705.4077, 27504.67
705.8898, 27487.25
706.3719, 27497.76
706.8540, 27503.01
707.3361, 27499.61
707.8182, 27494.90
708.3004, 27509.94
708.7825, 27539.41
709.2646, 27529.85
709.7467, 27446.62
710.2288, 27361.64
710.7109, 27374.43
711.1931, 27451.73
711.6752, 27518.93
712.1573, 27547.63
712.6394, 27555.38
713.1215, 27537.62
713.6036, 27501.66
714.0858, 27482.83
714.5679, 27492.12
715.0500, 27506.04
715.5321, 27516.25
716.0142, 27524.49
716.4963, 27554.64
716.9785, 27613.65
717.4606, 27656.96
717.9427, 27636.62
718.4248, 27581.73
718.9069, 27576.02
719.3890, 27622.20
719.8712, 27671.50
720.3533, 27682.99
720.8354, 27681.90
721.3175, 27688.96
721.7996, 27703.56
722.2817, 27738.59
722.7639, 27821.81
723.2460, 27909.76
723.7281, 27962.80
724.2102, 27962.60
724.6923, 27970.13
725.1744, 27989.34
725.6566, 28013.00
726.1387, 28029.90
726.6208, 28041.03
727.1029, 28058.64
727.5850, 28087.94
728.0671, 28121.20
728.5493, 28151.35
729.0314, 28178.12
729.5135, 28201.03
729.9956, 28235.66
730.4777, 28251.63
730.9598, 28217.95
731.4420, 28152.78
731.9241, 28122.33
732.4062, 28158.95
732.8883, 28186.75
733.3704, 28182.74
733.8525, 28153.21
734.3347, 28125.74
734.8168, 28097.43
735.2989, 28097.16
735.7810, 28153.48
736.2631, 28246.43
736.7452, 28346.78
737.2274, 28450.33
737.7095, 28513.65
738.1916, 28470.22
738.6737, 28402.66
739.1558, 28376.54
739.6379, 28405.86
740.1201, 28434.96
740.6022, 28455.04
741.0843, 28472.44
741.5664, 28490.33
742.0485, 28508.56
742.5306, 28527.96
743.0128, 28544.91
743.4949, 28574.71
743.9770, 28652.15
744.4591, 28760.09
744.9412, 28820.82
745.4233, 28812.20
745.9055, 28796.47
746.3876, 28829.05
746.8697, 28888.52
747.3518, 28945.53
747.8339, 28987.67
748.3160, 29030.49
748.7982, 29082.08
749.2803, 29133.42
749.7624, 29169.90
750.2445, 29178.62
750.7266, 29205.32
751.2087, 29264.88
751.6909, 29338.63
752.1730, 29388.93
752.6551, 29417.48
753.1372, 29434.72
753.6193, 29443.65
754.1014, 29446.57
754.5836, 29430.36
755.0657, 29409.74
755.5478, 29425.42
756.0299, 29563.85
756.5120, 29674.39
756.9941, 29667.79
757.4763, 29563.46
757.9584, 29525.99
758.4405, 29578.35
758.9226, 29653.71
759.4047, 29730.23
759.8868, 29806.39
760.3690, 29888.63
760.8511, 29976.06
761.3332, 30041.36
761.8153, 30037.14
762.2974, 30013.61
762.7795, 30054.60
763.2617, 30160.45
763.7438, 30250.71
764.2259, 30268.47
764.7080, 30271.04
765.1901, 30294.32
765.6722, 30346.67
766.1544, 30400.51
766.6365, 30467.90
767.1186, 30519.35
767.6007, 30523.88
768.0828, 30481.69
768.5649, 30464.79
769.0471, 30476.72
769.5292, 30506.89
770.0113, 30563.07
770.4934, 30625.37
770.9755, 30655.83
771.4576, 30642.09
771.9398, 30627.74
772.4219, 30621.16
772.9040, 30632.26
773.3861, 30672.65
773.8682, 30789.79
774.3503, 30854.96
774.8325, 30843.10
775.3146, 30807.88
775.7967, 30818.55
776.2788, 30874.74
776.7609, 30921.63
777.2430, 30947.82
777.7252, 30967.51
778.2073, 31004.34
778.6894, 31046.09
779.1715, 31067.29
779.6536, 31029.21
780.1357, 31016.43
780.6179, 31112.89
781.1000, 31248.96
781.5821, 31300.05
782.0642, 31194.24
782.5463, 31119.74
783.0284, 31107.68
783.5105, 31136.26
783.9926, 31170.05
784.4747, 31209.21
784.9568, 31230.98
785.4390, 31219.08
785.9211, 31201.11
786.4032, 31217.58
786.8853, 31259.04
787.3674, 31301.00
787.8495, 31321.75
788.3317, 31352.55
788.8138, 31418.54
789.2959, 31506.09
789.7780, 31563.76
790.2601, 31571.76
790.7422, 31582.10
791.2244, 31606.40
791.7065, 31641.72
792.1886, 31689.57
792.6707, 31747.17
793.1528, 31784.93
793.6349, 31762.02
794.1171, 31727.26
794.5992, 31749.84
795.0813, 31815.78
795.5634, 31870.12
796.0455, 31871.07
796.5276, 31874.44
797.0098, 31931.70
797.4919, 32029.25
797.9740, 32021.50
798.4561, 31849.83
798.9382, 31724.72
799.4203, 31761.55
799.9025, 31913.17
800.3846, 31973.28
800.8667, 31947.49
801.3488, 31921.70
801.8309, 31951.36
802.3130, 32007.15
802.7952, 32067.11
803.2773, 32128.21
803.7594, 32179.45
804.2415, 32216.08
804.7236, 32241.50
805.2057, 32255.68
805.6879, 32258.54
806.1700, 32258.80
806.6521, 32251.64
807.1342, 32259.72
807.6163, 32307.96
808.0984, 32382.42
808.5806, 32438.52
809.0627, 32475.66
809.5448, 32497.80
810.0269, 32488.62
810.5090, 32478.54
810.9911, 32497.22
811.4733, 32548.97
811.9554, 32584.19
812.4375, 32562.44
812.9196, 32556.66
813.4017, 32616.15
813.8839, 32745.35
814.3660, 32781.31
814.8481, 32714.24
815.3302, 32638.29
815.8123, 32625.02
816.2944, 32654.85
816.7766, 32687.89
817.2587, 32723.82
817.7408, 32784.52
818.2229, 32913.67
818.7050, 33050.59
819.1871, 33152.75
819.6693, 33207.86
820.1514, 33276.79
820.6335, 33358.37
821.1156, 33457.88
821.5977, 33583.95
822.0798, 33734.37
822.5620, 33879.46
823.0441, 34017.13
823.5262, 34131.82
824.0083, 34187.96
824.4904, 34221.90
824.9725, 34281.96
825.4547, 34373.66
825.9368, 34449.99
826.4189, 34477.39
826.9010, 34495.11
827.3831, 34523.42
827.8652, 34561.86
828.3474, 34621.60
828.8295, 34711.93
829.3116, 34793.64
829.7937, 34825.05
830.2758, 34824.35
830.7579, 34854.31
831.2401, 34918.06
831.7222, 34974.06
832.2043, 34973.95
832.6864, 34965.86
833.1685, 34995.95
833.6506, 35079.49
834.1328, 35131.70
834.6149, 35114.66
835.0970, 35105.04
835.5791, 35159.84
836.0612, 35282.28
836.5433, 35338.47
837.0255, 35324.48
837.5076, 35301.84
837.9897, 35307.66
838.4718, 35341.93
838.9539, 35420.46
839.4360, 35544.22
839.9182, 35639.80
840.4003, 35654.80
840.8824, 35647.24
841.3645, 35642.80
841.8466, 35637.96
842.3287, 35672.37
842.8109, 35756.77
843.2930, 35846.96
843.7751, 35911.06
844.2572, 35954.70
844.7393, 36003.52
845.2214, 36056.88
845.7036, 36101.00
846.1857, 36131.71
846.6678, 36145.97
847.1499, 36125.74
847.6320, 36068.07
848.1141, 36064.82
848.5963, 36179.30
849.0784, 36288.77
849.5605, 36334.89
850.0426, 36323.16
850.5247, 36328.07
851.0068, 36349.91
851.4890, 36393.29
851.9711, 36478.96
852.4532, 36577.71
852.9353, 36633.20
853.4174, 36652.55
853.8995, 36712.02
854.3817, 36906.41
854.8638, 37087.77
855.3459, 37168.86
855.8280, 37159.00
856.3101, 37192.81
856.7922, 37278.42
857.2744, 37379.42
857.7565, 37496.07
858.2386, 37608.39
858.7207, 37639.74
859.2028, 37603.70
859.6849, 37572.81
860.1671, 37608.10
860.6492, 37646.53
861.1313, 37633.06
861.6134, 37579.43
862.0955, 37569.20
862.5776, 37623.40
863.0598, 37694.68
863.5419, 37777.50
864.0240, 37863.42
864.5061, 37918.25
864.9882, 37943.78
865.4703, 37972.28
865.9524, 38029.14
866.4345, 38087.04
866.9166, 38104.73
867.3987, 38099.87
867.8809, 38118.85
868.3630, 38215.75
868.8451, 38291.95
869.3272, 38315.36
869.8093, 38307.13
870.2914, 38319.15
870.7736, 38352.36
871.2557, 38400.60
871.7378, 38470.98
872.2199, 38539.13
872.7020, 38556.46
873.1841, 38542.55
873.6663, 38544.20
874.1484, 38583.49
874.6305, 38636.07
875.1126, 38710.27
875.5947, 38787.37
876.0768, 38832.79
876.5590, 38827.25
877.0411, 38847.50
877.5232, 38910.53
878.0053, 38989.51
878.4874, 39041.02
878.9695, 39074.87
879.4517, 39122.82
879.9338, 39195.00
880.4159, 39274.85
880.8980, 39376.82
881.3801, 39467.30
881.8622, 39506.39
882.3444, 39419.96
882.8265, 39403.38
883.3086, 39477.11
883.7907, 39588.06
884.2728, 39696.30
884.7549, 39797.33
885.2371, 39843.05
885.7192, 39822.63
886.2013, 39803.32
886.6834, 39854.10
887.1655, 39930.91
887.6476, 39990.63
888.1298, 40025.81
888.6119, 40048.32
889.0940, 40056.50
889.5761, 40058.18
890.0582, 40050.59
890.5403, 40032.78
891.0225, 40065.59
891.5046, 40152.69
891.9867, 40231.20
892.4688, 40219.21
892.9509, 40188.27
893.4330, 40233.16
893.9152, 40354.87
894.3973, 40476.21
894.8794, 40592.84
895.3615, 40675.74
895.8436, 40697.36
896.3257, 40666.99
896.8079, 40695.02
897.2900, 40786.80
897.7721, 40879.76
898.2542, 40941.66
898.7363, 40982.70
899.2184, 41008.38
899.7006, 41025.63
900.1827, 41058.28
900.6648, 41126.26
901.1469, 41202.31
901.6290, 41292.10
902.1111, 41380.74
902.5933, 41423.49
903.0754, 41411.14
903.5575, 41389.61
904.0396, 41358.91
904.5217, 41346.93
905.0038, 41431.41
905.4860, 41573.00
905.9681, 41671.04
906.4502, 41658.82
906.9323, 41644.17
907.4144, 41680.99
907.8965, 41743.83
908.3787, 41793.31
908.8608, 41812.98
909.3429, 41868.65
909.8250, 41979.36
910.3071, 42088.86
910.7892, 42103.01
911.2714, 42057.71
911.7535, 42057.23
912.2356, 42121.12
912.7177, 42205.62
913.1998, 42303.80
913.6819, 42395.71
914.1641, 42461.48
914.6462, 42493.48
915.1283, 42530.94
915.6104, 42582.25
916.0925, 42620.05
916.5746, 42604.46
917.0568, 42559.02
917.5389, 42593.57
918.0210, 42703.86
918.5031, 42795.66
918.9852, 42767.98
919.4673, 42736.21
919.9495, 42786.00
920.4316, 42917.62
920.9137, 43029.66
921.3958, 43113.77
921.8779, 43186.75
922.3600, 43243.15
922.8422, 43296.56
923.3243, 43401.83
923.8064, 43545.30
924.2885, 43665.45
924.7706, 43710.70
925.2527, 43740.03
925.7349, 43791.26
926.2170, 43853.14
926.6991, 43898.96
927.1812, 43912.71
927.6633, 43940.48
928.1454, 43990.87
928.6276, 44055.42
929.1097, 44131.12
929.5918, 44212.63
930.0739, 44267.32
930.5560, 44279.98
931.0381, 44303.98
931.5203, 44401.11
932.0024, 44518.71
932.4845, 44600.16
932.9666, 44608.47
933.4487, 44650.54
933.9308, 44731.51
934.4130, 44834.07
934.8951, 44955.32
935.3772, 45087.57
935.8593, 45181.40
936.3414, 45236.07
936.8235, 45298.38
937.3057, 45390.08
937.7878, 45509.15
938.2699, 45675.91
938.7520, 45885.95
939.2341, 46027.69
939.7162, 46050.88
940.1984, 46109.18
940.6805, 46281.68
941.1626, 46515.54
941.6447, 46626.76
942.1268, 46646.43
942.6089, 46722.32
943.0911, 46980.54
943.5732, 47254.41
944.0553, 47409.31
944.5374, 47515.24
945.0195, 47716.91
945.5016, 48057.96
945.9838, 48401.20
946.4659, 48729.78
946.9480, 49057.83
947.4301, 49381.02
947.9122, 49722.25
948.3943, 50157.50
948.8764, 50702.09
949.3585, 51347.57
949.8406, 52140.38
950.3228, 53004.07
950.8049, 53864.75
951.2870, 54695.00
951.7691, 55637.56
952.2512, 56699.23
952.7333, 57859.21
953.2155, 59097.70
953.6976, 60414.88
954.1797, 61777.54
954.6618, 63196.37
955.1439, 64753.77
955.6260, 66550.43
956.1082, 68427.33
956.5903, 70235.97
957.0724, 72039.58
957.5545, 74069.76
958.0366, 76373.82
958.5187, 78750.63
959.0009, 81172.57
959.4830, 83628.42
959.9651, 86125.58
960.4472, 88622.79
960.9293, 91148.81
961.4114, 93831.98
961.8936, 96332.59
962.3757, 98757.14
962.8578, 100745.9
963.3399, 102086.0
963.8220, 102966.4
964.3041, 102069.4
964.7863, 99220.85
965.2684, 95225.78
965.7505, 90190.43
966.2326, 84775.86
966.7147, 79771.65
967.1968, 75298.83
967.6790, 71352.52
968.1611, 68018.88
968.6432, 65231.59
969.1253, 62979.10
969.6074, 61227.89
970.0895, 59696.35
970.5717, 58373.76
971.0538, 57286.19
971.5359, 56497.38
972.0180, 55889.38
972.5001, 55386.00
972.9822, 54947.52
973.4644, 54487.13
973.9465, 53851.21
974.4286, 53371.54
974.9107, 53127.54
975.3928, 52997.16
975.8749, 52816.67
976.3571, 52596.08
976.8392, 52434.62
977.3213, 52348.98
977.8034, 52293.28
978.2855, 52249.35
978.7676, 52201.98
979.2498, 52117.79
979.7319, 51973.63
980.2140, 51952.66
980.6961, 52121.89
981.1782, 52281.17
981.6603, 52312.19
982.1425, 52258.74
982.6246, 52285.11
983.1067, 52380.55
983.5888, 52490.11
984.0709, 52625.98
984.5530, 52726.95
985.0352, 52727.48
985.5173, 52676.09
985.9994, 52687.74
986.4815, 52782.58
986.9636, 52883.83
987.4457, 52981.04
987.9279, 53084.34
988.4100, 53199.53
988.8921, 53332.31
989.3742, 53507.39
989.8563, 53744.64
990.3384, 53936.97
990.8206, 53974.24
991.3027, 54008.84
991.7848, 54139.61
992.2669, 54366.63
992.7490, 54564.53
993.2311, 54731.62
993.7133, 54873.80
994.1954, 54973.57
994.6775, 55062.24
995.1596, 55185.90
995.6417, 55331.48
996.1238, 55453.77
996.6060, 55492.60
997.0881, 55580.91
997.5702, 55770.32
998.0523, 55987.51
998.5344, 56096.21
999.0165, 56112.42
999.4987, 56148.95
999.9808, 56225.24
1000.463, 56337.30
1000.945, 56508.65
1001.427, 56697.29
1001.909, 56871.82
1002.391, 57031.93
1002.873, 57155.64
1003.356, 57226.52
1003.838, 57311.56
1004.320, 57457.46
1004.802, 57647.38
1005.284, 57848.39
1005.766, 58055.03
1006.248, 58240.59
1006.730, 58367.02
1007.213, 58499.65
1007.695, 58662.26
1008.177, 58849.23
1008.659, 59055.45
1009.141, 59281.10
1009.623, 59515.73
1010.105, 59763.03
1010.587, 59982.30
1011.069, 60106.94
1011.552, 60179.25
1012.034, 60245.93
1012.516, 60305.85
1012.998, 60412.57
1013.480, 60605.75
1013.962, 60805.04
1014.444, 60978.73
1014.926, 61129.02
1015.409, 61270.53
1015.891, 61403.14
1016.373, 61509.32
1016.855, 61526.29
1017.337, 61572.67
1017.819, 61744.70
1018.301, 61999.64
1018.783, 62242.25
1019.265, 62456.84
1019.748, 62687.95
1020.230, 62937.16
1020.712, 63203.00
1021.194, 63479.53
1021.676, 63769.59
1022.158, 64092.56
1022.640, 64452.85
1023.122, 64776.80
1023.604, 64986.77
1024.087, 65195.82
1024.569, 65463.52
1025.051, 65778.10
1025.533, 66076.72
1026.015, 66359.80
1026.497, 66644.47
1026.979, 66934.78
1027.461, 67238.48
1027.943, 67590.45
1028.426, 67958.18
1028.908, 68290.48
1029.390, 68552.80
1029.872, 68831.72
1030.354, 69149.09
1030.836, 69440.64
1031.318, 69628.13
1031.800, 69735.13
1032.283, 69846.05
1032.765, 69963.71
1033.247, 70027.79
1033.729, 69993.39
1034.211, 69902.41
1034.693, 69748.74
1035.175, 69556.50
1035.657, 69420.61
1036.140, 69347.55
1036.622, 69256.72
1037.104, 69116.83
1037.586, 68967.95
1038.068, 68823.57
1038.550, 68718.14
1039.032, 68711.32
1039.514, 68889.64
1039.996, 68988.70
1040.479, 68940.84
1040.961, 68903.61
1041.443, 69033.57
1041.925, 69280.02
1042.407, 69360.19
1042.889, 69295.23
1043.371, 69240.83
1043.853, 69253.09
1044.335, 69333.52
1044.818, 69535.30
1045.300, 69795.14
1045.782, 69969.69
1046.264, 70042.84
1046.746, 70113.16
1047.228, 70194.45
1047.710, 70285.89
1048.192, 70397.15
1048.675, 70510.49
1049.157, 70603.77
1049.639, 70672.94
1050.121, 70721.14
1050.603, 70732.63
1051.085, 70754.43
1051.567, 70817.27
1052.049, 70904.18
1052.531, 70948.93
1053.014, 70961.30
1053.496, 70980.03
1053.978, 71047.55
1054.460, 71098.39
1054.942, 71068.82
1055.424, 71025.92
1055.906, 71068.65
1056.388, 71227.69
1056.870, 71298.47
1057.353, 71260.96
1057.835, 71209.24
1058.317, 71246.02
1058.799, 71299.16
1059.281, 71321.84
1059.763, 71297.48
1060.245, 71119.21
1060.727, 70691.84
1061.210, 70240.08
1061.692, 69799.63
1062.174, 69380.05
1062.656, 68981.26
1063.138, 68612.70
1063.620, 68316.02
1064.102, 68125.93
1064.584, 67919.43
1065.067, 67569.09
1065.549, 67235.59
1066.031, 67054.08
1066.513, 67027.63
1066.995, 66908.05
1067.477, 66691.71
1067.959, 66496.17
1068.441, 66416.74
1068.923, 66366.53
1069.406, 66251.91
1069.888, 66103.04
1070.370, 65992.80
1070.852, 65961.08
1071.334, 65892.51
1071.816, 65758.32
1072.298, 65633.09
1072.780, 65620.48
1073.262, 65669.45
1073.745, 65671.86
1074.227, 65619.67
1074.709, 65547.82
1075.191, 65447.44
1075.673, 65361.01
1076.155, 65303.90
1076.637, 65272.29
1077.119, 65262.95
1077.601, 65272.74
1078.084, 65267.41
1078.566, 65232.26
1079.048, 65192.79
1079.530, 65182.04
1080.012, 65167.59
1080.494, 65104.03
1080.976, 64976.78
1081.458, 64908.10
1081.941, 64914.66
1082.423, 64886.88
1082.905, 64720.61
1083.387, 64508.36
1083.869, 64391.46
1084.351, 64342.48
1084.833, 64291.67
1085.315, 64220.31
1085.797, 64144.47
1086.280, 64055.66
1086.762, 63981.35
1087.244, 63972.93
1087.726, 64005.90
1088.208, 63976.24
1088.690, 63880.34
1089.172, 63815.14
1089.654, 63867.42
1090.136, 63928.23
1090.619, 63953.24
1091.101, 63942.87
1091.583, 63874.54
1092.065, 63748.50
1092.547, 63709.09
1093.029, 63812.98
1093.511, 63930.22
1093.993, 63954.96
1094.476, 63921.21
1094.958, 63843.59
1095.440, 63706.37
1095.922, 63683.60
1096.404, 63805.42
1096.886, 63929.09
1097.368, 63978.22
1097.850, 63986.53
1098.333, 63997.55
1098.815, 64012.89
1099.297, 64036.57
1099.779, 64036.24
1100.261, 64099.32
1100.743, 64278.59
1101.225, 64442.83
1101.707, 64432.59
1102.189, 64302.11
1102.672, 64288.46
1103.154, 64389.18
1103.636, 64501.53
1104.118, 64588.39
1104.600, 64658.19
1105.082, 64717.90
1105.564, 64764.93
1106.046, 64776.06
1106.528, 64753.89
1107.011, 64799.84
1107.493, 64940.74
1107.975, 65076.36
1108.457, 65090.73
1108.939, 65085.78
1109.421, 65151.77
1109.903, 65292.48
1110.385, 65440.42
1110.868, 65596.15
1111.350, 65745.68
1111.832, 65883.99
1112.314, 66014.20
1112.796, 66129.04
1113.278, 66241.69
1113.760, 66371.27
1114.242, 66526.71
1114.724, 66685.19
1115.207, 66857.73
1115.689, 67001.79
1116.171, 67080.71
1116.653, 67113.23
1117.135, 67137.88
1117.617, 67161.89
1118.099, 67210.48
1118.581, 67311.61
1119.063, 67417.95
1119.546, 67528.67
1120.028, 67630.21
1120.510, 67704.53
1120.992, 67756.72
1121.474, 67820.59
1121.956, 67898.94
1122.438, 67980.37
1122.920, 68048.73
1123.403, 68129.92
1123.885, 68265.24
1124.367, 68418.37
1124.849, 68486.38
1125.331, 68462.21
1125.813, 68506.76
1126.295, 68655.05
1126.777, 68833.77
1127.260, 69005.63
1127.742, 69148.06
1128.224, 69221.51
1128.706, 69221.24
1129.188, 69268.37
1129.670, 69368.28
1130.152, 69498.53
1130.634, 69670.52
1131.116, 69833.59
1131.599, 69889.32
1132.081, 69900.63
1132.563, 69969.91
1133.045, 70152.97
1133.527, 70285.56
1134.009, 70330.77
1134.491, 70385.77
1134.973, 70515.84
1135.455, 70689.96
1135.938, 70865.29
1136.420, 71017.60
1136.902, 71079.29
1137.384, 70905.28
1137.866, 70803.51
1138.348, 70845.52
1138.830, 70938.26
1139.312, 71008.02
1139.795, 71056.09
1140.277, 71085.73
1140.759, 71099.59
1141.241, 71111.61
1141.723, 71164.91
1142.205, 71177.63
1142.687, 71084.62
1143.169, 70955.27
1143.651, 70919.86
1144.134, 70969.98
1144.616, 70918.32
1145.098, 70737.02
1145.580, 70590.54
1146.062, 70638.21
1146.544, 70729.73
1147.026, 70771.69
1147.508, 70770.66
1147.990, 70755.28
1148.473, 70723.56
1148.955, 70707.27
1149.437, 70717.28
1149.919, 70728.44
1150.401, 70728.61
1150.883, 70707.38
1151.365, 70642.84
1151.847, 70529.41
1152.330, 70446.68
1152.812, 70399.10
1153.294, 70357.13
1153.776, 70320.73
1154.258, 70261.04
1154.740, 70092.56
1155.222, 69896.45
1155.704, 69800.12
1156.186, 69910.79
1156.669, 69903.88
1157.151, 69748.23
1157.633, 69577.03
1158.115, 69473.32
1158.597, 69409.27
1159.079, 69344.36
1159.561, 69275.74
1160.043, 69195.26
1160.526, 69094.98
1161.008, 68984.80
1161.490, 68851.02
1161.972, 68734.41
1162.454, 68686.71
1162.936, 68677.84
1163.418, 68617.84
1163.900, 68520.54
1164.382, 68464.95
1164.865, 68596.79
1165.347, 68607.66
1165.829, 68403.51
1166.311, 68122.31
1166.793, 67933.18
1167.275, 67819.68
1167.757, 67720.99
1168.239, 67632.90
1168.721, 67562.91
1169.204, 67553.72
1169.686, 67516.03
1170.168, 67412.29
1170.650, 67272.61
1171.132, 67141.12
1171.614, 67024.90
1172.096, 66961.80
1172.578, 66960.49
1173.061, 66959.38
1173.543, 66939.29
1174.025, 66883.31
1174.507, 66772.63
1174.989, 66624.14
1175.471, 66476.71
1175.953, 66336.53
1176.435, 66263.15
1176.917, 66298.16
1177.400, 66304.49
1177.882, 66168.46
1178.364, 65988.88
1178.846, 65838.95
1179.328, 65718.41
1179.810, 65597.66
1180.292, 65478.07
1180.774, 65339.35
1181.256, 65141.23
1181.739, 64991.77
1182.221, 65026.10
1182.703, 65114.28
1183.185, 65120.59
1183.667, 65036.06
1184.149, 64976.05
1184.631, 64938.99
1185.113, 64911.70
1185.596, 64909.95
1186.078, 64883.34
1186.560, 64719.27
1187.042, 64540.57
1187.524, 64547.42
1188.006, 64824.58
1188.488, 64862.92
1188.970, 64646.48
1189.453, 64426.86
1189.935, 64404.93
1190.417, 64424.89
1190.899, 64340.47
1191.381, 64206.15
1191.863, 64140.91
1192.345, 64171.38
1192.827, 64171.19
1193.309, 64132.40
1193.792, 64079.29
1194.274, 64035.93
1194.756, 63984.03
1195.238, 63886.82
1195.720, 63767.30
1196.202, 63703.31
1196.684, 63712.66
1197.166, 63712.84
1197.648, 63694.98
1198.131, 63663.58
1198.613, 63634.26
1199.095, 63584.49
1199.577, 63466.13
1200.059, 63298.40
1200.541, 63197.58
1201.023, 63178.33
1201.505, 63183.45
1201.988, 63211.63
1202.470, 63223.09
1202.952, 63156.29
1203.434, 63062.05
1203.916, 62984.54
1204.398, 62932.20
1204.880, 62927.70
1205.362, 62989.82
1205.844, 63015.14
1206.327, 62968.73
1206.809, 62907.58
1207.291, 62904.92
1207.773, 62924.07
1208.255, 62938.75
1208.737, 62944.14
1209.219, 62848.20
1209.701, 62611.00
1210.183, 62445.41
1210.666, 62435.76
1211.148, 62476.84
1211.630, 62440.06
1212.112, 62370.01
1212.594, 62324.38
1213.076, 62318.29
1213.558, 62282.00
1214.040, 62209.64
1214.523, 62137.61
1215.005, 62079.03
1215.487, 62031.63
1215.969, 62004.04
1216.451, 61980.30
1216.933, 61937.16
1217.415, 61866.69
1217.897, 61799.21
1218.380, 61732.76
1218.862, 61679.85
1219.344, 61640.47
1219.826, 61624.05
1220.308, 61657.44
1220.790, 61713.20
1221.272, 61749.69
1221.754, 61754.19
1222.236, 61766.94
1222.719, 61787.64
1223.201, 61810.70
1223.683, 61844.04
1224.165, 61863.64
1224.647, 61822.17
1225.129, 61755.71
1225.611, 61730.22
1226.093, 61773.29
1226.575, 61766.25
1227.058, 61706.04
1227.540, 61626.45
1228.022, 61521.05
1228.504, 61434.45
1228.986, 61427.97
1229.468, 61466.50
1229.950, 61491.82
1230.432, 61509.55
1230.915, 61459.14
1231.397, 61331.04
1231.879, 61249.12
1232.361, 61371.82
1232.843, 61511.81
1233.325, 61483.51
1233.807, 61364.54
1234.289, 61311.05
1234.771, 61346.97
1235.254, 61323.09
1235.736, 61231.57
1236.218, 61160.40
1236.700, 61207.81
1237.182, 61268.82
1237.664, 61270.65
1238.146, 61227.38
1238.628, 61161.20
1239.110, 61063.00
1239.593, 61044.63
1240.075, 61112.64
1240.557, 61205.17
1241.039, 61330.72
1241.521, 61411.29
1242.003, 61369.04
1242.485, 61258.55
1242.967, 61160.41
1243.449, 61075.04
1243.932, 61047.90
1244.414, 61082.35
1244.896, 61114.31
1245.378, 61094.89
1245.860, 61068.74
1246.342, 61069.28
1246.824, 61074.83
1247.306, 61047.90
1247.789, 60991.94
1248.271, 60931.73
1248.753, 60870.85
1249.235, 60853.83
1249.717, 60959.32
1250.199, 61052.11
1250.681, 61065.45
1251.163, 61042.86
1251.646, 61053.16
1252.128, 61089.73
1252.610, 61125.43
1253.092, 61157.08
1253.574, 61192.81
1254.056, 61260.75
1254.538, 61300.63
1255.020, 61298.81
1255.502, 61257.35
1255.984, 61140.34
1256.467, 60991.51
1256.949, 60961.79
1257.431, 61059.05
1257.913, 61141.72
1258.395, 61149.40
1258.877, 61135.77
1259.359, 61098.47
1259.841, 61071.59
1260.324, 61130.96
1260.806, 61229.52
1261.288, 61278.03
1261.770, 61267.52
1262.252, 61205.52
1262.734, 61024.86
1263.216, 60941.86
1263.698, 61025.32
1264.181, 61152.33
1264.663, 61166.23
1265.145, 61112.90
1265.627, 61029.58
1266.109, 60930.07
1266.591, 60938.18
1267.073, 61109.49
1267.555, 61220.38
1268.037, 61217.18
1268.520, 61176.06
1269.002, 61181.02
1269.484, 61199.13
1269.966, 61188.84
1270.448, 61151.80
1270.930, 61132.11
1271.412, 61127.05
1271.894, 61164.18
1272.376, 61255.78
1272.859, 61347.38
1273.341, 61405.87
1273.823, 61424.95
1274.305, 61358.39
1274.787, 61247.54
1275.269, 61260.92
1275.751, 61400.30
1276.233, 61492.12
1276.716, 61502.90
1277.198, 61488.04
1277.680, 61458.65
1278.162, 61450.28
1278.644, 61508.45
1279.126, 61591.35
1279.608, 61571.48
1280.090, 61471.61
1280.573, 61444.03
1281.055, 61516.87
1281.537, 61583.86
1282.019, 61578.65
1282.501, 61564.89
1282.983, 61566.64
1283.465, 61574.31
1283.947, 61554.61
1284.429, 61526.67
1284.911, 61557.66
1285.394, 61655.62
1285.876, 61724.68
1286.358, 61702.39
1286.840, 61691.02
1287.322, 61714.26
1287.804, 61754.01
1288.286, 61787.32
1288.768, 61816.91
1289.251, 61856.78
1289.733, 61905.57
1290.215, 61907.37
1290.697, 61850.22
1291.179, 61774.16
1291.661, 61679.32
1292.143, 61609.44
1292.625, 61654.80
1293.108, 61724.32
1293.590, 61697.19
1294.072, 61582.49
1294.554, 61565.61
1295.036, 61674.55
1295.518, 61729.03
1296.000, 61694.59
1296.482, 61651.95
1296.964, 61651.35
1297.447, 61689.90
##END=



