##NAMES=Fluorite
##RRUFFID=R060548
##IDEAL CHEMISTRY=CaF_2_
##LOCALITY=unknown
##OWNER=RRUFF
##SOURCE=Gemological Institute of America
##DESCRIPTION=Pale blue fragment
##STATUS=The identification of this mineral has been confirmed by X-ray diffraction and chemical analysis
##URL=rruff.info/R060548
##MEASURED CHEMISTRY=Ca_1.00_F_2.00_
163.466, 14339.610
163.948, 14348.070
164.430, 14359.500
164.912, 14379.050
165.394, 14404.040
165.876, 14431.120
166.359, 14464.620
166.841, 14496.300
167.323, 14520.280
167.805, 14535.660
168.287, 14549.040
168.769, 14564.710
169.251, 14581.940
169.733, 14599.110
170.216, 14612.210
170.698, 14627.190
171.180, 14650.970
171.662, 14687.250
172.144, 14725.500
172.626, 14756.980
173.108, 14783.530
173.590, 14811.320
174.072, 14846.290
174.555, 14883.720
175.037, 14915.920
175.519, 14935.960
176.001, 14959.740
176.483, 15009.840
176.965, 15082.370
177.447, 15153.460
177.929, 15201.910
178.412, 15237.480
178.894, 15278.780
179.376, 15332.140
179.858, 15391.070
180.340, 15446.940
180.822, 15499.560
181.304, 15550.550
181.786, 15596.350
182.268, 15640.810
182.751, 15695.980
183.233, 15775.900
183.715, 15864.270
184.197, 15922.800
184.679, 15950.590
185.161, 15966.470
185.643, 15982.890
186.125, 16001.360
186.607, 16031.970
187.090, 16080.040
187.572, 16142.520
188.054, 16217.180
188.536, 16306.580
189.018, 16391.711
189.500, 16441.570
189.982, 16458.350
190.464, 16476.000
190.947, 16511.789
191.429, 16562.650
191.911, 16605.029
192.393, 16636.369
192.875, 16665.801
193.357, 16681.387
193.839, 16724.463
194.321, 16760.867
194.803, 16790.957
195.286, 16795.826
195.768, 16833.264
196.250, 16857.646
196.732, 16881.494
197.214, 16923.516
197.696, 16932.049
198.178, 16973.789
198.661, 17002.270
199.143, 17036.814
199.625, 17058.227
200.107, 17083.350
200.589, 17131.740
201.071, 17172.869
201.553, 17208.820
202.035, 17229.141
202.517, 17217.529
202.999, 17167.920
203.482, 17143.260
203.964, 17160.061
204.446, 17202.340
204.928, 17214.381
205.410, 17192.109
205.892, 17148.660
206.374, 17085.160
206.857, 16992.939
207.339, 16923.279
207.821, 16884.859
208.303, 16874.881
208.785, 16884.900
209.267, 16928.949
209.749, 16964.131
210.231, 16944.801
210.713, 16850.520
211.195, 16786.150
211.678, 16782.561
212.160, 16833.289
212.642, 16847.180
213.124, 16813.471
213.606, 16762.910
214.088, 16724.631
214.570, 16701.881
215.052, 16681.699
215.535, 16660.350
216.017, 16637.680
216.499, 16623.109
216.981, 16620.170
217.463, 16619.359
217.945, 16608.711
218.427, 16582.039
218.909, 16559.240
219.391, 16545.051
219.874, 16539.381
220.356, 16536.289
220.838, 16538.471
221.320, 16540.010
221.802, 16532.449
222.284, 16510.131
222.766, 16492.100
223.248, 16486.699
223.731, 16497.619
224.213, 16496.480
224.695, 16479.881
225.177, 16455.230
225.659, 16431.461
226.141, 16407.680
226.623, 16387.500
227.105, 16370.210
227.587, 16353.490
228.070, 16353.060
228.552, 16377.030
229.034, 16411.211
229.516, 16432.270
229.998, 16432.340
230.480, 16432.311
230.962, 16442.711
231.444, 16472.869
231.926, 16471.711
232.409, 16416.580
232.891, 16343.030
233.373, 16316.220
233.855, 16369.050
234.337, 16415.619
234.819, 16419.689
235.301, 16354.770
235.783, 16339.210
236.266, 16402.750
236.748, 16501.279
237.230, 16546.881
237.712, 16503.859
238.194, 16464.811
238.676, 16470.699
239.158, 16551.090
239.640, 16586.369
240.122, 16556.211
240.605, 16489.920
241.087, 16448.529
241.569, 16443.641
242.051, 16445.699
242.533, 16442.211
243.015, 16426.301
243.497, 16424.410
243.980, 16445.170
244.462, 16476.529
244.944, 16486.770
245.426, 16448.740
245.908, 16429.961
246.390, 16465.000
246.872, 16589.859
247.354, 16673.330
247.836, 16695.029
248.318, 16681.160
248.801, 16695.900
249.283, 16759.961
249.765, 16818.789
250.247, 16847.109
250.729, 16828.949
251.211, 16820.721
251.693, 16821.289
252.176, 16833.150
252.658, 16865.859
253.140, 16937.510
253.622, 17002.000
254.104, 17037.039
254.586, 17026.279
255.068, 17032.881
255.550, 17064.570
256.032, 17111.230
256.514, 17147.551
256.997, 17169.990
257.479, 17189.029
257.961, 17208.270
258.443, 17225.520
258.925, 17250.029
259.407, 17288.189
259.889, 17329.850
260.371, 17346.680
260.854, 17318.641
261.336, 17303.850
261.818, 17331.070
262.300, 17411.961
262.782, 17496.820
263.264, 17589.830
263.746, 17683.150
264.228, 17756.869
264.711, 17810.131
265.193, 17846.449
265.675, 17859.580
266.157, 17835.369
266.639, 17846.920
267.121, 17904.811
267.603, 17991.000
268.085, 18070.080
268.567, 18141.189
269.050, 18206.760
269.532, 18261.279
270.014, 18297.609
270.496, 18366.820
270.978, 18481.400
271.460, 18615.930
271.942, 18725.340
272.424, 18810.420
272.906, 18866.199
273.389, 18883.850
273.871, 18857.859
274.353, 18833.039
274.835, 18802.930
275.317, 18784.010
275.799, 18812.131
276.281, 18894.869
276.763, 18986.510
277.246, 19060.199
277.728, 19112.949
278.210, 19204.660
278.692, 19351.381
279.174, 19510.260
279.656, 19599.910
280.138, 19610.590
280.620, 19633.650
281.103, 19723.490
281.585, 19877.650
282.067, 19996.391
282.549, 20078.779
283.031, 20126.789
283.513, 20130.750
283.995, 20089.070
284.477, 20056.561
284.959, 20061.439
285.441, 20099.490
285.924, 20128.830
286.406, 20145.170
286.888, 20168.039
287.370, 20241.109
287.852, 20360.660
288.334, 20449.141
288.816, 20461.480
289.298, 20413.801
289.781, 20377.170
290.263, 20353.641
290.745, 20330.189
291.227, 20284.949
291.709, 20221.820
292.191, 20170.939
292.673, 20150.660
293.155, 20149.580
293.638, 20135.080
294.120, 20106.170
294.602, 20075.010
295.084, 20041.029
295.566, 20011.990
296.048, 20017.270
296.530, 20076.801
297.012, 20174.689
297.494, 20296.619
297.977, 20444.980
298.459, 20566.930
298.941, 20600.641
299.423, 20571.141
299.905, 20536.250
300.387, 20490.051
300.869, 20466.570
301.351, 20524.830
301.833, 20661.801
302.316, 20818.260
302.798, 20927.410
303.280, 21024.801
303.762, 21176.840
304.244, 21423.270
304.726, 21709.869
305.208, 21959.461
305.690, 22181.619
306.173, 22452.461
306.655, 22842.529
307.137, 23303.410
307.619, 23776.150
308.101, 24256.211
308.583, 24727.449
309.065, 25152.779
309.547, 25549.490
310.030, 25969.801
310.512, 26432.070
310.994, 26939.869
311.476, 27488.850
311.958, 28047.730
312.440, 28700.039
312.922, 29521.961
313.404, 30483.721
313.886, 31508.650
314.369, 32488.400
314.851, 33568.801
315.333, 34836.988
315.815, 36341.762
316.297, 37973.602
316.779, 39650.129
317.261, 41414.398
317.743, 43382.570
318.225, 45783.430
318.708, 48251.289
319.190, 50622.270
319.672, 52959.781
320.154, 54989.102
320.636, 56944.750
321.118, 58489.891
321.600, 59112.852
322.082, 58345.801
322.565, 56938.281
323.047, 55075.211
323.529, 52685.238
324.011, 50189.441
324.493, 47489.281
324.975, 44765.539
325.457, 42224.039
325.939, 39841.199
326.422, 37685.969
326.904, 35783.648
327.386, 34161.930
327.868, 32698.340
328.350, 31387.510
328.832, 30225.141
329.314, 29210.150
329.796, 28399.881
330.278, 27661.721
330.760, 26987.289
331.243, 26379.000
331.725, 25826.500
332.207, 25336.609
332.689, 24894.840
333.171, 24496.699
333.653, 24143.400
334.135, 23826.051
334.617, 23552.760
335.100, 23316.350
335.582, 23091.109
336.064, 22874.721
336.546, 22675.830
337.028, 22503.330
337.510, 22366.279
337.992, 22226.221
338.474, 22078.240
338.957, 21926.051
339.439, 21771.391
339.921, 21606.961
340.403, 21467.830
340.885, 21386.260
341.367, 21365.600
341.849, 21320.711
342.331, 21245.270
342.813, 21150.391
343.296, 21046.539
343.778, 20933.529
344.260, 20836.100
344.742, 20777.711
345.224, 20750.689
345.706, 20701.500
346.188, 20625.811
346.670, 20548.320
347.152, 20500.480
347.635, 20479.000
348.117, 20462.311
348.599, 20443.381
349.081, 20422.881
349.563, 20401.840
350.045, 20379.750
350.527, 20358.850
351.009, 20343.971
351.491, 20331.430
351.974, 20312.461
352.456, 20275.100
352.938, 20237.869
353.420, 20228.400
353.902, 20242.850
354.384, 20257.230
354.866, 20257.801
355.349, 20247.650
355.831, 20229.590
356.313, 20200.289
356.795, 20171.891
357.277, 20156.850
357.759, 20151.449
358.241, 20144.289
358.723, 20123.141
359.205, 20102.490
359.688, 20094.430
360.170, 20104.141
360.652, 20116.250
361.134, 20128.680
361.616, 20137.939
362.098, 20138.131
362.580, 20108.260
363.062, 20084.189
363.544, 20086.350
364.027, 20121.760
364.509, 20148.400
364.991, 20160.070
365.473, 20156.119
365.955, 20135.910
366.437, 20069.039
366.919, 20017.000
367.401, 19996.930
367.884, 20009.920
368.366, 20027.279
368.848, 20038.840
369.330, 20061.189
369.812, 20107.211
370.294, 20215.520
370.776, 20291.801
371.258, 20314.199
371.741, 20296.141
372.223, 20297.221
372.705, 20324.850
373.187, 20361.109
373.669, 20398.090
374.151, 20437.350
374.633, 20472.359
375.115, 20505.061
375.597, 20531.109
376.079, 20535.631
376.562, 20508.240
377.044, 20495.859
377.526, 20530.891
378.008, 20615.590
378.490, 20650.811
378.972, 20625.561
379.454, 20580.900
379.936, 20569.461
380.419, 20591.000
380.901, 20613.170
381.383, 20624.869
381.865, 20630.551
382.347, 20641.971
382.829, 20659.730
383.311, 20683.600
383.793, 20722.820
384.276, 20769.350
384.758, 20795.811
385.240, 20785.039
385.722, 20765.779
386.204, 20783.131
386.686, 20830.320
387.168, 20870.760
387.650, 20861.070
388.132, 20838.199
388.615, 20856.100
389.097, 20933.170
389.579, 21014.869
390.061, 21058.119
390.543, 21074.340
391.025, 21087.109
391.507, 21128.500
391.989, 21154.471
392.471, 21122.641
392.954, 21023.971
393.436, 20945.391
393.918, 20945.039
394.400, 20977.119
394.882, 20993.580
395.364, 20959.301
395.846, 20931.561
396.328, 20929.301
396.810, 20951.150
397.293, 20972.699
397.775, 20988.051
398.257, 21003.100
398.739, 21021.131
399.221, 21055.980
399.703, 21074.939
400.185, 21064.039
400.668, 21037.000
401.150, 21031.010
401.632, 21057.270
402.114, 21089.260
402.596, 21118.580
403.078, 21145.859
403.560, 21170.150
404.042, 21196.510
404.524, 21215.119
405.007, 21207.619
405.489, 21165.039
405.971, 21133.090
406.453, 21125.939
406.935, 21141.119
407.417, 21153.090
407.899, 21157.061
408.381, 21179.410
408.863, 21269.529
409.346, 21417.920
409.828, 21501.221
410.310, 21482.551
410.792, 21410.990
411.274, 21367.949
411.756, 21353.150
412.238, 21363.490
412.720, 21419.160
413.203, 21494.580
413.685, 21537.660
414.167, 21539.381
414.649, 21529.971
415.131, 21537.211
415.613, 21554.961
416.095, 21570.539
416.577, 21579.350
417.060, 21582.660
417.542, 21577.311
418.024, 21563.760
418.506, 21556.000
418.988, 21570.770
419.470, 21590.430
419.952, 21598.420
420.434, 21579.869
420.916, 21561.910
421.398, 21554.100
421.881, 21554.240
422.363, 21554.180
422.845, 21553.230
423.327, 21551.779
423.809, 21552.289
424.291, 21563.949
424.773, 21557.660
425.255, 21519.820
425.738, 21469.330
426.220, 21430.131
426.702, 21402.311
427.184, 21386.750
427.666, 21385.330
428.148, 21397.961
428.630, 21413.570
429.112, 21434.131
429.595, 21453.391
430.077, 21465.381
430.559, 21468.641
431.041, 21469.609
431.523, 21466.131
432.005, 21463.039
432.487, 21476.641
432.969, 21508.189
433.451, 21536.990
433.934, 21544.750
434.416, 21538.250
434.898, 21551.320
435.380, 21588.039
435.862, 21631.350
436.344, 21662.670
436.826, 21684.730
437.308, 21704.939
437.790, 21715.289
438.273, 21732.971
438.755, 21715.811
439.237, 21744.010
439.719, 21761.199
440.201, 21767.971
440.683, 21733.115
441.165, 21752.010
441.647, 21749.365
442.129, 21745.836
442.612, 21772.299
443.094, 21743.496
443.576, 21769.482
444.058, 21773.598
444.540, 21787.723
445.022, 21780.174
445.504, 21779.318
445.987, 21800.145
446.469, 21808.967
446.951, 21798.922
447.433, 21813.684
447.915, 21784.125
448.397, 21797.061
448.879, 21794.920
449.361, 21809.730
449.843, 21813.619
450.326, 21805.850
450.808, 21788.680
451.290, 21760.359
451.772, 21716.650
452.254, 21679.859
452.736, 21647.250
453.218, 21626.500
453.700, 21640.850
454.182, 21692.400
454.665, 21725.609
455.147, 21712.891
455.629, 21667.830
456.111, 21630.391
456.593, 21600.779
457.075, 21581.150
457.557, 21582.910
458.039, 21596.260
458.522, 21594.910
459.004, 21566.400
459.486, 21537.500
459.968, 21540.580
460.450, 21566.641
460.932, 21590.830
461.414, 21609.090
461.896, 21614.980
462.379, 21596.721
462.861, 21550.830
463.343, 21513.840
463.825, 21506.840
464.307, 21514.270
464.789, 21520.439
465.271, 21523.811
465.753, 21523.230
466.235, 21511.971
466.717, 21493.990
467.200, 21490.051
467.682, 21511.250
468.164, 21537.400
468.646, 21561.109
469.128, 21582.760
469.610, 21600.240
470.092, 21609.721
470.574, 21617.859
471.057, 21636.020
471.539, 21669.051
472.021, 21693.221
472.503, 21704.529
472.985, 21701.750
473.467, 21672.289
473.949, 21611.461
474.431, 21555.750
474.914, 21535.439
475.396, 21545.311
475.878, 21564.199
476.360, 21592.529
476.842, 21621.141
477.324, 21647.529
477.806, 21666.881
478.288, 21662.551
478.770, 21590.439
479.253, 21514.141
479.735, 21512.789
480.217, 21583.910
480.699, 21649.520
481.181, 21647.770
481.663, 21625.359
482.145, 21627.131
482.627, 21680.820
483.109, 21731.510
483.592, 21758.189
484.074, 21768.100
484.556, 21778.080
485.038, 21774.160
485.520, 21784.721
486.002, 21827.330
486.484, 21908.279
486.966, 21963.900
487.448, 21980.320
487.931, 21983.881
488.413, 21996.150
488.895, 22019.680
489.377, 22046.580
489.859, 22077.240
490.341, 22111.180
490.823, 22147.660
491.306, 22188.480
491.788, 22223.520
492.270, 22247.420
492.752, 22261.471
493.234, 22264.770
493.716, 22255.090
494.198, 22253.980
494.680, 22285.529
495.162, 22342.930
495.645, 22409.010
496.127, 22482.160
496.609, 22557.289
497.091, 22636.650
497.573, 22715.520
498.055, 22779.619
498.537, 22798.420
499.019, 22815.369
499.501, 22867.730
499.984, 22966.660
500.466, 23056.811
500.948, 23110.631
501.430, 23149.561
501.912, 23195.980
502.394, 23269.029
502.876, 23331.369
503.358, 23375.221
503.841, 23404.051
504.323, 23430.520
504.805, 23438.211
505.287, 23467.051
505.769, 23542.990
506.251, 23677.580
506.733, 23776.980
507.215, 23830.539
507.698, 23869.869
508.180, 23934.869
508.662, 24025.609
509.144, 24117.289
509.626, 24207.340
510.108, 24292.039
510.590, 24365.801
511.072, 24427.590
511.554, 24462.551
512.036, 24431.039
512.519, 24377.881
513.001, 24380.750
513.483, 24453.631
513.965, 24523.820
514.447, 24526.221
514.929, 24498.029
515.411, 24487.100
515.893, 24532.070
516.375, 24574.260
516.858, 24598.141
517.340, 24601.820
517.822, 24579.189
518.304, 24486.770
518.786, 24403.020
519.268, 24370.430
519.750, 24414.740
520.232, 24415.070
520.715, 24348.410
521.197, 24257.820
521.679, 24185.311
522.161, 24133.330
522.643, 24094.570
523.125, 24071.180
523.607, 24058.211
524.089, 24045.789
524.571, 24035.480
525.054, 24009.471
525.536, 23938.529
526.018, 23842.330
526.500, 23801.971
526.982, 23823.250
527.464, 23841.910
527.946, 23772.699
528.429, 23661.811
528.911, 23596.580
529.393, 23635.461
529.875, 23678.180
530.357, 23602.689
530.839, 23469.961
531.321, 23435.211
531.803, 23369.168
532.286, 23395.164
532.768, 23398.826
533.250, 23381.342
533.732, 23279.389
534.214, 23286.510
534.696, 23249.922
535.178, 23211.531
535.660, 23234.008
536.142, 23144.340
536.625, 23165.848
537.107, 23134.850
537.589, 23102.529
538.071, 23088.779
538.553, 23083.689
539.035, 23087.131
539.517, 23096.750
539.999, 23097.820
540.481, 23089.699
540.964, 23079.850
541.446, 23076.939
541.928, 23076.590
542.410, 23063.221
542.892, 23026.641
543.374, 23000.820
543.856, 23026.510
544.338, 23085.221
544.820, 23141.061
545.303, 23192.070
545.785, 23222.760
546.267, 23205.369
546.749, 23148.000
547.231, 23125.180
547.713, 23198.289
548.195, 23280.660
548.677, 23325.180
549.159, 23314.760
549.642, 23300.020
550.124, 23277.529
550.606, 23253.961
551.088, 23233.730
551.570, 23210.240
552.052, 23215.471
552.534, 23269.930
553.016, 23350.891
553.499, 23371.721
553.981, 23329.910
554.463, 23288.910
554.945, 23294.480
555.427, 23328.650
555.909, 23337.311
556.391, 23316.930
556.873, 23297.119
557.356, 23303.359
557.838, 23327.881
558.320, 23362.619
558.802, 23422.439
559.284, 23463.770
559.766, 23434.881
560.248, 23370.340
560.730, 23344.980
561.213, 23417.080
561.695, 23499.420
562.177, 23568.891
562.659, 23624.650
563.141, 23654.061
563.623, 23635.461
564.105, 23613.199
564.587, 23614.381
565.069, 23643.520
565.552, 23679.189
566.034, 23722.711
566.516, 23767.670
566.998, 23807.760
567.480, 23842.430
567.962, 23860.439
568.444, 23850.119
568.926, 23827.461
569.408, 23826.311
569.891, 23844.141
570.373, 23864.949
570.855, 23885.340
571.337, 23899.980
571.819, 23900.240
572.301, 23883.660
572.783, 23868.811
573.265, 23872.350
573.747, 23879.131
574.230, 23874.510
574.712, 23852.990
575.194, 23822.199
575.676, 23780.301
576.158, 23729.859
576.640, 23676.480
577.122, 23612.551
577.604, 23560.609
578.086, 23531.311
578.569, 23523.279
579.051, 23506.240
579.533, 23476.100
580.015, 23454.461
580.497, 23474.990
580.979, 23525.840
581.461, 23518.230
581.943, 23433.311
582.426, 23342.891
582.908, 23324.811
583.390, 23362.439
583.872, 23420.520
584.354, 23516.730
584.836, 23593.600
585.318, 23592.051
585.800, 23533.689
586.282, 23485.689
586.765, 23489.381
587.247, 23495.789
587.729, 23474.061
588.211, 23412.250
588.693, 23388.480
589.175, 23430.859
589.657, 23487.939
590.140, 23527.430
590.622, 23550.020
591.104, 23547.391
591.586, 23503.080
592.068, 23456.100
592.550, 23486.740
593.032, 23594.311
593.514, 23677.600
593.996, 23693.939
594.479, 23675.891
594.961, 23687.449
595.443, 23723.891
595.925, 23755.789
596.407, 23751.490
596.889, 23740.939
597.371, 23759.609
597.853, 23813.359
598.335, 23857.230
598.818, 23841.930
599.300, 23823.170
599.782, 23848.920
600.264, 24003.461
600.746, 24100.939
601.228, 24102.930
601.710, 24052.869
602.192, 24025.570
602.674, 24027.039
603.157, 24036.029
603.639, 24047.600
604.121, 24062.211
604.603, 24079.631
605.085, 24098.770
605.567, 24132.131
606.049, 24200.410
606.531, 24288.090
607.013, 24346.170
607.496, 24370.811
607.978, 24396.439
608.460, 24466.949
608.942, 24550.301
609.424, 24603.609
609.906, 24597.000
610.388, 24592.289
610.870, 24614.439
611.353, 24656.689
611.835, 24706.320
612.317, 24789.939
612.799, 24848.330
613.281, 24859.520
613.763, 24831.721
614.245, 24825.359
614.727, 24850.660
615.209, 24875.641
615.692, 24882.359
616.174, 24871.480
616.656, 24864.811
617.138, 24862.279
617.620, 24866.660
618.102, 24888.600
618.584, 24919.721
619.067, 24932.320
619.549, 24911.039
620.031, 24897.641
620.513, 24939.000
620.995, 25012.000
621.477, 25076.230
621.959, 25104.230
622.441, 25131.850
622.923, 25181.170
623.406, 25244.801
623.888, 25283.010
624.370, 25261.631
624.852, 25248.881
625.334, 25271.391
625.816, 25332.381
626.298, 25387.391
626.780, 25441.760
627.263, 25476.631
627.745, 25469.869
628.227, 25425.180
628.709, 25372.971
629.191, 25312.520
629.673, 25262.520
630.155, 25252.461
630.637, 25270.131
631.119, 25287.311
631.602, 25291.869
632.084, 25296.311
632.566, 25306.230
633.048, 25322.801
633.530, 25349.080
634.012, 25377.381
634.494, 25424.250
634.976, 25443.992
635.458, 25516.209
635.941, 25575.688
636.423, 25623.115
636.905, 25622.389
637.387, 25683.854
637.869, 25720.385
638.351, 25755.900
638.833, 25826.104
639.315, 25832.385
639.797, 25898.631
640.280, 25917.350
640.762, 25890.570
641.244, 25765.510
641.726, 25635.600
642.208, 25595.051
642.690, 25622.869
643.172, 25673.391
643.654, 25739.930
644.137, 25814.600
644.619, 25898.811
645.101, 25990.539
645.583, 26080.461
646.065, 26176.520
646.547, 26260.779
647.029, 26319.539
647.511, 26349.500
647.994, 26403.279
648.476, 26485.109
648.958, 26577.369
649.440, 26664.051
649.922, 26746.020
650.404, 26836.020
650.886, 26936.100
651.368, 27030.010
651.851, 27102.900
652.333, 27153.471
652.815, 27179.750
653.297, 27175.391
653.779, 27154.391
654.261, 27126.051
654.743, 27088.230
655.225, 27035.840
655.707, 26959.061
656.190, 26878.160
656.672, 26799.881
657.154, 26723.670
657.636, 26637.211
658.118, 26532.439
658.600, 26433.070
659.082, 26344.500
659.564, 26266.330
660.046, 26233.410
660.529, 26252.449
661.011, 26261.410
661.493, 26183.170
661.975, 26054.939
662.457, 25965.529
662.939, 25933.141
663.421, 25916.939
663.903, 25901.580
664.385, 25878.961
664.868, 25838.471
665.350, 25744.900
665.832, 25670.949
666.314, 25652.369
666.796, 25664.980
667.278, 25649.650
667.760, 25583.670
668.242, 25528.430
668.724, 25499.930
669.207, 25493.211
669.689, 25491.480
670.171, 25494.750
670.653, 25489.750
671.135, 25456.760
671.617, 25410.391
672.099, 25400.641
672.581, 25426.619
673.064, 25428.301
673.546, 25334.631
674.028, 25210.320
674.510, 25121.600
674.992, 25091.670
675.474, 25057.680
675.956, 24979.770
676.438, 24900.650
676.920, 24867.070
677.403, 24917.420
677.885, 24948.490
678.367, 24955.840
678.849, 24940.801
679.331, 24890.721
679.813, 24800.029
680.295, 24749.221
680.778, 24771.500
681.260, 24834.730
681.742, 24879.320
682.224, 24907.850
682.706, 24931.680
683.188, 24970.391
683.670, 24996.090
684.152, 24978.631
684.634, 24920.330
685.117, 24861.029
685.599, 24810.949
686.081, 24766.830
686.563, 24727.711
687.045, 24695.109
687.527, 24661.641
688.009, 24620.609
688.491, 24590.430
688.973, 24590.279
689.456, 24621.270
689.938, 24654.900
690.420, 24691.990
690.902, 24719.320
691.384, 24709.029
691.866, 24676.680
692.348, 24661.520
692.830, 24682.961
693.312, 24708.740
693.795, 24720.500
694.277, 24719.119
694.759, 24706.580
695.241, 24671.311
695.723, 24637.539
696.205, 24605.859
696.687, 24579.260
697.169, 24570.561
697.652, 24583.881
698.134, 24607.180
698.616, 24651.051
699.098, 24702.689
699.580, 24675.301
700.062, 24569.100
700.544, 24460.260
701.026, 24391.029
701.508, 24359.391
701.991, 24376.260
702.473, 24442.920
702.955, 24502.561
703.437, 24526.000
703.919, 24525.789
704.401, 24508.910
704.883, 24464.471
705.365, 24430.609
705.847, 24413.270
706.330, 24403.199
706.812, 24388.859
707.294, 24364.330
707.776, 24363.670
708.258, 24399.100
708.740, 24442.039
709.222, 24442.770
709.705, 24409.680
710.187, 24382.381
710.669, 24373.359
711.151, 24376.240
711.633, 24391.000
712.115, 24412.811
712.597, 24429.971
713.079, 24435.400
713.561, 24438.189
714.044, 24436.779
714.526, 24433.609
715.008, 24446.080
715.490, 24485.811
715.972, 24521.570
716.454, 24540.439
716.936, 24543.650
717.418, 24541.881
717.901, 24533.260
718.383, 24539.090
718.865, 24582.711
719.347, 24649.131
719.829, 24719.119
720.311, 24790.529
720.793, 24836.061
721.275, 24818.590
721.757, 24777.891
722.240, 24744.961
722.722, 24721.221
723.204, 24716.891
723.686, 24749.510
724.168, 24790.680
724.650, 24819.900
725.132, 24840.301
725.614, 24830.400
726.096, 24776.910
726.579, 24715.520
727.061, 24708.721
727.543, 24744.600
728.025, 24764.641
728.507, 24750.020
728.989, 24717.830
729.471, 24668.279
729.953, 24615.730
730.435, 24589.869
730.918, 24628.711
731.400, 24668.141
731.882, 24687.480
732.364, 24689.910
732.846, 24687.369
733.328, 24674.160
733.810, 24666.260
734.292, 24664.850
734.775, 24672.660
735.257, 24714.170
735.739, 24789.170
736.221, 24850.980
736.703, 24849.650
737.185, 24826.869
737.667, 24863.480
738.149, 24953.850
738.631, 25021.051
739.114, 25009.850
739.596, 24969.689
740.078, 24923.359
740.560, 24866.029
741.042, 24851.000
741.524, 24905.689
742.006, 24974.900
742.489, 25022.061
742.971, 25041.551
743.453, 25083.279
743.935, 25150.051
744.417, 25228.971
744.899, 25316.449
745.381, 25403.211
745.863, 25465.580
746.345, 25497.420
746.828, 25508.730
747.310, 25492.150
747.792, 25464.711
748.274, 25446.539
748.756, 25461.260
749.238, 25459.070
749.720, 25426.141
750.202, 25378.811
750.684, 25344.180
751.167, 25336.350
751.649, 25283.340
752.131, 25153.859
752.613, 25007.199
753.095, 24968.340
753.577, 25013.539
754.059, 25032.070
754.541, 24953.221
755.023, 24862.340
755.506, 24839.850
755.988, 24863.881
756.470, 24881.740
756.952, 24860.170
757.434, 24844.920
757.916, 24862.740
758.398, 24899.369
758.880, 24894.250
759.362, 24837.320
759.845, 24765.660
760.327, 24684.301
760.809, 24601.641
761.291, 24554.279
761.773, 24539.811
762.255, 24526.359
762.737, 24486.539
763.219, 24443.830
763.702, 24426.949
764.184, 24435.461
764.666, 24441.881
765.148, 24429.180
765.630, 24417.689
766.112, 24418.961
766.594, 24433.660
767.076, 24447.230
767.558, 24458.240
768.041, 24468.949
768.523, 24479.891
769.005, 24490.490
769.487, 24505.529
769.969, 24525.211
770.451, 24532.039
770.933, 24490.750
771.416, 24437.900
771.898, 24419.539
772.380, 24447.830
772.862, 24482.990
773.344, 24526.189
773.826, 24559.830
774.308, 24569.330
774.790, 24544.090
775.272, 24524.230
775.755, 24515.301
776.237, 24503.920
776.719, 24469.711
777.201, 24417.189
777.683, 24379.760
778.165, 24364.221
778.647, 24359.100
779.129, 24352.240
779.612, 24348.410
780.094, 24355.811
780.576, 24386.641
781.058, 24409.939
781.540, 24398.100
782.022, 24380.150
782.504, 24396.590
782.986, 24471.289
783.468, 24519.199
783.951, 24523.279
784.433, 24507.029
784.915, 24513.100
785.397, 24537.160
785.879, 24549.301
786.361, 24538.801
786.843, 24518.900
787.325, 24489.400
787.807, 24463.029
788.290, 24463.420
788.772, 24535.789
789.254, 24594.359
789.736, 24607.500
790.218, 24593.801
790.700, 24589.820
791.182, 24598.301
791.664, 24607.100
792.146, 24611.721
792.629, 24616.051
793.111, 24632.961
793.593, 24659.199
794.075, 24678.391
794.557, 24675.850
795.039, 24669.949
795.521, 24684.439
796.003, 24709.211
796.485, 24716.850
796.968, 24670.641
797.450, 24638.859
797.932, 24648.939
798.414, 24688.080
798.896, 24701.850
799.378, 24680.801
799.860, 24680.260
800.343, 24735.590
800.825, 24815.770
801.307, 24839.250
801.789, 24816.240
802.271, 24794.930
802.753, 24789.600
803.235, 24806.480
803.717, 24868.189
804.199, 24962.990
804.682, 25026.881
805.164, 25006.760
805.646, 24998.289
806.128, 25037.260
806.610, 25112.750
807.092, 25141.260
807.574, 25116.600
808.056, 25099.990
808.539, 25135.230
809.021, 25196.520
809.503, 25240.330
809.985, 25265.980
810.467, 25269.340
810.949, 25235.580
811.431, 25189.730
811.913, 25138.971
812.395, 25084.910
812.878, 25053.461
813.360, 25053.410
813.842, 25061.971
814.324, 25072.561
814.806, 25084.039
815.288, 25087.801
815.770, 25083.789
816.252, 25078.520
816.734, 25070.119
817.217, 25066.250
817.699, 25074.289
818.181, 25095.070
818.663, 25132.270
819.145, 25221.359
819.627, 25296.789
820.109, 25319.830
820.591, 25292.510
821.073, 25274.529
821.556, 25267.400
822.038, 25266.260
822.520, 25267.811
823.002, 25273.211
823.484, 25283.439
823.966, 25299.340
824.448, 25333.609
824.930, 25418.211
825.413, 25507.381
825.895, 25556.010
826.377, 25562.850
826.859, 25574.221
827.341, 25603.080
827.823, 25634.680
828.305, 25661.520
828.787, 25683.631
829.269, 25722.670
829.752, 25781.920
830.234, 25827.211
830.716, 25832.600
831.198, 25809.961
831.680, 25769.439
832.162, 25716.199
832.644, 25685.109
833.127, 25723.420
833.609, 25766.990
834.091, 25779.920
834.573, 25757.881
835.055, 25725.461
835.537, 25667.990
836.019, 25628.570
836.501, 25634.359
836.983, 25676.811
837.466, 25704.020
837.948, 25716.461
838.430, 25729.770
838.912, 25754.891
839.394, 25785.400
839.876, 25819.789
840.358, 25856.230
840.840, 25881.279
841.322, 25885.301
841.805, 25881.939
842.287, 25871.461
842.769, 25855.881
843.251, 25863.971
843.733, 25899.830
844.215, 25933.189
844.697, 25942.350
845.179, 25938.900
845.661, 25948.699
846.144, 25969.660
846.626, 25991.480
847.108, 26010.939
847.590, 26026.930
848.072, 26040.289
848.554, 26050.080
849.036, 26048.230
849.518, 26022.359
850.000, 26010.381
850.483, 26036.910
850.965, 26085.520
851.447, 26074.770
851.929, 26012.070
852.411, 25968.211
852.893, 26007.680
853.375, 26066.680
853.857, 26081.990
854.340, 26062.850
854.822, 26043.539
855.304, 26023.199
855.786, 26018.609
856.268, 26043.260
856.750, 26086.080
857.232, 26094.590
857.714, 26063.270
858.196, 26050.551
858.679, 26087.250
859.161, 26146.410
859.643, 26181.730
860.125, 26199.971
860.607, 26221.039
861.089, 26265.539
861.571, 26301.359
862.054, 26296.580
862.536, 26272.881
863.018, 26296.141
863.500, 26395.260
863.982, 26466.070
864.464, 26479.721
864.946, 26460.689
865.428, 26459.801
865.910, 26472.961
866.393, 26481.990
866.875, 26471.520
867.357, 26467.730
867.839, 26510.820
868.321, 26570.051
868.803, 26591.330
869.285, 26508.619
869.767, 26464.740
870.250, 26485.410
870.732, 26536.850
871.214, 26563.910
871.696, 26567.660
872.178, 26564.090
872.660, 26551.430
873.142, 26549.910
873.624, 26600.330
874.106, 26670.461
874.589, 26712.619
875.071, 26700.119
875.553, 26679.320
876.035, 26637.840
876.517, 26606.811
876.999, 26625.410
877.481, 26706.779
877.963, 26752.289
878.445, 26749.430
878.928, 26724.820
879.410, 26705.369
879.892, 26687.330
880.374, 26660.480
880.856, 26619.400
881.338, 26589.990
881.820, 26606.020
882.302, 26625.430
882.784, 26606.689
883.267, 26527.029
883.749, 26497.939
884.231, 26531.930
884.713, 26582.369
885.195, 26615.881
885.677, 26634.400
886.159, 26643.100
886.641, 26642.250
887.123, 26635.449
887.606, 26610.359
888.088, 26591.789
888.570, 26607.391
889.052, 26666.150
889.534, 26682.080
890.016, 26620.570
890.498, 26578.740
890.981, 26622.711
891.463, 26732.100
891.945, 26772.350
892.427, 26749.090
892.909, 26719.340
893.391, 26706.010
893.873, 26712.080
894.355, 26749.279
894.837, 26811.369
895.320, 26863.400
895.802, 26882.881
896.284, 26911.600
896.766, 26970.920
897.248, 27042.631
897.730, 27068.420
898.212, 27048.490
898.694, 26985.221
899.177, 26844.980
899.659, 26707.689
900.141, 26678.859
900.623, 26723.150
901.105, 26764.779
901.587, 26792.000
902.069, 26799.150
902.551, 26776.461
903.033, 26741.609
903.516, 26724.189
903.998, 26725.211
904.480, 26724.590
904.962, 26714.289
905.444, 26712.881
905.926, 26758.141
906.408, 26823.600
906.890, 26862.270
907.372, 26846.539
907.855, 26839.430
908.337, 26878.211
908.819, 26920.170
909.301, 26923.631
909.783, 26875.480
910.265, 26862.730
910.747, 26894.770
911.229, 26931.029
911.711, 26922.641
912.194, 26895.000
912.676, 26893.850
913.158, 26926.109
913.640, 26955.590
914.122, 26945.900
914.604, 26945.279
915.086, 26987.439
915.568, 27074.730
916.050, 27144.869
916.533, 27199.170
917.015, 27230.449
917.497, 27218.920
917.979, 27187.539
918.461, 27175.801
918.943, 27185.920
919.425, 27226.061
919.907, 27357.039
920.390, 27463.080
920.872, 27469.910
921.354, 27405.730
921.836, 27370.430
922.318, 27360.980
922.800, 27395.010
923.282, 27494.711
923.765, 27614.949
924.247, 27670.641
924.729, 27678.070
925.211, 27681.570
925.693, 27684.480
926.175, 27704.150
926.657, 27669.543
927.139, 27766.711
927.621, 27831.893
928.104, 27866.803
928.586, 27780.775
929.068, 27850.914
929.550, 27858.475
930.032, 27863.461
930.514, 27955.578
930.996, 27887.145
931.478, 27969.330
931.960, 28011.750
932.443, 28024.020
932.925, 28020.910
933.407, 28013.711
933.889, 28004.350
934.371, 27979.170
934.853, 27930.061
935.335, 27892.660
935.817, 27900.391
936.299, 27935.619
936.782, 27958.400
937.264, 27968.080
937.746, 27967.801
938.228, 27960.631
938.710, 27942.189
939.192, 27899.670
939.674, 27841.141
940.156, 27807.711
940.638, 27806.039
941.121, 27802.730
941.603, 27783.520
942.085, 27761.830
942.567, 27777.189
943.049, 27811.609
943.531, 27817.500
944.013, 27771.900
944.495, 27700.279
944.978, 27569.971
945.460, 27439.760
945.942, 27395.740
946.424, 27468.869
946.906, 27504.180
947.388, 27476.449
947.870, 27451.650
948.352, 27529.039
948.834, 27658.330
949.317, 27750.090
949.799, 27791.510
950.281, 27788.811
950.763, 27702.961
951.245, 27609.000
951.727, 27557.221
952.209, 27551.029
952.692, 27518.721
953.174, 27451.820
953.656, 27414.051
954.138, 27475.529
954.620, 27576.689
955.102, 27618.760
955.584, 27609.910
956.066, 27591.230
956.548, 27550.680
957.031, 27538.029
957.513, 27589.990
957.995, 27673.119
958.477, 27699.311
958.959, 27663.510
959.441, 27630.840
959.923, 27611.811
960.405, 27618.340
960.888, 27691.330
961.370, 27792.859
961.852, 27858.391
962.334, 27851.020
962.816, 27846.820
963.298, 27865.260
963.780, 27886.721
964.262, 27895.180
964.744, 27890.100
965.227, 27883.910
965.709, 27877.609
966.191, 27861.131
966.673, 27801.051
967.155, 27743.680
967.637, 27741.279
968.119, 27796.471
968.601, 27859.439
969.083, 27966.320
969.566, 28011.570
970.048, 27931.090
970.530, 27771.461
971.012, 27736.039
971.494, 27807.939
971.976, 27856.189
972.458, 27810.850
972.940, 27736.920
973.422, 27669.551
973.905, 27614.160
974.387, 27584.490
974.869, 27600.119
975.351, 27604.381
975.833, 27583.900
976.315, 27568.789
976.797, 27613.590
977.279, 27697.010
977.761, 27732.830
978.244, 27707.580
978.726, 27668.900
979.208, 27635.939
979.690, 27610.961
980.172, 27591.590
980.654, 27575.480
981.136, 27601.461
981.619, 27690.779
982.101, 27746.689
982.583, 27694.631
983.065, 27590.000
983.547, 27563.840
984.029, 27595.689
984.511, 27612.830
984.993, 27562.250
985.475, 27514.090
985.958, 27495.891
986.440, 27496.641
986.922, 27502.539
987.404, 27515.961
987.886, 27514.670
988.368, 27491.020
988.850, 27468.400
989.332, 27478.381
989.815, 27504.471
990.297, 27527.859
990.779, 27549.230
991.261, 27546.740
991.743, 27490.279
992.225, 27437.410
992.707, 27425.561
993.189, 27449.801
993.671, 27439.080
994.154, 27395.270
994.636, 27356.061
995.118, 27345.600
995.600, 27349.240
996.082, 27359.590
996.564, 27374.061
997.046, 27383.051
997.528, 27365.381
998.010, 27387.000
998.493, 27478.230
998.975, 27580.301
999.457, 27573.980
999.939, 27493.570
1000.421, 27463.301
1000.903, 27520.510
1001.385, 27577.340
1001.867, 27583.730
1002.349, 27565.010
1002.832, 27535.150
1003.314, 27488.510
1003.796, 27489.449
1004.278, 27549.381
1004.760, 27595.789
1005.242, 27549.500
1005.724, 27473.930
1006.206, 27503.410
1006.689, 27608.590
1007.171, 27667.801
1007.653, 27590.740
1008.135, 27511.949
1008.617, 27459.650
1009.099, 27432.670
1009.581, 27433.279
1010.063, 27461.020
1010.545, 27503.080
1011.028, 27563.811
1011.510, 27607.539
1011.992, 27578.480
1012.474, 27526.930
1012.956, 27512.650
1013.438, 27561.980
1013.920, 27577.570
1014.402, 27530.250
1014.885, 27500.400
1015.367, 27557.439
1015.849, 27667.820
1016.331, 27712.061
1016.813, 27696.199
1017.295, 27654.881
1017.777, 27570.789
1018.259, 27504.490
1018.741, 27488.490
1019.224, 27512.270
1019.706, 27556.080
1020.188, 27626.500
1020.670, 27683.439
1021.152, 27720.260
1021.634, 27744.971
1022.116, 27770.641
1022.598, 27788.760
1023.081, 27779.631
1023.563, 27731.490
1024.045, 27708.170
1024.527, 27727.699
1025.009, 27771.270
1025.491, 27845.240
1025.973, 27937.619
1026.455, 27954.840
1026.938, 27904.330
1027.420, 27860.580
1027.902, 27882.500
1028.384, 27906.859
1028.866, 27880.670
1029.348, 27827.641
1029.830, 27799.600
1030.312, 27812.650
1030.794, 27815.631
1031.276, 27803.539
1031.759, 27783.570
1032.241, 27748.570
1032.723, 27717.119
1033.205, 27738.430
1033.687, 27821.590
1034.169, 27885.471
1034.651, 27879.990
1035.133, 27863.660
1035.616, 27864.480
1036.098, 27877.160
1036.580, 27864.750
1037.062, 27828.000
1037.544, 27803.891
1038.026, 27802.779
1038.508, 27827.590
1038.990, 27912.131
1039.473, 28013.850
1039.955, 28061.881
1040.437, 28005.750
1040.919, 27971.400
1041.401, 27969.699
1041.883, 27969.820
1042.365, 27934.609
1042.847, 27880.461
1043.329, 27849.551
1043.812, 27844.260
1044.294, 27849.320
1044.776, 27862.680
1045.258, 27881.289
1045.740, 27915.980
1046.222, 27953.330
1046.704, 27937.850
1047.186, 27868.189
1047.668, 27818.850
1048.151, 27814.410
1048.633, 27828.061
1049.115, 27845.881
1049.597, 27858.141
1050.079, 27845.520
1050.561, 27767.100
1051.043, 27777.480
1051.525, 27721.582
1052.008, 27816.375
1052.490, 27874.568
1052.972, 27898.156
1053.454, 27783.480
1053.936, 27847.344
1054.418, 27839.654
1054.900, 27829.035
1055.382, 27918.023
1055.865, 27823.482
1056.347, 27910.895
1056.829, 27925.662
1057.311, 27973.678
1057.793, 27934.830
1058.275, 27943.949
1058.757, 27981.779
1059.239, 28071.811
1059.721, 28146.760
1060.203, 28117.449
1060.686, 27957.141
1061.168, 27883.350
1061.650, 27938.680
1062.132, 27990.631
1062.614, 27981.330
1063.096, 27933.449
1063.578, 27882.840
1064.060, 27838.430
1064.543, 27826.670
1065.025, 27904.330
1065.507, 27947.119
1065.989, 27879.410
1066.471, 27793.211
1066.953, 27781.801
1067.435, 27845.721
1067.917, 27858.381
1068.400, 27814.160
1068.882, 27775.320
1069.364, 27788.850
1069.846, 27826.150
1070.328, 27876.529
1070.810, 27933.420
1071.292, 27964.350
1071.774, 27959.020
1072.256, 27957.080
1072.739, 27964.990
1073.221, 27983.471
1073.703, 28034.000
1074.185, 28089.199
1074.667, 28092.510
1075.149, 28015.990
1075.631, 27960.900
1076.113, 27963.311
1076.596, 27981.840
1077.078, 28002.211
1077.560, 28022.539
1078.042, 28034.359
1078.524, 28036.840
1079.006, 28021.910
1079.488, 27961.369
1079.970, 27910.949
1080.453, 27905.580
1080.935, 27929.619
1081.417, 27957.510
1081.899, 27991.660
1082.381, 27963.590
1082.863, 27910.662
1083.345, 28000.092
1083.827, 28054.969
1084.309, 28077.143
1084.792, 27968.701
1085.274, 28028.932
1085.756, 28021.555
1086.238, 28011.408
1086.720, 28095.379
1087.202, 28005.918
1087.684, 28088.396
1088.166, 28102.240
1088.648, 28147.496
1089.131, 28124.752
1089.613, 28122.998
1090.095, 28131.711
1090.577, 28145.500
1091.059, 28178.170
1091.541, 28210.199
1092.023, 28240.779
1092.505, 28247.580
1092.988, 28232.430
1093.470, 28219.760
1093.952, 28213.350
1094.434, 28223.840
1094.916, 28282.699
1095.398, 28354.930
1095.880, 28377.600
1096.362, 28334.010
1096.844, 28278.510
1097.327, 28202.430
1097.809, 28171.631
1098.291, 28310.539
1098.773, 28495.039
1099.255, 28540.061
1099.737, 28455.000
1100.219, 28402.631
1100.701, 28448.160
1101.183, 28487.520
1101.666, 28498.561
1102.148, 28495.301
1102.630, 28498.340
1103.112, 28508.600
1103.594, 28536.500
1104.076, 28592.939
1104.558, 28615.539
1105.040, 28548.029
1105.523, 28461.920
1106.005, 28384.369
1106.487, 28320.699
1106.969, 28343.930
1107.451, 28446.920
1107.933, 28528.141
1108.415, 28535.551
1108.897, 28519.080
1109.380, 28513.131
1109.862, 28506.779
1110.344, 28482.869
1110.826, 28432.340
1111.308, 28398.330
1111.790, 28382.141
1112.272, 28381.180
1112.754, 28418.189
1113.236, 28452.539
1113.719, 28412.420
1114.201, 28320.400
1114.683, 28275.750
1115.165, 28330.680
1115.647, 28368.029
1116.129, 28365.391
1116.611, 28352.520
1117.093, 28366.869
1117.575, 28403.080
1118.058, 28466.170
1118.540, 28559.930
1119.022, 28598.471
1119.504, 28481.061
1119.986, 28380.631
1120.468, 28362.141
1120.950, 28403.840
1121.432, 28456.699
1121.915, 28513.100
1122.397, 28521.699
1122.879, 28448.090
1123.361, 28378.770
1123.843, 28363.180
1124.325, 28377.529
1124.807, 28404.090
1125.289, 28443.949
1125.771, 28465.131
1126.254, 28467.430
1126.736, 28473.330
1127.218, 28494.279
1127.700, 28525.020
1128.182, 28570.350
1128.664, 28618.359
1129.146, 28643.480
1129.628, 28627.471
1130.110, 28644.270
1130.593, 28703.740
1131.075, 28758.699
1131.557, 28748.279
1132.039, 28717.721
1132.521, 28738.820
1133.003, 28801.910
1133.485, 28827.279
1133.967, 28770.590
1134.450, 28736.301
1134.932, 28753.240
1135.414, 28780.221
1135.896, 28740.570
1136.378, 28669.801
1136.860, 28652.279
1137.342, 28705.449
1137.824, 28748.180
1138.307, 28742.301
1138.789, 28731.500
1139.271, 28729.539
1139.753, 28733.400
1140.235, 28721.449
1140.717, 28704.711
1141.199, 28738.721
1141.681, 28873.770
1142.163, 28968.391
1142.646, 28904.180
1143.128, 28810.539
1143.610, 28788.039
1144.092, 28832.500
1144.574, 28832.600
1145.056, 28792.119
1145.538, 28754.980
1146.020, 28750.109
1146.502, 28752.980
1146.985, 28763.730
1147.467, 28766.471
1147.949, 28731.561
1148.431, 28644.619
1148.913, 28612.930
1149.395, 28642.779
1149.877, 28691.920
1150.359, 28742.039
1150.842, 28782.320
1151.324, 28798.631
1151.806, 28794.551
1152.288, 28783.109
1152.770, 28750.770
1153.252, 28759.391
1153.734, 28823.811
1154.216, 28900.211
1154.698, 28954.189
1155.181, 28982.320
1155.663, 28970.430
1156.145, 28919.279
1156.627, 28881.471
1157.109, 28854.881
1157.591, 28862.260
1158.073, 28920.061
1158.555, 28996.850
1159.037, 29055.891
1159.520, 29089.830
1160.002, 29074.410
1160.484, 28989.811
1160.966, 28933.131
1161.448, 28924.811
1161.930, 28941.869
1162.412, 28988.900
1162.894, 29042.961
1163.377, 29025.801
1163.859, 28960.510
1164.341, 28911.939
1164.823, 28917.080
1165.305, 28910.410
1165.787, 28857.730
1166.269, 28808.840
1166.751, 28802.711
1167.234, 28831.920
1167.716, 28850.221
1168.198, 28859.439
1168.680, 28867.090
1169.162, 28884.689
1169.644, 28892.490
1170.126, 28870.279
1170.608, 28844.141
1171.090, 28845.109
1171.573, 28870.061
1172.055, 28873.869
1172.537, 28855.350
1173.019, 28846.100
1173.501, 28880.721
1173.983, 28914.109
1174.465, 28910.609
1174.947, 28892.971
1175.430, 28909.061
1175.912, 28958.770
1176.394, 28982.480
1176.876, 28971.920
1177.358, 28945.529
1177.840, 28904.051
1178.322, 28865.580
1178.804, 28827.391
1179.286, 28803.301
1179.769, 28869.391
1180.251, 29034.881
1180.733, 29126.080
1181.215, 29088.670
1181.697, 29031.869
1182.179, 29070.510
1182.661, 29129.330
1183.143, 29130.930
1183.625, 29073.430
1184.108, 29026.949
1184.590, 28988.131
1185.072, 28987.730
1185.554, 29054.141
1186.036, 29122.350
1186.518, 29121.090
1187.000, 29082.020
1187.482, 29039.881
1187.965, 28995.461
1188.447, 28972.830
1188.929, 28976.051
1189.411, 28977.779
1189.893, 28959.850
1190.375, 28938.900
1190.857, 28931.520
1191.339, 28937.510
1191.822, 28960.131
1192.304, 29025.051
1192.786, 29031.641
1193.268, 28965.619
1193.750, 28908.131
1194.232, 28925.971
1194.714, 28979.711
1195.196, 29035.369
1195.678, 29081.910
1196.161, 29088.270
1196.643, 29026.750
1197.125, 28978.420
1197.607, 28946.980
1198.089, 28929.600
1198.571, 28938.420
1199.053, 28950.340
1199.535, 28914.250
1200.017, 28847.320
1200.500, 28834.289
1200.982, 28919.631
1201.464, 28990.811
1201.946, 29034.730
1202.428, 29061.660
1202.910, 29086.490
1203.392, 29099.590
1203.874, 29071.730
1204.357, 29007.900
1204.839, 28982.711
1205.321, 29025.199
1205.803, 29062.910
1206.285, 29078.359
1206.767, 29090.859
1207.249, 29127.580
1207.731, 29179.539
1208.214, 29244.881
1208.696, 29325.340
1209.178, 29343.939
1209.660, 29263.029
1210.142, 29191.779
1210.624, 29161.949
1211.106, 29158.000
1211.588, 29166.221
1212.070, 29177.600
1212.552, 29173.939
1213.035, 29147.689
1213.517, 29132.891
1213.999, 29129.740
1214.481, 29147.180
1214.963, 29203.820
1215.445, 29260.340
1215.927, 29218.080
1216.409, 29130.061
1216.892, 29095.289
1217.374, 29159.971
1217.856, 29202.779
1218.338, 29208.359
1218.820, 29210.561
1219.302, 29233.500
1219.784, 29258.289
1220.266, 29243.430
1220.749, 29203.029
1221.231, 29163.270
1221.713, 29110.029
1222.195, 29113.619
1222.677, 29200.490
1223.159, 29277.260
1223.641, 29268.301
1224.123, 29218.600
1224.605, 29203.840
1225.088, 29218.410
1225.570, 29249.500
1226.052, 29334.119
1226.534, 29358.109
1227.016, 29297.250
1227.498, 29243.240
1227.980, 29297.279
1228.462, 29388.561
1228.944, 29387.881
1229.427, 29324.250
1229.909, 29284.350
1230.391, 29295.070
1230.873, 29323.010
1231.355, 29373.279
1231.837, 29418.240
1232.319, 29420.490
1232.801, 29409.359
1233.284, 29428.061
1233.766, 29471.410
1234.248, 29515.100
1234.730, 29562.570
1235.212, 29592.820
1235.694, 29603.260
1236.176, 29595.869
1236.658, 29548.910
1237.141, 29500.400
1237.623, 29507.449
1238.105, 29561.000
1238.587, 29602.260
1239.069, 29624.551
1239.551, 29636.631
1240.033, 29638.480
1240.515, 29637.080
1240.997, 29647.730
1241.479, 29654.449
1241.962, 29631.000
1242.444, 29583.680
1242.926, 29562.680
1243.408, 29575.750
1243.890, 29592.000
1244.372, 29605.490
1244.854, 29623.449
1245.336, 29657.230
1245.819, 29695.369
1246.301, 29732.430
1246.783, 29763.051
1247.265, 29763.920
1247.747, 29728.221
1248.229, 29699.260
1248.711, 29683.189
1249.193, 29687.670
1249.676, 29757.580
1250.158, 29822.930
1250.640, 29798.699
1251.122, 29701.840
1251.604, 29654.561
1252.086, 29659.420
1252.568, 29669.510
1253.050, 29674.449
1253.532, 29678.990
1254.015, 29681.080
1254.497, 29690.660
1254.979, 29720.119
1255.461, 29764.650
1255.943, 29804.250
1256.425, 29837.510
1256.907, 29841.930
1257.389, 29799.869
1257.871, 29767.000
1258.354, 29782.711
1258.836, 29820.980
1259.318, 29872.920
1259.800, 29928.520
1260.282, 29931.551
1260.764, 29887.840
1261.246, 29831.570
1261.728, 29761.279
1262.211, 29721.619
1262.693, 29767.840
1263.175, 29823.080
1263.657, 29847.551
1264.139, 29845.660
1264.621, 29811.461
1265.103, 29763.730
1265.585, 29778.221
1266.068, 29918.039
1266.550, 30013.891
1267.032, 29981.650
1267.514, 29923.369
1267.996, 29883.150
1268.478, 29858.000
1268.960, 29827.160
1269.442, 29804.420
1269.924, 29831.561
1270.407, 29944.740
1270.889, 30045.801
1271.371, 30125.650
1271.853, 30178.061
1272.335, 30183.520
1272.817, 30170.199
1273.299, 30215.279
1273.781, 30284.811
1274.264, 30306.920
1274.746, 30231.670
1275.228, 30182.109
1275.710, 30165.740
1276.192, 30168.369
1276.674, 30193.029
1277.156, 30221.840
1277.638, 30227.369
1278.120, 30218.490
1278.603, 30209.100
1279.085, 30201.641
1279.567, 30193.900
1280.049, 30184.350
1280.531, 30191.039
##END=



