##NAMES=Fluorite
##RRUFFID=R050046
##IDEAL CHEMISTRY=CaF_2_
##LOCALITY=Shangbao, Lei Yang, Hunan Province, China
##OWNER=RRUFF
##SOURCE=Eugene Schlepp
##DESCRIPTION=Pale purple crystal
##STATUS=The identification of this mineral has been confirmed by X-ray diffraction and chemical analysis
##URL=rruff.info/R050046
##MEASURED CHEMISTRY=Ca_1.000_ F_2.000_
134.7162, 553.0800
135.1983, 573.6885
135.6804, 596.1067
136.1626, 620.4713
136.6447, 646.0943
137.1268, 671.8535
137.6089, 697.7149
138.0910, 723.1553
138.5731, 749.4036
139.0553, 779.3773
139.5374, 797.2098
140.0195, 798.3015
140.5016, 787.0801
140.9837, 780.7552
141.4658, 781.2250
141.9480, 783.5070
142.4301, 783.7072
142.9122, 778.8156
143.3943, 778.3127
143.8764, 784.2355
144.3585, 796.4037
144.8407, 809.0990
145.3228, 824.0409
145.8049, 838.1101
146.2870, 848.1440
146.7691, 851.3925
147.2512, 854.0081
147.7334, 855.8351
148.2155, 855.4457
148.6976, 860.9086
149.1797, 877.3714
149.6618, 898.2498
150.1439, 914.6970
150.6261, 919.5051
151.1082, 926.1630
151.5903, 939.0348
152.0724, 963.0681
152.5545, 982.3143
153.0366, 991.8373
153.5188, 995.8519
154.0009, 1002.614
154.4830, 1019.175
154.9651, 1034.420
155.4472, 1043.288
155.9293, 1040.525
156.4115, 1038.157
156.8936, 1039.196
157.3757, 1042.643
157.8578, 1045.047
158.3399, 1044.428
158.8221, 1043.011
159.3042, 1042.229
159.7863, 1041.138
160.2684, 1041.988
160.7505, 1047.238
161.2326, 1056.177
161.7148, 1062.919
162.1969, 1063.119
162.6790, 1060.656
163.1611, 1059.283
163.6432, 1060.873
164.1253, 1063.346
164.6075, 1066.081
165.0896, 1069.074
165.5717, 1071.203
166.0538, 1069.708
166.5359, 1067.332
167.0180, 1067.975
167.5002, 1079.061
167.9823, 1090.151
168.4644, 1091.214
168.9465, 1079.954
169.4286, 1069.542
169.9107, 1071.955
170.3929, 1082.428
170.8750, 1090.984
171.3571, 1089.524
171.8392, 1084.780
172.3213, 1084.614
172.8034, 1091.201
173.2856, 1098.429
173.7677, 1099.754
174.2498, 1096.670
174.7319, 1094.285
175.2140, 1096.065
175.6961, 1100.397
176.1783, 1104.975
176.6604, 1109.525
177.1425, 1113.844
177.6246, 1116.904
178.1067, 1119.018
178.5888, 1122.455
179.0710, 1129.826
179.5531, 1139.667
180.0352, 1149.047
180.5173, 1158.458
180.9994, 1165.742
181.4815, 1165.349
181.9637, 1157.507
182.4458, 1149.476
182.9279, 1148.320
183.4100, 1152.371
183.8921, 1154.899
184.3742, 1151.033
184.8564, 1145.706
185.3385, 1153.471
185.8206, 1175.450
186.3027, 1197.715
186.7848, 1205.609
187.2669, 1200.501
187.7491, 1193.054
188.2312, 1183.830
188.7133, 1175.026
189.1954, 1176.800
189.6775, 1190.864
190.1596, 1207.824
190.6418, 1216.622
191.1239, 1217.338
191.6060, 1215.701
192.0881, 1212.562
192.5702, 1208.358
193.0524, 1207.338
193.5345, 1210.054
194.0166, 1214.503
194.4987, 1218.190
194.9808, 1221.172
195.4629, 1222.539
195.9451, 1221.059
196.4272, 1216.791
196.9093, 1213.490
197.3914, 1210.787
197.8735, 1209.815
198.3556, 1214.822
198.8378, 1227.260
199.3199, 1236.397
199.8020, 1234.427
200.2841, 1220.412
200.7662, 1209.636
201.2483, 1203.273
201.7305, 1200.343
202.2126, 1198.940
202.6947, 1199.458
203.1768, 1200.036
203.6589, 1199.249
204.1410, 1196.766
204.6232, 1195.386
205.1053, 1195.592
205.5874, 1196.956
206.0695, 1197.917
206.5516, 1198.133
207.0337, 1198.845
207.5159, 1202.507
207.9980, 1211.120
208.4801, 1212.221
208.9622, 1201.481
209.4443, 1182.113
209.9264, 1169.689
210.4086, 1164.926
210.8907, 1165.687
211.3728, 1172.744
211.8549, 1190.441
212.3370, 1198.930
212.8191, 1191.185
213.3013, 1170.276
213.7834, 1163.088
214.2655, 1175.507
214.7476, 1192.224
215.2297, 1199.592
215.7118, 1194.375
216.1940, 1188.742
216.6761, 1183.812
217.1582, 1179.716
217.6403, 1180.442
218.1224, 1187.124
218.6045, 1197.080
219.0867, 1208.849
219.5688, 1225.093
220.0509, 1236.498
220.5330, 1240.006
221.0151, 1235.495
221.4972, 1231.343
221.9794, 1227.822
222.4615, 1224.314
222.9436, 1219.683
223.4257, 1212.145
223.9078, 1207.136
224.3899, 1206.027
224.8721, 1208.953
225.3542, 1213.953
225.8363, 1222.208
226.3184, 1231.457
226.8005, 1239.155
227.2827, 1244.712
227.7648, 1249.714
228.2469, 1254.370
228.7290, 1258.542
229.2111, 1263.533
229.6932, 1270.720
230.1754, 1277.554
230.6575, 1280.304
231.1396, 1276.151
231.6217, 1272.854
232.1038, 1272.524
232.5859, 1275.532
233.0681, 1279.218
233.5502, 1281.828
234.0323, 1286.327
234.5144, 1298.475
234.9965, 1325.716
235.4786, 1347.726
235.9608, 1356.384
236.4429, 1347.102
236.9250, 1345.659
237.4071, 1355.399
237.8892, 1370.939
238.3713, 1383.868
238.8535, 1393.078
239.3356, 1401.652
239.8177, 1412.232
240.2998, 1428.476
240.7819, 1431.554
241.2640, 1414.207
241.7462, 1387.968
242.2283, 1373.072
242.7104, 1375.594
243.1925, 1379.555
243.6746, 1380.789
244.1567, 1380.626
244.6389, 1371.924
245.1210, 1348.563
245.6031, 1320.339
246.0852, 1305.900
246.5673, 1313.704
247.0494, 1320.842
247.5316, 1318.046
248.0137, 1300.308
248.4958, 1290.196
248.9779, 1292.179
249.4600, 1299.331
249.9421, 1297.998
250.4243, 1282.808
250.9064, 1268.734
251.3885, 1261.279
251.8706, 1261.872
252.3527, 1264.716
252.8348, 1271.174
253.3170, 1279.030
253.7991, 1283.733
254.2812, 1283.497
254.7633, 1283.453
255.2454, 1285.868
255.7275, 1291.862
256.2097, 1296.206
256.6918, 1299.182
257.1739, 1300.271
257.6560, 1297.803
258.1381, 1289.434
258.6202, 1282.306
259.1024, 1278.471
259.5845, 1277.415
260.0666, 1282.659
260.5487, 1297.437
261.0308, 1316.050
261.5129, 1328.110
261.9951, 1330.979
262.4772, 1333.338
262.9593, 1338.437
263.4414, 1346.800
263.9235, 1355.709
264.4056, 1365.440
264.8878, 1375.568
265.3699, 1385.179
265.8520, 1393.575
266.3341, 1403.755
266.8162, 1419.169
267.2983, 1442.033
267.7805, 1453.340
268.2626, 1447.734
268.7447, 1436.415
269.2268, 1438.862
269.7089, 1457.339
270.1910, 1481.511
270.6732, 1511.375
271.1553, 1548.732
271.6374, 1570.541
272.1195, 1572.352
272.6016, 1565.156
273.0837, 1566.686
273.5659, 1578.395
274.0480, 1591.301
274.5301, 1601.973
275.0122, 1610.244
275.4943, 1619.268
275.9764, 1628.372
276.4586, 1639.498
276.9407, 1655.786
277.4228, 1677.240
277.9049, 1701.786
278.3870, 1728.131
278.8691, 1756.380
279.3513, 1791.538
279.8334, 1836.930
280.3155, 1880.673
280.7976, 1902.541
281.2798, 1901.236
281.7619, 1904.198
282.2440, 1924.962
282.7261, 1960.441
283.2082, 1986.698
283.6903, 2002.650
284.1725, 2013.364
284.6546, 2024.594
285.1367, 2036.189
285.6188, 2046.569
286.1009, 2053.508
286.5830, 2058.605
287.0652, 2070.291
287.5473, 2089.488
288.0294, 2109.119
288.5115, 2119.783
288.9936, 2122.696
289.4757, 2127.905
289.9579, 2143.809
290.4400, 2163.239
290.9221, 2162.508
291.4042, 2140.108
291.8863, 2116.382
292.3684, 2110.544
292.8506, 2120.656
293.3327, 2138.640
293.8148, 2167.594
294.2969, 2199.706
294.7790, 2216.554
295.2611, 2218.172
295.7433, 2221.775
296.2254, 2244.665
296.7075, 2282.014
297.1896, 2318.907
297.6717, 2349.506
298.1538, 2379.666
298.6360, 2415.490
299.1181, 2457.541
299.6002, 2508.513
300.0823, 2573.214
300.5644, 2648.514
301.0465, 2727.915
301.5287, 2804.425
302.0108, 2890.869
302.4929, 3001.650
302.9750, 3135.788
303.4571, 3281.290
303.9392, 3427.285
304.4214, 3581.499
304.9035, 3758.400
305.3856, 3959.769
305.8677, 4181.056
306.3498, 4415.033
306.8319, 4661.820
307.3141, 4927.750
307.7962, 5216.201
308.2783, 5521.840
308.7604, 5844.820
309.2425, 6180.606
309.7246, 6529.172
310.2068, 6877.705
310.6889, 7238.655
311.1710, 7647.511
311.6531, 8128.700
312.1352, 8660.509
312.6173, 9224.213
313.0995, 9809.405
313.5816, 10429.18
314.0637, 11097.09
314.5458, 11806.57
315.0279, 12550.03
315.5100, 13336.86
315.9922, 14147.67
316.4743, 14963.10
316.9564, 15768.03
317.4385, 16631.34
317.9206, 17673.16
318.4027, 18764.94
318.8849, 19727.02
319.3670, 20573.13
319.8491, 21226.95
320.3312, 21683.21
320.8133, 21958.02
321.2954, 21933.61
321.7776, 21550.94
322.2597, 20874.94
322.7418, 19974.80
323.2239, 18698.07
323.7060, 17360.04
324.1881, 15990.33
324.6703, 14579.77
325.1524, 13275.42
325.6345, 12095.38
326.1166, 11036.48
326.5987, 10085.69
327.0808, 9263.486
327.5630, 8525.730
328.0451, 7872.459
328.5272, 7302.925
329.0093, 6798.343
329.4914, 6384.815
329.9735, 6023.704
330.4557, 5693.367
330.9378, 5391.047
331.4199, 5124.219
331.9020, 4896.900
332.3841, 4704.943
332.8662, 4529.192
333.3484, 4376.477
333.8305, 4232.208
334.3126, 4084.577
334.7947, 3927.247
335.2768, 3791.322
335.7589, 3682.144
336.2411, 3593.410
336.7232, 3507.950
337.2053, 3427.693
337.6874, 3346.842
338.1695, 3257.867
338.6516, 3158.641
339.1338, 3078.122
339.6159, 3021.494
340.0980, 2977.353
340.5801, 2929.040
341.0622, 2875.667
341.5443, 2820.581
342.0265, 2760.156
342.5086, 2696.638
342.9907, 2648.285
343.4728, 2617.868
343.9549, 2593.357
344.4370, 2560.343
344.9192, 2519.865
345.4013, 2479.896
345.8834, 2443.294
346.3655, 2409.687
346.8476, 2380.385
347.3297, 2355.603
347.8119, 2332.033
348.2940, 2304.728
348.7761, 2276.034
349.2582, 2254.418
349.7403, 2246.961
350.2225, 2242.267
350.7046, 2220.289
351.1867, 2183.220
351.6688, 2149.496
352.1509, 2136.166
352.6331, 2133.623
353.1152, 2127.207
353.5973, 2112.121
354.0794, 2095.320
354.5615, 2085.005
355.0436, 2078.512
355.5258, 2067.725
356.0079, 2041.745
356.4900, 2013.092
356.9721, 1993.168
357.4542, 1985.400
357.9363, 1980.681
358.4185, 1974.779
358.9006, 1968.383
359.3827, 1962.693
359.8648, 1959.826
360.3469, 1956.474
360.8290, 1948.780
361.3112, 1934.918
361.7933, 1927.936
362.2754, 1942.751
362.7575, 1962.484
363.2396, 1968.814
363.7217, 1940.755
364.2039, 1915.655
364.6860, 1905.711
365.1681, 1911.298
365.6502, 1912.665
366.1323, 1900.554
366.6144, 1887.754
367.0966, 1883.114
367.5787, 1894.750
368.0608, 1905.101
368.5429, 1915.772
369.0250, 1925.166
369.5071, 1924.068
369.9893, 1901.280
370.4714, 1881.030
370.9535, 1876.686
371.4356, 1900.099
371.9177, 1911.637
372.3998, 1904.789
372.8820, 1888.867
373.3641, 1885.237
373.8462, 1897.710
374.3283, 1912.565
374.8104, 1924.419
375.2925, 1933.060
375.7747, 1943.391
376.2568, 1957.401
376.7389, 1969.347
377.2210, 1970.141
377.7031, 1959.110
378.1852, 1946.332
378.6674, 1932.665
379.1495, 1919.811
379.6316, 1915.277
380.1137, 1919.537
380.5958, 1928.179
381.0779, 1940.814
381.5601, 1955.668
382.0422, 1961.892
382.5243, 1952.939
383.0064, 1939.769
383.4885, 1941.913
383.9706, 1957.768
384.4528, 1975.352
384.9349, 1988.617
385.4170, 1997.853
385.8991, 2001.792
386.3812, 1997.512
386.8633, 1997.043
387.3455, 2019.740
387.8276, 2055.195
388.3097, 2079.910
388.7918, 2071.480
389.2739, 2053.994
389.7560, 2048.997
390.2382, 2059.567
390.7203, 2065.279
391.2024, 2049.878
391.6845, 2025.385
392.1666, 2005.434
392.6487, 1999.904
393.1309, 1994.840
393.6130, 1983.123
394.0951, 1965.510
394.5772, 1952.289
395.0593, 1950.408
395.5414, 1950.983
396.0236, 1948.486
396.5057, 1941.030
396.9878, 1931.777
397.4699, 1920.761
397.9520, 1908.127
398.4341, 1894.084
398.9163, 1867.755
399.3984, 1851.434
399.8805, 1856.348
400.3626, 1894.881
400.8447, 1917.185
401.3268, 1916.114
401.8090, 1904.057
402.2911, 1898.331
402.7732, 1901.058
403.2553, 1904.927
403.7374, 1909.293
404.2195, 1913.845
404.7017, 1911.846
405.1838, 1901.439
405.6659, 1889.425
406.1480, 1881.228
406.6301, 1876.799
407.1122, 1876.390
407.5944, 1881.307
408.0765, 1888.987
408.5586, 1892.575
409.0407, 1892.178
409.5228, 1892.588
410.0049, 1898.409
410.4871, 1907.496
410.9692, 1914.092
411.4513, 1917.653
411.9334, 1918.585
412.4155, 1915.840
412.8976, 1910.616
413.3798, 1906.483
413.8619, 1906.414
414.3440, 1907.403
414.8261, 1906.945
415.3082, 1904.939
415.7903, 1900.430
416.2725, 1887.127
416.7546, 1873.076
417.2367, 1867.465
417.7188, 1882.947
418.2009, 1896.850
418.6830, 1895.691
419.1652, 1883.527
419.6473, 1875.284
420.1294, 1880.110
420.6115, 1887.048
421.0937, 1889.793
421.5758, 1884.382
422.0579, 1881.456
422.5400, 1884.561
423.0221, 1890.513
423.5042, 1894.161
423.9864, 1894.517
424.4685, 1893.408
424.9506, 1890.166
425.4327, 1884.391
425.9148, 1882.565
426.3969, 1887.017
426.8791, 1892.759
427.3612, 1895.142
427.8433, 1892.715
428.3254, 1891.146
428.8075, 1890.090
429.2896, 1890.888
429.7718, 1901.056
430.2539, 1923.419
430.7360, 1940.472
431.2181, 1938.275
431.7002, 1918.406
432.1823, 1902.886
432.6645, 1892.089
433.1466, 1888.027
433.6287, 1898.519
434.1108, 1920.267
434.5929, 1936.687
435.0750, 1935.301
435.5572, 1926.616
436.0393, 1933.545
436.5214, 1955.074
437.0035, 1969.673
437.4856, 1952.919
437.9677, 1920.921
438.4499, 1896.152
438.9320, 1886.186
439.4141, 1881.580
439.8962, 1874.851
440.3783, 1868.208
440.8604, 1867.156
441.3426, 1885.952
441.8247, 1902.093
442.3068, 1900.105
442.7889, 1873.869
443.2710, 1851.014
443.7531, 1842.329
444.2353, 1839.475
444.7174, 1833.078
445.1995, 1813.555
445.6816, 1799.594
446.1637, 1796.508
446.6458, 1803.193
447.1280, 1807.953
447.6101, 1810.439
448.0922, 1811.386
448.5743, 1810.773
449.0564, 1807.146
449.5385, 1806.469
450.0207, 1811.292
450.5028, 1816.954
450.9849, 1812.532
451.4670, 1795.365
451.9491, 1781.922
452.4312, 1780.029
452.9134, 1788.023
453.3955, 1792.431
453.8776, 1792.796
454.3597, 1792.747
454.8418, 1796.907
455.3239, 1803.989
455.8061, 1808.363
456.2882, 1808.298
456.7703, 1805.766
457.2524, 1803.002
457.7345, 1800.071
458.2166, 1797.182
458.6988, 1794.140
459.1809, 1791.390
459.6630, 1789.611
460.1451, 1788.965
460.6272, 1788.452
461.1093, 1786.744
461.5915, 1785.013
462.0736, 1784.759
462.5557, 1790.496
463.0378, 1793.858
463.5199, 1788.161
464.0020, 1775.338
464.4842, 1769.734
464.9663, 1785.628
465.4484, 1801.194
465.9305, 1804.294
466.4126, 1783.206
466.8947, 1769.564
467.3769, 1765.582
467.8590, 1768.068
468.3411, 1772.410
468.8232, 1780.297
469.3053, 1786.553
469.7874, 1789.254
470.2696, 1788.667
470.7517, 1789.674
471.2338, 1792.329
471.7159, 1796.379
472.1980, 1802.248
472.6801, 1809.895
473.1623, 1816.130
473.6444, 1820.097
474.1265, 1823.359
474.6086, 1828.711
475.0907, 1835.899
475.5728, 1843.276
476.0550, 1850.234
476.5371, 1856.762
477.0192, 1862.399
477.5013, 1867.137
477.9834, 1872.328
478.4655, 1878.977
478.9477, 1886.747
479.4298, 1894.958
479.9119, 1901.717
480.3940, 1911.140
480.8761, 1927.762
481.3582, 1949.035
481.8404, 1967.428
482.3225, 1982.494
482.8046, 1992.451
483.2867, 1995.530
483.7688, 1989.275
484.2509, 1984.174
484.7331, 1981.843
485.2152, 1980.690
485.6973, 1979.731
486.1794, 1983.224
486.6615, 1979.061
487.1436, 1961.908
487.6258, 1935.611
488.1079, 1920.428
488.5900, 1921.709
489.0721, 1919.511
489.5542, 1898.146
490.0363, 1857.243
490.5185, 1833.107
491.0006, 1829.662
491.4827, 1833.661
491.9648, 1826.914
492.4470, 1811.794
492.9291, 1801.663
493.4112, 1803.578
493.8933, 1810.973
494.3754, 1816.034
494.8575, 1818.422
495.3397, 1815.713
495.8218, 1800.190
496.3039, 1781.638
496.7860, 1772.283
497.2681, 1776.461
497.7502, 1779.151
498.2324, 1767.421
498.7145, 1750.769
499.1966, 1741.892
499.6787, 1750.562
500.1608, 1761.610
500.6429, 1772.714
501.1251, 1783.406
501.6072, 1788.567
502.0893, 1784.798
502.5714, 1778.210
503.0535, 1771.058
503.5356, 1761.317
504.0178, 1756.086
504.4999, 1756.752
504.9820, 1760.738
505.4641, 1764.125
505.9462, 1766.575
506.4283, 1770.493
506.9105, 1778.452
507.3926, 1787.952
507.8747, 1787.228
508.3568, 1775.747
508.8389, 1763.655
509.3210, 1756.623
509.8032, 1754.686
510.2853, 1759.178
510.7674, 1771.598
511.2495, 1784.714
511.7316, 1790.877
512.2137, 1792.282
512.6959, 1793.323
513.1780, 1796.227
513.6601, 1799.097
514.1422, 1802.656
514.6243, 1806.057
515.1064, 1803.777
515.5886, 1785.409
516.0707, 1766.433
516.5528, 1756.982
517.0349, 1763.425
517.5170, 1768.532
517.9991, 1770.584
518.4813, 1770.453
518.9634, 1769.170
519.4455, 1767.113
519.9276, 1763.235
520.4097, 1757.126
520.8918, 1749.033
521.3740, 1738.446
521.8561, 1723.377
522.3382, 1712.401
522.8203, 1714.199
523.3024, 1727.695
523.7845, 1733.845
524.2667, 1730.660
524.7488, 1723.766
525.2309, 1719.241
525.7130, 1716.624
526.1951, 1714.600
526.6772, 1714.688
527.1594, 1713.210
527.6415, 1702.867
528.1236, 1686.092
528.6057, 1673.347
529.0878, 1672.250
529.5699, 1676.534
530.0521, 1682.854
530.5342, 1692.049
531.0163, 1697.635
531.4984, 1695.500
531.9805, 1689.637
532.4626, 1684.301
532.9448, 1682.714
533.4269, 1678.280
533.9090, 1666.917
534.3911, 1651.807
534.8732, 1646.885
535.3553, 1658.598
535.8375, 1668.340
536.3196, 1667.306
536.8017, 1654.946
537.2838, 1642.867
537.7659, 1630.539
538.2480, 1619.881
538.7302, 1611.777
539.2123, 1606.587
539.6944, 1608.082
540.1765, 1619.081
540.6586, 1633.421
541.1407, 1647.659
541.6229, 1659.257
542.1050, 1659.511
542.5871, 1627.707
543.0692, 1592.954
543.5513, 1587.014
544.0334, 1611.268
544.5156, 1629.568
544.9977, 1616.906
545.4798, 1595.980
545.9619, 1584.908
546.4440, 1593.736
546.9261, 1602.619
547.4083, 1610.379
547.8904, 1616.235
548.3725, 1618.797
548.8546, 1618.126
549.3367, 1613.833
549.8188, 1603.783
550.3010, 1588.965
550.7831, 1581.867
551.2652, 1584.247
551.7473, 1588.490
552.2294, 1590.172
552.7115, 1589.260
553.1937, 1582.510
553.6758, 1567.226
554.1579, 1556.252
554.6400, 1575.558
555.1221, 1613.207
555.6042, 1634.072
556.0864, 1614.068
556.5685, 1583.902
557.0506, 1571.690
557.5327, 1574.150
558.0148, 1579.422
558.4969, 1584.597
558.9791, 1588.648
559.4612, 1591.025
559.9433, 1591.725
560.4254, 1590.470
560.9075, 1584.642
561.3896, 1578.284
561.8718, 1574.979
562.3539, 1577.378
562.8360, 1578.271
563.3181, 1576.551
563.8002, 1573.284
564.2823, 1570.923
564.7645, 1569.572
565.2466, 1568.627
565.7287, 1566.731
566.2108, 1564.959
566.6929, 1571.465
567.1750, 1586.695
567.6572, 1598.894
568.1393, 1593.004
568.6214, 1577.704
569.1035, 1571.819
569.5856, 1580.335
570.0677, 1589.772
570.5499, 1587.410
571.0320, 1578.938
571.5141, 1573.364
571.9962, 1577.207
572.4783, 1581.356
572.9604, 1581.218
573.4426, 1577.850
573.9247, 1576.965
574.4068, 1585.306
574.8889, 1590.848
575.3710, 1587.477
575.8531, 1572.278
576.3353, 1563.872
576.8174, 1563.980
577.2995, 1568.454
577.7816, 1575.287
578.2637, 1585.205
578.7458, 1587.658
579.2280, 1578.042
579.7101, 1565.966
580.1922, 1572.781
580.6743, 1594.704
581.1564, 1610.355
581.6385, 1603.597
582.1207, 1588.327
582.6028, 1582.908
583.0849, 1586.321
583.5670, 1590.163
584.0491, 1590.510
584.5313, 1588.656
585.0134, 1584.753
585.4955, 1577.220
585.9776, 1572.990
586.4597, 1577.792
586.9418, 1585.168
587.4240, 1587.554
587.9061, 1579.321
588.3882, 1574.757
588.8703, 1577.206
589.3524, 1583.804
589.8345, 1585.681
590.3167, 1581.606
590.7988, 1577.463
591.2809, 1575.182
591.7630, 1574.873
592.2451, 1578.411
592.7272, 1585.969
593.2094, 1593.133
593.6915, 1597.520
594.1736, 1598.640
594.6557, 1593.844
595.1378, 1580.901
595.6199, 1570.224
596.1021, 1570.324
596.5842, 1577.476
597.0663, 1586.410
597.5485, 1598.717
598.0306, 1608.862
598.5127, 1613.473
598.9948, 1614.001
599.4769, 1617.080
599.9590, 1630.057
600.4412, 1637.296
600.9233, 1631.858
601.4054, 1612.618
601.8875, 1597.490
602.3696, 1585.748
602.8517, 1580.236
603.3339, 1585.868
603.8160, 1601.738
604.2981, 1617.321
604.7802, 1632.812
605.2623, 1642.480
605.7444, 1631.113
606.2266, 1607.245
606.7087, 1594.498
607.1908, 1609.187
607.6729, 1630.041
608.1550, 1642.997
608.6371, 1648.622
609.1193, 1649.214
609.6014, 1637.301
610.0835, 1627.714
610.5656, 1628.472
611.0477, 1641.321
611.5298, 1654.826
612.0120, 1670.805
612.4941, 1684.965
612.9762, 1693.957
613.4583, 1696.333
613.9404, 1699.029
614.4225, 1703.131
614.9047, 1706.104
615.3868, 1701.784
615.8689, 1691.057
616.3510, 1687.114
616.8331, 1697.939
617.3152, 1712.080
617.7974, 1709.098
618.2795, 1693.189
618.7616, 1680.555
619.2437, 1681.304
619.7258, 1687.854
620.2079, 1696.436
620.6901, 1706.676
621.1722, 1714.074
621.6543, 1713.780
622.1364, 1712.455
622.6185, 1714.872
623.1006, 1725.091
623.5828, 1730.535
624.0649, 1729.682
624.5470, 1725.451
625.0291, 1720.296
625.5112, 1713.324
625.9933, 1710.408
626.4755, 1713.135
626.9576, 1719.791
627.4397, 1730.815
627.9218, 1744.684
628.4039, 1749.770
628.8860, 1730.026
629.3682, 1703.567
629.8503, 1697.274
630.3324, 1708.847
630.8145, 1720.680
631.2966, 1721.300
631.7787, 1719.243
632.2609, 1721.296
632.7430, 1730.292
633.2251, 1735.587
633.7072, 1732.498
634.1893, 1726.410
634.6714, 1720.995
635.1536, 1712.811
635.6357, 1713.973
636.1178, 1729.310
636.5999, 1750.186
637.0820, 1759.541
637.5641, 1756.810
638.0463, 1755.312
638.5284, 1760.105
639.0105, 1768.133
639.4926, 1775.027
639.9747, 1780.355
640.4568, 1781.543
640.9390, 1770.739
641.4211, 1759.211
641.9032, 1759.060
642.3853, 1771.099
642.8674, 1782.348
643.3495, 1790.448
643.8317, 1794.035
644.3138, 1791.726
644.7959, 1778.528
645.2780, 1768.530
645.7601, 1761.874
646.2422, 1758.303
646.7244, 1758.175
647.2065, 1762.318
647.6886, 1765.675
648.1707, 1767.396
648.6528, 1767.815
649.1349, 1766.944
649.6171, 1765.055
650.0992, 1764.037
650.5813, 1763.030
651.0634, 1764.455
651.5455, 1775.399
652.0276, 1793.342
652.5098, 1804.190
652.9919, 1793.792
653.4740, 1779.134
653.9561, 1770.803
654.4382, 1770.880
654.9203, 1770.928
655.4025, 1768.976
655.8846, 1767.433
656.3667, 1768.569
656.8488, 1774.894
657.3309, 1775.282
657.8130, 1766.738
658.2952, 1756.940
658.7773, 1758.481
659.2594, 1770.278
659.7415, 1779.157
660.2236, 1781.250
660.7057, 1779.574
661.1879, 1778.981
661.6700, 1778.232
662.1521, 1773.835
662.6342, 1760.129
663.1163, 1745.667
663.5984, 1735.430
664.0806, 1729.265
664.5627, 1724.637
665.0448, 1719.011
665.5269, 1716.792
666.0090, 1721.274
666.4911, 1734.105
666.9733, 1740.749
667.4554, 1739.557
667.9375, 1735.440
668.4196, 1732.372
668.9017, 1730.258
669.3839, 1725.877
669.8660, 1718.231
670.3481, 1711.723
670.8302, 1713.645
671.3123, 1720.422
671.7944, 1724.082
672.2766, 1720.151
672.7587, 1715.690
673.2408, 1717.754
673.7229, 1722.313
674.2050, 1721.519
674.6871, 1704.489
675.1693, 1691.293
675.6514, 1688.351
676.1335, 1693.965
676.6156, 1700.247
677.0977, 1708.578
677.5798, 1714.438
678.0620, 1715.736
678.5441, 1712.694
679.0262, 1705.146
679.5083, 1692.506
679.9904, 1684.029
680.4725, 1693.503
680.9547, 1710.262
681.4368, 1713.739
681.9189, 1700.268
682.4010, 1685.855
682.8831, 1681.375
683.3652, 1681.416
683.8474, 1680.684
684.3295, 1677.886
684.8116, 1674.471
685.2937, 1672.213
685.7758, 1668.727
686.2579, 1659.629
686.7401, 1640.380
687.2222, 1628.424
687.7043, 1628.503
688.1864, 1636.231
688.6685, 1644.043
689.1506, 1651.489
689.6328, 1651.118
690.1149, 1632.735
690.5970, 1609.033
691.0791, 1601.663
691.5612, 1607.362
692.0433, 1609.718
692.5255, 1589.897
693.0076, 1571.901
693.4897, 1575.449
693.9718, 1604.582
694.4539, 1621.547
694.9360, 1611.248
695.4182, 1596.799
695.9003, 1590.734
696.3824, 1596.197
696.8645, 1596.124
697.3466, 1588.440
697.8287, 1580.670
698.3109, 1584.311
698.7930, 1596.195
699.2751, 1598.231
699.7572, 1585.431
700.2393, 1569.052
700.7214, 1556.994
701.2036, 1550.223
701.6857, 1550.527
702.1678, 1567.112
702.6499, 1580.874
703.1320, 1582.619
703.6141, 1576.342
704.0963, 1572.132
704.5784, 1572.513
705.0605, 1571.945
705.5426, 1568.190
706.0247, 1562.657
706.5068, 1562.211
706.9890, 1567.354
707.4711, 1573.286
707.9532, 1577.175
708.4353, 1580.100
708.9174, 1585.865
709.3995, 1594.024
709.8817, 1599.916
710.3638, 1598.981
710.8459, 1595.189
711.3280, 1591.212
711.8101, 1587.038
712.2922, 1585.369
712.7744, 1588.859
713.2565, 1593.733
713.7386, 1597.503
714.2207, 1599.968
714.7028, 1602.012
715.1849, 1604.119
715.6671, 1604.993
716.1492, 1602.151
716.6313, 1596.058
717.1134, 1591.753
717.5955, 1589.849
718.0776, 1590.880
718.5598, 1599.035
719.0419, 1610.164
719.5240, 1616.003
720.0061, 1607.668
720.4882, 1600.714
720.9703, 1603.799
721.4525, 1613.346
721.9346, 1621.232
722.4167, 1625.917
722.8988, 1629.595
723.3809, 1632.878
723.8630, 1635.435
724.3452, 1636.391
724.8273, 1636.025
725.3094, 1631.896
725.7915, 1618.914
726.2736, 1602.770
726.7557, 1600.221
727.2379, 1609.760
727.7200, 1619.522
728.2021, 1620.287
728.6842, 1619.092
729.1663, 1623.632
729.6484, 1634.798
730.1306, 1639.862
730.6127, 1629.144
731.0948, 1616.250
731.5769, 1608.290
732.0590, 1605.658
732.5411, 1606.432
733.0233, 1611.321
733.5054, 1618.025
733.9875, 1625.749
734.4696, 1633.962
734.9517, 1637.617
735.4338, 1635.506
735.9160, 1632.934
736.3981, 1637.875
736.8802, 1645.024
737.3623, 1645.923
737.8444, 1634.249
738.3266, 1623.978
738.8087, 1619.411
739.2908, 1619.721
739.7729, 1624.094
740.2551, 1635.870
740.7372, 1645.368
741.2193, 1651.651
741.7014, 1654.943
742.1835, 1653.743
742.6656, 1647.974
743.1478, 1646.997
743.6299, 1655.134
744.1120, 1668.006
744.5941, 1679.328
745.0762, 1689.588
745.5583, 1700.678
746.0405, 1724.063
746.5226, 1738.569
747.0047, 1722.649
747.4868, 1683.418
747.9689, 1663.304
748.4510, 1684.813
748.9332, 1703.513
749.4153, 1704.479
749.8974, 1689.419
750.3795, 1679.237
750.8616, 1674.687
751.3438, 1669.477
751.8259, 1658.180
752.3080, 1643.655
752.7901, 1632.072
753.2722, 1623.606
753.7543, 1617.366
754.2365, 1615.279
754.7186, 1613.424
755.2007, 1608.177
755.6828, 1598.294
756.1649, 1589.826
756.6470, 1580.796
757.1292, 1576.025
757.6113, 1579.830
758.0934, 1595.306
758.5755, 1605.599
759.0576, 1610.594
759.5397, 1611.048
760.0219, 1605.786
760.5040, 1596.566
760.9861, 1589.342
761.4682, 1585.451
761.9503, 1581.678
762.4324, 1572.239
762.9146, 1562.839
763.3967, 1560.945
763.8788, 1579.676
764.3609, 1587.401
764.8430, 1566.122
765.3251, 1538.559
765.8073, 1532.510
766.2894, 1555.745
766.7715, 1569.214
767.2536, 1565.402
767.7357, 1553.588
768.2178, 1548.646
768.7000, 1549.195
769.1821, 1549.625
769.6642, 1548.256
770.1463, 1545.874
770.6284, 1538.858
771.1105, 1531.877
771.5927, 1533.959
772.0748, 1565.386
772.5569, 1585.630
773.0390, 1578.583
773.5211, 1555.207
774.0032, 1542.463
774.4854, 1541.920
774.9675, 1547.299
775.4496, 1561.328
775.9317, 1576.057
776.4138, 1564.777
776.8959, 1532.977
777.3781, 1509.920
777.8602, 1518.681
778.3423, 1536.505
778.8244, 1545.666
779.3065, 1547.530
779.7886, 1549.018
780.2708, 1557.372
780.7529, 1559.756
781.2350, 1547.464
781.7171, 1523.475
782.1992, 1518.775
782.6813, 1538.889
783.1635, 1556.461
783.6456, 1555.684
784.1277, 1541.900
784.6098, 1530.837
785.0919, 1522.626
785.5740, 1517.957
786.0562, 1521.055
786.5383, 1525.061
787.0204, 1521.724
787.5025, 1510.714
787.9846, 1507.176
788.4667, 1524.190
788.9489, 1540.323
789.4310, 1546.088
789.9131, 1540.778
790.3952, 1537.365
790.8773, 1535.920
791.3594, 1536.162
791.8416, 1538.554
792.3237, 1542.400
792.8058, 1545.891
793.2879, 1548.969
793.7700, 1551.974
794.2521, 1556.169
794.7343, 1559.715
795.2164, 1559.614
795.6985, 1553.290
796.1806, 1554.514
796.6627, 1572.722
797.1448, 1589.794
797.6270, 1592.301
798.1091, 1577.602
798.5912, 1569.967
799.0733, 1570.178
799.5554, 1573.815
800.0375, 1577.890
800.5197, 1581.944
801.0018, 1585.123
801.4839, 1587.271
801.9660, 1588.698
802.4481, 1587.819
802.9302, 1587.398
803.4124, 1589.248
803.8945, 1591.115
804.3766, 1602.730
804.8587, 1631.636
805.3408, 1660.317
805.8229, 1670.370
806.3051, 1661.943
806.7872, 1658.626
807.2693, 1662.870
807.7514, 1669.516
808.2335, 1673.371
808.7156, 1676.126
809.1978, 1681.225
809.6799, 1691.303
810.1620, 1697.219
810.6441, 1692.807
811.1262, 1683.688
811.6083, 1674.834
812.0905, 1662.851
812.5726, 1660.059
813.0547, 1669.497
813.5368, 1682.764
814.0189, 1690.330
814.5010, 1692.943
814.9832, 1694.096
815.4653, 1693.540
815.9474, 1695.507
816.4295, 1710.252
816.9116, 1727.175
817.3937, 1732.297
817.8759, 1715.224
818.3580, 1699.859
818.8401, 1688.005
819.3222, 1682.142
819.8043, 1686.462
820.2864, 1704.015
820.7686, 1718.340
821.2507, 1728.467
821.7328, 1733.337
822.2149, 1726.971
822.6970, 1714.445
823.1791, 1709.534
823.6613, 1717.647
824.1434, 1726.130
824.6255, 1725.037
825.1076, 1720.411
825.5897, 1718.993
826.0718, 1729.739
826.5540, 1731.669
827.0361, 1719.544
827.5182, 1704.605
828.0003, 1701.434
828.4824, 1709.892
828.9645, 1715.806
829.4467, 1716.997
829.9288, 1715.599
830.4109, 1711.587
830.8930, 1707.382
831.3751, 1707.438
831.8572, 1716.185
832.3394, 1721.712
832.8215, 1716.091
833.3036, 1707.222
833.7857, 1704.417
834.2678, 1711.381
834.7499, 1712.487
835.2321, 1704.105
835.7142, 1695.986
836.1963, 1704.324
836.6784, 1723.841
837.1605, 1734.121
837.6426, 1729.835
838.1248, 1722.253
838.6069, 1716.627
839.0890, 1714.139
839.5711, 1716.631
840.0532, 1729.551
840.5353, 1738.097
841.0175, 1740.586
841.4996, 1739.366
841.9817, 1736.255
842.4638, 1731.167
842.9459, 1725.618
843.4280, 1719.334
843.9102, 1714.766
844.3923, 1716.715
844.8744, 1721.495
845.3565, 1722.503
845.8386, 1716.945
846.3207, 1713.254
846.8029, 1716.158
847.2850, 1721.617
847.7671, 1726.557
848.2492, 1732.901
848.7313, 1732.195
849.2134, 1721.857
849.6956, 1711.062
850.1777, 1709.340
850.6598, 1714.783
851.1419, 1721.353
851.6240, 1728.541
852.1061, 1734.920
852.5883, 1742.118
853.0704, 1746.425
853.5525, 1743.655
854.0346, 1730.214
854.5167, 1718.680
854.9988, 1708.031
855.4810, 1701.627
855.9631, 1703.471
856.4452, 1713.752
856.9273, 1720.136
857.4094, 1722.139
857.8915, 1722.715
858.3737, 1723.401
858.8558, 1724.685
859.3379, 1727.595
859.8200, 1732.365
860.3021, 1736.582
860.7842, 1744.015
861.2664, 1746.021
861.7485, 1733.908
862.2306, 1704.038
862.7127, 1700.990
863.1948, 1731.279
863.6769, 1759.591
864.1591, 1753.998
864.6412, 1729.452
865.1233, 1723.255
865.6054, 1735.229
866.0875, 1746.990
866.5696, 1743.681
867.0518, 1739.956
867.5339, 1746.735
868.0160, 1765.425
868.4981, 1778.691
868.9802, 1785.956
869.4623, 1788.816
869.9445, 1785.470
870.4266, 1778.423
870.9087, 1783.054
871.3908, 1797.773
871.8729, 1805.374
872.3550, 1783.588
872.8372, 1759.898
873.3193, 1761.693
873.8014, 1784.401
874.2835, 1799.090
874.7656, 1789.583
875.2477, 1783.243
875.7299, 1790.459
876.2120, 1805.209
876.6941, 1800.407
877.1762, 1776.138
877.6583, 1757.138
878.1404, 1757.394
878.6226, 1765.406
879.1047, 1767.898
879.5869, 1765.859
880.0690, 1761.911
880.5511, 1754.146
881.0332, 1747.928
881.5153, 1744.414
881.9974, 1743.569
882.4796, 1746.754
882.9617, 1755.467
883.4438, 1759.537
883.9259, 1756.003
884.4080, 1747.874
884.8901, 1735.738
885.3723, 1723.019
885.8544, 1718.603
886.3365, 1733.997
886.8186, 1744.471
887.3007, 1731.059
887.7828, 1709.630
888.2650, 1703.480
888.7471, 1721.846
889.2292, 1730.600
889.7113, 1724.396
890.1934, 1713.772
890.6755, 1712.010
891.1577, 1717.132
891.6398, 1723.836
892.1219, 1731.867
892.6040, 1737.261
893.0861, 1735.559
893.5682, 1730.841
894.0504, 1726.744
894.5325, 1723.590
895.0146, 1721.810
895.4967, 1722.198
895.9788, 1722.494
896.4609, 1719.835
896.9431, 1715.071
897.4252, 1713.861
897.9073, 1716.540
898.3894, 1720.452
898.8715, 1724.873
899.3536, 1728.773
899.8358, 1732.309
900.3179, 1735.784
900.8000, 1733.339
901.2821, 1720.026
901.7642, 1707.490
902.2463, 1700.617
902.7285, 1699.088
903.2106, 1699.012
903.6927, 1700.542
904.1748, 1707.071
904.6569, 1726.935
905.1390, 1748.224
905.6212, 1759.578
906.1033, 1761.757
906.5854, 1759.864
907.0675, 1750.481
907.5496, 1742.812
908.0317, 1739.582
908.5139, 1739.336
908.9960, 1736.205
909.4781, 1730.183
909.9602, 1730.238
910.4423, 1742.431
910.9244, 1757.418
911.4066, 1765.686
911.8887, 1768.177
912.3708, 1766.676
912.8529, 1751.096
913.3350, 1745.825
913.8171, 1764.504
914.2993, 1788.586
914.7814, 1790.092
915.2635, 1766.551
915.7456, 1754.419
916.2277, 1760.409
916.7098, 1771.924
917.1920, 1773.468
917.6741, 1771.373
918.1562, 1776.337
918.6383, 1793.836
919.1204, 1806.145
919.6025, 1806.117
920.0847, 1800.292
920.5668, 1790.220
921.0489, 1773.194
921.5310, 1773.733
922.0131, 1793.431
922.4952, 1817.060
922.9774, 1835.369
923.4595, 1848.255
923.9416, 1854.858
924.4237, 1855.299
924.9058, 1852.584
925.3879, 1843.236
925.8701, 1835.879
926.3522, 1834.982
926.8343, 1839.497
927.3164, 1841.282
927.7985, 1840.346
928.2806, 1836.319
928.7628, 1824.928
929.2449, 1814.293
929.7270, 1820.297
930.2091, 1837.655
930.6912, 1852.231
931.1733, 1856.046
931.6555, 1858.631
932.1376, 1861.536
932.6197, 1865.465
933.1018, 1873.105
933.5839, 1885.875
934.0660, 1891.639
934.5482, 1887.371
935.0303, 1878.213
935.5124, 1867.308
935.9945, 1857.092
936.4766, 1852.739
936.9587, 1858.378
937.4409, 1861.429
937.9230, 1858.171
938.4051, 1850.352
938.8872, 1837.663
939.3693, 1817.645
939.8514, 1808.056
940.3336, 1810.145
940.8157, 1814.220
941.2978, 1811.345
941.7799, 1805.839
942.2620, 1804.567
942.7441, 1807.671
943.2263, 1809.764
943.7084, 1807.207
944.1905, 1804.893
944.6726, 1805.601
945.1547, 1808.384
945.6368, 1807.235
946.1190, 1802.022
946.6011, 1794.562
947.0832, 1783.083
947.5653, 1772.619
948.0474, 1771.703
948.5295, 1776.869
949.0117, 1780.055
949.4938, 1774.297
949.9759, 1772.030
950.4580, 1780.538
950.9401, 1789.962
951.4222, 1781.475
951.9044, 1754.543
952.3865, 1740.079
952.8686, 1743.845
953.3507, 1756.898
953.8328, 1775.960
954.3149, 1795.665
954.7971, 1808.566
955.2792, 1810.897
955.7613, 1814.828
956.2434, 1828.443
956.7255, 1836.660
957.2076, 1826.759
957.6898, 1799.525
958.1719, 1785.674
958.6540, 1784.970
959.1361, 1788.540
959.6182, 1794.631
960.1003, 1798.753
960.5825, 1794.242
961.0646, 1782.985
961.5467, 1776.828
962.0288, 1780.691
962.5109, 1785.542
962.9930, 1788.786
963.4752, 1792.083
963.9573, 1801.575
964.4394, 1815.709
964.9215, 1825.488
965.4036, 1828.029
965.8857, 1825.045
966.3679, 1814.884
966.8500, 1801.367
967.3321, 1789.156
967.8142, 1775.210
968.2963, 1770.226
968.7784, 1776.482
969.2606, 1787.290
969.7427, 1799.714
970.2248, 1811.117
970.7069, 1808.074
971.1890, 1789.833
971.6711, 1776.187
972.1533, 1788.430
972.6354, 1802.848
973.1175, 1801.731
973.5996, 1784.884
974.0817, 1773.830
974.5638, 1771.274
975.0460, 1763.813
975.5281, 1738.450
976.0102, 1711.451
976.4923, 1728.736
976.9744, 1774.358
977.4565, 1801.473
977.9387, 1768.093
978.4208, 1737.966
978.9029, 1739.437
979.3850, 1754.007
979.8671, 1756.545
980.3492, 1744.645
980.8314, 1734.458
981.3135, 1727.729
981.7956, 1722.810
982.2777, 1719.214
982.7598, 1715.560
983.2419, 1707.830
983.7241, 1694.048
984.2062, 1688.372
984.6883, 1705.235
985.1704, 1720.736
985.6525, 1722.780
986.1346, 1713.137
986.6168, 1710.991
987.0989, 1716.155
987.5810, 1722.770
988.0631, 1730.461
988.5452, 1735.562
989.0273, 1736.150
989.5095, 1731.343
989.9916, 1718.265
990.4737, 1680.738
990.9558, 1660.472
991.4379, 1666.752
991.9200, 1686.153
992.4022, 1701.407
992.8843, 1712.050
993.3664, 1715.440
993.8485, 1710.040
994.3306, 1703.835
994.8127, 1704.408
995.2949, 1705.166
995.7770, 1698.813
996.2591, 1683.251
996.7412, 1675.210
997.2233, 1676.467
997.7054, 1678.996
998.1876, 1676.842
998.6697, 1673.004
999.1518, 1674.772
999.6339, 1680.997
1000.116, 1687.070
1000.598, 1694.055
1001.080, 1696.871
1001.562, 1690.808
1002.044, 1680.925
1002.527, 1675.895
1003.009, 1675.961
1003.491, 1678.529
1003.973, 1683.779
1004.455, 1688.547
1004.937, 1688.355
1005.419, 1686.003
1005.901, 1685.082
1006.384, 1686.665
1006.866, 1687.945
1007.348, 1690.011
1007.830, 1689.529
1008.312, 1682.578
1008.794, 1671.198
1009.276, 1668.130
1009.758, 1672.663
1010.240, 1678.621
1010.723, 1685.075
1011.205, 1689.180
1011.687, 1687.665
1012.169, 1682.480
1012.651, 1679.015
1013.133, 1677.775
1013.615, 1677.382
1014.097, 1678.168
1014.580, 1678.303
1015.062, 1675.871
1015.544, 1670.820
1016.026, 1659.868
1016.508, 1639.475
1016.990, 1631.549
1017.472, 1658.524
1017.954, 1688.057
1018.436, 1701.676
1018.919, 1699.983
1019.401, 1696.907
1019.883, 1692.438
1020.365, 1690.291
1020.847, 1695.371
1021.329, 1701.502
1021.811, 1703.121
1022.293, 1700.912
1022.776, 1696.426
1023.258, 1685.712
1023.740, 1679.968
1024.222, 1681.053
1024.704, 1686.202
1025.186, 1694.573
1025.668, 1703.891
1026.150, 1704.110
1026.632, 1693.045
1027.115, 1684.317
1027.597, 1690.396
1028.079, 1698.025
1028.561, 1696.570
1029.043, 1686.573
1029.525, 1685.316
1030.007, 1694.304
1030.489, 1699.391
1030.972, 1690.106
1031.454, 1677.827
1031.936, 1680.870
1032.418, 1692.810
1032.900, 1699.827
1033.382, 1689.554
1033.864, 1686.373
1034.346, 1698.213
1034.828, 1710.507
1035.311, 1702.550
1035.793, 1678.570
1036.275, 1669.398
1036.757, 1677.514
1037.239, 1684.694
1037.721, 1672.717
1038.203, 1659.710
1038.685, 1659.866
1039.167, 1672.161
1039.650, 1681.759
1040.132, 1688.908
1040.614, 1691.405
1041.096, 1686.638
1041.578, 1679.924
1042.060, 1683.079
1042.542, 1689.814
1043.024, 1687.335
1043.507, 1662.703
1043.989, 1647.426
1044.471, 1653.376
1044.953, 1662.847
1045.435, 1660.046
1045.917, 1646.540
1046.399, 1644.574
1046.881, 1654.092
1047.364, 1664.842
1047.846, 1667.763
1048.328, 1671.514
1048.810, 1686.109
1049.292, 1707.135
1049.774, 1715.575
1050.256, 1708.512
1050.738, 1698.662
1051.220, 1688.468
1051.703, 1676.712
1052.185, 1655.651
1052.667, 1634.195
1053.149, 1630.101
1053.631, 1651.353
1054.113, 1668.357
1054.595, 1671.529
1055.077, 1670.535
1055.559, 1669.882
1056.042, 1669.182
1056.524, 1663.711
1057.006, 1654.461
1057.488, 1649.536
1057.970, 1657.790
1058.452, 1667.177
1058.934, 1671.298
1059.416, 1670.970
1059.899, 1667.423
1060.381, 1658.583
1060.863, 1655.739
1061.345, 1661.659
1061.827, 1665.644
1062.309, 1649.587
1062.791, 1627.967
1063.273, 1624.292
1063.755, 1640.138
1064.238, 1655.859
1064.720, 1668.804
1065.202, 1677.373
1065.684, 1680.803
1066.166, 1679.579
1066.648, 1672.795
1067.130, 1662.014
1067.612, 1654.230
1068.094, 1652.950
1068.577, 1652.087
1069.059, 1644.137
1069.541, 1637.543
1070.023, 1641.266
1070.505, 1657.935
1070.987, 1670.531
1071.469, 1679.302
1071.951, 1683.243
1072.434, 1678.835
1072.916, 1671.371
1073.398, 1665.547
1073.880, 1661.885
1074.362, 1661.925
1074.844, 1671.581
1075.326, 1674.900
1075.808, 1667.561
1076.291, 1657.431
1076.773, 1656.648
1077.255, 1661.958
1077.737, 1665.155
1078.219, 1665.217
1078.701, 1659.994
1079.183, 1635.858
1079.665, 1619.492
1080.147, 1627.413
1080.630, 1654.237
1081.112, 1669.472
1081.594, 1673.217
1082.076, 1666.930
1082.558, 1644.094
1083.040, 1625.029
1083.522, 1632.345
1084.004, 1652.497
1084.486, 1667.932
1084.969, 1678.317
1085.451, 1678.538
1085.933, 1665.561
1086.415, 1653.845
1086.897, 1658.115
1087.379, 1669.201
1087.861, 1668.539
1088.343, 1659.384
1088.826, 1656.897
1089.308, 1677.181
1089.790, 1689.845
1090.272, 1686.567
1090.754, 1676.946
1091.236, 1676.935
1091.718, 1684.066
1092.200, 1685.774
1092.682, 1679.663
1093.165, 1675.876
1093.647, 1687.277
1094.129, 1696.845
1094.611, 1688.827
1095.093, 1667.812
1095.575, 1672.420
1096.057, 1704.141
1096.539, 1723.177
1097.022, 1708.804
1097.504, 1687.220
1097.986, 1684.679
1098.468, 1691.992
1098.950, 1697.343
1099.432, 1701.571
1099.914, 1694.754
1100.396, 1673.567
1100.879, 1652.556
1101.361, 1638.281
1101.843, 1633.312
1102.325, 1649.375
1102.807, 1680.268
1103.289, 1702.532
1103.771, 1697.557
1104.253, 1697.327
1104.735, 1711.764
1105.218, 1727.816
1105.700, 1724.146
1106.182, 1705.356
1106.664, 1695.031
1107.146, 1695.797
1107.628, 1693.905
1108.110, 1671.716
1108.592, 1653.814
1109.074, 1658.897
1109.557, 1679.441
1110.039, 1682.447
1110.521, 1667.606
1111.003, 1662.927
1111.485, 1679.728
1111.967, 1699.592
1112.449, 1703.993
1112.931, 1702.335
1113.414, 1705.742
1113.896, 1717.458
1114.378, 1722.791
1114.860, 1721.460
1115.342, 1714.763
1115.824, 1699.839
1116.306, 1683.032
1116.788, 1671.967
1117.271, 1667.262
1117.753, 1670.228
1118.235, 1691.856
1118.717, 1705.454
1119.199, 1707.992
1119.681, 1705.113
1120.163, 1700.147
1120.645, 1694.585
1121.127, 1694.237
1121.609, 1698.589
1122.092, 1700.710
1122.574, 1695.190
1123.056, 1688.941
1123.538, 1682.211
1124.020, 1677.693
1124.502, 1683.821
1124.984, 1698.689
1125.466, 1704.588
1125.949, 1697.174
1126.431, 1690.223
1126.913, 1696.020
1127.395, 1703.559
1127.877, 1704.168
1128.359, 1698.798
1128.841, 1696.708
1129.323, 1698.283
1129.806, 1694.949
1130.288, 1680.120
1130.770, 1666.648
1131.252, 1670.757
1131.734, 1682.639
1132.216, 1689.075
1132.698, 1686.183
1133.180, 1687.601
1133.662, 1694.934
1134.145, 1699.720
1134.627, 1693.470
1135.109, 1683.427
1135.591, 1681.612
1136.073, 1685.308
1136.555, 1687.681
1137.037, 1686.904
1137.519, 1683.866
1138.001, 1677.109
1138.484, 1671.350
1138.966, 1672.966
1139.448, 1679.042
1139.930, 1682.463
1140.412, 1683.119
1140.894, 1683.681
1141.376, 1688.551
1141.858, 1688.502
1142.341, 1677.522
1142.823, 1664.421
1143.305, 1667.378
1143.787, 1682.867
1144.269, 1695.888
1144.751, 1704.132
1145.233, 1707.581
1145.715, 1701.141
1146.198, 1695.084
1146.680, 1695.429
1147.162, 1700.728
1147.644, 1704.882
1148.126, 1707.813
1148.608, 1708.169
1149.090, 1704.905
1149.572, 1700.671
1150.054, 1697.793
1150.536, 1694.619
1151.019, 1688.052
1151.501, 1677.198
1151.983, 1677.540
1152.465, 1689.572
1152.947, 1700.471
1153.429, 1703.999
1153.911, 1702.543
1154.393, 1692.983
1154.876, 1681.641
1155.358, 1680.624
1155.840, 1694.472
1156.322, 1707.015
1156.804, 1718.902
1157.286, 1724.317
1157.768, 1712.400
1158.250, 1695.641
1158.733, 1690.575
1159.215, 1694.690
1159.697, 1696.418
1160.179, 1690.566
1160.661, 1691.026
1161.143, 1702.233
1161.625, 1711.987
1162.107, 1701.683
1162.589, 1682.445
1163.072, 1671.131
1163.554, 1669.239
1164.036, 1676.947
1164.518, 1705.826
1165.000, 1724.284
1165.482, 1722.583
1165.964, 1710.341
1166.446, 1702.489
1166.928, 1698.239
1167.411, 1696.530
1167.893, 1697.734
1168.375, 1697.140
1168.857, 1692.909
1169.339, 1686.431
1169.821, 1675.778
1170.303, 1665.030
1170.785, 1668.423
1171.268, 1682.072
1171.750, 1694.198
1172.232, 1703.615
1172.714, 1704.221
1173.196, 1680.536
1173.678, 1660.055
1174.160, 1662.972
1174.642, 1684.277
1175.125, 1689.235
1175.607, 1680.720
1176.089, 1674.343
1176.571, 1680.615
1177.053, 1686.448
1177.535, 1686.847
1178.017, 1683.437
1178.499, 1674.507
1178.981, 1660.222
1179.464, 1664.620
1179.946, 1686.565
1180.428, 1704.169
1180.910, 1698.732
1181.392, 1690.670
1181.874, 1691.847
1182.356, 1696.813
1182.838, 1696.624
1183.320, 1691.034
1183.803, 1688.495
1184.285, 1689.793
1184.767, 1689.194
1185.249, 1678.112
1185.731, 1667.693
1186.213, 1666.900
1186.695, 1672.880
1187.177, 1678.231
1187.660, 1683.200
1188.142, 1682.082
1188.624, 1672.915
1189.106, 1666.056
1189.588, 1672.606
1190.070, 1683.630
1190.552, 1692.527
1191.034, 1699.166
1191.516, 1707.600
1191.999, 1719.095
1192.481, 1718.110
1192.963, 1697.524
1193.445, 1675.685
1193.927, 1668.074
1194.409, 1670.408
1194.891, 1682.910
1195.373, 1705.579
1195.855, 1711.102
1196.338, 1697.301
1196.820, 1685.678
1197.302, 1685.666
1197.784, 1689.175
1198.266, 1687.557
1198.748, 1684.135
1199.230, 1683.791
1199.712, 1688.163
1200.195, 1686.828
1200.677, 1678.605
1201.159, 1673.218
1201.641, 1679.130
1202.123, 1686.442
1202.605, 1682.495
1203.087, 1672.619
1203.569, 1664.922
1204.052, 1657.868
1204.534, 1661.690
1205.016, 1678.244
1205.498, 1694.744
1205.980, 1706.347
1206.462, 1710.079
1206.944, 1695.600
1207.426, 1671.785
1207.908, 1659.707
1208.391, 1662.827
1208.873, 1674.009
1209.355, 1695.535
1209.837, 1711.789
1210.319, 1700.817
1210.801, 1683.979
1211.283, 1691.543
1211.765, 1714.788
1212.247, 1718.565
1212.730, 1690.635
1213.212, 1676.216
1213.694, 1681.686
1214.176, 1692.939
1214.658, 1698.933
1215.140, 1701.322
1215.622, 1702.134
1216.104, 1701.152
1216.587, 1695.994
1217.069, 1684.152
1217.551, 1677.277
1218.033, 1677.972
1218.515, 1680.935
1218.997, 1681.592
1219.479, 1680.360
1219.961, 1675.537
1220.443, 1667.993
1220.926, 1669.290
1221.408, 1683.205
1221.890, 1691.613
1222.372, 1689.390
1222.854, 1683.524
1223.336, 1680.129
1223.818, 1679.207
1224.300, 1680.532
1224.782, 1684.338
1225.265, 1693.827
1225.747, 1712.273
1226.229, 1719.190
1226.711, 1704.664
1227.193, 1686.150
1227.675, 1686.460
1228.157, 1693.877
1228.639, 1692.760
1229.122, 1680.019
1229.604, 1679.750
1230.086, 1694.001
1230.568, 1707.265
1231.050, 1714.157
1231.532, 1716.282
1232.014, 1709.620
1232.496, 1702.550
1232.979, 1708.655
1233.461, 1731.644
1233.943, 1737.411
1234.425, 1724.338
1234.907, 1709.576
1235.389, 1699.668
1235.871, 1693.965
1236.353, 1690.064
1236.835, 1690.686
1237.318, 1702.544
1237.800, 1729.049
1238.282, 1737.088
1238.764, 1725.840
1239.246, 1711.724
1239.728, 1702.525
1240.210, 1696.031
1240.692, 1687.807
1241.175, 1683.010
1241.657, 1689.924
1242.139, 1711.652
1242.621, 1724.717
1243.103, 1729.202
1243.585, 1727.939
1244.067, 1715.482
1244.549, 1705.778
1245.031, 1713.993
1245.514, 1727.469
1245.996, 1726.632
1246.478, 1709.305
1246.960, 1707.188
1247.442, 1719.987
1247.924, 1730.974
1248.406, 1724.148
1248.888, 1718.183
1249.370, 1729.280
1249.853, 1743.804
1250.335, 1741.783
1250.817, 1724.010
1251.299, 1714.136
1251.781, 1712.954
1252.263, 1715.579
1252.745, 1721.369
1253.227, 1727.605
1253.710, 1735.246
1254.192, 1740.923
1254.674, 1737.959
1255.156, 1728.211
1255.638, 1726.098
1256.120, 1731.834
1256.602, 1737.161
1257.084, 1742.995
1257.567, 1739.418
1258.049, 1717.083
1258.531, 1692.621
1259.013, 1692.779
1259.495, 1710.448
1259.977, 1720.052
1260.459, 1720.073
1260.941, 1718.023
1261.423, 1712.678
1261.906, 1712.188
1262.388, 1718.709
1262.870, 1729.940
1263.352, 1748.399
1263.834, 1767.176
1264.316, 1765.104
1264.798, 1742.633
1265.280, 1729.207
1265.762, 1740.339
1266.245, 1750.811
1266.727, 1756.599
1267.209, 1759.304
1267.691, 1763.851
1268.173, 1765.447
1268.655, 1752.131
1269.137, 1724.274
1269.619, 1707.029
1270.102, 1704.862
1270.584, 1707.250
1271.066, 1712.345
1271.548, 1720.284
1272.030, 1736.646
1272.512, 1752.130
1272.994, 1751.274
1273.476, 1734.891
1273.958, 1734.095
1274.441, 1754.676
1274.923, 1765.720
1275.405, 1759.651
1275.887, 1745.766
1276.369, 1720.496
1276.851, 1702.385
1277.333, 1717.989
1277.815, 1760.230
1278.297, 1780.938
1278.780, 1779.052
1279.262, 1775.257
1279.744, 1774.512
1280.226, 1770.566
1280.708, 1750.188
1281.190, 1732.414
1281.672, 1734.738
1282.154, 1750.129
1282.637, 1751.654
1283.119, 1741.324
1283.601, 1739.555
1284.083, 1752.067
1284.565, 1762.902
1285.047, 1762.960
1285.529, 1757.583
1286.011, 1747.803
1286.494, 1736.410
1286.976, 1731.159
1287.458, 1731.328
1287.940, 1735.483
1288.422, 1743.894
1288.904, 1751.436
1289.386, 1755.072
1289.868, 1759.310
1290.350, 1766.539
1290.833, 1773.771
1291.315, 1773.495
1291.797, 1769.171
1292.279, 1767.700
1292.761, 1770.640
1293.243, 1774.292
1293.725, 1781.247
1294.207, 1779.792
1294.689, 1762.755
1295.172, 1743.437
1295.654, 1743.977
1296.136, 1752.672
1296.618, 1752.539
1297.100, 1740.108
1297.582, 1738.449
1298.064, 1749.554
1298.546, 1758.266
1299.029, 1758.895
1299.511, 1758.674
1299.993, 1769.213
1300.475, 1779.605
1300.957, 1776.360
1301.439, 1762.003
1301.921, 1751.614
1302.403, 1745.342
1302.885, 1749.596
1303.368, 1769.259
1303.850, 1785.978
1304.332, 1785.461
1304.814, 1778.506
1305.296, 1770.673
1305.778, 1763.203
1306.260, 1760.428
##END=



