##NAMES=Fluor-liddicoatite
##RRUFFID=R060635
##IDEAL CHEMISTRY=Ca(Li_2_Al)Al_6_(Si_6_O_18_)(BO_3_)_3_(OH)_3_F
##LOCALITY=unknown
##OWNER=RRUFF
##SOURCE=Gemological Institute of America
##DESCRIPTION=Rootbeer brown cut gemstone
##STATUS=The identification of this mineral has been confirmed by X-ray diffraction and chemical analysis
##URL=rruff.info/R060635
##MEASURED CHEMISTRY=(Li_1.84_Al_1.05_Mn_0.11_)_Σ=3_(Ca_0.82_Na_0.15_[box]_0.03_)_Σ=1_Al_6.00_(BO_3_)_3_[Si_6.00_O_18_]((OH)_3.16_F_0.84_)_Σ=4_
92.10938, 3.903059
92.59149, 3.875224
93.07361, 3.917660
93.55573, 4.020482
94.03784, 4.055301
94.51996, 3.820603
95.00208, 3.403387
95.48419, 3.108508
95.96631, 3.057538
96.44843, 3.188775
96.93054, 3.355375
97.41266, 3.565930
97.89478, 3.757529
98.37689, 3.836046
98.85901, 3.798806
99.34113, 3.759472
99.82324, 3.760555
100.3054, 3.802005
100.7875, 3.858320
101.2696, 3.942165
101.7517, 4.024483
102.2338, 4.055085
102.7159, 4.031401
103.1981, 3.961829
103.6802, 3.816773
104.1623, 3.520656
104.6444, 3.403188
105.1265, 3.548388
105.6086, 3.874333
106.0908, 4.072167
106.5729, 4.075346
107.0550, 4.025965
107.5371, 4.000976
108.0192, 3.989172
108.5013, 4.016357
108.9835, 4.047668
109.4656, 4.088049
109.9477, 4.296575
110.4298, 4.898355
110.9119, 5.544636
111.3940, 6.010051
111.8762, 6.150843
112.3583, 6.244425
112.8404, 6.275291
113.3225, 6.222504
113.8046, 6.349141
114.2867, 6.789202
114.7689, 7.399376
115.2510, 8.017768
115.7331, 8.635692
116.2152, 9.238408
116.6973, 9.818213
117.1794, 10.37650
117.6616, 10.90327
118.1437, 11.36485
118.6258, 11.79907
119.1079, 12.25263
119.5900, 12.67572
120.0721, 13.17226
120.5543, 13.82839
121.0364, 14.70146
121.5185, 15.62201
122.0006, 16.44323
122.4827, 17.22250
122.9648, 18.13703
123.4470, 19.46262
123.9291, 20.90659
124.4112, 22.08756
124.8933, 22.73511
125.3754, 23.37123
125.8575, 24.45636
126.3397, 25.97692
126.8218, 27.85788
127.3039, 30.31086
127.7860, 33.06404
128.2681, 35.52936
128.7502, 37.41988
129.2324, 39.03071
129.7145, 40.85640
130.1966, 42.90531
130.6787, 44.93728
131.1608, 46.69040
131.6429, 48.20188
132.1251, 49.74336
132.6072, 51.49391
133.0893, 53.33114
133.5714, 54.83368
134.0535, 55.94921
134.5356, 56.97026
135.0178, 58.30293
135.4999, 59.94963
135.9820, 61.53608
136.4641, 62.81493
136.9462, 63.81096
137.4283, 65.28083
137.9105, 67.38990
138.3926, 69.70426
138.8747, 71.35271
139.3568, 72.14482
139.8389, 73.12228
140.3210, 74.74422
140.8032, 77.10212
141.2853, 79.70109
141.7674, 82.61314
142.2495, 85.70429
142.7316, 88.46791
143.2137, 90.41753
143.6959, 91.94419
144.1780, 93.77364
144.6601, 96.10965
145.1422, 98.29887
145.6243, 100.3169
146.1064, 102.1878
146.5886, 104.0894
147.0707, 106.1884
147.5528, 108.1328
148.0349, 109.7076
148.5170, 110.9224
148.9991, 111.8030
149.4813, 112.3384
149.9634, 112.5420
150.4455, 112.4644
150.9276, 112.2611
151.4097, 111.6774
151.8918, 110.5754
152.3740, 107.9785
152.8561, 105.9395
153.3382, 105.0409
153.8203, 105.2428
154.3024, 104.6854
154.7845, 102.7910
155.2667, 100.3496
155.7488, 97.91942
156.2309, 95.89307
156.7130, 93.61823
157.1951, 90.78625
157.6772, 87.37003
158.1594, 84.23062
158.6415, 81.50077
159.1236, 79.16515
159.6057, 77.20072
160.0878, 75.91901
160.5699, 74.74856
161.0521, 73.53870
161.5342, 72.29922
162.0163, 70.88186
162.4984, 69.04137
162.9805, 67.04344
163.4626, 65.22415
163.9448, 63.71000
164.4269, 62.39677
164.9090, 61.18356
165.3911, 60.03125
165.8732, 59.14074
166.3553, 58.81553
166.8375, 58.79602
167.3196, 58.65353
167.8017, 57.96119
168.2838, 57.22350
168.7659, 56.78032
169.2480, 56.67502
169.7302, 56.84608
170.2123, 57.48450
170.6944, 58.38715
171.1765, 59.08760
171.6586, 59.19637
172.1407, 59.06458
172.6229, 59.02479
173.1050, 59.12166
173.5871, 59.32371
174.0692, 59.68534
174.5513, 60.14786
175.0334, 60.53260
175.5156, 60.57798
175.9977, 60.52715
176.4798, 60.79102
176.9619, 61.58747
177.4440, 62.38129
177.9261, 62.44280
178.4083, 61.91975
178.8904, 61.44312
179.3725, 61.50276
179.8546, 61.89245
180.3367, 62.25467
180.8188, 62.58541
181.3010, 62.76135
181.7831, 62.53396
182.2652, 61.94246
182.7473, 61.27406
183.2294, 60.67275
183.7115, 60.15124
184.1937, 59.77225
184.6758, 59.56532
185.1579, 59.47742
185.6400, 59.40742
186.1221, 59.35724
186.6042, 59.36806
187.0864, 59.46124
187.5685, 59.64012
188.0506, 59.91054
188.5327, 60.26477
189.0148, 60.72067
189.4969, 61.27758
189.9791, 61.92567
190.4612, 62.85012
190.9433, 64.37664
191.4254, 66.41683
191.9075, 68.31531
192.3896, 69.82579
192.8718, 71.13117
193.3539, 72.87644
193.8360, 75.12950
194.3181, 77.41539
194.8002, 79.31664
195.2823, 80.85505
195.7645, 82.21880
196.2466, 83.31164
196.7287, 84.28933
197.2108, 85.88461
197.6929, 88.19704
198.1750, 90.65972
198.6572, 92.78334
199.1393, 94.55273
199.6214, 96.10915
200.1035, 97.39220
200.5856, 98.47259
201.0677, 99.76528
201.5499, 101.3312
202.0320, 102.9305
202.5141, 104.3333
202.9962, 105.5274
203.4783, 106.6372
203.9604, 107.7129
204.4426, 108.7397
204.9247, 109.5733
205.4068, 110.1895
205.8889, 110.6627
206.3710, 111.0382
206.8531, 111.2995
207.3353, 111.5454
207.8174, 111.7323
208.2995, 111.8872
208.7816, 112.4306
209.2637, 113.4813
209.7458, 114.6753
210.2280, 115.5955
210.7101, 116.1287
211.1922, 116.8060
211.6743, 117.7896
212.1564, 119.0579
212.6385, 120.2797
213.1207, 121.4892
213.6028, 122.5752
214.0849, 123.2232
214.5670, 123.0067
215.0491, 123.6713
215.5313, 125.8635
216.0134, 129.5799
216.4955, 132.6593
216.9776, 134.8372
217.4597, 136.7791
217.9418, 139.1141
218.4239, 141.6821
218.9061, 145.0231
219.3882, 149.5038
219.8703, 155.0953
220.3524, 160.2275
220.8345, 164.7005
221.3166, 168.8900
221.7988, 173.2338
222.2809, 177.7894
222.7630, 182.2776
223.2451, 186.5846
223.7272, 190.7454
224.2093, 194.9649
224.6915, 199.6640
225.1736, 204.0198
225.6557, 206.9734
226.1378, 207.8051
226.6199, 208.9010
227.1020, 210.8492
227.5842, 213.6729
228.0663, 215.9771
228.5484, 217.5995
229.0305, 218.9076
229.5126, 220.2466
229.9947, 221.6710
230.4769, 223.0090
230.9590, 224.2576
231.4411, 225.4098
231.9232, 226.3453
232.4053, 226.7706
232.8874, 227.3039
233.3696, 228.5078
233.8517, 230.5951
234.3338, 232.9736
234.8159, 235.7995
235.2980, 239.0714
235.7801, 241.3625
236.2623, 242.3321
236.7444, 242.6982
237.2265, 243.0377
237.7086, 243.4229
238.1907, 243.6891
238.6728, 244.1273
239.1550, 244.6460
239.6371, 243.6114
240.1192, 240.7440
240.6013, 236.6443
241.0834, 231.6758
241.5655, 225.4289
242.0477, 219.2364
242.5298, 213.3600
243.0119, 207.7354
243.4940, 201.6925
243.9761, 195.0380
244.4582, 188.1906
244.9404, 181.4296
245.4225, 174.7096
245.9046, 168.1309
246.3867, 161.6127
246.8688, 155.1926
247.3509, 149.1130
247.8331, 143.3345
248.3152, 137.9490
248.7973, 133.0566
249.2794, 128.8504
249.7615, 124.6764
250.2436, 120.3846
250.7258, 116.0702
251.2079, 112.2943
251.6900, 109.2253
252.1721, 106.4556
252.6542, 103.7460
253.1363, 101.0878
253.6185, 98.55126
254.1006, 96.09426
254.5827, 93.77821
255.0648, 91.91239
255.5469, 90.75737
256.0291, 89.66564
256.5112, 88.24824
256.9933, 86.20861
257.4754, 84.60148
257.9575, 83.58885
258.4396, 82.98702
258.9218, 82.34745
259.4039, 81.74941
259.8860, 80.95972
260.3681, 79.75324
260.8502, 77.78024
261.3323, 76.43963
261.8145, 75.94245
262.2966, 75.96812
262.7787, 75.79488
263.2608, 75.27258
263.7429, 74.86629
264.2250, 74.81740
264.7072, 75.25632
265.1893, 75.51259
265.6714, 75.54224
266.1535, 75.41990
266.6356, 75.25144
267.1177, 74.98613
267.5999, 74.80444
268.0820, 74.80405
268.5641, 75.02106
269.0462, 75.14455
269.5283, 75.14957
270.0104, 75.09645
270.4926, 75.04915
270.9747, 74.97867
271.4568, 75.02930
271.9389, 75.30630
272.4210, 75.82491
272.9031, 76.11393
273.3853, 76.08181
273.8674, 75.98745
274.3495, 76.14477
274.8316, 76.57307
275.3137, 77.15080
275.7958, 77.88826
276.2780, 78.76817
276.7601, 79.61292
277.2422, 80.42736
277.7243, 81.19029
278.2064, 81.84472
278.6885, 82.36906
279.1707, 82.96530
279.6528, 83.68105
280.1349, 84.50640
280.6170, 85.45319
281.0991, 86.57851
281.5812, 87.60303
282.0634, 88.28651
282.5455, 88.63841
283.0276, 88.67435
283.5097, 88.22156
283.9918, 87.55929
284.4739, 87.76070
284.9561, 88.95696
285.4382, 90.05186
285.9203, 90.12255
286.4024, 89.22469
286.8845, 88.30127
287.3666, 87.50960
287.8488, 86.74228
288.3309, 85.73132
288.8130, 84.46973
289.2951, 83.21633
289.7772, 82.05802
290.2593, 81.02927
290.7415, 80.32982
291.2236, 80.06563
291.7057, 79.94802
292.1878, 79.48409
292.6699, 78.70149
293.1520, 77.92993
293.6342, 77.42147
294.1163, 77.07994
294.5984, 76.58021
295.0805, 75.87671
295.5626, 75.12461
296.0447, 74.47440
296.5269, 73.92520
297.0090, 73.47083
297.4911, 73.06074
297.9732, 72.75153
298.4553, 72.69858
298.9374, 72.91113
299.4196, 73.27670
299.9017, 73.70289
300.3838, 74.19053
300.8659, 74.74306
301.3480, 75.39185
301.8301, 76.08613
302.3123, 76.71662
302.7944, 77.29308
303.2765, 77.94019
303.7586, 78.99699
304.2407, 80.17156
304.7228, 80.92609
305.2050, 80.80558
305.6871, 80.47522
306.1692, 80.61832
306.6513, 81.19540
307.1334, 81.97644
307.6155, 82.88442
308.0977, 83.88892
308.5798, 84.99617
309.0619, 86.37013
309.5440, 87.57925
310.0261, 88.04184
310.5082, 88.00468
310.9904, 88.21690
311.4725, 89.18834
311.9546, 90.53669
312.4367, 91.96852
312.9188, 93.47740
313.4009, 94.92067
313.8831, 96.17962
314.3652, 97.29562
314.8473, 98.36839
315.3294, 99.53083
315.8115, 100.6091
316.2936, 101.4772
316.7758, 102.1022
317.2579, 102.6661
317.7400, 103.1284
318.2221, 103.6139
318.7042, 104.2890
319.1863, 105.7037
319.6685, 106.8746
320.1506, 107.3250
320.6327, 107.0279
321.1148, 106.6142
321.5969, 106.0845
322.0790, 105.6116
322.5612, 105.3283
323.0433, 105.3949
323.5254, 105.5192
324.0075, 105.6934
324.4896, 105.8971
324.9717, 105.9868
325.4539, 105.8640
325.9360, 105.6728
326.4181, 105.4980
326.9002, 105.5184
327.3823, 105.3372
327.8644, 104.8337
328.3466, 104.0981
328.8287, 103.4056
329.3108, 102.7674
329.7929, 102.1638
330.2750, 101.6195
330.7571, 101.2254
331.2393, 100.6633
331.7214, 99.80037
332.2035, 98.81442
332.6856, 97.99362
333.1677, 97.30299
333.6498, 96.82211
334.1320, 96.65100
334.6141, 96.86259
335.0962, 96.79245
335.5783, 96.21107
336.0604, 95.58679
336.5425, 95.44964
337.0247, 96.02792
337.5068, 96.52101
337.9889, 96.77038
338.4710, 96.80032
338.9531, 96.83035
339.4352, 96.87399
339.9173, 96.89001
340.3994, 96.79379
340.8816, 96.53426
341.3637, 96.48473
341.8458, 96.69017
342.3279, 97.13169
342.8100, 97.86130
343.2921, 98.92471
343.7743, 99.93154
344.2564, 100.5003
344.7385, 100.6767
345.2206, 101.3522
345.7027, 102.7018
346.1848, 104.2519
346.6670, 105.3004
347.1491, 105.8660
347.6312, 106.2365
348.1133, 106.5463
348.5954, 106.7614
349.0775, 106.6860
349.5597, 106.2874
350.0418, 105.9260
350.5239, 105.9867
351.0060, 106.3907
351.4881, 106.9197
351.9702, 107.6577
352.4524, 108.3546
352.9345, 108.5227
353.4166, 108.2129
353.8987, 107.8789
354.3808, 107.8318
354.8629, 107.9819
355.3451, 108.1560
355.8272, 108.2069
356.3093, 108.5096
356.7914, 109.4670
357.2735, 110.9616
357.7556, 112.6563
358.2378, 114.2099
358.7199, 115.9622
359.2020, 118.2533
359.6841, 121.1818
360.1662, 124.2881
360.6483, 127.2334
361.1305, 130.2125
361.6126, 133.4998
362.0947, 137.2228
362.5768, 141.2523
363.0589, 145.5365
363.5410, 150.0759
364.0232, 154.9859
364.5053, 160.6020
364.9874, 166.4458
365.4695, 172.1459
365.9516, 176.8131
366.4337, 182.2340
366.9159, 188.7979
367.3980, 196.4181
367.8801, 204.7785
368.3622, 213.6983
368.8443, 223.3673
369.3264, 233.8995
369.8086, 245.7577
370.2907, 257.7330
370.7728, 269.4922
371.2549, 281.4392
371.7370, 294.2076
372.2191, 308.5147
372.7013, 322.7232
373.1834, 336.4413
373.6655, 349.7986
374.1476, 362.1465
374.6297, 373.2552
375.1118, 383.3038
375.5940, 392.6805
376.0761, 401.9434
376.5582, 408.4794
377.0403, 411.6996
377.5224, 411.8753
378.0045, 410.1580
378.4867, 406.5112
378.9688, 401.2783
379.4509, 394.5176
379.9330, 386.2779
380.4151, 377.0600
380.8972, 367.0382
381.3794, 355.9315
381.8615, 343.0284
382.3436, 328.2088
382.8257, 313.6572
383.3078, 299.9557
383.7899, 287.1446
384.2721, 274.8366
384.7542, 263.0724
385.2363, 252.0688
385.7184, 242.0437
386.2005, 232.9700
386.6826, 224.1782
387.1648, 215.4674
387.6469, 207.1121
388.1290, 199.2200
388.6111, 191.8692
389.0932, 185.3109
389.5753, 179.7587
390.0575, 175.0205
390.5396, 170.8366
391.0217, 167.2159
391.5038, 163.8507
391.9859, 160.3445
392.4680, 156.9582
392.9502, 154.1186
393.4323, 152.2137
393.9144, 150.7795
394.3965, 149.5985
394.8786, 148.6463
395.3607, 147.9362
395.8429, 147.5154
396.3250, 147.3102
396.8071, 147.2519
397.2892, 147.4512
397.7713, 147.6605
398.2534, 147.5474
398.7356, 147.2959
399.2177, 147.8088
399.6998, 149.6164
400.1819, 151.8533
400.6640, 154.1844
401.1461, 156.7186
401.6283, 159.1216
402.1104, 161.4337
402.5925, 163.5910
403.0746, 165.4430
403.5567, 166.4778
404.0388, 168.1572
404.5210, 171.0955
405.0031, 175.2942
405.4852, 178.8524
405.9673, 181.7574
406.4494, 184.0601
406.9315, 185.7435
407.4137, 186.7731
407.8958, 187.5595
408.3779, 188.2118
408.8600, 188.6083
409.3421, 188.4849
409.8242, 187.8447
410.3064, 186.6252
410.7885, 184.8904
411.2706, 182.5588
411.7527, 179.1480
412.2348, 174.5212
412.7169, 169.4096
413.1991, 164.7483
413.6812, 160.3349
414.1633, 155.6401
414.6454, 150.2934
415.1275, 144.7036
415.6096, 139.3647
416.0918, 134.3103
416.5739, 129.4418
417.0560, 124.6711
417.5381, 120.0662
418.0202, 115.6971
418.5023, 111.6320
418.9845, 107.6915
419.4666, 103.6501
419.9487, 99.68274
420.4308, 96.21436
420.9129, 93.63883
421.3951, 91.37151
421.8772, 89.10497
422.3593, 86.85242
422.8414, 84.68776
423.3235, 82.69926
423.8056, 80.78790
424.2878, 78.89647
424.7699, 76.71353
425.2520, 74.90076
425.7341, 73.76897
426.2162, 73.13051
426.6983, 72.22866
427.1805, 70.64505
427.6626, 69.29457
428.1447, 68.62218
428.6268, 68.95875
429.1089, 68.74851
429.5910, 67.77651
430.0732, 66.47763
430.5553, 65.38512
431.0374, 64.56615
431.5195, 63.66358
432.0016, 62.47278
432.4837, 61.14250
432.9659, 60.45343
433.4480, 60.49487
433.9301, 60.61532
434.4122, 60.34813
434.8943, 59.73739
435.3764, 59.05605
435.8586, 58.28859
436.3407, 57.59298
436.8228, 57.26601
437.3049, 57.22954
437.7870, 57.15480
438.2691, 56.83789
438.7513, 56.42098
439.2334, 56.09637
439.7155, 55.86232
440.1976, 55.67492
440.6797, 55.50988
441.1618, 55.37099
441.6440, 55.27509
442.1261, 55.27903
442.6082, 55.22935
443.0903, 54.98727
443.5724, 54.62627
444.0545, 54.30507
444.5367, 54.05687
445.0188, 53.88355
445.5009, 53.81372
445.9830, 53.86753
446.4651, 53.86826
446.9472, 53.72877
447.4294, 53.54914
447.9115, 53.41409
448.3936, 53.13305
448.8757, 53.14889
449.3578, 53.74879
449.8399, 54.67784
450.3221, 55.04307
450.8042, 54.41341
451.2863, 53.91407
451.7684, 54.10543
452.2505, 55.17466
452.7326, 55.69519
453.2148, 55.49739
453.6969, 55.05435
454.1790, 54.92717
454.6611, 55.12838
455.1432, 55.37449
455.6253, 55.58129
456.1075, 55.80383
456.5896, 56.27631
457.0717, 56.99300
457.5538, 57.55298
458.0359, 57.52433
458.5180, 57.16228
459.0002, 57.07066
459.4823, 57.32048
459.9644, 57.70459
460.4465, 57.96854
460.9286, 58.22314
461.4107, 58.68023
461.8929, 59.74370
462.3750, 60.76207
462.8571, 61.14726
463.3392, 61.02378
463.8213, 60.94994
464.3034, 61.40834
464.7856, 61.86302
465.2677, 61.87535
465.7498, 61.12859
466.2319, 60.65232
466.7140, 60.89002
467.1961, 61.47376
467.6783, 61.93567
468.1604, 62.04488
468.6425, 62.22211
469.1246, 62.62671
469.6067, 63.21972
470.0888, 63.55255
470.5710, 63.66892
471.0531, 63.46446
471.5352, 62.74594
472.0173, 61.18306
472.4994, 60.34800
472.9815, 60.46880
473.4637, 61.03383
473.9458, 61.34080
474.4279, 61.39818
474.9100, 61.09084
475.3921, 60.22153
475.8742, 59.03086
476.3564, 58.20224
476.8385, 57.73504
477.3206, 57.56976
477.8027, 57.85515
478.2848, 58.38337
478.7669, 58.70054
479.2491, 58.71578
479.7312, 58.64859
480.2133, 58.69084
480.6954, 58.80103
481.1775, 58.90274
481.6596, 58.87770
482.1418, 58.90311
482.6239, 59.07154
483.1060, 59.38403
483.5881, 59.82759
484.0702, 60.70614
484.5523, 61.49900
485.0345, 61.82573
485.5166, 61.30085
485.9987, 61.05184
486.4808, 61.52018
486.9629, 62.25425
487.4450, 62.62593
487.9272, 62.25185
488.4093, 62.05768
488.8914, 62.22807
489.3735, 62.73526
489.8556, 63.30925
490.3377, 63.99291
490.8199, 64.66729
491.3020, 65.25877
491.7841, 65.76814
492.2662, 66.21725
492.7483, 66.58261
493.2304, 66.94500
493.7126, 67.45200
494.1947, 68.07755
494.6768, 68.57992
495.1589, 68.81746
495.6410, 68.93961
496.1231, 69.18201
496.6053, 69.54066
497.0874, 69.96572
497.5695, 70.42122
498.0516, 70.93253
498.5337, 71.58401
499.0158, 72.41445
499.4980, 73.15836
499.9801, 73.68543
500.4622, 74.02785
500.9443, 74.23366
501.4264, 74.10259
501.9085, 74.05767
502.3907, 74.24541
502.8728, 74.62918
503.3549, 75.04933
503.8370, 75.51946
504.3191, 75.99865
504.8012, 76.49905
505.2834, 77.06402
505.7655, 77.44389
506.2476, 77.51933
506.7297, 77.54383
507.2118, 77.76699
507.6939, 78.22007
508.1761, 78.74801
508.6582, 79.34962
509.1403, 79.99117
509.6224, 80.67666
510.1045, 81.41380
510.5866, 81.87903
511.0688, 81.76299
511.5509, 81.25285
512.0330, 80.84579
512.5151, 80.54015
512.9973, 80.43801
513.4794, 80.87621
513.9615, 81.50725
514.4436, 81.76975
514.9257, 81.47673
515.4078, 80.93282
515.8900, 80.28085
516.3721, 79.54354
516.8542, 78.76315
517.3363, 78.07040
517.8184, 77.22518
518.3005, 76.00948
518.7827, 74.43385
519.2648, 73.06468
519.7469, 72.25993
520.2290, 71.48744
520.7111, 70.41344
521.1932, 68.68777
521.6754, 67.42831
522.1575, 66.83910
522.6396, 66.53722
523.1217, 65.95634
523.6038, 65.00299
524.0859, 64.11018
524.5681, 63.38440
525.0502, 62.80125
525.5323, 62.24942
526.0144, 61.72230
526.4965, 61.31514
526.9786, 61.18209
527.4608, 61.21155
527.9429, 61.08572
528.4250, 60.78395
528.9071, 60.34800
529.3892, 59.58001
529.8713, 58.75343
530.3535, 58.36472
530.8356, 58.84119
531.3177, 59.37273
531.7998, 59.33897
532.2819, 58.95080
532.7640, 58.71577
533.2462, 58.96563
533.7283, 59.25965
534.2104, 59.47644
534.6925, 59.61898
535.1746, 59.49997
535.6567, 58.74828
536.1389, 58.01074
536.6210, 57.69260
537.1031, 57.96322
537.5852, 58.28944
538.0673, 58.77366
538.5494, 59.20027
539.0316, 59.11720
539.5137, 58.42295
539.9958, 57.91682
540.4779, 57.87685
540.9600, 58.16841
541.4421, 58.45429
541.9243, 58.72918
542.4064, 58.88218
542.8885, 58.74129
543.3706, 58.44950
543.8527, 58.29623
544.3348, 58.31851
544.8170, 58.31042
545.2991, 57.93938
545.7812, 57.50337
546.2633, 57.39616
546.7454, 58.11835
547.2275, 58.67452
547.7097, 58.48374
548.1918, 57.82450
548.6739, 57.35010
549.1560, 57.32881
549.6381, 57.37241
550.1202, 57.35085
550.6024, 57.25755
551.0845, 57.28480
551.5666, 57.53220
552.0487, 57.76712
552.5308, 57.83077
553.0129, 57.69588
553.4951, 57.53862
553.9772, 57.36296
554.4593, 57.17187
554.9414, 57.00373
555.4235, 56.84718
555.9056, 56.55847
556.3878, 56.05960
556.8699, 55.45106
557.3520, 54.85798
557.8341, 54.29346
558.3162, 53.82695
558.7983, 53.53326
559.2805, 53.33570
559.7626, 53.22198
560.2447, 53.19362
560.7268, 53.02504
561.2089, 52.42743
561.6910, 51.75195
562.1732, 51.28764
562.6553, 51.30401
563.1374, 51.19989
563.6195, 50.76389
564.1016, 50.20787
564.5837, 49.85757
565.0659, 49.86351
565.5480, 49.79130
566.0301, 49.53585
566.5122, 49.13124
566.9943, 48.71563
567.4764, 48.26631
567.9586, 47.93126
568.4407, 47.86226
568.9228, 48.00588
569.4049, 48.03941
569.8870, 47.94605
570.3691, 47.86213
570.8513, 47.90636
571.3334, 48.05812
571.8155, 48.30169
572.2976, 48.70361
572.7797, 49.03287
573.2618, 49.06231
573.7440, 48.90738
574.2261, 48.77680
574.7082, 48.77794
575.1903, 48.78835
575.6724, 48.72327
576.1545, 48.60204
576.6367, 48.60647
577.1188, 48.93531
577.6009, 49.20824
578.0830, 49.26468
578.5651, 49.06002
579.0472, 48.85195
579.5294, 48.59250
580.0115, 48.41257
580.4936, 48.49395
580.9757, 48.84502
581.4578, 49.05673
581.9399, 49.03067
582.4221, 48.93836
582.9042, 49.10984
583.3863, 49.46649
583.8684, 49.69732
584.3505, 49.60778
584.8326, 49.37362
585.3148, 49.13163
585.7969, 48.89235
586.2789, 48.71602
586.7610, 48.55639
587.2432, 48.52711
587.7253, 48.80736
588.2074, 49.50910
588.6895, 49.89626
589.1716, 49.58000
589.6537, 49.05150
590.1359, 48.67743
590.6180, 48.48999
591.1001, 48.39656
591.5822, 48.40133
592.0643, 48.49246
592.5464, 48.73816
593.0286, 49.19966
593.5107, 49.32381
593.9928, 48.81877
594.4749, 47.98287
594.9570, 47.61731
595.4391, 47.68495
595.9213, 47.77461
596.4034, 47.60108
596.8855, 47.32204
597.3676, 47.16777
597.8497, 47.14693
598.3318, 47.10474
598.8140, 46.84413
599.2961, 46.57725
599.7782, 46.50749
600.2603, 46.79685
600.7424, 47.00379
601.2245, 46.96493
601.7067, 46.81490
602.1888, 46.73838
602.6709, 46.84713
603.1530, 46.83074
603.6351, 46.57624
604.1172, 46.19633
604.5994, 46.06684
605.0815, 46.24292
605.5636, 46.36798
606.0457, 46.26860
606.5278, 46.00051
607.0099, 45.76302
607.4921, 45.56059
607.9742, 45.38298
608.4563, 45.24574
608.9384, 45.12408
609.4205, 44.95399
609.9026, 44.70867
610.3848, 44.56182
610.8669, 44.85717
611.3490, 45.20160
611.8311, 45.16702
612.3132, 43.98195
612.7953, 43.29897
613.2775, 43.88131
613.7596, 45.08471
614.2417, 45.67510
614.7238, 45.15935
615.2059, 44.88021
615.6880, 45.22398
616.1702, 46.02475
616.6523, 46.41572
617.1344, 46.32236
617.6165, 46.30066
618.0986, 46.69009
618.5807, 47.40886
619.0629, 48.18790
619.5450, 49.02626
620.0271, 49.82550
620.5092, 50.44156
620.9913, 50.99542
621.4734, 51.63198
621.9556, 52.37673
622.4377, 53.21935
622.9198, 54.11705
623.4019, 55.13045
623.8840, 56.32460
624.3661, 57.75019
624.8483, 59.33257
625.3304, 61.17527
625.8125, 63.14709
626.2946, 64.95987
626.7767, 66.52652
627.2589, 68.09468
627.7410, 69.74770
628.2231, 71.45778
628.7052, 73.02939
629.1873, 74.44674
629.6694, 75.97196
630.1516, 77.83214
630.6337, 79.90899
631.1158, 82.05314
631.5979, 84.24018
632.0800, 86.24058
632.5621, 87.80212
633.0443, 89.11559
633.5264, 90.45030
634.0085, 92.04481
634.4906, 93.15301
634.9727, 93.29129
635.4548, 92.88544
635.9370, 92.42986
636.4191, 92.23646
636.9012, 91.62533
637.3833, 90.52932
637.8654, 88.98540
638.3475, 87.04220
638.8297, 84.63249
639.3118, 82.16652
639.7939, 79.72239
640.2760, 77.33984
640.7581, 75.26769
641.2402, 73.46215
641.7224, 71.65248
642.2045, 69.49901
642.6866, 67.26867
643.1687, 65.36466
643.6508, 63.78873
644.1329, 62.35533
644.6151, 61.06340
645.0972, 59.77804
645.5793, 58.36169
646.0614, 56.63593
646.5435, 55.18533
647.0256, 54.24442
647.5078, 53.51799
647.9899, 52.72540
648.4720, 51.74113
648.9541, 51.01029
649.4362, 50.63245
649.9183, 50.45259
650.4005, 50.15503
650.8826, 49.74416
651.3647, 49.41235
651.8468, 49.25984
652.3289, 49.18023
652.8110, 48.95456
653.2932, 48.62420
653.7753, 48.37543
654.2574, 48.36804
654.7395, 48.43178
655.2216, 48.49452
655.7037, 48.54160
656.1859, 48.44018
656.6680, 48.01531
657.1501, 47.53660
657.6322, 47.13625
658.1143, 46.80204
658.5964, 46.61936
659.0786, 46.68892
659.5607, 46.76146
660.0428, 46.57589
660.5249, 46.11119
661.0070, 45.79763
661.4891, 45.68541
661.9713, 45.70531
662.4534, 45.80115
662.9355, 45.95990
663.4176, 46.17076
663.8997, 46.53599
664.3818, 46.76265
664.8640, 46.35714
665.3461, 45.65886
665.8282, 45.32748
666.3103, 46.07943
666.7924, 46.72533
667.2745, 46.69500
667.7567, 46.14740
668.2388, 46.06855
668.7209, 46.76763
669.2030, 47.44581
669.6851, 47.82233
670.1672, 47.91878
670.6494, 48.02903
671.1315, 48.15824
671.6136, 48.26696
672.0957, 48.28708
672.5778, 48.26732
673.0599, 48.38527
673.5421, 48.65556
674.0242, 48.86615
674.5063, 48.89866
674.9884, 48.75562
675.4705, 48.40604
675.9526, 47.75022
676.4348, 47.14595
676.9169, 46.90681
677.3990, 46.69769
677.8811, 46.12395
678.3632, 44.86092
678.8453, 43.81641
679.3275, 43.10305
679.8096, 42.60748
680.2917, 42.13596
680.7738, 41.69480
681.2559, 41.30224
681.7380, 40.95250
682.2202, 40.67618
682.7023, 40.61182
683.1844, 40.69953
683.6665, 40.70221
684.1486, 40.30559
684.6307, 39.92545
685.1129, 39.92805
685.5950, 40.26404
686.0771, 40.61210
686.5592, 40.80874
687.0413, 41.03770
687.5234, 41.38500
688.0056, 41.85351
688.4877, 42.37774
688.9698, 42.98430
689.4519, 43.59605
689.9340, 44.12782
690.4161, 44.57466
690.8983, 45.22488
691.3804, 46.10035
691.8625, 47.11391
692.3446, 48.11205
692.8267, 49.18602
693.3088, 50.59731
693.7910, 52.47315
694.2731, 54.30371
694.7552, 55.60530
695.2373, 56.71486
695.7194, 58.02179
696.2015, 59.59782
696.6837, 61.41001
697.1658, 63.40302
697.6479, 65.65060
698.1300, 68.35049
698.6121, 71.73660
699.0942, 74.88127
699.5764, 77.53276
700.0585, 79.90842
700.5406, 82.51504
701.0227, 85.35327
701.5048, 88.45005
701.9869, 92.07685
702.4691, 95.76059
702.9512, 98.67118
703.4333, 101.0451
703.9154, 103.7161
704.3975, 107.0965
704.8796, 110.9159
705.3618, 115.2095
705.8439, 119.9624
706.3260, 124.4445
706.8081, 128.3647
707.2902, 132.3324
707.7723, 136.5471
708.2545, 141.0571
708.7366, 145.5661
709.2187, 150.1244
709.7008, 154.4640
710.1829, 158.3601
710.6650, 161.8300
711.1472, 164.9611
711.6293, 167.7614
712.1114, 169.8905
712.5935, 171.0465
713.0756, 171.4202
713.5577, 171.3338
714.0399, 171.2219
714.5220, 169.6719
715.0041, 165.5626
715.4862, 160.1752
715.9683, 154.8330
716.4504, 149.6782
716.9326, 144.4014
717.4147, 139.0848
717.8968, 133.5633
718.3789, 127.5191
718.8610, 120.9413
719.3431, 114.6819
719.8253, 108.8953
720.3074, 103.6369
720.7895, 98.98438
721.2716, 94.89037
721.7537, 91.12466
722.2358, 87.61012
722.7180, 84.41505
723.2001, 81.62852
723.6822, 79.21880
724.1643, 77.22457
724.6464, 75.83477
725.1285, 74.63132
725.6107, 73.55592
726.0928, 72.60791
726.5749, 71.69487
727.0570, 70.78226
727.5391, 70.21944
728.0212, 70.30009
728.5034, 70.81120
728.9855, 71.16670
729.4676, 71.39320
729.9497, 71.70390
730.4318, 72.20491
730.9139, 72.86967
731.3961, 73.72493
731.8782, 74.76408
732.3603, 75.80592
732.8424, 76.69197
733.3245, 77.65156
733.8066, 78.80659
734.2888, 80.18795
734.7709, 81.61349
735.2530, 83.12884
735.7351, 84.59147
736.2172, 85.93494
736.6993, 87.14245
737.1815, 88.07849
737.6636, 88.72527
738.1457, 89.22471
738.6278, 89.79449
739.1099, 90.25158
739.5920, 90.37882
740.0742, 90.15137
740.5563, 89.53173
741.0384, 88.33225
741.5205, 86.82661
742.0026, 85.27776
742.4847, 83.89551
742.9669, 82.10391
743.4490, 79.70390
743.9311, 77.13779
744.4132, 74.96765
744.8953, 73.18320
745.3774, 71.35308
745.8596, 69.34837
746.3417, 67.40517
746.8238, 65.92892
747.3059, 64.71226
747.7880, 63.33149
748.2701, 61.34483
748.7523, 59.63732
749.2344, 58.86541
749.7165, 58.60627
750.1986, 58.10568
750.6807, 56.81643
751.1628, 55.96525
751.6450, 55.82657
752.1271, 56.16017
752.6092, 56.42109
753.0913, 56.60447
753.5734, 56.81580
754.0555, 57.09831
754.5377, 57.31117
755.0198, 57.64378
755.5019, 57.83511
755.9840, 58.07862
756.4661, 58.39682
756.9482, 58.80427
757.4304, 59.40974
757.9125, 60.12899
758.3946, 60.67793
758.8767, 60.69049
759.3588, 60.91260
759.8409, 61.55353
760.3231, 62.55223
760.8052, 63.68840
761.2873, 65.00893
761.7694, 66.10348
762.2515, 66.65593
762.7336, 66.92173
763.2158, 67.40660
763.6979, 68.12029
764.1800, 69.09319
764.6621, 70.89622
765.1442, 72.51380
765.6263, 72.99030
766.1085, 72.36313
766.5906, 72.19382
767.0727, 73.32577
767.5548, 74.32372
768.0369, 74.56525
768.5190, 74.07043
769.0012, 73.95432
769.4833, 74.26965
769.9654, 74.64876
770.4475, 74.91334
770.9296, 75.05153
771.4117, 75.10156
771.8939, 75.04931
772.3760, 74.66432
772.8581, 73.34764
773.3402, 71.96688
773.8223, 71.33338
774.3044, 71.64368
774.7866, 71.52843
775.2687, 70.54375
775.7508, 69.34509
776.2329, 68.27611
776.7150, 67.36945
777.1971, 66.17339
777.6793, 64.64574
778.1614, 63.01964
778.6435, 61.61173
779.1256, 60.24274
779.6077, 58.45552
780.0898, 56.19955
780.5720, 53.86424
781.0541, 51.44997
781.5362, 49.20776
782.0183, 47.45288
782.5004, 46.40450
782.9825, 45.08485
783.4647, 43.05383
783.9468, 41.11592
784.4289, 39.90120
784.9110, 39.51777
785.3931, 38.80202
785.8752, 37.67098
786.3574, 36.58566
786.8395, 36.18160
787.3216, 36.11761
787.8037, 35.63006
788.2858, 34.58441
788.7679, 33.48909
789.2501, 32.56588
789.7322, 31.79145
790.2143, 31.13266
790.6964, 30.59198
791.1785, 30.19789
791.6606, 30.07990
792.1428, 29.95147
792.6249, 29.52989
793.1070, 28.79898
793.5891, 28.17931
794.0712, 27.70081
794.5533, 27.28432
795.0355, 26.85016
795.5176, 26.41395
795.9997, 25.99466
796.4818, 25.59139
796.9639, 25.22775
797.4460, 24.86906
797.9282, 24.57842
798.4103, 24.43447
798.8924, 24.59409
799.3745, 24.54319
799.8566, 24.22045
800.3387, 23.79003
800.8209, 23.40309
801.3030, 23.05828
801.7851, 22.73033
802.2672, 22.40871
802.7493, 22.13889
803.2314, 21.99267
803.7136, 21.91695
804.1957, 21.83701
804.6778, 21.71970
805.1599, 21.65633
805.6420, 21.77545
806.1241, 21.89814
806.6063, 21.85069
807.0884, 21.49815
807.5705, 21.35583
808.0526, 21.47538
808.5347, 21.68437
809.0168, 21.87478
809.4990, 22.00993
809.9811, 21.87701
810.4632, 21.40858
810.9453, 20.96570
811.4274, 20.79770
811.9095, 20.84062
812.3917, 21.07442
812.8738, 21.65527
813.3559, 21.99047
813.8380, 21.86075
814.3201, 21.56421
814.8022, 21.28913
815.2844, 21.01498
815.7665, 20.92417
816.2486, 21.05117
816.7307, 21.24110
817.2128, 21.33169
817.6949, 21.36703
818.1771, 21.45028
818.6592, 21.60317
819.1413, 21.74678
819.6234, 21.88947
820.1055, 21.96804
820.5876, 21.89948
821.0698, 21.52335
821.5519, 21.39343
822.0340, 21.58188
822.5161, 21.91382
822.9982, 22.31440
823.4803, 22.77574
823.9625, 23.00240
824.4446, 22.95960
824.9267, 22.95282
825.4088, 23.39393
825.8909, 23.97828
826.3730, 24.26464
826.8552, 24.15911
827.3373, 24.08900
827.8194, 24.14626
828.3015, 24.34340
828.7836, 24.70585
829.2657, 25.27161
829.7479, 25.78881
830.2300, 26.25900
830.7121, 26.64724
831.1942, 26.90848
831.6763, 27.06158
832.1584, 27.10131
832.6406, 27.03339
833.1227, 27.07227
833.6048, 27.57514
834.0869, 28.09728
834.5690, 28.21527
835.0511, 27.80835
835.5333, 27.69994
836.0154, 28.11412
836.4975, 28.61123
836.9796, 28.98818
837.4617, 29.24993
837.9438, 29.43969
838.4260, 29.55585
838.9081, 29.65714
839.3902, 29.86185
839.8723, 30.03649
840.3544, 29.92859
840.8365, 29.56185
841.3187, 29.26581
841.8008, 29.25821
842.2829, 29.29354
842.7650, 29.28365
843.2471, 29.22486
843.7292, 29.05070
844.2114, 28.73661
844.6935, 28.38646
845.1756, 28.01886
845.6577, 27.66497
846.1398, 27.46134
846.6219, 27.37246
847.1041, 27.19489
847.5862, 26.71657
848.0683, 26.19085
848.5504, 25.77646
849.0325, 25.46874
849.5146, 25.19670
849.9968, 24.97964
850.4789, 24.75730
850.9610, 24.51901
851.4431, 24.26291
851.9252, 23.96634
852.4073, 23.63157
852.8895, 23.32899
853.3716, 23.09065
853.8537, 22.90597
854.3358, 22.82890
854.8179, 22.79552
855.3000, 22.65670
855.7822, 22.20909
856.2643, 21.81967
856.7464, 21.59603
857.2285, 21.49686
857.7106, 21.47095
858.1927, 21.54133
858.6749, 21.57038
859.1570, 21.52257
859.6391, 21.43560
860.1212, 21.34531
860.6033, 21.26701
861.0854, 21.24887
861.5676, 21.36236
862.0497, 21.43295
862.5318, 21.28766
863.0139, 21.07330
863.4960, 21.00558
863.9781, 21.20094
864.4603, 21.31624
864.9424, 21.30734
865.4245, 21.26474
865.9066, 21.31570
866.3887, 21.43940
866.8708, 21.50805
867.3530, 21.48593
867.8351, 21.50657
868.3172, 21.79626
868.7993, 22.12673
869.2814, 22.23690
869.7635, 21.98509
870.2457, 21.80071
870.7278, 21.72918
871.2099, 21.72893
871.6920, 21.81046
872.1741, 21.97999
872.6563, 21.93136
873.1384, 21.63454
873.6205, 21.46245
874.1026, 21.91613
874.5847, 22.57872
875.0668, 22.90777
875.5490, 22.85719
876.0311, 22.69556
876.5132, 22.40094
876.9953, 22.13189
877.4774, 21.93402
877.9595, 21.81126
878.4417, 21.89786
878.9238, 22.24045
879.4059, 22.51627
879.8880, 22.47038
880.3701, 22.27182
880.8522, 22.28552
881.3344, 22.45998
881.8165, 22.57545
882.2986, 22.54359
882.7807, 22.40345
883.2628, 22.06084
883.7449, 21.61431
884.2271, 21.44906
884.7092, 21.70017
885.1913, 21.83188
885.6734, 21.65627
886.1555, 21.34704
886.6376, 21.30792
887.1198, 21.46341
887.6019, 21.53692
888.0840, 21.35785
888.5661, 21.17859
889.0482, 21.20720
889.5303, 21.32431
890.0125, 21.33782
890.4946, 21.16388
890.9767, 21.00822
891.4588, 20.90506
891.9409, 20.78720
892.4230, 20.47733
892.9052, 20.03950
893.3873, 19.93039
893.8694, 20.26929
894.3515, 20.60274
894.8336, 20.48196
895.3157, 20.19274
895.7979, 20.02630
896.2800, 20.08316
896.7621, 20.08986
897.2442, 20.00237
897.7263, 19.89446
898.2084, 19.80899
898.6906, 19.74613
899.1727, 19.70980
899.6548, 19.70049
900.1369, 19.70006
900.6190, 19.70930
901.1011, 19.71122
901.5833, 19.70719
902.0654, 19.69044
902.5475, 19.59599
903.0296, 19.29225
903.5117, 19.03549
903.9938, 18.88756
904.4760, 18.85096
904.9581, 18.98252
905.4402, 19.28538
905.9223, 19.54368
906.4044, 19.68093
906.8865, 19.71588
907.3687, 19.60580
907.8508, 19.41781
908.3329, 19.30352
908.8150, 19.38515
909.2971, 19.46285
909.7792, 19.54817
910.2614, 19.57504
910.7435, 19.36206
911.2256, 18.86681
911.7077, 18.71219
912.1898, 19.05829
912.6719, 19.53070
913.1541, 19.67222
913.6362, 19.63876
914.1183, 19.67486
914.6004, 19.86771
915.0825, 19.99902
915.5646, 20.00893
916.0468, 19.91901
916.5289, 19.66866
917.0110, 19.17895
917.4931, 19.23721
917.9752, 19.90833
918.4573, 20.58726
918.9395, 20.66778
919.4216, 20.52463
919.9037, 20.85342
920.3858, 21.60508
920.8679, 22.07812
921.3500, 21.63340
921.8322, 21.21721
922.3143, 21.25070
922.7964, 21.63811
923.2785, 21.94833
923.7606, 22.18087
924.2427, 22.33363
924.7249, 22.36599
925.2070, 22.37019
925.6891, 22.49793
926.1712, 22.71195
926.6533, 22.92859
927.1354, 23.04188
927.6176, 23.24179
928.0997, 23.68577
928.5818, 24.19320
929.0639, 24.55683
929.5460, 24.77754
930.0281, 24.80369
930.5103, 24.57089
930.9924, 24.40397
931.4745, 24.83862
931.9566, 25.52561
932.4387, 25.86012
932.9208, 25.69596
933.4030, 25.59597
933.8851, 25.85170
934.3672, 26.17746
934.8493, 26.41316
935.3314, 26.55937
935.8135, 26.64661
936.2957, 26.66832
936.7778, 26.68969
937.2599, 26.72776
937.7420, 26.80301
938.2241, 26.94207
938.7062, 27.14621
939.1884, 27.42035
939.6705, 27.86770
940.1526, 28.26590
940.6347, 28.52514
941.1168, 28.70201
941.5989, 28.90606
942.0811, 29.13531
942.5632, 29.41792
943.0453, 29.78506
943.5274, 30.13573
944.0095, 30.32650
944.4916, 30.42842
944.9738, 30.56127
945.4559, 30.78406
945.9380, 30.96697
946.4201, 31.06283
946.9022, 31.12208
947.3843, 31.11984
947.8665, 31.02471
948.3486, 31.38296
948.8307, 32.23660
949.3128, 32.95357
949.7949, 32.79045
950.2770, 32.36685
950.7592, 32.44741
951.2413, 33.01289
951.7234, 33.55119
952.2055, 33.91258
952.6876, 34.22927
953.1697, 34.54973
953.6519, 34.84913
954.1340, 34.98642
954.6161, 34.97470
955.0982, 35.11181
955.5803, 35.58212
956.0624, 36.08920
956.5446, 36.17265
957.0267, 36.14495
957.5088, 36.48428
957.9909, 37.80838
958.4730, 38.74452
958.9551, 39.16249
959.4373, 39.29303
959.9194, 39.19540
960.4015, 38.94579
960.8836, 39.32937
961.3657, 40.40596
961.8478, 41.48771
962.3300, 42.08433
962.8121, 42.41158
963.2942, 42.51359
963.7763, 42.40394
964.2584, 42.63580
964.7405, 43.34838
965.2227, 44.15887
965.7048, 45.01504
966.1869, 45.80560
966.6690, 46.17043
967.1511, 46.20695
967.6332, 46.31787
968.1154, 46.70215
968.5975, 47.17127
969.0796, 47.69183
969.5617, 48.20166
970.0438, 48.62207
970.5259, 48.92912
971.0081, 49.21555
971.4902, 49.50814
971.9723, 49.70683
972.4544, 49.59588
972.9365, 49.32565
973.4186, 49.30841
973.9008, 49.58498
974.3829, 49.73785
974.8650, 49.36963
975.3471, 48.98589
975.8292, 48.89906
976.3113, 49.07444
976.7935, 49.12069
977.2756, 49.02404
977.7577, 48.90993
978.2398, 48.83180
978.7219, 48.76805
979.2040, 48.70313
979.6862, 48.62643
980.1683, 48.51497
980.6504, 48.37794
981.1325, 48.17685
981.6146, 47.87660
982.0967, 47.53625
982.5789, 47.19977
983.0610, 46.86631
983.5431, 46.65464
984.0252, 46.58369
984.5073, 46.49659
984.9894, 46.22843
985.4716, 45.88833
985.9537, 45.57145
986.4358, 45.28731
986.9179, 45.03315
987.4000, 44.68196
987.8821, 44.58591
988.3643, 44.99042
988.8464, 45.67501
989.3285, 45.91195
989.8106, 45.77422
990.2927, 45.61212
990.7748, 45.53474
991.2570, 45.53076
991.7391, 45.59568
992.2212, 45.73022
992.7033, 45.94147
993.1854, 46.25462
993.6675, 46.56120
994.1497, 46.84861
994.6318, 47.15562
995.1139, 47.53153
995.5960, 47.94769
996.0781, 48.36052
996.5602, 48.76593
997.0424, 49.13824
997.5245, 49.38361
998.0066, 49.68877
998.4887, 50.24385
998.9708, 50.92884
999.4529, 51.10489
999.9351, 50.72922
1000.417, 50.63596
1000.899, 51.23858
1001.381, 51.99232
1001.864, 52.15113
1002.346, 52.04981
1002.828, 52.22565
1003.310, 53.03132
1003.792, 53.72382
1004.274, 54.19513
1004.756, 54.62441
1005.238, 55.16932
1005.720, 55.81322
1006.203, 56.51799
1006.685, 57.26063
1007.167, 57.87574
1007.649, 58.04060
1008.131, 58.21740
1008.613, 58.84766
1009.095, 59.80536
1009.577, 60.34057
1010.060, 60.31111
1010.542, 60.24868
1011.024, 60.24890
1011.506, 60.32805
1011.988, 60.65662
1012.470, 61.05621
1012.952, 61.09889
1013.434, 60.55281
1013.916, 60.07608
1014.399, 59.87716
1014.881, 59.88799
1015.363, 60.10323
1015.845, 60.52599
1016.327, 60.96178
1016.809, 61.41344
1017.291, 61.62524
1017.773, 61.21790
1018.255, 60.67036
1018.738, 60.41597
1019.220, 60.40681
1019.702, 60.49590
1020.184, 60.89754
1020.666, 60.96088
1021.148, 60.49110
1021.630, 59.84528
1022.112, 59.55626
1022.595, 59.53682
1023.077, 59.53592
1023.559, 59.52412
1024.041, 59.41396
1024.523, 59.00982
1025.005, 58.60833
1025.487, 58.46716
1025.969, 58.55877
1026.452, 58.48149
1026.934, 58.22786
1027.416, 57.85201
1027.898, 57.28609
1028.380, 56.72630
1028.862, 56.51411
1029.344, 56.50938
1029.826, 56.44454
1030.308, 56.08610
1030.791, 55.89401
1031.273, 55.95605
1031.755, 56.11493
1032.237, 56.19616
1032.719, 56.22711
1033.201, 56.43583
1033.683, 56.82482
1034.165, 57.19926
1034.647, 57.28766
1035.130, 57.44109
1035.612, 58.00847
1036.094, 58.24482
1036.576, 59.34468
1037.058, 59.27443
1037.540, 59.52993
1038.022, 60.42932
1038.504, 61.45278
1038.987, 61.67184
1039.469, 61.55966
1039.951, 61.95043
1040.433, 63.14929
1040.915, 64.39798
1041.397, 65.65391
1041.879, 66.74339
1042.361, 67.47262
1042.844, 67.92250
1043.326, 68.83426
1043.808, 70.16471
1044.290, 71.48901
1044.772, 72.52354
1045.254, 73.56157
1045.736, 74.95911
1046.218, 76.45242
1046.700, 77.47156
1047.182, 77.70517
1047.665, 78.49796
1048.147, 80.01085
1048.629, 81.84262
1049.111, 83.67131
1049.593, 85.50908
1050.075, 87.40854
1050.557, 89.36907
1051.039, 91.28125
1051.522, 92.90987
1052.004, 94.70560
1052.486, 96.84686
1052.968, 99.19194
1053.450, 101.3706
1053.932, 103.3890
1054.414, 105.2352
1054.896, 106.7843
1055.379, 108.5209
1055.861, 111.0996
1056.343, 113.8488
1056.825, 116.0711
1057.307, 117.6693
1057.789, 119.3055
1058.271, 121.0184
1058.753, 122.5527
1059.235, 123.7360
1059.718, 124.6263
1060.200, 125.2336
1060.682, 125.6092
1061.164, 125.8975
1061.646, 126.2423
1062.128, 126.3494
1062.610, 126.2003
1063.092, 125.7853
1063.574, 125.0984
1064.057, 124.1336
1064.539, 122.7724
1065.021, 120.9969
1065.503, 119.2624
1065.985, 117.9590
1066.467, 116.6683
1066.949, 115.0560
1067.431, 113.2317
1067.914, 111.6148
1068.396, 110.2235
1068.878, 108.7866
1069.360, 107.1981
1069.842, 105.5588
1070.324, 103.8464
1070.806, 102.2096
1071.288, 100.9229
1071.771, 100.2343
1072.253, 99.18340
1072.735, 97.52676
1073.217, 95.99839
1073.699, 95.24095
1074.181, 94.88411
1074.663, 93.70657
1075.145, 91.95259
1075.627, 90.52719
1076.109, 90.23206
1076.592, 89.80984
1077.074, 88.57983
1077.556, 87.25503
1078.038, 86.73698
1078.520, 87.01120
1079.002, 87.04560
1079.484, 86.76785
1079.966, 86.39320
1080.448, 85.93188
1080.931, 85.57943
1081.413, 85.56977
1081.895, 85.84612
1082.377, 85.92620
1082.859, 85.71127
1083.341, 85.67702
1083.823, 85.94777
1084.305, 86.40407
1084.788, 87.03342
1085.270, 87.67022
1085.752, 88.00577
1086.234, 87.91980
1086.716, 87.92126
1087.198, 88.20912
1087.680, 88.41080
1088.162, 88.28828
1088.645, 87.98615
1089.127, 88.01821
1089.609, 88.30762
1090.091, 88.55801
1090.573, 88.69740
1091.055, 88.69739
1091.537, 88.45119
1092.019, 88.11978
1092.501, 87.89155
1092.984, 87.79118
1093.466, 87.45569
1093.948, 86.87619
1094.430, 86.27353
1094.912, 85.88241
1095.394, 85.45441
1095.876, 84.61636
1096.358, 83.58001
1096.840, 83.08379
1097.323, 83.53954
1097.805, 83.30665
1098.287, 82.07377
1098.769, 80.50798
1099.251, 79.33510
1099.733, 78.35773
1100.215, 77.31843
1100.697, 76.18188
1101.180, 74.84618
1101.662, 73.08385
1102.144, 71.41543
1102.626, 70.01448
1103.108, 68.73402
1103.590, 67.30324
1104.072, 65.73332
1104.554, 64.04382
1105.036, 62.17701
1105.519, 60.47926
1106.001, 59.40871
1106.483, 58.31569
1106.965, 56.70459
1107.447, 54.64690
1107.929, 53.12083
1108.411, 52.10531
1108.893, 51.03208
1109.375, 49.50826
1109.858, 47.99250
1110.340, 46.87237
1110.822, 45.98739
1111.304, 45.07838
1111.786, 44.14103
1112.268, 43.15572
1112.750, 42.10966
1113.232, 41.12711
1113.715, 40.31670
1114.197, 39.60772
1114.679, 38.92317
1115.161, 38.24746
1115.643, 37.52232
1116.125, 36.66377
1116.607, 35.89357
1117.089, 35.23849
1117.572, 34.69133
1118.054, 34.32161
1118.536, 34.02917
1119.018, 33.57367
1119.500, 32.93774
1119.982, 32.34441
1120.464, 31.87408
1120.946, 31.47869
1121.428, 31.18696
1121.911, 30.92680
1122.393, 30.48179
1122.875, 29.90076
1123.357, 29.41853
1123.839, 29.11748
1124.321, 28.77930
1124.803, 28.14502
1125.285, 27.55734
1125.767, 27.27451
1126.250, 27.25162
1126.732, 27.01495
1127.214, 26.57473
1127.696, 26.20992
1128.178, 26.13239
1128.660, 25.99778
1129.142, 25.34250
1129.624, 24.56265
1130.107, 24.17639
1130.589, 24.28355
1131.071, 24.38100
1131.553, 24.47516
1132.035, 24.51437
1132.517, 24.52550
1132.999, 24.41422
1133.481, 23.94681
1133.964, 23.28629
1134.446, 22.81423
1134.928, 22.66813
1135.410, 22.58026
1135.892, 22.57003
1136.374, 22.51486
1136.856, 22.19464
1137.338, 21.79725
1137.820, 21.74519
1138.302, 21.97717
1138.785, 22.01495
1139.267, 21.16360
1139.749, 20.95536
1140.231, 22.00905
1140.713, 23.22997
1141.195, 22.73967
1141.677, 21.13871
1142.159, 20.10748
1142.642, 19.86554
1143.124, 19.74318
1143.606, 19.37075
1144.088, 19.14768
1144.570, 19.32966
1145.052, 19.68382
1145.534, 19.48029
1146.016, 18.83215
1146.499, 18.40244
1146.981, 18.41525
1147.463, 18.35952
1147.945, 17.75620
1148.427, 17.13311
1148.909, 16.85574
1149.391, 16.88556
1149.873, 16.90127
1150.355, 16.90347
1150.838, 16.89865
1151.320, 16.89260
1151.802, 16.87426
1152.284, 16.81304
1152.766, 16.74950
1153.248, 16.74497
1153.730, 16.81971
1154.212, 16.77790
1154.694, 16.61462
1155.177, 16.38799
1155.659, 16.05846
1156.141, 15.75335
1156.623, 15.55380
1157.105, 15.47781
1157.587, 15.60119
1158.069, 16.09600
1158.551, 16.23887
1159.034, 15.97867
1159.516, 15.59541
1159.998, 15.22353
1160.480, 14.91839
1160.962, 14.69969
1161.444, 14.60425
1161.926, 14.77999
1162.408, 15.47775
1162.891, 15.91455
1163.373, 16.00823
1163.855, 15.86337
1164.337, 15.49137
1164.819, 15.00746
1165.301, 14.53228
1165.783, 14.10552
1166.265, 13.88419
1166.747, 14.07264
1167.229, 14.17398
1167.712, 14.07371
1168.194, 13.90844
1168.676, 13.86041
1169.158, 13.90085
1169.640, 13.97417
1170.122, 14.07355
1170.604, 14.19978
1171.086, 14.45610
1171.569, 14.59040
1172.051, 14.49868
1172.533, 14.29162
1173.015, 14.17078
1173.497, 14.12483
1173.979, 14.13168
1174.461, 14.19576
1174.943, 14.25008
1175.426, 14.32630
1175.908, 14.30657
1176.390, 14.07551
1176.872, 13.75347
1177.354, 13.78241
1177.836, 14.06660
1178.318, 14.27487
1178.800, 14.30758
1179.282, 14.24738
1179.765, 13.99209
1180.247, 13.79750
1180.729, 13.87012
1181.211, 14.13014
1181.693, 14.09330
1182.175, 13.80613
1182.657, 13.50731
1183.139, 13.22204
1183.621, 13.06985
1184.104, 13.22547
1184.586, 13.44337
1185.068, 13.52833
1185.550, 13.48830
1186.032, 13.50798
1186.514, 13.57191
1186.996, 13.54959
1187.478, 13.24975
1187.961, 12.98876
1188.443, 12.91057
1188.925, 12.96184
1189.407, 13.11367
1189.889, 13.36996
1190.371, 13.57874
1190.853, 13.73456
1191.335, 13.78433
1191.818, 13.56242
1192.300, 13.37075
1192.782, 13.44628
1193.264, 13.62671
1193.746, 13.67665
1194.228, 13.59167
1194.710, 13.46903
1195.192, 13.31578
1195.674, 13.18230
1196.156, 13.10228
1196.639, 13.05673
1197.121, 13.06599
1197.603, 13.09035
1198.085, 13.04029
1198.567, 12.91034
1199.049, 12.79932
1199.531, 12.71333
1200.013, 12.72723
1200.496, 13.00447
1200.978, 13.30549
1201.460, 13.48188
1201.942, 13.54288
1202.424, 13.51587
1202.906, 13.39835
1203.388, 13.25655
1203.870, 13.09592
1204.353, 12.96036
1204.835, 12.83429
1205.317, 12.79543
1205.799, 12.99457
1206.281, 13.33778
1206.763, 13.45201
1207.245, 13.32630
1207.727, 13.24470
1208.209, 13.27185
1208.692, 13.32742
1209.174, 13.37600
1209.656, 13.39531
1210.138, 13.32441
1210.620, 13.19756
1211.102, 13.23598
1211.584, 13.44539
1212.066, 13.60143
1212.548, 13.63759
1213.031, 13.62052
1213.513, 13.62258
1213.995, 13.58599
1214.477, 13.39262
1214.959, 13.08383
1215.441, 13.05736
1215.923, 13.31627
1216.405, 13.54091
1216.888, 13.63299
1217.370, 13.63703
1217.852, 13.51100
1218.334, 13.37209
1218.816, 13.34946
1219.298, 13.27511
1219.780, 13.21187
1220.262, 13.25598
1220.745, 13.17398
1221.227, 13.23632
1221.709, 13.35438
1222.191, 13.54202
1222.673, 13.68557
1223.155, 13.63760
1223.637, 13.73925
1224.119, 13.41751
1224.601, 13.66096
1225.083, 13.78123
1225.566, 13.53753
1226.048, 13.27655
1226.530, 13.26211
1227.012, 13.33785
1227.494, 13.33092
1227.976, 13.24039
1228.458, 13.26224
1228.940, 13.38976
1229.423, 13.52874
1229.905, 13.69928
1230.387, 13.77032
1230.869, 13.50133
1231.351, 13.22074
1231.833, 13.29853
1232.315, 13.72947
1232.797, 13.78312
1233.280, 13.50074
1233.762, 13.25954
1234.244, 13.24167
1234.726, 13.33316
1235.208, 13.63083
1235.690, 13.88903
1236.172, 13.83150
1236.654, 13.47631
1237.136, 13.37821
1237.619, 13.49772
1238.101, 13.54039
1238.583, 13.19071
1239.065, 12.93055
1239.547, 13.07036
1240.029, 13.27006
1240.511, 13.18124
1240.993, 12.85610
1241.475, 12.76448
1241.958, 12.87665
1242.440, 12.97907
1242.922, 12.93929
1243.404, 12.90769
1243.886, 12.90868
1244.368, 12.95520
1244.850, 13.09163
1245.332, 13.28661
1245.815, 13.37314
1246.297, 13.37483
1246.779, 13.43249
1247.261, 13.82333
1247.743, 13.94744
1248.225, 13.58416
1248.707, 13.12983
1249.189, 12.98649
1249.672, 13.07271
1250.154, 13.20644
1250.636, 13.35525
1251.118, 13.40751
1251.600, 13.20338
1252.082, 13.07478
1252.564, 13.07356
1253.046, 13.12746
1253.528, 13.17944
1254.010, 13.22358
1254.493, 13.23250
1254.975, 13.21917
1255.457, 13.24481
1255.939, 13.41603
1256.421, 13.44106
1256.903, 13.24491
1257.385, 13.05863
1257.867, 13.12274
1258.350, 13.33219
1258.832, 13.63104
1259.314, 13.94826
1259.796, 13.98966
1260.278, 13.57775
1260.760, 13.30689
1261.242, 13.23173
1261.724, 13.30528
1262.207, 13.60886
1262.689, 13.93913
1263.171, 14.05034
1263.653, 13.98919
1264.135, 13.96766
1264.617, 14.01094
1265.099, 14.00304
1265.581, 13.92361
1266.063, 13.88977
1266.546, 14.07084
1267.028, 14.27780
1267.510, 14.32789
1267.992, 14.44990
1268.474, 14.51150
1268.956, 14.50710
1269.438, 14.54482
1269.920, 14.42901
1270.402, 14.34395
1270.885, 14.43646
1271.367, 14.59431
1271.849, 14.81385
1272.331, 15.02063
1272.813, 15.08343
1273.295, 15.01257
1273.777, 14.95105
1274.259, 14.91035
1274.742, 14.87986
1275.224, 14.85192
1275.706, 14.83169
1276.188, 14.78667
1276.670, 14.78499
1277.152, 15.00041
1277.634, 15.34894
1278.116, 15.44179
1278.599, 15.27893
1279.081, 15.10715
1279.563, 15.08732
1280.045, 14.97788
1280.527, 14.66500
1281.009, 14.36839
1281.491, 14.42744
1281.973, 14.69215
1282.455, 14.83958
1282.938, 14.87032
1283.420, 14.92733
1283.902, 15.10295
1284.384, 15.19830
1284.866, 15.17894
1285.348, 15.11087
1285.830, 15.01126
1286.312, 14.94424
1286.794, 15.08719
1287.277, 15.35709
1287.759, 15.33070
1288.241, 14.83572
1288.723, 14.63294
1289.205, 14.83786
1289.687, 15.06351
1290.169, 14.92536
1290.651, 14.69459
1291.134, 14.60417
1291.616, 14.62188
1292.098, 14.62989
1292.580, 14.63064
1293.062, 14.57188
1293.544, 14.44910
1294.026, 14.37162
1294.508, 14.40792
1294.990, 14.52397
1295.473, 14.79714
1295.955, 15.07990
1296.437, 15.16098
1296.919, 15.06076
1297.401, 14.91628
1297.883, 14.74290
1298.365, 14.60285
1298.847, 14.49727
1299.329, 14.48429
1299.812, 14.62499
1300.294, 14.77699
1300.776, 14.74060
1301.258, 14.59851
1301.740, 14.60176
1302.222, 14.72286
1302.704, 14.78426
1303.186, 14.65573
1303.669, 14.55828
1304.151, 14.50321
1304.633, 14.49220
##END=



