##NAMES=Fluorapatite
##RRUFFID=R050274
##IDEAL CHEMISTRY=Ca_5_(PO_4_)_3_F
##LOCALITY=Minas Gerais, Brazil
##OWNER=RRUFF
##SOURCE=Marcus Origlieri
##DESCRIPTION=Aggregate of blue crystal fragments separated by veins of quartz
##STATUS=The identification of this mineral has been confirmed by X-ray diffraction and chemical analysis
##URL=rruff.info/R050274
##MEASURED CHEMISTRY=Ca_5.00_((P_0.97_Si_0.02_S_0.01_)O_4_)_3_(F_0.90_Cl_0.10_)
92.54132, 0.0000000E+00
93.02344, 529.3945
93.50555, 495.2672
93.98767, 482.8394
94.46979, 502.6611
94.95190, 543.5654
95.43402, 577.9187
95.91614, 603.4661
96.39825, 631.2179
96.88037, 672.0385
97.36249, 726.1135
97.84460, 795.2980
98.32672, 887.7803
98.80884, 1001.010
99.29095, 1105.459
99.77307, 1192.834
100.2552, 1275.831
100.7373, 1380.740
101.2194, 1508.039
101.7015, 1651.195
102.1837, 1806.716
102.6658, 1972.750
103.1479, 2154.305
103.6300, 2354.509
104.1121, 2570.327
104.5942, 2783.486
105.0763, 2994.914
105.5585, 3204.903
106.0406, 3415.781
106.5227, 3619.674
107.0048, 3835.698
107.4869, 4073.178
107.9690, 4335.583
108.4512, 4572.206
108.9333, 4770.425
109.4154, 4951.156
109.8975, 5135.886
110.3796, 5337.485
110.8617, 5532.790
111.3439, 5707.782
111.8260, 5843.967
112.3081, 6024.376
112.7902, 6272.940
113.2723, 6565.589
113.7544, 6865.010
114.2366, 7155.610
114.7187, 7459.984
115.2008, 7786.884
115.6829, 8147.760
116.1650, 8508.508
116.6471, 8867.337
117.1293, 9223.551
117.6114, 9579.133
118.0935, 9942.968
118.5756, 10300.04
119.0577, 10644.48
119.5398, 10971.73
120.0220, 11286.49
120.5041, 11599.61
120.9862, 11907.08
121.4683, 12192.66
121.9504, 12443.86
122.4325, 12668.73
122.9147, 12878.27
123.3968, 13066.88
123.8789, 13247.41
124.3610, 13426.54
124.8431, 13605.24
125.3252, 13785.78
125.8074, 13979.10
126.2895, 14175.27
126.7716, 14355.09
127.2537, 14482.53
127.7358, 14599.62
128.2179, 14772.47
128.7001, 15001.78
129.1822, 15263.05
129.6643, 15547.16
130.1464, 15847.12
130.6285, 16133.89
131.1106, 16372.56
131.5928, 16585.16
132.0749, 16857.95
132.5570, 17200.29
133.0391, 17558.50
133.5212, 17837.19
134.0033, 18010.04
134.4855, 18119.26
134.9676, 18256.66
135.4497, 18474.98
135.9318, 18636.11
136.4139, 18728.46
136.8960, 18773.14
137.3782, 18809.75
137.8603, 18837.92
138.3424, 18864.07
138.8245, 18890.17
139.3066, 18915.71
139.7887, 18950.86
140.2709, 19005.16
140.7530, 19066.43
141.2351, 19088.28
141.7172, 19058.85
142.1993, 19017.42
142.6814, 18988.94
143.1636, 18974.38
143.6457, 18967.48
144.1278, 18968.78
144.6099, 18976.98
145.0920, 18982.12
145.5741, 18974.36
146.0563, 18973.22
146.5384, 18995.23
147.0205, 19057.86
147.5026, 19114.00
147.9847, 19154.45
148.4668, 19177.93
148.9490, 19209.95
149.4311, 19264.18
149.9132, 19319.04
150.3953, 19353.33
150.8774, 19311.57
151.3595, 19309.98
151.8417, 19393.21
152.3238, 19588.68
152.8059, 19711.96
153.2880, 19704.03
153.7701, 19643.49
154.2522, 19614.63
154.7344, 19652.78
155.2165, 19696.27
155.6986, 19728.79
156.1807, 19746.94
156.6628, 19764.14
157.1449, 19781.38
157.6271, 19798.54
158.1092, 19815.66
158.5913, 19842.96
159.0734, 19861.58
159.5555, 19859.32
160.0376, 19824.06
160.5198, 19800.25
161.0019, 19805.02
161.4840, 19829.49
161.9661, 19858.43
162.4482, 19895.56
162.9303, 19929.87
163.4125, 19951.82
163.8946, 19949.69
164.3767, 19958.90
164.8588, 20005.38
165.3409, 20075.72
165.8230, 20139.01
166.3052, 20185.30
166.7873, 20216.85
167.2694, 20234.61
167.7515, 20236.06
168.2336, 20228.31
168.7157, 20196.33
169.1978, 20153.51
169.6800, 20142.54
170.1621, 20215.05
170.6442, 20319.70
171.1263, 20404.83
171.6084, 20454.60
172.0905, 20486.25
172.5727, 20503.42
173.0548, 20510.34
173.5369, 20527.58
174.0190, 20587.82
174.5011, 20661.82
174.9832, 20707.40
175.4654, 20701.37
175.9475, 20675.81
176.4296, 20659.40
176.9117, 20652.32
177.3938, 20656.08
177.8759, 20679.61
178.3581, 20714.18
178.8402, 20743.27
179.3223, 20761.52
179.8044, 20771.97
180.2865, 20775.92
180.7686, 20773.62
181.2508, 20772.20
181.7329, 20778.42
182.2150, 20790.33
182.6971, 20802.02
183.1792, 20804.82
183.6613, 20809.42
184.1435, 20842.25
184.6256, 20904.28
185.1077, 20969.50
185.5898, 21019.41
186.0719, 21052.85
186.5540, 21068.28
187.0362, 21055.78
187.5183, 21026.79
188.0004, 21010.31
188.4825, 21006.19
188.9646, 21014.79
189.4467, 21045.08
189.9289, 21093.72
190.4110, 21131.93
190.8931, 21146.85
191.3752, 21143.81
191.8573, 21137.97
192.3394, 21125.77
192.8216, 21128.26
193.3037, 21184.34
193.7858, 21292.21
194.2679, 21382.95
194.7500, 21423.47
195.2321, 21422.90
195.7143, 21444.55
196.1964, 21494.11
196.6785, 21547.00
197.1606, 21569.14
197.6427, 21558.77
198.1248, 21545.35
198.6070, 21532.56
199.0891, 21521.88
199.5712, 21545.79
200.0533, 21616.01
200.5354, 21692.02
201.0175, 21704.86
201.4997, 21642.71
201.9818, 21600.59
202.4639, 21624.19
202.9460, 21713.82
203.4281, 21764.29
203.9102, 21764.14
204.3924, 21746.36
204.8745, 21760.87
205.3566, 21814.60
205.8387, 21868.81
206.3208, 21906.16
206.8029, 21925.32
207.2851, 21962.24
207.7672, 22025.77
208.2493, 22094.49
208.7314, 22131.71
209.2135, 22127.63
209.6956, 22125.80
210.1778, 22144.53
210.6599, 22187.51
211.1420, 22216.46
211.6241, 22226.67
212.1062, 22227.72
212.5883, 22231.94
213.0705, 22235.89
213.5526, 22252.33
214.0347, 22289.36
214.5168, 22351.83
214.9989, 22400.09
215.4810, 22425.63
215.9632, 22445.05
216.4453, 22487.86
216.9274, 22566.34
217.4095, 22639.35
217.8916, 22693.17
218.3737, 22726.41
218.8559, 22747.12
219.3380, 22752.53
219.8201, 22747.73
220.3022, 22738.13
220.7843, 22717.53
221.2664, 22706.07
221.7486, 22712.79
222.2307, 22741.87
222.7128, 22765.96
223.1949, 22778.90
223.6770, 22792.16
224.1591, 22826.55
224.6413, 22899.74
225.1234, 22960.90
225.6055, 22991.56
226.0876, 22983.72
226.5697, 22984.01
227.0518, 22989.80
227.5340, 23005.65
228.0161, 23040.76
228.4982, 23108.83
228.9803, 23171.39
229.4624, 23212.82
229.9445, 23225.73
230.4267, 23258.84
230.9088, 23323.65
231.3909, 23400.18
231.8730, 23463.49
232.3551, 23523.94
232.8372, 23552.48
233.3194, 23527.88
233.8015, 23431.31
234.2836, 23389.07
234.7657, 23425.59
235.2478, 23496.36
235.7299, 23542.54
236.2121, 23544.84
236.6942, 23556.15
237.1763, 23596.23
237.6584, 23673.01
238.1405, 23719.33
238.6226, 23713.13
239.1048, 23693.61
239.5869, 23710.67
240.0690, 23789.88
240.5511, 23859.45
241.0332, 23898.68
241.5153, 23902.26
241.9975, 23923.02
242.4796, 23978.24
242.9617, 24035.25
243.4438, 24050.35
243.9259, 23979.09
244.4080, 23949.00
244.8902, 24007.42
245.3723, 24164.26
245.8544, 24250.91
246.3365, 24228.88
246.8186, 24173.70
247.3007, 24161.97
247.7829, 24219.87
248.2650, 24270.25
248.7471, 24290.67
249.2292, 24279.84
249.7113, 24306.40
250.1934, 24392.87
250.6756, 24492.04
251.1577, 24562.27
251.6398, 24594.62
252.1219, 24615.22
252.6040, 24622.52
253.0861, 24617.58
253.5683, 24628.05
254.0504, 24658.30
254.5325, 24698.75
255.0146, 24743.98
255.4967, 24801.85
255.9788, 24845.74
256.4609, 24863.16
256.9431, 24859.67
257.4252, 24889.48
257.9073, 24979.44
258.3894, 25064.85
258.8715, 25092.79
259.3536, 25032.14
259.8358, 24996.02
260.3179, 24999.57
260.8000, 25037.86
261.2821, 25086.18
261.7642, 25154.55
262.2463, 25216.93
262.7285, 25252.92
263.2106, 25249.66
263.6927, 25260.84
264.1748, 25291.85
264.6569, 25340.26
265.1390, 25402.79
265.6212, 25489.69
266.1033, 25568.74
266.5854, 25620.74
267.0675, 25638.09
267.5496, 25651.93
268.0317, 25655.64
268.5139, 25661.35
268.9960, 25710.42
269.4781, 25824.24
269.9602, 25923.25
270.4423, 25955.09
270.9244, 25899.30
271.4066, 25885.10
271.8887, 25927.89
272.3708, 26000.03
272.8529, 26043.85
273.3350, 26052.11
273.8171, 26057.54
274.2993, 26072.37
274.7814, 26096.34
275.2635, 26130.04
275.7456, 26173.00
276.2277, 26225.90
276.7098, 26296.63
277.1920, 26391.60
277.6741, 26467.85
278.1562, 26503.46
278.6383, 26498.96
279.1204, 26499.07
279.6025, 26501.32
280.0847, 26513.97
280.5668, 26554.81
281.0489, 26627.26
281.5310, 26691.60
282.0131, 26735.22
282.4952, 26759.86
282.9774, 26774.75
283.4595, 26778.41
283.9416, 26779.66
284.4237, 26783.86
284.9058, 26791.17
285.3879, 26814.46
285.8701, 26863.48
286.3522, 26929.40
286.8343, 26984.39
287.3164, 27029.01
287.7985, 27053.85
288.2806, 27029.66
288.7628, 26964.20
289.2449, 26943.22
289.7270, 27001.22
290.2091, 27100.27
290.6912, 27143.21
291.1733, 27128.68
291.6555, 27107.58
292.1376, 27121.38
292.6197, 27162.41
293.1018, 27193.36
293.5839, 27204.29
294.0660, 27209.26
294.5482, 27234.38
295.0303, 27278.25
295.5124, 27323.91
295.9945, 27363.75
296.4766, 27398.04
296.9587, 27424.69
297.4409, 27441.96
297.9230, 27458.21
298.4051, 27482.95
298.8872, 27515.55
299.3693, 27554.19
299.8514, 27605.35
300.3336, 27659.62
300.8157, 27699.86
301.2978, 27723.98
301.7799, 27736.18
302.2620, 27724.66
302.7441, 27701.98
303.2263, 27701.42
303.7084, 27758.70
304.1905, 27836.16
304.6726, 27886.20
305.1547, 27906.79
305.6368, 27917.20
306.1190, 27930.21
306.6011, 27944.37
307.0832, 27956.71
307.5653, 27964.53
308.0474, 27972.23
308.5295, 27976.67
309.0117, 27980.50
309.4938, 28004.15
309.9759, 28089.48
310.4580, 28193.63
310.9401, 28261.28
311.4222, 28257.64
311.9044, 28240.80
312.3865, 28242.29
312.8686, 28261.46
313.3507, 28296.60
313.8328, 28366.69
314.3149, 28441.29
314.7971, 28493.00
315.2792, 28511.10
315.7613, 28518.62
316.2434, 28513.22
316.7255, 28505.07
317.2076, 28516.66
317.6898, 28584.92
318.1719, 28655.01
318.6540, 28691.58
319.1361, 28681.16
319.6182, 28671.38
320.1003, 28674.61
320.5825, 28689.09
321.0646, 28712.36
321.5467, 28759.76
322.0288, 28801.71
322.5109, 28823.10
322.9930, 28819.94
323.4752, 28824.65
323.9573, 28850.96
324.4394, 28884.50
324.9215, 28912.30
325.4036, 28927.54
325.8857, 28941.88
326.3679, 28952.29
326.8500, 28959.70
327.3321, 28982.45
327.8142, 29033.07
328.2963, 29092.14
328.7784, 29148.31
329.2606, 29208.25
329.7427, 29256.99
330.2248, 29283.16
330.7069, 29296.10
331.1890, 29332.12
331.6711, 29417.45
332.1533, 29498.38
332.6354, 29555.15
333.1175, 29590.94
333.5996, 29590.90
334.0817, 29516.75
334.5638, 29423.23
335.0460, 29424.41
335.5281, 29587.22
336.0102, 29719.65
336.4923, 29746.48
336.9744, 29646.79
337.4565, 29601.91
337.9387, 29626.38
338.4208, 29685.23
338.9029, 29743.55
339.3850, 29807.77
339.8671, 29844.35
340.3492, 29832.60
340.8313, 29783.07
341.3134, 29786.41
341.7956, 29856.80
342.2777, 29936.89
342.7598, 29976.39
343.2419, 29973.28
343.7240, 29975.60
344.2061, 29989.00
344.6883, 30014.77
345.1704, 30060.86
345.6525, 30129.17
346.1346, 30195.41
346.6167, 30244.90
347.0988, 30279.30
347.5810, 30303.05
348.0631, 30314.08
348.5452, 30321.54
349.0273, 30336.43
349.5094, 30358.38
349.9915, 30386.94
350.4737, 30423.72
350.9558, 30466.14
351.4379, 30505.13
351.9200, 30539.83
352.4021, 30580.45
352.8842, 30646.26
353.3664, 30725.87
353.8485, 30794.17
354.3306, 30845.19
354.8127, 30879.34
355.2948, 30881.26
355.7769, 30857.77
356.2591, 30852.89
356.7412, 30919.41
357.2233, 31012.62
357.7054, 31081.95
358.1875, 31113.12
358.6696, 31122.18
359.1518, 31098.48
359.6339, 31059.35
360.1160, 31047.55
360.5981, 31096.23
361.0802, 31169.94
361.5623, 31253.73
362.0445, 31353.18
362.5266, 31425.85
363.0087, 31430.82
363.4908, 31404.23
363.9729, 31391.96
364.4550, 31418.64
364.9372, 31450.59
365.4193, 31479.95
365.9014, 31506.29
366.3835, 31521.97
366.8656, 31500.34
367.3477, 31482.11
367.8299, 31496.37
368.3120, 31580.86
368.7941, 31657.94
369.2762, 31726.22
369.7583, 31782.98
370.2404, 31816.54
370.7226, 31800.83
371.2047, 31787.25
371.6868, 31798.39
372.1689, 31851.54
372.6510, 31890.21
373.1331, 31908.32
373.6153, 31916.02
374.0974, 31928.88
374.5795, 31945.11
375.0616, 31971.13
375.5437, 32014.72
376.0258, 32076.55
376.5080, 32110.56
376.9901, 32103.32
377.4722, 32093.20
377.9543, 32120.74
378.4364, 32190.99
378.9185, 32261.82
379.4007, 32326.34
379.8828, 32384.22
380.3649, 32432.38
380.8470, 32469.85
381.3291, 32501.06
381.8112, 32524.77
382.2934, 32542.79
382.7755, 32566.29
383.2576, 32595.72
383.7397, 32632.67
384.2218, 32681.26
384.7039, 32740.63
385.1861, 32802.99
385.6682, 32873.41
386.1503, 32942.57
386.6324, 32999.22
387.1145, 33042.64
387.5966, 33060.44
388.0788, 33006.51
388.5609, 32924.51
389.0430, 32893.37
389.5251, 32952.91
390.0072, 33051.16
390.4893, 33166.07
390.9715, 33285.36
391.4536, 33369.82
391.9357, 33369.22
392.4178, 33339.61
392.8999, 33325.00
393.3820, 33332.65
393.8642, 33355.61
394.3463, 33406.35
394.8284, 33468.06
395.3105, 33513.97
395.7926, 33533.76
396.2747, 33539.54
396.7569, 33522.06
397.2390, 33479.58
397.7211, 33472.59
398.2032, 33555.40
398.6853, 33654.05
399.1674, 33713.23
399.6496, 33683.31
400.1317, 33666.97
400.6138, 33665.26
401.0959, 33680.65
401.5780, 33726.39
402.0602, 33850.80
402.5423, 33947.16
403.0244, 33959.48
403.5065, 33843.85
403.9886, 33800.32
404.4707, 33853.54
404.9529, 33955.02
405.4350, 34038.36
405.9171, 34095.08
406.3992, 34165.38
406.8813, 34275.30
407.3634, 34410.97
407.8456, 34468.00
408.3277, 34429.87
408.8098, 34382.55
409.2919, 34403.29
409.7740, 34487.58
410.2561, 34555.77
410.7383, 34593.22
411.2204, 34619.00
411.7025, 34670.59
412.1846, 34744.77
412.6667, 34814.67
413.1488, 34858.38
413.6310, 34888.98
414.1131, 34934.05
414.5952, 34994.91
415.0773, 35060.90
415.5594, 35125.89
416.0415, 35189.20
416.5237, 35251.10
417.0058, 35311.74
417.4879, 35369.78
417.9700, 35416.24
418.4521, 35456.09
418.9342, 35510.68
419.4164, 35612.53
419.8985, 35719.86
420.3806, 35793.38
420.8627, 35812.84
421.3448, 35846.04
421.8269, 35922.20
422.3091, 36027.11
422.7912, 36141.28
423.2733, 36272.92
423.7554, 36399.63
424.2375, 36520.77
424.7196, 36635.47
425.2018, 36729.64
425.6839, 36800.82
426.1660, 36851.71
426.6481, 36882.57
427.1302, 36862.94
427.6123, 36874.14
428.0945, 36934.83
428.5766, 37023.18
429.0587, 37089.32
429.5408, 37128.99
430.0229, 37155.38
430.5050, 37169.90
430.9872, 37171.75
431.4693, 37179.07
431.9514, 37197.09
432.4335, 37206.50
432.9156, 37176.46
433.3977, 37105.20
433.8799, 37059.49
434.3620, 37060.55
434.8441, 37085.12
435.3262, 37084.25
435.8083, 37058.25
436.2904, 37016.26
436.7726, 36940.66
437.2547, 36855.87
437.7368, 36832.55
438.2189, 36883.62
438.7010, 36937.11
439.1831, 36902.29
439.6652, 36822.00
440.1473, 36779.81
440.6295, 36861.63
441.1116, 36948.97
441.5937, 36910.38
442.0758, 36776.16
442.5579, 36699.22
443.0400, 36833.05
443.5222, 37006.09
444.0043, 37080.80
444.4864, 36984.97
444.9685, 36914.67
445.4506, 36961.48
445.9327, 37062.50
446.4149, 37127.78
446.8970, 37111.88
447.3791, 37085.39
447.8612, 37054.68
448.3433, 37019.48
448.8254, 37016.70
449.3076, 37069.85
449.7897, 37133.02
450.2718, 37181.05
450.7539, 37214.50
451.2360, 37226.69
451.7181, 37197.96
452.2003, 37162.30
452.6824, 37198.99
453.1645, 37330.45
453.6466, 37447.47
454.1287, 37512.74
454.6108, 37529.18
455.0930, 37510.94
455.5751, 37453.26
456.0572, 37388.69
456.5393, 37345.93
457.0214, 37322.13
457.5035, 37303.71
457.9857, 37285.01
458.4678, 37277.30
458.9499, 37305.30
459.4320, 37360.71
459.9141, 37413.73
460.3962, 37451.98
460.8784, 37477.98
461.3605, 37492.56
461.8426, 37496.38
462.3247, 37494.26
462.8068, 37475.10
463.2889, 37458.27
463.7711, 37466.55
464.2532, 37533.65
464.7353, 37588.24
465.2174, 37591.52
465.6995, 37560.47
466.1816, 37535.52
466.6638, 37511.76
467.1459, 37509.10
467.6280, 37540.17
468.1101, 37613.55
468.5922, 37680.79
469.0743, 37751.27
469.5565, 37807.40
470.0386, 37829.08
470.5207, 37782.50
471.0028, 37774.51
471.4849, 37835.25
471.9670, 37933.71
472.4492, 37974.68
472.9313, 37940.46
473.4134, 37910.21
473.8955, 37931.22
474.3776, 37999.29
474.8597, 38004.21
475.3419, 37932.66
475.8240, 37868.88
476.3061, 37928.81
476.7882, 38081.46
477.2703, 38179.13
477.7524, 38169.65
478.2346, 38120.92
478.7167, 38123.10
479.1988, 38166.89
479.6809, 38217.68
480.1630, 38271.49
480.6451, 38313.84
481.1273, 38319.63
481.6094, 38285.77
482.0915, 38264.30
482.5736, 38294.17
483.0557, 38346.71
483.5378, 38394.39
484.0200, 38430.81
484.5021, 38459.91
484.9842, 38480.74
485.4663, 38494.46
485.9484, 38504.37
486.4305, 38493.62
486.9127, 38495.21
487.3948, 38523.60
487.8769, 38583.82
488.3590, 38633.41
488.8411, 38675.05
489.3232, 38703.86
489.8054, 38711.67
490.2875, 38690.05
490.7696, 38680.19
491.2517, 38686.03
491.7338, 38708.18
492.2159, 38761.19
492.6981, 38850.40
493.1802, 38908.06
493.6623, 38874.99
494.1444, 38783.69
494.6265, 38768.15
495.1086, 38828.90
495.5908, 38916.60
496.0729, 39010.04
496.5550, 39096.59
497.0371, 39144.64
497.5192, 39134.57
498.0013, 39114.58
498.4835, 39125.30
498.9656, 39157.19
499.4477, 39190.85
499.9298, 39211.75
500.4119, 39237.11
500.8940, 39281.48
501.3762, 39344.91
501.8583, 39401.07
502.3404, 39451.46
502.8225, 39487.98
503.3046, 39505.77
503.7867, 39501.73
504.2689, 39484.13
504.7510, 39436.56
505.2331, 39383.74
505.7152, 39363.45
506.1973, 39389.97
506.6794, 39420.42
507.1616, 39440.89
507.6437, 39455.80
508.1258, 39503.14
508.6079, 39592.39
509.0900, 39675.94
509.5721, 39716.61
510.0543, 39718.75
510.5364, 39729.37
511.0185, 39752.54
511.5006, 39779.34
511.9827, 39800.41
512.4648, 39816.62
512.9470, 39830.31
513.4291, 39842.72
513.9112, 39852.72
514.3933, 39848.98
514.8754, 39838.93
515.3575, 39849.86
515.8397, 39927.42
516.3218, 40009.69
516.8039, 40039.67
517.2860, 40000.24
517.7681, 39987.86
518.2502, 40066.09
518.7324, 40169.52
519.2145, 40239.65
519.6966, 40244.64
520.1787, 40243.11
520.6608, 40227.30
521.1429, 40209.58
521.6251, 40225.12
522.1072, 40303.33
522.5893, 40360.41
523.0714, 40358.70
523.5535, 40299.63
524.0356, 40284.30
524.5178, 40321.99
524.9999, 40373.02
525.4820, 40408.91
525.9641, 40429.75
526.4462, 40431.27
526.9283, 40404.54
527.4105, 40386.05
527.8926, 40446.68
528.3747, 40561.41
528.8568, 40645.81
529.3389, 40635.56
529.8210, 40598.83
530.3032, 40607.16
530.7853, 40652.58
531.2674, 40696.95
531.7495, 40718.76
532.2316, 40730.75
532.7137, 40739.87
533.1959, 40745.26
533.6780, 40753.67
534.1601, 40775.51
534.6422, 40796.83
535.1243, 40803.02
535.6064, 40746.00
536.0886, 40737.91
536.5707, 40819.35
537.0528, 40953.92
537.5349, 41020.36
538.0170, 40991.26
538.4991, 40966.17
538.9813, 40989.17
539.4634, 41057.55
539.9455, 41103.42
540.4276, 41123.38
540.9097, 41141.41
541.3918, 41187.36
541.8740, 41250.77
542.3561, 41285.80
542.8382, 41278.70
543.3203, 41262.72
543.8024, 41271.26
544.2845, 41300.27
544.7667, 41340.98
545.2488, 41413.60
545.7309, 41475.28
546.2130, 41481.14
546.6951, 41444.02
547.1772, 41424.30
547.6594, 41471.91
548.1415, 41523.42
548.6236, 41534.50
549.1057, 41476.35
549.5878, 41469.68
550.0699, 41582.17
550.5521, 41712.18
551.0342, 41769.96
551.5163, 41707.69
551.9984, 41679.43
552.4805, 41709.85
552.9626, 41775.54
553.4448, 41823.02
553.9269, 41850.70
554.4090, 41875.60
554.8911, 41907.54
555.3732, 41941.03
555.8553, 41951.62
556.3375, 41939.42
556.8196, 41927.69
557.3017, 41929.96
557.7838, 41945.65
558.2659, 41983.97
558.7480, 42053.07
559.2302, 42100.18
559.7123, 42044.56
560.1944, 41956.10
560.6765, 41925.43
561.1586, 42055.49
561.6407, 42166.93
562.1229, 42183.37
562.6050, 42135.40
563.0871, 42113.16
563.5692, 42157.70
564.0513, 42199.86
564.5334, 42216.26
565.0156, 42205.28
565.4977, 42216.75
565.9798, 42257.50
566.4619, 42308.39
566.9440, 42362.89
567.4261, 42422.80
567.9083, 42451.43
568.3904, 42439.14
568.8725, 42416.66
569.3546, 42417.35
569.8367, 42441.46
570.3188, 42493.82
570.8010, 42591.25
571.2831, 42696.86
571.7652, 42758.43
572.2473, 42787.02
572.7294, 42816.98
573.2115, 42865.37
573.6937, 42922.75
574.1758, 42984.23
574.6579, 43049.23
575.1400, 43117.84
575.6221, 43197.51
576.1042, 43276.94
576.5864, 43349.46
577.0685, 43419.67
577.5506, 43472.38
578.0327, 43490.25
578.5148, 43503.75
578.9969, 43563.00
579.4791, 43692.76
579.9612, 43775.82
580.4433, 43772.12
580.9254, 43719.93
581.4075, 43729.61
581.8896, 43799.84
582.3718, 43854.70
582.8539, 43822.41
583.3360, 43753.72
583.8181, 43772.80
584.3002, 43876.15
584.7823, 43972.45
585.2645, 43975.17
585.7466, 43947.28
586.2286, 43957.88
586.7108, 44031.40
587.1929, 44105.96
587.6750, 44154.82
588.1571, 44191.83
588.6392, 44233.51
589.1213, 44324.83
589.6035, 44370.18
590.0856, 44340.66
590.5677, 44261.27
591.0498, 44195.73
591.5319, 44137.96
592.0140, 44108.06
592.4962, 44123.03
592.9783, 44174.20
593.4604, 44200.07
593.9425, 44200.25
594.4246, 44170.02
594.9067, 44078.19
595.3889, 43952.17
595.8710, 43880.80
596.3531, 43874.98
596.8352, 43882.38
597.3173, 43840.02
597.7994, 43785.16
598.2816, 43775.86
598.7637, 43856.74
599.2458, 43943.32
599.7279, 44009.40
600.2100, 44052.02
600.6921, 44065.49
601.1743, 44012.43
601.6564, 43970.71
602.1385, 43959.55
602.6206, 43977.03
603.1027, 44011.77
603.5848, 44079.76
604.0670, 44134.02
604.5491, 44143.84
605.0312, 44107.64
605.5133, 44094.57
605.9954, 44104.68
606.4775, 44134.33
606.9597, 44190.82
607.4418, 44264.42
607.9239, 44326.95
608.4060, 44375.13
608.8881, 44403.48
609.3702, 44401.46
609.8524, 44376.19
610.3345, 44340.08
610.8166, 44275.54
611.2987, 44223.96
611.7808, 44209.46
612.2629, 44223.90
612.7451, 44241.61
613.2272, 44255.40
613.7093, 44275.63
614.1914, 44311.59
614.6735, 44363.47
615.1556, 44390.98
615.6378, 44383.23
616.1199, 44372.28
616.6020, 44381.32
617.0841, 44410.78
617.5662, 44427.95
618.0483, 44432.99
618.5305, 44418.45
619.0126, 44353.16
619.4947, 44261.09
619.9768, 44210.46
620.4589, 44224.92
620.9410, 44264.57
621.4232, 44311.60
621.9053, 44356.71
622.3874, 44382.94
622.8695, 44365.06
623.3516, 44347.56
623.8337, 44347.78
624.3159, 44363.78
624.7980, 44383.94
625.2801, 44421.47
625.7622, 44446.62
626.2443, 44441.82
626.7264, 44404.84
627.2086, 44403.60
627.6907, 44447.59
628.1728, 44497.98
628.6549, 44521.77
629.1370, 44522.13
629.6191, 44540.96
630.1013, 44583.04
630.5834, 44627.17
631.0655, 44649.52
631.5476, 44658.04
632.0297, 44669.41
632.5118, 44693.77
632.9940, 44710.30
633.4761, 44682.57
633.9582, 44641.91
634.4403, 44641.30
634.9224, 44771.84
635.4045, 44863.70
635.8867, 44840.83
636.3688, 44732.79
636.8509, 44676.51
637.3330, 44690.69
637.8151, 44724.66
638.2972, 44768.27
638.7794, 44819.27
639.2615, 44840.67
639.7436, 44827.94
640.2257, 44813.20
640.7078, 44818.70
641.1899, 44840.88
641.6721, 44879.18
642.1542, 44936.98
642.6363, 44969.55
643.1184, 44903.62
643.6005, 44802.95
644.0826, 44754.72
644.5648, 44806.61
645.0469, 44854.46
645.5290, 44837.66
646.0111, 44797.28
646.4932, 44792.46
646.9753, 44856.77
647.4575, 44927.23
647.9396, 45005.45
648.4217, 45083.42
648.9038, 45132.98
649.3859, 45148.07
649.8680, 45158.87
650.3502, 45181.39
650.8323, 45205.89
651.3144, 45179.96
651.7965, 45106.71
652.2786, 45061.85
652.7607, 45128.16
653.2429, 45239.11
653.7250, 45301.05
654.2071, 45307.96
654.6892, 45297.28
655.1713, 45258.05
655.6534, 45231.13
656.1356, 45256.32
656.6177, 45373.63
657.0998, 45460.65
657.5819, 45478.16
658.0640, 45472.62
658.5461, 45485.39
659.0283, 45520.86
659.5104, 45559.65
659.9925, 45596.68
660.4746, 45638.04
660.9567, 45702.95
661.4388, 45788.35
661.9210, 45854.06
662.4031, 45877.41
662.8852, 45883.13
663.3673, 45920.25
663.8494, 45973.34
664.3315, 45993.26
664.8137, 45913.11
665.2958, 45826.33
665.7779, 45792.18
666.2600, 45809.57
666.7421, 45849.39
667.2242, 45952.08
667.7064, 46034.15
668.1885, 46059.39
668.6706, 46022.65
669.1527, 45973.08
669.6348, 45893.29
670.1169, 45837.65
670.5991, 45865.36
671.0812, 45971.22
671.5633, 46026.71
672.0454, 46019.57
672.5275, 45988.57
673.0096, 45956.21
673.4918, 45933.87
673.9739, 45946.43
674.4560, 46007.23
674.9381, 46082.84
675.4202, 46179.75
675.9023, 46269.23
676.3845, 46309.54
676.8666, 46222.07
677.3487, 46164.17
677.8308, 46185.84
678.3129, 46254.15
678.7950, 46298.40
679.2772, 46310.67
679.7593, 46318.46
680.2414, 46330.71
680.7235, 46344.07
681.2056, 46337.66
681.6877, 46312.57
682.1699, 46306.21
682.6520, 46365.85
683.1341, 46447.04
683.6162, 46467.61
684.0983, 46433.04
684.5804, 46403.82
685.0626, 46415.26
685.5447, 46446.24
686.0268, 46489.66
686.5089, 46550.23
686.9910, 46586.89
687.4731, 46572.93
687.9553, 46549.20
688.4374, 46541.21
688.9195, 46558.94
689.4016, 46562.18
689.8837, 46548.84
690.3658, 46527.45
690.8480, 46494.43
691.3301, 46456.74
691.8122, 46468.63
692.2943, 46551.96
692.7764, 46648.85
693.2585, 46703.73
693.7407, 46724.77
694.2228, 46723.59
694.7049, 46670.12
695.1870, 46638.30
695.6691, 46691.86
696.1512, 46786.40
696.6334, 46829.75
697.1155, 46720.84
697.5976, 46671.13
698.0797, 46739.44
698.5618, 46891.02
699.0439, 46995.82
699.5261, 47049.07
700.0082, 47081.04
700.4903, 47107.20
700.9724, 47120.45
701.4545, 47087.12
701.9366, 47013.71
702.4188, 46952.30
702.9009, 46944.93
703.3830, 46960.47
703.8651, 46973.60
704.3472, 46982.42
704.8293, 46983.71
705.3115, 46950.02
705.7936, 46929.16
706.2757, 46955.14
706.7578, 47041.13
707.2399, 47121.09
707.7220, 47203.53
708.2042, 47267.60
708.6863, 47284.10
709.1684, 47252.22
709.6505, 47258.33
710.1326, 47314.61
710.6147, 47370.63
711.0969, 47355.20
711.5790, 47300.81
712.0611, 47277.71
712.5432, 47310.61
713.0253, 47348.05
713.5074, 47353.17
713.9896, 47344.04
714.4717, 47343.15
714.9538, 47359.81
715.4359, 47380.77
715.9180, 47409.88
716.4001, 47439.73
716.8823, 47458.24
717.3644, 47464.27
717.8465, 47461.37
718.3286, 47446.04
718.8107, 47427.54
719.2928, 47416.16
719.7750, 47416.16
720.2571, 47454.69
720.7392, 47596.26
721.2213, 47735.57
721.7034, 47746.79
722.1855, 47663.19
722.6677, 47590.16
723.1498, 47564.01
723.6319, 47564.38
724.1140, 47582.63
724.5961, 47619.29
725.0782, 47687.91
725.5604, 47825.77
726.0425, 47925.00
726.5246, 47924.72
727.0067, 47838.10
727.4888, 47803.00
727.9709, 47821.20
728.4531, 47847.10
728.9352, 47836.31
729.4173, 47816.29
729.8994, 47839.71
730.3815, 47908.29
730.8636, 47977.96
731.3458, 48046.59
731.8279, 48088.42
732.3100, 48075.08
732.7921, 47983.82
733.2742, 47917.45
733.7563, 47887.27
734.2385, 47878.95
734.7206, 47888.33
735.2027, 47921.60
735.6848, 47932.62
736.1669, 47913.76
736.6490, 47900.26
737.1312, 47949.30
737.6133, 48033.75
738.0954, 48069.70
738.5775, 48032.32
739.0596, 47994.99
739.5417, 48009.93
740.0239, 48059.44
740.5060, 48125.31
740.9881, 48232.88
741.4702, 48308.38
741.9523, 48323.43
742.4344, 48306.97
742.9166, 48283.96
743.3987, 48240.07
743.8808, 48246.15
744.3629, 48330.71
744.8450, 48434.15
745.3271, 48438.43
745.8093, 48364.03
746.2914, 48324.38
746.7735, 48374.19
747.2556, 48436.41
747.7377, 48426.48
748.2198, 48374.24
748.7020, 48336.85
749.1841, 48358.34
749.6662, 48371.54
750.1483, 48328.38
750.6304, 48264.77
751.1125, 48278.31
751.5947, 48409.06
752.0768, 48521.60
752.5589, 48587.37
753.0410, 48607.91
753.5231, 48559.12
754.0052, 48449.81
754.4874, 48380.45
754.9695, 48438.49
755.4516, 48533.35
755.9337, 48539.22
756.4158, 48484.68
756.8979, 48466.54
757.3801, 48574.52
757.8622, 48682.37
758.3443, 48739.48
758.8264, 48745.53
759.3085, 48721.29
759.7906, 48645.26
760.2728, 48578.70
760.7549, 48538.44
761.2370, 48526.21
761.7191, 48569.29
762.2012, 48666.30
762.6833, 48745.28
763.1655, 48737.79
763.6476, 48697.11
764.1297, 48697.11
764.6118, 48735.39
765.0939, 48775.21
765.5760, 48800.32
766.0582, 48821.23
766.5403, 48845.11
767.0224, 48873.20
767.5045, 48893.91
767.9866, 48901.58
768.4688, 48912.71
768.9509, 48943.25
769.4330, 48990.71
769.9151, 48996.25
770.3972, 48958.38
770.8793, 48932.45
771.3615, 48997.18
771.8436, 49082.95
772.3257, 49067.77
772.8078, 48943.54
773.2899, 48851.46
773.7720, 48881.27
774.2542, 48953.03
774.7363, 49025.59
775.2184, 49104.45
775.7005, 49140.63
776.1826, 49128.18
776.6647, 49084.13
777.1469, 49004.23
777.6290, 48892.16
778.1111, 48820.25
778.5932, 48789.59
779.0753, 48805.67
779.5574, 48918.45
780.0396, 49061.38
780.5217, 49136.39
781.0038, 49124.19
781.4859, 49102.83
781.9680, 49089.27
782.4501, 49091.39
782.9323, 49121.60
783.4144, 49196.10
783.8964, 49235.34
784.3785, 49221.91
784.8607, 49203.64
785.3428, 49229.16
785.8249, 49292.38
786.3070, 49332.64
786.7891, 49343.56
787.2712, 49350.17
787.7534, 49395.70
788.2355, 49441.51
788.7176, 49421.68
789.1997, 49301.70
789.6818, 49229.70
790.1639, 49297.62
790.6461, 49408.62
791.1282, 49489.87
791.6103, 49542.84
792.0924, 49551.75
792.5745, 49503.70
793.0566, 49439.34
793.5388, 49385.65
794.0209, 49347.59
794.5030, 49363.36
794.9851, 49442.32
795.4672, 49527.71
795.9493, 49594.91
796.4315, 49628.40
796.9136, 49596.21
797.3957, 49455.68
797.8778, 49367.20
798.3599, 49429.13
798.8420, 49517.21
799.3242, 49532.34
799.8063, 49445.09
800.2884, 49392.19
800.7705, 49374.71
801.2526, 49394.27
801.7347, 49484.77
802.2169, 49612.36
802.6990, 49669.10
803.1811, 49631.23
803.6632, 49582.42
804.1453, 49586.49
804.6274, 49610.57
805.1096, 49625.17
805.5917, 49625.39
806.0738, 49610.50
806.5559, 49545.87
807.0380, 49501.48
807.5201, 49553.96
808.0023, 49720.03
808.4844, 49803.17
808.9665, 49783.89
809.4486, 49740.31
809.9307, 49765.93
810.4128, 49821.15
810.8950, 49823.78
811.3771, 49753.47
811.8592, 49690.80
812.3413, 49674.88
812.8234, 49689.00
813.3055, 49726.36
813.7877, 49810.91
814.2698, 49849.11
814.7519, 49828.78
815.2340, 49782.10
815.7161, 49712.55
816.1982, 49628.05
816.6804, 49645.64
817.1625, 49779.02
817.6446, 49920.69
818.1267, 49972.04
818.6088, 49975.55
819.0909, 49985.25
819.5731, 50011.84
820.0552, 50020.60
820.5373, 49979.05
821.0194, 49930.74
821.5015, 49898.14
821.9836, 49875.30
822.4658, 49905.58
822.9479, 50004.64
823.4300, 50105.03
823.9121, 50147.12
824.3942, 50145.87
824.8763, 50153.70
825.3585, 50173.38
825.8406, 50165.35
826.3227, 50061.05
826.8048, 49946.00
827.2869, 49895.47
827.7690, 49926.82
828.2512, 49952.47
828.7333, 49970.35
829.2154, 49975.04
829.6975, 49961.93
830.1796, 49931.60
830.6617, 49892.20
831.1439, 49842.50
831.6260, 49814.36
832.1081, 49839.09
832.5902, 49895.71
833.0723, 49961.93
833.5544, 50034.31
834.0366, 50096.43
834.5187, 50153.63
835.0008, 50185.89
835.4829, 50161.30
835.9650, 50082.73
836.4471, 50069.23
836.9293, 50148.11
837.4114, 50211.63
837.8935, 50193.65
838.3756, 50119.80
838.8577, 50076.97
839.3398, 50064.02
839.8220, 50072.26
840.3041, 50114.89
840.7862, 50161.80
841.2683, 50194.55
841.7504, 50212.24
842.2325, 50213.21
842.7147, 50183.55
843.1968, 50154.44
843.6789, 50130.04
844.1610, 50113.04
844.6431, 50119.62
845.1252, 50150.48
845.6074, 50185.66
846.0895, 50234.80
846.5716, 50264.98
847.0537, 50197.10
847.5358, 50069.00
848.0179, 49985.20
848.5001, 50010.71
848.9822, 50067.45
849.4643, 50153.25
849.9464, 50246.95
850.4285, 50298.72
850.9106, 50295.86
851.3928, 50292.23
851.8749, 50299.55
852.3570, 50311.74
852.8391, 50315.29
853.3212, 50312.79
853.8033, 50314.19
854.2855, 50322.78
854.7676, 50335.07
855.2497, 50348.54
855.7318, 50363.78
856.2139, 50382.62
856.6960, 50444.03
857.1782, 50443.84
857.6603, 50344.20
858.1424, 50220.10
858.6245, 50188.81
859.1066, 50243.54
859.5887, 50279.72
860.0709, 50277.15
860.5530, 50271.84
861.0351, 50311.21
861.5172, 50367.03
861.9993, 50402.86
862.4814, 50410.59
862.9636, 50399.90
863.4457, 50339.05
863.9278, 50286.24
864.4099, 50290.43
864.8920, 50364.83
865.3741, 50417.13
865.8563, 50444.39
866.3384, 50456.18
866.8205, 50457.17
867.3026, 50450.22
867.7847, 50438.97
868.2668, 50423.28
868.7490, 50409.37
869.2311, 50382.53
869.7132, 50372.12
870.1953, 50407.23
870.6774, 50491.30
871.1595, 50553.26
871.6417, 50589.47
872.1238, 50613.32
872.6059, 50649.30
873.0880, 50678.15
873.5701, 50590.80
874.0522, 50408.44
874.5344, 50283.58
875.0165, 50363.78
875.4986, 50484.29
875.9807, 50540.61
876.4628, 50535.30
876.9449, 50517.44
877.4271, 50477.20
877.9092, 50452.99
878.3913, 50466.66
878.8734, 50497.34
879.3555, 50459.75
879.8376, 50364.40
880.3198, 50318.29
880.8019, 50390.39
881.2840, 50494.30
881.7661, 50564.71
882.2482, 50603.47
882.7303, 50613.95
883.2125, 50574.20
883.6946, 50534.83
884.1767, 50493.59
884.6588, 50463.19
885.1409, 50472.25
885.6230, 50522.42
886.1052, 50549.03
886.5873, 50537.47
887.0694, 50510.82
887.5515, 50468.19
888.0336, 50437.70
888.5157, 50473.08
888.9979, 50621.99
889.4800, 50728.26
889.9621, 50702.84
890.4442, 50650.17
890.9263, 50657.84
891.4084, 50753.55
891.8906, 50743.00
892.3727, 50606.88
892.8548, 50477.74
893.3369, 50505.20
893.8190, 50605.82
894.3011, 50626.17
894.7833, 50559.26
895.2654, 50496.80
895.7475, 50482.70
896.2296, 50486.06
896.7117, 50497.46
897.1938, 50514.76
897.6760, 50513.45
898.1581, 50488.00
898.6402, 50466.99
899.1223, 50468.80
899.6044, 50481.05
900.0865, 50468.93
900.5687, 50441.15
901.0508, 50429.55
901.5329, 50454.15
902.0150, 50494.00
902.4971, 50559.12
902.9792, 50628.93
903.4614, 50652.10
903.9435, 50607.44
904.4256, 50570.98
904.9077, 50555.35
905.3898, 50552.17
905.8719, 50535.81
906.3541, 50519.19
906.8362, 50556.24
907.3183, 50689.54
907.8004, 50787.80
908.2825, 50738.64
908.7646, 50628.11
909.2468, 50545.34
909.7289, 50495.03
910.2110, 50487.89
910.6931, 50539.06
911.1752, 50602.25
911.6573, 50647.73
912.1395, 50672.03
912.6216, 50641.11
913.1037, 50555.28
913.5858, 50497.51
914.0679, 50569.32
914.5500, 50656.63
915.0322, 50663.46
915.5143, 50583.14
915.9964, 50555.83
916.4785, 50611.84
916.9606, 50665.29
917.4427, 50678.27
917.9249, 50665.75
918.4070, 50685.68
918.8891, 50730.03
919.3712, 50755.13
919.8533, 50716.89
920.3354, 50675.43
920.8176, 50678.48
921.2997, 50708.23
921.7818, 50726.04
922.2639, 50730.14
922.7460, 50715.99
923.2281, 50675.66
923.7103, 50628.54
924.1924, 50600.89
924.6745, 50591.96
925.1566, 50600.79
925.6387, 50629.52
926.1208, 50660.57
926.6030, 50680.80
927.0851, 50695.11
927.5672, 50704.76
928.0493, 50700.55
928.5314, 50729.07
929.0135, 50816.03
929.4957, 50886.82
929.9778, 50872.71
930.4599, 50793.17
930.9420, 50775.27
931.4241, 50813.61
931.9063, 50843.86
932.3884, 50819.00
932.8705, 50776.02
933.3526, 50735.36
933.8347, 50699.29
934.3168, 50668.94
934.7990, 50634.02
935.2811, 50629.18
935.7632, 50674.45
936.2453, 50742.23
936.7274, 50769.33
937.2095, 50762.31
937.6917, 50744.68
938.1738, 50716.82
938.6559, 50696.47
939.1380, 50697.91
939.6201, 50713.45
940.1022, 50735.21
940.5844, 50779.63
941.0665, 50789.63
941.5486, 50751.21
942.0307, 50707.46
942.5128, 50688.52
942.9949, 50697.65
943.4771, 50763.90
943.9592, 50885.52
944.4413, 50989.92
944.9234, 51011.47
945.4055, 51012.88
945.8876, 51031.35
946.3698, 51069.75
946.8519, 51117.93
947.3340, 51173.03
947.8161, 51247.98
948.2982, 51354.57
948.7803, 51478.20
949.2625, 51578.00
949.7446, 51664.23
950.2267, 51770.16
950.7088, 51912.63
951.1909, 52074.13
951.6730, 52248.55
952.1552, 52436.57
952.6373, 52641.59
953.1194, 52876.17
953.6015, 53078.53
954.0836, 53229.16
954.5657, 53389.91
955.0479, 53633.59
955.5300, 53935.26
956.0121, 54260.89
956.4942, 54607.59
956.9763, 54932.72
957.4584, 55166.19
957.9406, 55416.68
958.4227, 55751.39
958.9048, 56160.84
959.3869, 56620.43
959.8690, 57148.84
960.3511, 57592.05
960.8333, 57849.12
961.3154, 58005.15
961.7975, 58233.08
962.2796, 58476.67
962.7617, 58589.99
963.2438, 58548.92
963.7260, 58326.00
964.2081, 57836.28
964.6902, 57218.74
965.1723, 56631.61
965.6544, 56074.56
966.1365, 55502.75
966.6187, 54899.98
967.1008, 54355.40
967.5829, 53995.71
968.0650, 53719.63
968.5471, 53380.92
969.0292, 52942.88
969.5114, 52613.89
969.9935, 52520.45
970.4756, 52432.23
970.9577, 52240.69
971.4398, 51970.01
971.9219, 51745.29
972.4041, 51566.74
972.8862, 51427.76
973.3683, 51345.54
973.8504, 51278.05
974.3325, 51180.96
974.8146, 51072.10
975.2968, 50990.18
975.7789, 50969.39
976.2610, 50919.16
976.7431, 50815.90
977.2252, 50710.39
977.7073, 50692.14
978.1895, 50731.85
978.6716, 50708.24
979.1537, 50601.47
979.6358, 50509.47
980.1179, 50498.18
980.6000, 50527.11
981.0822, 50584.23
981.5642, 50668.45
982.0463, 50696.07
982.5284, 50650.06
983.0106, 50612.88
983.4927, 50636.17
983.9748, 50678.88
984.4569, 50641.51
984.9390, 50552.20
985.4211, 50490.52
985.9033, 50520.04
986.3854, 50545.20
986.8675, 50525.17
987.3496, 50490.63
987.8317, 50478.78
988.3138, 50493.07
988.7960, 50494.80
989.2781, 50478.18
989.7602, 50467.89
990.2423, 50503.34
990.7244, 50550.64
991.2065, 50566.89
991.6887, 50548.31
992.1708, 50522.24
992.6529, 50490.08
993.1350, 50459.29
993.6171, 50434.74
994.0992, 50413.03
994.5814, 50374.34
995.0635, 50322.85
995.5456, 50290.38
996.0277, 50298.17
996.5098, 50316.03
996.9919, 50328.13
997.4741, 50333.04
997.9562, 50328.48
998.4383, 50317.67
998.9204, 50287.02
999.4025, 50227.69
999.8846, 50169.34
1000.367, 50130.54
1000.849, 50116.01
1001.331, 50157.38
1001.813, 50249.88
1002.295, 50315.28
1002.777, 50313.96
1003.259, 50273.95
1003.742, 50181.84
1004.224, 50064.07
1004.706, 50015.37
1005.188, 50040.34
1005.670, 50090.86
1006.152, 50165.64
1006.634, 50231.09
1007.116, 50227.70
1007.599, 50193.21
1008.081, 50188.01
1008.563, 50244.96
1009.045, 50278.68
1009.527, 50265.08
1010.009, 50245.60
1010.491, 50248.19
1010.973, 50271.21
1011.455, 50301.46
1011.938, 50337.25
1012.420, 50361.25
1012.902, 50338.12
1013.384, 50322.21
1013.866, 50372.28
1014.348, 50458.09
1014.830, 50482.41
1015.312, 50421.00
1015.794, 50359.50
1016.277, 50304.04
1016.759, 50271.34
1017.241, 50305.57
1017.723, 50374.71
1018.205, 50420.77
1018.687, 50435.55
1019.169, 50413.79
1019.651, 50296.93
1020.134, 50201.17
1020.616, 50191.32
1021.098, 50257.69
1021.580, 50312.78
1022.062, 50356.64
1022.544, 50393.27
1023.026, 50438.86
1023.508, 50460.60
1023.990, 50382.48
1024.473, 50268.83
1024.955, 50233.44
1025.437, 50382.97
1025.919, 50458.48
1026.401, 50432.34
1026.883, 50372.20
1027.365, 50325.59
1027.847, 50302.50
1028.330, 50348.28
1028.812, 50460.87
1029.294, 50570.72
1029.776, 50673.38
1030.258, 50727.39
1030.740, 50688.90
1031.222, 50588.88
1031.704, 50515.75
1032.187, 50469.93
1032.669, 50449.39
1033.151, 50461.43
1033.633, 50474.23
1034.115, 50424.12
1034.597, 50363.45
1035.079, 50367.02
1035.561, 50475.18
1036.043, 50562.56
1036.526, 50623.52
1037.008, 50655.64
1037.490, 50642.09
1037.972, 50600.68
1038.454, 50615.86
1038.936, 50674.93
1039.418, 50714.92
1039.900, 50682.77
1040.382, 50645.61
1040.865, 50631.69
1041.347, 50634.86
1041.829, 50651.23
1042.311, 50688.58
1042.793, 50689.07
1043.275, 50644.37
1043.757, 50582.57
1044.239, 50502.34
1044.722, 50438.50
1045.204, 50448.17
1045.686, 50532.26
1046.168, 50592.32
1046.650, 50601.96
1047.132, 50601.74
1047.614, 50602.41
1048.096, 50602.06
1048.578, 50597.80
1049.061, 50588.77
1049.543, 50569.19
1050.025, 50532.50
1050.507, 50499.89
1050.989, 50497.07
1051.471, 50492.31
1051.953, 50458.94
1052.435, 50394.32
1052.917, 50314.02
1053.400, 50214.52
1053.882, 50144.73
1054.364, 50175.54
1054.846, 50221.01
1055.328, 50161.25
1055.810, 50037.38
1056.292, 49956.97
1056.774, 49972.50
1057.257, 49984.74
1057.739, 49981.55
1058.221, 49980.61
1058.703, 50026.81
1059.185, 50091.04
1059.667, 50066.67
1060.149, 49947.16
1060.631, 49845.36
1061.114, 49843.84
1061.596, 49852.46
1062.078, 49819.16
1062.560, 49762.02
1063.042, 49756.80
1063.524, 49804.05
1064.006, 49812.88
1064.488, 49740.36
1064.970, 49674.54
1065.453, 49732.69
1065.935, 49829.79
1066.417, 49866.68
1066.899, 49810.95
1067.381, 49746.67
1067.863, 49662.41
1068.345, 49602.16
1068.827, 49610.32
1069.309, 49647.61
1069.792, 49609.45
1070.274, 49523.48
1070.756, 49468.55
1071.238, 49497.80
1071.720, 49536.29
1072.202, 49580.37
1072.684, 49614.39
1073.166, 49625.48
1073.649, 49612.86
1074.131, 49539.85
1074.613, 49407.18
1075.095, 49317.67
1075.577, 49382.68
1076.059, 49478.11
1076.541, 49536.78
1077.023, 49554.23
1077.505, 49524.25
1077.988, 49428.36
1078.470, 49387.03
1078.952, 49436.27
1079.434, 49502.74
1079.916, 49481.83
1080.398, 49429.67
1080.880, 49441.25
1081.362, 49549.77
1081.844, 49562.44
1082.327, 49410.54
1082.809, 49256.67
1083.291, 49156.30
1083.773, 49110.29
1084.255, 49149.95
1084.737, 49247.07
1085.219, 49307.99
1085.701, 49288.00
1086.183, 49251.61
1086.666, 49211.52
1087.148, 49175.96
1087.630, 49157.44
1088.112, 49157.99
1088.594, 49116.93
1089.076, 49036.31
1089.558, 48968.85
1090.040, 48955.70
1090.523, 48961.62
1091.005, 48973.50
1091.487, 48982.03
1091.969, 48960.97
1092.451, 48886.13
1092.933, 48874.20
1093.415, 48953.36
1093.897, 49020.07
1094.380, 48915.40
1094.862, 48758.33
1095.344, 48734.87
1095.826, 48848.38
1096.308, 48922.31
1096.790, 48896.91
1097.272, 48856.60
1097.754, 48809.83
1098.236, 48773.76
1098.719, 48806.98
1099.201, 48878.53
1099.683, 48884.27
1100.165, 48784.71
1100.647, 48714.35
1101.129, 48761.77
1101.611, 48833.65
1102.093, 48888.99
1102.575, 48924.50
1103.058, 48906.18
1103.540, 48837.40
1104.022, 48758.35
1104.504, 48679.22
1104.986, 48608.02
1105.468, 48550.54
1105.950, 48505.39
1106.432, 48466.58
1106.915, 48425.08
1107.397, 48439.75
1107.879, 48520.01
1108.361, 48582.76
1108.843, 48556.20
1109.325, 48490.37
1109.807, 48430.30
1110.289, 48381.64
1110.771, 48360.24
1111.254, 48395.29
1111.736, 48405.08
1112.218, 48371.54
1112.700, 48340.72
1113.182, 48389.21
1113.664, 48468.45
1114.146, 48456.62
1114.628, 48356.96
1115.110, 48279.71
1115.593, 48299.93
1116.075, 48305.39
1116.557, 48243.80
1117.039, 48173.80
1117.521, 48243.14
1118.003, 48412.34
1118.485, 48484.77
1118.967, 48420.87
1119.450, 48344.58
1119.932, 48321.54
1120.414, 48320.13
1120.896, 48331.34
1121.378, 48348.05
1121.860, 48319.26
1122.342, 48247.50
1122.824, 48209.56
1123.307, 48239.80
1123.789, 48285.21
1124.271, 48327.96
1124.753, 48344.38
1125.235, 48290.71
1125.717, 48150.98
1126.199, 48083.63
1126.681, 48095.99
1127.163, 48123.69
1127.646, 48129.21
1128.128, 48135.58
1128.610, 48205.49
1129.092, 48288.94
1129.574, 48291.16
1130.056, 48084.60
1130.538, 48009.75
1131.020, 48106.51
1131.502, 48221.84
1131.985, 48219.68
1132.467, 48154.62
1132.949, 48137.45
1133.431, 48158.50
1133.913, 48178.66
1134.395, 48194.56
1134.877, 48191.57
1135.359, 48164.37
1135.842, 48124.32
1136.324, 48073.97
1136.806, 48022.97
1137.288, 48011.13
1137.770, 48037.96
1138.252, 48060.17
1138.734, 48043.31
1139.216, 48035.67
1139.698, 48068.71
1140.181, 48110.34
1140.663, 48082.57
1141.145, 47997.09
1141.627, 47942.09
1142.109, 47933.44
1142.591, 47925.52
1143.073, 47852.76
1143.555, 47804.39
1144.037, 47868.52
1144.520, 48002.65
1145.002, 48026.96
1145.484, 47942.15
1145.966, 47863.83
1146.448, 47824.59
1146.930, 47802.28
1147.412, 47790.93
1147.894, 47777.61
1148.377, 47745.27
1148.859, 47693.05
1149.341, 47654.47
1149.823, 47630.46
1150.305, 47615.03
1150.787, 47612.12
1151.269, 47606.12
1151.751, 47571.99
1152.234, 47527.27
1152.716, 47493.21
1153.198, 47464.41
1153.680, 47491.00
1154.162, 47592.09
1154.644, 47667.87
1155.126, 47642.04
1155.608, 47565.43
1156.090, 47495.80
1156.573, 47438.90
1157.055, 47406.50
1157.537, 47430.93
1158.019, 47429.19
1158.501, 47386.69
1158.983, 47352.46
1159.465, 47371.09
1159.947, 47423.03
1160.429, 47492.47
1160.912, 47563.16
1161.394, 47580.61
1161.876, 47460.61
1162.358, 47380.13
1162.840, 47366.31
1163.322, 47387.13
1163.804, 47416.79
1164.286, 47451.49
1164.769, 47488.18
1165.251, 47522.88
1165.733, 47531.64
1166.215, 47500.30
1166.697, 47439.61
1167.179, 47329.02
1167.661, 47221.44
1168.143, 47210.64
1168.625, 47271.92
1169.108, 47314.96
1169.590, 47328.77
1170.072, 47340.96
1170.554, 47386.96
1171.036, 47405.86
1171.518, 47364.30
1172.000, 47293.35
1172.482, 47265.77
1172.964, 47274.33
1173.447, 47283.91
1173.929, 47289.66
1174.411, 47282.06
1174.893, 47249.09
1175.375, 47207.22
1175.857, 47164.79
1176.339, 47121.58
1176.821, 47070.27
1177.304, 47014.61
1177.786, 46991.51
1178.268, 47018.27
1178.750, 47043.85
1179.232, 47018.18
1179.714, 46993.32
1180.196, 47017.18
1180.678, 47079.39
1181.161, 47078.28
1181.643, 47019.13
1182.125, 46979.02
1182.607, 47001.79
1183.089, 47011.96
1183.571, 46928.61
1184.053, 46826.56
1184.535, 46779.13
1185.017, 46786.55
1185.500, 46788.45
1185.982, 46785.10
1186.464, 46773.34
1186.946, 46740.68
1187.428, 46716.61
1187.910, 46741.89
1188.392, 46776.90
1188.874, 46765.03
1189.356, 46692.00
1189.839, 46704.98
1190.321, 46805.95
1190.803, 46887.52
1191.285, 46871.00
1191.767, 46826.98
1192.249, 46802.25
1192.731, 46791.13
1193.213, 46786.56
1193.696, 46791.52
1194.178, 46792.85
1194.660, 46792.28
1195.142, 46764.99
1195.624, 46663.59
1196.106, 46559.06
1196.588, 46526.73
1197.070, 46531.03
1197.552, 46494.37
1198.035, 46394.63
1198.517, 46354.78
1198.999, 46383.54
1199.481, 46430.86
1199.963, 46481.68
1200.445, 46512.29
1200.927, 46475.21
1201.409, 46405.85
1201.891, 46398.98
1202.374, 46475.72
1202.856, 46529.70
1203.338, 46553.86
1203.820, 46548.82
1204.302, 46493.51
1204.784, 46428.04
1205.266, 46383.87
1205.748, 46361.93
1206.231, 46353.61
1206.713, 46357.68
1207.195, 46386.82
1207.677, 46447.25
1208.159, 46496.60
1208.641, 46493.89
1209.123, 46464.52
1209.605, 46424.63
1210.088, 46377.83
1210.570, 46330.55
1211.052, 46279.41
1211.534, 46252.62
1212.016, 46258.76
1212.498, 46259.41
1212.980, 46192.05
1213.462, 46121.78
1213.944, 46120.76
1214.427, 46177.93
1214.909, 46198.61
1215.391, 46176.50
1215.873, 46161.92
1216.355, 46166.33
1216.837, 46168.46
1217.319, 46134.25
1217.801, 46098.65
1218.283, 46106.17
1218.766, 46147.41
1219.248, 46142.81
1219.730, 46085.98
1220.212, 46038.70
1220.694, 46015.32
1221.176, 46000.23
1221.658, 45984.68
1222.140, 45965.36
1222.623, 45936.16
1223.105, 45899.22
1223.587, 45871.61
1224.069, 45854.35
1224.551, 45826.80
1225.033, 45778.11
1225.515, 45743.76
1225.997, 45757.21
1226.479, 45798.41
1226.962, 45876.82
1227.444, 45974.87
1227.926, 45959.60
1228.408, 45829.44
1228.890, 45737.43
1229.372, 45732.65
1229.854, 45748.02
1230.336, 45734.88
1230.818, 45711.62
1231.301, 45684.38
1231.783, 45658.72
1232.265, 45685.71
1232.747, 45762.02
1233.229, 45795.04
1233.711, 45747.51
1234.193, 45687.93
1234.675, 45649.84
1235.158, 45637.03
1235.640, 45673.54
1236.122, 45738.83
1236.604, 45662.05
1237.086, 45466.08
1237.568, 45369.39
1238.050, 45473.82
1238.532, 45582.74
1239.015, 45572.95
1239.497, 45522.58
1239.979, 45488.38
1240.461, 45462.77
1240.943, 45384.66
1241.425, 45270.58
1241.907, 45214.93
1242.389, 45270.59
1242.871, 45322.16
1243.354, 45296.31
1243.836, 45264.18
1244.318, 45265.08
1244.800, 45291.97
1245.282, 45317.54
1245.764, 45342.41
1246.246, 45372.22
1246.728, 45417.73
1247.210, 45439.54
1247.693, 45391.37
1248.175, 45351.86
1248.657, 45363.50
1249.139, 45409.98
1249.621, 45448.80
1250.103, 45476.59
1250.585, 45486.72
1251.067, 45482.14
1251.550, 45439.36
1252.032, 45304.88
1252.514, 45222.34
1252.996, 45298.46
1253.478, 45447.89
1253.960, 45460.07
1254.442, 45379.41
1254.924, 45294.62
1255.406, 45222.68
1255.889, 45168.90
1256.371, 45129.99
1256.853, 45118.23
1257.335, 45164.46
1257.817, 45210.61
1258.299, 45114.19
1258.781, 44956.49
1259.263, 44877.96
1259.745, 44938.78
1260.228, 45003.41
1260.710, 45079.65
1261.192, 45112.94
1261.674, 45056.66
1262.156, 44973.59
1262.638, 44939.27
1263.120, 44940.18
1263.602, 44965.29
1264.085, 45021.62
1264.567, 45045.84
1265.049, 45036.24
1265.531, 45010.80
1266.013, 44983.01
1266.495, 44932.98
1266.977, 44794.25
1267.459, 44650.51
1267.942, 44616.82
1268.424, 44696.91
1268.906, 44740.53
1269.388, 44748.57
1269.870, 44747.24
1270.352, 44747.06
1270.834, 44742.52
1271.316, 44718.05
1271.798, 44697.84
1272.281, 44711.36
1272.763, 44751.39
1273.245, 44720.63
1273.727, 44633.84
1274.209, 44599.38
1274.691, 44692.36
1275.173, 44758.36
1275.655, 44685.12
1276.137, 44595.84
1276.620, 44564.32
1277.102, 44575.48
1277.584, 44565.01
1278.066, 44541.14
1278.548, 44535.43
1279.030, 44572.84
1279.512, 44581.32
1279.994, 44519.28
1280.476, 44464.09
1280.959, 44458.33
1281.441, 44479.33
1281.923, 44465.16
1282.405, 44436.71
1282.887, 44443.19
1283.369, 44513.29
1283.851, 44545.81
1284.333, 44517.00
1284.816, 44497.99
1285.298, 44529.82
1285.780, 44570.41
1286.262, 44538.08
1286.744, 44480.25
1287.226, 44475.29
1287.708, 44549.82
1288.190, 44544.45
1288.672, 44441.11
1289.155, 44384.25
1289.637, 44453.96
1290.119, 44527.37
1290.601, 44452.95
1291.083, 44336.82
1291.565, 44301.51
1292.047, 44340.89
1292.529, 44336.47
1293.011, 44290.30
1293.494, 44257.40
1293.976, 44258.49
1294.458, 44263.19
1294.940, 44262.89
1295.422, 44244.76
1295.904, 44193.78
1296.386, 44123.21
1296.868, 44093.86
1297.351, 44094.66
1297.833, 44075.51
1298.315, 44017.40
1298.797, 43979.30
1299.279, 44002.34
1299.761, 44028.71
1300.243, 44042.34
1300.725, 44048.24
1301.208, 44047.54
1301.690, 44044.69
1302.172, 44054.34
1302.654, 44082.73
1303.136, 44082.80
1303.618, 44044.85
1304.100, 43991.25
1304.582, 43939.67
1305.064, 43897.89
##END=



