##NAMES=Fluorapatite
##RRUFFID=R050617
##IDEAL CHEMISTRY=Ca_5_(PO_4_)_3_F
##LOCALITY=Santa Cruz, Sonora, Mexico
##OWNER=RRUFF
##SOURCE=University of Arizona Mineral Museum
##DESCRIPTION=Tan colored hexagonal prism
##STATUS=The identification of this mineral is confirmed by single-crystal X-ray diffraction and chemical analysis.
##URL=rruff.info/R050617
##MEASURED CHEMISTRY=Ca_5.00_(P_1.00_O_4_)_3_(F_0.99_Cl_0.01_)
125.8476, 189.0726
126.3298, 190.5668
126.8119, 191.8036
127.2940, 193.4074
127.7761, 196.1833
128.2582, 199.0183
128.7404, 201.3158
129.2225, 202.9199
129.7046, 203.9239
130.1867, 204.3541
130.6688, 203.5606
131.1509, 203.4631
131.6331, 204.4956
132.1152, 206.1276
132.5973, 207.9101
133.0794, 209.6183
133.5615, 211.3000
134.0436, 213.1236
134.5258, 215.0628
135.0079, 217.1880
135.4900, 220.0465
135.9721, 223.0765
136.4542, 225.2478
136.9363, 225.7717
137.4184, 224.7924
137.9006, 224.7469
138.3827, 227.1142
138.8648, 228.8704
139.3469, 228.2760
139.8290, 225.5334
140.3111, 222.2506
140.7933, 219.5059
141.2754, 217.3275
141.7575, 215.4511
142.2396, 213.7961
142.7217, 212.4787
143.2038, 211.7582
143.6860, 211.7530
144.1681, 211.8638
144.6502, 211.3960
145.1323, 210.6316
145.6144, 210.2510
146.0965, 210.9749
146.5787, 212.3465
147.0608, 212.7824
147.5429, 211.3552
148.0250, 210.1914
148.5071, 210.6471
148.9892, 212.3425
149.4714, 214.1906
149.9535, 215.3283
150.4356, 215.6969
150.9177, 216.1353
151.3998, 216.5974
151.8819, 217.1743
152.3641, 217.8275
152.8462, 218.6055
153.3283, 219.6627
153.8104, 221.3650
154.2925, 224.3875
154.7746, 226.0550
155.2568, 225.5253
155.7389, 224.5613
156.2210, 223.9963
156.7031, 224.1054
157.1852, 224.9330
157.6673, 226.6186
158.1495, 230.1647
158.6316, 232.8472
159.1137, 234.6500
159.5958, 235.6409
160.0779, 235.6772
160.5600, 234.6778
161.0422, 233.1705
161.5243, 232.1793
162.0064, 231.5478
162.4885, 231.6172
162.9706, 233.0232
163.4527, 235.1627
163.9349, 236.8613
164.4170, 237.6561
164.8991, 237.7855
165.3812, 237.6517
165.8633, 237.0470
166.3454, 236.7728
166.8276, 237.1494
167.3097, 238.1881
167.7918, 240.1269
168.2739, 244.0583
168.7560, 248.2167
169.2381, 250.4616
169.7203, 250.2769
170.2024, 249.1620
170.6845, 248.5942
171.1666, 248.6895
171.6487, 248.6635
172.1308, 247.8187
172.6130, 246.9501
173.0951, 246.7452
173.5772, 247.4587
174.0593, 248.6480
174.5414, 249.4475
175.0235, 249.3497
175.5057, 249.9710
175.9878, 252.2238
176.4699, 254.9547
176.9520, 257.0676
177.4341, 258.0366
177.9162, 258.2403
178.3984, 258.8861
178.8805, 260.5933
179.3626, 261.9598
179.8447, 262.5242
180.3268, 262.7475
180.8089, 263.1132
181.2911, 263.8656
181.7732, 265.0589
182.2553, 267.0693
182.7374, 271.4441
183.2195, 274.9454
183.7016, 276.5314
184.1838, 276.8293
184.6659, 276.9843
185.1480, 277.6954
185.6301, 278.8947
186.1122, 279.8655
186.5943, 280.2330
187.0765, 280.7958
187.5586, 282.0325
188.0407, 283.7683
188.5228, 285.4213
189.0049, 286.5939
189.4870, 287.3270
189.9692, 288.1089
190.4513, 288.7812
190.9334, 289.6198
191.4155, 291.0743
191.8976, 293.0764
192.3797, 294.6285
192.8619, 294.5099
193.3440, 293.5162
193.8261, 293.8955
194.3082, 296.9712
194.7903, 300.7914
195.2724, 303.1809
195.7546, 303.9414
196.2367, 304.5647
196.7188, 306.3186
197.2009, 308.4698
197.6830, 309.9770
198.1651, 310.1849
198.6473, 309.8145
199.1294, 310.1664
199.6115, 311.5254
200.0936, 312.9099
200.5757, 313.6821
201.0578, 314.2447
201.5400, 315.1240
202.0221, 316.6082
202.5042, 318.5299
202.9863, 320.5201
203.4684, 322.9841
203.9505, 324.7513
204.4327, 325.1516
204.9148, 324.8164
205.3969, 324.5438
205.8790, 324.7102
206.3611, 325.3448
206.8432, 326.6545
207.3254, 329.5566
207.8075, 332.0640
208.2896, 333.4795
208.7717, 334.2765
209.2538, 335.1660
209.7359, 336.5952
210.2181, 338.5104
210.7002, 340.3572
211.1823, 342.6584
211.6644, 344.3261
212.1465, 344.7017
212.6286, 344.3197
213.1108, 344.0588
213.5929, 344.4941
214.0750, 345.5937
214.5571, 346.8819
215.0392, 348.6811
215.5213, 350.3213
216.0035, 351.3445
216.4856, 352.0445
216.9677, 353.1123
217.4498, 355.0930
217.9319, 357.8638
218.4140, 359.8676
218.8961, 359.9474
219.3783, 360.5834
219.8604, 363.2000
220.3425, 367.2727
220.8246, 371.1520
221.3067, 373.7805
221.7888, 375.2988
222.2710, 377.0168
222.7531, 379.1217
223.2352, 381.2161
223.7173, 382.9150
224.1994, 384.3470
224.6815, 386.2243
225.1637, 389.2354
225.6458, 392.9470
226.1279, 395.6774
226.6100, 396.5484
227.0921, 397.3240
227.5742, 399.0992
228.0564, 401.8236
228.5385, 405.1149
229.0206, 409.0532
229.5027, 413.3230
229.9848, 417.1748
230.4669, 420.6154
230.9491, 423.5923
231.4312, 425.9573
231.9133, 427.7132
232.3954, 429.2892
232.8775, 430.8240
233.3596, 432.3001
233.8418, 433.6181
234.3239, 434.6245
234.8060, 435.7982
235.2881, 437.7381
235.7702, 440.5169
236.2523, 443.3862
236.7345, 445.9234
237.2166, 448.4950
237.6987, 451.6082
238.1808, 455.5300
238.6629, 459.2825
239.1451, 461.4805
239.6272, 461.8354
240.1093, 462.2087
240.5914, 462.5800
241.0735, 463.5014
241.5556, 465.7043
242.0378, 469.3991
242.5199, 473.4465
243.0020, 476.4648
243.4841, 478.3029
243.9662, 479.5457
244.4483, 479.4464
244.9305, 479.3539
245.4126, 480.3651
245.8947, 482.6625
246.3768, 485.2580
246.8589, 486.6326
247.3410, 486.1434
247.8232, 486.4528
248.3053, 489.0740
248.7874, 491.6227
249.2695, 492.3019
249.7516, 490.9592
250.2337, 489.1157
250.7159, 488.8271
251.1980, 490.6650
251.6801, 492.5803
252.1622, 495.1086
252.6443, 497.2758
253.1264, 498.5396
253.6086, 498.8301
254.0907, 498.3841
254.5728, 497.3000
255.0549, 494.9564
255.5370, 493.9316
256.0191, 494.8886
256.5013, 496.3674
256.9834, 497.5717
257.4655, 498.4576
257.9476, 499.5021
258.4297, 501.2865
258.9118, 504.1123
259.3940, 506.4475
259.8761, 508.5976
260.3582, 510.1165
260.8403, 510.1341
261.3224, 509.0623
261.8045, 508.4603
262.2867, 509.9312
262.7688, 513.8978
263.2509, 517.0764
263.7330, 518.3771
264.2151, 520.0383
264.6972, 523.7970
265.1794, 529.0704
265.6615, 533.7098
266.1436, 535.8138
266.6257, 535.2473
267.1078, 535.3834
267.5899, 536.3707
268.0721, 537.7416
268.5542, 539.3699
269.0363, 541.2203
269.5184, 543.2158
270.0005, 545.2267
270.4826, 547.3203
270.9648, 550.3668
271.4469, 555.4115
271.9290, 560.0973
272.4111, 562.9958
272.8932, 564.7995
273.3753, 567.3245
273.8575, 571.7192
274.3396, 577.5587
274.8217, 582.6454
275.3038, 586.8351
275.7859, 590.6327
276.2680, 593.7772
276.7502, 596.6390
277.2323, 599.8848
277.7144, 603.7094
278.1965, 608.3131
278.6786, 614.7148
279.1607, 624.4432
279.6429, 632.8401
280.1250, 637.9103
280.6071, 640.9249
281.0892, 643.8436
281.5713, 647.1880
282.0534, 651.3793
282.5356, 657.7914
283.0177, 667.1993
283.4998, 675.6815
283.9819, 681.1254
284.4640, 685.3254
284.9461, 691.1613
285.4283, 699.5256
285.9104, 709.0267
286.3925, 718.0211
286.8746, 726.5979
287.3567, 734.3698
287.8388, 740.3835
288.3210, 745.9283
288.8031, 752.6610
289.2852, 760.9647
289.7673, 770.0563
290.2494, 779.3248
290.7315, 788.7921
291.2137, 797.8644
291.6958, 805.2642
292.1779, 812.9138
292.6600, 823.4877
293.1421, 837.2938
293.6242, 851.1005
294.1064, 861.5596
294.5885, 869.5455
295.0706, 879.5306
295.5527, 893.6896
296.0348, 908.8046
296.5169, 922.1642
296.9991, 933.7267
297.4812, 944.6136
297.9633, 954.7869
298.4454, 964.9535
298.9275, 976.9510
299.4096, 991.7166
299.8918, 1007.332
300.3739, 1023.112
300.8560, 1038.905
301.3381, 1053.178
301.8202, 1064.478
302.3023, 1074.455
302.7845, 1086.658
303.2666, 1101.457
303.7487, 1117.302
304.2308, 1133.397
304.7129, 1149.772
305.1950, 1166.798
305.6772, 1184.914
306.1593, 1203.309
306.6414, 1220.889
307.1235, 1237.725
307.6056, 1254.132
308.0877, 1269.878
308.5699, 1285.374
309.0520, 1302.019
309.5341, 1320.700
310.0162, 1339.094
310.4983, 1353.336
310.9804, 1364.216
311.4626, 1376.833
311.9447, 1393.862
312.4268, 1413.222
312.9089, 1432.116
313.3910, 1450.437
313.8731, 1467.914
314.3553, 1484.047
314.8374, 1499.139
315.3195, 1514.304
315.8016, 1529.777
316.2837, 1545.420
316.7658, 1561.112
317.2480, 1576.856
317.7301, 1592.391
318.2122, 1607.903
318.6943, 1623.030
319.1764, 1636.954
319.6585, 1649.561
320.1407, 1661.036
320.6228, 1671.119
321.1049, 1679.965
321.5870, 1688.850
322.0691, 1698.365
322.5512, 1708.131
323.0334, 1717.999
323.5155, 1728.782
323.9976, 1737.099
324.4797, 1739.933
324.9618, 1738.693
325.4439, 1737.617
325.9261, 1737.908
326.4082, 1738.639
326.8903, 1738.911
327.3724, 1738.821
327.8545, 1737.459
328.3366, 1733.514
328.8188, 1728.354
329.3009, 1725.048
329.7830, 1724.733
330.2651, 1722.894
330.7472, 1713.510
331.2293, 1698.057
331.7115, 1684.379
332.1936, 1673.674
332.6757, 1665.513
333.1578, 1661.196
333.6399, 1660.723
334.1220, 1657.654
334.6042, 1646.222
335.0863, 1628.762
335.5684, 1615.130
336.0505, 1608.248
336.5326, 1602.557
337.0147, 1594.346
337.4969, 1584.139
337.9790, 1574.218
338.4611, 1565.409
338.9432, 1557.750
339.4253, 1551.325
339.9074, 1546.833
340.3896, 1541.716
340.8717, 1534.106
341.3538, 1525.271
341.8359, 1518.075
342.3180, 1513.625
342.8001, 1509.782
343.2822, 1502.739
343.7643, 1491.996
344.2465, 1483.588
344.7286, 1481.047
345.2107, 1480.172
345.6928, 1475.694
346.1749, 1466.901
346.6570, 1457.964
347.1392, 1452.889
347.6213, 1451.853
348.1034, 1449.427
348.5855, 1444.984
349.0676, 1439.664
349.5497, 1433.826
350.0319, 1427.627
350.5140, 1421.547
350.9961, 1415.704
351.4782, 1410.270
351.9603, 1406.085
352.4424, 1404.885
352.9246, 1402.626
353.4067, 1397.379
353.8888, 1390.327
354.3709, 1383.175
354.8530, 1376.403
355.3351, 1370.840
355.8173, 1368.524
356.2994, 1371.968
356.7815, 1372.755
357.2636, 1368.322
357.7457, 1361.947
358.2278, 1356.376
358.7100, 1352.222
359.1921, 1349.391
359.6742, 1348.338
360.1563, 1349.898
360.6384, 1347.282
361.1205, 1336.458
361.6027, 1325.562
362.0848, 1319.411
362.5669, 1317.187
363.0490, 1315.301
363.5311, 1311.414
364.0132, 1305.693
364.4954, 1299.479
364.9775, 1290.931
365.4596, 1284.085
365.9417, 1280.685
366.4238, 1279.198
366.9059, 1277.920
367.3881, 1276.134
367.8702, 1273.459
368.3523, 1269.061
368.8344, 1261.839
369.3165, 1254.535
369.7986, 1246.892
370.2808, 1239.323
370.7629, 1231.713
371.2450, 1224.286
371.7271, 1217.964
372.2092, 1214.056
372.6913, 1213.151
373.1735, 1210.672
373.6556, 1204.717
374.1377, 1199.207
374.6198, 1196.394
375.1019, 1195.093
375.5840, 1192.801
376.0662, 1187.882
376.5483, 1180.757
377.0304, 1173.446
377.5125, 1165.300
377.9946, 1157.981
378.4767, 1151.101
378.9589, 1145.451
379.4410, 1142.543
379.9231, 1142.730
380.4052, 1143.600
380.8873, 1140.653
381.3694, 1131.608
381.8516, 1126.328
382.3337, 1129.039
382.8158, 1132.804
383.2979, 1134.486
383.7800, 1133.896
384.2621, 1132.167
384.7443, 1129.622
385.2264, 1126.471
385.7085, 1125.402
386.1906, 1128.065
386.6727, 1130.506
387.1548, 1131.020
387.6370, 1130.365
388.1191, 1129.491
388.6012, 1128.514
389.0833, 1128.121
389.5654, 1129.968
390.0475, 1134.678
390.5297, 1138.762
391.0118, 1140.160
391.4939, 1141.060
391.9760, 1143.334
392.4581, 1147.254
392.9402, 1151.344
393.4224, 1154.575
393.9045, 1156.982
394.3866, 1158.375
394.8687, 1157.323
395.3508, 1157.663
395.8329, 1163.837
396.3151, 1174.111
396.7972, 1182.836
397.2793, 1186.474
397.7614, 1188.003
398.2435, 1191.780
398.7256, 1197.963
399.2078, 1204.522
399.6899, 1210.382
400.1720, 1215.794
400.6541, 1221.471
401.1362, 1227.865
401.6183, 1233.688
402.1005, 1238.232
402.5826, 1241.589
403.0647, 1243.608
403.5468, 1243.717
404.0289, 1243.850
404.5110, 1246.960
404.9932, 1253.056
405.4753, 1260.168
405.9574, 1269.657
406.4395, 1278.917
406.9216, 1284.746
407.4037, 1287.180
407.8859, 1289.446
408.3680, 1294.070
408.8501, 1300.861
409.3322, 1306.861
409.8143, 1311.732
410.2964, 1316.377
410.7786, 1321.707
411.2607, 1326.944
411.7428, 1330.389
412.2249, 1331.258
412.7070, 1331.144
413.1891, 1333.231
413.6713, 1339.461
414.1534, 1344.501
414.6355, 1347.452
415.1176, 1349.937
415.5997, 1353.626
416.0818, 1358.269
416.5640, 1361.818
417.0461, 1362.113
417.5282, 1359.084
418.0103, 1358.171
418.4924, 1361.290
418.9745, 1364.521
419.4567, 1367.227
419.9388, 1369.471
420.4209, 1371.569
420.9030, 1373.657
421.3851, 1375.344
421.8672, 1375.507
422.3494, 1372.935
422.8315, 1371.970
423.3136, 1374.512
423.7957, 1377.531
424.2778, 1379.989
424.7599, 1381.396
425.2421, 1380.755
425.7242, 1376.100
426.2063, 1368.053
426.6884, 1363.054
427.1705, 1362.840
427.6526, 1362.850
428.1348, 1361.306
428.6169, 1358.652
429.0990, 1355.600
429.5811, 1352.602
430.0632, 1348.771
430.5453, 1342.636
431.0275, 1334.156
431.5096, 1325.533
431.9917, 1316.987
432.4738, 1308.969
432.9559, 1302.313
433.4380, 1296.991
433.9202, 1290.607
434.4023, 1280.900
434.8844, 1269.730
435.3665, 1260.990
435.8486, 1255.307
436.3307, 1249.071
436.8129, 1238.709
437.2950, 1225.630
437.7771, 1215.869
438.2592, 1212.012
438.7413, 1208.831
439.2234, 1204.035
439.7056, 1197.780
440.1877, 1190.120
440.6698, 1180.854
441.1519, 1171.153
441.6340, 1162.852
442.1161, 1156.507
442.5983, 1150.043
443.0804, 1142.084
443.5625, 1134.953
444.0446, 1131.309
444.5267, 1130.535
445.0089, 1129.231
445.4910, 1124.857
445.9731, 1117.631
446.4552, 1109.619
446.9373, 1097.963
447.4194, 1088.866
447.9016, 1085.398
448.3837, 1083.944
448.8658, 1080.422
449.3479, 1073.664
449.8300, 1065.561
450.3121, 1058.780
450.7943, 1053.570
451.2764, 1048.756
451.7585, 1044.964
452.2406, 1040.974
452.7227, 1036.314
453.2048, 1031.085
453.6870, 1025.495
454.1691, 1019.449
454.6512, 1013.435
455.1333, 1008.826
455.6154, 1006.226
456.0975, 1003.249
456.5797, 998.3679
457.0618, 993.2668
457.5439, 989.6489
458.0260, 987.7497
458.5081, 985.1092
458.9902, 979.0098
459.4724, 970.5648
459.9545, 963.7877
460.4366, 959.3094
460.9187, 955.8885
461.4008, 952.9147
461.8829, 950.2902
462.3651, 947.8513
462.8472, 946.0714
463.3293, 943.9308
463.8114, 940.1344
464.2935, 935.2156
464.7756, 931.1849
465.2578, 928.8983
465.7399, 927.5280
466.2220, 925.9360
466.7041, 924.3670
467.1862, 921.6049
467.6683, 915.8919
468.1505, 910.0895
468.6326, 907.3932
469.1147, 907.2614
469.5968, 906.0588
470.0789, 900.9708
470.5610, 892.7614
471.0432, 886.6796
471.5253, 883.6862
472.0074, 881.6849
472.4895, 881.9513
472.9716, 882.3146
473.4537, 880.0067
473.9359, 874.7238
474.4180, 869.2049
474.9001, 867.2287
475.3822, 869.5376
475.8643, 869.2821
476.3464, 862.9132
476.8286, 857.7495
477.3107, 857.1282
477.7928, 859.0485
478.2749, 860.1868
478.7570, 859.0428
479.2391, 856.6071
479.7213, 854.5745
480.2034, 853.0687
480.6855, 850.7875
481.1676, 846.9584
481.6497, 842.6427
482.1318, 838.2505
482.6140, 833.9367
483.0961, 830.8337
483.5782, 830.6037
484.0603, 831.4271
484.5424, 830.1201
485.0245, 826.5140
485.5067, 823.1174
485.9888, 821.5563
486.4709, 820.9777
486.9530, 819.0249
487.4351, 814.7339
487.9172, 811.2697
488.3994, 810.6959
488.8815, 811.1527
489.3636, 810.0114
489.8457, 806.8124
490.3278, 802.9880
490.8099, 799.7924
491.2921, 797.2489
491.7742, 795.1866
492.2563, 793.7795
492.7384, 792.5750
493.2205, 791.4794
493.7026, 790.4937
494.1848, 789.8741
494.6669, 789.6693
495.1490, 789.1675
495.6311, 786.9840
496.1132, 782.2726
496.5953, 778.6454
497.0775, 776.2424
497.5596, 774.8162
498.0417, 775.3387
498.5238, 776.7208
499.0059, 776.6703
499.4880, 773.6953
499.9702, 769.1468
500.4523, 765.5465
500.9344, 762.9028
501.4165, 761.1298
501.8986, 760.8817
502.3807, 760.9440
502.8629, 760.0755
503.3450, 758.3020
503.8271, 756.7526
504.3092, 755.9890
504.7913, 755.7679
505.2734, 756.2420
505.7556, 757.4014
506.2377, 757.1544
506.7198, 753.7826
507.2019, 748.4042
507.6840, 744.4609
508.1661, 741.7532
508.6482, 740.5861
509.1303, 742.1353
509.6125, 744.7041
510.0946, 746.8039
510.5767, 747.9996
511.0588, 747.7050
511.5409, 745.1839
512.0231, 740.4525
512.5052, 736.2673
512.9873, 733.1107
513.4694, 729.9132
513.9515, 725.3889
514.4337, 721.2343
514.9158, 720.0073
515.3979, 722.2108
515.8800, 725.0592
516.3621, 724.6609
516.8442, 720.5720
517.3264, 717.9979
517.8085, 717.8593
518.2906, 718.1444
518.7727, 718.3684
519.2548, 718.2717
519.7369, 717.3458
520.2191, 715.2168
520.7012, 712.7247
521.1833, 710.9312
521.6654, 709.7021
522.1475, 707.8586
522.6296, 704.8287
523.1118, 701.7086
523.5939, 699.8645
524.0760, 699.1202
524.5581, 698.2825
525.0402, 697.0870
525.5223, 695.7963
526.0045, 694.7578
526.4866, 693.7946
526.9687, 692.2366
527.4508, 689.7360
527.9329, 686.9501
528.4150, 685.2181
528.8972, 685.6675
529.3793, 684.4881
529.8614, 679.8658
530.3435, 675.4033
530.8256, 673.2724
531.3077, 672.9895
531.7899, 673.1302
532.2720, 672.9810
532.7541, 672.1884
533.2362, 669.5314
533.7183, 664.0142
534.2004, 659.4249
534.6826, 656.8463
535.1647, 655.0363
535.6468, 653.4862
536.1289, 652.1108
536.6110, 650.8630
537.0931, 649.4292
537.5753, 648.2476
538.0574, 648.8604
538.5395, 651.4323
539.0216, 652.0452
539.5037, 648.0724
539.9858, 642.1429
540.4680, 638.8499
540.9501, 638.5988
541.4322, 637.9624
541.9143, 635.2101
542.3964, 632.1345
542.8785, 630.7416
543.3607, 630.9096
543.8428, 631.1565
544.3249, 630.5871
544.8070, 629.3099
545.2891, 627.7145
545.7712, 625.4293
546.2534, 623.3260
546.7355, 620.9371
547.2176, 619.1140
547.6997, 618.7956
548.1818, 619.7639
548.6639, 620.9158
549.1461, 621.4370
549.6282, 621.4231
550.1103, 621.2621
550.5924, 620.9533
551.0745, 620.4857
551.5566, 620.3190
552.0388, 619.6649
552.5209, 616.9788
553.0030, 612.3159
553.4851, 609.4550
553.9672, 612.2133
554.4493, 617.6052
554.9315, 620.3026
555.4136, 620.0294
555.8957, 618.5679
556.3778, 616.3611
556.8599, 614.0186
557.3420, 613.3485
557.8242, 614.8578
558.3063, 616.4800
558.7884, 618.3571
559.2705, 619.8127
559.7526, 619.7481
560.2347, 618.4632
560.7169, 617.5725
561.1990, 618.2875
561.6811, 620.2361
562.1632, 621.7556
562.6453, 622.7388
563.1274, 623.4108
563.6096, 623.4811
564.0917, 623.5207
564.5738, 623.9271
565.0559, 624.7137
565.5380, 625.7075
566.0201, 627.1525
566.5023, 628.5459
566.9844, 628.2365
567.4665, 625.8929
567.9486, 624.0238
568.4307, 623.7448
568.9128, 624.3148
569.3950, 624.7013
569.8771, 624.8936
570.3592, 625.1338
570.8413, 625.6867
571.3234, 626.2117
571.8055, 626.2317
572.2877, 625.8403
572.7698, 625.6447
573.2519, 626.0322
573.7340, 626.6523
574.2161, 626.5330
574.6982, 624.1328
575.1804, 623.7593
575.6625, 626.9657
576.1446, 630.6973
576.6267, 633.7919
577.1088, 635.7998
577.5909, 636.0129
578.0731, 633.7208
578.5552, 630.2816
579.0373, 629.0142
579.5194, 630.4902
580.0015, 630.9743
580.4836, 629.6976
580.9658, 627.1830
581.4479, 623.5458
581.9300, 619.0297
582.4121, 614.6609
582.8942, 611.2023
583.3763, 607.7269
583.8585, 602.6234
584.3406, 596.6039
584.8227, 592.5758
585.3048, 591.7550
585.7869, 592.1783
586.2690, 591.1034
586.7512, 588.0172
587.2333, 586.0073
587.7154, 585.5990
588.1975, 585.6129
588.6796, 585.7660
589.1617, 585.9410
589.6438, 586.1518
590.1259, 586.3751
590.6080, 586.2399
591.0901, 584.9846
591.5723, 582.4214
592.0544, 580.6066
592.5365, 580.2376
593.0186, 579.6301
593.5007, 577.8763
593.9828, 575.4552
594.4650, 572.7674
594.9471, 569.5436
595.4292, 567.5072
595.9113, 569.3109
596.3934, 573.1047
596.8755, 574.3721
597.3577, 572.3868
597.8398, 569.2345
598.3219, 566.1018
598.8040, 563.1695
599.2861, 561.6953
599.7682, 562.7626
600.2504, 563.6207
600.7325, 563.8885
601.2146, 563.7433
601.6967, 563.3952
602.1788, 562.8340
602.6609, 561.6962
603.1431, 559.3942
603.6252, 556.5822
604.1073, 556.5361
604.5894, 560.6196
605.0715, 563.9024
605.5536, 565.3980
606.0358, 565.4320
606.5179, 563.7137
607.0000, 560.4640
607.4821, 557.1423
607.9642, 554.2010
608.4464, 551.7191
608.9285, 550.0942
609.4106, 549.1486
609.8927, 547.7707
610.3748, 545.4000
610.8569, 542.8967
611.3391, 541.6735
611.8212, 542.3357
612.3033, 541.8626
612.7854, 538.9417
613.2675, 536.3315
613.7496, 535.3497
614.2318, 535.4796
614.7139, 536.0551
615.1960, 536.7742
615.6781, 537.0153
616.1602, 535.6638
616.6423, 532.6224
617.1245, 530.3057
617.6066, 529.6205
618.0887, 528.1075
618.5708, 522.8790
619.0529, 516.6840
619.5350, 513.6389
620.0172, 515.0299
620.4993, 516.7567
620.9814, 516.3717
621.4635, 514.8906
621.9456, 513.6844
622.4277, 512.9518
622.9099, 512.9727
623.3920, 514.1838
623.8741, 515.9326
624.3562, 515.8789
624.8383, 511.8090
625.3204, 509.1476
625.8026, 508.9994
626.2847, 509.2828
626.7668, 508.8214
627.2489, 507.6126
627.7310, 505.9656
628.2131, 503.8824
628.6953, 501.9653
629.1774, 501.6406
629.6595, 503.0012
630.1416, 503.3140
630.6237, 501.5457
631.1058, 499.4980
631.5880, 498.7459
632.0701, 498.9784
632.5522, 499.3515
633.0343, 500.2140
633.5164, 500.6292
633.9985, 499.7593
634.4807, 498.2808
634.9628, 497.1808
635.4449, 496.6733
635.9270, 496.5439
636.4091, 496.6737
636.8912, 496.9981
637.3734, 496.8392
637.8555, 496.3281
638.3376, 495.0703
638.8197, 492.2518
639.3018, 489.3281
639.7839, 487.4220
640.2661, 486.5529
640.7482, 486.0240
641.2303, 485.3311
641.7124, 484.8055
642.1945, 485.3311
642.6766, 486.7621
643.1588, 487.3106
643.6409, 486.1883
644.1230, 484.5850
644.6051, 484.1030
645.0872, 484.9787
645.5693, 484.7844
646.0515, 482.2593
646.5336, 480.0974
647.0157, 479.8184
647.4978, 480.3367
647.9799, 480.2610
648.4620, 479.2054
648.9442, 477.4845
649.4263, 475.0845
649.9084, 472.1989
650.3905, 471.0615
650.8726, 472.5724
651.3547, 473.3979
651.8369, 471.4442
652.3190, 468.8604
652.8011, 468.1135
653.2832, 469.3121
653.7653, 470.0065
654.2474, 468.8473
654.7296, 467.1132
655.2117, 465.8568
655.6938, 465.0645
656.1759, 464.6148
656.6580, 464.4716
657.1401, 464.3836
657.6223, 463.9492
658.1044, 463.0577
658.5865, 462.4827
659.0686, 463.3346
659.5507, 463.2097
660.0328, 460.5605
660.5150, 457.1121
660.9971, 454.8368
661.4792, 454.1573
661.9613, 454.0771
662.4434, 454.0343
662.9255, 453.9717
663.4077, 453.7590
663.8898, 453.3932
664.3719, 452.9359
664.8540, 452.4473
665.3361, 451.8236
665.8182, 450.8266
666.3004, 449.2739
666.7825, 448.0067
667.2646, 446.9325
667.7467, 446.2547
668.2288, 446.1294
668.7109, 446.4521
669.1931, 447.5143
669.6752, 449.2845
670.1573, 450.2298
670.6394, 447.5401
671.1215, 441.6606
671.6036, 439.0394
672.0858, 440.8070
672.5679, 442.3882
673.0500, 441.4465
673.5321, 439.3162
674.0142, 437.9624
674.4963, 437.4509
674.9785, 437.2908
675.4606, 437.3796
675.9427, 437.7306
676.4248, 438.5910
676.9069, 439.7044
677.3890, 440.5465
677.8712, 440.9029
678.3533, 440.7005
678.8354, 439.7255
679.3175, 437.8685
679.7996, 436.2546
680.2817, 434.5990
680.7639, 433.6401
681.2460, 434.5125
681.7281, 435.6717
682.2102, 435.1200
682.6923, 432.5492
683.1744, 430.3381
683.6566, 430.5094
684.1387, 431.2690
684.6208, 429.9703
685.1029, 427.0416
685.5850, 424.8152
686.0671, 424.2998
686.5493, 424.7828
687.0314, 425.2973
687.5135, 425.9737
687.9956, 425.9717
688.4777, 425.3768
688.9598, 423.9702
689.4420, 420.4160
689.9241, 416.6981
690.4062, 415.3157
690.8883, 416.6144
691.3704, 418.3372
691.8525, 418.6351
692.3347, 418.2908
692.8168, 419.2200
693.2989, 421.2873
693.7810, 422.0397
694.2631, 420.3495
694.7452, 417.5643
695.2274, 415.5451
695.7095, 414.4830
696.1916, 413.0165
696.6737, 410.5731
697.1558, 408.4542
697.6379, 407.0855
698.1201, 406.2520
698.6022, 405.8422
699.0843, 405.7433
699.5664, 405.5648
700.0485, 404.8055
700.5306, 403.8145
701.0128, 403.8284
701.4949, 404.9097
701.9770, 405.0852
702.4591, 403.6299
702.9412, 401.2248
703.4233, 398.2678
703.9055, 394.6964
704.3876, 392.6208
704.8697, 393.6953
705.3518, 394.3022
705.8339, 392.4569
706.3160, 389.9006
706.7982, 388.8298
707.2803, 389.3827
707.7624, 390.0389
708.2445, 389.6433
708.7266, 388.4286
709.2087, 386.7968
709.6909, 384.6400
710.1730, 383.3194
710.6551, 383.4037
711.1372, 383.9966
711.6193, 384.6711
712.1014, 385.2524
712.5836, 384.6780
713.0657, 381.9497
713.5478, 379.2088
714.0299, 376.7094
714.5120, 374.8470
714.9941, 374.4292
715.4763, 375.1748
715.9584, 375.6463
716.4405, 374.7762
716.9226, 373.3566
717.4047, 373.6031
717.8868, 375.8249
718.3690, 376.6643
718.8511, 375.1865
719.3332, 373.0508
719.8153, 370.9288
720.2974, 369.1022
720.7795, 368.4128
721.2617, 369.6934
721.7438, 370.5123
722.2259, 369.4722
722.7080, 368.0268
723.1901, 367.8335
723.6722, 368.5520
724.1544, 368.4574
724.6365, 366.6013
725.1186, 364.3435
725.6007, 364.3798
726.0828, 366.9529
726.5649, 368.2799
727.0471, 367.6896
727.5292, 366.9182
728.0113, 367.1779
728.4934, 367.6440
728.9755, 366.7875
729.4576, 364.1441
729.9398, 362.2579
730.4219, 362.2925
730.9040, 362.9556
731.3861, 363.7407
731.8682, 364.2584
732.3503, 363.4769
732.8325, 361.1507
733.3146, 359.0062
733.7967, 359.5684
734.2788, 362.5827
734.7609, 363.8365
735.2430, 362.7490
735.7252, 361.6590
736.2073, 361.3314
736.6894, 361.4108
737.1715, 361.4893
737.6536, 361.5702
738.1357, 361.7624
738.6179, 362.4727
739.1000, 362.8800
739.5821, 362.3212
740.0642, 361.2820
740.5463, 360.3398
741.0284, 359.6690
741.5106, 359.3276
741.9927, 359.4203
742.4748, 359.7956
742.9569, 359.8852
743.4390, 359.5937
743.9211, 359.6594
744.4033, 360.4852
744.8854, 361.2986
745.3675, 361.3463
745.8496, 360.8588
746.3317, 360.6010
746.8138, 360.9790
747.2960, 361.0307
747.7781, 360.0871
748.2602, 358.9601
748.7423, 358.4696
749.2244, 358.5222
749.7065, 358.4569
750.1887, 357.8965
750.6708, 357.4951
751.1529, 358.7912
751.6350, 361.6880
752.1171, 362.7003
752.5992, 361.1391
753.0814, 359.2759
753.5635, 357.8875
754.0456, 357.1877
754.5277, 357.8736
755.0098, 360.3898
755.4919, 362.0405
755.9741, 362.4554
756.4562, 361.9657
756.9383, 360.0604
757.4204, 357.6443
757.9025, 355.8498
758.3846, 355.0212
758.8668, 355.1737
759.3489, 356.6617
759.8310, 358.9923
760.3131, 360.7739
760.7952, 361.9962
761.2773, 362.7147
761.7595, 362.8019
762.2416, 362.7190
762.7237, 362.8668
763.2058, 363.2526
763.6879, 363.9934
764.1700, 365.9832
764.6522, 367.0882
765.1343, 366.0208
765.6164, 364.6667
766.0985, 364.6160
766.5806, 365.6801
767.0627, 366.7762
767.5449, 367.3611
768.0270, 367.8076
768.5091, 368.7041
768.9912, 369.8360
769.4733, 370.3979
769.9554, 370.2926
770.4376, 370.0023
770.9197, 369.7214
771.4018, 369.6029
771.8839, 370.0572
772.3660, 371.5212
772.8481, 372.3044
773.3303, 371.9270
773.8124, 371.4617
774.2945, 371.1931
774.7766, 371.0742
775.2587, 370.9953
775.7408, 370.9459
776.2230, 371.0910
776.7051, 371.7501
777.1872, 372.4940
777.6693, 372.7388
778.1514, 372.6260
778.6335, 372.5769
779.1157, 372.7109
779.5978, 373.0636
780.0799, 373.7843
780.5620, 374.6960
781.0441, 374.5149
781.5262, 372.5872
782.0084, 371.1071
782.4905, 370.2609
782.9726, 370.0934
783.4547, 371.5962
783.9368, 373.6885
784.4189, 373.4544
784.9011, 369.1199
785.3832, 365.4296
785.8653, 365.4780
786.3474, 366.6642
786.8295, 365.8625
787.3116, 363.6541
787.7938, 362.8737
788.2759, 364.7474
788.7580, 366.9646
789.2401, 365.8034
789.7222, 361.4745
790.2043, 358.9037
790.6865, 358.4338
791.1686, 358.3283
791.6507, 358.1169
792.1328, 357.7928
792.6149, 357.2472
793.0970, 356.4786
793.5792, 356.0396
794.0613, 356.3362
794.5434, 356.5027
795.0255, 356.5290
795.5076, 356.1149
795.9897, 354.7679
796.4719, 352.6639
796.9540, 350.4774
797.4361, 348.4706
797.9182, 346.9261
798.4003, 346.6744
798.8824, 347.2748
799.3646, 346.8606
799.8467, 345.1882
800.3288, 343.2556
800.8109, 341.5066
801.2930, 340.1020
801.7751, 339.4746
802.2573, 340.0645
802.7394, 339.9539
803.2215, 338.6007
803.7036, 337.1540
804.1857, 336.3442
804.6678, 335.3360
805.1500, 332.6220
805.6321, 328.2914
806.1142, 325.2756
806.5963, 326.2680
807.0784, 327.8760
807.5605, 326.9103
808.0427, 324.5826
808.5248, 323.4236
809.0069, 323.7337
809.4890, 323.8158
809.9711, 322.3771
810.4532, 319.9229
810.9354, 317.5290
811.4175, 315.0346
811.8996, 314.0447
812.3817, 315.3696
812.8638, 316.7775
813.3459, 316.7724
813.8281, 316.1130
814.3102, 316.6994
814.7923, 319.2674
815.2744, 320.0260
815.7565, 316.1883
816.2386, 312.8801
816.7208, 313.6332
817.2029, 316.0855
817.6850, 316.7768
818.1671, 315.2237
818.6492, 313.7008
819.1313, 314.0253
819.6135, 315.2005
820.0956, 315.5782
820.5777, 315.3359
821.0598, 315.2503
821.5419, 315.4766
822.0240, 315.9494
822.5062, 316.6720
822.9883, 317.5275
823.4704, 318.1332
823.9525, 318.4001
824.4346, 318.6396
824.9167, 319.2454
825.3989, 319.3376
825.8810, 318.2698
826.3631, 316.6536
826.8452, 315.1631
827.3273, 313.8668
827.8094, 313.1088
828.2916, 313.2130
828.7737, 313.7097
829.2558, 314.4084
829.7379, 315.2056
830.2200, 316.0683
830.7021, 316.9205
831.1843, 317.4974
831.6664, 317.6370
832.1485, 317.2830
832.6306, 315.9821
833.1127, 313.8127
833.5948, 312.5828
834.0770, 312.6429
834.5591, 313.1173
835.0412, 313.5359
835.5233, 313.9292
836.0054, 314.3817
836.4875, 315.0014
836.9697, 315.3568
837.4518, 316.0627
837.9339, 315.7858
838.4160, 313.4024
838.8981, 310.2392
839.3802, 307.6972
839.8624, 305.8989
840.3445, 304.1750
840.8266, 301.8469
841.3087, 299.8918
841.7908, 299.6693
842.2729, 300.1585
842.7551, 299.5045
843.2372, 297.6270
843.7193, 295.8080
844.2014, 294.8757
844.6835, 294.1417
845.1656, 292.0524
845.6478, 288.5820
846.1299, 286.1472
846.6120, 285.0628
847.0941, 284.0947
847.5762, 282.7375
848.0583, 281.1863
848.5405, 279.7602
849.0226, 278.5039
849.5047, 276.9183
849.9868, 275.1960
850.4689, 272.9070
850.9510, 269.3239
851.4332, 265.6556
851.9153, 262.9901
852.3974, 261.1384
852.8795, 259.1381
853.3616, 256.4270
853.8438, 254.1543
854.3259, 253.9865
854.8080, 254.3805
855.2901, 253.0409
855.7722, 250.1239
856.2543, 246.6630
856.7365, 243.0992
857.2186, 240.0722
857.7007, 238.5381
858.1828, 238.2383
858.6649, 237.3280
859.1470, 235.7849
859.6292, 233.7088
860.1113, 231.0166
860.5934, 227.9853
861.0755, 224.5024
861.5576, 220.8769
862.0397, 218.7329
862.5219, 219.3885
863.0040, 219.2797
863.4861, 217.7465
863.9682, 215.9700
864.4503, 214.5442
864.9324, 213.2688
865.4146, 211.7618
865.8967, 209.9581
866.3788, 208.1321
866.8609, 206.1911
867.3430, 204.5352
867.8251, 203.7841
868.3073, 203.5335
868.7894, 203.1025
869.2715, 202.3110
869.7536, 201.0533
870.2357, 199.1773
870.7178, 197.1031
871.2000, 195.7644
871.6821, 195.1396
872.1642, 194.2641
872.6463, 192.9679
873.1284, 192.0270
873.6105, 192.0401
874.0927, 192.2041
874.5748, 191.2199
875.0569, 188.9192
875.5390, 186.9156
876.0211, 185.2380
876.5032, 183.8300
876.9854, 182.8582
877.4675, 181.9949
877.9496, 180.8800
878.4317, 179.6742
878.9138, 178.8903
879.3959, 178.6914
879.8781, 178.8517
880.3602, 179.8846
880.8423, 180.7067
881.3244, 180.0768
881.8065, 178.4243
882.2886, 176.6504
882.7708, 175.1068
883.2529, 173.9930
883.7350, 173.6386
884.2171, 173.7144
884.6992, 173.4967
885.1813, 173.0010
885.6635, 172.3990
886.1456, 171.7310
886.6277, 170.7499
887.1098, 169.2188
887.5919, 167.4106
888.0740, 166.0781
888.5562, 165.4052
889.0383, 164.4817
889.5204, 162.8417
890.0025, 161.7493
890.4846, 162.4146
890.9667, 163.3068
891.4489, 162.5504
891.9310, 160.2955
892.4131, 158.7053
892.8952, 158.3526
893.3773, 158.3651
893.8594, 158.8364
894.3416, 159.2648
894.8237, 159.2832
895.3058, 158.9071
895.7879, 158.1724
896.2700, 157.0725
896.7521, 156.1282
897.2343, 155.7863
897.7164, 155.8269
898.1985, 156.2079
898.6806, 156.6773
899.1627, 156.4433
899.6448, 155.3767
900.1270, 154.1474
900.6091, 153.2556
901.0912, 152.7525
901.5733, 152.9384
902.0554, 153.8295
902.5375, 154.4416
903.0197, 154.7418
903.5018, 154.4112
903.9839, 153.0408
904.4660, 151.3685
904.9481, 150.6079
905.4302, 150.8663
905.9124, 150.9834
906.3945, 150.5346
906.8766, 150.5668
907.3587, 152.1888
907.8408, 153.4673
908.3229, 152.5628
908.8051, 150.2997
909.2872, 148.9654
909.7693, 149.2432
910.2514, 149.6562
910.7335, 149.7893
911.2156, 149.7397
911.6978, 149.2830
912.1799, 148.8222
912.6620, 149.0914
913.1441, 150.1261
913.6262, 151.1871
914.1083, 151.9783
914.5905, 152.2119
915.0726, 150.9730
915.5547, 149.0125
916.0368, 148.2079
916.5189, 148.6706
917.0010, 149.6471
917.4832, 150.7934
917.9652, 151.6148
918.4473, 151.1441
918.9294, 149.5835
919.4116, 149.3311
919.8937, 150.6389
920.3758, 151.4151
920.8579, 150.9921
921.3400, 150.3430
921.8221, 150.2819
922.3043, 150.6185
922.7864, 150.5881
923.2685, 149.6678
923.7506, 149.5272
924.2327, 150.9329
924.7148, 152.2175
925.1970, 152.9042
925.6791, 153.1607
926.1612, 153.1123
926.6433, 152.7885
927.1254, 152.3600
927.6075, 151.1185
928.0897, 150.7641
928.5718, 153.0360
929.0539, 155.5076
929.5360, 155.8187
930.0181, 154.6607
930.5002, 153.8051
930.9824, 153.8272
931.4645, 154.4015
931.9466, 155.9456
932.4287, 157.3810
932.9108, 156.7567
933.3929, 155.0934
933.8751, 154.9942
934.3572, 156.6846
934.8393, 158.2380
935.3214, 158.3834
935.8035, 157.9735
936.2856, 158.5520
936.7678, 159.9546
937.2499, 161.0699
937.7320, 161.8619
938.2141, 161.9826
938.6962, 161.1766
939.1783, 160.3936
939.6605, 160.6936
940.1426, 161.8752
940.6247, 162.6689
941.1068, 162.8395
941.5889, 163.3781
942.0710, 164.6542
942.5532, 165.8110
943.0353, 166.3164
943.5174, 166.5194
943.9995, 166.9071
944.4816, 167.4621
944.9637, 168.3530
945.4459, 169.2171
945.9280, 170.9178
946.4101, 174.0802
946.8922, 177.7458
947.3743, 180.9103
947.8564, 184.0759
948.3386, 188.4143
948.8207, 194.1668
949.3028, 201.1453
949.7849, 209.6818
950.2670, 218.9649
950.7491, 229.2168
951.2313, 239.4766
951.7134, 248.8415
952.1955, 256.9661
952.6776, 263.4275
953.1597, 267.7132
953.6418, 271.4179
954.1240, 275.4932
954.6061, 280.5787
955.0882, 288.1012
955.5703, 297.7661
956.0524, 308.4204
956.5345, 319.6484
957.0167, 331.6284
957.4988, 344.6584
957.9809, 358.2998
958.4630, 371.6471
958.9451, 384.7187
959.4272, 398.2065
959.9094, 412.1821
960.3915, 425.6030
960.8736, 437.7733
961.3557, 450.0139
961.8378, 464.6209
962.3199, 481.4213
962.8021, 494.3232
963.2842, 503.8464
963.7663, 508.5705
964.2484, 510.8336
964.7305, 503.4176
965.2126, 480.1579
965.6948, 444.8412
966.1769, 404.8922
966.6590, 357.2257
967.1411, 317.0919
967.6232, 286.5876
968.1053, 260.8041
968.5875, 239.2970
969.0696, 221.7657
969.5517, 208.6660
970.0338, 199.3707
970.5159, 192.0423
970.9980, 186.7530
971.4802, 182.4527
971.9623, 178.9729
972.4444, 176.2848
972.9265, 174.9329
973.4086, 174.0181
973.8907, 172.3288
974.3729, 169.9319
974.8550, 167.8242
975.3371, 166.2543
975.8192, 165.5837
976.3013, 167.0381
976.7834, 168.7686
977.2656, 168.4365
977.7477, 166.7375
978.2298, 165.4459
978.7119, 165.0196
979.1940, 164.7837
979.6761, 164.1891
980.1583, 163.6239
980.6404, 163.5613
981.1225, 163.9909
981.6046, 165.2135
982.0867, 166.9966
982.5688, 168.0284
983.0510, 167.7998
983.5331, 167.3659
984.0152, 167.9317
984.4973, 169.1570
984.9794, 170.0281
985.4615, 170.5446
985.9437, 170.6475
986.4258, 170.3080
986.9079, 170.0150
987.3900, 169.9879
987.8721, 170.3513
988.3542, 171.3957
988.8364, 173.0778
989.3185, 174.3248
989.8006, 175.0885
990.2827, 175.6178
990.7648, 175.9048
991.2469, 176.0726
991.7291, 176.0593
992.2112, 176.1491
992.6933, 177.1122
993.1754, 179.3217
993.6575, 180.2268
994.1396, 178.5994
994.6218, 177.8882
995.1039, 179.6812
995.5860, 181.7328
996.0681, 182.3344
996.5502, 181.8979
997.0323, 181.4645
997.5145, 180.8548
997.9966, 180.8336
998.4787, 182.1247
998.9608, 183.1473
999.4429, 183.0919
999.9250, 182.7989
1000.407, 182.9070
1000.889, 183.4406
1001.371, 184.3409
1001.854, 185.7952
1002.336, 187.0309
1002.818, 187.7610
1003.300, 188.2716
1003.782, 188.4509
1004.264, 188.6880
1004.746, 189.7107
1005.228, 191.2789
1005.710, 192.1070
1006.193, 191.4605
1006.675, 190.7659
1007.157, 190.6817
1007.639, 191.1114
1008.121, 192.4961
1008.603, 194.0952
1009.085, 194.5388
1009.567, 193.7937
1010.049, 193.1207
1010.532, 193.2986
1011.014, 193.5601
1011.496, 192.7754
1011.978, 191.8877
1012.460, 192.4402
1012.942, 194.0132
1013.424, 195.3967
1013.906, 196.2704
1014.389, 197.0642
1014.871, 198.1558
1015.353, 199.1413
1015.835, 199.1801
1016.317, 198.7539
1016.799, 198.8871
1017.281, 199.6641
1017.763, 201.1833
1018.245, 203.4102
1018.728, 205.6948
1019.210, 207.5154
1019.692, 208.8006
1020.174, 209.0006
1020.656, 208.4630
1021.138, 209.0641
1021.620, 210.8680
1022.102, 212.6345
1022.585, 213.8841
1023.067, 215.0497
1023.549, 216.6021
1024.031, 218.3791
1024.513, 219.8419
1024.995, 220.9962
1025.477, 222.3234
1025.959, 223.9012
1026.442, 225.0418
1026.924, 225.3591
1027.406, 225.6228
1027.888, 226.6704
1028.370, 228.4651
1028.852, 231.0577
1029.334, 234.7305
1029.816, 236.9821
1030.298, 237.3159
1030.781, 237.3241
1031.263, 237.4290
1031.745, 238.2781
1032.227, 241.0331
1032.709, 245.2695
1033.191, 247.2324
1033.673, 246.1333
1034.155, 245.4066
1034.637, 245.4350
1035.120, 245.6137
1035.602, 245.8312
1036.084, 245.8325
1036.566, 245.1745
1037.048, 243.9261
1037.530, 243.1550
1038.012, 242.7832
1038.494, 243.0702
1038.977, 244.1328
1039.459, 245.7564
1039.941, 248.6208
1040.423, 251.2899
1040.905, 251.4603
1041.387, 249.2917
1041.869, 248.6987
1042.351, 250.5810
1042.833, 252.5359
1043.316, 254.8875
1043.798, 256.7815
1044.280, 257.3478
1044.762, 257.6015
1045.244, 258.8463
1045.726, 261.0143
1046.208, 262.8553
1046.690, 264.0641
1047.172, 265.3290
1047.655, 266.5926
1048.137, 268.0431
1048.619, 270.0038
1049.101, 272.0399
1049.583, 273.5514
1050.065, 274.5815
1050.547, 275.8947
1051.029, 277.8903
1051.512, 279.6779
1051.994, 280.7354
1052.476, 282.0311
1052.958, 284.2863
1053.440, 286.8798
1053.922, 289.3207
1054.404, 291.4465
1054.886, 292.5435
1055.369, 291.3806
1055.851, 291.2318
1056.333, 293.2411
1056.815, 295.9865
1057.297, 299.6008
1057.779, 302.9273
1058.261, 304.3862
1058.743, 304.2278
1059.225, 304.3366
1059.708, 305.1955
1060.190, 306.2712
1060.672, 307.4147
1061.154, 308.7227
1061.636, 311.1143
1062.118, 313.1026
1062.600, 312.1017
1063.082, 308.9606
1063.564, 307.9427
1064.047, 310.9565
1064.529, 313.7614
1065.011, 314.8840
1065.493, 315.2974
1065.975, 314.7091
1066.457, 314.3364
1066.939, 315.6706
1067.421, 318.4380
1067.904, 321.2667
1068.386, 323.7735
1068.868, 326.3289
1069.350, 329.6921
1069.832, 332.4230
1070.314, 332.8744
1070.796, 332.8672
1071.278, 334.5715
1071.760, 337.5710
1072.243, 339.8883
1072.725, 340.7619
1073.207, 342.5329
1073.689, 347.3236
1074.171, 351.9789
1074.653, 354.4235
1075.135, 356.0745
1075.617, 358.0612
1076.099, 360.6259
1076.582, 364.1347
1077.064, 368.7643
1077.546, 372.6390
1078.028, 374.2036
1078.510, 375.7072
1078.992, 379.0625
1079.474, 382.3503
1079.956, 383.1633
1080.439, 382.6288
1080.921, 383.4250
1081.403, 386.1176
1081.885, 388.7569
1082.367, 390.5256
1082.849, 392.0056
1083.331, 392.8626
1083.813, 394.1123
1084.295, 397.2860
1084.778, 401.1959
1085.260, 403.6202
1085.742, 404.2784
1086.224, 405.0919
1086.706, 406.5718
1087.188, 408.7698
1087.670, 412.6151
1088.152, 416.2943
1088.635, 418.2921
1089.117, 419.2816
1089.599, 419.8560
1090.081, 420.4316
1090.563, 422.4965
1091.045, 427.3939
1091.527, 431.9879
1092.009, 434.6456
1092.491, 436.9312
1092.974, 439.4072
1093.456, 442.4213
1093.938, 446.9900
1094.420, 452.4962
1094.902, 456.3890
1095.384, 457.5391
1095.866, 458.4855
1096.348, 459.6904
1096.830, 461.4921
1097.313, 464.5371
1097.795, 467.9070
1098.277, 470.7213
1098.759, 473.0387
1099.241, 475.1020
1099.723, 476.7723
1100.205, 479.4417
1100.687, 484.7473
1101.170, 489.5421
1101.652, 491.7979
1102.134, 493.7098
1102.616, 497.1055
1103.098, 501.5322
1103.580, 506.0081
1104.062, 510.3850
1104.544, 514.3800
1105.026, 517.9713
1105.509, 521.0597
1105.991, 522.4805
1106.473, 524.5799
1106.955, 530.0367
1107.437, 536.4651
1107.919, 539.7660
1108.401, 539.9022
1108.883, 541.6653
1109.365, 547.0856
1109.848, 552.1598
1110.330, 556.1057
1110.812, 559.8781
1111.294, 563.5411
1111.776, 567.5246
1112.258, 572.3764
1112.740, 577.9814
1113.222, 583.7406
1113.705, 589.9100
1114.187, 595.6121
1114.669, 600.9603
1115.151, 605.6055
1115.633, 608.6741
1116.115, 611.7382
1116.597, 615.9357
1117.079, 621.1041
1117.562, 627.0112
1118.044, 634.1350
1118.526, 639.8500
1119.008, 642.3929
1119.490, 646.5742
1119.972, 653.8179
1120.454, 662.0424
1120.936, 670.0475
1121.418, 678.3719
1121.901, 688.2223
1122.383, 699.6917
1122.865, 709.0588
1123.347, 715.0137
1123.829, 722.4570
1124.311, 732.2316
1124.793, 742.7507
1125.275, 753.2478
1125.757, 764.2856
1126.240, 776.5906
1126.722, 789.9672
1127.204, 803.5855
1127.686, 817.6097
1128.168, 830.7093
1128.650, 842.2750
1129.132, 855.3786
1129.614, 871.3402
1130.097, 887.7148
1130.579, 902.3676
1131.061, 916.5513
1131.543, 933.5726
1132.025, 953.5417
1132.507, 971.7839
1132.989, 988.3374
1133.471, 1004.409
1133.953, 1020.242
1134.436, 1036.542
1134.918, 1053.684
1135.400, 1071.668
1135.882, 1090.668
1136.364, 1110.363
1136.846, 1129.688
1137.328, 1148.552
1137.810, 1166.648
1138.292, 1183.842
1138.775, 1199.437
1139.257, 1213.196
1139.739, 1225.893
1140.221, 1238.844
1140.703, 1249.871
1141.185, 1254.381
1141.667, 1253.541
1142.149, 1250.923
1142.632, 1246.256
1143.114, 1237.181
1143.596, 1223.567
1144.078, 1207.923
1144.560, 1191.441
1145.042, 1175.238
1145.524, 1160.188
1146.006, 1146.529
1146.489, 1133.321
1146.971, 1122.284
1147.453, 1118.531
1147.935, 1120.345
1148.417, 1120.251
1148.899, 1115.738
1149.381, 1111.463
1149.863, 1110.199
1150.345, 1111.509
1150.828, 1116.288
1151.310, 1122.346
1151.792, 1126.502
1152.274, 1130.245
1152.756, 1136.787
1153.238, 1146.338
1153.720, 1156.562
1154.202, 1166.993
1154.684, 1176.440
1155.167, 1181.933
1155.649, 1188.938
1156.131, 1202.815
1156.613, 1218.648
1157.095, 1231.119
1157.577, 1240.837
1158.059, 1250.508
1158.541, 1260.464
1159.024, 1272.120
1159.506, 1286.527
1159.988, 1301.694
1160.470, 1317.931
1160.952, 1333.753
1161.434, 1348.349
1161.916, 1361.819
1162.398, 1373.598
1162.880, 1383.907
1163.363, 1397.258
1163.845, 1415.581
1164.327, 1433.571
1164.809, 1452.223
1165.291, 1468.597
1165.773, 1480.146
1166.255, 1491.494
1166.737, 1506.343
1167.219, 1523.925
1167.702, 1542.448
1168.184, 1562.116
1168.666, 1581.473
1169.148, 1600.435
1169.630, 1619.730
1170.112, 1639.586
1170.594, 1659.172
1171.076, 1677.956
1171.559, 1696.795
1172.041, 1716.703
1172.523, 1737.426
1173.005, 1758.126
1173.487, 1778.681
1173.969, 1798.045
1174.451, 1816.272
1174.933, 1835.282
1175.416, 1855.705
1175.898, 1877.621
1176.380, 1901.340
1176.862, 1924.640
1177.344, 1943.576
1177.826, 1960.040
1178.308, 1977.817
1178.790, 1996.663
1179.272, 2016.128
1179.755, 2035.979
1180.237, 2056.062
1180.719, 2076.380
1181.201, 2097.342
1181.683, 2119.851
1182.165, 2142.496
1182.647, 2164.827
1183.129, 2186.001
1183.611, 2204.519
1184.094, 2221.562
1184.576, 2238.525
1185.058, 2255.792
1185.540, 2273.358
1186.022, 2290.949
1186.504, 2310.113
1186.986, 2335.124
1187.468, 2357.125
1187.951, 2368.144
1188.433, 2377.871
1188.915, 2394.806
1189.397, 2415.989
1189.879, 2436.992
1190.361, 2457.322
1190.843, 2471.224
1191.325, 2469.899
1191.807, 2476.000
1192.290, 2497.401
1192.772, 2516.017
1193.254, 2523.416
1193.736, 2529.349
1194.218, 2542.821
1194.700, 2560.519
1195.182, 2574.135
1195.664, 2583.617
1196.146, 2588.449
1196.629, 2586.891
1197.111, 2590.552
1197.593, 2601.823
1198.075, 2614.701
1198.557, 2626.762
1199.039, 2636.895
1199.521, 2643.564
1200.003, 2648.331
1200.486, 2655.485
1200.968, 2664.594
1201.450, 2674.380
1201.932, 2683.893
1202.414, 2686.939
1202.896, 2683.441
1203.378, 2681.783
1203.860, 2686.505
1204.343, 2695.512
1204.825, 2710.102
1205.307, 2724.305
1205.789, 2728.321
1206.271, 2727.817
1206.753, 2731.132
1207.235, 2737.188
1207.717, 2740.836
1208.199, 2741.856
1208.682, 2746.633
1209.164, 2759.900
1209.646, 2771.306
1210.128, 2773.742
1210.610, 2775.189
1211.092, 2779.099
1211.574, 2785.306
1212.056, 2794.475
##END=



