##NAMES=Fluorcalciomicrolite
##RRUFFID=R080146
##IDEAL CHEMISTRY=(Ca,Na)_2_Ta^5+^_2_O_6_F
##LOCALITY= Ip√© mine, Governador, Valadares, Minas Gerias, Brazil
##OWNER=RRUFF
##SOURCE=Luiz Menezes
##DESCRIPTION=Small transparent orange octahedrons on muscovite and albite matrix.
##STATUS=The identification of this mineral is confirmed by single-crystal X-ray diffraction and chemical analysis.
##URL=rruff.info/R080146
##MEASURED CHEMISTRY=(Ca_1.32_Na_0.37_Mn_0.02_Fe_0.01_)(Ta_1.51_Nb_0.33_Ti_0.15_Sn_0.01_)_2_O_6_[F_0.50_(OH)_0.41_]
90.52570, 0.0000000E+00
91.00781, 120.0552
91.48993, 122.9779
91.97205, 124.1502
92.45416, 121.7636
92.93628, 117.7044
93.41840, 116.4609
93.90051, 119.5305
94.38263, 124.3012
94.86475, 125.9133
95.34686, 124.4065
95.82898, 123.5697
96.31110, 126.9038
96.79321, 134.0582
97.27533, 141.2598
97.75745, 147.3757
98.23956, 152.8596
98.72168, 159.3133
99.20380, 166.6493
99.68591, 175.0196
100.1680, 183.9146
100.6501, 192.5961
101.1323, 205.1084
101.6144, 223.2417
102.0965, 247.4412
102.5786, 271.4083
103.0607, 294.0339
103.5428, 317.5722
104.0250, 346.1945
104.5071, 379.8098
104.9892, 418.2489
105.4713, 460.6638
105.9534, 504.4117
106.4355, 557.6287
106.9177, 621.1220
107.3998, 694.0190
107.8819, 776.1653
108.3640, 870.0831
108.8461, 970.2579
109.3282, 1075.641
109.8104, 1190.778
110.2925, 1303.492
110.7746, 1411.249
111.2567, 1514.282
111.7388, 1618.980
112.2209, 1731.259
112.7031, 1841.354
113.1852, 1943.783
113.6673, 2034.381
114.1494, 2119.059
114.6315, 2196.054
115.1136, 2265.685
115.5958, 2341.215
116.0779, 2426.437
116.5600, 2519.948
117.0421, 2619.734
117.5242, 2725.760
118.0063, 2838.531
118.4885, 2960.548
118.9706, 3092.915
119.4527, 3229.355
119.9348, 3368.031
120.4169, 3507.755
120.8990, 3648.653
121.3812, 3786.625
121.8633, 3926.940
122.3454, 4074.652
122.8275, 4234.893
123.3096, 4394.158
123.7917, 4542.135
124.2739, 4679.590
124.7560, 4809.342
125.2381, 4928.346
125.7202, 5042.065
126.2023, 5159.451
126.6844, 5288.555
127.1666, 5415.840
127.6487, 5517.870
128.1308, 5596.400
128.6129, 5672.446
129.0950, 5769.875
129.5771, 5881.458
130.0593, 5980.981
130.5414, 6055.212
131.0235, 6113.796
131.5056, 6173.728
131.9877, 6212.423
132.4698, 6226.169
132.9520, 6242.224
133.4341, 6260.764
133.9162, 6284.997
134.3983, 6316.170
134.8804, 6353.841
135.3625, 6396.926
135.8447, 6446.849
136.3268, 6499.325
136.8089, 6547.697
137.2910, 6590.749
137.7731, 6638.492
138.2552, 6696.579
138.7374, 6765.937
139.2195, 6835.307
139.7016, 6906.532
140.1837, 6976.819
140.6658, 7038.416
141.1479, 7089.062
141.6301, 7137.227
142.1122, 7187.363
142.5943, 7241.380
143.0764, 7292.506
143.5585, 7342.086
144.0406, 7388.748
144.5228, 7429.243
145.0049, 7460.949
145.4870, 7489.421
145.9691, 7517.334
146.4512, 7546.215
146.9333, 7572.939
147.4155, 7597.954
147.8976, 7621.388
148.3797, 7641.038
148.8618, 7649.069
149.3439, 7659.212
149.8260, 7680.195
150.3082, 7727.029
150.7903, 7768.077
151.2724, 7797.922
151.7545, 7815.945
152.2366, 7839.463
152.7188, 7875.199
153.2009, 7913.405
153.6830, 7945.835
154.1651, 7967.518
154.6472, 7987.350
155.1293, 8007.208
155.6115, 8027.591
156.0936, 8045.073
156.5757, 8059.067
157.0578, 8070.071
157.5399, 8078.442
158.0220, 8083.936
158.5042, 8087.508
158.9863, 8089.272
159.4684, 8089.131
159.9505, 8088.860
160.4326, 8090.192
160.9147, 8091.756
161.3969, 8091.436
161.8790, 8089.244
162.3611, 8084.581
162.8432, 8077.005
163.3253, 8066.337
163.8074, 8053.257
164.2896, 8037.119
164.7717, 8018.616
165.2538, 7999.222
165.7359, 7979.016
166.2180, 7958.221
166.7001, 7936.994
167.1823, 7915.768
167.6644, 7893.365
168.1465, 7868.632
168.6286, 7842.019
169.1107, 7814.886
169.5928, 7787.263
170.0750, 7759.888
170.5571, 7733.225
171.0392, 7708.310
171.5213, 7683.347
172.0034, 7656.846
172.4855, 7628.989
172.9677, 7601.108
173.4498, 7573.927
173.9319, 7547.094
174.4140, 7519.991
174.8961, 7491.803
175.3782, 7464.032
175.8604, 7437.810
176.3425, 7412.868
176.8246, 7388.167
177.3067, 7361.398
177.7888, 7333.997
178.2709, 7309.696
178.7531, 7292.065
179.2352, 7275.779
179.7173, 7251.337
180.1994, 7218.956
180.6815, 7186.382
181.1636, 7162.189
181.6458, 7143.666
182.1279, 7123.530
182.6100, 7098.368
183.0921, 7070.432
183.5742, 7042.348
184.0563, 7014.440
184.5385, 6989.141
185.0206, 6971.597
185.5027, 6959.972
185.9848, 6946.491
186.4669, 6928.109
186.9490, 6905.796
187.4312, 6880.661
187.9133, 6852.652
188.3954, 6824.884
188.8775, 6802.253
189.3596, 6784.325
189.8417, 6766.013
190.3239, 6745.560
190.8060, 6723.177
191.2881, 6699.938
191.7702, 6675.504
192.2523, 6652.710
192.7344, 6637.156
193.2166, 6628.951
193.6987, 6618.049
194.1808, 6598.742
194.6629, 6572.021
195.1450, 6547.937
195.6271, 6526.408
196.1093, 6507.714
196.5914, 6493.705
197.0735, 6484.846
197.5556, 6474.499
198.0377, 6458.910
198.5198, 6437.860
199.0020, 6418.990
199.4841, 6402.644
199.9662, 6387.636
200.4483, 6371.355
200.9304, 6353.336
201.4125, 6336.618
201.8947, 6323.306
202.3768, 6313.811
202.8589, 6302.024
203.3410, 6286.926
203.8231, 6270.838
204.3052, 6258.703
204.7874, 6251.289
205.2695, 6244.443
205.7516, 6236.729
206.2337, 6228.325
206.7158, 6217.812
207.1979, 6204.440
207.6801, 6189.655
208.1622, 6176.892
208.6443, 6166.795
209.1264, 6156.531
209.6085, 6143.490
210.0906, 6125.579
210.5728, 6115.052
211.0549, 6114.399
211.5370, 6119.635
212.0191, 6121.833
212.5012, 6120.203
212.9833, 6117.673
213.4655, 6115.455
213.9476, 6113.444
214.4297, 6112.061
214.9118, 6110.614
215.3939, 6110.216
215.8760, 6114.367
216.3581, 6125.441
216.8403, 6136.047
217.3224, 6142.010
217.8045, 6141.193
218.2866, 6142.204
218.7687, 6145.361
219.2508, 6150.221
219.7330, 6155.550
220.2151, 6160.847
220.6972, 6167.141
221.1793, 6174.877
221.6614, 6184.466
222.1435, 6194.120
222.6257, 6203.502
223.1078, 6212.970
223.5899, 6224.282
224.0720, 6239.645
224.5541, 6253.460
225.0362, 6263.154
225.5184, 6266.944
226.0005, 6270.731
226.4826, 6272.740
226.9647, 6275.473
227.4468, 6286.968
227.9289, 6312.989
228.4111, 6339.121
228.8932, 6358.132
229.3753, 6365.239
229.8574, 6377.004
230.3395, 6395.427
230.8216, 6418.168
231.3038, 6439.203
231.7859, 6457.759
232.2680, 6475.439
232.7501, 6492.357
233.2322, 6506.008
233.7143, 6524.667
234.1965, 6551.407
234.6786, 6582.587
235.1607, 6608.007
235.6428, 6623.819
236.1249, 6639.250
236.6070, 6658.611
237.0892, 6684.627
237.5713, 6708.083
238.0534, 6727.256
238.5355, 6744.220
239.0176, 6764.592
239.4997, 6791.196
239.9819, 6817.534
240.4640, 6840.384
240.9461, 6857.856
241.4282, 6876.838
241.9103, 6898.562
242.3924, 6921.461
242.8746, 6941.838
243.3567, 6959.556
243.8388, 6975.092
244.3209, 6988.031
244.8030, 6995.905
245.2851, 7007.888
245.7673, 7025.703
246.2494, 7047.037
246.7315, 7067.051
247.2136, 7086.030
247.6957, 7103.333
248.1778, 7118.558
248.6600, 7130.937
249.1421, 7143.206
249.6242, 7154.934
250.1063, 7166.832
250.5884, 7180.432
251.0705, 7196.630
251.5527, 7212.936
252.0348, 7228.134
252.5169, 7241.806
252.9990, 7255.919
253.4811, 7269.378
253.9632, 7284.063
254.4454, 7303.962
254.9275, 7333.290
255.4096, 7359.886
255.8917, 7378.814
256.3738, 7387.677
256.8560, 7399.368
257.3381, 7414.564
257.8202, 7432.118
258.3023, 7450.771
258.7844, 7470.619
259.2665, 7491.056
259.7487, 7512.249
260.2308, 7534.360
260.7129, 7555.436
261.1950, 7575.291
261.6771, 7594.193
262.1592, 7611.820
262.6414, 7626.385
263.1235, 7643.888
263.6056, 7666.766
264.0877, 7695.753
264.5698, 7721.983
265.0519, 7744.440
265.5341, 7765.460
266.0162, 7787.966
266.4983, 7812.042
266.9804, 7837.064
267.4625, 7863.964
267.9446, 7892.458
268.4268, 7917.678
268.9089, 7938.763
269.3910, 7957.245
269.8731, 7973.055
270.3552, 7983.818
270.8373, 8001.397
271.3195, 8030.563
271.8016, 8069.826
272.2837, 8104.992
272.7658, 8135.861
273.2479, 8163.928
273.7300, 8189.640
274.2122, 8211.821
274.6943, 8238.737
275.1764, 8273.030
275.6585, 8313.300
276.1406, 8352.237
276.6227, 8389.857
277.1049, 8426.376
277.5870, 8462.696
278.0691, 8499.181
278.5512, 8531.183
279.0333, 8556.042
279.5154, 8576.931
279.9976, 8604.734
280.4797, 8640.337
280.9618, 8678.653
281.4439, 8718.604
281.9260, 8760.019
282.4081, 8796.605
282.8903, 8826.603
283.3724, 8852.256
283.8545, 8878.401
284.3366, 8904.988
284.8187, 8932.543
285.3008, 8961.280
285.7830, 8991.374
286.2651, 9021.915
286.7472, 9053.314
287.2293, 9084.599
287.7114, 9114.096
288.1935, 9141.772
288.6757, 9168.106
289.1578, 9192.923
289.6399, 9216.448
290.1220, 9239.379
290.6041, 9262.431
291.0862, 9283.002
291.5684, 9294.958
292.0505, 9299.358
292.5326, 9305.814
293.0147, 9321.656
293.4968, 9343.280
293.9789, 9360.557
294.4611, 9372.987
294.9432, 9381.886
295.4253, 9388.558
295.9074, 9392.978
296.3895, 9394.739
296.8716, 9392.851
297.3538, 9388.487
297.8359, 9383.088
298.3180, 9376.510
298.8001, 9371.421
299.2822, 9374.215
299.7643, 9380.787
300.2465, 9380.074
300.7286, 9362.404
301.2107, 9339.272
301.6928, 9328.173
302.1749, 9328.408
302.6570, 9327.585
303.1392, 9314.983
303.6213, 9294.828
304.1034, 9274.440
304.5855, 9254.806
305.0676, 9236.878
305.5497, 9223.455
306.0319, 9213.337
306.5140, 9199.553
306.9961, 9173.493
307.4782, 9142.840
307.9603, 9116.788
308.4424, 9099.505
308.9246, 9083.564
309.4067, 9064.353
309.8888, 9042.013
310.3709, 9016.646
310.8530, 8984.807
311.3351, 8952.057
311.8173, 8923.562
312.2994, 8900.785
312.7815, 8879.231
313.2636, 8856.832
313.7457, 8834.028
314.2278, 8811.386
314.7100, 8790.125
315.1921, 8768.819
315.6742, 8746.494
316.1563, 8723.027
316.6384, 8699.629
317.1205, 8675.868
317.6027, 8653.176
318.0848, 8633.491
318.5669, 8622.318
319.0490, 8609.861
319.5311, 8590.589
320.0132, 8563.889
320.4954, 8539.746
320.9775, 8520.831
321.4596, 8505.787
321.9417, 8493.799
322.4238, 8486.707
322.9059, 8480.464
323.3881, 8474.379
323.8702, 8468.474
324.3523, 8462.594
324.8344, 8457.443
325.3165, 8451.942
325.7986, 8445.436
326.2808, 8434.027
326.7629, 8426.301
327.2450, 8427.167
327.7271, 8433.333
328.2092, 8431.622
328.6913, 8411.664
329.1735, 8392.919
329.6556, 8383.303
330.1377, 8389.980
330.6198, 8392.179
331.1019, 8390.137
331.5840, 8383.412
332.0662, 8370.926
332.5483, 8350.667
333.0304, 8327.008
333.5125, 8301.184
333.9946, 8272.346
334.4767, 8244.212
334.9589, 8218.521
335.4410, 8192.132
335.9231, 8160.973
336.4052, 8124.380
336.8873, 8085.570
337.3694, 8045.540
337.8515, 8004.502
338.3336, 7961.775
338.8158, 7917.151
339.2979, 7871.418
339.7800, 7825.995
340.2621, 7782.484
340.7442, 7730.534
341.2263, 7666.635
341.7085, 7594.819
342.1906, 7532.510
342.6727, 7480.409
343.1548, 7430.130
343.6369, 7376.048
344.1190, 7318.606
344.6012, 7256.929
345.0833, 7189.864
345.5654, 7121.188
346.0475, 7057.150
346.5296, 6997.841
347.0117, 6941.147
347.4939, 6889.170
347.9760, 6839.744
348.4581, 6783.039
348.9402, 6717.305
349.4223, 6652.410
349.9044, 6600.568
350.3866, 6558.323
350.8687, 6513.182
351.3508, 6455.582
351.8329, 6393.583
352.3150, 6340.174
352.7971, 6294.942
353.2793, 6251.369
353.7614, 6203.426
354.2435, 6153.013
354.7256, 6102.602
355.2077, 6051.333
355.6898, 6002.476
356.1720, 5960.154
356.6541, 5922.894
357.1362, 5884.721
357.6183, 5841.298
358.1004, 5795.444
358.5826, 5748.985
359.0647, 5700.868
359.5468, 5655.774
360.0289, 5617.439
360.5110, 5583.820
360.9931, 5550.883
361.4753, 5518.953
361.9574, 5486.227
362.4395, 5451.479
362.9216, 5414.248
363.4037, 5377.396
363.8858, 5339.971
364.3680, 5304.115
364.8501, 5271.946
365.3322, 5249.715
365.8143, 5225.845
366.2964, 5196.458
366.7785, 5161.588
367.2607, 5128.942
367.7428, 5098.222
368.2249, 5070.444
368.7070, 5046.271
369.1891, 5031.643
369.6712, 5012.933
370.1534, 4988.214
370.6355, 4958.948
371.1176, 4929.362
371.5997, 4896.202
372.0818, 4866.663
372.5639, 4843.873
373.0461, 4829.798
373.5282, 4815.454
374.0103, 4800.807
374.4924, 4785.468
374.9745, 4769.023
375.4566, 4751.163
375.9388, 4732.822
376.4209, 4714.429
376.9030, 4695.800
377.3851, 4677.099
377.8672, 4657.942
378.3493, 4639.566
378.8315, 4624.056
379.3136, 4611.432
379.7957, 4597.788
380.2778, 4582.027
380.7599, 4565.164
381.2420, 4548.700
381.7242, 4532.900
382.2063, 4518.103
382.6884, 4505.333
383.1705, 4493.838
383.6526, 4481.184
384.1347, 4466.696
384.6169, 4452.456
385.0990, 4443.173
385.5811, 4436.911
386.0632, 4427.932
386.5453, 4411.918
387.0274, 4392.325
387.5096, 4372.572
387.9917, 4352.878
388.4738, 4336.243
388.9559, 4328.726
389.4380, 4325.083
389.9201, 4318.184
390.4023, 4303.720
390.8844, 4287.961
391.3665, 4274.846
391.8486, 4263.837
392.3307, 4253.367
392.8128, 4243.112
393.2950, 4232.791
393.7771, 4222.125
394.2592, 4211.160
394.7413, 4199.516
395.2234, 4184.694
395.7055, 4169.583
396.1877, 4158.670
396.6698, 4160.645
397.1519, 4159.577
397.6340, 4148.926
398.1161, 4127.136
398.5982, 4108.426
399.0804, 4096.461
399.5625, 4086.362
400.0446, 4074.669
400.5267, 4060.338
401.0088, 4046.037
401.4909, 4031.565
401.9731, 4017.389
402.4552, 4005.980
402.9373, 3999.671
403.4194, 3992.371
403.9015, 3979.827
404.3836, 3958.828
404.8658, 3946.217
405.3479, 3945.206
405.8300, 3948.279
406.3121, 3943.589
406.7942, 3929.938
407.2763, 3916.493
407.7585, 3906.581
408.2406, 3899.236
408.7227, 3889.063
409.2048, 3875.734
409.6869, 3862.311
410.1690, 3851.734
410.6512, 3843.594
411.1333, 3835.563
411.6154, 3827.349
412.0975, 3818.829
412.5796, 3809.829
413.0617, 3800.322
413.5439, 3789.970
414.0260, 3777.380
414.5081, 3764.204
414.9902, 3753.206
415.4723, 3744.703
415.9544, 3736.681
416.4366, 3727.501
416.9187, 3717.845
417.4008, 3708.754
417.8829, 3701.253
418.3650, 3693.797
418.8471, 3685.544
419.3293, 3676.554
419.8114, 3666.796
420.2935, 3654.382
420.7756, 3642.424
421.2577, 3633.659
421.7398, 3630.724
422.2220, 3626.401
422.7041, 3618.292
423.1862, 3607.909
423.6683, 3597.957
424.1504, 3588.113
424.6325, 3579.235
425.1147, 3572.232
425.5968, 3567.431
426.0789, 3560.603
426.5610, 3549.754
427.0431, 3538.693
427.5252, 3530.715
428.0074, 3527.006
428.4895, 3523.737
428.9716, 3521.199
429.4537, 3518.601
429.9358, 3513.113
430.4179, 3504.005
430.9001, 3494.563
431.3822, 3486.551
431.8643, 3479.989
432.3464, 3473.195
432.8285, 3466.075
433.3106, 3459.036
433.7928, 3453.050
434.2749, 3447.891
434.7570, 3441.408
435.2391, 3431.635
435.7212, 3421.180
436.2033, 3416.024
436.6855, 3415.749
437.1676, 3415.525
437.6497, 3410.741
438.1318, 3404.189
438.6139, 3401.001
439.0960, 3403.249
439.5782, 3404.293
440.0603, 3396.177
440.5424, 3383.129
441.0245, 3373.188
441.5066, 3370.207
441.9887, 3370.836
442.4709, 3375.187
442.9530, 3382.894
443.4351, 3387.313
443.9172, 3383.190
444.3993, 3376.341
444.8814, 3370.994
445.3636, 3368.241
445.8457, 3366.391
446.3278, 3366.007
446.8099, 3366.370
447.2920, 3365.615
447.7741, 3360.336
448.2563, 3357.817
448.7384, 3361.616
449.2205, 3373.263
449.7026, 3379.458
450.1847, 3378.792
450.6668, 3374.483
451.1490, 3368.256
451.6311, 3358.367
452.1132, 3353.860
452.5953, 3357.521
453.0774, 3366.276
453.5595, 3372.548
454.0417, 3376.327
454.5238, 3377.664
455.0059, 3375.606
455.4880, 3370.821
455.9701, 3366.678
456.4522, 3363.274
456.9344, 3360.497
457.4165, 3357.572
457.8986, 3355.093
458.3807, 3355.007
458.8628, 3359.349
459.3449, 3364.741
459.8271, 3367.464
460.3092, 3367.893
460.7913, 3367.711
461.2734, 3367.147
461.7555, 3366.871
462.2376, 3367.968
462.7198, 3371.175
463.2019, 3372.895
463.6840, 3368.288
464.1661, 3362.260
464.6482, 3360.745
465.1303, 3371.249
465.6125, 3380.129
466.0946, 3382.050
466.5767, 3377.969
467.0588, 3377.272
467.5409, 3385.390
468.0230, 3392.850
468.5052, 3395.019
468.9873, 3388.265
469.4694, 3385.342
469.9515, 3387.015
470.4336, 3391.889
470.9157, 3398.552
471.3979, 3407.707
471.8800, 3416.105
472.3621, 3422.136
472.8442, 3426.834
473.3263, 3435.715
473.8084, 3449.109
474.2906, 3464.078
474.7727, 3479.552
475.2548, 3495.038
475.7369, 3507.944
476.2190, 3517.706
476.7011, 3526.071
477.1833, 3532.680
477.6654, 3539.429
478.1475, 3551.601
478.6296, 3575.285
479.1117, 3602.745
479.5938, 3626.701
480.0760, 3647.540
480.5581, 3667.026
481.0402, 3682.833
481.5223, 3699.962
482.0044, 3723.065
482.4865, 3754.541
482.9687, 3787.139
483.4508, 3818.041
483.9329, 3848.819
484.4150, 3881.258
484.8971, 3915.258
485.3792, 3951.694
485.8614, 3991.617
486.3435, 4034.817
486.8256, 4078.490
487.3077, 4121.131
487.7898, 4165.396
488.2719, 4212.409
488.7541, 4259.970
489.2362, 4314.868
489.7183, 4378.998
490.2004, 4448.093
490.6825, 4516.739
491.1646, 4584.925
491.6468, 4655.268
492.1289, 4729.497
492.6110, 4806.252
493.0931, 4885.143
493.5752, 4966.542
494.0573, 5052.111
494.5395, 5145.634
495.0216, 5244.247
495.5037, 5344.896
495.9858, 5445.367
496.4679, 5547.796
496.9500, 5650.167
497.4322, 5755.399
497.9143, 5866.519
498.3964, 5987.356
498.8785, 6112.331
499.3606, 6237.617
499.8427, 6364.739
500.3249, 6491.946
500.8070, 6616.623
501.2891, 6744.451
501.7712, 6878.275
502.2533, 7020.986
502.7354, 7161.296
503.2176, 7296.989
503.6997, 7429.746
504.1818, 7561.200
504.6639, 7691.178
505.1460, 7820.005
505.6281, 7947.500
506.1103, 8074.194
506.5924, 8198.667
507.0745, 8322.044
507.5566, 8438.795
508.0387, 8544.765
508.5208, 8640.334
509.0030, 8735.473
509.4851, 8831.276
509.9672, 8920.483
510.4493, 8993.938
510.9314, 9054.239
511.4135, 9110.700
511.8957, 9166.792
512.3778, 9217.286
512.8599, 9254.941
513.3420, 9281.729
513.8242, 9303.041
514.3063, 9323.480
514.7884, 9338.763
515.2705, 9346.861
515.7526, 9347.689
516.2347, 9337.405
516.7169, 9304.560
517.1990, 9265.671
517.6811, 9233.426
518.1632, 9218.855
518.6453, 9198.485
519.1274, 9166.847
519.6096, 9128.147
520.0917, 9090.665
520.5738, 9057.116
521.0559, 9020.215
521.5380, 8976.801
522.0201, 8927.447
522.5023, 8881.853
522.9844, 8840.156
523.4665, 8801.581
523.9486, 8766.324
524.4307, 8734.126
524.9128, 8701.622
525.3950, 8668.427
525.8771, 8636.479
526.3592, 8609.473
526.8413, 8586.369
527.3234, 8562.445
527.8055, 8535.675
528.2877, 8507.813
528.7698, 8479.011
529.2519, 8450.247
529.7340, 8424.691
530.2161, 8407.984
530.6982, 8392.692
531.1804, 8371.991
531.6625, 8344.313
532.1446, 8318.689
532.6267, 8298.573
533.1088, 8282.010
533.5909, 8267.513
534.0731, 8256.379
534.5552, 8245.575
535.0373, 8235.507
535.5194, 8225.645
536.0015, 8213.730
536.4836, 8198.589
536.9658, 8183.950
537.4479, 8171.539
537.9300, 8161.179
538.4121, 8148.634
538.8942, 8133.359
539.3763, 8117.972
539.8585, 8104.354
540.3406, 8092.393
540.8227, 8082.336
541.3048, 8074.681
541.7869, 8066.658
542.2690, 8055.669
542.7512, 8041.611
543.2333, 8024.243
543.7154, 8002.699
544.1975, 7978.485
544.6796, 7953.387
545.1617, 7926.789
545.6439, 7896.877
546.1260, 7858.390
546.6081, 7819.738
547.0902, 7786.351
547.5723, 7760.712
548.0544, 7733.940
548.5366, 7705.650
549.0187, 7674.983
549.5008, 7641.058
549.9829, 7602.250
550.4650, 7563.181
550.9471, 7523.982
551.4293, 7485.000
551.9114, 7446.592
552.3935, 7409.330
552.8756, 7369.826
553.3577, 7325.033
553.8398, 7276.979
554.3220, 7236.850
554.8041, 7204.795
555.2862, 7171.655
555.7683, 7127.206
556.2504, 7076.841
556.7325, 7030.715
557.2147, 6990.600
557.6968, 6952.375
558.1789, 6912.692
558.6610, 6872.445
559.1431, 6833.368
559.6252, 6798.691
560.1074, 6762.627
560.5895, 6721.039
561.0716, 6675.722
561.5537, 6633.658
562.0358, 6598.417
562.5179, 6563.966
563.0001, 6528.655
563.4822, 6492.675
563.9643, 6455.342
564.4464, 6414.772
564.9285, 6375.504
565.4106, 6341.146
565.8928, 6312.495
566.3749, 6282.495
566.8570, 6249.469
567.3391, 6216.810
567.8212, 6190.694
568.3033, 6170.042
568.7855, 6148.601
569.2676, 6123.552
569.7497, 6096.952
570.2318, 6069.905
570.7139, 6043.409
571.1960, 6019.614
571.6782, 6002.678
572.1603, 5987.336
572.6424, 5969.418
573.1245, 5948.242
573.6066, 5927.215
574.0887, 5906.653
574.5709, 5887.165
575.0530, 5869.038
575.5351, 5853.189
576.0172, 5837.131
576.4993, 5819.091
576.9814, 5801.610
577.4636, 5789.509
577.9457, 5784.800
578.4278, 5780.122
578.9099, 5773.479
579.3920, 5765.754
579.8741, 5760.208
580.3563, 5756.897
580.8384, 5755.226
581.3205, 5755.632
581.8026, 5757.334
582.2847, 5757.839
582.7668, 5757.029
583.2490, 5756.492
583.7311, 5757.200
584.2131, 5759.089
584.6953, 5762.060
585.1774, 5765.926
585.6595, 5771.247
586.1416, 5777.410
586.6237, 5785.447
587.1058, 5796.999
587.5880, 5818.323
588.0701, 5836.795
588.5522, 5846.020
589.0343, 5849.054
589.5164, 5860.906
589.9985, 5887.454
590.4807, 5912.828
590.9628, 5929.155
591.4449, 5936.102
591.9270, 5950.436
592.4091, 5973.145
592.8912, 5998.765
593.3734, 6022.471
593.8555, 6044.900
594.3376, 6068.652
594.8197, 6094.083
595.3018, 6120.490
595.7839, 6147.430
596.2661, 6174.729
596.7482, 6201.989
597.2303, 6227.397
597.7124, 6254.758
598.1945, 6286.907
598.6766, 6323.021
599.1588, 6360.373
599.6409, 6402.004
600.1230, 6440.786
600.6051, 6471.959
601.0872, 6494.554
601.5693, 6522.982
602.0515, 6559.149
602.5336, 6598.056
603.0157, 6637.795
603.4978, 6679.174
603.9799, 6716.060
604.4620, 6747.420
604.9442, 6777.198
605.4263, 6810.033
605.9084, 6845.797
606.3905, 6880.687
606.8726, 6913.482
607.3547, 6946.938
607.8369, 6986.773
608.3190, 7030.366
608.8011, 7072.187
609.2832, 7108.678
609.7653, 7142.780
610.2474, 7176.485
610.7296, 7209.763
611.2117, 7239.916
611.6938, 7264.604
612.1759, 7287.595
612.6580, 7310.124
613.1401, 7331.688
613.6223, 7356.072
614.1044, 7384.076
614.5865, 7413.376
615.0686, 7442.242
615.5507, 7470.910
616.0328, 7496.538
616.5150, 7518.430
616.9971, 7538.145
617.4792, 7558.084
617.9613, 7578.043
618.4434, 7596.659
618.9255, 7613.394
619.4077, 7628.829
619.8898, 7644.147
620.3719, 7658.953
620.8540, 7672.139
621.3361, 7678.825
621.8182, 7687.321
622.3004, 7704.785
622.7825, 7731.200
623.2646, 7752.098
623.7467, 7758.435
624.2288, 7763.479
624.7109, 7774.201
625.1931, 7793.248
625.6752, 7808.510
626.1573, 7819.032
626.6394, 7827.258
627.1215, 7835.930
627.6036, 7845.022
628.0858, 7851.382
628.5679, 7853.613
629.0500, 7855.147
629.5321, 7862.162
630.0142, 7873.005
630.4963, 7882.216
630.9785, 7887.671
631.4606, 7890.794
631.9427, 7891.327
632.4248, 7890.385
632.9069, 7891.378
633.3890, 7899.994
633.8712, 7907.109
634.3533, 7907.963
634.8354, 7901.877
635.3175, 7896.376
635.7996, 7890.653
636.2817, 7886.649
636.7639, 7885.990
637.2460, 7889.801
637.7281, 7890.889
638.2102, 7889.293
638.6923, 7884.450
639.1744, 7874.406
639.6566, 7860.023
640.1387, 7845.820
640.6208, 7832.533
641.1029, 7820.829
641.5850, 7812.007
642.0671, 7805.513
642.5493, 7800.000
643.0314, 7798.427
643.5135, 7794.585
643.9956, 7784.171
644.4777, 7768.925
644.9598, 7754.013
645.4420, 7741.409
645.9241, 7728.735
646.4062, 7715.019
646.8883, 7700.493
647.3704, 7687.622
647.8525, 7676.407
648.3347, 7667.075
648.8168, 7662.021
649.2989, 7660.824
649.7810, 7650.389
650.2631, 7629.607
650.7452, 7608.420
651.2274, 7597.787
651.7095, 7593.719
652.1916, 7587.859
652.6737, 7578.382
653.1558, 7568.204
653.6379, 7559.468
654.1201, 7551.162
654.6022, 7541.929
655.0843, 7532.616
655.5664, 7520.848
656.0485, 7504.856
656.5306, 7486.208
657.0128, 7468.191
657.4949, 7450.893
657.9770, 7434.283
658.4591, 7419.334
658.9412, 7405.045
659.4233, 7386.074
659.9055, 7361.876
660.3876, 7338.494
660.8697, 7320.587
661.3518, 7305.550
661.8339, 7286.071
662.3160, 7262.469
662.7982, 7239.696
663.2803, 7223.465
663.7624, 7208.450
664.2445, 7189.208
664.7266, 7164.218
665.2087, 7139.701
665.6909, 7120.908
666.1730, 7101.573
666.6551, 7075.996
667.1372, 7036.610
667.6193, 7003.917
668.1014, 6979.856
668.5836, 6960.849
669.0657, 6943.979
669.5478, 6930.042
670.0299, 6910.015
670.5120, 6881.093
670.9941, 6846.970
671.4763, 6812.158
671.9584, 6777.397
672.4405, 6745.037
672.9226, 6717.141
673.4047, 6690.999
673.8868, 6664.824
674.3690, 6638.673
674.8511, 6611.846
675.3332, 6583.403
675.8153, 6554.906
676.2974, 6526.364
676.7795, 6497.622
677.2617, 6469.932
677.7438, 6444.063
678.2259, 6417.661
678.7080, 6389.552
679.1901, 6359.509
679.6722, 6326.025
680.1544, 6287.823
680.6365, 6251.118
681.1186, 6222.760
681.6007, 6200.044
682.0828, 6175.146
682.5649, 6146.954
683.0471, 6117.767
683.5292, 6090.523
684.0113, 6063.498
684.4934, 6035.281
684.9755, 6005.236
685.4576, 5973.870
685.9398, 5938.623
686.4219, 5902.687
686.9040, 5871.139
687.3861, 5846.844
687.8682, 5821.294
688.3503, 5792.982
688.8325, 5762.787
689.3146, 5733.548
689.7967, 5705.445
690.2788, 5677.386
690.7609, 5648.659
691.2430, 5620.354
691.7252, 5594.820
692.2073, 5571.165
692.6894, 5546.381
693.1715, 5518.391
693.6536, 5488.767
694.1357, 5457.314
694.6179, 5424.230
695.1000, 5394.088
695.5821, 5370.057
696.0642, 5347.321
696.5463, 5323.841
697.0284, 5299.583
697.5106, 5274.350
697.9927, 5247.334
698.4748, 5221.271
698.9569, 5200.596
699.4390, 5184.153
699.9211, 5161.587
700.4033, 5131.674
700.8854, 5100.256
701.3675, 5072.818
701.8496, 5047.942
702.3317, 5022.966
702.8138, 4996.620
703.2960, 4972.591
703.7781, 4954.461
704.2602, 4939.014
704.7423, 4922.306
705.2244, 4903.671
705.7065, 4883.346
706.1887, 4859.702
706.6708, 4835.231
707.1529, 4813.409
707.6350, 4794.140
708.1171, 4778.310
708.5992, 4767.935
709.0814, 4758.867
709.5635, 4741.022
710.0456, 4715.902
710.5277, 4691.108
711.0098, 4669.351
711.4919, 4650.466
711.9741, 4635.503
712.4562, 4623.788
712.9383, 4611.983
713.4204, 4599.779
713.9025, 4586.439
714.3846, 4571.165
714.8668, 4553.993
715.3489, 4537.664
715.8310, 4521.885
716.3131, 4507.268
716.7952, 4494.003
717.2773, 4482.154
717.7595, 4471.477
718.2416, 4462.099
718.7237, 4452.456
719.2058, 4440.454
719.6879, 4427.637
720.1700, 4417.253
720.6522, 4409.694
721.1343, 4401.386
721.6164, 4387.157
722.0985, 4373.179
722.5806, 4364.944
723.0627, 4368.225
723.5449, 4365.650
724.0270, 4352.771
724.5091, 4337.291
724.9912, 4326.457
725.4733, 4321.008
725.9554, 4315.142
726.4376, 4308.167
726.9197, 4301.130
727.4018, 4294.999
727.8839, 4290.024
728.3660, 4287.425
728.8481, 4288.577
729.3303, 4289.530
729.8124, 4286.672
730.2945, 4281.458
730.7766, 4276.146
731.2587, 4269.175
731.7408, 4264.684
732.2230, 4265.156
732.7051, 4268.318
733.1872, 4270.140
733.6693, 4270.283
734.1514, 4269.926
734.6335, 4269.130
735.1157, 4268.226
735.5978, 4268.127
736.0799, 4268.782
736.5620, 4269.603
737.0441, 4270.216
737.5262, 4270.985
738.0084, 4272.059
738.4905, 4273.614
738.9726, 4276.203
739.4547, 4279.217
739.9368, 4284.113
740.4189, 4292.432
740.9011, 4303.951
741.3832, 4313.862
741.8653, 4321.585
742.3474, 4328.637
742.8295, 4334.581
743.3116, 4339.993
743.7938, 4351.813
744.2759, 4370.308
744.7580, 4385.562
745.2401, 4384.544
745.7222, 4378.523
746.2043, 4387.063
746.6865, 4410.315
747.1686, 4432.716
747.6507, 4443.346
748.1328, 4452.253
748.6149, 4466.815
749.0970, 4489.196
749.5792, 4509.265
750.0613, 4526.766
750.5434, 4541.943
751.0255, 4553.420
751.5076, 4560.154
751.9897, 4575.506
752.4719, 4600.882
752.9540, 4628.196
753.4361, 4649.742
753.9182, 4668.112
754.4003, 4688.923
754.8824, 4712.727
755.3646, 4738.772
755.8467, 4768.741
756.3288, 4799.369
756.8109, 4826.422
757.2930, 4846.144
757.7751, 4869.782
758.2573, 4899.559
758.7394, 4932.170
759.2215, 4964.991
759.7036, 4998.571
760.1857, 5030.057
760.6678, 5058.037
761.1500, 5086.616
761.6321, 5120.989
762.1142, 5159.403
762.5963, 5198.205
763.0784, 5236.104
763.5605, 5274.508
764.0427, 5315.782
764.5248, 5357.573
765.0069, 5396.946
765.4890, 5428.787
765.9711, 5463.996
766.4532, 5504.576
766.9354, 5548.307
767.4175, 5592.177
767.8996, 5636.167
768.3817, 5682.049
768.8638, 5730.838
769.3459, 5780.672
769.8281, 5825.802
770.3102, 5868.688
770.7923, 5916.859
771.2744, 5975.854
771.7565, 6036.409
772.2386, 6091.768
772.7208, 6144.927
773.2029, 6201.111
773.6850, 6265.475
774.1671, 6327.750
774.6492, 6384.901
775.1313, 6439.773
775.6135, 6498.709
776.0956, 6561.521
776.5777, 6625.857
777.0598, 6691.603
777.5419, 6757.702
778.0240, 6822.995
778.5062, 6888.033
778.9883, 6954.864
779.4704, 7026.808
779.9525, 7097.426
780.4346, 7161.185
780.9167, 7220.250
781.3989, 7281.521
781.8810, 7348.880
782.3631, 7415.802
782.8452, 7481.370
783.3273, 7545.014
783.8094, 7605.438
784.2916, 7662.614
784.7737, 7719.380
785.2558, 7776.753
785.7379, 7835.364
786.2200, 7898.607
786.7021, 7964.563
787.1843, 8023.213
787.6664, 8067.611
788.1485, 8107.289
788.6306, 8143.350
789.1127, 8178.303
789.5948, 8220.076
790.0770, 8277.652
790.5591, 8330.621
791.0412, 8373.981
791.5233, 8409.163
792.0054, 8441.878
792.4875, 8471.787
792.9697, 8498.863
793.4518, 8521.434
793.9339, 8542.100
794.4160, 8567.562
794.8981, 8594.816
795.3802, 8613.982
795.8624, 8618.118
796.3445, 8615.288
796.8266, 8605.090
797.3087, 8590.035
797.7908, 8582.387
798.2729, 8590.393
798.7551, 8590.591
799.2372, 8574.279
799.7193, 8546.060
800.2014, 8521.733
800.6835, 8501.213
801.1656, 8480.878
801.6478, 8459.590
802.1299, 8437.283
802.6120, 8414.192
803.0941, 8389.902
803.5762, 8362.629
804.0583, 8328.757
804.5405, 8294.875
805.0226, 8263.820
805.5047, 8234.721
805.9868, 8204.390
806.4689, 8172.820
806.9510, 8140.692
807.4332, 8108.897
807.9153, 8076.231
808.3974, 8040.422
808.8795, 8001.550
809.3616, 7959.756
809.8438, 7914.929
810.3259, 7868.095
810.8080, 7817.567
811.2901, 7765.788
811.7722, 7718.986
812.2543, 7685.473
812.7365, 7649.445
813.2186, 7605.378
813.7007, 7556.003
814.1828, 7513.017
814.6649, 7477.149
815.1470, 7439.463
815.6292, 7395.754
816.1113, 7349.644
816.5934, 7309.662
817.0755, 7273.438
817.5576, 7233.972
818.0397, 7182.919
818.5219, 7132.793
819.0040, 7091.399
819.4861, 7056.157
819.9682, 7019.072
820.4503, 6977.767
820.9324, 6937.408
821.4146, 6900.258
821.8967, 6864.859
822.3788, 6829.550
822.8609, 6794.319
823.3430, 6753.290
823.8251, 6700.318
824.3073, 6646.020
824.7894, 6602.396
825.2715, 6566.966
825.7536, 6532.295
826.2357, 6494.920
826.7178, 6459.273
827.2000, 6430.370
827.6821, 6403.151
828.1642, 6367.750
828.6463, 6319.986
829.1284, 6277.996
829.6105, 6246.125
830.0927, 6219.488
830.5748, 6187.998
831.0569, 6153.530
831.5390, 6122.583
832.0211, 6099.977
832.5032, 6076.470
832.9854, 6045.529
833.4675, 6009.523
833.9496, 5972.683
834.4317, 5934.487
834.9138, 5897.156
835.3959, 5860.048
835.8781, 5825.076
836.3602, 5796.253
836.8423, 5773.867
837.3244, 5747.178
837.8065, 5713.143
838.2886, 5677.673
838.7708, 5647.760
839.2529, 5620.792
839.7350, 5592.150
840.2171, 5559.204
840.6992, 5527.065
841.1813, 5498.993
841.6635, 5471.418
842.1456, 5439.851
842.6277, 5402.089
843.1098, 5367.894
843.5919, 5338.402
844.0740, 5310.866
844.5562, 5283.675
845.0383, 5256.055
845.5204, 5225.234
846.0025, 5190.356
846.4846, 5155.831
846.9667, 5124.300
847.4489, 5094.872
847.9310, 5067.474
848.4131, 5043.317
848.8952, 5017.013
849.3773, 4987.596
849.8594, 4956.959
850.3416, 4926.096
850.8237, 4895.025
851.3058, 4864.546
851.7879, 4834.306
852.2700, 4807.052
852.7521, 4787.958
853.2343, 4770.719
853.7164, 4746.695
854.1985, 4714.955
854.6806, 4684.979
855.1627, 4662.058
855.6448, 4639.641
856.1270, 4614.107
856.6091, 4585.222
857.0912, 4558.684
857.5733, 4535.065
858.0554, 4511.630
858.5375, 4485.647
859.0197, 4458.922
859.5018, 4435.906
859.9839, 4416.123
860.4660, 4395.953
860.9481, 4373.930
861.4302, 4350.571
861.9124, 4325.083
862.3945, 4298.023
862.8766, 4272.502
863.3587, 4249.735
863.8408, 4226.864
864.3229, 4202.985
864.8051, 4178.597
865.2872, 4156.101
865.7693, 4135.076
866.2514, 4114.069
866.7335, 4093.218
867.2156, 4071.510
867.6978, 4047.639
868.1799, 4022.686
868.6620, 3998.722
869.1441, 3975.703
869.6262, 3955.037
870.1083, 3938.060
870.5905, 3922.375
871.0726, 3903.049
871.5547, 3879.966
872.0368, 3856.984
872.5189, 3834.485
873.0010, 3814.039
873.4832, 3798.722
873.9653, 3786.076
874.4474, 3772.142
874.9295, 3754.644
875.4116, 3737.573
875.8937, 3722.874
876.3759, 3708.229
876.8580, 3691.165
877.3401, 3670.813
877.8222, 3653.389
878.3043, 3639.949
878.7864, 3626.325
879.2686, 3606.853
879.7507, 3584.215
880.2328, 3562.862
880.7149, 3543.350
881.1970, 3526.166
881.6791, 3513.483
882.1613, 3501.828
882.6434, 3488.854
883.1255, 3474.601
883.6076, 3458.591
884.0897, 3440.269
884.5718, 3422.117
885.0540, 3406.316
885.5361, 3391.834
886.0182, 3375.324
886.5003, 3357.041
886.9824, 3340.298
887.4645, 3327.812
887.9467, 3316.800
888.4288, 3306.539
888.9109, 3296.624
889.3930, 3283.518
889.8751, 3265.511
890.3572, 3248.045
890.8394, 3233.208
891.3215, 3219.993
891.8036, 3206.745
892.2857, 3193.129
892.7678, 3176.327
893.2499, 3150.964
893.7321, 3127.355
894.2142, 3114.916
894.6963, 3109.235
895.1784, 3102.057
895.6605, 3092.608
896.1426, 3080.010
896.6248, 3062.438
897.1069, 3043.591
897.5890, 3029.983
898.0711, 3020.783
898.5532, 3008.457
899.0353, 2990.818
899.5175, 2973.211
899.9996, 2962.108
900.4817, 2952.913
900.9638, 2939.858
901.4459, 2919.364
901.9280, 2902.012
902.4102, 2891.491
902.8923, 2880.942
903.3744, 2864.844
903.8565, 2842.896
904.3386, 2823.638
904.8207, 2807.338
905.3029, 2793.397
905.7850, 2783.421
906.2671, 2774.565
906.7492, 2763.950
907.2313, 2751.431
907.7134, 2737.312
908.1956, 2720.217
908.6777, 2703.150
909.1598, 2687.200
909.6419, 2672.101
910.1240, 2656.579
910.6061, 2640.715
911.0883, 2624.219
911.5704, 2606.106
912.0525, 2588.572
912.5346, 2575.434
913.0167, 2564.730
913.4988, 2552.198
913.9810, 2534.952
914.4631, 2517.478
914.9452, 2500.658
915.4273, 2484.112
915.9094, 2466.710
916.3915, 2448.336
916.8737, 2432.835
917.3558, 2421.108
917.8379, 2410.703
918.3200, 2400.328
918.8021, 2388.864
919.2842, 2374.009
919.7664, 2354.539
920.2485, 2336.056
920.7306, 2320.439
921.2127, 2306.229
921.6948, 2293.062
922.1769, 2281.009
922.6591, 2267.714
923.1412, 2253.026
923.6233, 2237.974
924.1054, 2223.241
924.5875, 2207.626
925.0696, 2192.677
925.5518, 2176.079
926.0339, 2159.483
926.5160, 2143.267
926.9981, 2127.264
927.4802, 2111.342
927.9623, 2095.764
928.4445, 2081.305
928.9266, 2068.038
929.4087, 2054.390
929.8908, 2039.608
930.3729, 2024.460
930.8550, 2010.303
931.3372, 1996.343
931.8193, 1981.416
932.3014, 1964.143
932.7835, 1947.353
933.2656, 1931.066
933.7477, 1915.897
934.2299, 1902.837
934.7120, 1892.423
935.1941, 1879.164
935.6762, 1862.577
936.1583, 1845.531
936.6404, 1830.369
937.1226, 1816.712
937.6047, 1804.828
938.0868, 1794.694
938.5689, 1783.887
939.0510, 1771.106
939.5331, 1758.028
940.0153, 1745.274
940.4974, 1732.713
940.9795, 1718.669
941.4616, 1702.969
941.9437, 1688.968
942.4258, 1679.443
942.9080, 1671.179
943.3901, 1660.797
943.8722, 1648.866
944.3543, 1636.589
944.8364, 1621.629
945.3185, 1610.411
945.8007, 1606.525
946.2828, 1604.216
946.7649, 1595.143
947.2470, 1579.495
947.7291, 1563.825
948.2112, 1548.763
948.6934, 1535.459
949.1755, 1525.604
949.6576, 1517.601
950.1397, 1509.715
950.6218, 1501.768
951.1039, 1493.355
951.5861, 1483.710
952.0682, 1474.615
952.5503, 1467.106
953.0324, 1460.944
953.5145, 1454.923
953.9966, 1448.951
954.4788, 1441.702
954.9609, 1430.753
955.4430, 1419.664
955.9251, 1412.053
956.4072, 1406.539
956.8893, 1399.217
957.3715, 1386.861
957.8536, 1377.708
958.3357, 1374.077
958.8178, 1372.289
959.2999, 1366.104
959.7820, 1356.497
960.2642, 1348.279
960.7463, 1342.510
961.2284, 1336.786
961.7105, 1329.366
962.1926, 1321.114
962.6747, 1312.274
963.1569, 1302.252
963.6390, 1295.091
964.1211, 1291.529
964.6032, 1288.670
965.0853, 1285.253
965.5674, 1281.135
966.0496, 1274.996
966.5317, 1267.533
967.0138, 1261.775
967.4959, 1262.128
967.9780, 1261.706
968.4601, 1257.169
968.9423, 1249.463
969.4244, 1240.495
969.9065, 1229.253
970.3886, 1220.890
970.8707, 1216.452
971.3528, 1214.420
971.8350, 1214.739
972.3171, 1215.333
972.7992, 1211.629
973.2813, 1201.437
973.7634, 1193.100
974.2455, 1192.416
974.7277, 1192.085
975.2098, 1187.013
975.6919, 1177.088
976.1740, 1171.754
976.6561, 1171.201
977.1382, 1171.041
977.6204, 1168.249
978.1025, 1164.558
978.5846, 1162.279
979.0667, 1160.868
979.5488, 1158.621
980.0309, 1153.988
980.5131, 1149.939
980.9952, 1147.293
981.4773, 1145.068
981.9594, 1141.178
982.4415, 1135.967
982.9236, 1132.654
983.4058, 1132.223
983.8879, 1131.334
984.3700, 1125.882
984.8521, 1119.481
985.3342, 1115.705
985.8163, 1115.675
986.2985, 1114.918
986.7806, 1112.971
987.2627, 1111.357
987.7448, 1111.720
988.2269, 1112.691
988.7090, 1108.932
989.1912, 1101.652
989.6733, 1095.855
990.1554, 1096.036
990.6375, 1096.134
991.1196, 1092.464
991.6017, 1087.195
992.0839, 1084.190
992.5660, 1083.971
993.0481, 1083.926
993.5302, 1083.995
994.0123, 1083.162
994.4944, 1079.019
994.9766, 1073.749
995.4587, 1070.924
995.9408, 1071.138
996.4229, 1071.470
996.9050, 1071.482
997.3871, 1070.731
997.8693, 1068.621
998.3514, 1065.554
998.8335, 1064.382
999.3156, 1064.994
999.7977, 1065.225
1000.280, 1063.621
1000.762, 1061.955
1001.244, 1062.433
1001.726, 1063.857
1002.208, 1064.199
1002.690, 1063.044
1003.173, 1060.697
1003.655, 1056.580
1004.137, 1052.505
1004.619, 1050.278
1005.101, 1049.652
1005.583, 1050.386
1006.065, 1052.349
1006.547, 1053.589
1007.029, 1052.921
1007.512, 1051.182
1007.994, 1047.813
1008.476, 1043.580
1008.958, 1042.697
1009.440, 1046.079
1009.922, 1046.612
1010.404, 1040.930
1010.886, 1034.130
1011.369, 1034.796
1011.851, 1038.886
1012.333, 1039.102
1012.815, 1030.761
1013.297, 1025.561
1013.779, 1027.811
1014.261, 1030.978
1014.743, 1030.087
1015.225, 1025.468
1015.708, 1023.745
1016.190, 1024.794
1016.672, 1026.497
1017.154, 1028.245
1017.636, 1029.392
1018.118, 1029.427
1018.600, 1028.439
1019.082, 1026.652
1019.565, 1023.309
1020.047, 1021.348
1020.529, 1021.562
1021.011, 1022.428
1021.493, 1021.631
1021.975, 1019.943
1022.457, 1019.142
1022.939, 1019.648
1023.421, 1019.871
1023.904, 1018.210
1024.386, 1017.085
1024.868, 1018.620
1025.350, 1022.120
1025.832, 1019.990
1026.314, 1012.315
1026.796, 1005.964
1027.278, 1004.860
1027.760, 1005.549
1028.243, 1004.508
1028.725, 1002.880
1029.207, 1002.627
1029.689, 1006.448
1030.171, 1007.453
1030.653, 1004.570
1031.135, 1000.943
1031.617, 999.8503
1032.100, 1000.468
1032.582, 1000.469
1033.064, 999.7219
1033.546, 998.4423
1034.028, 996.0123
1034.510, 993.8194
1034.992, 992.7156
1035.474, 992.3093
1035.957, 991.4518
1036.439, 990.0726
1036.921, 989.5184
1037.403, 990.4498
1037.885, 991.0947
1038.367, 988.7913
1038.849, 985.3488
1039.331, 983.0956
1039.813, 982.6671
1040.296, 982.2988
1040.778, 981.8427
1041.260, 981.4922
1041.742, 981.7805
1042.224, 982.0981
1042.706, 979.6873
1043.188, 975.3093
1043.670, 971.8131
1044.152, 971.0848
1044.635, 970.9514
1045.117, 970.6144
1045.599, 970.3621
1046.081, 970.8522
1046.563, 972.3841
1047.045, 972.3301
1047.527, 970.5430
1048.009, 967.2050
1048.492, 960.0349
1048.974, 953.1581
1049.456, 951.9157
1049.938, 956.0157
1050.420, 958.4784
1050.902, 958.3837
1051.384, 956.8990
1051.866, 953.7430
1052.349, 950.2099
1052.831, 949.1830
1053.313, 949.7845
1053.795, 949.5430
1054.277, 947.6760
1054.759, 945.6855
1055.241, 943.8237
1055.723, 942.4592
1056.205, 941.6777
1056.688, 941.4869
1057.170, 943.6474
1057.652, 948.1594
1058.134, 949.1564
1058.616, 940.0954
1059.098, 929.9810
1059.580, 928.2461
1060.062, 931.2231
1060.544, 931.9858
1061.027, 928.2111
1061.509, 924.7734
1061.991, 921.5748
1062.473, 919.5333
1062.955, 920.4996
1063.437, 922.9843
1063.919, 923.8953
1064.401, 923.1165
1064.884, 921.4376
1065.366, 918.6952
1065.848, 915.6158
1066.330, 911.9394
1066.812, 908.4722
1067.294, 907.6865
1067.776, 909.2282
1068.258, 908.9189
1068.740, 905.5330
1069.223, 902.3256
1069.705, 903.3630
1070.187, 904.6158
1070.669, 901.7830
1071.151, 894.4094
1071.633, 890.0185
1072.115, 889.0606
1072.597, 888.6461
1073.079, 887.0887
1073.562, 885.8992
1074.044, 889.4559
1074.526, 894.5763
1075.008, 895.2084
1075.490, 885.3640
1075.972, 878.5356
1076.454, 876.6614
1076.936, 876.5391
1077.419, 875.9706
1077.901, 875.0067
1078.383, 873.8780
1078.865, 872.5687
1079.347, 871.0204
1079.829, 869.2016
1080.311, 867.1185
1080.793, 864.2115
1081.275, 861.2814
1081.758, 859.8992
1082.240, 860.1772
1082.722, 859.3707
1083.204, 857.0097
1083.686, 854.8022
1084.168, 855.7078
1084.650, 856.3527
1085.132, 852.2148
1085.615, 843.4742
1086.097, 840.0473
1086.579, 844.5966
1087.061, 846.6719
1087.543, 842.4456
1088.025, 836.1882
1088.507, 835.1454
1088.989, 836.9368
1089.471, 837.3221
1089.953, 835.1734
1090.436, 832.2176
1090.918, 827.4206
1091.400, 823.8820
1091.882, 823.9631
1092.364, 826.4525
1092.846, 825.6317
1093.328, 822.0417
1093.810, 818.2080
1094.293, 814.0569
1094.775, 811.5902
1095.257, 812.9965
1095.739, 815.7572
1096.221, 817.3026
1096.703, 817.5870
1097.185, 816.8256
1097.667, 814.9984
1098.150, 812.8936
1098.632, 811.0293
1099.114, 809.2224
1099.596, 806.8987
1100.078, 804.4895
1100.560, 803.5430
1101.042, 805.0485
1101.524, 805.1539
1102.006, 803.2089
1102.489, 800.2843
1102.971, 797.0030
1103.453, 793.7808
1103.935, 791.2797
1104.417, 789.5423
1104.899, 788.3780
1105.381, 788.6746
1105.863, 788.0194
1106.345, 785.3531
1106.828, 781.9180
1107.310, 780.5331
1107.792, 780.6497
1108.274, 780.8137
1108.756, 780.8922
1109.238, 780.0298
1109.720, 776.3179
1110.202, 773.0931
1110.685, 772.7518
1111.167, 774.6603
1111.649, 773.8404
1112.131, 770.5509
1112.613, 767.2440
1113.095, 764.7245
1113.577, 763.0282
1114.059, 762.8203
1114.542, 763.1389
1115.024, 762.9599
1115.506, 762.3923
1115.988, 760.2337
1116.470, 756.2628
1116.952, 752.9145
1117.434, 752.3654
1117.916, 752.8572
1118.398, 752.7321
1118.880, 752.1063
1119.363, 751.2356
1119.845, 749.4756
1120.327, 749.1554
1120.809, 750.8703
1121.291, 752.6351
1121.773, 752.2947
1122.255, 750.7209
1122.737, 749.3707
1123.220, 748.2728
1123.702, 746.9920
1124.184, 745.2965
1124.666, 743.4991
1125.148, 741.5349
1125.630, 739.6729
1126.112, 738.5652
1126.594, 737.9080
1127.077, 736.5385
1127.559, 734.2493
1128.041, 732.6125
1128.523, 733.3534
1129.005, 733.8600
1129.487, 733.1117
1129.969, 731.2628
1130.451, 727.7392
1130.933, 723.0674
1131.416, 721.9823
1131.898, 726.7496
1132.380, 730.9570
1132.862, 729.9938
1133.344, 726.8633
1133.826, 723.2083
1134.308, 719.2662
1134.790, 719.1126
1135.272, 722.8593
1135.755, 725.3534
1136.237, 723.9138
1136.719, 721.4637
1137.201, 721.2128
1137.683, 721.3684
1138.165, 719.0745
1138.647, 712.9051
1139.129, 710.5588
1139.612, 712.5242
1140.094, 715.1061
1140.576, 716.1213
1141.058, 716.3320
1141.540, 717.2263
1142.022, 717.9490
1142.504, 716.5497
1142.986, 710.0014
1143.469, 706.7554
1143.951, 707.7189
1144.433, 709.7484
1144.915, 710.6638
1145.397, 710.5147
1145.879, 708.4043
1146.361, 705.1284
1146.843, 703.8479
1147.325, 708.5988
1147.807, 710.9810
1148.290, 709.5775
1148.772, 706.2489
1149.254, 702.2004
1149.736, 698.2446
1150.218, 697.1081
1150.700, 698.6473
1151.182, 698.9722
1151.664, 693.0753
1152.147, 690.2217
1152.629, 694.0878
1153.111, 700.9958
1153.593, 704.3920
1154.075, 704.8193
1154.557, 704.2804
1155.039, 703.0151
1155.521, 702.0662
1156.004, 702.9438
1156.486, 703.1816
1156.968, 701.1902
1157.450, 697.9867
1157.932, 696.7504
1158.414, 697.2705
1158.896, 698.3231
1159.378, 699.9452
1159.860, 700.3812
1160.343, 696.7303
1160.825, 693.0572
1161.307, 692.5219
1161.789, 694.6176
1162.271, 695.1151
1162.753, 694.1107
1163.235, 693.9626
1163.717, 695.8548
1164.199, 697.9750
1164.682, 699.0659
1165.164, 699.4492
1165.646, 699.3661
1166.128, 698.8285
1166.610, 698.1381
1167.092, 697.2958
1167.574, 696.2551
1168.056, 694.6744
1168.539, 693.3750
1169.021, 693.8655
1169.503, 694.7375
1169.985, 693.7152
1170.467, 689.9613
1170.949, 688.0490
1171.431, 688.1248
1171.913, 688.9500
1172.396, 690.6135
1172.878, 691.8483
1173.360, 690.0671
1173.842, 687.2210
1174.324, 687.3694
1174.806, 692.3479
1175.288, 696.1516
1175.770, 698.7833
1176.252, 699.3967
1176.734, 694.8083
1177.217, 689.6752
1177.699, 691.0528
1178.181, 696.6927
1178.663, 699.6569
1179.145, 697.4425
1179.627, 696.4814
1180.109, 697.4622
1180.591, 698.7865
1181.074, 699.2405
1181.556, 698.8948
1182.038, 697.6652
1182.520, 695.6852
1183.002, 693.5086
1183.484, 690.8143
1183.966, 688.7004
1184.448, 687.1418
1184.931, 686.7141
1185.413, 689.1094
1185.895, 692.5488
1186.377, 693.7538
1186.859, 692.8721
1187.341, 693.0976
1187.823, 696.0536
1188.305, 698.0768
1188.787, 698.4697
1189.270, 697.6769
1189.752, 695.5771
1190.234, 693.0385
1190.716, 691.2286
1191.198, 690.3132
1191.680, 691.1648
1192.162, 694.8832
1192.644, 698.7898
1193.126, 702.7807
1193.609, 705.6588
1194.091, 704.7219
1194.573, 701.5417
1195.055, 698.6393
1195.537, 696.3516
1196.019, 695.4606
1196.501, 696.8967
1196.983, 698.2537
1197.466, 698.6016
1197.948, 698.8495
1198.430, 701.2548
1198.912, 704.6454
1199.394, 706.6201
1199.876, 706.5541
1200.358, 706.1953
1200.840, 705.9063
1201.323, 705.3372
1201.805, 704.2454
1202.287, 702.9601
1202.769, 702.1317
1203.251, 701.6531
1203.733, 701.1620
1204.215, 700.3311
1204.697, 700.8047
1205.179, 703.4178
1205.661, 706.2939
1206.144, 708.9262
1206.626, 710.9412
1207.108, 711.0158
1207.590, 709.8499
1208.072, 708.9689
1208.554, 708.9841
1209.036, 708.5041
1209.518, 706.6832
1210.001, 705.6236
1210.483, 706.7029
1210.965, 708.9525
1211.447, 710.4366
1211.929, 711.1516
1212.411, 710.9760
1212.893, 709.0589
1213.375, 708.4968
1213.858, 709.9924
1214.340, 712.0016
1214.822, 713.9931
1215.304, 715.6737
1215.786, 716.2852
1216.268, 716.0448
1216.750, 715.3406
1217.232, 713.8069
1217.714, 712.8609
1218.197, 712.4935
1218.679, 712.9269
1219.161, 714.6694
1219.643, 717.0364
1220.125, 719.2841
1220.607, 720.9148
1221.089, 720.7119
1221.571, 716.1702
1222.053, 713.9347
1222.536, 714.8319
1223.018, 716.6549
1223.500, 718.5916
1223.982, 720.0262
1224.464, 718.6954
1224.946, 716.0103
1225.428, 715.1891
1225.910, 719.6934
1226.393, 721.6238
1226.875, 720.1771
1227.357, 718.2783
1227.839, 718.2094
1228.321, 718.9643
1228.803, 718.8966
1229.285, 718.3029
1229.767, 717.9066
1230.250, 718.8423
1230.732, 717.4254
1231.214, 712.5820
1231.696, 709.3714
1232.178, 713.7795
1232.660, 720.6080
1233.142, 723.1385
1233.624, 722.3654
1234.106, 720.4227
1234.589, 716.2367
1235.071, 715.0421
1235.553, 717.4280
1236.035, 720.2882
1236.517, 721.4053
1236.999, 721.5344
1237.481, 720.3456
1237.963, 719.0587
1238.445, 720.9717
1238.928, 728.4864
1239.410, 730.4375
1239.892, 725.8090
1240.374, 721.4329
1240.856, 724.1368
1241.338, 727.9545
1241.820, 726.6113
1242.302, 722.6007
1242.785, 721.4807
1243.267, 724.2092
1243.749, 725.6945
1244.231, 725.7370
1244.713, 724.9070
1245.195, 722.3069
1245.677, 720.3223
1246.159, 721.9389
1246.641, 724.9304
1247.124, 724.9445
1247.606, 721.5660
1248.088, 720.2881
1248.570, 721.3226
1249.052, 722.5330
1249.534, 721.7074
1250.016, 721.4774
1250.498, 725.1200
1250.980, 729.2529
1251.463, 729.0213
1251.945, 724.4885
1252.427, 720.2834
1252.909, 716.7852
1253.391, 716.0483
1253.873, 722.5275
1254.355, 728.2640
1254.837, 729.5543
1255.320, 728.5700
1255.802, 727.2365
1256.284, 725.6223
1256.766, 723.8665
1257.248, 722.1194
1257.730, 721.2926
1258.212, 722.6326
1258.694, 723.9584
1259.177, 724.8291
1259.659, 725.2620
1260.141, 725.4703
1260.623, 725.2175
1261.105, 722.9866
1261.587, 719.3322
1262.069, 717.0045
1262.551, 718.0759
1263.033, 719.4077
1263.516, 720.9500
1263.998, 721.8448
1264.480, 720.6671
1264.962, 718.4974
1265.444, 717.3358
1265.926, 717.1957
1266.408, 717.8878
1266.890, 721.1228
1267.372, 721.3732
1267.855, 717.2164
1268.337, 713.9636
1268.819, 718.6652
1269.301, 725.3187
1269.783, 724.2188
1270.265, 718.2407
1270.747, 716.0921
1271.229, 720.5824
1271.712, 722.0424
1272.194, 719.6962
1272.676, 717.0236
1273.158, 716.6937
1273.640, 717.2838
1274.122, 717.6829
1274.604, 717.9500
1275.086, 718.3727
1275.568, 717.9730
1276.051, 718.6119
1276.533, 716.7330
1277.015, 714.9046
1277.497, 713.5281
1277.979, 713.0422
1278.461, 714.5388
1278.943, 716.5641
1279.425, 717.5596
1279.907, 717.5322
1280.390, 715.5139
1280.872, 711.8198
1281.354, 709.0259
1281.836, 709.2113
1282.318, 709.6973
1282.800, 709.5029
1283.282, 709.2962
1283.764, 710.0167
1284.247, 709.3431
1284.729, 708.5703
1285.211, 708.3776
1285.693, 706.4556
1286.175, 705.4619
1286.657, 704.8941
1287.139, 705.0918
1287.621, 704.7781
1288.104, 702.2675
1288.586, 698.9568
1289.068, 697.3992
1289.550, 697.4509
1290.032, 698.8312
1290.514, 703.2592
1290.996, 705.5141
1291.478, 705.4660
1291.960, 703.7752
1292.443, 700.2050
1292.925, 695.9218
1293.407, 691.1815
1293.889, 687.1796
1294.371, 686.5243
1294.853, 690.1151
1295.335, 691.3029
1295.817, 690.0328
1296.299, 688.6548
1296.782, 688.4970
1297.264, 688.4399
1297.746, 687.3802
1298.228, 686.2066
1298.710, 686.0867
1299.192, 686.9145
1299.674, 685.9540
1300.156, 683.4827
1300.639, 681.2076
1301.121, 680.0641
1301.603, 678.6856
1302.085, 675.6002
1302.567, 673.2670
1303.049, 672.8398
1303.531, 674.2088
##END=



