##NAMES=Fluorite
##RRUFFID=R050046
##IDEAL CHEMISTRY=CaF_2_
##LOCALITY=Shangbao, Lei Yang, Hunan Province, China
##OWNER=RRUFF
##SOURCE=Eugene Schlepp
##DESCRIPTION=Pale purple crystal
##STATUS=The identification of this mineral has been confirmed by X-ray diffraction and chemical analysis
##URL=rruff.info/R050046
##MEASURED CHEMISTRY=Ca_1.000_ F_2.000_
153.8033, 629.9365
154.2855, 635.5191
154.7676, 640.2701
155.2497, 643.7263
155.7318, 643.8679
156.2139, 635.3912
156.6960, 625.8818
157.1782, 625.5951
157.6603, 636.2424
158.1424, 647.6642
158.6245, 651.0399
159.1066, 649.0463
159.5887, 647.7931
160.0709, 646.5010
160.5530, 647.6484
161.0351, 657.2695
161.5172, 678.2888
161.9993, 697.0854
162.4814, 700.4520
162.9636, 694.6782
163.4457, 690.6290
163.9278, 690.4777
164.4099, 694.7589
164.8920, 706.2994
165.3741, 728.1940
165.8563, 748.5486
166.3384, 759.9996
166.8205, 765.0297
167.3026, 766.8306
167.7847, 763.5251
168.2668, 758.8110
168.7490, 761.9545
169.2311, 776.8174
169.7132, 790.8505
170.1953, 796.8469
170.6774, 797.8629
171.1595, 798.1870
171.6417, 798.6750
172.1238, 800.1780
172.6059, 805.9156
173.0880, 819.5215
173.5701, 829.8809
174.0522, 830.5510
174.5344, 825.6215
175.0165, 820.4739
175.4986, 816.8385
175.9807, 815.1865
176.4628, 817.3278
176.9449, 825.5983
177.4271, 833.4534
177.9092, 838.4164
178.3913, 841.4955
178.8734, 843.8869
179.3555, 845.9792
179.8376, 847.9781
180.3197, 851.0878
180.8019, 858.0563
181.2840, 860.8990
181.7661, 853.6984
182.2482, 842.6640
182.7303, 835.4680
183.2124, 835.9891
183.6946, 842.4153
184.1767, 850.1089
184.6588, 860.8014
185.1409, 869.5164
185.6230, 874.8236
186.1051, 877.8198
186.5873, 878.7448
187.0694, 876.9358
187.5515, 875.3141
188.0336, 883.1831
188.5157, 910.3491
188.9978, 929.6907
189.4800, 931.9456
189.9621, 926.1448
190.4442, 921.3487
190.9263, 921.5474
191.4084, 924.7757
191.8905, 926.2301
192.3727, 924.6299
192.8548, 923.4829
193.3369, 921.1372
193.8190, 920.4323
194.3011, 925.4178
194.7832, 937.8131
195.2654, 953.1403
195.7475, 961.1321
196.2296, 956.5803
196.7117, 954.3666
197.1938, 956.5981
197.6759, 961.4531
198.1581, 968.8337
198.6402, 978.5116
199.1223, 987.2721
199.6044, 988.2924
200.0865, 975.8325
200.5686, 966.9733
201.0508, 963.1090
201.5329, 962.6951
202.0150, 964.9850
202.4971, 969.6628
202.9792, 976.2943
203.4613, 985.3651
203.9435, 1001.620
204.4256, 1009.018
204.9077, 999.1523
205.3898, 986.9842
205.8719, 983.3414
206.3540, 990.0071
206.8362, 1000.435
207.3183, 1005.909
207.8004, 1004.956
208.2825, 1002.370
208.7646, 994.9245
209.2467, 988.5348
209.7289, 986.1038
210.2110, 988.2609
210.6931, 994.5673
211.1752, 1006.123
211.6573, 1026.522
212.1395, 1038.406
212.6216, 1035.411
213.1037, 1029.964
213.5858, 1027.688
214.0679, 1028.767
214.5500, 1030.300
215.0322, 1029.198
215.5143, 1024.818
215.9964, 1022.110
216.4785, 1019.688
216.9606, 1020.159
217.4427, 1026.309
217.9249, 1036.611
218.4070, 1046.599
218.8891, 1051.602
219.3712, 1051.271
219.8533, 1058.833
220.3354, 1088.429
220.8176, 1112.398
221.2997, 1121.191
221.7818, 1118.483
222.2639, 1112.257
222.7460, 1107.595
223.2281, 1104.479
223.7103, 1103.117
224.1924, 1105.433
224.6745, 1107.526
225.1566, 1106.323
225.6387, 1104.809
226.1208, 1108.633
226.6030, 1121.951
227.0851, 1140.933
227.5672, 1148.823
228.0493, 1132.651
228.5314, 1122.646
229.0135, 1127.111
229.4957, 1138.891
229.9778, 1150.707
230.4599, 1159.425
230.9420, 1164.708
231.4241, 1164.970
231.9062, 1154.689
232.3884, 1149.021
232.8705, 1152.641
233.3526, 1159.471
233.8347, 1165.571
234.3168, 1169.401
234.7989, 1169.491
235.2811, 1161.485
235.7632, 1138.045
236.2453, 1124.244
236.7274, 1130.400
237.2095, 1139.825
237.6916, 1140.491
238.1738, 1130.573
238.6559, 1117.865
239.1380, 1111.206
239.6201, 1110.773
240.1022, 1116.059
240.5843, 1138.987
241.0665, 1157.869
241.5486, 1159.627
242.0307, 1145.537
242.5128, 1127.487
242.9949, 1116.334
243.4770, 1112.543
243.9592, 1109.946
244.4413, 1108.098
244.9234, 1108.063
245.4055, 1110.887
245.8876, 1115.942
246.3697, 1121.804
246.8519, 1128.285
247.3340, 1134.972
247.8161, 1137.660
248.2982, 1133.982
248.7803, 1129.152
249.2624, 1124.013
249.7446, 1119.206
250.2267, 1115.882
250.7088, 1115.076
251.1909, 1115.662
251.6730, 1113.385
252.1551, 1104.089
252.6373, 1100.725
253.1194, 1113.656
253.6015, 1131.424
254.0836, 1141.042
254.5657, 1136.966
255.0478, 1126.452
255.5300, 1120.828
256.0121, 1121.211
256.4942, 1122.343
256.9763, 1122.544
257.4584, 1123.072
257.9406, 1124.346
258.4227, 1126.402
258.9048, 1130.807
259.3869, 1141.375
259.8690, 1158.600
260.3511, 1170.794
260.8333, 1175.054
261.3154, 1173.736
261.7975, 1166.645
262.2796, 1154.415
262.7617, 1143.466
263.2438, 1138.652
263.7260, 1139.197
264.2081, 1140.647
264.6902, 1142.512
265.1723, 1145.411
265.6544, 1150.363
266.1365, 1156.760
266.6187, 1162.516
267.1008, 1166.452
267.5829, 1169.122
268.0650, 1171.901
268.5471, 1175.165
269.0292, 1177.404
269.5114, 1174.928
269.9935, 1170.892
270.4756, 1171.402
270.9577, 1183.155
271.4398, 1195.898
271.9219, 1195.438
272.4041, 1181.297
272.8862, 1170.509
273.3683, 1173.338
273.8504, 1184.248
274.3325, 1191.982
274.8146, 1195.232
275.2968, 1196.763
275.7789, 1196.742
276.2610, 1196.055
276.7431, 1199.150
277.2252, 1209.450
277.7073, 1221.704
278.1895, 1227.284
278.6716, 1225.887
279.1537, 1221.666
279.6358, 1211.760
280.1179, 1200.952
280.6000, 1198.034
281.0822, 1205.350
281.5643, 1218.050
282.0464, 1231.838
282.5285, 1246.897
283.0106, 1259.764
283.4927, 1269.935
283.9749, 1277.803
284.4570, 1282.363
284.9391, 1284.003
285.4212, 1287.066
285.9033, 1295.984
286.3854, 1310.487
286.8676, 1319.476
287.3497, 1319.332
287.8318, 1317.756
288.3139, 1317.009
288.7960, 1317.719
289.2781, 1320.990
289.7603, 1327.500
290.2424, 1336.905
290.7245, 1347.784
291.2066, 1364.018
291.6887, 1376.888
292.1708, 1381.113
292.6530, 1382.667
293.1351, 1390.048
293.6172, 1406.116
294.0993, 1425.422
294.5814, 1437.498
295.0635, 1431.705
295.5457, 1439.658
296.0278, 1472.687
296.5099, 1510.129
296.9920, 1536.333
297.4741, 1550.451
297.9562, 1562.041
298.4384, 1580.720
298.9205, 1607.019
299.4026, 1637.407
299.8847, 1679.438
300.3668, 1717.891
300.8489, 1738.170
301.3311, 1750.989
301.8131, 1779.074
302.2953, 1838.818
302.7774, 1924.359
303.2595, 2005.765
303.7416, 2079.061
304.2237, 2153.975
304.7058, 2227.708
305.1880, 2305.847
305.6701, 2394.417
306.1522, 2495.695
306.6343, 2607.007
307.1164, 2724.883
307.5985, 2849.430
308.0807, 2978.484
308.5628, 3107.622
309.0449, 3244.153
309.5270, 3391.669
310.0091, 3551.085
310.4912, 3719.610
310.9734, 3892.137
311.4555, 4070.068
311.9376, 4267.376
312.4197, 4492.019
312.9018, 4726.167
313.3839, 4945.983
313.8661, 5164.438
314.3482, 5414.133
314.8303, 5711.644
315.3124, 6048.698
315.7945, 6412.240
316.2766, 6801.808
316.7588, 7217.998
317.2409, 7665.744
317.7230, 8136.981
318.2051, 8623.116
318.6872, 9144.536
319.1693, 9638.117
319.6515, 10076.65
320.1336, 10450.61
320.6157, 10730.10
321.0978, 10911.88
321.5799, 10978.48
322.0620, 10894.81
322.5442, 10669.99
323.0263, 10332.70
323.5084, 9838.129
323.9905, 9256.480
324.4726, 8665.466
324.9547, 8076.070
325.4369, 7497.293
325.9190, 6931.717
326.4011, 6380.360
326.8832, 5877.413
327.3653, 5419.320
327.8474, 5007.864
328.3296, 4646.588
328.8117, 4332.206
329.2938, 4061.007
329.7759, 3831.868
330.2580, 3638.896
330.7401, 3462.969
331.2223, 3307.583
331.7044, 3164.160
332.1865, 3027.144
332.6686, 2903.371
333.1507, 2803.911
333.6328, 2731.194
334.1150, 2672.076
334.5971, 2606.314
335.0792, 2529.100
335.5613, 2459.199
336.0434, 2396.846
336.5255, 2340.691
337.0077, 2292.727
337.4898, 2251.170
337.9719, 2210.716
338.4540, 2166.518
338.9361, 2119.740
339.4182, 2081.814
339.9004, 2062.655
340.3825, 2037.947
340.8646, 1992.495
341.3467, 1940.798
341.8288, 1902.924
342.3109, 1887.837
342.7931, 1881.329
343.2752, 1861.686
343.7573, 1826.897
344.2394, 1792.748
344.7215, 1760.342
345.2036, 1732.173
345.6858, 1711.294
346.1679, 1697.591
346.6500, 1684.701
347.1321, 1669.399
347.6142, 1651.864
348.0963, 1630.350
348.5785, 1601.709
349.0606, 1578.393
349.5427, 1576.528
350.0248, 1588.695
350.5069, 1592.834
350.9890, 1578.906
351.4712, 1560.466
351.9533, 1548.595
352.4354, 1542.152
352.9175, 1535.351
353.3996, 1526.309
353.8817, 1514.268
354.3639, 1495.685
354.8460, 1465.304
355.3281, 1440.798
355.8102, 1428.378
356.2923, 1422.887
356.7744, 1420.125
357.2566, 1418.747
357.7387, 1415.921
358.2208, 1407.713
358.7029, 1392.009
359.1850, 1383.056
359.6671, 1386.849
360.1493, 1390.411
360.6314, 1388.358
361.1135, 1381.493
361.5956, 1372.483
362.0777, 1362.771
362.5598, 1352.336
363.0420, 1340.473
363.5241, 1321.663
364.0062, 1310.868
364.4883, 1316.307
364.9704, 1325.477
365.4525, 1326.734
365.9347, 1318.142
366.4168, 1308.165
366.8989, 1307.739
367.3810, 1317.721
367.8631, 1322.961
368.3452, 1322.795
368.8274, 1317.396
369.3095, 1302.892
369.7916, 1283.628
370.2737, 1270.094
370.7558, 1269.600
371.2379, 1275.636
371.7201, 1276.027
372.2022, 1269.735
372.6843, 1268.288
373.1664, 1281.664
373.6485, 1299.497
374.1306, 1306.223
374.6128, 1299.598
375.0949, 1288.294
375.5770, 1271.281
376.0591, 1253.705
376.5412, 1248.220
377.0233, 1258.586
377.5055, 1271.886
377.9876, 1274.949
378.4697, 1266.456
378.9518, 1258.742
379.4339, 1252.318
379.9160, 1246.376
380.3982, 1239.887
380.8803, 1233.464
381.3624, 1229.380
381.8445, 1229.183
382.3266, 1231.018
382.8087, 1229.167
383.2909, 1218.750
383.7730, 1210.958
384.2551, 1205.758
384.7372, 1203.407
385.2193, 1205.656
385.7014, 1211.866
386.1836, 1217.954
386.6657, 1219.828
387.1478, 1217.391
387.6299, 1212.325
388.1120, 1200.900
388.5941, 1191.118
389.0763, 1185.046
389.5584, 1182.377
390.0405, 1183.007
390.5226, 1187.489
391.0047, 1193.445
391.4868, 1197.847
391.9690, 1200.854
392.4511, 1200.383
392.9332, 1193.271
393.4153, 1184.703
393.8974, 1179.611
394.3795, 1178.026
394.8617, 1177.365
395.3438, 1175.381
395.8259, 1173.841
396.3080, 1177.396
396.7901, 1186.852
397.2722, 1193.606
397.7544, 1189.638
398.2365, 1177.801
398.7186, 1173.570
399.2007, 1186.265
399.6828, 1196.013
400.1649, 1191.561
400.6471, 1179.932
401.1292, 1172.817
401.6113, 1174.049
402.0934, 1179.926
402.5755, 1185.485
403.0576, 1191.873
403.5398, 1193.942
404.0219, 1190.126
404.5040, 1184.120
404.9861, 1175.932
405.4682, 1167.110
405.9503, 1160.820
406.4325, 1159.309
406.9146, 1161.228
407.3967, 1161.466
407.8788, 1157.640
408.3609, 1157.151
408.8430, 1167.790
409.3252, 1177.896
409.8073, 1174.388
410.2894, 1156.544
410.7715, 1142.076
411.2536, 1152.177
411.7357, 1180.625
412.2179, 1193.030
412.7000, 1181.185
413.1821, 1167.648
413.6642, 1170.478
414.1463, 1182.588
414.6284, 1190.026
415.1106, 1186.191
415.5927, 1181.971
416.0748, 1185.944
416.5569, 1196.110
417.0390, 1207.195
417.5211, 1218.117
418.0033, 1226.559
418.4854, 1228.458
418.9675, 1221.415
419.4496, 1215.635
419.9317, 1209.298
420.4138, 1206.132
420.8960, 1212.030
421.3781, 1223.871
421.8602, 1231.410
422.3423, 1227.436
422.8244, 1215.358
423.3065, 1210.190
423.7887, 1218.425
424.2708, 1223.551
424.7529, 1222.351
425.2350, 1218.683
425.7171, 1214.978
426.1992, 1211.926
426.6814, 1209.914
427.1635, 1209.477
427.6456, 1210.524
428.1277, 1212.371
428.6098, 1216.293
429.0919, 1218.512
429.5741, 1216.466
430.0562, 1211.711
430.5383, 1205.855
431.0204, 1197.863
431.5025, 1191.899
431.9846, 1194.220
432.4668, 1201.919
432.9489, 1203.705
433.4310, 1195.580
433.9131, 1184.577
434.3952, 1178.491
434.8773, 1177.734
435.3595, 1179.150
435.8416, 1185.719
436.3237, 1191.618
436.8058, 1193.263
437.2879, 1191.297
437.7701, 1187.197
438.2522, 1181.469
438.7343, 1175.741
439.2164, 1174.400
439.6985, 1180.810
440.1806, 1185.717
440.6628, 1188.501
441.1449, 1190.306
441.6270, 1191.442
442.1091, 1192.217
442.5912, 1193.262
443.0733, 1195.146
443.5555, 1197.629
444.0376, 1200.352
444.5197, 1204.545
445.0018, 1205.492
445.4839, 1196.762
445.9660, 1186.253
446.4482, 1182.069
446.9303, 1185.747
447.4124, 1191.496
447.8945, 1197.896
448.3766, 1203.452
448.8587, 1202.913
449.3409, 1194.946
449.8230, 1190.334
450.3051, 1200.102
450.7872, 1221.894
451.2693, 1231.831
451.7514, 1221.384
452.2336, 1210.013
452.7157, 1203.013
453.1978, 1199.299
453.6799, 1197.842
454.1620, 1198.154
454.6441, 1199.105
455.1263, 1199.736
455.6084, 1200.800
456.0905, 1197.278
456.5726, 1178.957
457.0547, 1166.609
457.5368, 1170.127
458.0190, 1183.005
458.5011, 1195.561
458.9832, 1204.355
459.4653, 1208.343
459.9474, 1202.865
460.4295, 1187.698
460.9117, 1180.316
461.3938, 1187.623
461.8759, 1198.868
462.3580, 1205.648
462.8401, 1208.320
463.3222, 1208.045
463.8044, 1201.864
464.2865, 1195.434
464.7686, 1194.760
465.2507, 1198.517
465.7328, 1200.815
466.2149, 1198.765
466.6971, 1195.148
467.1792, 1195.606
467.6613, 1203.751
468.1434, 1208.331
468.6255, 1207.362
469.1076, 1204.641
469.5898, 1202.132
470.0719, 1199.937
470.5540, 1197.448
471.0361, 1194.182
471.5182, 1190.596
472.0003, 1187.150
472.4825, 1181.715
472.9646, 1182.337
473.4467, 1200.517
473.9288, 1218.275
474.4109, 1222.527
474.8930, 1213.607
475.3752, 1202.924
475.8573, 1196.068
476.3394, 1191.983
476.8215, 1188.312
477.3036, 1185.000
477.7857, 1185.465
478.2679, 1193.024
478.7500, 1204.127
479.2321, 1210.316
479.7142, 1211.444
480.1963, 1209.150
480.6784, 1197.186
481.1606, 1186.322
481.6427, 1187.260
482.1248, 1199.822
482.6069, 1217.943
483.0890, 1238.729
483.5711, 1259.571
484.0533, 1265.492
484.5354, 1245.450
485.0175, 1228.222
485.4996, 1217.235
485.9817, 1210.774
486.4638, 1206.820
486.9460, 1205.531
487.4281, 1209.865
487.9102, 1228.221
488.3923, 1253.712
488.8744, 1263.301
489.3565, 1254.241
489.8387, 1244.296
490.3208, 1243.399
490.8029, 1246.597
491.2850, 1242.137
491.7671, 1224.666
492.2492, 1214.976
492.7314, 1228.854
493.2135, 1249.321
493.6956, 1256.045
494.1777, 1247.995
494.6598, 1237.346
495.1419, 1233.186
495.6241, 1234.491
496.1062, 1234.505
496.5883, 1231.866
497.0704, 1229.816
497.5525, 1229.736
498.0346, 1229.611
498.5168, 1225.343
498.9989, 1217.982
499.4810, 1215.710
499.9631, 1230.799
500.4452, 1256.187
500.9273, 1261.900
501.4095, 1242.593
501.8916, 1226.396
502.3737, 1228.678
502.8558, 1239.334
503.3379, 1240.839
503.8200, 1229.562
504.3022, 1223.298
504.7843, 1235.237
505.2664, 1251.952
505.7485, 1257.183
506.2306, 1250.568
506.7127, 1241.162
507.1949, 1234.670
507.6770, 1230.654
508.1591, 1227.063
508.6412, 1218.876
509.1233, 1218.989
509.6054, 1236.722
510.0876, 1255.919
510.5697, 1265.060
511.0518, 1263.821
511.5339, 1257.986
512.0161, 1249.725
512.4982, 1241.120
512.9803, 1237.965
513.4624, 1240.695
513.9445, 1247.103
514.4266, 1261.516
514.9088, 1274.723
515.3909, 1272.180
515.8730, 1252.150
516.3551, 1239.215
516.8372, 1247.114
517.3193, 1260.655
517.8015, 1265.507
518.2836, 1262.746
518.7657, 1261.280
519.2478, 1266.192
519.7299, 1273.527
520.2120, 1273.256
520.6942, 1257.616
521.1763, 1249.282
521.6584, 1252.699
522.1405, 1258.346
522.6226, 1259.647
523.1047, 1258.949
523.5869, 1264.177
524.0690, 1282.102
524.5511, 1302.261
525.0332, 1306.144
525.5153, 1293.850
525.9974, 1279.765
526.4796, 1262.681
526.9617, 1252.348
527.4438, 1266.357
527.9259, 1301.065
528.4080, 1323.056
528.8901, 1320.081
529.3723, 1310.675
529.8544, 1302.191
530.3365, 1295.884
530.8186, 1294.285
531.3007, 1298.110
531.7828, 1303.804
532.2650, 1306.651
532.7471, 1306.479
533.2292, 1304.541
533.7113, 1299.567
534.1934, 1294.174
534.6755, 1288.252
535.1577, 1282.743
535.6398, 1278.660
536.1219, 1276.232
536.6040, 1275.700
537.0861, 1277.234
537.5682, 1280.832
538.0504, 1287.676
538.5325, 1298.544
539.0146, 1307.617
539.4967, 1310.964
539.9788, 1308.976
540.4609, 1303.889
540.9431, 1290.240
541.4252, 1281.225
541.9073, 1279.672
542.3894, 1283.801
542.8715, 1295.958
543.3536, 1313.501
543.8358, 1325.639
544.3179, 1322.481
544.8000, 1308.280
545.2821, 1302.616
545.7642, 1309.808
546.2463, 1313.716
546.7285, 1308.653
547.2106, 1299.867
547.6927, 1288.382
548.1748, 1275.280
548.6569, 1268.993
549.1390, 1280.142
549.6211, 1295.123
550.1032, 1297.815
550.5853, 1290.555
551.0674, 1284.722
551.5496, 1284.931
552.0317, 1288.027
552.5138, 1288.936
552.9959, 1286.948
553.4780, 1285.135
553.9601, 1282.526
554.4423, 1281.087
554.9244, 1281.944
555.4065, 1284.385
555.8886, 1287.356
556.3707, 1290.494
556.8528, 1293.792
557.3350, 1297.502
557.8171, 1301.496
558.2992, 1304.182
558.7813, 1304.461
559.2634, 1306.763
559.7455, 1317.695
560.2277, 1332.285
560.7098, 1334.918
561.1919, 1317.787
561.6740, 1302.218
562.1561, 1294.212
562.6382, 1291.456
563.1204, 1293.395
563.6025, 1298.638
564.0846, 1302.771
564.5667, 1302.366
565.0488, 1298.765
565.5309, 1297.981
566.0131, 1303.176
566.4952, 1303.188
566.9773, 1292.308
567.4594, 1278.526
567.9415, 1266.263
568.4236, 1255.451
568.9058, 1244.400
569.3879, 1229.293
569.8700, 1216.365
570.3521, 1215.283
570.8342, 1222.051
571.3163, 1221.014
571.7985, 1206.529
572.2806, 1191.982
572.7627, 1194.876
573.2448, 1218.067
573.7269, 1231.703
574.2090, 1235.585
574.6912, 1230.843
575.1733, 1208.147
575.6554, 1181.986
576.1375, 1169.290
576.6196, 1173.221
577.1017, 1181.987
577.5839, 1186.411
578.0660, 1187.095
578.5481, 1186.220
579.0302, 1183.968
579.5123, 1178.191
579.9944, 1164.933
580.4766, 1150.204
580.9587, 1148.308
581.4408, 1164.296
581.9229, 1169.984
582.4050, 1148.672
582.8871, 1127.525
583.3693, 1128.166
583.8514, 1142.949
584.3335, 1152.409
584.8156, 1147.579
585.2977, 1136.529
585.7798, 1132.284
586.2620, 1135.604
586.7441, 1137.084
587.2262, 1136.438
587.7083, 1133.634
588.1904, 1126.713
588.6725, 1118.143
589.1547, 1111.915
589.6368, 1108.669
590.1189, 1107.410
590.6010, 1109.654
591.0831, 1112.533
591.5652, 1111.340
592.0474, 1106.520
592.5295, 1103.179
593.0116, 1104.918
593.4937, 1109.929
593.9758, 1112.642
594.4579, 1112.267
594.9401, 1111.439
595.4222, 1110.732
595.9043, 1109.250
596.3864, 1105.477
596.8685, 1100.587
597.3506, 1097.758
597.8328, 1099.385
598.3149, 1101.059
598.7970, 1097.605
599.2791, 1091.185
599.7612, 1086.720
600.2433, 1085.136
600.7255, 1087.886
601.2076, 1097.570
601.6897, 1112.599
602.1718, 1119.916
602.6539, 1111.366
603.1360, 1106.053
603.6182, 1112.070
604.1003, 1116.538
604.5824, 1106.401
605.0645, 1084.692
605.5466, 1066.617
606.0287, 1060.769
606.5109, 1063.318
606.9930, 1070.993
607.4751, 1082.913
607.9572, 1092.154
608.4393, 1097.193
608.9214, 1098.294
609.4036, 1094.149
609.8857, 1084.741
610.3678, 1082.158
610.8499, 1094.498
611.3320, 1102.742
611.8141, 1099.197
612.2963, 1091.540
612.7784, 1088.213
613.2605, 1089.560
613.7426, 1088.939
614.2247, 1078.306
614.7068, 1064.655
615.1890, 1068.769
615.6711, 1091.727
616.1532, 1107.390
616.6353, 1105.926
617.1174, 1098.628
617.5995, 1098.248
618.0817, 1104.961
618.5638, 1108.731
619.0459, 1109.135
619.5280, 1106.596
620.0101, 1098.792
620.4922, 1089.354
620.9744, 1083.000
621.4565, 1080.400
621.9386, 1078.264
622.4207, 1072.416
622.9028, 1065.177
623.3849, 1067.519
623.8671, 1081.689
624.3492, 1091.989
624.8313, 1091.504
625.3134, 1087.662
625.7955, 1091.153
626.2776, 1101.453
626.7598, 1104.717
627.2419, 1092.758
627.7240, 1080.129
628.2061, 1073.453
628.6882, 1071.070
629.1703, 1069.801
629.6525, 1069.150
630.1346, 1072.311
630.6167, 1085.478
631.0988, 1104.653
631.5809, 1104.327
632.0630, 1077.593
632.5452, 1058.419
633.0273, 1059.014
633.5094, 1069.720
633.9915, 1082.901
634.4736, 1098.177
634.9557, 1105.927
635.4379, 1098.759
635.9200, 1089.267
636.4021, 1085.871
636.8842, 1084.276
637.3663, 1074.718
637.8484, 1056.346
638.3306, 1041.724
638.8127, 1045.530
639.2948, 1063.631
639.7769, 1068.929
640.2590, 1056.499
640.7411, 1049.241
641.2233, 1058.854
641.7054, 1071.299
642.1875, 1070.728
642.6696, 1058.312
643.1517, 1048.425
643.6339, 1044.792
644.1160, 1043.591
644.5981, 1045.431
645.0802, 1047.276
645.5623, 1041.267
646.0444, 1027.669
646.5266, 1020.356
647.0087, 1035.204
647.4908, 1065.348
647.9729, 1076.106
648.4550, 1061.653
648.9371, 1051.011
649.4193, 1053.759
649.9014, 1060.439
650.3835, 1061.250
650.8656, 1057.279
651.3477, 1056.396
651.8298, 1061.335
652.3120, 1068.013
652.7941, 1078.312
653.2762, 1087.384
653.7583, 1086.501
654.2404, 1075.961
654.7225, 1066.392
655.2047, 1067.367
655.6868, 1074.520
656.1689, 1071.468
656.6510, 1055.435
657.1331, 1046.842
657.6152, 1053.091
658.0974, 1063.394
658.5795, 1068.185
659.0616, 1068.731
659.5437, 1070.508
660.0258, 1075.662
660.5079, 1080.072
660.9901, 1084.164
661.4722, 1085.660
661.9543, 1079.247
662.4364, 1067.050
662.9185, 1059.097
663.4006, 1062.930
663.8828, 1072.554
664.3649, 1073.480
664.8470, 1065.255
665.3291, 1063.975
665.8112, 1074.342
666.2933, 1086.778
666.7755, 1095.156
667.2576, 1099.707
667.7397, 1102.107
668.2218, 1101.000
668.7039, 1099.963
669.1860, 1098.049
669.6682, 1097.791
670.1503, 1104.784
670.6324, 1115.115
671.1145, 1117.052
671.5966, 1103.841
672.0787, 1087.098
672.5609, 1082.834
673.0430, 1089.892
673.5251, 1102.323
674.0072, 1121.590
674.4893, 1133.909
674.9714, 1128.773
675.4536, 1112.967
675.9357, 1104.189
676.4178, 1106.167
676.8999, 1107.025
677.3820, 1105.887
677.8641, 1104.162
678.3463, 1101.094
678.8284, 1098.444
679.3105, 1100.784
679.7926, 1109.540
680.2747, 1114.985
680.7568, 1103.374
681.2390, 1082.774
681.7211, 1074.886
682.2032, 1079.718
682.6853, 1079.040
683.1674, 1063.456
683.6495, 1043.645
684.1317, 1036.118
684.6138, 1042.710
685.0959, 1052.073
685.5780, 1068.617
686.0601, 1082.767
686.5422, 1098.285
687.0244, 1106.593
687.5065, 1092.724
687.9886, 1057.707
688.4707, 1030.022
688.9528, 1029.571
689.4349, 1041.772
689.9171, 1054.406
690.3992, 1065.820
690.8813, 1070.054
691.3634, 1065.700
691.8455, 1061.054
692.3276, 1065.324
692.8098, 1076.789
693.2919, 1079.526
693.7740, 1068.907
694.2561, 1059.721
694.7382, 1052.151
695.2203, 1049.242
695.7025, 1056.534
696.1846, 1070.734
696.6667, 1079.520
697.1488, 1077.359
697.6309, 1072.926
698.1130, 1070.304
698.5952, 1068.300
699.0773, 1065.496
699.5594, 1061.769
700.0415, 1056.654
700.5236, 1049.222
701.0057, 1043.640
701.4879, 1050.863
701.9700, 1071.803
702.4521, 1086.753
702.9342, 1093.892
703.4163, 1094.916
703.8984, 1087.456
704.3806, 1075.834
704.8627, 1070.817
705.3448, 1075.165
705.8269, 1077.663
706.3090, 1076.534
706.7911, 1073.400
707.2733, 1067.521
707.7554, 1060.884
708.2375, 1055.459
708.7196, 1052.091
709.2017, 1053.617
709.6838, 1068.161
710.1660, 1088.323
710.6481, 1093.448
711.1302, 1084.101
711.6123, 1074.405
712.0944, 1069.152
712.5765, 1066.368
713.0587, 1064.155
713.5408, 1062.692
714.0229, 1057.831
714.5050, 1039.681
714.9871, 1031.985
715.4692, 1049.321
715.9514, 1069.760
716.4335, 1072.601
716.9156, 1060.948
717.3977, 1055.588
717.8798, 1069.343
718.3619, 1085.734
718.8441, 1093.187
719.3262, 1093.770
719.8083, 1088.353
720.2904, 1078.692
720.7725, 1072.438
721.2546, 1075.132
721.7368, 1082.947
722.2189, 1086.518
722.7010, 1085.131
723.1831, 1084.864
723.6652, 1088.214
724.1473, 1088.435
724.6295, 1076.916
725.1116, 1061.676
725.5937, 1060.419
726.0758, 1079.060
726.5579, 1091.126
727.0400, 1086.158
727.5222, 1079.118
728.0043, 1079.122
728.4864, 1083.052
728.9685, 1085.157
729.4506, 1083.884
729.9327, 1081.469
730.4149, 1077.341
730.8970, 1074.566
731.3791, 1083.098
731.8612, 1101.364
732.3433, 1113.856
732.8254, 1115.671
733.3076, 1113.478
733.7897, 1114.275
734.2718, 1117.559
734.7539, 1116.358
735.2360, 1105.025
735.7181, 1098.703
736.2003, 1103.182
736.6824, 1109.155
737.1645, 1108.185
737.6466, 1104.176
738.1287, 1108.964
738.6108, 1129.492
739.0930, 1149.961
739.5751, 1164.684
740.0572, 1172.501
740.5393, 1169.726
741.0214, 1158.557
741.5035, 1144.076
741.9857, 1128.690
742.4678, 1117.334
742.9499, 1118.402
743.4320, 1131.092
743.9141, 1144.992
744.3962, 1160.861
744.8784, 1173.360
745.3605, 1180.732
745.8426, 1183.297
746.3247, 1179.303
746.8068, 1166.990
747.2889, 1165.435
747.7711, 1188.379
748.2532, 1203.667
748.7353, 1198.690
749.2174, 1186.708
749.6995, 1177.919
750.1816, 1173.553
750.6638, 1171.688
751.1459, 1170.425
751.6280, 1173.294
752.1101, 1188.312
752.5922, 1208.109
753.0743, 1216.786
753.5565, 1214.171
754.0386, 1212.877
754.5207, 1220.417
755.0028, 1232.417
755.4849, 1239.811
755.9670, 1241.703
756.4492, 1247.825
756.9313, 1260.104
757.4134, 1272.382
757.8955, 1283.322
758.3776, 1291.912
758.8597, 1296.156
759.3419, 1295.793
759.8240, 1294.871
760.3061, 1289.315
760.7882, 1288.514
761.2703, 1300.940
761.7524, 1316.644
762.2346, 1323.723
762.7167, 1322.572
763.1988, 1324.098
763.6809, 1337.625
764.1630, 1350.867
764.6451, 1340.391
765.1273, 1320.231
765.6094, 1333.695
766.0915, 1382.249
766.5736, 1418.752
767.0557, 1412.639
767.5378, 1383.463
768.0200, 1375.366
768.5021, 1393.809
768.9842, 1399.192
769.4663, 1383.624
769.9484, 1370.609
770.4305, 1369.942
770.9127, 1377.682
771.3948, 1391.734
771.8769, 1413.622
772.3590, 1422.078
772.8411, 1401.178
773.3232, 1382.514
773.8054, 1377.880
774.2875, 1381.841
774.7696, 1391.753
775.2517, 1404.620
775.7338, 1412.353
776.2159, 1408.023
776.6981, 1402.088
777.1802, 1409.333
777.6623, 1423.184
778.1444, 1427.395
778.6265, 1421.046
779.1086, 1413.410
779.5908, 1409.328
780.0729, 1409.459
780.5550, 1416.230
781.0371, 1430.584
781.5192, 1442.339
782.0013, 1452.086
782.4835, 1457.662
782.9656, 1457.217
783.4477, 1453.095
783.9298, 1444.999
784.4119, 1432.505
784.8940, 1433.178
785.3762, 1466.485
785.8583, 1488.791
786.3404, 1475.768
786.8225, 1456.929
787.3046, 1462.444
787.7867, 1485.983
788.2689, 1498.325
788.7510, 1485.021
789.2331, 1464.792
789.7152, 1447.943
790.1973, 1437.165
790.6794, 1439.524
791.1616, 1452.565
791.6437, 1465.086
792.1258, 1472.348
792.6079, 1477.364
793.0900, 1484.539
793.5721, 1493.411
794.0543, 1500.122
794.5364, 1505.327
795.0185, 1503.219
795.5006, 1488.793
795.9827, 1473.605
796.4648, 1469.104
796.9470, 1474.388
797.4291, 1479.867
797.9112, 1489.878
798.3933, 1493.691
798.8754, 1483.014
799.3575, 1473.773
799.8397, 1479.019
800.3218, 1491.161
800.8039, 1494.392
801.2860, 1483.853
801.7681, 1473.445
802.2502, 1469.664
802.7324, 1469.480
803.2145, 1472.366
803.6966, 1476.068
804.1787, 1476.530
804.6608, 1472.951
805.1429, 1467.654
805.6251, 1461.361
806.1072, 1456.325
806.5893, 1460.848
807.0714, 1472.692
807.5535, 1471.773
808.0356, 1453.688
808.5178, 1439.480
808.9999, 1443.559
809.4820, 1459.937
809.9641, 1474.590
810.4462, 1489.677
810.9283, 1494.569
811.4105, 1481.561
811.8926, 1470.949
812.3747, 1473.349
812.8568, 1480.237
813.3389, 1480.862
813.8210, 1475.182
814.3032, 1473.965
814.7853, 1483.790
815.2674, 1491.927
815.7495, 1493.087
816.2316, 1491.422
816.7137, 1490.535
817.1959, 1490.385
817.6780, 1488.739
818.1601, 1483.867
818.6422, 1481.128
819.1243, 1487.584
819.6064, 1497.674
820.0886, 1504.870
820.5707, 1507.800
821.0528, 1501.156
821.5349, 1483.666
822.0170, 1468.569
822.4991, 1471.637
822.9813, 1488.536
823.4634, 1502.260
823.9455, 1513.075
824.4276, 1515.313
824.9097, 1505.300
825.3918, 1496.849
825.8740, 1501.652
826.3561, 1515.010
826.8382, 1520.902
827.3203, 1515.839
827.8024, 1511.310
828.2845, 1505.836
828.7667, 1502.774
829.2488, 1505.967
829.7309, 1510.608
830.2130, 1509.890
830.6951, 1503.501
831.1772, 1500.309
831.6594, 1502.853
832.1415, 1508.487
832.6236, 1520.748
833.1057, 1532.123
833.5878, 1531.353
834.0699, 1522.582
834.5521, 1522.213
835.0342, 1539.254
835.5163, 1556.690
835.9984, 1556.824
836.4805, 1548.180
836.9626, 1543.933
837.4448, 1543.971
837.9269, 1545.438
838.4090, 1547.099
838.8911, 1545.451
839.3732, 1534.401
839.8553, 1519.154
840.3375, 1520.983
840.8196, 1540.266
841.3017, 1557.317
841.7838, 1568.650
842.2659, 1578.235
842.7480, 1590.193
843.2302, 1600.415
843.7123, 1596.838
844.1944, 1570.763
844.6765, 1560.668
845.1586, 1579.832
845.6407, 1595.168
846.1229, 1589.813
846.6050, 1579.589
847.0871, 1582.087
847.5692, 1596.035
848.0513, 1602.584
848.5334, 1588.773
849.0156, 1581.396
849.4977, 1592.205
849.9798, 1608.113
850.4619, 1619.665
850.9440, 1628.051
851.4261, 1638.605
851.9083, 1653.361
852.3904, 1664.895
852.8725, 1665.171
853.3546, 1662.574
853.8367, 1665.533
854.3188, 1672.701
854.8010, 1682.839
855.2831, 1694.270
855.7652, 1699.447
856.2473, 1690.333
856.7294, 1679.146
857.2115, 1694.092
857.6937, 1726.747
858.1758, 1735.254
858.6579, 1716.620
859.1400, 1701.213
859.6221, 1702.285
860.1042, 1719.768
860.5864, 1759.812
861.0685, 1820.170
861.5506, 1839.591
862.0327, 1805.293
862.5148, 1779.766
862.9969, 1776.862
863.4791, 1785.671
863.9612, 1803.019
864.4433, 1823.881
864.9254, 1828.652
865.4075, 1799.487
865.8896, 1791.674
866.3718, 1823.127
866.8539, 1853.593
867.3360, 1875.813
867.8181, 1885.549
868.3002, 1868.872
868.7823, 1828.810
869.2645, 1809.822
869.7466, 1838.031
870.2287, 1870.097
870.7108, 1898.317
871.1929, 1916.017
871.6750, 1908.916
872.1572, 1888.058
872.6393, 1878.124
873.1214, 1887.489
873.6035, 1903.937
874.0856, 1924.804
874.5677, 1943.079
875.0499, 1946.288
875.5320, 1942.241
876.0141, 1949.776
876.4962, 1970.182
876.9783, 1987.283
877.4604, 1990.003
877.9426, 1984.322
878.4247, 1976.687
878.9068, 1968.865
879.3889, 1969.288
879.8710, 1977.666
880.3531, 1983.016
880.8353, 1980.592
881.3174, 1978.245
881.7995, 1985.565
882.2816, 2001.139
882.7637, 2018.295
883.2458, 2038.814
883.7280, 2044.632
884.2101, 2027.322
884.6922, 2013.519
885.1743, 2022.557
885.6564, 2043.785
886.1385, 2053.301
886.6207, 2046.937
887.1028, 2047.727
887.5849, 2060.094
888.0670, 2072.518
888.5491, 2083.165
889.0313, 2091.647
889.5134, 2098.634
889.9955, 2103.443
890.4776, 2103.018
890.9597, 2096.239
891.4418, 2085.897
891.9240, 2052.773
892.4061, 2037.451
892.8882, 2081.680
893.3703, 2145.758
893.8524, 2173.410
894.3345, 2159.169
894.8167, 2142.728
895.2988, 2141.896
895.7809, 2140.422
896.2630, 2125.666
896.7451, 2108.913
897.2272, 2104.619
897.7094, 2108.417
898.1915, 2105.173
898.6736, 2089.419
899.1557, 2074.626
899.6378, 2072.027
900.1199, 2076.017
900.6021, 2083.861
901.0842, 2091.624
901.5663, 2088.911
902.0484, 2076.235
902.5305, 2066.124
903.0126, 2066.412
903.4948, 2072.961
903.9769, 2083.618
904.4590, 2095.058
904.9411, 2094.399
905.4232, 2082.849
905.9053, 2073.778
906.3875, 2071.522
906.8696, 2068.819
907.3517, 2057.422
907.8338, 2042.367
908.3159, 2042.218
908.7980, 2057.115
909.2802, 2064.951
909.7623, 2062.333
910.2444, 2061.721
910.7265, 2070.089
911.2086, 2080.500
911.6907, 2082.778
912.1729, 2077.010
912.6550, 2071.664
913.1371, 2068.067
913.6192, 2059.393
914.1013, 2037.759
914.5834, 2023.903
915.0656, 2035.304
915.5477, 2061.521
916.0298, 2079.372
916.5119, 2088.803
916.9940, 2089.785
917.4761, 2070.624
917.9583, 2059.596
918.4404, 2069.394
918.9225, 2084.367
919.4046, 2094.701
919.8867, 2100.056
920.3688, 2099.003
920.8510, 2083.996
921.3331, 2079.217
921.8152, 2094.667
922.2973, 2113.488
922.7794, 2128.938
923.2615, 2142.945
923.7437, 2158.622
924.2258, 2175.737
924.7079, 2190.411
925.1900, 2201.980
925.6721, 2210.225
926.1542, 2208.114
926.6364, 2209.110
927.1185, 2232.596
927.6006, 2263.455
928.0827, 2270.081
928.5648, 2248.269
929.0469, 2235.315
929.5291, 2261.594
930.0112, 2293.153
930.4933, 2299.678
930.9754, 2300.297
931.4575, 2323.719
931.9396, 2362.897
932.4218, 2389.900
932.9039, 2394.940
933.3860, 2396.335
933.8681, 2409.367
934.3502, 2427.966
934.8323, 2442.896
935.3145, 2457.818
935.7966, 2482.590
936.2787, 2515.929
936.7608, 2546.415
937.2429, 2567.989
937.7250, 2583.062
938.2072, 2591.634
938.6893, 2597.170
939.1714, 2610.321
939.6535, 2627.993
940.1356, 2633.150
940.6177, 2624.205
941.0999, 2625.042
941.5820, 2653.497
942.0641, 2695.969
942.5462, 2728.892
943.0283, 2754.032
943.5104, 2783.369
943.9926, 2816.106
944.4747, 2833.056
944.9568, 2827.833
945.4389, 2824.077
945.9210, 2843.859
946.4031, 2878.749
946.8853, 2906.969
947.3674, 2928.543
947.8495, 2941.988
948.3316, 2946.497
948.8137, 2950.803
949.2958, 2957.848
949.7780, 2968.029
950.2601, 2982.069
950.7422, 2999.375
951.2243, 3016.194
951.7064, 3031.620
952.1885, 3053.033
952.6707, 3082.624
953.1528, 3111.642
953.6349, 3134.855
954.1170, 3158.358
954.5991, 3193.003
955.0812, 3237.436
955.5634, 3263.879
956.0455, 3263.578
956.5276, 3272.230
957.0097, 3296.662
957.4918, 3325.883
957.9739, 3356.430
958.4561, 3385.592
958.9382, 3407.614
959.4203, 3421.554
959.9024, 3442.902
960.3845, 3472.037
960.8666, 3508.776
961.3488, 3565.780
961.8309, 3612.366
962.3130, 3615.922
962.7951, 3603.372
963.2772, 3630.696
963.7593, 3707.361
964.2415, 3773.424
964.7236, 3834.224
965.2057, 3876.643
965.6878, 3876.873
966.1699, 3879.272
966.6520, 3916.283
967.1342, 3975.505
967.6163, 4028.845
968.0984, 4074.330
968.5805, 4119.130
969.0626, 4173.725
969.5447, 4214.380
970.0269, 4213.503
970.5090, 4216.209
970.9911, 4272.326
971.4732, 4357.265
971.9553, 4398.632
972.4374, 4370.233
972.9196, 4368.762
973.4017, 4427.372
973.8838, 4489.632
974.3659, 4546.870
974.8480, 4589.991
975.3301, 4600.114
975.8123, 4590.293
976.2944, 4601.777
976.7765, 4650.008
977.2586, 4689.470
977.7407, 4700.244
978.2228, 4712.000
978.7050, 4749.508
979.1871, 4784.915
979.6692, 4787.580
980.1513, 4762.956
980.6334, 4736.949
981.1155, 4714.353
981.5977, 4692.998
982.0798, 4673.372
982.5619, 4653.545
983.0440, 4633.623
983.5261, 4611.942
984.0082, 4585.679
984.4904, 4555.985
984.9725, 4527.860
985.4546, 4503.117
985.9367, 4478.410
986.4188, 4455.854
986.9009, 4429.063
987.3831, 4395.521
987.8652, 4354.786
988.3473, 4299.614
988.8294, 4236.450
989.3115, 4191.718
989.7936, 4181.202
990.2758, 4166.455
990.7579, 4128.399
991.2400, 4084.842
991.7221, 4045.581
992.2042, 4008.617
992.6863, 3969.430
993.1685, 3928.771
993.6506, 3891.275
994.1327, 3858.375
994.6148, 3829.568
995.0969, 3810.203
995.5790, 3788.866
996.0612, 3754.502
996.5433, 3715.827
997.0254, 3683.299
997.5075, 3657.596
997.9896, 3636.235
998.4717, 3623.598
998.9539, 3599.266
999.4360, 3533.336
999.9181, 3474.084
1000.400, 3464.726
1000.882, 3476.375
1001.364, 3472.844
1001.847, 3452.103
1002.329, 3430.207
1002.811, 3414.012
1003.293, 3392.887
1003.775, 3355.759
1004.257, 3318.401
1004.739, 3290.397
1005.221, 3269.699
1005.703, 3257.038
1006.186, 3248.966
1006.668, 3233.798
1007.150, 3205.398
1007.632, 3177.563
1008.114, 3156.181
1008.596, 3137.910
1009.078, 3122.096
1009.560, 3107.138
1010.043, 3091.096
1010.525, 3074.177
1011.007, 3057.386
1011.489, 3039.548
1011.971, 3027.090
1012.453, 3030.063
1012.935, 3030.818
1013.417, 3017.693
1013.899, 2997.202
1014.382, 2971.809
1014.864, 2946.519
1015.346, 2935.592
1015.828, 2948.218
1016.310, 2952.455
1016.792, 2933.737
1017.274, 2906.136
1017.756, 2870.037
1018.239, 2834.644
1018.721, 2804.799
1019.203, 2784.079
1019.685, 2783.285
1020.167, 2811.488
1020.649, 2825.696
1021.131, 2801.666
1021.613, 2773.313
1022.095, 2749.196
1022.578, 2733.863
1023.060, 2738.385
1023.542, 2753.222
1024.024, 2752.892
1024.506, 2729.449
1024.988, 2712.751
1025.470, 2724.174
1025.952, 2725.807
1026.435, 2692.881
1026.917, 2654.534
1027.399, 2633.559
1027.881, 2625.722
1028.363, 2619.341
1028.845, 2613.052
1029.327, 2607.347
1029.809, 2605.693
1030.292, 2599.961
1030.774, 2580.811
1031.256, 2564.033
1031.738, 2564.688
1032.220, 2573.350
1032.702, 2571.421
1033.184, 2556.468
1033.666, 2547.191
1034.148, 2550.738
1034.630, 2552.390
1035.113, 2546.377
1035.595, 2541.585
1036.077, 2544.438
1036.559, 2550.753
1037.041, 2554.892
1037.523, 2556.780
1038.005, 2555.862
1038.487, 2552.285
1038.970, 2545.597
1039.452, 2529.406
1039.934, 2518.417
1040.416, 2522.080
1040.898, 2531.725
1041.380, 2537.353
1041.862, 2539.325
1042.344, 2542.156
1042.826, 2550.606
1043.309, 2548.260
1043.791, 2523.390
1044.273, 2509.312
1044.755, 2525.094
1045.237, 2546.805
1045.719, 2549.339
1046.201, 2537.313
1046.683, 2532.263
1047.166, 2536.166
1047.648, 2540.719
1048.130, 2547.235
1048.612, 2549.986
1049.094, 2546.144
1049.576, 2540.585
1050.058, 2536.543
1050.540, 2534.993
1051.022, 2538.904
1051.505, 2548.687
1051.987, 2560.296
1052.469, 2574.260
1052.951, 2585.533
1053.433, 2592.017
1053.915, 2602.054
1054.397, 2623.330
1054.879, 2644.878
1055.361, 2643.354
1055.844, 2621.865
1056.326, 2618.379
1056.808, 2632.819
1057.290, 2651.680
1057.772, 2672.790
1058.254, 2685.467
1058.736, 2683.483
1059.218, 2677.873
1059.701, 2684.719
1060.183, 2698.346
1060.665, 2695.508
1061.147, 2680.914
1061.629, 2682.058
1062.111, 2700.351
1062.593, 2720.332
1063.075, 2735.845
1063.557, 2749.199
1064.040, 2762.795
1064.522, 2774.858
1065.004, 2778.844
1065.486, 2779.784
1065.968, 2793.975
1066.450, 2816.782
1066.932, 2825.810
1067.414, 2817.634
1067.896, 2814.838
1068.379, 2834.808
1068.861, 2858.742
1069.343, 2862.514
1069.825, 2859.275
1070.307, 2869.153
1070.789, 2885.804
1071.271, 2893.638
1071.753, 2892.545
1072.236, 2893.834
1072.718, 2902.083
1073.200, 2917.459
1073.682, 2945.375
1074.164, 2974.851
1074.646, 3002.311
1075.128, 3022.030
1075.610, 3015.458
1076.093, 2997.591
1076.575, 3014.633
1077.057, 3080.429
1077.539, 3126.108
1078.021, 3103.251
1078.503, 3078.133
1078.985, 3082.141
1079.467, 3094.010
1079.949, 3097.790
1080.432, 3097.372
1080.914, 3100.084
1081.396, 3106.907
1081.878, 3118.281
1082.360, 3141.970
1082.842, 3158.503
1083.324, 3155.597
1083.806, 3156.106
1084.288, 3171.760
1084.771, 3194.900
1085.253, 3222.628
1085.735, 3251.119
1086.217, 3260.225
1086.699, 3234.954
1087.181, 3230.969
1087.663, 3259.619
1088.145, 3286.996
1088.628, 3305.887
1089.110, 3317.731
1089.592, 3319.757
1090.074, 3320.251
1090.556, 3339.286
1091.038, 3377.921
1091.520, 3403.848
1092.002, 3416.099
1092.484, 3417.317
1092.967, 3404.521
1093.449, 3405.273
1093.931, 3435.524
1094.413, 3475.552
1094.895, 3500.740
1095.377, 3514.655
1095.859, 3531.338
1096.341, 3549.297
1096.823, 3553.252
1097.306, 3544.043
1097.788, 3540.497
1098.270, 3548.826
1098.752, 3566.787
1099.234, 3594.377
1099.716, 3622.915
1100.198, 3634.290
1100.680, 3639.494
1101.163, 3663.471
1101.645, 3699.910
1102.127, 3729.077
1102.609, 3750.196
1103.091, 3778.263
1103.573, 3820.227
1104.055, 3867.103
1104.537, 3908.721
1105.020, 3954.462
1105.502, 4023.358
1105.984, 4093.443
1106.466, 4127.061
1106.948, 4143.060
1107.430, 4188.777
1107.912, 4273.256
1108.394, 4359.964
1108.876, 4442.515
1109.359, 4511.972
1109.841, 4555.591
1110.323, 4595.231
1110.805, 4640.863
1111.287, 4692.153
1111.769, 4755.252
1112.251, 4824.120
1112.733, 4868.675
1113.215, 4875.608
1113.698, 4884.080
1114.180, 4907.197
1114.662, 4912.392
1115.144, 4879.332
1115.626, 4845.902
1116.108, 4845.590
1116.590, 4852.993
1117.072, 4817.195
1117.555, 4737.838
1118.037, 4677.386
1118.519, 4641.011
1119.001, 4593.612
1119.483, 4529.738
1119.965, 4461.645
1120.447, 4392.685
1120.929, 4334.669
1121.411, 4302.738
1121.894, 4284.381
1122.376, 4246.604
1122.858, 4193.402
1123.340, 4142.959
1123.822, 4096.664
1124.304, 4055.922
1124.786, 4020.712
1125.268, 3988.594
1125.750, 3958.791
1126.233, 3923.283
1126.715, 3858.816
1127.197, 3796.114
1127.679, 3791.716
1128.161, 3810.085
1128.643, 3791.599
1129.125, 3744.253
1129.607, 3703.723
1130.090, 3680.108
1130.572, 3669.093
1131.054, 3678.920
1131.536, 3682.020
1132.018, 3662.427
1132.500, 3633.034
1132.982, 3591.547
1133.464, 3553.313
1133.947, 3535.803
1134.429, 3537.557
1134.911, 3549.662
1135.393, 3580.096
1135.875, 3589.723
1136.357, 3548.594
1136.839, 3526.887
1137.321, 3548.934
1137.803, 3574.609
1138.286, 3580.496
1138.768, 3577.610
1139.250, 3580.435
1139.732, 3589.532
1140.214, 3613.226
1140.696, 3655.097
1141.178, 3684.228
1141.660, 3698.002
1142.142, 3706.844
1142.625, 3714.021
1143.107, 3715.595
1143.589, 3706.889
1144.071, 3699.186
1144.553, 3713.372
1145.035, 3744.045
1145.517, 3780.548
1145.999, 3818.221
1146.482, 3840.153
1146.964, 3848.635
1147.446, 3864.922
1147.928, 3895.868
1148.410, 3919.497
1148.892, 3910.798
1149.374, 3903.261
1149.856, 3938.929
1150.339, 3978.427
1150.821, 3969.026
1151.303, 3944.815
1151.785, 3968.303
1152.267, 4031.689
1152.749, 4068.966
1153.231, 4057.077
1153.713, 4046.943
1154.195, 4048.654
1154.677, 4055.806
1155.160, 4072.182
1155.642, 4087.201
1156.124, 4095.119
1156.606, 4096.991
1157.088, 4089.457
1157.570, 4075.369
1158.052, 4091.239
1158.534, 4145.576
1159.017, 4193.169
1159.499, 4233.829
1159.981, 4250.071
1160.463, 4233.042
1160.945, 4221.932
1161.427, 4246.757
1161.909, 4286.002
1162.391, 4300.124
1162.874, 4300.235
1163.356, 4328.970
1163.838, 4375.388
1164.320, 4401.734
1164.802, 4408.928
1165.284, 4419.137
1165.766, 4439.792
1166.248, 4465.488
1166.730, 4493.416
1167.213, 4523.205
1167.695, 4559.996
1168.177, 4592.857
1168.659, 4603.786
1169.141, 4610.727
1169.623, 4640.827
1170.105, 4686.685
1170.587, 4721.253
1171.069, 4739.241
1171.552, 4750.776
1172.034, 4748.730
1172.516, 4754.069
1172.998, 4770.775
1173.480, 4794.449
1173.962, 4826.675
1174.444, 4860.662
1174.926, 4890.937
1175.409, 4916.002
1175.891, 4929.109
1176.373, 4929.356
1176.855, 4928.780
1177.337, 4927.192
1177.819, 4934.669
1178.301, 4952.896
1178.783, 4971.729
1179.266, 4986.234
1179.748, 5001.312
1180.230, 5023.060
1180.712, 5046.348
1181.194, 5063.466
1181.676, 5075.748
1182.158, 5088.275
1182.640, 5096.311
1183.122, 5080.007
1183.604, 5047.745
1184.087, 5044.858
1184.569, 5092.511
1185.051, 5133.819
1185.533, 5151.349
1186.015, 5145.381
1186.497, 5090.186
1186.979, 5039.084
1187.461, 5030.200
1187.944, 5047.229
1188.426, 5071.449
1188.908, 5099.518
1189.390, 5110.929
1189.872, 5097.738
1190.354, 5095.938
1190.836, 5106.246
1191.318, 5128.993
1191.801, 5168.383
1192.283, 5188.546
1192.765, 5166.870
1193.247, 5133.291
1193.729, 5124.161
1194.211, 5132.482
1194.693, 5147.907
1195.175, 5164.285
1195.657, 5159.891
1196.140, 5142.756
1196.622, 5138.525
1197.104, 5150.650
1197.586, 5168.409
1198.068, 5188.248
1198.550, 5200.804
1199.032, 5199.703
1199.514, 5190.283
1199.996, 5168.812
1200.479, 5147.215
1200.961, 5128.703
1201.443, 5119.710
1201.925, 5135.134
1202.407, 5170.511
1202.889, 5188.820
1203.371, 5183.058
1203.853, 5180.997
1204.336, 5179.571
1204.818, 5194.824
1205.300, 5235.417
1205.782, 5267.539
1206.264, 5272.181
1206.746, 5265.812
1207.228, 5267.590
1207.710, 5273.523
1208.193, 5271.234
1208.675, 5265.649
1209.157, 5274.432
1209.639, 5292.036
1210.121, 5301.390
1210.603, 5299.861
1211.085, 5290.333
1211.567, 5273.685
1212.049, 5261.792
1212.531, 5260.284
1213.014, 5267.680
1213.496, 5278.622
1213.978, 5303.209
1214.460, 5368.085
1214.942, 5436.321
1215.424, 5459.048
1215.906, 5445.448
1216.388, 5434.237
1216.871, 5424.702
1217.353, 5422.272
1217.835, 5427.379
1218.317, 5440.678
1218.799, 5465.340
1219.281, 5471.518
1219.763, 5444.538
1220.245, 5427.752
1220.728, 5463.677
1221.210, 5521.082
1221.692, 5544.906
1222.174, 5549.909
1222.656, 5567.748
1223.138, 5590.260
1223.620, 5593.684
1224.102, 5585.217
1224.584, 5591.321
1225.067, 5618.646
1225.549, 5656.053
1226.031, 5703.423
1226.513, 5750.612
1226.995, 5801.091
##END=



