##NAMES=Fluorapatite
##RRUFFID=R050617
##IDEAL CHEMISTRY=Ca_5_(PO_4_)_3_F
##LOCALITY=Santa Cruz, Sonora, Mexico
##OWNER=RRUFF
##SOURCE=University of Arizona Mineral Museum
##DESCRIPTION=Tan colored hexagonal prism
##STATUS=The identification of this mineral is confirmed by single-crystal X-ray diffraction and chemical analysis.
##URL=rruff.info/R050617
##MEASURED CHEMISTRY=Ca_5.00_(P_1.00_O_4_)_3_(F_0.99_Cl_0.01_)
154.6351, 2818.948
155.1172, 2815.297
155.5993, 2817.622
156.0814, 2833.711
156.5635, 2848.572
157.0456, 2860.228
157.5278, 2868.510
158.0099, 2872.410
158.4920, 2867.940
158.9741, 2860.775
159.4562, 2855.954
159.9383, 2855.986
160.4205, 2857.376
160.9026, 2859.371
161.3847, 2861.996
161.8668, 2864.355
162.3489, 2865.100
162.8310, 2865.745
163.3132, 2868.044
163.7953, 2872.769
164.2774, 2879.117
164.7595, 2887.506
165.2416, 2898.428
165.7237, 2907.862
166.2059, 2913.273
166.6880, 2916.052
167.1701, 2918.329
167.6522, 2920.908
168.1343, 2923.332
168.6164, 2924.979
169.0985, 2925.489
169.5807, 2926.587
170.0628, 2930.638
170.5449, 2936.128
171.0270, 2940.047
171.5091, 2940.305
171.9912, 2938.642
172.4734, 2936.281
172.9555, 2932.932
173.4376, 2930.522
173.9197, 2932.326
174.4018, 2936.701
174.8839, 2939.110
175.3661, 2933.590
175.8482, 2925.652
176.3303, 2922.906
176.8124, 2927.627
177.2945, 2935.007
177.7766, 2940.436
178.2588, 2944.229
178.7409, 2947.504
179.2230, 2951.259
179.7051, 2954.970
180.1872, 2957.609
180.6693, 2958.924
181.1515, 2959.282
181.6336, 2958.953
182.1157, 2957.993
182.5978, 2956.809
183.0799, 2955.030
183.5620, 2953.180
184.0442, 2952.868
184.5263, 2954.869
185.0084, 2957.890
185.4905, 2959.381
185.9726, 2959.419
186.4547, 2960.146
186.9369, 2963.983
187.4190, 2970.180
187.9011, 2975.498
188.3832, 2979.552
188.8653, 2982.217
189.3474, 2982.418
189.8296, 2980.078
190.3117, 2978.144
190.7938, 2979.485
191.2759, 2983.736
191.7580, 2987.942
192.2401, 2991.495
192.7223, 2994.602
193.2044, 2997.574
193.6865, 3000.312
194.1686, 3003.805
194.6507, 3009.799
195.1328, 3018.083
195.6150, 3024.354
196.0971, 3026.602
196.5792, 3026.193
197.0613, 3028.773
197.5434, 3034.645
198.0255, 3041.807
198.5077, 3048.670
198.9898, 3055.292
199.4719, 3060.653
199.9540, 3064.224
200.4361, 3066.308
200.9182, 3068.492
201.4004, 3070.696
201.8825, 3073.293
202.3646, 3077.169
202.8467, 3082.619
203.3288, 3086.735
203.8109, 3088.254
204.2931, 3087.648
204.7752, 3088.917
205.2573, 3092.421
205.7394, 3096.972
206.2215, 3101.529
206.7036, 3106.097
207.1858, 3110.350
207.6679, 3113.853
208.1500, 3116.736
208.6321, 3121.526
209.1142, 3129.157
209.5963, 3136.932
210.0785, 3141.537
210.5606, 3141.916
211.0427, 3143.042
211.5248, 3146.640
212.0069, 3152.621
212.4890, 3156.142
212.9712, 3156.183
213.4533, 3155.387
213.9354, 3156.945
214.4175, 3161.890
214.8996, 3166.110
215.3817, 3168.509
215.8639, 3169.055
216.3460, 3169.640
216.8281, 3169.819
217.3102, 3170.585
217.7923, 3173.272
218.2744, 3178.719
218.7565, 3183.982
219.2387, 3188.646
219.7208, 3192.791
220.2029, 3194.345
220.6850, 3191.666
221.1671, 3188.315
221.6492, 3188.647
222.1314, 3194.676
222.6135, 3199.689
223.0956, 3201.341
223.5777, 3199.399
224.0598, 3200.735
224.5419, 3206.110
225.0241, 3213.931
225.5062, 3222.958
225.9883, 3234.070
226.4704, 3244.349
226.9525, 3252.635
227.4346, 3258.909
227.9168, 3266.436
228.3989, 3276.765
228.8810, 3286.702
229.3631, 3292.514
229.8452, 3292.272
230.3273, 3291.803
230.8095, 3291.954
231.2916, 3292.701
231.7737, 3294.897
232.2558, 3298.584
232.7379, 3303.679
233.2200, 3310.671
233.7022, 3322.379
234.1843, 3330.327
234.6664, 3331.489
235.1485, 3325.738
235.6306, 3323.004
236.1127, 3324.929
236.5949, 3328.142
237.0770, 3329.307
237.5591, 3326.856
238.0412, 3325.473
238.5233, 3326.895
239.0054, 3331.124
239.4876, 3331.574
239.9697, 3325.355
240.4518, 3318.523
240.9339, 3316.817
241.4160, 3323.599
241.8981, 3328.819
242.3803, 3329.896
242.8624, 3327.030
243.3445, 3327.400
243.8266, 3332.945
244.3087, 3339.506
244.7908, 3343.419
245.2730, 3342.676
245.7551, 3343.264
246.2372, 3346.376
246.7193, 3351.773
247.2014, 3356.667
247.6835, 3361.221
248.1657, 3364.927
248.6478, 3366.966
249.1299, 3365.617
249.6120, 3366.453
250.0941, 3371.146
250.5762, 3379.018
251.0584, 3384.377
251.5405, 3385.864
252.0226, 3386.669
252.5047, 3389.091
252.9868, 3394.126
253.4689, 3398.632
253.9511, 3402.280
254.4332, 3405.234
254.9153, 3407.965
255.3974, 3409.893
255.8795, 3412.627
256.3616, 3417.450
256.8438, 3425.646
257.3259, 3432.641
257.8080, 3437.462
258.2901, 3440.860
258.7722, 3446.112
259.2543, 3454.177
259.7365, 3462.447
260.2186, 3468.994
260.7007, 3471.796
261.1828, 3478.900
261.6649, 3492.532
262.1470, 3510.023
262.6292, 3523.820
263.1113, 3532.747
263.5934, 3539.990
264.0755, 3546.876
264.5576, 3553.268
265.0397, 3560.061
265.5219, 3567.934
266.0040, 3575.844
266.4861, 3581.165
266.9682, 3582.737
267.4503, 3584.646
267.9324, 3589.752
268.4146, 3600.024
268.8967, 3604.479
269.3788, 3601.350
269.8609, 3594.292
270.3430, 3590.493
270.8251, 3591.153
271.3073, 3591.099
271.7894, 3587.387
272.2715, 3579.351
272.7536, 3574.893
273.2357, 3574.896
273.7178, 3577.154
274.2000, 3578.147
274.6821, 3577.311
275.1642, 3577.516
275.6463, 3580.247
276.1284, 3585.486
276.6105, 3589.309
277.0927, 3591.609
277.5748, 3592.702
278.0569, 3592.428
278.5390, 3590.507
279.0211, 3589.749
279.5032, 3591.290
279.9854, 3594.920
280.4675, 3599.011
280.9496, 3603.910
281.4317, 3608.247
281.9138, 3609.911
282.3959, 3608.782
282.8781, 3608.809
283.3602, 3611.338
283.8423, 3615.792
284.3244, 3619.742
284.8065, 3623.210
285.2886, 3626.150
285.7708, 3628.083
286.2529, 3629.078
286.7350, 3630.901
287.2171, 3634.147
287.6992, 3638.250
288.1813, 3641.000
288.6635, 3642.230
289.1456, 3644.761
289.6277, 3652.336
290.1098, 3663.944
290.5919, 3672.480
291.0740, 3676.337
291.5562, 3677.411
292.0383, 3678.757
292.5204, 3680.404
293.0025, 3682.731
293.4846, 3687.157
293.9667, 3692.713
294.4489, 3695.358
294.9310, 3693.780
295.4131, 3691.468
295.8952, 3694.833
296.3773, 3702.903
296.8594, 3709.276
297.3416, 3706.779
297.8237, 3700.413
298.3058, 3702.862
298.7879, 3716.233
299.2700, 3732.379
299.7521, 3741.338
300.2343, 3744.923
300.7164, 3748.472
301.1985, 3756.365
301.6806, 3765.240
302.1627, 3768.183
302.6448, 3764.508
303.1270, 3761.754
303.6091, 3768.306
304.0912, 3780.803
304.5733, 3792.599
305.0554, 3800.141
305.5375, 3805.958
306.0197, 3812.373
306.5018, 3819.354
306.9839, 3827.016
307.4660, 3836.534
307.9481, 3846.454
308.4302, 3854.642
308.9124, 3859.693
309.3945, 3863.648
309.8766, 3868.989
310.3587, 3875.183
310.8408, 3879.064
311.3229, 3878.167
311.8051, 3874.304
312.2872, 3869.112
312.7693, 3862.096
313.2514, 3855.335
313.7335, 3849.705
314.2156, 3845.218
314.6978, 3841.818
315.1799, 3840.086
315.6620, 3839.022
316.1441, 3837.672
316.6262, 3835.144
317.1083, 3834.200
317.5905, 3838.089
318.0726, 3844.078
318.5547, 3847.468
319.0368, 3844.610
319.5189, 3840.260
320.0010, 3836.281
320.4832, 3832.598
320.9653, 3830.516
321.4474, 3832.252
321.9295, 3835.202
322.4116, 3836.323
322.8937, 3831.514
323.3759, 3828.198
323.8580, 3829.857
324.3401, 3836.949
324.8222, 3841.473
325.3043, 3840.684
325.7864, 3837.796
326.2686, 3835.279
326.7507, 3831.518
327.2328, 3830.185
327.7149, 3831.364
328.1970, 3835.132
328.6791, 3842.562
329.1613, 3861.312
329.6434, 3877.574
330.1255, 3884.065
330.6076, 3869.510
331.0897, 3861.485
331.5718, 3863.093
332.0540, 3871.465
332.5361, 3878.598
333.0182, 3885.107
333.5003, 3889.656
333.9824, 3890.969
334.4645, 3886.766
334.9467, 3886.822
335.4288, 3893.805
335.9109, 3903.186
336.3930, 3906.989
336.8751, 3902.772
337.3572, 3898.733
337.8394, 3896.882
338.3215, 3897.214
338.8036, 3900.710
339.2857, 3908.737
339.7678, 3917.563
340.2499, 3922.891
340.7320, 3923.962
341.2141, 3925.466
341.6963, 3928.252
342.1784, 3932.269
342.6605, 3938.016
343.1426, 3946.014
343.6247, 3952.956
344.1068, 3954.773
344.5890, 3951.742
345.0711, 3951.806
345.5532, 3957.002
346.0353, 3964.594
346.5174, 3968.982
346.9995, 3970.221
347.4817, 3970.030
347.9638, 3968.194
348.4459, 3965.591
348.9280, 3965.895
349.4101, 3969.827
349.8922, 3974.760
350.3744, 3976.866
350.8565, 3976.899
351.3386, 3977.826
351.8207, 3982.279
352.3028, 3988.108
352.7849, 3991.967
353.2671, 3993.855
353.7492, 3994.338
354.2313, 3991.211
354.7134, 3987.402
355.1955, 3988.354
355.6776, 4000.178
356.1598, 4013.475
356.6419, 4019.854
357.1240, 4020.023
357.6061, 4017.642
358.0882, 4011.986
358.5703, 4006.270
359.0525, 4003.893
359.5346, 4006.464
360.0167, 4010.665
360.4988, 4015.078
360.9809, 4019.641
361.4630, 4024.208
361.9452, 4028.730
362.4273, 4033.112
362.9094, 4037.553
363.3915, 4042.344
363.8736, 4045.654
364.3557, 4042.927
364.8379, 4039.618
365.3200, 4042.142
365.8021, 4062.179
366.2842, 4078.171
366.7663, 4081.109
367.2484, 4070.749
367.7306, 4064.882
368.2127, 4069.284
368.6948, 4076.633
369.1769, 4082.123
369.6590, 4085.312
370.1411, 4087.129
370.6233, 4087.616
371.1054, 4086.820
371.5875, 4084.538
372.0696, 4077.526
372.5517, 4073.006
373.0338, 4074.434
373.5160, 4084.339
373.9981, 4093.129
374.4802, 4101.165
374.9623, 4107.878
375.4444, 4111.190
375.9265, 4108.443
376.4087, 4110.069
376.8908, 4121.571
377.3729, 4142.409
377.8550, 4153.514
378.3371, 4152.978
378.8192, 4147.540
379.3014, 4142.232
379.7835, 4136.844
380.2656, 4135.681
380.7477, 4140.713
381.2298, 4149.343
381.7119, 4154.978
382.1941, 4157.486
382.6762, 4159.832
383.1583, 4164.083
383.6404, 4169.800
384.1225, 4175.582
384.6046, 4181.637
385.0868, 4186.408
385.5689, 4186.604
386.0510, 4183.468
386.5331, 4181.654
387.0152, 4183.990
387.4973, 4188.733
387.9795, 4194.339
388.4616, 4200.794
388.9437, 4205.592
389.4258, 4205.343
389.9079, 4202.663
390.3900, 4201.177
390.8722, 4201.573
391.3543, 4204.108
391.8364, 4211.329
392.3185, 4221.501
392.8006, 4228.433
393.2827, 4224.026
393.7649, 4218.536
394.2470, 4220.066
394.7291, 4232.999
395.2112, 4244.078
395.6933, 4246.495
396.1754, 4244.512
396.6576, 4244.538
397.1397, 4249.881
397.6218, 4255.694
398.1039, 4260.889
398.5860, 4265.478
399.0681, 4268.322
399.5503, 4266.888
400.0324, 4265.157
400.5145, 4266.039
400.9966, 4270.274
401.4787, 4276.299
401.9608, 4285.613
402.4430, 4296.864
402.9251, 4304.659
403.4072, 4308.099
403.8893, 4309.498
404.3714, 4309.181
404.8535, 4305.993
405.3357, 4306.350
405.8178, 4311.880
406.2999, 4318.721
406.7820, 4320.274
407.2641, 4315.165
407.7462, 4312.661
408.2284, 4315.998
408.7105, 4324.162
409.1926, 4333.601
409.6747, 4344.835
410.1568, 4353.684
410.6389, 4354.233
411.1211, 4348.308
411.6032, 4346.274
412.0853, 4350.150
412.5674, 4358.138
413.0495, 4370.184
413.5316, 4385.163
414.0138, 4396.948
414.4959, 4399.835
414.9780, 4398.421
415.4601, 4398.752
415.9422, 4401.073
416.4243, 4406.460
416.9065, 4418.505
417.3886, 4433.558
417.8707, 4445.879
418.3528, 4449.591
418.8349, 4453.733
419.3170, 4466.159
419.7992, 4484.929
420.2813, 4500.393
420.7634, 4507.004
421.2455, 4510.040
421.7276, 4512.151
422.2097, 4511.526
422.6919, 4515.433
423.1740, 4528.519
423.6561, 4546.578
424.1382, 4563.506
424.6203, 4576.905
425.1024, 4590.123
425.5846, 4604.683
426.0667, 4620.744
426.5488, 4634.360
427.0309, 4646.202
427.5130, 4655.149
427.9951, 4659.625
428.4773, 4655.025
428.9594, 4656.553
429.4415, 4668.205
429.9236, 4685.233
430.4057, 4695.475
430.8878, 4697.505
431.3700, 4697.006
431.8521, 4695.204
432.3342, 4692.132
432.8163, 4693.915
433.2984, 4701.755
433.7805, 4710.429
434.2627, 4712.256
434.7448, 4708.239
435.2269, 4708.613
435.7090, 4717.163
436.1911, 4730.422
436.6732, 4742.484
437.1554, 4753.284
437.6375, 4762.042
438.1196, 4764.985
438.6017, 4766.395
439.0838, 4773.840
439.5659, 4788.864
440.0480, 4806.179
440.5302, 4825.151
441.0123, 4842.935
441.4944, 4854.775
441.9765, 4852.937
442.4586, 4849.414
442.9407, 4851.671
443.4229, 4859.243
443.9050, 4867.272
444.3871, 4877.153
444.8692, 4884.595
445.3513, 4886.434
445.8334, 4879.438
446.3156, 4871.788
446.7977, 4864.968
447.2798, 4858.436
447.7619, 4851.253
448.2440, 4843.469
448.7261, 4834.894
449.2083, 4825.145
449.6904, 4814.057
450.1725, 4804.015
450.6546, 4794.679
451.1367, 4786.953
451.6188, 4782.947
452.1010, 4785.843
452.5831, 4780.486
453.0652, 4762.190
453.5473, 4738.093
454.0294, 4724.433
454.5115, 4722.177
454.9937, 4722.460
455.4758, 4723.306
455.9579, 4723.764
456.4400, 4716.497
456.9221, 4700.498
457.4042, 4685.370
457.8864, 4682.011
458.3685, 4687.115
458.8506, 4691.397
459.3327, 4693.371
459.8148, 4692.058
460.2969, 4683.013
460.7791, 4668.875
461.2612, 4658.667
461.7433, 4659.976
462.2254, 4665.809
462.7075, 4670.778
463.1896, 4674.512
463.6718, 4676.954
464.1539, 4676.503
464.6360, 4675.491
465.1181, 4676.245
465.6002, 4683.114
466.0823, 4687.834
466.5645, 4686.290
467.0466, 4680.424
467.5287, 4677.686
468.0108, 4682.156
468.4929, 4686.894
468.9750, 4688.994
469.4572, 4686.966
469.9393, 4687.679
470.4214, 4692.184
470.9035, 4698.368
471.3856, 4704.331
471.8677, 4710.636
472.3499, 4714.788
472.8320, 4716.209
473.3141, 4715.319
473.7962, 4712.603
474.2783, 4707.548
474.7604, 4704.654
475.2426, 4707.668
475.7247, 4715.652
476.2068, 4723.122
476.6889, 4730.151
477.1710, 4735.509
477.6531, 4735.827
478.1353, 4733.208
478.6174, 4733.664
479.0995, 4741.057
479.5816, 4750.160
480.0637, 4755.238
480.5458, 4756.931
481.0280, 4757.616
481.5101, 4755.686
481.9922, 4755.051
482.4743, 4760.662
482.9564, 4774.850
483.4385, 4784.589
483.9207, 4779.880
484.4028, 4769.941
484.8849, 4764.441
485.3670, 4770.225
485.8491, 4775.367
486.3312, 4778.026
486.8134, 4778.410
487.2955, 4777.449
487.7776, 4772.388
488.2597, 4769.570
488.7418, 4772.451
489.2239, 4782.948
489.7061, 4789.712
490.1882, 4791.405
490.6703, 4791.392
491.1524, 4793.556
491.6345, 4798.220
492.1166, 4802.138
492.5988, 4803.983
493.0809, 4805.282
493.5630, 4810.775
494.0451, 4820.300
494.5272, 4829.194
495.0093, 4834.259
495.4915, 4836.760
495.9736, 4840.261
496.4557, 4845.042
496.9378, 4848.129
497.4199, 4844.479
497.9020, 4838.014
498.3842, 4834.704
498.8663, 4836.316
499.3484, 4841.636
499.8305, 4853.790
500.3126, 4869.381
500.7947, 4879.676
501.2769, 4877.384
501.7590, 4872.792
502.2411, 4870.241
502.7232, 4870.149
503.2053, 4871.381
503.6874, 4875.707
504.1696, 4880.051
504.6517, 4881.995
505.1338, 4879.310
505.6159, 4878.013
506.0980, 4878.642
506.5801, 4880.663
507.0623, 4882.918
507.5444, 4885.348
508.0265, 4888.200
508.5086, 4892.023
508.9907, 4896.511
509.4728, 4898.894
509.9550, 4898.973
510.4371, 4898.589
510.9192, 4899.218
511.4013, 4900.764
511.8834, 4903.211
512.3655, 4907.195
512.8477, 4910.281
513.3298, 4908.638
513.8119, 4903.913
514.2940, 4899.940
514.7761, 4897.905
515.2582, 4897.818
515.7404, 4900.039
516.2225, 4904.407
516.7046, 4909.693
517.1867, 4917.057
517.6688, 4923.954
518.1509, 4928.405
518.6331, 4928.688
519.1152, 4929.944
519.5973, 4932.595
520.0794, 4936.688
520.5615, 4942.265
521.0436, 4950.821
521.5258, 4958.384
522.0079, 4964.428
522.4900, 4968.907
522.9721, 4971.392
523.4542, 4971.028
523.9363, 4970.954
524.4185, 4973.418
524.9006, 4978.429
525.3827, 4981.259
525.8648, 4981.835
526.3469, 4981.106
526.8290, 4978.392
527.3112, 4974.972
527.7933, 4976.221
528.2754, 4985.712
528.7575, 4996.365
529.2396, 4998.812
529.7217, 4995.364
530.2039, 4992.722
530.6860, 4993.619
531.1681, 4997.063
531.6502, 5003.327
532.1323, 5012.287
532.6144, 5020.121
533.0966, 5025.612
533.5787, 5029.185
534.0608, 5030.980
534.5429, 5028.440
535.0250, 5028.132
535.5071, 5031.843
535.9893, 5037.541
536.4714, 5042.375
536.9535, 5046.312
537.4356, 5049.449
537.9177, 5051.554
538.3998, 5052.885
538.8820, 5055.078
539.3641, 5058.500
539.8462, 5061.144
540.3283, 5060.479
540.8104, 5057.342
541.2925, 5058.409
541.7747, 5064.458
542.2568, 5071.372
542.7389, 5075.194
543.2210, 5076.487
543.7031, 5076.328
544.1852, 5074.132
544.6674, 5072.100
545.1495, 5072.628
545.6316, 5074.968
546.1137, 5077.215
546.5958, 5075.277
547.0779, 5075.808
547.5601, 5084.938
548.0422, 5103.226
548.5243, 5115.943
549.0064, 5115.247
549.4885, 5111.315
549.9706, 5110.486
550.4528, 5115.200
550.9349, 5118.272
551.4170, 5118.398
551.8991, 5117.849
552.3812, 5120.340
552.8633, 5126.743
553.3455, 5132.376
553.8276, 5135.601
554.3097, 5137.567
554.7918, 5142.947
555.2739, 5151.673
555.7560, 5159.062
556.2382, 5161.192
556.7203, 5160.185
557.2024, 5160.614
557.6845, 5162.746
558.1666, 5165.454
558.6487, 5167.978
559.1309, 5170.497
559.6130, 5173.087
560.0951, 5175.407
560.5772, 5178.549
561.0593, 5180.869
561.5414, 5184.687
562.0236, 5194.026
562.5057, 5218.596
562.9878, 5239.706
563.4699, 5249.412
563.9520, 5249.106
564.4341, 5255.375
564.9163, 5272.553
565.3984, 5290.165
565.8805, 5303.289
566.3626, 5311.427
566.8447, 5317.840
567.3268, 5321.955
567.8090, 5326.108
568.2911, 5333.053
568.7732, 5342.604
569.2553, 5352.479
569.7374, 5362.333
570.2195, 5372.343
570.7017, 5382.904
571.1838, 5394.124
571.6659, 5406.078
572.1480, 5419.091
572.6301, 5432.840
573.1122, 5445.599
573.5944, 5458.076
574.0765, 5475.214
574.5586, 5503.505
575.0407, 5533.870
575.5228, 5561.500
576.0049, 5585.837
576.4871, 5606.625
576.9692, 5619.294
577.4513, 5631.486
577.9334, 5651.334
578.4155, 5683.032
578.8976, 5712.570
579.3798, 5740.625
579.8619, 5763.903
580.3440, 5774.333
580.8261, 5771.931
581.3082, 5757.220
581.7903, 5727.171
582.2725, 5685.792
582.7546, 5642.748
583.2367, 5598.413
583.7188, 5557.848
584.2009, 5524.262
584.6830, 5497.356
585.1652, 5476.733
585.6473, 5462.237
586.1294, 5454.185
586.6115, 5454.692
587.0936, 5460.612
587.5757, 5468.662
588.0578, 5478.973
588.5399, 5490.065
589.0220, 5504.642
589.5042, 5519.459
589.9863, 5527.084
590.4684, 5523.676
590.9505, 5519.144
591.4326, 5516.245
591.9147, 5514.551
592.3969, 5509.589
592.8790, 5500.577
593.3611, 5491.852
593.8432, 5487.185
594.3253, 5485.659
594.8074, 5480.456
595.2896, 5470.856
595.7717, 5462.729
596.2538, 5464.160
596.7359, 5470.742
597.2180, 5474.003
597.7001, 5469.710
598.1823, 5466.198
598.6644, 5468.858
599.1465, 5476.132
599.6286, 5485.364
600.1107, 5495.417
600.5928, 5507.441
601.0750, 5523.789
601.5571, 5543.396
602.0392, 5558.270
602.5213, 5565.230
603.0034, 5571.716
603.4855, 5580.666
603.9677, 5592.337
604.4498, 5602.945
604.9319, 5612.030
605.4140, 5621.517
605.8961, 5635.339
606.3782, 5652.101
606.8604, 5660.988
607.3425, 5660.198
607.8246, 5653.479
608.3067, 5644.290
608.7888, 5632.603
609.2709, 5618.263
609.7531, 5597.020
610.2352, 5578.140
610.7173, 5567.311
611.1994, 5563.583
611.6815, 5564.111
612.1636, 5571.738
612.6458, 5579.919
613.1279, 5586.689
613.6100, 5591.891
614.0921, 5595.973
614.5742, 5600.299
615.0563, 5601.871
615.5385, 5598.183
616.0206, 5587.864
616.5027, 5580.897
616.9848, 5578.392
617.4669, 5575.993
617.9490, 5566.286
618.4312, 5551.472
618.9133, 5544.434
619.3954, 5550.134
619.8775, 5557.910
620.3596, 5551.804
620.8417, 5538.009
621.3239, 5530.442
621.8060, 5541.342
622.2881, 5554.037
622.7702, 5558.559
623.2523, 5556.596
623.7344, 5555.561
624.2166, 5557.728
624.6987, 5560.740
625.1808, 5563.994
625.6629, 5567.543
626.1450, 5569.298
626.6271, 5567.325
627.1093, 5566.576
627.5914, 5571.863
628.0735, 5583.886
628.5556, 5590.779
629.0377, 5591.191
629.5198, 5589.397
630.0020, 5590.238
630.4841, 5593.085
630.9662, 5595.891
631.4483, 5598.170
631.9304, 5600.450
632.4125, 5604.593
632.8947, 5609.123
633.3768, 5611.038
633.8589, 5604.119
634.3410, 5599.499
634.8231, 5604.088
635.3052, 5616.114
635.7874, 5624.350
636.2695, 5623.839
636.7516, 5623.405
637.2337, 5625.722
637.7158, 5630.786
638.1979, 5637.267
638.6801, 5645.492
639.1622, 5653.745
639.6443, 5660.961
640.1264, 5666.934
640.6085, 5670.883
641.0906, 5672.386
641.5728, 5673.334
642.0549, 5676.312
642.5370, 5680.071
643.0191, 5682.042
643.5012, 5680.049
643.9833, 5679.269
644.4655, 5685.421
644.9476, 5694.646
645.4297, 5700.565
645.9118, 5699.044
646.3939, 5696.792
646.8760, 5693.842
647.3582, 5691.269
647.8403, 5693.885
648.3224, 5705.185
648.8045, 5714.914
649.2866, 5719.162
649.7687, 5718.422
650.2509, 5716.081
650.7330, 5711.796
651.2151, 5709.152
651.6972, 5711.779
652.1793, 5717.892
652.6614, 5722.776
653.1436, 5725.966
653.6257, 5730.452
654.1078, 5740.975
654.5899, 5752.862
655.0720, 5761.077
655.5541, 5763.487
656.0363, 5764.071
656.5184, 5762.251
657.0005, 5759.946
657.4826, 5759.606
657.9647, 5761.001
658.4468, 5765.056
658.9290, 5773.403
659.4111, 5783.564
659.8932, 5788.688
660.3753, 5787.973
660.8574, 5788.845
661.3395, 5795.667
661.8217, 5804.775
662.3038, 5804.967
662.7859, 5797.728
663.2680, 5793.526
663.7501, 5803.169
664.2322, 5816.207
664.7144, 5821.794
665.1965, 5819.615
665.6786, 5817.661
666.1607, 5820.753
666.6428, 5824.186
667.1249, 5824.556
667.6071, 5819.211
668.0892, 5817.778
668.5713, 5822.169
669.0534, 5828.580
669.5355, 5833.343
670.0176, 5836.007
670.4998, 5841.152
670.9819, 5849.994
671.4640, 5859.466
671.9461, 5865.157
672.4282, 5867.569
672.9103, 5868.988
673.3925, 5869.806
673.8746, 5870.239
674.3567, 5870.423
674.8388, 5870.312
675.3209, 5869.861
675.8030, 5867.586
676.2852, 5866.329
676.7673, 5866.529
677.2494, 5868.458
677.7315, 5873.766
678.2136, 5886.624
678.6957, 5896.915
679.1779, 5900.537
679.6600, 5897.804
680.1421, 5895.271
680.6242, 5892.747
681.1063, 5891.442
681.5884, 5893.194
682.0706, 5896.897
682.5527, 5898.153
683.0348, 5896.715
683.5169, 5896.502
683.9990, 5903.018
684.4811, 5911.391
684.9633, 5915.727
685.4454, 5913.294
685.9275, 5912.129
686.4096, 5916.076
686.8917, 5922.232
687.3738, 5927.514
687.8560, 5931.896
688.3381, 5934.846
688.8202, 5934.720
689.3023, 5934.531
689.7844, 5939.896
690.2665, 5951.177
690.7487, 5962.786
691.2308, 5974.210
691.7129, 5983.513
692.1950, 5985.610
692.6771, 5982.368
693.1592, 5980.850
693.6414, 5987.134
694.1235, 5994.237
694.6056, 5996.611
695.0877, 5995.061
695.5698, 5993.264
696.0519, 5994.405
696.5341, 5993.675
697.0162, 5986.480
697.4983, 5973.118
697.9804, 5970.660
698.4625, 5983.816
698.9446, 5998.573
699.4268, 6007.662
699.9089, 6011.303
700.3910, 6010.513
700.8731, 6004.888
701.3552, 6000.111
701.8373, 6001.174
702.3195, 6006.442
702.8016, 6013.956
703.2837, 6023.929
703.7658, 6032.396
704.2479, 6036.288
704.7300, 6037.780
705.2122, 6038.782
705.6943, 6037.994
706.1764, 6039.613
706.6585, 6046.730
707.1406, 6054.375
707.6227, 6055.327
708.1049, 6046.349
708.5870, 6045.051
709.0691, 6056.490
709.5512, 6072.197
710.0333, 6076.474
710.5154, 6071.177
710.9976, 6066.063
711.4797, 6064.382
711.9618, 6064.576
712.4439, 6064.884
712.9260, 6065.811
713.4081, 6068.581
713.8903, 6076.887
714.3724, 6083.905
714.8545, 6085.558
715.3366, 6083.084
715.8187, 6084.736
716.3008, 6093.796
716.7830, 6101.521
717.2651, 6104.618
717.7472, 6103.755
718.2293, 6103.703
718.7114, 6104.466
719.1935, 6106.371
719.6757, 6110.888
720.1578, 6116.254
720.6399, 6118.437
721.1220, 6117.502
721.6041, 6117.450
722.0862, 6120.571
722.5684, 6125.644
723.0505, 6132.129
723.5326, 6140.177
724.0147, 6147.869
724.4968, 6156.809
724.9789, 6163.448
725.4611, 6164.860
725.9432, 6158.971
726.4253, 6156.111
726.9074, 6156.839
727.3895, 6159.326
727.8716, 6162.206
728.3538, 6165.374
728.8359, 6167.619
729.3180, 6168.418
729.8001, 6170.386
730.2822, 6178.140
730.7643, 6187.832
731.2465, 6194.114
731.7286, 6194.038
732.2107, 6192.630
732.6928, 6188.698
733.1749, 6185.015
733.6570, 6185.938
734.1392, 6193.726
734.6213, 6200.529
735.1034, 6204.686
735.5855, 6207.748
736.0676, 6213.522
736.5497, 6221.716
737.0319, 6228.609
737.5140, 6233.204
737.9961, 6235.477
738.4782, 6235.072
738.9603, 6232.353
739.4424, 6228.167
739.9246, 6218.717
740.4067, 6212.239
740.8888, 6215.361
741.3709, 6225.586
741.8530, 6230.515
742.3351, 6224.682
742.8173, 6221.118
743.2994, 6223.460
743.7815, 6231.037
744.2636, 6242.450
744.7457, 6258.334
745.2278, 6268.931
745.7100, 6263.591
746.1921, 6250.929
746.6742, 6246.999
747.1563, 6251.167
747.6384, 6258.927
748.1205, 6273.125
748.6027, 6285.638
749.0848, 6289.329
749.5669, 6283.423
750.0490, 6280.018
750.5311, 6282.052
751.0132, 6285.248
751.4954, 6288.292
751.9775, 6291.366
752.4596, 6290.116
752.9417, 6283.141
753.4238, 6278.742
753.9059, 6286.193
754.3881, 6300.837
754.8702, 6310.931
755.3523, 6315.528
755.8344, 6318.118
756.3165, 6321.178
756.7986, 6323.442
757.2808, 6323.144
757.7629, 6318.699
758.2450, 6316.931
758.7271, 6320.277
759.2092, 6325.611
759.6913, 6330.740
760.1735, 6334.996
760.6556, 6342.562
761.1377, 6354.879
761.6198, 6365.957
762.1019, 6365.766
762.5840, 6358.608
763.0662, 6359.752
763.5483, 6373.035
764.0304, 6387.075
764.5125, 6391.217
764.9946, 6391.053
765.4767, 6393.199
765.9589, 6402.328
766.4410, 6408.212
766.9231, 6405.909
767.4052, 6401.641
767.8873, 6401.962
768.3694, 6407.987
768.8516, 6415.185
769.3337, 6424.269
769.8158, 6431.743
770.2979, 6430.411
770.7800, 6422.750
771.2621, 6417.937
771.7443, 6419.297
772.2264, 6421.915
772.7085, 6420.621
773.1906, 6418.183
773.6727, 6418.729
774.1548, 6425.441
774.6370, 6432.956
775.1191, 6442.272
775.6012, 6451.163
776.0833, 6455.215
776.5654, 6452.798
777.0475, 6453.015
777.5297, 6458.384
778.0118, 6465.775
778.4939, 6468.121
778.9760, 6467.248
779.4581, 6470.475
779.9402, 6483.425
780.4224, 6496.767
780.9045, 6501.874
781.3866, 6501.967
781.8687, 6503.150
782.3508, 6505.875
782.8329, 6511.262
783.3151, 6521.777
783.7972, 6533.934
784.2793, 6539.690
784.7614, 6537.975
785.2435, 6535.288
785.7256, 6532.900
786.2077, 6531.363
786.6898, 6532.333
787.1719, 6535.353
787.6541, 6538.433
788.1362, 6543.721
788.6183, 6546.187
789.1004, 6540.054
789.5825, 6528.613
790.0646, 6520.104
790.5468, 6514.907
791.0289, 6515.084
791.5110, 6523.705
791.9931, 6537.167
792.4752, 6543.199
792.9573, 6540.899
793.4395, 6538.966
793.9216, 6539.231
794.4037, 6542.834
794.8858, 6555.833
795.3679, 6574.569
795.8500, 6587.018
796.3322, 6583.277
796.8143, 6575.544
797.2964, 6567.602
797.7785, 6560.726
798.2606, 6559.700
798.7427, 6569.744
799.2249, 6578.082
799.7070, 6580.619
800.1891, 6579.908
800.6712, 6586.448
801.1533, 6600.425
801.6354, 6609.677
802.1176, 6605.758
802.5997, 6597.617
803.0818, 6598.379
803.5639, 6606.094
804.0460, 6614.744
804.5281, 6626.633
805.0103, 6633.695
805.4924, 6628.366
805.9745, 6614.280
806.4566, 6608.331
806.9387, 6613.426
807.4208, 6620.491
807.9030, 6627.332
808.3851, 6634.099
808.8672, 6641.262
809.3493, 6648.784
809.8314, 6656.777
810.3135, 6666.408
810.7957, 6675.335
811.2778, 6681.390
811.7599, 6684.750
812.2420, 6685.963
812.7241, 6682.710
813.2062, 6680.161
813.6884, 6681.063
814.1705, 6683.870
814.6526, 6682.984
815.1347, 6677.077
815.6168, 6673.062
816.0989, 6672.922
816.5811, 6676.173
817.0632, 6683.073
817.5453, 6692.801
818.0274, 6701.787
818.5095, 6708.587
818.9916, 6713.836
819.4738, 6717.028
819.9559, 6718.974
820.4380, 6721.761
820.9201, 6727.789
821.4022, 6732.038
821.8843, 6732.712
822.3665, 6731.486
822.8486, 6733.255
823.3307, 6738.135
823.8128, 6741.544
824.2949, 6741.385
824.7770, 6739.803
825.2592, 6739.151
825.7413, 6739.591
826.2234, 6741.486
826.7055, 6744.606
827.1876, 6749.549
827.6697, 6759.456
828.1519, 6770.812
828.6340, 6775.685
829.1161, 6770.532
829.5982, 6767.352
830.0803, 6769.237
830.5624, 6772.944
831.0446, 6769.241
831.5267, 6760.646
832.0088, 6761.052
832.4909, 6779.786
832.9730, 6800.291
833.4551, 6807.678
833.9373, 6806.852
834.4194, 6805.681
834.9015, 6805.220
835.3836, 6806.005
835.8657, 6808.065
836.3478, 6811.259
836.8300, 6815.207
837.3121, 6819.737
837.7942, 6826.628
838.2763, 6837.348
838.7584, 6847.048
839.2405, 6846.584
839.7227, 6840.599
840.2048, 6838.526
840.6869, 6843.518
841.1690, 6851.580
841.6511, 6865.088
842.1332, 6878.616
842.6154, 6885.428
843.0975, 6882.980
843.5796, 6878.416
844.0617, 6869.788
844.5438, 6863.283
845.0259, 6869.608
845.5081, 6885.600
845.9902, 6895.235
846.4723, 6895.728
846.9544, 6892.386
847.4365, 6887.552
847.9186, 6882.604
848.4008, 6878.901
848.8829, 6876.228
849.3650, 6876.471
849.8471, 6882.362
850.3292, 6888.779
850.8113, 6891.184
851.2935, 6888.827
851.7756, 6891.610
852.2577, 6900.508
852.7398, 6909.548
853.2219, 6910.620
853.7040, 6909.373
854.1862, 6916.897
854.6683, 6934.798
855.1504, 6948.401
855.6325, 6945.104
856.1146, 6939.728
856.5967, 6941.997
857.0789, 6952.697
857.5610, 6964.058
858.0431, 6977.458
858.5252, 6986.587
859.0073, 6984.755
859.4894, 6975.187
859.9716, 6968.001
860.4537, 6963.491
860.9358, 6964.212
861.4179, 6976.678
861.9000, 6990.922
862.3821, 7000.813
862.8643, 7006.028
863.3464, 7008.275
863.8285, 7005.574
864.3106, 7004.052
864.7927, 7006.048
865.2748, 7011.017
865.7570, 7016.777
866.2391, 7023.315
866.7212, 7028.825
867.2033, 7031.212
867.6854, 7033.099
868.1675, 7038.185
868.6497, 7045.126
869.1318, 7050.011
869.6139, 7047.752
870.0960, 7047.747
870.5781, 7053.557
871.0602, 7062.429
871.5424, 7067.659
872.0245, 7068.946
872.5066, 7068.932
872.9887, 7068.107
873.4708, 7066.756
873.9529, 7064.979
874.4351, 7063.091
874.9172, 7061.744
875.3993, 7061.138
875.8814, 7061.260
876.3635, 7063.709
876.8456, 7066.306
877.3278, 7065.381
877.8099, 7057.935
878.2920, 7057.179
878.7741, 7065.929
879.2562, 7077.622
879.7383, 7084.986
880.2205, 7088.577
880.7026, 7088.698
881.1847, 7084.331
881.6668, 7082.735
882.1489, 7090.120
882.6310, 7101.561
883.1132, 7113.599
883.5953, 7128.133
884.0774, 7134.679
884.5595, 7129.263
885.0416, 7123.028
885.5237, 7125.248
886.0059, 7134.358
886.4880, 7142.093
886.9701, 7148.063
887.4522, 7150.322
887.9343, 7143.571
888.4164, 7135.359
888.8986, 7131.808
889.3807, 7133.380
889.8628, 7138.095
890.3449, 7148.299
890.8270, 7158.096
891.3091, 7166.193
891.7913, 7172.169
892.2734, 7170.763
892.7555, 7162.518
893.2376, 7158.156
893.7197, 7167.408
894.2018, 7179.958
894.6840, 7184.409
895.1661, 7183.331
895.6482, 7183.875
896.1303, 7188.645
896.6124, 7194.732
897.0945, 7202.186
897.5767, 7210.072
898.0588, 7216.807
898.5409, 7222.522
899.0230, 7223.613
899.5051, 7216.620
899.9872, 7211.881
900.4694, 7227.391
900.9515, 7252.771
901.4336, 7270.642
901.9157, 7274.024
902.3978, 7273.919
902.8799, 7272.035
903.3621, 7268.639
903.8442, 7262.757
904.3263, 7252.981
904.8084, 7249.921
905.2905, 7254.659
905.7726, 7262.494
906.2548, 7271.073
906.7369, 7278.876
907.2190, 7282.902
907.7011, 7282.784
908.1832, 7281.530
908.6653, 7279.263
909.1475, 7277.330
909.6296, 7276.091
910.1117, 7275.572
910.5938, 7277.797
911.0759, 7283.209
911.5580, 7289.206
912.0402, 7295.153
912.5223, 7300.358
913.0044, 7302.634
913.4865, 7302.735
913.9686, 7303.253
914.4507, 7304.361
914.9329, 7307.284
915.4150, 7314.433
915.8971, 7323.528
916.3792, 7327.975
916.8613, 7325.367
917.3434, 7328.103
917.8256, 7340.294
918.3077, 7355.776
918.7898, 7366.844
919.2719, 7373.105
919.7540, 7372.428
920.2361, 7359.564
920.7183, 7350.854
921.2004, 7357.602
921.6825, 7370.170
922.1646, 7378.830
922.6467, 7382.875
923.1288, 7384.575
923.6110, 7383.644
924.0931, 7381.516
924.5752, 7378.037
925.0573, 7374.832
925.5394, 7376.310
926.0215, 7382.745
926.5037, 7389.565
926.9858, 7394.319
927.4679, 7398.738
927.9500, 7404.127
928.4321, 7410.340
928.9142, 7415.022
929.3964, 7417.743
929.8785, 7420.457
930.3606, 7424.052
930.8427, 7428.162
931.3248, 7431.771
931.8069, 7435.093
932.2891, 7438.892
932.7712, 7444.017
933.2533, 7449.066
933.7354, 7453.402
934.2175, 7457.302
934.6996, 7460.815
935.1818, 7462.749
935.6639, 7470.220
936.1460, 7486.681
936.6281, 7502.265
937.1102, 7500.577
937.5923, 7488.922
938.0745, 7482.998
938.5566, 7486.464
939.0387, 7492.391
939.5208, 7497.591
940.0029, 7503.722
940.4850, 7511.628
940.9672, 7521.026
941.4493, 7534.373
941.9314, 7552.910
942.4135, 7568.362
942.8956, 7570.903
943.3777, 7568.020
943.8599, 7576.777
944.3420, 7594.794
944.8241, 7609.489
945.3062, 7605.970
945.7883, 7607.298
946.2704, 7626.417
946.7526, 7657.220
947.2347, 7683.385
947.7168, 7703.835
948.1989, 7727.151
948.6810, 7754.193
949.1631, 7788.483
949.6453, 7834.569
950.1274, 7891.931
950.6095, 7959.448
951.0916, 8040.580
951.5737, 8124.120
952.0558, 8213.850
952.5380, 8298.881
953.0201, 8369.665
953.5022, 8424.540
953.9843, 8475.817
954.4664, 8522.775
954.9485, 8570.301
955.4307, 8619.300
955.9128, 8672.921
956.3949, 8732.663
956.8770, 8799.576
957.3591, 8881.898
957.8412, 8983.831
958.3234, 9101.158
958.8055, 9229.395
959.2876, 9373.783
959.7697, 9551.557
960.2518, 9763.756
960.7339, 10014.31
961.2161, 10315.10
961.6982, 10640.81
962.1803, 10985.24
962.6624, 11332.71
963.1445, 11665.01
963.6266, 12032.16
964.1088, 12304.42
964.5909, 12524.29
965.0730, 12593.09
965.5551, 12376.71
966.0372, 11900.17
966.5193, 11339.16
967.0015, 10708.47
967.4836, 10107.47
967.9657, 9598.873
968.4478, 9172.592
968.9299, 8831.855
969.4120, 8578.472
969.8942, 8390.275
970.3763, 8281.412
970.8584, 8196.361
971.3405, 8116.681
971.8226, 8045.123
972.3047, 7987.987
972.7869, 7944.196
973.2690, 7908.420
973.7511, 7881.333
974.2332, 7857.659
974.7153, 7831.144
975.1974, 7807.765
975.6796, 7796.646
976.1617, 7805.294
976.6438, 7803.643
977.1259, 7787.720
977.6080, 7770.611
978.0901, 7766.276
978.5723, 7770.646
979.0544, 7776.362
979.5365, 7782.651
980.0186, 7788.669
980.5007, 7792.599
980.9828, 7797.444
981.4650, 7805.999
981.9471, 7817.056
982.4291, 7822.817
982.9113, 7823.030
983.3934, 7820.255
983.8755, 7813.825
984.3576, 7807.445
984.8397, 7806.864
985.3218, 7809.743
985.8040, 7811.715
986.2861, 7809.102
986.7682, 7809.020
987.2503, 7814.232
987.7324, 7820.073
988.2145, 7821.047
988.6967, 7817.516
989.1788, 7816.513
989.6609, 7818.579
990.1430, 7821.029
990.6251, 7820.863
991.1072, 7820.887
991.5894, 7824.408
992.0715, 7831.397
992.5536, 7835.843
993.0357, 7836.005
993.5178, 7836.783
993.9999, 7840.049
994.4821, 7844.584
994.9642, 7846.313
995.4463, 7846.542
995.9284, 7850.450
996.4105, 7863.039
996.8926, 7873.229
997.3748, 7871.298
997.8569, 7865.933
998.3390, 7867.784
998.8211, 7881.146
999.3032, 7885.487
999.7853, 7878.938
1000.267, 7871.888
1000.750, 7874.929
1001.232, 7882.557
1001.714, 7885.087
1002.196, 7883.077
1002.678, 7884.234
1003.160, 7897.193
1003.642, 7907.131
1004.124, 7907.995
1004.607, 7903.680
1005.089, 7905.261
1005.571, 7912.438
1006.053, 7918.735
1006.535, 7921.531
1007.017, 7925.231
1007.499, 7936.143
1007.981, 7949.175
1008.463, 7958.677
1008.946, 7962.995
1009.428, 7963.792
1009.910, 7959.672
1010.392, 7954.824
1010.874, 7949.759
1011.356, 7946.511
1011.838, 7956.561
1012.320, 7977.259
1012.802, 7993.483
1013.285, 7995.082
1013.767, 7992.237
1014.249, 7986.552
1014.731, 7980.950
1015.213, 7981.999
1015.695, 7990.972
1016.177, 7999.164
1016.659, 8004.828
1017.142, 8010.462
1017.624, 8020.001
1018.106, 8030.782
1018.588, 8038.536
1019.070, 8041.702
1019.552, 8047.345
1020.034, 8059.353
1020.516, 8070.606
1020.998, 8076.372
1021.481, 8078.667
1021.963, 8090.156
1022.445, 8109.427
1022.927, 8126.621
1023.409, 8133.701
1023.891, 8140.729
1024.373, 8157.863
1024.855, 8178.306
1025.338, 8189.614
1025.820, 8187.514
1026.302, 8186.666
1026.784, 8187.389
1027.266, 8191.397
1027.748, 8201.400
1028.230, 8215.638
1028.712, 8232.653
1029.194, 8251.846
1029.677, 8267.785
1030.159, 8273.354
1030.641, 8280.768
1031.123, 8293.939
1031.605, 8312.364
1032.087, 8337.092
1032.569, 8367.292
1033.051, 8391.268
1033.534, 8404.080
1034.016, 8412.132
1034.498, 8426.956
1034.980, 8437.607
1035.462, 8428.979
1035.944, 8388.775
1036.426, 8358.537
1036.908, 8340.351
1037.391, 8326.657
1037.873, 8313.050
1038.355, 8299.923
1038.837, 8287.393
1039.319, 8276.158
1039.801, 8269.593
1040.283, 8271.201
1040.765, 8275.600
1041.247, 8283.893
1041.729, 8292.066
1042.212, 8292.285
1042.694, 8284.311
1043.176, 8280.533
1043.658, 8283.086
1044.140, 8286.070
1044.622, 8282.728
1045.104, 8278.047
1045.586, 8277.241
1046.069, 8281.129
1046.551, 8283.555
1047.033, 8282.510
1047.515, 8285.032
1047.997, 8296.520
1048.479, 8310.258
1048.961, 8306.248
1049.443, 8292.782
1049.926, 8291.738
1050.408, 8319.901
1050.890, 8345.287
1051.372, 8355.291
1051.854, 8359.120
1052.336, 8364.547
1052.818, 8372.065
1053.300, 8368.463
1053.782, 8353.544
1054.265, 8346.429
1054.747, 8369.877
1055.229, 8399.115
1055.711, 8413.132
1056.193, 8415.072
1056.675, 8418.938
1057.157, 8425.664
1057.639, 8434.415
1058.121, 8445.370
1058.604, 8457.315
1059.086, 8471.978
1059.568, 8485.337
1060.050, 8489.917
1060.532, 8484.441
1061.014, 8471.222
1061.496, 8446.455
1061.978, 8418.857
1062.461, 8390.403
1062.943, 8362.683
1063.425, 8342.743
1063.907, 8330.066
1064.389, 8319.271
1064.871, 8307.065
1065.353, 8298.300
1065.835, 8300.625
1066.318, 8306.757
1066.800, 8306.537
1067.282, 8296.034
1067.764, 8290.836
1068.246, 8291.239
1068.728, 8295.424
1069.210, 8306.326
1069.692, 8317.586
1070.174, 8314.544
1070.656, 8301.820
1071.139, 8298.210
1071.621, 8320.724
1072.103, 8338.061
1072.585, 8344.432
1073.067, 8344.409
1073.549, 8343.400
1074.031, 8341.998
1074.513, 8343.192
1074.996, 8347.537
1075.478, 8351.936
1075.960, 8350.906
1076.442, 8352.729
1076.924, 8365.741
1077.406, 8387.147
1077.888, 8397.044
1078.370, 8394.577
1078.853, 8398.751
1079.335, 8418.905
1079.817, 8441.447
1080.299, 8452.879
1080.781, 8456.787
1081.263, 8458.188
1081.745, 8459.352
1082.227, 8452.658
1082.709, 8435.705
1083.192, 8417.039
1083.674, 8399.698
1084.156, 8385.519
1084.638, 8380.593
1085.120, 8383.012
1085.602, 8385.997
1086.084, 8386.890
1086.566, 8387.923
1087.048, 8390.521
1087.531, 8392.631
1088.013, 8391.236
1088.495, 8386.684
1088.977, 8382.921
1089.459, 8380.218
1089.941, 8378.607
1090.423, 8377.954
1090.905, 8378.513
1091.387, 8381.170
1091.870, 8385.271
1092.352, 8387.645
1092.834, 8387.650
1093.316, 8390.719
1093.798, 8398.516
1094.280, 8408.227
1094.762, 8421.754
1095.244, 8432.404
1095.727, 8429.587
1096.209, 8408.704
1096.691, 8393.963
1097.173, 8387.277
1097.655, 8385.904
1098.137, 8389.702
1098.619, 8397.076
1099.101, 8406.799
1099.583, 8416.835
1100.066, 8421.991
1100.548, 8416.223
1101.030, 8413.127
1101.512, 8416.778
1101.994, 8423.887
1102.476, 8435.592
1102.958, 8450.675
1103.440, 8446.483
1103.922, 8425.057
1104.405, 8409.100
1104.887, 8414.812
1105.369, 8426.857
1105.851, 8439.826
1106.333, 8452.145
1106.815, 8460.556
1107.297, 8464.107
1107.779, 8471.804
1108.262, 8485.490
1108.744, 8495.019
1109.226, 8484.946
1109.708, 8470.662
1110.190, 8466.626
1110.672, 8473.592
1111.154, 8486.611
1111.636, 8510.524
1112.119, 8523.761
1112.601, 8518.021
1113.083, 8507.397
1113.565, 8518.170
1114.047, 8537.474
1114.529, 8539.139
1115.011, 8514.624
1115.493, 8500.844
1115.975, 8513.314
1116.458, 8526.383
1116.940, 8528.577
1117.422, 8524.225
1117.904, 8527.455
1118.386, 8536.445
1118.868, 8545.121
1119.350, 8551.342
1119.832, 8556.679
1120.314, 8561.110
1120.797, 8565.409
1121.279, 8570.152
1121.761, 8575.274
1122.243, 8580.299
1122.725, 8585.130
1123.207, 8589.273
1123.689, 8589.759
1124.171, 8592.135
1124.654, 8605.514
1125.136, 8620.933
1125.618, 8620.779
1126.100, 8599.247
1126.582, 8593.973
1127.064, 8608.718
1127.546, 8625.669
1128.028, 8627.435
1128.510, 8625.142
1128.993, 8631.414
1129.475, 8644.625
1129.957, 8653.665
1130.439, 8657.111
1130.921, 8658.159
1131.403, 8656.466
1131.885, 8655.303
1132.367, 8662.076
1132.849, 8670.717
1133.332, 8669.729
1133.814, 8657.563
1134.296, 8651.466
1134.778, 8658.730
1135.260, 8666.069
1135.742, 8669.418
1136.224, 8670.607
1136.706, 8673.526
1137.189, 8677.555
1137.671, 8680.655
1138.153, 8681.604
1138.635, 8684.903
1139.117, 8696.280
1139.599, 8705.989
1140.081, 8707.736
1140.563, 8704.131
1141.046, 8709.588
1141.528, 8722.054
1142.010, 8731.147
1142.492, 8731.421
1142.974, 8729.479
1143.456, 8725.727
1143.938, 8723.611
1144.420, 8727.459
1144.902, 8737.736
1145.385, 8738.515
1145.867, 8730.333
1146.349, 8725.719
1146.831, 8736.087
1147.313, 8748.891
1147.795, 8756.597
1148.277, 8760.215
1148.759, 8762.139
1149.241, 8762.610
1149.724, 8757.905
1150.206, 8747.008
1150.688, 8741.603
1151.170, 8761.667
1151.652, 8783.295
1152.134, 8779.546
1152.616, 8757.705
1153.098, 8748.213
1153.581, 8755.926
1154.063, 8765.596
1154.545, 8776.441
1155.027, 8783.599
1155.509, 8779.754
1155.991, 8769.998
1156.473, 8757.404
1156.955, 8743.193
1157.438, 8740.572
1157.920, 8756.832
1158.402, 8768.389
1158.884, 8768.947
1159.366, 8764.351
1159.848, 8761.673
1160.330, 8760.545
1160.812, 8759.943
1161.294, 8759.493
1161.776, 8762.472
1162.259, 8772.711
1162.741, 8780.135
1163.223, 8779.541
1163.705, 8775.887
1164.187, 8781.255
1164.669, 8792.131
1165.151, 8800.899
1165.633, 8806.102
1166.116, 8806.631
1166.598, 8798.771
1167.080, 8790.635
1167.562, 8785.823
1168.044, 8783.936
1168.526, 8784.465
1169.008, 8786.830
1169.490, 8788.846
1169.973, 8790.256
1170.455, 8790.636
1170.937, 8790.167
1171.419, 8788.555
1171.901, 8784.067
1172.383, 8777.857
1172.865, 8779.608
1173.347, 8788.163
1173.829, 8797.015
1174.312, 8808.120
1174.794, 8812.326
1175.276, 8797.628
1175.758, 8780.229
1176.240, 8776.501
1176.722, 8785.963
1177.204, 8793.659
1177.686, 8799.010
1178.168, 8800.379
1178.651, 8791.392
1179.133, 8783.998
1179.615, 8785.466
1180.097, 8791.879
1180.579, 8798.850
1181.061, 8806.346
1181.543, 8808.695
1182.025, 8805.506
1182.508, 8801.623
1182.990, 8800.114
1183.472, 8799.510
1183.954, 8799.209
1184.436, 8799.068
1184.918, 8799.221
1185.400, 8799.815
1185.882, 8797.584
1186.365, 8791.854
1186.847, 8787.131
1187.329, 8787.078
1187.811, 8789.623
1188.293, 8793.473
1188.775, 8798.671
1189.257, 8806.479
1189.739, 8817.454
1190.221, 8823.868
1190.703, 8823.832
1191.186, 8821.542
1191.668, 8819.260
1192.150, 8817.794
1192.632, 8817.262
1193.114, 8817.920
1193.596, 8822.945
1194.078, 8832.850
1194.560, 8840.552
1195.043, 8843.112
1195.525, 8845.858
1196.007, 8859.564
1196.489, 8872.378
1196.971, 8868.707
1197.453, 8847.957
1197.935, 8841.303
1198.417, 8850.713
1198.900, 8857.857
1199.382, 8855.924
1199.864, 8850.300
1200.346, 8842.018
1200.828, 8836.141
1201.310, 8840.886
1201.792, 8858.510
1202.274, 8867.944
1202.756, 8868.757
1203.239, 8864.998
1203.721, 8855.680
1204.203, 8847.353
1204.685, 8848.967
1205.167, 8855.030
1205.649, 8857.304
1206.131, 8853.112
1206.613, 8856.310
1207.095, 8867.696
1207.578, 8878.930
1208.060, 8886.705
1208.542, 8890.492
1209.024, 8887.202
1209.506, 8880.507
1209.988, 8876.283
1210.470, 8875.432
1210.952, 8875.909
1211.435, 8878.191
1211.917, 8879.052
1212.399, 8873.018
1212.881, 8868.001
1213.363, 8874.306
1213.845, 8886.846
1214.327, 8895.933
1214.809, 8898.553
1215.292, 8906.811
1215.774, 8921.572
1216.256, 8933.414
1216.738, 8928.071
1217.220, 8922.615
1217.702, 8939.561
1218.184, 8967.014
1218.666, 8978.869
1219.148, 8969.519
1219.630, 8962.642
1220.113, 8959.201
1220.595, 8958.615
1221.077, 8964.697
1221.559, 8969.807
1222.041, 8964.639
1222.523, 8953.818
1223.005, 8949.015
1223.487, 8952.097
1223.970, 8954.693
1224.452, 8956.374
1224.934, 8956.930
1225.416, 8953.682
1225.898, 8951.512
1226.380, 8957.189
1226.862, 8966.763
1227.344, 8968.332
1227.827, 8959.744
1228.309, 8957.501
1228.791, 8963.462
1229.273, 8969.132
1229.755, 8967.697
1230.237, 8962.897
1230.719, 8955.465
1231.201, 8947.396
1231.683, 8943.041
1232.166, 8942.318
1232.648, 8948.243
1233.130, 8961.550
1233.612, 8974.207
1234.094, 8981.184
1234.576, 8983.647
1235.058, 8978.362
1235.540, 8970.103
1236.022, 8972.264
1236.505, 8985.164
1236.987, 8988.111
1237.469, 8977.985
1237.951, 8967.364
1238.433, 8967.311
1238.915, 8968.900
1239.397, 8965.188
1239.879, 8959.514
1240.362, 8959.702
1240.844, 8965.514
1241.326, 8972.928
1241.808, 8981.496
1242.290, 8989.119
1242.772, 8992.976
1243.254, 8996.776
1243.736, 9002.939
1244.219, 9009.881
1244.701, 9012.782
1245.183, 9012.564
1245.665, 9018.635
1246.147, 9032.997
1246.629, 9041.966
1247.111, 9031.853
1247.593, 9021.098
1248.075, 9016.953
1248.557, 9018.246
1249.040, 9023.545
1249.522, 9032.058
1250.004, 9041.509
1250.486, 9052.021
1250.968, 9056.522
1251.450, 9045.950
1251.932, 9035.885
1252.414, 9031.574
1252.897, 9031.412
1253.379, 9034.091
1253.861, 9037.787
1254.343, 9035.573
1254.825, 9025.538
1255.307, 9022.811
1255.789, 9040.002
1256.271, 9052.995
1256.754, 9052.992
1257.236, 9047.706
1257.718, 9053.904
1258.200, 9064.506
1258.682, 9062.101
1259.164, 9041.955
1259.646, 9040.213
1260.128, 9072.975
1260.610, 9097.298
1261.093, 9099.287
1261.575, 9088.960
1262.057, 9072.747
1262.539, 9058.589
1263.021, 9060.544
1263.503, 9081.859
1263.985, 9099.611
1264.467, 9115.300
1264.949, 9116.446
1265.432, 9095.436
1265.914, 9070.377
1266.396, 9061.037
1266.878, 9062.991
1267.360, 9074.595
1267.842, 9095.541
1268.324, 9109.290
1268.806, 9115.727
1269.289, 9113.049
1269.771, 9097.123
1270.253, 9084.910
1270.735, 9100.441
1271.217, 9121.833
1271.699, 9126.477
1272.181, 9116.974
1272.663, 9111.177
1273.146, 9109.121
1273.628, 9109.337
1274.110, 9111.798
1274.592, 9115.137
1275.074, 9123.102
1275.556, 9126.780
1276.038, 9118.149
1276.520, 9101.736
1277.002, 9093.969
1277.484, 9094.042
1277.967, 9096.211
1278.449, 9098.693
1278.931, 9105.554
1279.413, 9127.404
1279.895, 9143.657
1280.377, 9142.630
1280.859, 9132.029
1281.341, 9130.963
1281.823, 9137.055
1282.306, 9144.129
1282.788, 9151.090
1283.270, 9156.318
1283.752, 9156.683
1284.234, 9160.083
1284.716, 9171.343
1285.198, 9183.293
1285.680, 9180.725
1286.163, 9170.217
1286.645, 9162.563
1287.127, 9159.412
1287.609, 9162.533
1288.091, 9175.810
1288.573, 9181.951
1289.055, 9173.080
1289.537, 9162.441
1290.020, 9174.719
1290.502, 9191.204
1290.984, 9184.705
1291.466, 9153.277
1291.948, 9145.779
1292.430, 9166.492
1292.912, 9179.986
1293.394, 9176.353
1293.876, 9166.923
1294.359, 9154.810
1294.841, 9147.979
1295.323, 9159.765
1295.805, 9183.151
1296.287, 9189.721
1296.769, 9180.646
1297.251, 9174.049
1297.733, 9173.604
1298.215, 9176.742
1298.698, 9185.285
##END=



