##NAMES=Fluorite
##RRUFFID=R050045
##IDEAL CHEMISTRY=CaF_2_
##LOCALITY=Hunan Province, China
##OWNER=RRUFF
##SOURCE=Eugene Schlepp
##DESCRIPTION=Pale green colored cubes
##STATUS=The identification of this mineral has been confirmed by X-ray diffraction and chemical analysis
##URL=rruff.info/R050045
##MEASURED CHEMISTRY=Ca_1.000_ F_2.000_
111.8592, 57.56635
112.3413, 57.42954
112.8234, 59.17929
113.3055, 62.16875
113.7877, 66.43818
114.2698, 72.55356
114.7519, 82.40839
115.2340, 93.15043
115.7161, 101.3709
116.1982, 106.2987
116.6804, 109.8672
117.1625, 114.2714
117.6446, 119.8429
118.1267, 123.7142
118.6088, 123.5226
119.0909, 121.5853
119.5731, 119.1002
120.0552, 115.8960
120.5373, 113.6460
121.0194, 115.7876
121.5015, 124.5753
121.9836, 131.3015
122.4658, 130.2206
122.9479, 127.2751
123.4300, 128.2635
123.9121, 135.8066
124.3942, 147.6736
124.8763, 158.2769
125.3585, 165.8301
125.8406, 175.5131
126.3227, 188.5307
126.8048, 203.9165
127.2869, 220.8235
127.7690, 238.7610
128.2512, 257.7621
128.7333, 276.9382
129.2154, 290.4151
129.6975, 312.1973
130.1796, 349.6209
130.6617, 395.5038
131.1439, 440.3968
131.6260, 478.8285
132.1081, 511.1371
132.5902, 539.8708
133.0723, 567.0681
133.5544, 588.1145
134.0366, 601.3344
134.5187, 607.6301
135.0008, 608.4418
135.4829, 604.5809
135.9650, 596.1481
136.4471, 584.3781
136.9293, 560.3510
137.4114, 542.3423
137.8935, 538.8757
138.3756, 546.2355
138.8577, 554.8180
139.3398, 557.2560
139.8220, 553.4377
140.3041, 556.5820
140.7862, 566.9538
141.2683, 582.1135
141.7504, 601.9308
142.2325, 625.8367
142.7147, 652.1655
143.1968, 679.4872
143.6789, 707.9189
144.1610, 742.1237
144.6431, 784.2210
145.1252, 829.3662
145.6074, 876.7910
146.0895, 925.6394
146.5716, 972.0876
147.0537, 1011.895
147.5358, 1045.115
148.0179, 1084.266
148.5001, 1135.629
148.9822, 1188.125
149.4643, 1234.768
149.9464, 1275.343
150.4285, 1311.223
150.9106, 1343.359
151.3928, 1371.363
151.8749, 1396.332
152.3570, 1421.296
152.8391, 1441.391
153.3212, 1449.111
153.8033, 1443.494
154.2855, 1438.049
154.7676, 1445.292
155.2497, 1462.260
155.7318, 1475.988
156.2139, 1483.081
156.6960, 1486.654
157.1782, 1488.881
157.6603, 1489.283
158.1424, 1492.156
158.6245, 1501.489
159.1066, 1515.943
159.5887, 1533.216
160.0709, 1553.703
160.5530, 1576.307
161.0351, 1599.016
161.5172, 1621.264
161.9993, 1645.214
162.4814, 1672.805
162.9636, 1703.034
163.4457, 1735.233
163.9278, 1768.821
164.4099, 1804.174
164.8920, 1842.221
165.3741, 1883.829
165.8563, 1925.481
166.3384, 1965.664
166.8205, 2004.375
167.3026, 2041.307
167.7847, 2075.073
168.2668, 2107.526
168.7490, 2143.325
169.2311, 2184.379
169.7132, 2224.823
170.1953, 2261.684
170.6774, 2296.028
171.1595, 2329.540
171.6417, 2364.262
172.1238, 2398.116
172.6059, 2425.849
173.0880, 2446.685
173.5701, 2462.379
174.0522, 2467.436
174.5344, 2469.737
175.0165, 2481.367
175.4986, 2510.835
175.9807, 2551.845
176.4628, 2587.366
176.9449, 2614.888
177.4271, 2641.279
177.9092, 2669.932
178.3913, 2699.053
178.8734, 2726.668
179.3555, 2753.197
179.8376, 2776.686
180.3197, 2789.902
180.8019, 2783.375
181.2840, 2783.566
181.7661, 2803.075
182.2482, 2831.684
182.7303, 2857.268
183.2124, 2874.347
183.6946, 2884.108
184.1767, 2889.925
184.6588, 2892.253
185.1409, 2889.042
185.6230, 2877.279
186.1051, 2861.653
186.5873, 2847.506
187.0694, 2837.448
187.5515, 2829.919
188.0336, 2820.475
188.5157, 2807.989
188.9978, 2795.548
189.4800, 2786.594
189.9621, 2777.052
190.4442, 2761.749
190.9263, 2738.135
191.4084, 2709.831
191.8905, 2686.113
192.3727, 2671.450
192.8548, 2653.168
193.3369, 2622.551
193.8190, 2590.836
194.3011, 2571.289
194.7832, 2569.401
195.2654, 2574.768
195.7475, 2563.915
196.2296, 2525.034
196.7117, 2491.455
197.1938, 2469.175
197.6759, 2452.124
198.1581, 2435.403
198.6402, 2417.264
199.1223, 2399.059
199.6044, 2383.967
200.0865, 2375.904
200.5686, 2362.780
201.0508, 2339.615
201.5329, 2314.341
202.0150, 2293.977
202.4971, 2280.120
202.9792, 2268.415
203.4613, 2250.732
203.9435, 2220.886
204.4256, 2199.446
204.9077, 2192.129
205.3898, 2188.724
205.8719, 2182.093
206.3540, 2170.957
206.8362, 2159.202
207.3183, 2153.063
207.8004, 2157.188
208.2825, 2154.962
208.7646, 2138.837
209.2467, 2122.848
209.7289, 2116.362
210.2110, 2119.720
210.6931, 2125.917
211.1752, 2127.599
211.6573, 2125.145
212.1395, 2116.305
212.6216, 2090.354
213.1037, 2067.583
213.5858, 2061.117
214.0679, 2068.902
214.5500, 2078.419
215.0322, 2077.108
215.5143, 2063.231
215.9964, 2049.870
216.4785, 2033.599
216.9606, 2020.917
217.4427, 2014.462
217.9249, 2013.872
218.4070, 2018.172
218.8891, 2028.605
219.3712, 2045.712
219.8533, 2049.037
220.3354, 2018.945
220.8176, 1993.574
221.2997, 1983.973
221.7818, 1987.124
222.2639, 1996.202
222.7460, 2007.685
223.2281, 2020.763
223.7103, 2025.626
224.1924, 2010.698
224.6745, 1999.842
225.1566, 2002.543
225.6387, 2011.528
226.1208, 2015.026
226.6030, 2005.592
227.0851, 1987.130
227.5672, 1976.335
228.0493, 1980.711
228.5314, 1982.969
229.0135, 1977.748
229.4957, 1969.857
229.9778, 1965.262
230.4599, 1966.742
230.9420, 1971.629
231.4241, 1972.861
231.9062, 1965.698
232.3884, 1963.266
232.8705, 1972.823
233.3526, 1984.088
233.8347, 1986.635
234.3168, 1977.299
234.7989, 1963.576
235.2811, 1959.047
235.7632, 1968.904
236.2453, 1975.713
236.7274, 1975.617
237.2095, 1974.079
237.6916, 1973.938
238.1738, 1976.059
238.6559, 1980.649
239.1380, 1989.513
239.6201, 2005.502
240.1022, 2015.060
240.5843, 2012.120
241.0665, 2007.238
241.5486, 2003.998
242.0307, 2003.292
242.5128, 2005.357
242.9949, 2009.408
243.4770, 2014.980
243.9592, 2028.684
244.4413, 2062.094
244.9234, 2093.114
245.4055, 2112.495
245.8876, 2122.565
246.3697, 2130.268
246.8519, 2139.368
247.3340, 2150.255
247.8161, 2166.142
248.2982, 2191.003
248.7803, 2215.913
249.2624, 2237.258
249.7446, 2256.743
250.2267, 2276.974
250.7088, 2299.381
251.1909, 2323.607
251.6730, 2348.848
252.1551, 2375.637
252.6373, 2402.585
253.1194, 2426.194
253.6015, 2450.814
254.0836, 2482.294
254.5657, 2523.712
255.0478, 2568.917
255.5300, 2608.032
256.0121, 2639.291
256.4942, 2670.755
256.9763, 2703.125
257.4584, 2737.465
257.9406, 2777.364
258.4227, 2823.832
258.9048, 2867.848
259.3869, 2899.359
259.8690, 2917.958
260.3511, 2934.278
260.8333, 2949.506
261.3154, 2963.681
261.7975, 2976.313
262.2796, 2987.559
262.7617, 2999.581
263.2438, 3015.212
263.7260, 3033.531
264.2081, 3049.317
264.6902, 3063.116
265.1723, 3072.250
265.6544, 3074.600
266.1365, 3071.231
266.6187, 3065.195
267.1008, 3054.762
267.5829, 3043.201
268.0650, 3040.259
268.5471, 3050.433
269.0292, 3055.270
269.5114, 3033.611
269.9935, 2998.507
270.4756, 2971.945
270.9577, 2963.370
271.4398, 2962.542
271.9219, 2957.548
272.4041, 2948.173
272.8862, 2942.264
273.3683, 2945.780
273.8504, 2954.433
274.3325, 2959.981
274.8146, 2962.294
275.2968, 2961.033
275.7789, 2950.628
276.2610, 2934.853
276.7431, 2930.510
277.2252, 2946.845
277.7073, 2972.986
278.1895, 2991.454
278.6716, 3002.047
279.1537, 3008.743
279.6358, 3010.856
280.1179, 3010.416
280.6000, 3010.731
281.0822, 3012.508
281.5643, 3015.265
282.0464, 3019.130
282.5285, 3024.362
283.0106, 3027.150
283.4927, 3026.537
283.9749, 3023.623
284.4570, 3016.344
284.9391, 3005.546
285.4212, 3000.959
285.9033, 3013.857
286.3854, 3043.328
286.8676, 3053.992
287.3497, 3031.296
287.8318, 3005.795
288.3139, 2991.187
288.7960, 2985.676
289.2781, 2982.846
289.7603, 2979.170
290.2424, 2975.409
290.7245, 2974.979
291.2066, 2987.339
291.6887, 2991.224
292.1708, 2977.739
292.6530, 2956.050
293.1351, 2935.643
293.6172, 2920.032
294.0993, 2910.691
294.5814, 2911.222
295.0635, 2932.849
295.5457, 2942.780
296.0278, 2932.529
296.5099, 2917.610
296.9920, 2907.006
297.4741, 2902.715
297.9562, 2904.048
298.4384, 2911.023
298.9205, 2924.785
299.4026, 2936.351
299.8847, 2936.766
300.3668, 2943.918
300.8489, 2966.042
301.3311, 2999.914
301.8131, 3038.606
302.2953, 3078.532
302.7774, 3118.617
303.2595, 3152.131
303.7416, 3166.227
304.2237, 3193.528
304.7058, 3246.734
305.1880, 3312.332
305.6701, 3375.098
306.1522, 3429.231
306.6343, 3482.393
307.1164, 3547.726
307.5985, 3627.358
308.0807, 3710.325
308.5628, 3788.172
309.0449, 3873.630
309.5270, 3976.651
310.0091, 4097.493
310.4912, 4223.809
310.9734, 4341.683
311.4555, 4453.225
311.9376, 4579.688
312.4197, 4723.081
312.9018, 4881.597
313.3839, 5051.098
313.8661, 5232.829
314.3482, 5428.536
314.8303, 5627.920
315.3124, 5846.745
315.7945, 6119.184
316.2766, 6451.037
316.7588, 6800.342
317.2409, 7142.724
317.7230, 7487.232
318.2051, 7851.081
318.6872, 8249.439
319.1693, 8640.465
319.6515, 9020.959
320.1336, 9374.332
320.6157, 9637.104
321.0978, 9792.857
321.5799, 9835.959
322.0620, 9742.803
322.5442, 9513.841
323.0263, 9219.661
323.5084, 8865.019
323.9905, 8461.419
324.4726, 8008.378
324.9547, 7504.403
325.4369, 6996.110
325.9190, 6521.293
326.4011, 6083.437
326.8832, 5689.557
327.3653, 5339.400
327.8474, 5029.211
328.3296, 4764.859
328.8117, 4539.094
329.2938, 4334.975
329.7759, 4141.872
330.2580, 3961.361
330.7401, 3806.989
331.2223, 3697.741
331.7044, 3590.476
332.1865, 3473.769
332.6686, 3359.746
333.1507, 3260.501
333.6328, 3180.203
334.1150, 3116.359
334.5971, 3066.774
335.0792, 3038.827
335.5613, 3005.869
336.0434, 2963.855
336.5255, 2921.111
337.0077, 2883.546
337.4898, 2849.661
337.9719, 2812.666
338.4540, 2765.599
338.9361, 2710.515
339.4182, 2666.383
339.9004, 2640.192
340.3825, 2615.617
340.8646, 2586.622
341.3467, 2556.527
341.8288, 2530.031
342.3109, 2509.142
342.7931, 2490.708
343.2752, 2471.923
343.7573, 2453.759
344.2394, 2427.348
344.7215, 2380.109
345.2036, 2332.110
345.6858, 2299.074
346.1679, 2281.616
346.6500, 2270.493
347.1321, 2263.689
347.6142, 2258.731
348.0963, 2246.903
348.5785, 2224.538
349.0606, 2204.051
349.5427, 2198.190
350.0248, 2202.437
350.5069, 2203.747
350.9890, 2199.368
351.4712, 2191.604
351.9533, 2181.236
352.4354, 2168.711
352.9175, 2155.792
353.3996, 2142.479
353.8817, 2130.243
354.3639, 2124.131
354.8460, 2128.865
355.3281, 2128.662
355.8102, 2113.686
356.2923, 2094.792
356.7744, 2085.961
357.2566, 2089.808
357.7387, 2098.233
358.2208, 2102.440
358.7029, 2101.765
359.1850, 2100.219
359.6671, 2094.586
360.1493, 2091.356
360.6314, 2095.149
361.1135, 2103.569
361.5956, 2111.689
362.0777, 2116.833
362.5598, 2118.885
363.0420, 2116.698
363.5241, 2102.344
364.0062, 2096.980
364.4883, 2108.840
364.9704, 2126.005
365.4525, 2138.443
365.9347, 2144.064
366.4168, 2147.941
366.8989, 2155.969
367.3810, 2168.541
367.8631, 2179.770
368.3452, 2189.458
368.8274, 2197.653
369.3095, 2202.935
369.7916, 2206.890
370.2737, 2213.195
370.7558, 2223.862
371.2379, 2237.625
371.7201, 2252.551
372.2022, 2268.650
372.6843, 2285.729
373.1664, 2305.213
373.6485, 2324.562
374.1306, 2340.696
374.6128, 2353.886
375.0949, 2362.510
375.5770, 2363.740
376.0591, 2360.060
376.5412, 2355.999
377.0233, 2352.371
377.5055, 2349.102
377.9876, 2345.623
378.4697, 2341.854
378.9518, 2341.452
379.4339, 2349.684
379.9160, 2356.601
380.3982, 2354.302
380.8803, 2345.537
381.3624, 2339.407
381.8445, 2341.426
382.3266, 2347.390
382.8087, 2344.362
383.2909, 2320.158
383.7730, 2302.739
384.2551, 2300.367
384.7372, 2299.971
385.2193, 2290.501
385.7014, 2270.533
386.1836, 2245.806
386.6657, 2220.339
387.1478, 2193.646
387.6299, 2177.799
388.1120, 2182.842
388.5941, 2187.524
389.0763, 2186.016
389.5584, 2179.382
390.0405, 2169.630
390.5226, 2157.386
391.0047, 2142.820
391.4868, 2124.246
391.9690, 2100.789
392.4511, 2083.000
392.9332, 2080.594
393.4153, 2078.622
393.8974, 2059.866
394.3795, 2024.405
394.8617, 1994.469
395.3438, 1987.577
395.8259, 1990.887
396.3080, 1981.003
396.7901, 1955.231
397.2722, 1929.486
397.7544, 1914.874
398.2365, 1909.844
398.7186, 1903.591
399.2007, 1897.261
399.6828, 1888.568
400.1649, 1873.434
400.6471, 1856.104
401.1292, 1844.545
401.6113, 1841.354
402.0934, 1841.100
402.5755, 1835.758
403.0576, 1823.864
403.5398, 1810.973
404.0219, 1796.193
404.5040, 1781.267
404.9861, 1766.419
405.4682, 1752.118
405.9503, 1739.379
406.4325, 1728.932
406.9146, 1720.291
407.3967, 1711.548
407.8788, 1700.835
408.3609, 1694.063
408.8430, 1697.332
409.3252, 1701.370
409.8073, 1697.672
410.2894, 1685.362
410.7715, 1672.304
411.2536, 1666.096
411.7357, 1665.222
412.2179, 1661.922
412.7000, 1655.007
413.1821, 1647.362
413.6642, 1640.648
414.1463, 1634.641
414.6284, 1629.200
415.1106, 1624.465
415.5927, 1620.038
416.0748, 1615.110
416.5569, 1610.180
417.0390, 1606.833
417.5211, 1605.641
418.0033, 1606.237
418.4854, 1608.741
418.9675, 1614.847
419.4496, 1616.626
419.9317, 1609.389
420.4138, 1601.348
420.8960, 1599.458
421.3781, 1601.996
421.8602, 1601.696
422.3423, 1593.359
422.8244, 1579.606
423.3065, 1572.284
423.7887, 1580.148
424.2708, 1580.552
424.7529, 1566.398
425.2350, 1547.786
425.7171, 1531.690
426.1992, 1519.656
426.6814, 1511.018
427.1635, 1507.626
427.6456, 1508.549
428.1277, 1501.424
428.6098, 1480.035
429.0919, 1462.640
429.5741, 1462.702
430.0562, 1471.492
430.5383, 1476.747
431.0204, 1475.938
431.5025, 1470.296
431.9846, 1458.390
432.4668, 1442.073
432.9489, 1427.932
433.4310, 1417.702
433.9131, 1409.882
434.3952, 1402.748
434.8773, 1396.279
435.3595, 1391.764
435.8416, 1389.783
436.3237, 1389.353
436.8058, 1391.937
437.2879, 1395.602
437.7701, 1395.327
438.2522, 1388.293
438.7343, 1377.384
439.2164, 1369.769
439.6985, 1365.453
440.1806, 1364.825
440.6628, 1372.377
441.1449, 1379.436
441.6270, 1379.835
442.1091, 1374.209
442.5912, 1367.097
443.0733, 1360.700
443.5555, 1355.962
444.0376, 1358.101
444.5197, 1370.976
445.0018, 1379.909
445.4839, 1377.208
445.9660, 1368.741
446.4482, 1358.396
446.9303, 1346.016
447.4124, 1337.096
447.8945, 1338.277
448.3766, 1344.677
448.8587, 1344.469
449.3409, 1335.490
449.8230, 1328.596
450.3051, 1333.320
450.7872, 1348.398
451.2693, 1359.214
451.7514, 1365.992
452.2336, 1368.657
452.7157, 1364.867
453.1978, 1357.751
453.6799, 1350.836
454.1620, 1345.367
454.6441, 1342.121
455.1263, 1342.712
455.6084, 1348.363
456.0905, 1350.900
456.5726, 1344.635
457.0547, 1341.045
457.5368, 1345.573
458.0190, 1354.635
458.5011, 1362.305
458.9832, 1365.987
459.4653, 1367.938
459.9474, 1371.685
460.4295, 1377.261
460.9117, 1381.625
461.3938, 1384.953
461.8759, 1385.765
462.3580, 1380.478
462.8401, 1370.681
463.3222, 1365.141
463.8044, 1367.778
464.2865, 1374.426
464.7686, 1383.629
465.2507, 1394.125
465.7328, 1400.553
466.2149, 1399.773
466.6971, 1396.606
467.1792, 1400.667
467.6613, 1417.329
468.1434, 1430.118
468.6255, 1442.151
469.1076, 1447.774
469.5898, 1437.798
470.0719, 1417.838
470.5540, 1402.839
471.0361, 1402.241
471.5182, 1412.727
472.0003, 1425.113
472.4825, 1439.385
472.9646, 1455.392
473.4467, 1480.581
473.9288, 1501.883
474.4109, 1507.119
474.8930, 1497.551
475.3752, 1489.560
475.8573, 1494.911
476.3394, 1506.851
476.8215, 1513.174
477.3036, 1513.538
477.7857, 1515.618
478.2679, 1524.072
478.7500, 1535.969
479.2321, 1543.963
479.7142, 1546.051
480.1963, 1549.740
480.6784, 1557.035
481.1606, 1566.142
481.6427, 1576.751
482.1248, 1587.973
482.6069, 1596.995
483.0890, 1601.639
483.5711, 1602.496
484.0533, 1602.936
484.5354, 1603.397
485.0175, 1602.627
485.4996, 1597.787
485.9817, 1593.652
486.4638, 1594.033
486.9460, 1599.289
487.4281, 1607.302
487.9102, 1617.112
488.3923, 1628.379
488.8744, 1642.481
489.3565, 1661.408
489.8387, 1670.698
490.3208, 1655.944
490.8029, 1630.426
491.2850, 1623.083
491.7671, 1641.247
492.2492, 1655.984
492.7314, 1655.652
493.2135, 1647.828
493.6956, 1638.467
494.1777, 1629.476
494.6598, 1625.348
495.1419, 1630.767
495.6241, 1643.156
496.1062, 1645.543
496.5883, 1625.518
497.0704, 1612.838
497.5525, 1616.843
498.0346, 1624.541
498.5168, 1624.307
498.9989, 1615.530
499.4810, 1606.687
499.9631, 1605.924
500.4452, 1610.638
500.9273, 1610.132
501.4095, 1602.781
501.8916, 1597.432
502.3737, 1601.986
502.8558, 1608.207
503.3379, 1601.946
503.8200, 1579.306
504.3022, 1559.801
504.7843, 1552.915
505.2664, 1551.779
505.7485, 1547.930
506.2306, 1541.328
506.7127, 1538.143
507.1949, 1542.996
507.6770, 1553.831
508.1591, 1561.713
508.6412, 1567.162
509.1233, 1568.529
509.6054, 1563.614
510.0876, 1556.458
510.5697, 1548.359
511.0518, 1540.515
511.5339, 1535.936
512.0161, 1538.948
512.4982, 1545.403
512.9803, 1541.261
513.4624, 1523.608
513.9445, 1513.983
514.4266, 1526.256
514.9088, 1544.737
515.3909, 1547.698
515.8730, 1533.855
516.3551, 1522.129
516.8372, 1519.319
517.3193, 1520.303
517.8015, 1522.250
518.2836, 1523.962
518.7657, 1522.117
519.2478, 1514.665
519.7299, 1503.931
520.2120, 1495.401
520.6942, 1489.688
521.1763, 1485.078
521.6584, 1483.797
522.1405, 1481.429
522.6226, 1474.479
523.1047, 1464.452
523.5869, 1455.144
524.0690, 1447.863
524.5511, 1443.681
525.0332, 1447.327
525.5153, 1458.704
525.9974, 1460.719
526.4796, 1442.852
526.9617, 1424.981
527.4438, 1434.991
527.9259, 1468.676
528.4080, 1487.486
528.8901, 1474.752
529.3723, 1456.895
529.8544, 1449.322
530.3365, 1447.955
530.8186, 1443.171
531.3007, 1431.795
531.7828, 1420.035
532.2650, 1417.010
532.7471, 1424.500
533.2292, 1429.622
533.7113, 1432.769
534.1934, 1432.845
534.6755, 1427.115
535.1577, 1419.108
535.6398, 1414.241
536.1219, 1414.450
536.6040, 1413.981
537.0861, 1406.020
537.5682, 1393.035
538.0504, 1382.299
538.5325, 1374.417
539.0146, 1371.464
539.4967, 1377.775
539.9788, 1390.130
540.4609, 1392.502
540.9431, 1378.534
541.4252, 1364.550
541.9073, 1351.360
542.3894, 1341.214
542.8715, 1338.444
543.3536, 1341.819
543.8358, 1343.876
544.3179, 1337.965
544.8000, 1326.624
545.2821, 1322.321
545.7642, 1329.891
546.2463, 1331.154
546.7285, 1313.292
547.2106, 1293.552
547.6927, 1286.945
548.1748, 1292.772
548.6569, 1296.418
549.1390, 1285.992
549.6211, 1274.147
550.1032, 1276.486
550.5853, 1290.401
551.0674, 1304.913
551.5496, 1316.580
552.0317, 1322.308
552.5138, 1315.590
552.9959, 1288.847
553.4780, 1275.516
553.9601, 1281.892
554.4423, 1292.821
554.9244, 1308.623
555.4065, 1322.988
555.8886, 1325.125
556.3707, 1310.766
556.8528, 1292.737
557.3350, 1286.802
557.8171, 1291.586
558.2992, 1296.012
558.7813, 1299.075
559.2634, 1301.807
559.7455, 1304.992
560.2277, 1308.337
560.7098, 1311.271
561.1919, 1316.522
561.6740, 1316.606
562.1561, 1304.223
562.6382, 1288.536
563.1204, 1279.443
563.6025, 1277.455
564.0846, 1276.949
564.5667, 1273.566
565.0488, 1268.877
565.5309, 1270.469
566.0131, 1284.391
566.4952, 1289.282
566.9773, 1272.301
567.4594, 1252.382
567.9415, 1241.016
568.4236, 1237.411
568.9058, 1235.064
569.3879, 1233.460
569.8700, 1229.902
570.3521, 1219.943
570.8342, 1205.498
571.3163, 1192.606
571.7985, 1182.990
572.2806, 1176.699
572.7627, 1174.369
573.2448, 1176.614
573.7269, 1176.907
574.2090, 1177.379
574.6912, 1173.467
575.1733, 1160.859
575.6554, 1144.933
576.1375, 1130.253
576.6196, 1118.308
577.1017, 1110.829
577.5839, 1113.650
578.0660, 1122.139
578.5481, 1118.663
579.0302, 1101.466
579.5123, 1085.834
579.9944, 1078.938
580.4766, 1077.496
580.9587, 1076.082
581.4408, 1075.453
581.9229, 1072.023
582.4050, 1059.914
582.8871, 1049.755
583.3693, 1053.106
583.8514, 1063.505
584.3335, 1064.858
584.8156, 1049.696
585.2977, 1029.120
585.7798, 1021.758
586.2620, 1029.045
586.7441, 1032.660
587.2262, 1029.307
587.7083, 1026.263
588.1904, 1029.577
588.6725, 1035.422
589.1547, 1037.231
589.6368, 1032.801
590.1189, 1027.873
590.6010, 1023.356
591.0831, 1020.891
591.5652, 1024.287
592.0474, 1032.627
592.5295, 1039.690
593.0116, 1041.230
593.4937, 1038.869
593.9758, 1038.092
594.4579, 1041.715
594.9401, 1040.220
595.4222, 1025.801
595.9043, 1012.495
596.3864, 1007.410
596.8685, 1009.089
597.3506, 1010.982
597.8328, 1002.911
598.3149, 1009.590
598.7970, 1083.469
599.2791, 1187.099
599.7612, 1211.556
600.2433, 1135.692
600.7255, 1042.714
601.2076, 1001.205
601.6897, 1005.543
602.1718, 1009.893
602.6539, 1014.906
603.1360, 1018.996
603.6182, 1022.881
604.1003, 1025.162
604.5824, 1023.905
605.0645, 1019.852
605.5466, 1016.122
606.0287, 1014.717
606.5109, 1014.283
606.9930, 1012.754
607.4751, 1010.258
607.9572, 1007.632
608.4393, 1004.835
608.9214, 1002.896
609.4036, 1003.033
609.8857, 1005.259
610.3678, 1007.227
610.8499, 1011.160
611.3320, 1012.071
611.8141, 1003.206
612.2963, 994.2766
612.7784, 998.1426
613.2605, 1013.834
613.7426, 1026.661
614.2247, 1023.691
614.7068, 1011.526
615.1890, 1005.969
615.6711, 1007.182
616.1532, 1012.273
616.6353, 1022.748
617.1174, 1032.585
617.5995, 1033.772
618.0817, 1026.092
618.5638, 1021.642
619.0459, 1024.123
619.5280, 1026.157
620.0101, 1025.989
620.4922, 1023.229
620.9744, 1015.235
621.4565, 1002.924
621.9386, 993.6564
622.4207, 994.4134
622.9028, 1003.347
623.3849, 1015.173
623.8671, 1031.540
624.3492, 1040.700
624.8313, 1036.361
625.3134, 1026.428
625.7955, 1019.209
626.2776, 1014.533
626.7598, 1012.212
627.2419, 1013.052
627.7240, 1015.367
628.2061, 1020.259
628.6882, 1025.305
629.1703, 1026.557
629.6525, 1023.418
630.1346, 1019.102
630.6167, 1016.978
631.0988, 1016.341
631.5809, 1013.323
632.0630, 1007.850
632.5452, 999.6866
633.0273, 983.9629
633.5094, 970.1709
633.9915, 971.9816
634.4736, 988.3311
634.9557, 997.7581
635.4379, 990.1097
635.9200, 980.6736
636.4021, 975.8383
636.8842, 975.6428
637.3663, 981.4232
637.8484, 992.5969
638.3306, 1003.818
638.8127, 1010.353
639.2948, 1012.179
639.7769, 1007.601
640.2590, 993.7690
640.7411, 983.8376
641.2233, 984.4694
641.7054, 987.7929
642.1875, 985.5939
642.6696, 978.2811
643.1517, 970.6791
643.6339, 962.8033
644.1160, 955.9227
644.5981, 949.5796
645.0802, 945.1310
645.5623, 944.6013
646.0444, 948.4078
646.5266, 956.1113
647.0087, 968.4401
647.4908, 983.6093
647.9729, 992.8115
648.4550, 994.8446
648.9371, 995.3651
649.4193, 995.0765
649.9014, 994.5190
650.3835, 995.3764
650.8656, 997.0364
651.3477, 994.6948
651.8298, 979.5106
652.3120, 969.2765
652.7941, 976.1512
653.2762, 991.0610
653.7583, 1003.441
654.2404, 1010.731
654.7225, 1013.717
655.2047, 1012.791
655.6868, 1008.379
656.1689, 1000.432
656.6510, 987.5071
657.1331, 980.3416
657.6152, 983.4139
658.0974, 989.6232
658.5795, 990.7562
659.0616, 989.0248
659.5437, 995.0008
660.0258, 1021.015
660.5079, 1040.729
660.9901, 1040.881
661.4722, 1033.075
661.9543, 1028.187
662.4364, 1027.806
662.9185, 1029.473
663.4006, 1031.647
663.8828, 1034.648
664.3649, 1039.927
664.8470, 1047.621
665.3291, 1052.485
665.8112, 1052.172
666.2933, 1052.759
666.7755, 1060.212
667.2576, 1072.341
667.7397, 1079.474
668.2218, 1077.212
668.7039, 1077.117
669.1860, 1082.516
669.6682, 1089.973
670.1503, 1098.934
670.6324, 1107.527
671.1145, 1110.928
671.5966, 1106.098
672.0787, 1100.224
672.5609, 1104.343
673.0430, 1117.093
673.5251, 1130.842
674.0072, 1146.681
674.4893, 1151.970
674.9714, 1135.163
675.4536, 1105.844
675.9357, 1089.246
676.4178, 1091.491
676.8999, 1093.119
677.3820, 1093.348
677.8641, 1093.170
678.3463, 1092.025
678.8284, 1091.180
679.3105, 1093.902
679.7926, 1101.208
680.2747, 1106.211
680.7568, 1100.180
681.2390, 1087.573
681.7211, 1077.923
682.2032, 1071.769
682.6853, 1070.836
683.1674, 1076.932
683.6495, 1085.238
684.1317, 1088.431
684.6138, 1085.971
685.0959, 1081.161
685.5780, 1066.381
686.0601, 1058.414
686.5422, 1068.263
687.0244, 1082.669
687.5065, 1086.002
687.9886, 1077.341
688.4707, 1071.187
688.9528, 1079.071
689.4349, 1091.122
689.9171, 1096.788
690.3992, 1097.239
690.8813, 1095.098
691.3634, 1091.219
691.8455, 1088.475
692.3276, 1089.589
692.8098, 1094.489
693.2919, 1103.542
693.7740, 1121.565
694.2561, 1132.985
694.7382, 1129.314
695.2203, 1123.164
695.7025, 1122.479
696.1846, 1126.588
696.6667, 1132.244
697.1488, 1139.297
697.6309, 1146.751
698.1130, 1154.756
698.5952, 1162.445
699.0773, 1168.616
699.5594, 1173.309
700.0415, 1176.658
700.5236, 1178.297
701.0057, 1181.239
701.4879, 1193.044
701.9700, 1214.283
702.4521, 1232.955
702.9342, 1248.298
703.4163, 1260.184
703.8984, 1267.263
704.3806, 1271.270
704.8627, 1276.712
705.3448, 1284.786
705.8269, 1290.792
706.3090, 1291.901
706.7911, 1292.984
707.2733, 1294.372
707.7554, 1298.628
708.2375, 1311.533
708.7196, 1334.313
709.2017, 1356.661
709.6838, 1366.864
710.1660, 1369.715
710.6481, 1377.388
711.1302, 1389.823
711.6123, 1402.798
712.0944, 1414.669
712.5765, 1427.180
713.0587, 1442.513
713.5408, 1460.752
714.0229, 1480.038
714.5050, 1497.553
714.9871, 1520.036
715.4692, 1552.963
715.9514, 1587.690
716.4335, 1615.913
716.9156, 1638.861
717.3977, 1664.946
717.8798, 1698.784
718.3619, 1735.157
718.8441, 1761.590
719.3262, 1790.990
719.8083, 1857.407
720.2904, 1956.835
720.7725, 2039.509
721.2546, 2070.821
721.7368, 2067.245
722.2189, 2065.855
722.7010, 2066.439
723.1831, 2071.400
723.6652, 2084.033
724.1473, 2094.731
724.6295, 2093.247
725.1116, 2088.167
725.5937, 2098.726
726.0758, 2131.880
726.5579, 2156.246
727.0400, 2165.019
727.5222, 2164.718
728.0043, 2157.507
728.4864, 2144.556
728.9685, 2126.651
729.4506, 2104.264
729.9327, 2078.653
730.4149, 2048.015
730.8970, 2016.288
731.3791, 1996.264
731.8612, 1985.919
732.3433, 1964.056
732.8254, 1922.956
733.3076, 1878.322
733.7897, 1846.537
734.2718, 1826.497
734.7539, 1802.068
735.2360, 1770.798
735.7181, 1738.945
736.2003, 1702.802
736.6824, 1670.207
737.1645, 1646.123
737.6466, 1629.366
738.1287, 1616.769
738.6108, 1608.950
739.0930, 1601.361
739.5751, 1593.330
740.0572, 1582.894
740.5393, 1563.330
741.0214, 1539.013
741.5035, 1526.094
741.9857, 1532.357
742.4678, 1542.394
742.9499, 1529.880
743.4320, 1497.434
743.9141, 1483.929
744.3962, 1493.393
744.8784, 1501.969
745.3605, 1500.159
745.8426, 1493.587
746.3247, 1489.495
746.8068, 1488.109
747.2889, 1487.189
747.7711, 1486.987
748.2532, 1486.887
748.7353, 1484.526
749.2174, 1483.851
749.6995, 1490.497
750.1816, 1502.623
750.6638, 1511.809
751.1459, 1514.083
751.6280, 1511.984
752.1101, 1504.137
752.5922, 1494.883
753.0743, 1493.504
753.5565, 1500.144
754.0386, 1508.567
754.5207, 1515.455
755.0028, 1519.501
755.4849, 1514.984
755.9670, 1499.438
756.4492, 1500.995
756.9313, 1527.997
757.4134, 1552.187
757.8955, 1559.231
758.3776, 1558.481
758.8597, 1564.379
759.3419, 1577.467
759.8240, 1589.686
760.3061, 1599.189
760.7882, 1609.192
761.2703, 1623.451
761.7524, 1637.143
762.2346, 1644.765
762.7167, 1646.345
763.1988, 1645.707
763.6809, 1643.042
764.1630, 1642.624
764.6451, 1652.256
765.1273, 1667.487
765.6094, 1676.396
766.0915, 1677.907
766.5736, 1679.449
767.0557, 1685.461
767.5378, 1694.923
768.0200, 1706.282
768.5021, 1720.174
768.9842, 1732.198
769.4663, 1743.407
769.9484, 1749.993
770.4305, 1745.698
770.9127, 1738.968
771.3948, 1744.225
771.8769, 1762.906
772.3590, 1773.703
772.8411, 1765.775
773.3232, 1759.596
773.8054, 1766.082
774.2875, 1776.273
774.7696, 1778.759
775.2517, 1774.472
775.7338, 1774.023
776.2159, 1783.514
776.6981, 1798.599
777.1802, 1817.411
777.6623, 1837.375
778.1444, 1852.308
778.6265, 1861.738
779.1086, 1869.311
779.5908, 1877.145
780.0729, 1883.306
780.5550, 1882.642
781.0371, 1873.798
781.5192, 1872.597
782.0013, 1882.258
782.4835, 1890.611
782.9656, 1889.372
783.4477, 1888.105
783.9298, 1902.755
784.4119, 1933.923
784.8940, 1952.612
785.3762, 1944.038
785.8583, 1940.360
786.3404, 1956.227
786.8225, 1975.732
787.3046, 1985.743
787.7867, 1986.655
788.2689, 1984.868
788.7510, 1982.618
789.2331, 1979.914
789.7152, 1974.530
790.1973, 1969.822
790.6794, 1972.177
791.1616, 1980.631
791.6437, 1989.562
792.1258, 1996.614
792.6079, 2002.096
793.0900, 2005.262
793.5721, 2006.861
794.0543, 2016.138
794.5364, 2035.203
795.0185, 2048.792
795.5006, 2052.083
795.9827, 2049.097
796.4648, 2040.581
796.9470, 2028.059
797.4291, 2028.195
797.9112, 2056.364
798.3933, 2075.164
798.8754, 2073.211
799.3575, 2071.170
799.8397, 2084.634
800.3218, 2105.473
800.8039, 2117.242
801.2860, 2115.362
801.7681, 2110.144
802.2502, 2107.215
802.7324, 2102.768
803.2145, 2087.201
803.6966, 2069.401
804.1787, 2067.555
804.6608, 2085.039
805.1429, 2109.667
805.6251, 2134.447
806.1072, 2155.146
806.5893, 2158.518
807.0714, 2147.468
807.5535, 2144.115
808.0356, 2152.417
808.5178, 2165.934
808.9999, 2181.729
809.4820, 2197.114
809.9641, 2203.251
810.4462, 2193.532
810.9283, 2199.839
811.4105, 2233.752
811.8926, 2264.895
812.3747, 2279.771
812.8568, 2287.102
813.3389, 2295.216
813.8210, 2304.261
814.3032, 2316.758
814.7853, 2337.581
815.2674, 2356.123
815.7495, 2367.122
816.2316, 2375.540
816.7137, 2387.980
817.1959, 2402.043
817.6780, 2408.878
818.1601, 2403.701
818.6422, 2395.704
819.1243, 2392.734
819.6064, 2391.908
820.0886, 2388.624
820.5707, 2383.293
821.0528, 2378.264
821.5349, 2374.390
822.0170, 2372.026
822.4991, 2372.252
822.9813, 2373.899
823.4634, 2370.693
823.9455, 2362.170
824.4276, 2358.546
824.9097, 2362.880
825.3918, 2368.242
825.8740, 2368.162
826.3561, 2366.058
826.8382, 2373.963
827.3203, 2398.111
827.8024, 2417.859
828.2845, 2430.084
828.7667, 2441.683
829.2488, 2454.961
829.7309, 2469.074
830.2130, 2483.607
830.6951, 2498.500
831.1772, 2510.895
831.6594, 2512.486
832.1415, 2520.781
832.6236, 2546.668
833.1057, 2580.543
833.5878, 2612.883
834.0699, 2644.041
834.5521, 2679.594
835.0342, 2722.637
835.5163, 2767.245
835.9984, 2810.037
836.4805, 2849.911
836.9626, 2883.827
837.4448, 2913.147
837.9269, 2943.434
838.4090, 2976.383
838.8911, 3008.840
839.3732, 3039.004
839.8553, 3064.420
840.3375, 3073.295
840.8196, 3065.220
841.3017, 3063.439
841.7838, 3074.041
842.2659, 3082.017
842.7480, 3078.862
843.2302, 3063.853
843.7123, 3032.928
844.1944, 2976.672
844.6765, 2936.338
845.1586, 2922.809
845.6407, 2909.020
846.1229, 2885.585
846.6050, 2857.860
847.0871, 2828.218
847.5692, 2797.564
848.0513, 2775.156
848.5334, 2766.470
849.0156, 2760.302
849.4977, 2752.986
849.9798, 2747.630
850.4619, 2750.027
850.9440, 2755.513
851.4261, 2753.828
851.9083, 2741.557
852.3904, 2726.358
852.8725, 2701.004
853.3546, 2685.428
853.8367, 2713.897
854.3188, 2764.443
854.8010, 2788.995
855.2831, 2780.988
855.7652, 2771.174
856.2473, 2782.352
856.7294, 2803.544
857.2115, 2817.538
857.6937, 2824.734
858.1758, 2823.530
858.6579, 2814.445
859.1400, 2814.162
859.6221, 2831.217
860.1042, 2854.900
860.5864, 2869.358
861.0685, 2875.104
861.5506, 2890.170
862.0327, 2918.595
862.5148, 2939.936
862.9969, 2946.715
863.4791, 2951.667
863.9612, 2965.614
864.4433, 2985.475
864.9254, 2999.248
865.4075, 2997.520
865.8896, 3009.592
866.3718, 3054.170
866.8539, 3089.741
867.3360, 3088.176
867.8181, 3078.817
868.3002, 3098.819
868.7823, 3148.060
869.2645, 3188.930
869.7466, 3212.283
870.2287, 3224.864
870.7108, 3220.524
871.1929, 3213.571
871.6750, 3213.215
872.1572, 3221.579
872.6393, 3243.763
873.1214, 3282.314
873.6035, 3314.639
874.0856, 3318.105
874.5677, 3312.218
875.0499, 3316.969
875.5320, 3330.173
876.0141, 3347.908
876.4962, 3368.032
876.9783, 3385.566
877.4604, 3396.778
877.9426, 3405.099
878.4247, 3416.963
878.9068, 3430.575
879.3889, 3436.306
879.8710, 3434.800
880.3531, 3440.307
880.8353, 3458.379
881.3174, 3488.440
881.7995, 3533.202
882.2816, 3588.060
882.7637, 3622.281
883.2458, 3633.249
883.7280, 3642.007
884.2101, 3651.775
884.6922, 3660.014
885.1743, 3665.013
885.6564, 3667.246
886.1385, 3666.516
886.6207, 3659.436
887.1028, 3665.106
887.5849, 3690.940
888.0670, 3717.610
888.5491, 3741.819
889.0313, 3763.326
889.5134, 3782.467
889.9955, 3798.935
890.4776, 3811.409
890.9597, 3817.513
891.4418, 3823.649
891.9240, 3830.197
892.4061, 3837.545
892.8882, 3843.621
893.3703, 3851.897
893.8524, 3868.290
894.3345, 3892.920
894.8167, 3916.977
895.2988, 3949.232
895.7809, 3964.956
896.2630, 3931.266
896.7451, 3889.490
897.2272, 3887.760
897.7094, 3915.429
898.1915, 3934.749
898.6736, 3932.212
899.1557, 3923.720
899.6378, 3918.142
900.1199, 3916.620
900.6021, 3921.212
901.0842, 3930.763
901.5663, 3945.123
902.0484, 3962.557
902.5305, 3976.760
903.0126, 3984.150
903.4948, 3983.938
903.9769, 3969.752
904.4590, 3947.717
904.9411, 3937.064
905.4232, 3938.008
905.9053, 3945.435
906.3875, 3957.611
906.8696, 3973.817
907.3517, 3994.135
907.8338, 4016.679
908.3159, 4036.086
908.7980, 4052.347
909.2802, 4063.910
909.7623, 4070.454
910.2444, 4072.195
910.7265, 4067.561
911.2086, 4063.463
911.6907, 4071.209
912.1729, 4090.552
912.6550, 4100.926
913.1371, 4099.180
913.6192, 4097.985
914.1013, 4096.991
914.5834, 4102.692
915.0656, 4128.044
915.5477, 4157.446
916.0298, 4150.718
916.5119, 4089.349
916.9940, 4061.801
917.4761, 4098.113
917.9583, 4125.744
918.4404, 4120.420
918.9225, 4106.776
919.4046, 4102.619
919.8867, 4106.318
920.3688, 4110.629
920.8510, 4114.047
921.3331, 4120.237
921.8152, 4126.057
922.2973, 4138.996
922.7794, 4173.433
923.2615, 4209.874
923.7437, 4218.432
924.2258, 4202.831
924.7079, 4204.754
925.1900, 4246.205
925.6721, 4291.460
926.1542, 4332.416
926.6364, 4365.369
927.1185, 4383.545
927.6006, 4392.860
928.0827, 4402.381
928.5648, 4414.387
929.0469, 4428.427
929.5291, 4440.172
930.0112, 4458.540
930.4933, 4490.696
930.9754, 4533.111
931.4575, 4589.708
931.9396, 4651.749
932.4218, 4697.677
932.9039, 4720.100
933.3860, 4731.366
933.8681, 4728.697
934.3502, 4731.587
934.8323, 4772.407
935.3145, 4835.649
935.7966, 4891.098
936.2787, 4934.101
936.7608, 4971.879
937.2429, 5008.091
937.7250, 5040.185
938.2072, 5056.757
938.6893, 5070.406
939.1714, 5122.509
939.6535, 5199.271
940.1356, 5237.083
940.6177, 5226.161
941.0999, 5221.068
941.5820, 5261.374
942.0641, 5323.718
942.5462, 5365.847
943.0283, 5392.319
943.5104, 5426.419
943.9926, 5468.703
944.4747, 5516.146
944.9568, 5567.967
945.4389, 5619.108
945.9210, 5665.828
946.4031, 5706.060
946.8853, 5730.305
947.3674, 5738.743
947.8495, 5761.475
948.3316, 5802.115
948.8137, 5834.253
949.2958, 5844.644
949.7780, 5858.899
950.2601, 5908.583
950.7422, 5984.693
951.2243, 6035.797
951.7064, 6055.479
952.1885, 6095.033
952.6707, 6167.112
953.1528, 6226.150
953.6349, 6244.313
954.1170, 6253.014
954.5991, 6296.034
955.0812, 6371.576
955.5634, 6447.226
956.0455, 6530.340
956.5276, 6586.939
957.0097, 6596.403
957.4918, 6614.651
957.9739, 6675.962
958.4561, 6759.445
958.9382, 6831.597
959.4203, 6891.779
959.9024, 6953.080
960.3845, 7014.274
960.8666, 7079.309
961.3488, 7152.454
961.8309, 7224.257
962.3130, 7284.394
962.7951, 7341.321
963.2772, 7415.214
963.7593, 7512.686
964.2415, 7591.463
964.7236, 7625.194
965.2057, 7678.606
965.6878, 7785.286
966.1699, 7893.074
966.6520, 7960.855
967.1342, 8007.513
967.6163, 8075.709
968.0984, 8170.007
968.5805, 8271.344
969.0626, 8395.716
969.5447, 8504.966
970.0269, 8580.313
970.5090, 8645.556
970.9911, 8714.979
971.4732, 8789.424
971.9553, 8867.650
972.4374, 8947.813
972.9196, 9038.287
973.4017, 9161.250
973.8838, 9268.980
974.3659, 9342.693
974.8480, 9395.523
975.3301, 9432.104
975.8123, 9458.203
976.2944, 9485.720
976.7765, 9513.564
977.2586, 9552.738
977.7407, 9624.990
978.2228, 9685.405
978.7050, 9712.353
979.1871, 9719.331
979.6692, 9713.641
980.1513, 9700.631
980.6334, 9693.223
981.1155, 9696.030
981.5977, 9698.755
982.0798, 9705.167
982.5619, 9702.771
983.0440, 9680.104
983.5261, 9648.911
984.0082, 9623.653
984.4904, 9602.327
984.9725, 9573.240
985.4546, 9535.371
985.9367, 9483.233
986.4188, 9397.082
986.9009, 9315.791
987.3831, 9271.685
987.8652, 9238.362
988.3473, 9182.287
988.8294, 9106.230
989.3115, 9038.159
989.7936, 8989.957
990.2758, 8940.210
990.7579, 8863.294
991.2400, 8800.789
991.7221, 8793.057
992.2042, 8806.250
992.6863, 8812.479
993.1685, 8799.212
993.6506, 8736.961
994.1327, 8596.255
994.6148, 8464.607
995.0969, 8380.258
995.5790, 8318.760
996.0612, 8278.079
996.5433, 8241.451
997.0254, 8179.162
997.5075, 8099.618
997.9896, 8053.384
998.4717, 8071.878
998.9539, 8082.168
999.4360, 8046.238
999.9181, 7994.932
1000.400, 7938.074
1000.882, 7886.479
1001.364, 7860.758
1001.847, 7853.261
1002.329, 7823.604
1002.811, 7744.385
1003.293, 7684.180
1003.775, 7699.603
1004.257, 7718.303
1004.739, 7684.651
1005.221, 7628.819
1005.703, 7589.015
1006.186, 7567.477
1006.668, 7549.092
1007.150, 7530.179
1007.632, 7510.098
1008.114, 7479.927
1008.596, 7458.053
1009.078, 7463.755
1009.560, 7479.709
1010.043, 7490.400
1010.525, 7490.962
1011.007, 7473.530
1011.489, 7430.479
1011.971, 7388.475
1012.453, 7347.155
1012.935, 7323.512
1013.417, 7348.602
1013.899, 7382.015
1014.382, 7369.637
1014.864, 7323.485
1015.346, 7302.198
1015.828, 7329.998
1016.310, 7347.570
1016.792, 7317.320
1017.274, 7288.495
1017.756, 7293.954
1018.239, 7309.508
1018.721, 7305.741
1019.203, 7289.467
1019.685, 7287.528
1020.167, 7307.028
1020.649, 7336.185
1021.131, 7376.268
1021.613, 7419.016
1022.095, 7480.990
1022.578, 7526.842
1023.060, 7508.671
1023.542, 7450.685
1024.024, 7418.511
1024.506, 7427.961
1024.988, 7438.185
1025.470, 7430.279
1025.952, 7432.351
1026.435, 7461.931
1026.917, 7499.031
1027.399, 7531.776
1027.881, 7558.130
1028.363, 7574.423
1028.845, 7578.315
1029.327, 7588.222
1029.809, 7613.644
1030.292, 7636.884
1030.774, 7645.670
1031.256, 7658.437
1031.738, 7690.223
1032.220, 7733.687
1032.702, 7776.419
1033.184, 7817.700
1033.666, 7855.445
1034.148, 7872.163
1034.630, 7910.370
1035.113, 7999.897
1035.595, 8087.725
1036.077, 8138.657
1036.559, 8172.817
1037.041, 8222.693
1037.523, 8289.753
1038.005, 8340.612
1038.487, 8359.146
1038.970, 8386.969
1039.452, 8425.011
1039.934, 8475.197
1040.416, 8547.938
1040.898, 8624.726
1041.380, 8681.639
1041.862, 8720.631
1042.344, 8765.396
1042.826, 8825.714
1043.309, 8868.714
1043.791, 8883.321
1044.273, 8898.923
1044.755, 8925.359
1045.237, 8959.510
1045.719, 9003.633
1046.201, 9051.670
1046.683, 9073.701
1047.166, 9058.745
1047.648, 9055.479
1048.130, 9065.505
1048.612, 9086.145
1049.094, 9124.573
1049.576, 9151.474
1050.058, 9136.354
1050.540, 9098.875
1051.022, 9096.894
1051.505, 9137.051
1051.987, 9141.226
1052.469, 9100.979
1052.951, 9080.504
1053.433, 9098.697
1053.915, 9117.185
1054.397, 9109.892
1054.879, 9088.178
1055.361, 9068.840
1055.844, 9053.567
1056.326, 9069.241
1056.808, 9115.749
1057.290, 9138.793
1057.772, 9128.927
1058.254, 9113.518
1058.736, 9106.433
1059.218, 9106.198
1059.701, 9112.521
1060.183, 9122.854
1060.665, 9122.629
1061.147, 9117.324
1061.629, 9143.483
1062.111, 9200.489
1062.593, 9249.461
1063.075, 9275.344
1063.557, 9290.323
1064.040, 9302.454
1064.522, 9317.833
1065.004, 9347.901
1065.486, 9389.719
1065.968, 9437.182
1066.450, 9489.455
1066.932, 9551.903
1067.414, 9622.287
1067.896, 9675.118
1068.379, 9688.884
1068.861, 9693.180
1069.343, 9711.073
1069.825, 9747.964
1070.307, 9830.527
1070.789, 9930.394
1071.271, 9984.929
1071.753, 9995.994
1072.236, 10020.38
1072.718, 10084.99
1073.200, 10158.09
1073.682, 10217.44
1074.164, 10275.20
1074.646, 10342.39
1075.128, 10413.76
1075.610, 10487.38
1076.093, 10558.21
1076.575, 10610.77
1077.057, 10640.01
1077.539, 10687.84
1078.021, 10786.87
1078.503, 10889.18
1078.985, 10974.49
1079.467, 11053.26
1079.949, 11132.99
1080.432, 11212.81
1080.914, 11291.07
1081.396, 11367.18
1081.878, 11440.01
1082.360, 11506.58
1082.842, 11574.74
1083.324, 11641.70
1083.806, 11714.95
1084.288, 11795.87
1084.771, 11886.02
1085.253, 11989.53
1085.735, 12103.15
1086.217, 12211.74
1086.699, 12308.03
1087.181, 12418.89
1087.663, 12557.38
1088.145, 12683.29
1088.628, 12784.76
1089.110, 12871.67
1089.592, 12942.31
1090.074, 13014.78
1090.556, 13131.72
1091.038, 13294.72
1091.520, 13452.17
1092.002, 13604.85
1092.484, 13734.84
1092.967, 13833.06
1093.449, 13954.62
1093.931, 14132.78
1094.413, 14324.50
1094.895, 14472.10
1095.377, 14592.98
1095.859, 14752.19
1096.341, 14944.47
1096.823, 15123.24
1097.306, 15287.56
1097.788, 15470.04
1098.270, 15680.76
1098.752, 15912.32
1099.234, 16161.97
1099.716, 16411.59
1100.198, 16609.16
1100.680, 16799.50
1101.163, 17095.21
1101.645, 17456.80
1102.127, 17771.71
1102.609, 18031.35
1103.091, 18303.50
1103.573, 18616.25
1104.055, 18969.53
1104.537, 19370.03
1105.020, 19800.73
1105.502, 20260.14
1105.984, 20729.74
1106.466, 21176.75
1106.948, 21620.42
1107.430, 22101.86
1107.912, 22631.10
1108.394, 23179.85
1108.876, 23742.33
1109.359, 24315.13
1109.841, 24895.06
1110.323, 25483.39
1110.805, 26085.89
1111.287, 26690.90
1111.769, 27272.12
1112.251, 27837.75
1112.733, 28436.15
1113.215, 29069.68
1113.698, 29733.31
1114.180, 30472.73
1114.662, 31161.47
1115.144, 31747.29
1115.626, 32316.68
1116.108, 32917.60
1116.590, 33552.57
1117.072, 34241.78
1117.555, 34986.91
1118.037, 35644.04
1118.519, 36191.63
1119.001, 36772.13
1119.483, 37403.69
1119.965, 38067.18
1120.447, 38762.51
1120.929, 39431.02
1121.411, 40000.84
1121.894, 40516.09
1122.376, 41094.54
1122.858, 41714.47
1123.340, 42283.25
1123.822, 42792.98
1124.304, 43231.69
1124.786, 43603.45
1125.268, 43982.44
1125.750, 44413.68
1126.233, 44801.41
1126.715, 45012.82
1127.197, 45131.53
1127.679, 45261.76
1128.161, 45386.71
1128.643, 45499.19
1129.125, 45576.03
1129.607, 45555.22
1130.090, 45429.84
1130.572, 45297.65
1131.054, 45186.37
1131.536, 45117.17
1132.018, 45153.83
1132.500, 45177.20
1132.982, 45064.96
1133.464, 44922.30
1133.947, 44888.14
1134.429, 44943.54
1134.911, 44963.96
1135.393, 44903.69
1135.875, 44914.48
1136.357, 45009.59
1136.839, 45179.26
1137.321, 45462.68
1137.803, 45757.29
1138.286, 45975.80
1138.768, 46210.07
1139.250, 46605.27
1139.732, 47144.20
1140.214, 47670.24
1140.696, 48174.62
1141.178, 48766.87
1141.660, 49463.30
1142.142, 50157.96
1142.625, 50814.34
1143.107, 51463.25
1143.589, 52128.43
1144.071, 52801.82
1144.553, 53498.83
1145.035, 54184.88
1145.517, 54768.91
1145.999, 55243.48
1146.482, 55580.16
1146.964, 55789.70
1147.446, 55932.36
1147.928, 56028.04
1148.410, 56033.67
1148.892, 55942.83
1149.374, 55705.39
1149.856, 55250.14
1150.339, 54654.31
1150.821, 53990.37
1151.303, 53243.02
1151.785, 52345.42
1152.267, 51324.59
1152.749, 50290.80
1153.231, 49277.62
1153.713, 48238.70
1154.195, 47121.83
1154.677, 46021.44
1155.160, 44969.44
1155.642, 43936.80
1156.124, 42897.73
1156.606, 41869.77
1157.088, 40877.09
1157.570, 39922.98
1158.052, 39052.01
1158.534, 38281.24
1159.017, 37516.63
1159.499, 36752.75
1159.981, 36025.33
1160.463, 35342.94
1160.945, 34714.45
1161.427, 34141.70
1161.909, 33614.13
1162.391, 33102.83
1162.874, 32618.74
1163.356, 32201.36
1163.838, 31838.10
1164.320, 31499.55
1164.802, 31184.38
1165.284, 30906.79
1165.766, 30669.22
1166.248, 30458.57
1166.730, 30261.52
1167.213, 30099.47
1167.695, 30030.40
1168.177, 29962.23
1168.659, 29787.94
1169.141, 29584.14
1169.623, 29456.83
1170.105, 29387.76
1170.587, 29300.94
1171.069, 29185.54
1171.552, 29028.74
1172.034, 28787.71
1172.516, 28567.00
1172.998, 28392.52
1173.480, 28227.10
1173.962, 28072.72
1174.444, 27894.85
1174.926, 27643.48
1175.409, 27350.32
1175.891, 27137.25
1176.373, 27012.97
1176.855, 26838.12
1177.337, 26610.51
1177.819, 26400.49
1178.301, 26221.19
1178.783, 26073.71
1179.266, 25958.25
1179.748, 25859.15
1180.230, 25763.52
1180.712, 25670.20
1181.194, 25580.09
1181.676, 25489.92
1182.158, 25370.54
1182.640, 25258.16
1183.122, 25242.37
1183.604, 25312.88
1184.087, 25373.37
1184.569, 25389.50
1185.051, 25387.55
1185.533, 25349.32
1186.015, 25336.79
1186.497, 25400.49
1186.979, 25472.94
1187.461, 25502.54
1187.944, 25515.34
1188.426, 25550.85
1188.908, 25605.87
1189.390, 25658.05
1189.872, 25707.81
1190.354, 25751.56
1190.836, 25784.16
1191.318, 25832.00
1191.801, 25898.91
1192.283, 25999.69
1192.765, 26147.01
1193.247, 26296.81
1193.729, 26396.66
1194.211, 26455.04
1194.693, 26478.29
1195.175, 26483.18
1195.657, 26507.06
1196.140, 26554.99
1196.622, 26648.73
1197.104, 26774.73
1197.586, 26854.71
1198.068, 26848.65
1198.550, 26852.01
1199.032, 26930.15
1199.514, 27027.61
1199.996, 27125.00
1200.479, 27216.96
1200.961, 27288.89
1201.443, 27359.79
1201.925, 27461.08
1202.407, 27589.50
1202.889, 27707.79
1203.371, 27799.05
1203.853, 27936.42
1204.336, 28136.76
1204.818, 28328.53
1205.300, 28497.53
1205.782, 28658.32
1206.264, 28816.57
1206.746, 28978.53
1207.228, 29150.97
1207.710, 29335.78
1208.193, 29532.71
1208.675, 29747.21
1209.157, 30000.31
1209.639, 30282.09
1210.121, 30560.91
1210.603, 30830.67
1211.085, 31089.03
1211.567, 31335.88
1212.049, 31590.08
1212.531, 31850.82
1213.014, 32141.32
1213.496, 32482.64
1213.978, 32848.54
1214.460, 33219.22
1214.942, 33603.89
1215.424, 34026.62
1215.906, 34471.21
1216.388, 34873.71
1216.871, 35216.27
1217.353, 35629.80
1217.835, 36129.22
1218.317, 36643.22
1218.799, 37165.48
1219.281, 37683.71
1219.763, 38195.47
1220.245, 38696.69
1220.728, 39184.16
1221.210, 39669.00
1221.692, 40173.35
1222.174, 40684.61
1222.656, 41149.88
1223.138, 41615.14
1223.620, 42204.02
1224.102, 42872.09
1224.584, 43448.45
1225.067, 43897.09
1225.549, 44376.98
1226.031, 44992.75
1226.513, 45567.34
1226.995, 46002.18
1227.477, 46433.67
1227.959, 46930.20
1228.441, 47443.94
1228.923, 47961.29
1229.406, 48456.43
1229.888, 48878.11
1230.370, 49236.89
1230.852, 49626.64
1231.334, 50051.15
1231.816, 50394.09
1232.298, 50653.02
1232.780, 50951.61
1233.263, 51317.88
##END=



