##NAMES=Fluorapatite
##RRUFFID=R050194
##IDEAL CHEMISTRY=Ca_5_(PO_4_)_3_F
##LOCALITY=Siglo XX mine, Llallagua, Bolivia
##OWNER=RRUFF
##SOURCE=Dave Bunk Minerals
##DESCRIPTION=Purple crystal fragments
##STATUS=The identification of this mineral has been confirmed by X-ray diffraction and chemical analysis
##URL=rruff.info/R050194
##MEASURED CHEMISTRY=Ca_5.00_(P_1.00_O_4_)_3_F_1.00_
92.81116, 0.0000000E+00
93.29327, 0.0000000E+00
93.77539, 736.7036
94.25751, 707.3324
94.73962, 723.2412
95.22174, 776.3052
95.70386, 837.3239
96.18597, 898.7253
96.66809, 959.7145
97.15021, 1013.529
97.63232, 1056.927
98.11444, 1107.832
98.59656, 1190.169
99.07867, 1304.500
99.56079, 1436.645
100.0429, 1584.927
100.5250, 1748.953
101.0071, 1905.401
101.4893, 2045.099
101.9714, 2184.369
102.4535, 2359.426
102.9356, 2579.904
103.4177, 2812.757
103.8998, 3037.079
104.3820, 3252.097
104.8641, 3468.342
105.3462, 3686.711
105.8283, 3907.463
106.3104, 4145.882
106.7925, 4408.281
107.2747, 4679.273
107.7568, 4944.934
108.2389, 5210.800
108.7210, 5467.438
109.2031, 5699.720
109.6852, 5905.919
110.1674, 6161.524
110.6495, 6496.226
111.1316, 6869.185
111.6137, 7245.207
112.0958, 7603.963
112.5779, 7989.705
113.0601, 8420.174
113.5422, 8909.586
114.0243, 9393.962
114.5064, 9845.425
114.9885, 10290.28
115.4706, 10767.80
115.9528, 11311.89
116.4349, 11868.75
116.9170, 12410.93
117.3991, 12944.70
117.8812, 13463.66
118.3633, 13972.51
118.8455, 14465.58
119.3276, 14929.80
119.8097, 15350.48
120.2918, 15752.53
120.7739, 16160.00
121.2560, 16613.06
121.7382, 17011.09
122.2203, 17260.66
122.7024, 17394.52
123.1845, 17522.16
123.6666, 17717.86
124.1487, 17938.23
124.6309, 18132.74
125.1130, 18260.25
125.5951, 18381.26
126.0772, 18553.71
126.5593, 18775.19
127.0414, 19023.94
127.5236, 19272.48
128.0057, 19534.58
128.4878, 19848.58
128.9699, 20245.61
129.4520, 20689.04
129.9341, 21116.52
130.4162, 21527.52
130.8984, 21934.89
131.3805, 22342.72
131.8626, 22754.35
132.3447, 23189.94
132.8268, 23667.57
133.3089, 24177.23
133.7911, 24623.02
134.2732, 24934.57
134.7553, 25137.74
135.2374, 25309.37
135.7195, 25451.27
136.2016, 25572.31
136.6838, 25681.40
137.1659, 25778.37
137.6480, 25836.00
138.1301, 25847.47
138.6122, 25833.72
139.0943, 25838.54
139.5765, 25872.04
140.0586, 25882.27
140.5407, 25834.18
141.0228, 25710.98
141.5049, 25615.08
141.9870, 25552.17
142.4692, 25514.15
142.9513, 25480.90
143.4334, 25452.74
143.9155, 25426.82
144.3976, 25398.61
144.8797, 25358.77
145.3619, 25338.45
145.8440, 25344.63
146.3261, 25372.20
146.8082, 25392.92
147.2903, 25380.69
147.7724, 25388.96
148.2546, 25456.18
148.7367, 25659.34
149.2188, 25805.16
149.7009, 25848.04
150.1830, 25795.88
150.6651, 25789.93
151.1473, 25869.28
151.6294, 25970.63
152.1115, 26048.51
152.5936, 26080.75
153.0757, 26114.68
153.5578, 26160.48
154.0400, 26219.15
154.5221, 26261.78
155.0042, 26255.66
155.4863, 26246.72
155.9684, 26274.44
156.4505, 26419.66
156.9327, 26527.46
157.4148, 26538.09
157.8969, 26434.06
158.3790, 26363.00
158.8611, 26372.53
159.3432, 26421.92
159.8254, 26465.89
160.3075, 26501.95
160.7896, 26524.11
161.2717, 26523.43
161.7538, 26493.60
162.2359, 26476.67
162.7181, 26502.30
163.2002, 26547.07
163.6823, 26578.28
164.1644, 26566.60
164.6465, 26551.74
165.1286, 26555.46
165.6108, 26582.55
166.0929, 26618.56
166.5750, 26665.08
167.0571, 26714.79
167.5392, 26754.60
168.0213, 26759.63
168.5035, 26762.81
168.9856, 26793.07
169.4677, 26863.24
169.9498, 26933.06
170.4319, 26973.66
170.9140, 26993.00
171.3962, 27009.50
171.8783, 27025.95
172.3604, 27047.58
172.8425, 27082.21
173.3246, 27136.78
173.8067, 27192.57
174.2889, 27235.98
174.7710, 27268.37
175.2531, 27292.56
175.7352, 27305.53
176.2173, 27312.87
176.6994, 27323.74
177.1816, 27344.67
177.6637, 27361.06
178.1458, 27339.18
178.6279, 27289.68
179.1100, 27266.45
179.5921, 27331.61
180.0743, 27445.52
180.5564, 27529.51
181.0385, 27562.14
181.5206, 27566.20
182.0027, 27574.07
182.4848, 27583.96
182.9670, 27581.21
183.4491, 27530.20
183.9312, 27455.00
184.4133, 27430.10
184.8954, 27492.30
185.3775, 27590.09
185.8596, 27627.38
186.3418, 27604.86
186.8239, 27574.23
187.3060, 27578.82
187.7881, 27612.03
188.2702, 27645.08
188.7523, 27672.45
189.2345, 27695.38
189.7166, 27715.17
190.1987, 27732.03
190.6808, 27751.06
191.1629, 27783.68
191.6451, 27827.21
192.1272, 27854.53
192.6093, 27851.74
193.0914, 27832.43
193.5735, 27840.38
194.0556, 27878.44
194.5378, 27926.52
195.0199, 27964.27
195.5020, 27992.31
195.9841, 28027.56
196.4662, 28080.89
196.9483, 28143.19
197.4305, 28164.41
197.9126, 28133.36
198.3947, 28107.24
198.8768, 28160.34
199.3589, 28296.68
199.8410, 28402.47
200.3232, 28438.51
200.8053, 28418.00
201.2874, 28427.08
201.7695, 28474.27
202.2516, 28524.64
202.7337, 28528.88
203.2159, 28476.79
203.6980, 28467.16
204.1801, 28545.88
204.6622, 28698.66
205.1443, 28775.56
205.6264, 28759.02
206.1086, 28710.17
206.5907, 28695.52
207.0728, 28723.71
207.5549, 28742.97
208.0370, 28740.15
208.5191, 28716.43
209.0013, 28684.70
209.4834, 28635.59
209.9655, 28596.07
210.4476, 28603.13
210.9297, 28672.63
211.4118, 28727.48
211.8940, 28739.36
212.3761, 28710.46
212.8582, 28736.54
213.3403, 28845.53
213.8224, 28966.66
214.3045, 29009.34
214.7867, 28936.07
215.2688, 28903.29
215.7509, 28964.33
216.2330, 29117.60
216.7151, 29210.89
217.1972, 29224.21
217.6794, 29204.32
218.1615, 29200.35
218.6436, 29218.61
219.1257, 29234.71
219.6078, 29242.70
220.0899, 29242.33
220.5721, 29234.65
221.0542, 29201.29
221.5363, 29182.88
222.0184, 29231.81
222.5005, 29389.42
222.9826, 29519.07
223.4648, 29588.18
223.9469, 29597.25
224.4290, 29585.47
224.9111, 29528.57
225.3932, 29479.20
225.8753, 29499.66
226.3575, 29638.74
226.8396, 29741.39
227.3217, 29760.90
227.8038, 29696.12
228.2859, 29677.13
228.7680, 29723.62
229.2502, 29793.65
229.7323, 29845.20
230.2144, 29863.32
230.6965, 29895.41
231.1786, 29956.12
231.6607, 30045.47
232.1429, 30117.77
232.6250, 30167.64
233.1071, 30206.65
233.5892, 30247.67
234.0713, 30306.88
234.5534, 30333.41
235.0356, 30299.83
235.5177, 30209.88
235.9998, 30175.33
236.4819, 30214.84
236.9640, 30288.52
237.4461, 30366.18
237.9283, 30456.06
238.4104, 30533.67
238.8925, 30601.82
239.3746, 30658.84
239.8567, 30664.47
240.3388, 30579.94
240.8210, 30489.13
241.3031, 30460.14
241.7852, 30525.31
242.2673, 30586.20
242.7494, 30627.02
243.2315, 30650.44
243.7137, 30687.14
244.1958, 30750.55
244.6779, 30811.32
245.1600, 30846.33
245.6421, 30839.12
246.1242, 30840.62
246.6064, 30858.01
247.0885, 30889.35
247.5706, 30921.64
248.0527, 30957.10
248.5348, 30990.83
249.0169, 31017.88
249.4990, 31031.54
249.9812, 31055.80
250.4633, 31099.05
250.9454, 31155.46
251.4275, 31194.69
251.9096, 31204.88
252.3917, 31215.01
252.8739, 31244.09
253.3560, 31306.08
253.8381, 31351.10
254.3202, 31363.02
254.8023, 31356.90
255.2844, 31393.88
255.7666, 31503.28
256.2487, 31606.07
256.7308, 31652.17
257.2129, 31606.66
257.6950, 31601.75
258.1772, 31658.33
258.6593, 31752.09
259.1414, 31820.32
259.6235, 31858.46
260.1056, 31879.25
260.5877, 31883.75
261.0699, 31859.83
261.5520, 31859.61
262.0341, 31892.93
262.5162, 31944.37
262.9983, 31980.76
263.4804, 31994.93
263.9626, 32009.86
264.4447, 32036.96
264.9268, 32081.77
265.4089, 32113.59
265.8910, 32123.98
266.3731, 32130.27
266.8553, 32169.04
267.3374, 32256.77
267.8195, 32331.58
268.3016, 32364.35
268.7837, 32349.16
269.2658, 32352.09
269.7480, 32376.93
270.2301, 32414.96
270.7122, 32453.53
271.1943, 32491.42
271.6764, 32533.29
272.1585, 32580.18
272.6407, 32631.74
273.1228, 32690.00
273.6049, 32766.03
274.0870, 32825.28
274.5691, 32810.89
275.0512, 32701.62
275.5334, 32624.20
276.0155, 32617.91
276.4976, 32676.42
276.9797, 32734.78
277.4618, 32793.56
277.9439, 32850.79
278.4260, 32912.06
278.9081, 32981.02
279.3903, 33015.14
279.8724, 32985.10
280.3545, 32915.24
280.8366, 32929.55
281.3187, 33045.02
281.8008, 33172.33
282.2830, 33232.99
282.7651, 33226.18
283.2472, 33214.25
283.7293, 33205.77
284.2114, 33200.98
284.6935, 33202.00
285.1757, 33209.30
285.6578, 33216.62
286.1399, 33212.16
286.6220, 33198.05
287.1041, 33206.82
287.5862, 33245.43
288.0684, 33304.20
288.5505, 33367.93
289.0326, 33436.73
289.5147, 33499.05
289.9968, 33548.49
290.4789, 33585.43
290.9611, 33610.81
291.4432, 33623.85
291.9253, 33628.09
292.4074, 33613.49
292.8895, 33584.53
293.3716, 33588.36
293.8538, 33675.59
294.3359, 33816.84
294.8180, 33923.71
295.3001, 33992.23
295.7822, 34022.85
296.2643, 33996.47
296.7465, 33924.80
297.2286, 33860.89
297.7107, 33818.64
298.1928, 33801.73
298.6749, 33830.45
299.1570, 33907.53
299.6392, 33986.80
300.1213, 34018.58
300.6034, 34015.78
301.0855, 34008.89
301.5676, 33997.76
302.0497, 33995.64
302.5319, 34027.27
303.0140, 34091.19
303.4961, 34161.38
303.9782, 34217.29
304.4603, 34265.25
304.9424, 34320.07
305.4246, 34393.12
305.9067, 34464.78
306.3888, 34511.98
306.8709, 34537.36
307.3530, 34555.43
307.8351, 34575.87
308.3173, 34593.65
308.7994, 34598.50
309.2815, 34576.73
309.7636, 34566.21
310.2457, 34612.42
310.7278, 34696.51
311.2100, 34766.20
311.6921, 34800.79
312.1742, 34805.82
312.6563, 34770.58
313.1384, 34675.67
313.6205, 34613.21
314.1027, 34660.69
314.5848, 34774.77
315.0669, 34879.96
315.5490, 34943.31
316.0311, 34990.08
316.5132, 35032.59
316.9954, 35072.14
317.4775, 35106.38
317.9596, 35128.12
318.4417, 35145.23
318.9238, 35166.89
319.4059, 35201.27
319.8881, 35234.45
320.3702, 35264.89
320.8523, 35291.61
321.3344, 35300.87
321.8165, 35257.04
322.2986, 35210.74
322.7808, 35200.46
323.2629, 35283.72
323.7450, 35349.97
324.2271, 35361.21
324.7092, 35330.78
325.1913, 35326.86
325.6735, 35404.59
326.1556, 35479.76
326.6377, 35508.36
327.1198, 35438.70
327.6019, 35393.91
328.0840, 35393.64
328.5662, 35424.45
329.0483, 35451.86
329.5304, 35466.57
330.0125, 35486.51
330.4946, 35518.52
330.9767, 35568.13
331.4589, 35613.83
331.9410, 35648.42
332.4231, 35682.03
332.9052, 35731.64
333.3873, 35824.29
333.8694, 35890.35
334.3516, 35900.76
334.8337, 35849.01
335.3158, 35835.61
335.7979, 35879.81
336.2800, 35939.42
336.7621, 35971.07
337.2443, 35957.64
337.7264, 35963.34
338.2085, 36004.59
338.6906, 36074.30
339.1727, 36134.15
339.6548, 36184.83
340.1370, 36225.00
340.6191, 36248.05
341.1012, 36248.96
341.5833, 36273.78
342.0654, 36336.21
342.5475, 36414.78
343.0297, 36460.18
343.5118, 36470.21
343.9939, 36462.05
344.4760, 36430.84
344.9581, 36380.71
345.4402, 36362.55
345.9224, 36377.95
346.4045, 36424.30
346.8866, 36527.88
347.3687, 36680.66
347.8508, 36774.67
348.3329, 36728.72
348.8151, 36599.77
349.2972, 36558.52
349.7793, 36608.05
350.2614, 36675.95
350.7435, 36689.61
351.2256, 36665.96
351.7078, 36653.45
352.1899, 36667.82
352.6720, 36697.89
353.1541, 36728.99
353.6362, 36762.15
354.1183, 36801.62
354.6005, 36860.34
355.0826, 36923.91
355.5647, 36970.10
356.0468, 36989.14
356.5289, 37005.06
357.0110, 37041.43
357.4932, 37090.91
357.9753, 37136.61
358.4574, 37190.23
358.9395, 37223.77
359.4216, 37192.60
359.9037, 37083.80
360.3859, 37009.76
360.8680, 37062.59
361.3501, 37178.26
361.8322, 37278.86
362.3143, 37338.04
362.7964, 37375.96
363.2786, 37389.08
363.7607, 37381.00
364.2428, 37387.82
364.7249, 37436.16
365.2070, 37494.67
365.6891, 37541.95
366.1713, 37568.88
366.6534, 37591.07
367.1355, 37617.32
367.6176, 37641.66
368.0997, 37646.47
368.5818, 37588.29
369.0640, 37546.35
369.5461, 37557.63
370.0282, 37661.65
370.5103, 37726.68
370.9924, 37729.77
371.4745, 37705.20
371.9567, 37696.10
372.4388, 37695.26
372.9209, 37721.93
373.4030, 37790.91
373.8851, 37903.88
374.3672, 37990.60
374.8494, 38050.31
375.3315, 38085.07
375.8136, 38084.98
376.2957, 38025.89
376.7778, 38014.80
377.2599, 38080.99
377.7421, 38195.15
378.2242, 38257.24
378.7063, 38253.81
379.1884, 38248.18
379.6705, 38280.82
380.1526, 38352.21
380.6348, 38406.93
381.1169, 38439.06
381.5990, 38464.57
382.0811, 38524.09
382.5632, 38613.01
383.0453, 38656.82
383.5275, 38596.56
384.0096, 38474.91
384.4917, 38420.51
384.9738, 38435.38
385.4559, 38469.49
385.9380, 38476.25
386.4202, 38467.95
386.9023, 38479.06
387.3844, 38531.95
387.8665, 38587.25
388.3486, 38582.85
388.8307, 38533.50
389.3129, 38498.71
389.7950, 38525.89
390.2771, 38580.39
390.7592, 38623.23
391.2413, 38646.18
391.7234, 38670.66
392.2056, 38717.50
392.6877, 38773.63
393.1698, 38819.59
393.6519, 38823.99
394.1340, 38836.19
394.6161, 38899.82
395.0983, 39012.95
395.5804, 39090.32
396.0625, 39075.87
396.5446, 39028.17
397.0267, 38990.75
397.5089, 38955.41
397.9910, 38951.24
398.4731, 39003.79
398.9552, 39094.01
399.4373, 39164.94
399.9194, 39207.82
400.4016, 39232.85
400.8837, 39238.35
401.3658, 39210.39
401.8479, 39206.43
402.3300, 39248.54
402.8121, 39300.80
403.2942, 39317.66
403.7763, 39275.50
404.2585, 39241.85
404.7406, 39223.67
405.2227, 39223.06
405.7048, 39272.93
406.1869, 39395.63
406.6690, 39518.17
407.1512, 39578.91
407.6333, 39567.54
408.1154, 39586.61
408.5975, 39657.01
409.0796, 39746.28
409.5617, 39788.19
410.0439, 39781.38
410.5260, 39775.36
411.0081, 39794.79
411.4902, 39834.08
411.9723, 39874.70
412.4544, 39917.53
412.9366, 39951.90
413.4187, 39960.70
413.9008, 39952.18
414.3829, 39951.19
414.8650, 39968.21
415.3471, 39991.87
415.8293, 40006.21
416.3114, 40013.68
416.7935, 40024.97
417.2756, 40058.90
417.7577, 40094.75
418.2398, 40105.73
418.7220, 40082.14
419.2041, 40063.50
419.6862, 40081.66
420.1683, 40119.93
420.6504, 40151.69
421.1325, 40159.73
421.6147, 40167.81
422.0968, 40180.16
422.5789, 40198.13
423.0610, 40238.50
423.5431, 40348.50
424.0252, 40454.89
424.5074, 40509.78
424.9895, 40422.67
425.4716, 40390.64
425.9537, 40467.48
426.4358, 40604.43
426.9179, 40693.43
427.4001, 40706.21
427.8822, 40704.93
428.3643, 40702.16
428.8464, 40694.16
429.3285, 40708.01
429.8106, 40742.38
430.2928, 40800.07
430.7749, 40900.08
431.2570, 41065.46
431.7391, 41169.73
432.2212, 41175.19
432.7033, 41114.82
433.1855, 41097.51
433.6676, 41129.21
434.1497, 41153.84
434.6318, 41116.66
435.1139, 41034.74
435.5960, 41021.56
436.0782, 41092.26
436.5603, 41183.39
437.0424, 41198.95
437.5245, 41165.38
438.0066, 41175.67
438.4887, 41301.63
438.9709, 41459.77
439.4530, 41537.73
439.9351, 41543.05
440.4172, 41525.91
440.8993, 41495.31
441.3814, 41471.41
441.8636, 41480.45
442.3457, 41537.85
442.8278, 41596.28
443.3099, 41628.52
443.7920, 41643.68
444.2741, 41657.20
444.7563, 41668.48
445.2384, 41684.30
445.7205, 41713.11
446.2026, 41754.91
446.6847, 41782.36
447.1668, 41783.93
447.6490, 41773.11
448.1311, 41757.82
448.6132, 41710.82
449.0953, 41696.73
449.5774, 41726.94
450.0595, 41787.54
450.5417, 41852.62
451.0238, 41935.68
451.5059, 41997.64
451.9880, 42020.97
452.4701, 42003.59
452.9522, 41994.95
453.4344, 41997.18
453.9165, 42002.59
454.3986, 41997.09
454.8807, 41978.81
455.3628, 41993.55
455.8449, 42059.30
456.3271, 42145.80
456.8092, 42192.93
457.2913, 42202.76
457.7734, 42198.57
458.2555, 42174.70
458.7376, 42149.16
459.2198, 42170.13
459.7019, 42241.41
460.1840, 42317.57
460.6661, 42366.37
461.1482, 42392.25
461.6303, 42399.91
462.1125, 42381.84
462.5946, 42359.25
463.0767, 42339.69
463.5588, 42327.03
464.0409, 42332.91
464.5230, 42379.21
465.0052, 42432.37
465.4873, 42466.51
465.9694, 42471.37
466.4515, 42499.80
466.9336, 42599.29
467.4157, 42710.93
467.8979, 42779.16
468.3800, 42757.65
468.8621, 42738.83
469.3442, 42730.86
469.8263, 42731.95
470.3084, 42735.18
470.7906, 42738.27
471.2727, 42747.84
471.7548, 42766.10
472.2369, 42793.09
472.7190, 42837.17
473.2011, 42908.71
473.6833, 42980.15
474.1654, 43015.80
474.6475, 43014.32
475.1296, 43010.41
475.6117, 43009.48
476.0938, 43012.54
476.5760, 43017.63
477.0581, 43025.31
477.5402, 43049.02
478.0223, 43119.06
478.5044, 43205.25
478.9865, 43240.97
479.4687, 43217.77
479.9508, 43187.64
480.4329, 43189.16
480.9150, 43215.50
481.3971, 43258.11
481.8792, 43336.61
482.3614, 43406.95
482.8435, 43435.54
483.3256, 43433.56
483.8077, 43434.10
484.2898, 43454.00
484.7719, 43477.05
485.2541, 43495.80
485.7362, 43508.88
486.2183, 43520.15
486.7004, 43518.84
487.1825, 43521.43
487.6646, 43544.93
488.1468, 43620.05
488.6289, 43664.55
489.1110, 43656.45
489.5931, 43612.54
490.0752, 43584.46
490.5573, 43560.36
491.0395, 43582.62
491.5216, 43697.78
492.0037, 43910.68
492.4858, 44018.87
492.9679, 44007.83
493.4500, 43958.29
493.9322, 43957.85
494.4143, 43998.34
494.8964, 44025.86
495.3785, 44025.01
495.8606, 44012.72
496.3427, 44008.56
496.8249, 44013.20
497.3070, 44030.29
497.7891, 44064.16
498.2712, 44109.41
498.7533, 44162.45
499.2354, 44223.28
499.7176, 44283.58
500.1997, 44353.63
500.6818, 44413.56
501.1639, 44443.83
501.6460, 44425.61
502.1281, 44399.86
502.6103, 44378.43
503.0924, 44358.01
503.5745, 44331.30
504.0566, 44257.23
504.5387, 44220.58
505.0208, 44258.08
505.5030, 44374.33
505.9851, 44453.37
506.4672, 44472.19
506.9493, 44484.20
507.4314, 44536.63
507.9135, 44650.78
508.3957, 44698.12
508.8778, 44645.84
509.3599, 44563.03
509.8420, 44584.50
510.3241, 44707.34
510.8062, 44804.86
511.2884, 44819.12
511.7705, 44779.93
512.2526, 44746.46
512.7347, 44719.96
513.2168, 44718.74
513.6989, 44779.06
514.1810, 44864.50
514.6631, 44924.67
515.1453, 44951.03
515.6274, 44960.10
516.1095, 44941.44
516.5916, 44919.34
517.0737, 44926.18
517.5558, 45015.20
518.0380, 45091.98
518.5201, 45105.36
519.0022, 45071.90
519.4843, 45071.91
519.9664, 45164.74
520.4485, 45252.38
520.9307, 45293.32
521.4128, 45274.89
521.8949, 45261.47
522.3770, 45252.06
522.8591, 45248.42
523.3412, 45247.05
523.8234, 45240.44
524.3055, 45278.25
524.7876, 45390.42
525.2697, 45525.95
525.7518, 45545.18
526.2339, 45449.16
526.7161, 45371.33
527.1982, 45394.62
527.6803, 45481.98
528.1624, 45533.72
528.6445, 45551.29
529.1266, 45570.06
529.6088, 45637.03
530.0909, 45716.51
530.5730, 45751.83
531.0551, 45716.59
531.5372, 45679.55
532.0193, 45676.52
532.5015, 45700.30
532.9836, 45739.54
533.4657, 45829.91
533.9478, 45895.10
534.4299, 45891.51
534.9120, 45828.06
535.3942, 45794.86
535.8763, 45819.54
536.3584, 45857.71
536.8405, 45898.55
537.3226, 45955.07
537.8047, 45954.68
538.2869, 45858.82
538.7690, 45760.90
539.2511, 45789.77
539.7332, 45962.36
540.2153, 46084.85
540.6974, 46114.46
541.1796, 46084.11
541.6617, 46046.30
542.1438, 46003.29
542.6259, 45975.98
543.1080, 45970.15
543.5901, 45988.68
544.0723, 46053.88
544.5544, 46161.71
545.0365, 46250.17
545.5186, 46252.32
546.0007, 46222.48
546.4828, 46222.34
546.9650, 46284.65
547.4471, 46323.20
547.9292, 46269.15
548.4113, 46180.06
548.8934, 46135.34
549.3755, 46179.73
549.8577, 46237.52
550.3398, 46295.83
550.8219, 46356.00
551.3040, 46426.55
551.7861, 46525.04
552.2682, 46606.86
552.7504, 46645.98
553.2325, 46637.13
553.7146, 46652.21
554.1967, 46700.85
554.6788, 46743.46
555.1609, 46719.70
555.6431, 46642.91
556.1252, 46614.71
556.6073, 46663.47
557.0894, 46743.25
557.5715, 46794.82
558.0536, 46825.95
558.5358, 46858.89
559.0179, 46913.39
559.5000, 46967.61
559.9821, 46992.96
560.4642, 46995.58
560.9464, 47015.14
561.4285, 47106.75
561.9106, 47193.50
562.3927, 47215.38
562.8748, 47130.49
563.3569, 47089.46
563.8391, 47164.33
564.3212, 47258.84
564.8033, 47285.75
565.2854, 47204.16
565.7675, 47133.63
566.2496, 47079.42
566.7318, 47047.48
567.2139, 47061.60
567.6960, 47128.98
568.1781, 47195.20
568.6602, 47237.43
569.1423, 47262.87
569.6245, 47295.48
570.1066, 47336.05
570.5887, 47373.95
571.0708, 47401.30
571.5529, 47421.86
572.0350, 47437.06
572.5172, 47444.36
572.9993, 47463.40
573.4814, 47524.29
573.9635, 47598.86
574.4456, 47651.80
574.9277, 47634.66
575.4099, 47635.27
575.8920, 47702.55
576.3741, 47806.71
576.8562, 47865.11
577.3383, 47810.16
577.8204, 47781.32
578.3026, 47828.23
578.7847, 47948.46
579.2668, 48025.26
579.7489, 48048.40
580.2310, 48054.01
580.7131, 48058.68
581.1953, 48062.74
581.6774, 48096.88
582.1595, 48170.55
582.6416, 48240.13
583.1237, 48246.52
583.6058, 48205.20
584.0880, 48159.36
584.5701, 48119.13
585.0522, 48082.08
585.5343, 48032.82
586.0164, 47983.98
586.4985, 47967.25
586.9807, 48017.02
587.4628, 48083.45
587.9449, 48144.89
588.4270, 48200.48
588.9091, 48253.28
589.3912, 48320.52
589.8734, 48371.60
590.3555, 48388.31
590.8376, 48355.66
591.3197, 48339.82
591.8018, 48345.84
592.2839, 48362.58
592.7661, 48379.17
593.2482, 48395.51
593.7303, 48412.29
594.2124, 48428.88
594.6945, 48446.81
595.1766, 48473.82
595.6588, 48506.72
596.1409, 48529.70
596.6230, 48526.55
597.1051, 48515.36
597.5872, 48521.02
598.0693, 48539.81
598.5515, 48554.20
599.0336, 48517.52
599.5157, 48500.00
599.9978, 48570.70
600.4799, 48757.18
600.9620, 48892.82
601.4442, 48895.01
601.9263, 48860.96
602.4084, 48868.75
602.8905, 48966.88
603.3726, 49016.43
603.8547, 48998.95
604.3369, 48945.67
604.8190, 48899.15
605.3011, 48855.79
605.7832, 48847.41
606.2653, 48890.71
606.7474, 48966.89
607.2296, 49043.07
607.7117, 49116.44
608.1938, 49162.10
608.6759, 49142.07
609.1580, 49096.84
609.6401, 49074.00
610.1223, 49074.99
610.6044, 49096.55
611.0865, 49152.70
611.5686, 49218.10
612.0507, 49277.45
612.5328, 49338.63
613.0150, 49365.39
613.4971, 49313.32
613.9792, 49243.46
614.4613, 49219.64
614.9434, 49273.39
615.4255, 49310.20
615.9077, 49310.44
616.3898, 49297.92
616.8719, 49340.68
617.3540, 49448.93
617.8361, 49506.84
618.3182, 49439.61
618.8004, 49312.38
619.2825, 49307.79
619.7646, 49411.07
620.2467, 49499.38
620.7288, 49449.86
621.2109, 49364.58
621.6931, 49372.64
622.1752, 49483.35
622.6573, 49593.89
623.1394, 49653.53
623.6215, 49688.50
624.1036, 49719.13
624.5858, 49750.58
625.0679, 49772.47
625.5500, 49764.29
626.0321, 49756.94
626.5142, 49794.98
626.9963, 49918.84
627.4785, 49978.72
627.9606, 49932.76
628.4427, 49828.09
628.9248, 49778.50
629.4069, 49784.69
629.8890, 49794.40
630.3712, 49775.60
630.8533, 49752.08
631.3354, 49788.21
631.8175, 49872.66
632.2996, 49931.64
632.7817, 49889.49
633.2639, 49819.99
633.7460, 49784.38
634.2281, 49790.00
634.7102, 49814.37
635.1923, 49858.31
635.6744, 49912.46
636.1566, 49972.53
636.6387, 50059.47
637.1208, 50109.96
637.6029, 50110.84
638.0850, 50086.30
638.5671, 50063.98
639.0493, 50043.35
639.5314, 50021.43
640.0135, 49987.92
640.4956, 49966.66
640.9777, 50025.22
641.4598, 50149.59
641.9420, 50250.98
642.4241, 50289.29
642.9062, 50285.37
643.3883, 50232.79
643.8704, 50150.06
644.3525, 50119.50
644.8347, 50246.93
645.3168, 50388.08
645.7989, 50450.46
646.2810, 50417.87
646.7631, 50404.32
647.2452, 50440.47
647.7274, 50488.73
648.2095, 50529.93
648.6916, 50563.55
649.1737, 50587.08
649.6558, 50590.88
650.1379, 50601.77
650.6201, 50661.71
651.1022, 50766.09
651.5843, 50845.47
652.0664, 50885.34
652.5485, 50900.43
653.0306, 50903.35
653.5128, 50896.73
653.9949, 50886.16
654.4770, 50855.27
654.9591, 50841.11
655.4412, 50879.34
655.9233, 50955.41
656.4055, 51025.46
656.8876, 51106.81
657.3697, 51149.92
657.8518, 51117.06
658.3339, 51014.73
658.8160, 50958.50
659.2982, 50961.64
659.7803, 50984.73
660.2624, 51004.36
660.7445, 51020.23
661.2266, 51069.72
661.7087, 51156.71
662.1909, 51242.77
662.6730, 51294.18
663.1551, 51317.59
663.6372, 51320.54
664.1193, 51297.35
664.6014, 51289.51
665.0836, 51354.77
665.5657, 51444.44
666.0478, 51498.42
666.5299, 51462.98
667.0120, 51441.06
667.4941, 51483.58
667.9763, 51549.34
668.4584, 51558.61
668.9405, 51462.23
669.4226, 51403.38
669.9047, 51411.88
670.3868, 51474.92
670.8690, 51566.46
671.3511, 51689.36
671.8332, 51791.10
672.3153, 51844.08
672.7974, 51859.30
673.2795, 51855.75
673.7617, 51835.32
674.2438, 51813.57
674.7259, 51779.45
675.2080, 51762.67
675.6901, 51806.37
676.1722, 51918.63
676.6544, 51995.91
677.1365, 51967.13
677.6186, 51922.09
678.1007, 51922.12
678.5828, 51991.73
679.0649, 52040.95
679.5471, 52062.40
680.0292, 52074.39
680.5113, 52097.74
680.9934, 52133.42
681.4755, 52152.86
681.9576, 52147.39
682.4398, 52141.21
682.9219, 52183.34
683.4040, 52251.77
683.8861, 52283.17
684.3682, 52227.82
684.8503, 52172.92
685.3325, 52183.21
685.8146, 52240.14
686.2967, 52304.75
686.7788, 52386.16
687.2609, 52451.66
687.7430, 52484.20
688.2252, 52491.74
688.7073, 52505.95
689.1894, 52531.37
689.6715, 52554.45
690.1536, 52567.88
690.6357, 52574.81
691.1179, 52594.98
691.6000, 52629.07
692.0821, 52665.09
692.5642, 52699.89
693.0463, 52730.27
693.5284, 52747.33
694.0106, 52751.02
694.4927, 52757.93
694.9748, 52798.08
695.4569, 52833.01
695.9390, 52823.87
696.4211, 52740.28
696.9033, 52691.11
697.3854, 52687.94
697.8675, 52725.75
698.3496, 52811.97
698.8317, 52975.54
699.3138, 53085.11
699.7960, 53120.23
700.2781, 53124.51
700.7602, 53169.25
701.2423, 53241.97
701.7244, 53256.44
702.2065, 53166.16
702.6887, 53070.45
703.1708, 53114.37
703.6529, 53233.20
704.1350, 53304.32
704.6171, 53221.86
705.0992, 53144.50
705.5814, 53144.54
706.0635, 53200.06
706.5456, 53244.39
707.0277, 53277.04
707.5098, 53292.48
707.9919, 53278.67
708.4741, 53246.75
708.9562, 53259.51
709.4383, 53322.32
709.9204, 53381.70
710.4025, 53406.57
710.8846, 53408.32
711.3667, 53411.47
711.8488, 53416.52
712.3309, 53432.12
712.8130, 53472.57
713.2952, 53519.69
713.7773, 53563.56
714.2594, 53604.16
714.7415, 53626.38
715.2236, 53610.08
715.7057, 53589.07
716.1879, 53581.78
716.6700, 53588.66
717.1521, 53614.54
717.6342, 53668.80
718.1163, 53724.32
718.5984, 53751.33
719.0806, 53753.15
719.5627, 53762.29
720.0448, 53780.54
720.5269, 53811.23
721.0090, 53880.14
721.4911, 53956.34
721.9733, 53984.68
722.4554, 53922.29
722.9375, 53876.15
723.4196, 53913.33
723.9017, 53987.11
724.3839, 54038.61
724.8660, 54028.84
725.3481, 54043.69
725.8302, 54104.24
726.3123, 54183.13
726.7944, 54236.68
727.2766, 54268.27
727.7587, 54251.59
728.2408, 54160.38
728.7229, 54052.33
729.2050, 54025.43
729.6871, 54070.45
730.1693, 54153.98
730.6514, 54324.09
731.1335, 54470.65
731.6156, 54503.70
732.0977, 54448.16
732.5798, 54381.84
733.0620, 54266.14
733.5441, 54206.13
734.0262, 54248.03
734.5083, 54373.24
734.9904, 54470.55
735.4725, 54533.90
735.9547, 54586.63
736.4368, 54639.67
736.9189, 54690.25
737.4010, 54729.37
737.8831, 54756.93
738.3652, 54772.60
738.8474, 54779.01
739.3295, 54772.66
739.8116, 54732.26
740.2937, 54660.61
740.7758, 54633.64
741.2579, 54731.63
741.7401, 54841.48
742.2222, 54898.76
742.7043, 54896.20
743.1864, 54884.41
743.6685, 54853.81
744.1506, 54831.95
744.6328, 54850.65
745.1149, 54904.71
745.5970, 54910.88
746.0791, 54861.18
746.5612, 54816.44
747.0433, 54837.09
747.5255, 54896.27
748.0076, 54958.34
748.4897, 55019.69
748.9718, 55073.84
749.4539, 55119.09
749.9360, 55154.73
750.4182, 55181.77
750.9003, 55218.73
751.3824, 55206.90
751.8645, 55111.33
752.3466, 55011.57
752.8287, 55010.67
753.3109, 55110.98
753.7930, 55190.21
754.2751, 55233.18
754.7572, 55252.62
755.2393, 55241.23
755.7214, 55222.25
756.2036, 55245.94
756.6857, 55352.83
757.1678, 55452.84
757.6499, 55501.08
758.1320, 55512.80
758.6141, 55507.50
759.0963, 55455.89
759.5784, 55433.04
760.0605, 55452.68
760.5426, 55496.46
761.0247, 55524.70
761.5068, 55533.96
761.9890, 55586.20
762.4711, 55718.10
762.9532, 55856.82
763.4353, 55862.42
763.9174, 55779.40
764.3995, 55721.53
764.8817, 55758.90
765.3638, 55812.66
765.8459, 55837.48
766.3280, 55848.23
766.8101, 55878.57
767.2922, 55965.11
767.7744, 56031.23
768.2565, 56057.98
768.7386, 56059.13
769.2207, 56080.89
769.7028, 56126.94
770.1849, 56151.23
770.6671, 56128.05
771.1492, 56082.18
771.6313, 56050.13
772.1134, 56033.07
772.5955, 56035.57
773.0776, 56057.29
773.5598, 56100.87
774.0419, 56189.51
774.5240, 56306.78
775.0061, 56380.88
775.4882, 56373.88
775.9703, 56358.80
776.4525, 56355.18
776.9346, 56358.44
777.4167, 56345.49
777.8988, 56315.88
778.3809, 56279.20
778.8630, 56225.79
779.3452, 56177.08
779.8273, 56177.54
780.3094, 56221.77
780.7915, 56282.89
781.2736, 56375.12
781.7557, 56454.11
782.2379, 56489.76
782.7200, 56484.00
783.2021, 56473.13
783.6842, 56453.15
784.1663, 56439.09
784.6484, 56433.33
785.1306, 56436.91
785.6127, 56465.67
786.0948, 56520.65
786.5769, 56572.95
787.0590, 56601.23
787.5411, 56615.77
788.0233, 56634.04
788.5054, 56654.71
788.9875, 56668.78
789.4696, 56656.11
789.9517, 56648.03
790.4338, 56677.36
790.9160, 56746.44
791.3981, 56754.16
791.8802, 56653.55
792.3623, 56570.69
792.8444, 56567.65
793.3265, 56637.00
793.8087, 56707.35
794.2908, 56779.97
794.7729, 56850.20
795.2550, 56920.96
795.7371, 56984.42
796.2192, 57022.80
796.7014, 57038.39
797.1835, 57056.51
797.6656, 57093.77
798.1477, 57131.22
798.6298, 57156.77
799.1119, 57168.93
799.5941, 57180.57
800.0762, 57190.50
800.5583, 57198.47
801.0404, 57194.90
801.5225, 57186.18
802.0046, 57231.09
802.4868, 57326.36
802.9689, 57402.38
803.4510, 57391.84
803.9331, 57350.81
804.4152, 57335.48
804.8973, 57348.92
805.3795, 57364.91
805.8616, 57387.71
806.3437, 57401.28
806.8258, 57391.74
807.3079, 57359.72
807.7900, 57366.21
808.2722, 57422.34
808.7543, 57474.80
809.2364, 57473.52
809.7185, 57443.51
810.2006, 57481.47
810.6827, 57579.18
811.1649, 57660.46
811.6470, 57670.16
812.1291, 57646.49
812.6112, 57594.80
813.0933, 57517.99
813.5754, 57504.11
814.0576, 57618.73
814.5397, 57737.55
815.0218, 57820.91
815.5039, 57869.18
815.9860, 57858.49
816.4681, 57783.39
816.9503, 57726.51
817.4324, 57768.98
817.9145, 57853.59
818.3966, 57868.00
818.8787, 57822.50
819.3608, 57792.53
819.8430, 57832.22
820.3251, 57885.58
820.8072, 57920.85
821.2893, 57937.07
821.7714, 57963.66
822.2535, 58000.93
822.7357, 58045.94
823.2178, 58105.59
823.6999, 58169.79
824.1820, 58184.19
824.6641, 58152.43
825.1462, 58132.52
825.6284, 58184.13
826.1105, 58245.87
826.5926, 58248.88
827.0747, 58204.06
827.5568, 58171.71
828.0389, 58197.05
828.5211, 58211.31
829.0032, 58182.31
829.4853, 58122.14
829.9674, 58097.28
830.4495, 58112.74
830.9316, 58140.95
831.4138, 58173.07
831.8959, 58209.37
832.3780, 58252.58
832.8601, 58301.10
833.3422, 58348.93
833.8243, 58396.45
834.3065, 58438.14
834.7886, 58464.94
835.2707, 58481.52
835.7528, 58506.40
836.2349, 58539.33
836.7170, 58581.40
837.1992, 58637.79
837.6813, 58699.05
838.1634, 58744.38
838.6455, 58773.59
839.1276, 58777.80
839.6097, 58738.23
840.0919, 58692.64
840.5740, 58691.40
841.0561, 58717.50
841.5382, 58733.41
842.0203, 58713.32
842.5024, 58697.38
842.9846, 58702.44
843.4667, 58716.38
843.9488, 58711.79
844.4309, 58679.25
844.9130, 58675.82
845.3951, 58719.40
845.8773, 58784.29
846.3594, 58833.18
846.8415, 58869.08
847.3236, 58901.64
847.8057, 58942.50
848.2878, 58964.24
848.7700, 58914.80
849.2521, 58849.07
849.7342, 58848.00
850.2163, 58978.53
850.6984, 59063.25
851.1805, 59076.11
851.6627, 59062.57
852.1448, 59089.32
852.6269, 59150.30
853.1090, 59192.61
853.5911, 59207.71
854.0732, 59202.04
854.5554, 59153.65
855.0375, 59100.95
855.5196, 59095.92
856.0017, 59175.09
856.4838, 59238.55
856.9659, 59248.06
857.4481, 59251.35
857.9302, 59290.67
858.4123, 59375.16
858.8944, 59430.51
859.3765, 59453.24
859.8586, 59455.17
860.3408, 59440.64
860.8229, 59416.34
861.3050, 59394.73
861.7871, 59377.62
862.2692, 59357.91
862.7513, 59322.89
863.2335, 59291.40
863.7156, 59272.33
864.1977, 59262.91
864.6798, 59292.01
865.1619, 59371.30
865.6440, 59454.81
866.1262, 59506.49
866.6083, 59536.65
867.0904, 59593.87
867.5725, 59674.32
868.0546, 59731.25
868.5367, 59698.23
869.0189, 59660.52
869.5010, 59686.66
869.9831, 59774.43
870.4652, 59845.99
870.9473, 59892.72
871.4294, 59925.57
871.9116, 59951.36
872.3937, 59965.48
872.8758, 59939.48
873.3579, 59876.38
873.8400, 59818.73
874.3221, 59773.76
874.8043, 59758.31
875.2864, 59822.53
875.7685, 59931.38
876.2506, 59993.80
876.7327, 59911.40
877.2148, 59869.64
877.6970, 59938.93
878.1791, 60054.80
878.6612, 60067.41
879.1433, 59964.21
879.6254, 59892.93
880.1075, 59886.93
880.5897, 59928.11
881.0718, 60023.10
881.5539, 60140.60
882.0360, 60217.77
882.5181, 60200.98
883.0002, 60202.80
883.4824, 60294.41
883.9645, 60404.29
884.4466, 60446.91
884.9287, 60387.85
885.4108, 60389.75
885.8929, 60475.32
886.3751, 60571.11
886.8572, 60597.82
887.3393, 60572.43
887.8214, 60518.35
888.3035, 60433.34
888.7856, 60390.67
889.2678, 60476.33
889.7499, 60591.12
890.2320, 60664.78
890.7141, 60691.02
891.1962, 60695.36
891.6783, 60679.03
892.1605, 60642.23
892.6426, 60559.15
893.1247, 60455.47
893.6068, 60451.00
894.0889, 60536.45
894.5710, 60611.02
895.0532, 60582.53
895.5353, 60546.73
896.0174, 60572.86
896.4995, 60655.90
896.9816, 60731.54
897.4637, 60796.11
897.9459, 60849.51
898.4280, 60889.84
898.9101, 60917.87
899.3922, 60931.76
899.8743, 60933.29
900.3564, 60934.98
900.8386, 60943.91
901.3207, 60953.56
901.8028, 60948.05
902.2849, 60942.62
902.7670, 60964.03
903.2491, 61083.18
903.7313, 61135.94
904.2134, 61078.79
904.6955, 60987.65
905.1776, 60978.72
905.6597, 61045.55
906.1418, 61091.04
906.6240, 61097.31
907.1061, 61095.43
907.5882, 61121.57
908.0703, 61152.82
908.5524, 61157.66
909.0345, 61114.21
909.5167, 61101.53
909.9988, 61145.77
910.4809, 61203.06
910.9630, 61244.50
911.4451, 61269.27
911.9272, 61318.82
912.4094, 61393.68
912.8915, 61467.09
913.3736, 61524.32
913.8557, 61564.88
914.3378, 61583.08
914.8199, 61580.54
915.3021, 61572.57
915.7842, 61552.01
916.2663, 61539.71
916.7484, 61543.12
917.2305, 61559.16
917.7126, 61575.46
918.1948, 61592.21
918.6769, 61617.15
919.1590, 61659.74
919.6411, 61703.77
920.1232, 61728.76
920.6053, 61740.68
921.0875, 61750.46
921.5696, 61771.57
922.0517, 61778.44
922.5338, 61768.18
923.0159, 61742.04
923.4980, 61689.38
923.9802, 61605.91
924.4623, 61569.56
924.9444, 61592.28
925.4265, 61647.59
925.9086, 61730.73
926.3907, 61819.38
926.8729, 61873.78
927.3550, 61878.80
927.8371, 61912.30
928.3192, 62056.66
928.8013, 62175.08
929.2834, 62182.54
929.7656, 62079.92
930.2477, 62051.54
930.7298, 62099.12
931.2119, 62160.34
931.6940, 62203.34
932.1761, 62230.01
932.6583, 62236.24
933.1404, 62226.83
933.6225, 62220.53
934.1046, 62258.38
934.5867, 62255.10
935.0688, 62159.22
935.5510, 62026.89
936.0331, 62010.38
936.5152, 62112.17
936.9973, 62204.80
937.4794, 62260.38
937.9615, 62284.14
938.4437, 62248.62
938.9258, 62196.04
939.4079, 62193.38
939.8900, 62292.46
940.3721, 62364.95
940.8542, 62385.05
941.3364, 62374.94
941.8185, 62337.60
942.3006, 62269.75
942.7827, 62251.35
943.2648, 62285.65
943.7469, 62329.75
944.2291, 62355.27
944.7112, 62368.14
945.1933, 62371.37
945.6754, 62366.86
946.1575, 62368.29
946.6396, 62376.52
947.1218, 62401.26
947.6039, 62463.30
948.0860, 62540.86
948.5681, 62523.52
949.0502, 62422.73
949.5323, 62379.75
950.0145, 62492.46
950.4966, 62623.58
950.9787, 62602.13
951.4608, 62517.59
951.9429, 62516.08
952.4250, 62735.70
952.9072, 62885.29
953.3893, 62927.42
953.8714, 62929.39
954.3535, 62971.06
954.8356, 63043.67
955.3177, 63086.95
955.7999, 63093.45
956.2820, 63099.25
956.7640, 63112.91
957.2462, 63153.09
957.7283, 63246.40
958.2104, 63401.67
958.6925, 63535.40
959.1746, 63630.67
959.6567, 63739.02
960.1389, 63889.81
960.6210, 64068.70
961.1031, 64195.04
961.5852, 64293.98
962.0673, 64474.49
962.5494, 64855.94
963.0316, 65266.70
963.5137, 65622.40
963.9958, 65943.01
964.4779, 66275.38
964.9600, 66687.46
965.4421, 66947.95
965.9243, 67032.10
966.4064, 66958.13
966.8885, 66711.77
967.3706, 66330.81
967.8527, 65869.13
968.3348, 65327.17
968.8170, 64839.74
969.2991, 64466.54
969.7812, 64192.95
970.2633, 64023.67
970.7454, 63954.80
971.2275, 63902.61
971.7097, 63871.08
972.1918, 63829.64
972.6739, 63749.31
973.1560, 63657.93
973.6381, 63603.66
974.1202, 63578.39
974.6024, 63559.62
975.0845, 63553.73
975.5666, 63532.74
976.0487, 63464.59
976.5308, 63393.22
977.0129, 63385.78
977.4951, 63444.16
977.9772, 63520.37
978.4593, 63614.74
978.9414, 63682.92
979.4235, 63661.55
979.9056, 63599.90
980.3878, 63548.80
980.8699, 63513.67
981.3520, 63517.99
981.8341, 63598.67
982.3162, 63672.49
982.7983, 63708.48
983.2805, 63706.34
983.7626, 63638.68
984.2447, 63515.87
984.7268, 63427.98
985.2089, 63423.98
985.6910, 63469.08
986.1732, 63583.15
986.6553, 63720.82
987.1374, 63777.56
987.6195, 63684.66
988.1016, 63646.24
988.5837, 63691.91
989.0659, 63769.73
989.5480, 63827.46
990.0301, 63863.13
990.5122, 63867.59
990.9943, 63838.85
991.4764, 63797.40
991.9586, 63722.08
992.4407, 63666.90
992.9228, 63684.11
993.4049, 63767.55
993.8870, 63783.95
994.3691, 63721.61
994.8513, 63674.96
995.3334, 63693.68
995.8155, 63746.46
996.2976, 63786.82
996.7797, 63822.50
997.2618, 63871.26
997.7440, 63997.59
998.2261, 64055.34
998.7082, 63976.86
999.1903, 63865.33
999.6724, 63845.24
1000.155, 63913.44
1000.637, 63945.32
1001.119, 63927.99
1001.601, 63913.63
1002.083, 63940.28
1002.565, 63993.24
1003.047, 64073.35
1003.529, 64177.64
1004.011, 64247.09
1004.494, 64281.57
1004.976, 64271.75
1005.458, 64192.56
1005.940, 64090.66
1006.422, 64098.54
1006.904, 64186.60
1007.386, 64249.92
1007.868, 64243.64
1008.351, 64223.93
1008.833, 64211.40
1009.315, 64205.42
1009.797, 64204.60
1010.279, 64209.86
1010.761, 64210.82
1011.243, 64202.80
1011.725, 64216.55
1012.207, 64308.19
1012.690, 64418.77
1013.172, 64451.09
1013.654, 64414.21
1014.136, 64402.01
1014.618, 64472.02
1015.100, 64539.32
1015.582, 64589.54
1016.064, 64618.44
1016.547, 64603.70
1017.029, 64552.32
1017.511, 64522.30
1017.993, 64532.43
1018.475, 64554.47
1018.957, 64575.33
1019.439, 64590.84
1019.921, 64597.85
1020.403, 64598.52
1020.886, 64573.61
1021.368, 64505.96
1021.850, 64465.40
1022.332, 64516.19
1022.814, 64616.70
1023.296, 64680.61
1023.778, 64709.26
1024.260, 64707.96
1024.743, 64651.53
1025.225, 64597.40
1025.707, 64554.04
1026.189, 64529.11
1026.671, 64541.78
1027.153, 64593.97
1027.635, 64631.15
1028.117, 64645.48
1028.599, 64657.29
1029.082, 64674.63
1029.564, 64707.84
1030.046, 64784.79
1030.528, 64913.02
1031.010, 64973.34
1031.492, 64922.24
1031.974, 64885.06
1032.456, 64923.55
1032.938, 64994.06
1033.421, 64961.88
1033.903, 64863.19
1034.385, 64821.80
1034.867, 64918.95
1035.349, 65016.89
1035.831, 65056.78
1036.313, 65063.11
1036.795, 65053.00
1037.278, 65016.93
1037.760, 65041.03
1038.242, 65132.75
1038.724, 65211.17
1039.206, 65201.38
1039.688, 65152.91
1040.170, 65119.39
1040.652, 65098.64
1041.135, 65064.96
1041.617, 64990.53
1042.099, 64939.17
1042.581, 64915.52
1043.063, 64930.13
1043.545, 65042.42
1044.027, 65210.73
1044.509, 65265.46
1044.991, 65151.62
1045.474, 65070.48
1045.956, 65198.69
1046.438, 65348.10
1046.920, 65379.39
1047.402, 65294.93
1047.884, 65229.06
1048.366, 65180.01
1048.848, 65172.14
1049.330, 65235.54
1049.813, 65323.18
1050.295, 65387.57
1050.777, 65434.16
1051.259, 65473.98
1051.741, 65528.74
1052.223, 65543.95
1052.705, 65506.49
1053.187, 65453.74
1053.670, 65416.87
1054.152, 65395.83
1054.634, 65385.30
1055.116, 65386.92
1055.598, 65418.32
1056.080, 65551.38
1056.562, 65650.95
1057.044, 65619.66
1057.526, 65515.16
1058.009, 65487.70
1058.491, 65541.94
1058.973, 65584.80
1059.455, 65592.66
1059.937, 65594.23
1060.419, 65638.02
1060.901, 65681.87
1061.383, 65669.60
1061.865, 65575.92
1062.348, 65518.44
1062.830, 65513.73
1063.312, 65515.50
1063.794, 65494.26
1064.276, 65468.87
1064.758, 65500.95
1065.240, 65571.10
1065.722, 65621.34
1066.205, 65624.59
1066.687, 65608.49
1067.169, 65588.13
1067.651, 65545.87
1068.133, 65430.95
1068.615, 65241.77
1069.097, 65238.49
1069.579, 65432.13
1070.062, 65592.96
1070.544, 65464.57
1071.026, 65310.39
1071.508, 65365.90
1071.990, 65583.84
1072.472, 65689.84
1072.954, 65630.33
1073.436, 65614.73
1073.918, 65692.95
1074.401, 65800.13
1074.883, 65875.33
1075.365, 65912.61
1075.847, 65881.48
1076.329, 65763.27
1076.811, 65710.97
1077.293, 65833.51
1077.775, 65940.70
1078.257, 65947.46
1078.740, 65883.80
1079.222, 65839.50
1079.704, 65817.83
1080.186, 65839.09
1080.668, 65939.91
1081.150, 66031.80
1081.632, 66057.67
1082.114, 66051.48
1082.596, 66046.55
1083.079, 66039.63
1083.561, 66054.07
1084.043, 66091.03
1084.525, 66130.22
1085.007, 66163.55
1085.489, 66186.34
1085.971, 66189.90
1086.453, 66179.25
1086.936, 66170.30
1087.418, 66173.63
1087.900, 66163.77
1088.382, 66138.14
1088.864, 66100.47
1089.346, 66035.70
1089.828, 65969.95
1090.310, 65961.99
1090.792, 66018.03
1091.275, 66090.25
1091.757, 66236.21
1092.239, 66296.58
1092.721, 66169.60
1093.203, 65952.28
1093.685, 65944.88
1094.167, 66112.60
1094.649, 66246.68
1095.131, 66289.90
1095.614, 66284.19
1096.096, 66192.27
1096.578, 66111.42
1097.060, 66141.40
1097.542, 66286.48
1098.024, 66370.98
1098.506, 66389.55
1098.988, 66407.52
1099.471, 66477.20
1099.953, 66543.52
1100.435, 66523.09
1100.917, 66463.43
1101.399, 66450.30
1101.881, 66543.85
1102.363, 66608.45
1102.845, 66646.09
1103.328, 66648.43
1103.810, 66586.31
1104.292, 66492.48
1104.774, 66432.88
1105.256, 66405.79
1105.738, 66392.63
1106.220, 66408.35
1106.702, 66404.22
1107.184, 66349.07
1107.667, 66293.14
1108.149, 66332.02
1108.631, 66443.59
1109.113, 66514.50
1109.595, 66529.75
1110.077, 66530.76
1110.559, 66526.64
1111.041, 66533.32
1111.523, 66578.94
1112.006, 66642.34
1112.488, 66606.72
1112.970, 66469.45
1113.452, 66443.78
1113.934, 66631.45
1114.416, 66813.36
1114.898, 66720.64
1115.380, 66543.88
1115.863, 66504.06
1116.345, 66651.09
1116.827, 66688.82
1117.309, 66587.88
1117.791, 66518.82
1118.273, 66604.09
1118.755, 66728.19
1119.237, 66704.63
1119.719, 66596.33
1120.202, 66523.24
1120.684, 66512.63
1121.166, 66563.99
1121.648, 66713.70
1122.130, 66846.76
1122.612, 66851.35
1123.094, 66770.93
1123.576, 66713.27
1124.058, 66680.98
1124.541, 66675.94
1125.023, 66748.63
1125.505, 66780.43
1125.987, 66719.14
1126.469, 66631.74
1126.951, 66603.38
1127.433, 66628.45
1127.915, 66682.88
1128.398, 66763.42
1128.880, 66830.83
1129.362, 66857.81
1129.844, 66866.38
1130.326, 66860.11
1130.808, 66848.11
1131.290, 66853.91
1131.772, 66877.94
1132.255, 66905.04
1132.737, 66936.52
1133.219, 66949.23
1133.701, 66921.45
1134.183, 66868.33
1134.665, 66776.44
1135.147, 66651.92
1135.629, 66649.81
1136.111, 66794.23
1136.594, 66913.42
1137.076, 66941.62
1137.558, 66928.61
1138.040, 66924.30
1138.522, 66924.44
1139.004, 66919.78
1139.486, 66895.91
1139.968, 66919.64
1140.450, 67016.86
1140.933, 67085.37
1141.415, 67057.44
1141.897, 66976.95
1142.379, 66902.49
1142.861, 66845.59
1143.343, 66830.10
1143.825, 66887.63
1144.307, 66963.81
1144.790, 67090.52
1145.272, 67170.50
1145.754, 67066.52
1146.236, 66860.27
1146.718, 66828.98
1147.200, 66941.89
1147.682, 67035.17
1148.164, 66995.88
1148.646, 66975.52
1149.129, 67033.20
1149.611, 67096.39
1150.093, 67038.19
1150.575, 66895.42
1151.057, 66917.11
1151.539, 67108.71
1152.021, 67238.38
1152.503, 67095.59
1152.985, 66942.00
1153.468, 66894.96
1153.950, 66921.11
1154.432, 66970.44
1154.914, 67040.22
1155.396, 67071.94
1155.878, 67053.23
1156.360, 67029.77
1156.842, 67011.58
1157.325, 67022.07
1157.807, 67111.16
1158.289, 67246.16
1158.771, 67271.47
1159.253, 67180.66
1159.735, 67152.17
1160.217, 67247.78
1160.699, 67357.37
1161.182, 67367.84
1161.664, 67346.90
1162.146, 67368.29
1162.628, 67438.19
1163.110, 67467.95
1163.592, 67455.70
1164.074, 67418.72
1164.556, 67344.87
1165.038, 67287.84
1165.521, 67348.48
1166.003, 67446.31
1166.485, 67460.65
1166.967, 67339.28
1167.449, 67299.34
1167.931, 67359.93
1168.413, 67415.98
1168.895, 67402.73
1169.377, 67357.41
1169.860, 67321.37
1170.342, 67296.91
1170.824, 67288.81
1171.306, 67297.07
1171.788, 67327.92
1172.270, 67388.59
1172.752, 67449.30
1173.234, 67491.34
1173.717, 67516.50
1174.199, 67538.81
1174.681, 67548.38
1175.163, 67517.41
1175.645, 67340.42
1176.127, 67286.92
1176.609, 67422.35
1177.091, 67573.98
1177.573, 67530.16
1178.056, 67394.03
1178.538, 67412.80
1179.020, 67559.05
1179.502, 67637.00
1179.984, 67487.76
1180.466, 67396.17
1180.948, 67424.05
1181.430, 67490.38
1181.912, 67472.74
1182.395, 67416.78
1182.877, 67462.67
1183.359, 67610.02
1183.841, 67712.88
1184.323, 67664.48
1184.805, 67621.52
1185.287, 67628.17
1185.769, 67651.42
1186.252, 67624.85
1186.734, 67568.55
1187.216, 67548.59
1187.698, 67574.63
1188.180, 67591.57
1188.662, 67542.80
1189.144, 67524.30
1189.626, 67586.88
1190.109, 67681.63
1190.591, 67690.70
1191.073, 67634.38
1191.555, 67574.38
1192.037, 67518.86
1192.519, 67502.06
1193.001, 67590.02
1193.483, 67662.36
1193.965, 67649.64
1194.448, 67591.10
1194.930, 67629.71
1195.412, 67740.11
1195.894, 67824.46
1196.376, 67860.47
1196.858, 67850.20
1197.340, 67744.07
1197.822, 67643.77
1198.304, 67605.15
1198.787, 67617.53
1199.269, 67637.11
1199.751, 67662.42
1200.233, 67683.45
1200.715, 67687.12
1201.197, 67710.63
1201.679, 67795.98
1202.161, 67885.02
1202.644, 67940.16
1203.126, 67963.88
1203.608, 67963.57
1204.090, 67946.04
1204.572, 67951.09
1205.054, 68018.53
1205.536, 68072.44
1206.018, 68056.98
1206.500, 68031.41
1206.983, 68050.43
1207.465, 68106.63
1207.947, 68098.29
1208.429, 68036.66
1208.911, 67989.94
1209.393, 68024.35
1209.875, 68041.95
1210.357, 67971.91
1210.839, 67890.68
1211.322, 67864.79
1211.804, 67890.76
1212.286, 67935.88
1212.768, 67991.51
1213.250, 67995.86
1213.732, 67807.37
1214.214, 67691.32
1214.696, 67834.76
1215.179, 68038.86
1215.661, 68091.50
1216.143, 68011.41
1216.625, 68004.75
1217.107, 68068.89
1217.589, 68112.76
1218.071, 68051.22
1218.553, 68004.23
1219.036, 68044.69
1219.518, 68101.56
1220.000, 68068.42
1220.482, 67965.05
1220.964, 67960.96
1221.446, 68056.96
1221.928, 68158.84
1222.410, 68233.41
1222.892, 68278.33
1223.375, 68286.63
1223.857, 68271.99
1224.339, 68231.45
1224.821, 68179.48
1225.303, 68227.03
1225.785, 68372.02
1226.267, 68470.82
1226.749, 68394.31
1227.231, 68324.47
1227.714, 68322.54
1228.196, 68360.26
1228.678, 68418.36
1229.160, 68479.35
1229.642, 68447.66
1230.124, 68320.20
1230.606, 68220.53
1231.088, 68260.78
1231.571, 68266.67
1232.053, 68154.21
1232.535, 68016.59
1233.017, 68024.95
1233.499, 68135.70
1233.981, 68222.06
1234.463, 68268.89
1234.945, 68298.62
1235.427, 68292.34
1235.910, 68315.05
1236.392, 68413.91
1236.874, 68509.70
1237.356, 68425.17
1237.838, 68235.23
1238.320, 68116.55
1238.802, 68094.57
1239.284, 68126.01
1239.766, 68267.10
1240.249, 68357.15
1240.731, 68344.57
1241.213, 68283.95
1241.695, 68245.33
1242.177, 68233.95
1242.659, 68270.27
1243.141, 68357.34
1243.623, 68437.93
1244.106, 68508.75
1244.588, 68548.45
1245.070, 68540.80
1245.552, 68517.95
1246.034, 68528.63
1246.516, 68561.79
1246.998, 68613.93
1247.480, 68688.22
1247.963, 68693.13
1248.445, 68595.63
1248.927, 68511.25
1249.409, 68481.79
1249.891, 68464.26
1250.373, 68371.36
1250.855, 68267.35
1251.337, 68252.13
1251.819, 68347.82
1252.302, 68394.70
1252.784, 68369.38
1253.266, 68376.42
1253.748, 68462.45
1254.230, 68551.09
1254.712, 68523.00
1255.194, 68460.21
1255.676, 68458.46
1256.158, 68529.23
1256.641, 68595.53
1257.123, 68658.80
1257.605, 68694.14
1258.087, 68687.37
1258.569, 68667.10
1259.051, 68638.77
1259.533, 68628.31
1260.015, 68681.22
1260.498, 68788.06
1260.980, 68840.54
1261.462, 68838.27
1261.944, 68818.13
1262.426, 68785.84
1262.908, 68760.20
1263.390, 68745.27
1263.872, 68754.82
1264.354, 68817.24
1264.837, 68914.74
1265.319, 68932.63
1265.801, 68877.77
1266.283, 68813.38
1266.765, 68753.68
1267.247, 68706.46
1267.729, 68708.09
1268.211, 68687.63
1268.693, 68579.30
1269.176, 68428.70
1269.658, 68431.80
1270.140, 68552.30
1270.622, 68633.34
1271.104, 68631.78
1271.586, 68601.20
1272.068, 68507.59
1272.550, 68466.09
1273.033, 68557.18
1273.515, 68702.64
1273.997, 68676.39
1274.479, 68542.35
1274.961, 68464.67
1275.443, 68487.36
1275.925, 68530.20
1276.407, 68586.93
1276.890, 68635.57
1277.372, 68667.62
1277.854, 68685.20
1278.336, 68675.47
1278.818, 68661.69
1279.300, 68686.80
1279.782, 68764.77
1280.264, 68864.45
1280.746, 69021.30
1281.229, 69059.21
1281.711, 68870.80
1282.193, 68633.65
1282.675, 68569.53
1283.157, 68610.59
1283.639, 68690.02
1284.121, 68804.46
1284.603, 68849.90
1285.085, 68819.21
1285.568, 68786.87
1286.050, 68780.02
1286.532, 68769.22
1287.014, 68679.13
1287.496, 68607.79
1287.978, 68680.15
1288.460, 68865.17
1288.942, 68925.11
1289.425, 68867.98
1289.907, 68844.45
1290.389, 68905.92
1290.871, 68976.05
1291.353, 69007.64
1291.835, 69029.51
1292.317, 69062.88
1292.799, 69100.37
1293.281, 69104.99
1293.764, 69088.29
1294.246, 69105.36
1294.728, 69181.22
1295.210, 69214.69
1295.692, 69125.58
1296.174, 69030.61
1296.656, 68962.45
1297.138, 68921.23
1297.620, 68910.83
1298.103, 68928.10
1298.585, 68973.54
1299.067, 69051.59
1299.549, 69117.46
1300.031, 69172.40
1300.513, 69229.56
1300.995, 69284.78
1301.477, 69299.77
1301.960, 69180.79
1302.442, 69047.24
1302.924, 69081.49
1303.406, 69304.93
1303.888, 69413.02
1304.370, 69377.80
1304.852, 69288.18
1305.334, 69083.26
##END=



