##NAMES=Fluorite
##RRUFFID=R050115
##IDEAL CHEMISTRY=CaF_2_
##LOCALITY=Isthak Valley Iskardu, N.A. Gilgit, Pakistan
##OWNER=RRUFF
##SOURCE=Syed Shah
##DESCRIPTION=Colorless fragment
##STATUS=The identification of this mineral has been confirmed by X-ray diffraction and chemical analysis
##URL=rruff.info/R050115
##MEASURED CHEMISTRY=CaF_2_
109.3450, 6396.041
109.8272, 6413.125
110.3093, 6458.747
110.7914, 6527.327
111.2735, 6595.733
111.7556, 6667.773
112.2377, 6733.234
112.7199, 6785.255
113.2020, 6827.422
113.6841, 6868.661
114.1662, 6918.674
114.6483, 6982.620
115.1304, 7032.831
115.6126, 7050.271
116.0947, 7070.417
116.5768, 7113.343
117.0589, 7182.216
117.5410, 7265.005
118.0231, 7342.852
118.5053, 7411.155
118.9874, 7480.269
119.4695, 7561.855
119.9516, 7640.033
120.4337, 7693.601
120.9158, 7711.720
121.3980, 7705.890
121.8801, 7714.868
122.3622, 7748.679
122.8443, 7780.962
123.3264, 7802.208
123.8085, 7814.386
124.2907, 7824.432
124.7728, 7835.611
125.2549, 7847.924
125.7370, 7860.658
126.2191, 7876.776
126.7012, 7891.587
127.1834, 7901.905
127.6655, 7908.367
128.1476, 7907.133
128.6297, 7881.381
129.1118, 7845.243
129.5939, 7827.150
130.0761, 7850.702
130.5582, 7902.677
131.0403, 7938.673
131.5224, 7946.059
132.0045, 7951.535
132.4866, 7970.982
132.9688, 8001.953
133.4509, 8034.796
133.9330, 8062.979
134.4151, 8086.663
134.8972, 8104.569
135.3793, 8106.764
135.8615, 8110.348
136.3436, 8123.591
136.8257, 8147.685
137.3078, 8178.232
137.7899, 8207.751
138.2720, 8230.181
138.7542, 8264.608
139.2363, 8315.008
139.7184, 8373.662
140.2005, 8436.646
140.6826, 8501.861
141.1647, 8567.325
141.6469, 8626.813
142.1290, 8664.993
142.6111, 8713.998
143.0932, 8786.879
143.5753, 8871.381
144.0574, 8945.882
144.5396, 8995.858
145.0217, 9026.367
145.5038, 9084.106
145.9859, 9188.729
146.4680, 9294.870
146.9502, 9378.257
147.4323, 9442.815
147.9144, 9513.854
148.3965, 9613.035
148.8786, 9740.291
149.3607, 9858.173
149.8429, 9957.583
150.3250, 10053.09
150.8071, 10157.72
151.2892, 10273.44
151.7713, 10395.65
152.2534, 10526.16
152.7356, 10662.21
153.2177, 10792.79
153.6998, 10917.74
154.1819, 11034.12
154.6640, 11133.98
155.1461, 11209.53
155.6283, 11277.20
156.1104, 11349.26
156.5925, 11425.63
157.0746, 11504.32
157.5567, 11591.35
158.0388, 11685.88
158.5210, 11759.47
159.0031, 11798.74
159.4852, 11819.73
159.9673, 11831.86
160.4494, 11835.92
160.9315, 11827.45
161.4137, 11798.76
161.8958, 11744.37
162.3779, 11686.54
162.8600, 11623.68
163.3421, 11561.14
163.8242, 11504.55
164.3064, 11455.39
164.7885, 11407.90
165.2706, 11348.94
165.7527, 11269.14
166.2348, 11192.53
166.7169, 11125.73
167.1991, 11062.10
167.6812, 10994.00
168.1633, 10917.11
168.6454, 10834.94
169.1275, 10760.75
169.6096, 10700.58
170.0918, 10642.95
170.5739, 10585.92
171.0560, 10530.49
171.5381, 10478.97
172.0202, 10432.82
172.5023, 10391.87
172.9845, 10350.36
173.4666, 10305.59
173.9487, 10263.00
174.4308, 10224.16
174.9129, 10188.97
175.3951, 10156.81
175.8772, 10127.53
176.3593, 10101.26
176.8414, 10073.64
177.3235, 10050.99
177.8056, 10022.49
178.2878, 9973.287
178.7699, 9903.457
179.2520, 9837.547
179.7341, 9799.930
180.2162, 9790.681
180.6983, 9784.757
181.1805, 9787.612
181.6626, 9789.104
182.1447, 9775.870
182.6268, 9744.628
183.1089, 9704.977
183.5910, 9659.840
184.0732, 9610.719
184.5553, 9575.816
185.0374, 9566.700
185.5195, 9576.107
186.0016, 9589.323
186.4837, 9609.183
186.9659, 9623.383
187.4480, 9619.425
187.9301, 9598.900
188.4122, 9575.449
188.8943, 9555.912
189.3764, 9540.194
189.8586, 9526.127
190.3407, 9508.049
190.8228, 9497.842
191.3049, 9504.961
191.7870, 9529.662
192.2691, 9561.420
192.7513, 9591.661
193.2334, 9620.180
193.7155, 9648.985
194.1976, 9676.290
194.6797, 9705.748
195.1618, 9741.001
195.6440, 9782.551
196.1261, 9825.505
196.6082, 9863.475
197.0903, 9895.428
197.5724, 9925.786
198.0546, 9960.044
198.5367, 9990.269
199.0188, 10005.60
199.5009, 10003.20
199.9830, 9997.886
200.4651, 10019.11
200.9473, 10084.58
201.4294, 10145.49
201.9115, 10204.90
202.3936, 10254.26
202.8757, 10282.00
203.3578, 10283.11
203.8400, 10268.93
204.3221, 10269.99
204.8042, 10300.87
205.2863, 10329.19
205.7684, 10354.22
206.2505, 10374.27
206.7327, 10388.23
207.2148, 10395.55
207.6969, 10395.79
208.1790, 10386.87
208.6611, 10351.59
209.1432, 10325.73
209.6254, 10316.89
210.1075, 10319.87
210.5896, 10325.90
211.0717, 10329.68
211.5538, 10332.98
212.0359, 10348.86
212.5181, 10397.22
213.0002, 10435.42
213.4823, 10448.53
213.9644, 10443.27
214.4465, 10431.62
214.9286, 10418.29
215.4108, 10405.58
215.8929, 10421.21
216.3750, 10491.21
216.8571, 10556.66
217.3392, 10593.19
217.8214, 10605.20
218.3035, 10608.98
218.7856, 10612.89
219.2677, 10618.27
219.7498, 10635.86
220.2319, 10671.76
220.7141, 10712.77
221.1962, 10755.80
221.6783, 10799.36
222.1604, 10836.96
222.6425, 10860.85
223.1246, 10873.06
223.6068, 10898.66
224.0889, 10954.08
224.5710, 11010.26
225.0531, 11040.61
225.5352, 11045.75
226.0173, 11054.89
226.4995, 11089.84
226.9816, 11149.39
227.4637, 11212.91
227.9458, 11289.98
228.4279, 11364.07
228.9100, 11417.88
229.3922, 11450.20
229.8743, 11475.86
230.3564, 11501.43
230.8385, 11528.76
231.3206, 11564.76
231.8027, 11613.77
232.2849, 11670.64
232.7670, 11732.40
233.2491, 11800.55
233.7312, 11863.90
234.2133, 11913.52
234.6954, 11951.50
235.1776, 11980.16
235.6597, 11978.42
236.1418, 11975.23
236.6239, 12018.90
237.1060, 12120.23
237.5881, 12233.58
238.0703, 12334.34
238.5524, 12423.47
239.0345, 12498.15
239.5166, 12552.20
239.9987, 12592.67
240.4808, 12632.00
240.9630, 12669.83
241.4451, 12708.02
241.9272, 12746.75
242.4093, 12786.81
242.8914, 12830.37
243.3735, 12879.70
243.8557, 12933.16
244.3378, 12990.11
244.8199, 13057.32
245.3020, 13112.52
245.7841, 13137.86
246.2662, 13143.43
246.7484, 13146.48
247.2305, 13152.47
247.7126, 13161.98
248.1947, 13178.27
248.6768, 13206.26
249.1589, 13231.19
249.6411, 13246.66
250.1232, 13253.92
250.6053, 13254.44
251.0874, 13243.93
251.5695, 13227.68
252.0517, 13223.38
252.5338, 13236.01
253.0159, 13252.90
253.4980, 13266.94
253.9801, 13280.47
254.4622, 13298.13
254.9444, 13326.12
255.4265, 13359.46
255.9086, 13378.82
256.3907, 13372.88
256.8728, 13371.22
257.3549, 13400.45
257.8370, 13440.33
258.3192, 13454.13
258.8013, 13408.00
259.2834, 13324.61
259.7655, 13290.88
260.2476, 13339.92
260.7297, 13388.47
261.2119, 13403.45
261.6940, 13397.48
262.1761, 13388.91
262.6582, 13385.78
263.1403, 13388.34
263.6224, 13399.65
264.1046, 13431.32
264.5867, 13452.67
265.0688, 13447.65
265.5509, 13428.75
266.0330, 13414.91
266.5151, 13418.73
266.9973, 13432.51
267.4794, 13428.16
267.9615, 13392.75
268.4436, 13359.39
268.9258, 13339.20
269.4079, 13326.67
269.8900, 13314.48
270.3721, 13298.74
270.8542, 13281.26
271.3363, 13268.08
271.8185, 13261.94
272.3006, 13255.89
272.7827, 13250.49
273.2648, 13243.48
273.7469, 13231.59
274.2290, 13212.68
274.7112, 13189.56
275.1933, 13169.54
275.6754, 13153.28
276.1575, 13139.48
276.6396, 13140.64
277.1217, 13138.84
277.6039, 13108.24
278.0860, 13033.56
278.5681, 12942.12
279.0502, 12902.39
279.5323, 12958.69
280.0144, 12979.85
280.4966, 12911.01
280.9787, 12812.81
281.4608, 12744.25
281.9429, 12729.50
282.4250, 12740.82
282.9071, 12719.27
283.3893, 12637.89
283.8714, 12585.45
284.3535, 12594.63
284.8356, 12626.10
285.3177, 12652.04
285.7998, 12663.52
286.2820, 12660.48
286.7641, 12636.67
287.2462, 12574.83
287.7283, 12538.53
288.2104, 12550.29
288.6925, 12580.24
289.1747, 12612.72
289.6568, 12642.87
290.1389, 12666.09
290.6210, 12673.79
291.1031, 12660.24
291.5852, 12649.78
292.0674, 12645.28
292.5495, 12644.60
293.0316, 12645.64
293.5137, 12648.38
293.9958, 12656.09
294.4779, 12674.39
294.9601, 12705.84
295.4422, 12735.10
295.9243, 12751.07
296.4064, 12771.88
296.8885, 12811.29
297.3706, 12868.03
297.8528, 12926.17
298.3349, 12970.26
298.8170, 12998.80
299.2991, 13023.81
299.7812, 13036.93
300.2633, 13054.24
300.7455, 13084.55
301.2276, 13126.62
301.7097, 13172.30
302.1918, 13214.26
302.6739, 13252.28
303.1560, 13295.77
303.6382, 13348.94
304.1203, 13403.63
304.6024, 13459.45
305.0845, 13514.33
305.5666, 13563.74
306.0487, 13602.62
306.5309, 13632.54
307.0130, 13665.40
307.4951, 13708.61
307.9772, 13743.93
308.4593, 13756.39
308.9414, 13756.93
309.4236, 13767.60
309.9057, 13808.32
310.3878, 13866.14
310.8699, 13895.00
311.3520, 13880.03
311.8341, 13863.25
312.3163, 13860.80
312.7984, 13868.03
313.2805, 13879.55
313.7626, 13894.99
314.2447, 13911.30
314.7268, 13919.65
315.2090, 13913.86
315.6911, 13918.04
316.1732, 13948.15
316.6553, 13990.24
317.1374, 14031.26
317.6195, 14067.09
318.1017, 14100.38
318.5838, 14137.53
319.0659, 14180.95
319.5480, 14213.36
320.0301, 14237.96
320.5122, 14242.24
320.9944, 14209.81
321.4765, 14134.46
321.9586, 14039.86
322.4407, 13950.78
322.9228, 13867.54
323.4049, 13767.71
323.8871, 13641.47
324.3692, 13498.61
324.8513, 13342.22
325.3334, 13170.36
325.8155, 13013.64
326.2976, 12899.22
326.7798, 12820.54
327.2619, 12745.18
327.7440, 12667.55
328.2261, 12590.68
328.7082, 12516.79
329.1903, 12445.88
329.6725, 12376.12
330.1546, 12301.79
330.6367, 12228.02
331.1188, 12168.32
331.6009, 12127.60
332.0830, 12093.33
332.5652, 12057.94
333.0473, 12020.68
333.5294, 11976.53
334.0115, 11911.33
334.4936, 11843.90
334.9757, 11803.11
335.4579, 11793.10
335.9400, 11789.54
336.4221, 11778.49
336.9042, 11759.34
337.3863, 11731.05
337.8684, 11685.47
338.3506, 11636.20
338.8327, 11592.22
339.3148, 11553.98
339.7969, 11523.88
340.2791, 11504.85
340.7612, 11495.40
341.2433, 11487.36
341.7254, 11483.56
342.2075, 11478.01
342.6896, 11469.80
343.1718, 11457.80
343.6539, 11438.30
344.1360, 11408.94
344.6181, 11371.96
345.1002, 11330.67
345.5823, 11272.41
346.0645, 11233.35
346.5466, 11245.37
347.0287, 11276.46
347.5108, 11272.40
347.9929, 11214.35
348.4750, 11137.52
348.9572, 11100.88
349.4393, 11129.91
349.9214, 11136.89
350.4035, 11093.76
350.8856, 11040.64
351.3677, 11015.17
351.8499, 11022.58
352.3320, 11041.78
352.8141, 11051.59
353.2962, 11052.34
353.7783, 11037.95
354.2604, 10988.10
354.7426, 10942.65
355.2247, 10929.88
355.7068, 10943.61
356.1889, 10956.14
356.6710, 10944.80
357.1531, 10910.00
357.6353, 10885.70
358.1174, 10884.94
358.5995, 10879.94
359.0816, 10857.73
359.5637, 10827.09
360.0458, 10804.75
360.5280, 10800.37
361.0101, 10807.33
361.4922, 10800.98
361.9743, 10769.33
362.4564, 10740.29
362.9385, 10716.51
363.4207, 10696.55
363.9028, 10678.75
364.3849, 10662.54
364.8670, 10648.55
365.3491, 10637.27
365.8312, 10627.26
366.3134, 10624.13
366.7955, 10639.86
367.2776, 10653.43
367.7597, 10648.32
368.2418, 10624.99
368.7239, 10600.17
369.2061, 10592.02
369.6882, 10601.88
370.1703, 10609.44
370.6524, 10616.93
371.1345, 10618.75
371.6166, 10610.08
372.0988, 10593.61
372.5809, 10576.57
373.0630, 10564.42
373.5451, 10555.03
374.0272, 10540.54
374.5093, 10518.98
374.9915, 10496.44
375.4736, 10477.22
375.9557, 10458.46
376.4378, 10434.28
376.9199, 10396.33
377.4020, 10361.73
377.8842, 10355.38
378.3663, 10378.76
378.8484, 10408.07
379.3305, 10448.21
379.8126, 10479.55
380.2947, 10471.46
380.7769, 10409.26
381.2590, 10353.27
381.7411, 10352.87
382.2232, 10392.39
382.7053, 10416.34
383.1874, 10408.09
383.6696, 10385.22
384.1517, 10371.38
384.6338, 10367.38
385.1159, 10353.50
385.5980, 10309.31
386.0801, 10259.52
386.5623, 10239.18
387.0444, 10252.99
387.5265, 10270.38
388.0086, 10262.81
388.4907, 10228.99
388.9728, 10210.41
389.4550, 10224.51
389.9371, 10237.76
390.4192, 10230.68
390.9013, 10205.91
391.3834, 10173.46
391.8655, 10137.28
392.3477, 10099.95
392.8298, 10075.40
393.3119, 10071.44
393.7940, 10069.57
394.2761, 10073.85
394.7582, 10076.11
395.2404, 10064.31
395.7225, 10034.54
396.2046, 9996.095
396.6867, 9964.672
397.1688, 9943.935
397.6509, 9923.752
398.1331, 9904.806
398.6152, 9885.826
399.0973, 9866.055
399.5794, 9845.463
400.0615, 9824.128
400.5436, 9801.212
401.0258, 9776.397
401.5079, 9757.774
401.9900, 9757.123
402.4721, 9750.163
402.9542, 9722.188
403.4363, 9683.747
403.9185, 9655.940
404.4006, 9654.649
404.8827, 9664.011
405.3648, 9634.917
405.8469, 9540.837
406.3290, 9477.797
406.8112, 9515.510
407.2933, 9576.860
407.7754, 9589.282
408.2575, 9533.286
408.7396, 9458.799
409.2217, 9412.263
409.7039, 9392.373
410.1860, 9376.958
410.6681, 9361.339
411.1502, 9349.741
411.6324, 9349.056
412.1145, 9358.088
412.5966, 9361.744
413.0787, 9355.416
413.5608, 9339.197
414.0429, 9306.469
414.5251, 9254.031
415.0072, 9212.027
415.4893, 9212.030
415.9714, 9244.821
416.4535, 9252.688
416.9356, 9215.839
417.4178, 9169.396
417.8999, 9130.056
418.3820, 9097.621
418.8641, 9069.087
419.3462, 9042.273
419.8283, 9020.289
420.3105, 9013.347
420.7926, 9046.644
421.2747, 9053.629
421.7568, 9000.247
422.2389, 8930.920
422.7210, 8893.480
423.2032, 8896.835
423.6853, 8914.691
424.1674, 8915.267
424.6495, 8891.948
425.1316, 8881.466
425.6137, 8907.868
426.0959, 8922.180
426.5780, 8896.941
427.0601, 8842.579
427.5422, 8784.486
428.0243, 8737.570
428.5064, 8702.134
428.9886, 8679.487
429.4707, 8674.395
429.9528, 8674.743
430.4349, 8688.382
430.9170, 8699.833
431.3991, 8689.525
431.8813, 8651.610
432.3634, 8608.716
432.8455, 8589.273
433.3276, 8594.247
433.8097, 8603.148
434.2918, 8630.751
434.7740, 8640.608
435.2561, 8590.469
435.7382, 8492.475
436.2203, 8418.911
436.7024, 8425.712
437.1845, 8475.021
437.6667, 8497.457
438.1488, 8487.897
438.6309, 8467.650
439.1130, 8445.267
439.5951, 8422.896
440.0772, 8406.603
440.5594, 8403.606
441.0415, 8398.618
441.5236, 8377.906
442.0057, 8348.352
442.4878, 8329.152
442.9699, 8328.435
443.4521, 8335.884
443.9342, 8334.013
444.4163, 8321.757
444.8984, 8301.736
445.3805, 8259.917
445.8626, 8219.932
446.3448, 8204.641
446.8269, 8212.955
447.3090, 8225.665
447.7911, 8226.908
448.2732, 8216.684
448.7553, 8200.305
449.2375, 8159.749
449.7196, 8133.078
450.2017, 8145.785
450.6838, 8171.960
451.1659, 8173.010
451.6480, 8131.447
452.1302, 8071.050
452.6123, 8035.938
453.0944, 8032.990
453.5765, 8032.136
454.0586, 8029.417
454.5407, 8027.287
455.0229, 8030.604
455.5050, 8037.768
455.9871, 8038.052
456.4692, 8020.080
456.9513, 7988.753
457.4334, 7959.578
457.9156, 7931.597
458.3977, 7910.184
458.8798, 7901.782
459.3619, 7902.081
459.8440, 7904.256
460.3261, 7912.481
460.8083, 7915.539
461.2904, 7901.189
461.7725, 7873.746
462.2546, 7849.545
462.7367, 7835.159
463.2188, 7824.545
463.7010, 7806.139
464.1831, 7774.537
464.6652, 7752.977
465.1473, 7751.442
465.6294, 7756.114
466.1115, 7755.507
466.5937, 7748.986
467.0758, 7742.835
467.5579, 7743.354
468.0400, 7749.792
468.5221, 7743.607
469.0042, 7711.262
469.4864, 7681.708
469.9685, 7661.361
470.4506, 7646.418
470.9327, 7632.317
471.4148, 7617.332
471.8969, 7601.991
472.3791, 7587.007
472.8612, 7572.177
473.3433, 7558.383
473.8254, 7542.728
474.3075, 7530.901
474.7896, 7528.809
475.2718, 7533.988
475.7539, 7537.070
476.2360, 7535.100
476.7181, 7526.447
477.2002, 7502.667
477.6823, 7459.539
478.1645, 7425.600
478.6466, 7420.050
479.1287, 7431.140
479.6108, 7437.330
480.0929, 7440.933
480.5751, 7432.555
481.0572, 7395.900
481.5393, 7346.252
482.0214, 7314.019
482.5035, 7307.242
482.9857, 7310.153
483.4678, 7305.136
483.9499, 7290.267
484.4320, 7278.238
484.9141, 7273.069
485.3962, 7266.747
485.8784, 7254.832
486.3605, 7238.544
486.8426, 7220.325
487.3247, 7201.176
487.8068, 7182.825
488.2889, 7170.526
488.7711, 7166.947
489.2532, 7164.816
489.7353, 7167.984
490.2174, 7168.804
490.6995, 7161.976
491.1816, 7146.919
491.6638, 7126.230
492.1459, 7098.360
492.6280, 7065.220
493.1101, 7041.608
493.5922, 7030.863
494.0743, 7022.756
494.5565, 7012.646
495.0386, 7001.360
495.5207, 6989.962
496.0028, 6978.776
496.4849, 6967.454
496.9670, 6955.892
497.4492, 6944.008
497.9313, 6930.814
498.4134, 6915.126
498.8955, 6900.888
499.3776, 6894.583
499.8597, 6898.551
500.3419, 6897.238
500.8240, 6890.761
501.3061, 6877.946
501.7882, 6853.678
502.2703, 6821.760
502.7524, 6793.223
503.2346, 6774.842
503.7167, 6764.351
504.1988, 6754.345
504.6809, 6747.997
505.1630, 6736.862
505.6451, 6710.927
506.1273, 6686.778
506.6094, 6682.284
507.0915, 6696.822
507.5736, 6709.817
508.0557, 6698.473
508.5378, 6666.085
509.0200, 6645.792
509.5021, 6644.783
509.9842, 6642.070
510.4663, 6618.118
510.9484, 6588.151
511.4305, 6576.344
511.9127, 6594.963
512.3948, 6618.187
512.8769, 6627.834
513.3590, 6625.602
513.8411, 6616.603
514.3232, 6601.632
514.8054, 6581.464
515.2875, 6551.757
515.7696, 6507.841
516.2517, 6492.567
516.7338, 6545.074
517.2159, 6591.691
517.6981, 6581.174
518.1802, 6528.965
518.6623, 6476.765
519.1444, 6445.753
519.6265, 6432.726
520.1086, 6430.582
520.5908, 6445.324
521.0729, 6459.850
521.5550, 6484.376
522.0371, 6499.629
522.5192, 6487.035
523.0013, 6450.646
523.4835, 6413.974
523.9656, 6395.856
524.4477, 6390.886
524.9298, 6378.828
525.4119, 6356.376
525.8940, 6338.417
526.3762, 6334.384
526.8583, 6337.645
527.3404, 6339.359
527.8225, 6338.802
528.3046, 6336.716
528.7867, 6334.004
529.2689, 6329.857
529.7510, 6320.196
530.2331, 6304.323
530.7152, 6293.994
531.1973, 6303.821
531.6794, 6334.309
532.1616, 6337.873
532.6437, 6286.097
533.1258, 6244.405
533.6079, 6242.789
534.0900, 6259.363
534.5721, 6262.185
535.0543, 6240.598
535.5364, 6210.708
536.0185, 6196.017
536.5006, 6199.486
536.9827, 6203.458
537.4648, 6210.348
537.9470, 6214.628
538.4291, 6212.790
538.9112, 6206.696
539.3933, 6199.861
539.8754, 6191.417
540.3575, 6186.264
540.8397, 6195.868
541.3218, 6218.053
541.8039, 6228.021
542.2860, 6215.673
542.7681, 6192.405
543.2502, 6171.363
543.7324, 6151.641
544.2145, 6139.714
544.6966, 6138.195
545.1787, 6143.347
545.6608, 6159.849
546.1429, 6181.589
546.6251, 6188.885
547.1072, 6168.855
547.5893, 6133.869
548.0714, 6120.167
548.5535, 6142.671
549.0356, 6160.565
549.5178, 6173.418
549.9999, 6180.141
550.4820, 6180.453
550.9641, 6174.064
551.4462, 6159.255
551.9283, 6125.745
552.4105, 6086.454
552.8926, 6085.484
553.3747, 6132.490
553.8568, 6169.245
554.3389, 6168.088
554.8210, 6145.072
555.3032, 6124.996
555.7853, 6108.108
556.2674, 6093.793
556.7495, 6076.227
557.2316, 6063.865
557.7137, 6074.257
558.1959, 6105.729
558.6780, 6131.065
559.1601, 6129.116
559.6422, 6103.954
560.1243, 6083.951
560.6064, 6072.839
561.0886, 6062.492
561.5707, 6049.168
562.0528, 6038.318
562.5349, 6035.324
563.0170, 6040.740
563.4991, 6050.781
563.9813, 6066.376
564.4634, 6085.183
564.9455, 6085.897
565.4276, 6060.798
565.9097, 6035.974
566.3918, 6021.256
566.8740, 6014.991
567.3561, 6019.013
567.8382, 6039.627
568.3203, 6050.603
568.8024, 6027.030
569.2845, 5987.356
569.7667, 5963.477
570.2488, 5960.459
570.7309, 5965.415
571.2130, 5968.129
571.6951, 5968.795
572.1772, 5972.014
572.6594, 5983.418
573.1415, 5990.179
573.6236, 5989.242
574.1057, 5982.843
574.5878, 5970.163
575.0699, 5952.591
575.5521, 5938.936
576.0342, 5940.393
576.5163, 5956.197
576.9984, 5970.851
577.4805, 5988.028
577.9626, 5996.770
578.4448, 5984.316
578.9269, 5962.634
579.4090, 5948.659
579.8911, 5948.568
580.3732, 5946.316
580.8553, 5926.499
581.3375, 5899.373
581.8196, 5884.756
582.3017, 5886.040
582.7838, 5892.872
583.2659, 5896.566
583.7480, 5897.362
584.2302, 5901.648
584.7123, 5917.592
585.1944, 5926.666
585.6765, 5920.987
586.1587, 5909.217
586.6408, 5901.707
587.1229, 5900.024
587.6050, 5895.823
588.0872, 5873.936
588.5693, 5837.763
589.0514, 5829.504
589.5335, 5862.126
590.0156, 5892.564
590.4977, 5896.807
590.9799, 5886.843
591.4620, 5878.143
591.9441, 5872.280
592.4262, 5867.783
592.9083, 5864.087
593.3904, 5861.232
593.8726, 5859.728
594.3547, 5859.505
594.8368, 5858.666
595.3189, 5855.212
595.8010, 5849.886
596.2831, 5848.932
596.7653, 5860.635
597.2474, 5866.208
597.7295, 5860.137
598.2116, 5849.691
598.6937, 5839.455
599.1758, 5831.005
599.6580, 5825.960
600.1401, 5823.691
600.6222, 5826.013
601.1043, 5844.314
601.5864, 5883.931
602.0685, 5913.684
602.5507, 5916.229
603.0328, 5902.517
603.5149, 5892.551
603.9970, 5887.614
604.4791, 5881.074
604.9612, 5870.454
605.4434, 5857.511
605.9255, 5837.812
606.4076, 5815.538
606.8897, 5810.091
607.3718, 5836.207
607.8539, 5881.408
608.3361, 5900.887
608.8182, 5873.942
609.3003, 5862.004
609.7824, 5880.518
610.2645, 5905.740
610.7466, 5927.923
611.2288, 5944.265
611.7109, 5950.160
612.1930, 5935.126
612.6751, 5914.905
613.1572, 5903.105
613.6393, 5901.895
614.1215, 5955.098
614.6036, 6099.637
615.0857, 6260.626
615.5678, 6331.642
616.0499, 6299.442
616.5320, 6241.226
617.0142, 6124.115
617.4963, 6017.347
617.9784, 5961.000
618.4605, 5942.813
618.9426, 5935.277
619.4247, 5926.577
619.9069, 5922.702
620.3890, 5936.860
620.8711, 5972.766
621.3532, 5998.492
621.8353, 6009.943
622.3174, 6013.925
622.7996, 6008.178
623.2817, 5999.089
623.7638, 6000.904
624.2459, 6023.125
624.7280, 6045.523
625.2101, 6055.378
625.6923, 6055.237
626.1744, 6045.907
626.6565, 6028.060
627.1386, 6016.568
627.6207, 6027.064
628.1028, 6058.566
628.5850, 6078.899
629.0671, 6073.152
629.5492, 6074.053
630.0313, 6095.301
630.5134, 6119.232
630.9955, 6125.863
631.4777, 6114.009
631.9598, 6102.916
632.4419, 6112.644
632.9240, 6134.785
633.4061, 6142.773
633.8882, 6134.753
634.3704, 6129.809
634.8525, 6137.618
635.3346, 6152.210
635.8167, 6160.854
636.2988, 6159.899
636.7809, 6167.504
637.2631, 6199.241
637.7452, 6229.595
638.2273, 6234.034
638.7094, 6221.362
639.1915, 6219.902
639.6736, 6245.450
640.1558, 6281.987
640.6379, 6294.133
641.1200, 6274.491
641.6021, 6269.734
642.0842, 6295.916
642.5663, 6323.803
643.0485, 6336.141
643.5306, 6336.405
644.0127, 6332.797
644.4948, 6324.833
644.9769, 6317.405
645.4590, 6313.151
645.9412, 6311.967
646.4233, 6313.429
646.9054, 6317.479
647.3875, 6326.053
647.8696, 6342.857
648.3517, 6367.126
648.8339, 6376.559
649.3160, 6352.752
649.7981, 6338.740
650.2802, 6352.319
650.7623, 6370.878
651.2444, 6371.203
651.7266, 6352.174
652.2087, 6335.507
652.6908, 6334.566
653.1729, 6346.841
653.6550, 6376.952
654.1371, 6423.744
654.6193, 6444.763
655.1014, 6414.124
655.5835, 6364.103
656.0656, 6350.923
656.5477, 6394.030
657.0298, 6419.005
657.5120, 6412.936
657.9941, 6401.453
658.4762, 6392.626
658.9583, 6388.855
659.4404, 6394.056
659.9225, 6409.955
660.4047, 6427.977
660.8868, 6432.962
661.3689, 6426.334
661.8510, 6434.000
662.3331, 6463.007
662.8152, 6493.506
663.2974, 6517.541
663.7795, 6532.567
664.2616, 6532.273
664.7437, 6504.815
665.2258, 6483.775
665.7079, 6480.762
666.1901, 6488.389
666.6722, 6504.258
667.1543, 6524.618
667.6364, 6538.430
668.1185, 6536.635
668.6006, 6526.680
669.0828, 6533.858
669.5649, 6566.599
670.0470, 6585.133
670.5291, 6572.935
671.0112, 6554.763
671.4933, 6546.381
671.9755, 6547.168
672.4576, 6554.197
672.9397, 6570.175
673.4218, 6588.479
673.9039, 6610.061
674.3860, 6629.592
674.8682, 6634.485
675.3503, 6622.442
675.8324, 6605.978
676.3145, 6598.560
676.7966, 6599.468
677.2787, 6588.734
677.7609, 6546.808
678.2430, 6525.896
678.7251, 6558.003
679.2072, 6600.172
679.6893, 6613.793
680.1714, 6596.679
680.6536, 6577.301
681.1357, 6568.570
681.6178, 6566.803
682.0999, 6569.344
682.5820, 6575.224
683.0641, 6582.899
683.5463, 6592.646
684.0284, 6596.792
684.5105, 6581.473
684.9926, 6539.066
685.4747, 6515.444
685.9568, 6530.358
686.4390, 6541.858
686.9211, 6538.729
687.4032, 6525.823
687.8853, 6507.499
688.3674, 6484.858
688.8495, 6464.939
689.3317, 6458.215
689.8138, 6456.404
690.2959, 6439.788
690.7780, 6408.194
691.2601, 6378.863
691.7422, 6360.486
692.2244, 6349.828
692.7065, 6340.958
693.1886, 6337.056
693.6707, 6327.177
694.1528, 6298.555
694.6349, 6277.587
695.1171, 6285.257
695.5992, 6306.951
696.0813, 6317.248
696.5634, 6306.591
697.0455, 6285.685
697.5276, 6263.826
698.0098, 6240.809
698.4919, 6214.429
698.9740, 6184.001
699.4561, 6157.404
699.9382, 6140.063
700.4203, 6129.440
700.9025, 6117.298
701.3846, 6097.317
701.8667, 6086.304
702.3488, 6098.027
702.8309, 6106.434
703.3130, 6091.471
703.7952, 6060.518
704.2773, 6032.369
704.7594, 6015.048
705.2415, 6005.098
705.7236, 6000.969
706.2057, 6001.002
706.6879, 5997.464
707.1700, 5989.894
707.6521, 5974.039
708.1342, 5942.647
708.6163, 5901.408
709.0984, 5876.684
709.5806, 5886.780
710.0627, 5886.603
710.5448, 5865.654
711.0269, 5839.798
711.5090, 5820.323
711.9911, 5806.025
712.4733, 5789.872
712.9554, 5767.842
713.4375, 5743.247
713.9196, 5718.081
714.4017, 5693.625
714.8839, 5681.766
715.3660, 5687.328
715.8481, 5692.049
716.3302, 5682.573
716.8123, 5660.192
717.2944, 5632.511
717.7766, 5580.813
718.2587, 5550.296
718.7408, 5562.066
719.2229, 5583.347
719.7050, 5594.667
720.1871, 5592.820
720.6693, 5577.351
721.1514, 5544.121
721.6335, 5506.612
722.1156, 5487.649
722.5977, 5483.682
723.0798, 5470.193
723.5620, 5440.852
724.0441, 5411.503
724.5262, 5394.390
725.0083, 5388.551
725.4904, 5387.383
725.9725, 5407.441
726.4547, 5409.120
726.9368, 5367.112
727.4189, 5323.170
727.9011, 5314.106
728.3832, 5332.460
728.8653, 5344.064
729.3474, 5329.889
729.8295, 5303.273
730.3116, 5276.334
730.7938, 5251.326
731.2759, 5242.906
731.7580, 5255.953
732.2401, 5264.253
732.7222, 5244.087
733.2043, 5201.177
733.6865, 5172.272
734.1686, 5170.168
734.6507, 5164.686
735.1328, 5148.303
735.6149, 5133.233
736.0970, 5129.338
736.5792, 5134.057
737.0613, 5139.390
737.5434, 5145.667
738.0255, 5142.271
738.5076, 5109.081
738.9897, 5057.231
739.4719, 5015.753
739.9540, 4989.789
740.4361, 4983.613
740.9182, 5006.126
741.4003, 5046.370
741.8824, 5053.394
742.3646, 5002.425
742.8467, 4962.626
743.3288, 4937.159
743.8109, 4924.139
744.2930, 4934.142
744.7751, 4955.097
745.2573, 4956.994
745.7394, 4921.539
746.2215, 4883.302
746.7036, 4869.350
747.1857, 4871.474
747.6678, 4877.080
748.1500, 4883.697
748.6321, 4890.095
749.1142, 4896.437
749.5963, 4899.114
750.0784, 4884.745
750.5605, 4841.657
751.0427, 4815.447
751.5248, 4821.474
752.0069, 4831.063
752.4890, 4830.213
752.9711, 4822.070
753.4532, 4813.145
753.9354, 4805.270
754.4175, 4795.215
754.8996, 4778.954
755.3817, 4761.224
755.8638, 4744.122
756.3459, 4730.314
756.8281, 4728.537
757.3102, 4744.167
757.7923, 4767.263
758.2744, 4779.229
758.7565, 4779.067
759.2386, 4778.194
759.7208, 4776.622
760.2029, 4775.572
760.6850, 4777.110
761.1671, 4779.037
761.6492, 4776.934
762.1313, 4769.578
762.6135, 4761.879
763.0956, 4753.598
763.5777, 4746.572
764.0598, 4746.135
764.5419, 4747.146
765.0240, 4735.181
765.5062, 4705.258
765.9883, 4678.924
766.4704, 4689.837
766.9525, 4728.877
767.4346, 4745.583
767.9167, 4736.850
768.3989, 4720.478
768.8810, 4699.963
769.3631, 4682.444
769.8452, 4682.379
770.3273, 4709.518
770.8094, 4716.003
771.2916, 4682.897
771.7737, 4651.656
772.2558, 4633.696
772.7379, 4627.676
773.2200, 4636.119
773.7021, 4657.477
774.1843, 4674.475
774.6664, 4673.870
775.1485, 4661.697
775.6306, 4642.562
776.1127, 4619.238
776.5948, 4605.364
777.0770, 4605.626
777.5591, 4610.805
778.0412, 4610.452
778.5233, 4604.671
779.0054, 4601.989
779.4875, 4608.261
779.9697, 4607.478
780.4518, 4587.957
780.9339, 4566.980
781.4160, 4559.705
781.8981, 4564.096
782.3802, 4564.872
782.8624, 4556.355
783.3445, 4543.445
783.8266, 4525.442
784.3087, 4506.780
784.7908, 4493.629
785.2729, 4487.037
785.7551, 4487.106
786.2372, 4496.248
786.7193, 4506.364
787.2014, 4488.811
787.6835, 4438.482
788.1656, 4417.038
788.6478, 4445.884
789.1299, 4478.267
789.6120, 4482.374
790.0941, 4462.756
790.5762, 4438.135
791.0583, 4402.692
791.5405, 4372.624
792.0226, 4347.504
792.5047, 4330.805
792.9868, 4330.212
793.4689, 4338.866
793.9510, 4341.882
794.4332, 4332.864
794.9153, 4322.218
795.3974, 4322.150
795.8795, 4328.310
796.3616, 4330.306
796.8438, 4327.434
797.3259, 4320.612
797.8080, 4310.292
798.2901, 4296.007
798.7722, 4275.389
799.2543, 4244.842
799.7365, 4227.202
800.2186, 4235.358
800.7007, 4238.584
801.1828, 4216.675
801.6649, 4192.391
802.1470, 4197.305
802.6292, 4233.030
803.1113, 4250.904
803.5934, 4218.691
804.0755, 4175.785
804.5576, 4147.991
805.0397, 4130.667
805.5219, 4114.623
806.0040, 4097.697
806.4861, 4082.457
806.9682, 4071.519
807.4503, 4063.514
807.9324, 4055.143
808.4146, 4046.559
808.8967, 4033.411
809.3788, 4013.494
809.8609, 3992.094
810.3430, 3974.048
810.8251, 3958.520
811.3073, 3939.592
811.7894, 3907.052
812.2715, 3885.941
812.7536, 3886.345
813.2357, 3891.098
813.7178, 3893.742
814.2000, 3890.991
814.6821, 3876.416
815.1642, 3845.027
815.6463, 3813.941
816.1284, 3801.479
816.6105, 3796.353
817.0927, 3779.146
817.5748, 3750.585
818.0569, 3720.984
818.5390, 3695.062
819.0211, 3673.830
819.5032, 3659.653
819.9854, 3653.015
820.4675, 3646.508
820.9496, 3640.569
821.4317, 3633.941
821.9138, 3628.460
822.3959, 3620.156
822.8781, 3600.278
823.3602, 3568.135
823.8423, 3546.779
824.3244, 3550.866
824.8065, 3551.839
825.2886, 3532.600
825.7708, 3508.297
826.2529, 3498.621
826.7350, 3502.942
827.2171, 3503.631
827.6992, 3489.246
828.1813, 3466.691
828.6635, 3442.898
829.1456, 3418.784
829.6277, 3396.101
830.1098, 3375.379
830.5919, 3362.020
831.0740, 3361.612
831.5562, 3367.605
832.0383, 3358.828
832.5204, 3327.449
833.0025, 3308.786
833.4846, 3309.366
833.9667, 3315.998
834.4489, 3333.724
834.9310, 3348.821
835.4131, 3335.383
835.8952, 3283.331
836.3773, 3242.567
836.8594, 3231.869
837.3416, 3228.793
837.8237, 3225.621
838.3058, 3218.155
838.7879, 3196.499
839.2700, 3160.912
839.7521, 3132.713
840.2343, 3136.588
840.7164, 3154.823
841.1985, 3151.266
841.6806, 3130.440
842.1627, 3116.326
842.6448, 3114.757
843.1270, 3122.397
843.6091, 3139.464
844.0912, 3160.829
844.5733, 3155.943
845.0554, 3110.381
845.5375, 3077.349
846.0197, 3067.752
846.5018, 3066.051
846.9839, 3068.067
847.4660, 3069.967
847.9481, 3063.041
848.4302, 3044.529
848.9124, 3022.505
849.3945, 2990.250
849.8766, 2963.690
850.3587, 2957.599
850.8408, 2964.250
851.3229, 2969.308
851.8051, 2968.254
852.2872, 2965.052
852.7693, 2963.654
853.2514, 2962.256
853.7335, 2956.521
854.2156, 2947.260
854.6978, 2939.678
855.1799, 2935.328
855.6620, 2927.927
856.1441, 2906.631
856.6262, 2878.569
857.1083, 2897.833
857.5905, 2984.244
858.0726, 3059.124
858.5547, 3131.919
859.0368, 3161.265
859.5189, 3085.146
860.0010, 2942.753
860.4832, 2850.486
860.9653, 2836.783
861.4474, 2825.486
861.9295, 2801.037
862.4116, 2777.011
862.8937, 2760.656
863.3759, 2751.537
863.8580, 2748.568
864.3401, 2751.359
864.8222, 2755.639
865.3043, 2760.708
865.7864, 2763.654
866.2686, 2757.953
866.7507, 2746.479
867.2328, 2739.738
867.7149, 2740.258
868.1971, 2739.345
868.6792, 2727.233
869.1613, 2708.342
869.6434, 2703.730
870.1255, 2716.586
870.6077, 2718.767
871.0898, 2701.213
871.5719, 2682.737
872.0540, 2677.860
872.5361, 2682.376
873.0182, 2681.299
873.5004, 2670.359
873.9825, 2661.384
874.4646, 2656.281
874.9467, 2651.052
875.4288, 2643.873
875.9109, 2635.446
876.3931, 2626.687
876.8752, 2617.739
877.3573, 2609.400
877.8394, 2600.402
878.3215, 2593.777
878.8036, 2595.223
879.2858, 2599.621
879.7679, 2595.924
880.2500, 2583.673
880.7321, 2575.200
881.2142, 2581.663
881.6964, 2593.888
882.1785, 2592.023
882.6606, 2578.350
883.1427, 2570.207
883.6248, 2570.336
884.1069, 2570.377
884.5891, 2565.542
885.0712, 2556.473
885.5533, 2543.583
886.0354, 2524.123
886.5175, 2512.496
886.9996, 2514.500
887.4818, 2514.847
887.9639, 2505.615
888.4460, 2493.167
888.9281, 2485.155
889.4102, 2481.681
889.8923, 2476.983
890.3745, 2463.038
890.8566, 2456.727
891.3387, 2472.521
891.8208, 2492.322
892.3029, 2498.383
892.7850, 2491.941
893.2672, 2484.692
893.7493, 2481.861
894.2314, 2480.010
894.7135, 2476.613
895.1956, 2471.988
895.6777, 2466.394
896.1599, 2459.995
896.6420, 2451.755
897.1241, 2441.358
897.6062, 2434.935
898.0883, 2444.675
898.5704, 2466.116
899.0526, 2468.207
899.5347, 2449.565
900.0168, 2437.090
900.4989, 2439.996
900.9810, 2444.738
901.4631, 2436.838
901.9453, 2419.213
902.4274, 2414.075
902.9095, 2431.240
903.3916, 2440.990
903.8737, 2434.394
904.3558, 2427.323
904.8380, 2427.561
905.3201, 2432.905
905.8022, 2440.020
906.2843, 2449.506
906.7664, 2456.547
907.2485, 2460.803
907.7307, 2461.425
908.2128, 2455.312
908.6949, 2446.765
909.1770, 2442.877
909.6591, 2443.514
910.1412, 2439.187
910.6234, 2416.141
911.1055, 2396.852
911.5876, 2413.849
912.0697, 2448.039
912.5518, 2461.663
913.0339, 2453.054
913.5161, 2442.950
913.9982, 2442.769
914.4803, 2447.965
914.9624, 2452.332
915.4445, 2455.787
915.9266, 2456.461
916.4088, 2453.968
916.8909, 2457.353
917.3730, 2472.206
917.8551, 2485.004
918.3372, 2476.659
918.8193, 2449.257
919.3015, 2444.923
919.7836, 2481.319
920.2657, 2500.271
920.7478, 2481.473
921.2299, 2457.014
921.7120, 2446.675
922.1942, 2447.345
922.6763, 2453.132
923.1584, 2469.593
923.6405, 2476.406
924.1226, 2455.603
924.6047, 2441.254
925.0869, 2457.835
925.5690, 2486.857
926.0511, 2504.760
926.5332, 2507.852
927.0153, 2504.997
927.4974, 2498.118
927.9796, 2489.575
928.4617, 2474.883
928.9438, 2463.077
929.4259, 2472.105
929.9080, 2497.938
930.3901, 2518.788
930.8723, 2522.954
931.3544, 2519.440
931.8365, 2519.164
932.3186, 2520.227
932.8007, 2514.990
933.2828, 2504.768
933.7650, 2502.015
934.2471, 2511.275
934.7292, 2524.406
935.2113, 2532.878
935.6934, 2537.188
936.1755, 2538.704
936.6577, 2536.254
937.1398, 2540.679
937.6219, 2556.237
938.1040, 2571.719
938.5861, 2580.121
939.0682, 2582.593
939.5504, 2581.417
940.0325, 2573.664
940.5146, 2570.958
940.9967, 2578.395
941.4788, 2584.148
941.9609, 2582.388
942.4431, 2578.743
942.9252, 2578.583
943.4073, 2581.969
943.8894, 2586.854
944.3715, 2598.295
944.8536, 2603.944
945.3358, 2591.976
945.8179, 2580.187
946.3000, 2585.113
946.7821, 2601.083
947.2642, 2611.604
947.7463, 2610.472
948.2285, 2615.292
948.7106, 2650.608
949.1927, 2684.874
949.6748, 2679.869
950.1569, 2653.478
950.6390, 2638.646
951.1212, 2642.395
951.6033, 2655.522
952.0854, 2675.708
952.5675, 2692.548
953.0496, 2682.277
953.5317, 2657.080
954.0139, 2654.600
954.4960, 2676.268
954.9781, 2701.313
955.4602, 2719.998
955.9423, 2731.923
956.4244, 2733.636
956.9066, 2727.229
957.3887, 2732.922
957.8708, 2752.008
958.3529, 2762.332
958.8350, 2755.808
959.3171, 2750.534
959.7993, 2763.649
960.2814, 2788.219
960.7635, 2797.079
961.2456, 2781.808
961.7277, 2776.581
962.2098, 2785.290
962.6920, 2799.359
963.1741, 2823.764
963.6562, 2845.062
964.1383, 2838.557
964.6204, 2799.765
965.1025, 2785.701
965.5847, 2817.945
966.0668, 2845.053
966.5489, 2855.240
967.0310, 2860.173
967.5131, 2865.670
967.9952, 2872.821
968.4774, 2883.471
968.9595, 2899.409
969.4416, 2913.108
969.9237, 2922.480
970.4058, 2928.364
970.8879, 2933.090
971.3701, 2933.606
971.8522, 2920.688
972.3343, 2897.306
972.8164, 2884.613
973.2985, 2899.292
973.7806, 2918.281
974.2628, 2920.481
974.7449, 2917.799
975.2270, 2929.422
975.7091, 2950.310
976.1912, 2960.791
976.6733, 2953.808
977.1555, 2941.712
977.6376, 2932.114
978.1197, 2928.009
978.6018, 2937.968
979.0839, 2957.923
979.5660, 2976.801
980.0482, 2991.733
980.5303, 3000.546
981.0124, 3001.049
981.4945, 2997.917
981.9766, 3001.646
982.4587, 3010.290
982.9409, 3006.263
983.4230, 2988.840
983.9051, 2981.004
984.3872, 2991.662
984.8693, 3008.765
985.3514, 3019.103
985.8336, 3024.865
986.3157, 3040.150
986.7978, 3067.893
987.2799, 3087.211
987.7620, 3094.128
988.2441, 3097.016
988.7263, 3098.578
989.2084, 3101.664
989.6905, 3112.830
990.1726, 3134.710
990.6547, 3144.823
991.1368, 3135.373
991.6190, 3129.205
992.1011, 3134.793
992.5832, 3141.135
993.0653, 3135.016
993.5474, 3122.258
994.0295, 3126.043
994.5117, 3158.226
994.9938, 3181.562
995.4759, 3184.949
995.9580, 3190.815
996.4401, 3215.094
996.9222, 3241.416
997.4044, 3246.774
997.8865, 3232.925
998.3686, 3231.268
998.8507, 3262.345
999.3328, 3287.427
999.8149, 3286.708
1000.297, 3284.307
1000.779, 3303.078
1001.261, 3331.008
1001.743, 3341.935
1002.226, 3329.774
1002.708, 3323.197
1003.190, 3337.964
1003.672, 3359.821
1004.154, 3384.299
1004.636, 3407.535
1005.118, 3424.060
1005.600, 3435.257
1006.082, 3447.675
1006.565, 3464.664
1007.047, 3479.428
1007.529, 3482.067
1008.011, 3483.516
1008.493, 3500.225
1008.975, 3524.157
1009.457, 3536.324
1009.939, 3535.037
1010.422, 3536.337
1010.904, 3551.593
1011.386, 3571.586
1011.868, 3585.014
1012.350, 3594.646
1012.832, 3607.496
1013.314, 3622.136
1013.796, 3627.562
1014.279, 3621.223
1014.761, 3622.444
1015.243, 3654.904
1015.725, 3701.657
1016.207, 3723.181
1016.689, 3725.888
1017.171, 3736.924
1017.653, 3759.015
1018.135, 3779.299
1018.618, 3790.987
1019.100, 3800.262
1019.582, 3816.928
1020.064, 3838.767
1020.546, 3852.907
1021.028, 3859.747
1021.510, 3869.713
1021.992, 3885.087
1022.474, 3902.481
1022.957, 3919.624
1023.439, 3936.849
1023.921, 3954.760
1024.403, 3973.320
1024.885, 3992.524
1025.367, 4012.178
1025.849, 4035.248
1026.331, 4064.662
1026.813, 4089.128
1027.296, 4095.718
1027.778, 4091.150
1028.260, 4102.957
1028.742, 4135.250
1029.224, 4164.920
1029.706, 4193.364
1030.188, 4210.484
1030.670, 4208.066
1031.153, 4200.465
1031.635, 4205.857
1032.117, 4223.013
1032.599, 4232.340
1033.081, 4223.426
1033.563, 4236.653
1034.045, 4288.783
1034.527, 4340.203
1035.010, 4370.979
1035.492, 4388.287
1035.974, 4401.569
1036.456, 4409.533
1036.938, 4427.574
1037.420, 4468.529
1037.902, 4495.532
1038.384, 4486.359
1038.866, 4481.829
1039.349, 4514.362
1039.831, 4567.846
1040.313, 4605.317
1040.795, 4620.931
1041.277, 4642.220
1041.759, 4672.670
1042.241, 4704.198
1042.723, 4743.981
1043.205, 4776.510
1043.688, 4781.508
1044.170, 4769.978
1044.652, 4778.727
1045.134, 4821.744
1045.616, 4853.554
1046.098, 4864.821
1046.580, 4871.475
1047.062, 4865.599
1047.545, 4867.872
1048.027, 4911.128
1048.509, 4983.531
1048.991, 5022.288
1049.473, 4993.851
1049.955, 4981.035
1050.437, 5002.094
1050.919, 5036.623
1051.401, 5088.339
1051.884, 5139.275
1052.366, 5167.203
1052.848, 5172.580
1053.330, 5176.164
1053.812, 5178.716
1054.294, 5185.669
1054.776, 5200.172
1055.258, 5217.643
1055.740, 5236.988
1056.223, 5256.624
1056.705, 5273.634
1057.187, 5287.999
1057.669, 5305.495
1058.151, 5332.628
1058.633, 5356.507
1059.115, 5368.607
1059.597, 5379.696
1060.080, 5397.875
1060.562, 5420.555
1061.044, 5442.478
1061.526, 5462.617
1062.008, 5483.591
1062.490, 5508.074
1062.972, 5531.366
1063.454, 5554.695
1063.937, 5573.093
1064.419, 5577.584
1064.901, 5575.370
1065.383, 5582.492
1065.865, 5603.126
1066.347, 5622.292
1066.829, 5632.387
1067.311, 5641.866
1067.793, 5649.072
1068.276, 5662.616
1068.758, 5695.919
1069.240, 5741.391
1069.722, 5779.175
1070.204, 5803.284
1070.686, 5825.572
1071.168, 5857.907
1071.650, 5881.820
1072.132, 5876.437
1072.615, 5864.618
1073.097, 5872.281
1073.579, 5895.373
1074.061, 5914.546
1074.543, 5923.357
1075.025, 5932.499
1075.507, 5946.598
1075.989, 5962.819
1076.472, 5977.385
1076.954, 5994.675
1077.436, 6022.383
1077.918, 6057.478
1078.400, 6088.645
1078.882, 6111.731
1079.364, 6134.038
1079.846, 6163.119
1080.328, 6187.775
1080.811, 6193.974
1081.293, 6196.074
1081.775, 6207.746
1082.257, 6231.715
1082.739, 6272.064
1083.221, 6338.370
1083.703, 6391.623
1084.185, 6402.977
1084.668, 6407.526
1085.150, 6425.784
1085.632, 6452.088
1086.114, 6479.021
1086.596, 6505.726
1087.078, 6534.546
1087.560, 6568.888
1088.042, 6597.667
1088.525, 6606.108
1089.007, 6618.168
1089.489, 6655.123
1089.971, 6700.569
1090.453, 6733.557
1090.935, 6754.340
1091.417, 6776.591
1091.899, 6799.159
1092.381, 6836.789
1092.864, 6920.816
1093.346, 6993.446
1093.828, 7004.741
1094.310, 6993.907
1094.792, 7008.557
1095.274, 7049.820
1095.756, 7092.723
1096.238, 7128.634
1096.720, 7169.953
1097.203, 7228.566
1097.685, 7284.746
1098.167, 7327.172
1098.649, 7360.805
1099.131, 7390.507
1099.613, 7417.585
1100.095, 7444.737
1100.577, 7467.034
1101.060, 7501.388
1101.542, 7555.284
1102.024, 7618.514
1102.506, 7694.756
1102.988, 7771.376
1103.470, 7838.711
1103.952, 7894.438
1104.434, 7931.642
1104.917, 7928.943
1105.399, 7949.298
1105.881, 8023.804
1106.363, 8099.279
1106.845, 8153.652
1107.327, 8196.267
1107.809, 8225.980
1108.291, 8250.492
1108.773, 8309.413
1109.255, 8433.844
1109.738, 8537.853
1110.220, 8606.058
1110.702, 8661.623
1111.184, 8702.731
1111.666, 8742.849
1112.148, 8793.422
1112.630, 8854.262
1113.112, 8924.539
1113.595, 9015.374
1114.077, 9093.128
1114.559, 9146.113
1115.041, 9203.084
1115.523, 9280.530
1116.005, 9357.716
1116.487, 9409.926
1116.969, 9445.976
1117.452, 9504.930
1117.934, 9602.210
1118.416, 9679.256
1118.898, 9716.606
1119.380, 9770.917
1119.862, 9866.207
1120.344, 9973.135
1120.826, 10069.43
1121.308, 10156.11
1121.791, 10236.83
1122.273, 10304.69
1122.755, 10394.77
1123.237, 10516.93
1123.719, 10630.88
1124.201, 10721.44
1124.683, 10811.91
1125.165, 10922.57
1125.647, 11044.80
1126.130, 11156.68
1126.612, 11258.66
1127.094, 11346.82
1127.576, 11414.64
1128.058, 11512.86
1128.540, 11660.95
1129.022, 11803.71
1129.504, 11898.23
1129.987, 11972.96
1130.469, 12090.18
1130.951, 12247.80
1131.433, 12382.64
1131.915, 12493.73
1132.397, 12620.82
1132.879, 12772.71
1133.361, 12929.33
1133.844, 13078.82
1134.326, 13219.31
1134.808, 13341.48
1135.290, 13452.67
1135.772, 13594.23
1136.254, 13761.01
1136.736, 13919.92
1137.218, 14064.94
1137.700, 14197.33
1138.182, 14317.49
1138.665, 14448.79
1139.147, 14629.59
1139.629, 14835.60
1140.111, 15011.70
1140.593, 15163.72
1141.075, 15289.04
1141.557, 15400.39
1142.039, 15554.83
1142.522, 15774.20
1143.004, 16003.13
1143.486, 16195.85
1143.968, 16362.32
1144.450, 16501.41
1144.932, 16630.34
1145.414, 16774.60
1145.896, 16935.16
1146.379, 17105.22
1146.861, 17283.11
1147.343, 17480.54
1147.825, 17730.97
1148.307, 17961.50
1148.789, 18064.95
1149.271, 18156.40
1149.753, 18378.88
1150.235, 18679.52
1150.718, 18941.74
1151.200, 19148.13
1151.682, 19365.75
1152.164, 19633.07
1152.646, 19899.69
1153.128, 20128.45
1153.610, 20361.37
1154.092, 20630.79
1154.574, 20922.00
1155.057, 21205.73
1155.539, 21486.28
1156.021, 21806.48
1156.503, 22187.40
1156.985, 22579.46
1157.467, 22978.47
1157.949, 23376.71
1158.431, 23777.98
1158.914, 24172.73
1159.396, 24520.39
1159.878, 24853.24
1160.360, 25294.01
1160.842, 25891.46
1161.324, 26463.79
1161.806, 27015.31
1162.288, 27534.53
1162.771, 27980.35
1163.253, 28456.68
1163.735, 29064.20
1164.217, 29726.81
1164.699, 30264.94
1165.181, 30662.00
1165.663, 31164.76
1166.145, 31801.56
1166.627, 32431.42
1167.109, 33032.29
1167.592, 33618.28
1168.074, 34188.16
1168.556, 34767.07
1169.038, 35401.62
1169.520, 36073.75
1170.002, 36694.63
1170.484, 37264.75
1170.966, 37823.99
1171.449, 38382.30
1171.931, 39001.34
1172.413, 39707.19
1172.895, 40399.82
1173.377, 40976.28
1173.859, 41495.32
1174.341, 42091.02
1174.823, 42729.07
1175.306, 43317.56
1175.788, 43854.04
1176.270, 44357.59
1176.752, 44829.14
1177.234, 45231.69
1177.716, 45545.47
1178.198, 45780.51
1178.680, 45928.45
1179.162, 46019.25
1179.645, 46065.02
1180.127, 46093.46
1180.609, 46173.80
1181.091, 46282.16
1181.573, 46289.21
1182.055, 46128.36
1182.537, 45990.83
1183.019, 46030.00
1183.501, 46071.98
1183.984, 45993.33
1184.466, 45880.45
1184.948, 45814.23
1185.430, 45784.42
1185.912, 45745.34
1186.394, 45686.66
1186.876, 45666.60
1187.358, 45685.00
1187.841, 45759.01
1188.323, 45944.51
1188.805, 46127.56
1189.287, 46229.00
1189.769, 46302.94
1190.251, 46418.80
1190.733, 46572.26
1191.215, 46716.11
1191.698, 46857.60
1192.180, 46962.49
1192.662, 47003.80
1193.144, 47083.62
1193.626, 47247.21
1194.108, 47432.46
1194.590, 47588.17
1195.072, 47719.72
1195.554, 47831.37
1196.036, 47924.13
1196.519, 48068.88
1197.001, 48266.43
1197.483, 48484.98
1197.965, 48717.55
1198.447, 48989.11
1198.929, 49311.53
1199.411, 49690.71
1199.893, 50152.06
1200.376, 50657.54
1200.858, 51080.30
1201.340, 51493.30
1201.822, 52108.70
1202.304, 52895.73
1202.786, 53645.15
1203.268, 54293.34
1203.750, 55000.68
1204.233, 55900.15
1204.715, 56865.08
1205.197, 57792.86
1205.679, 58725.72
1206.161, 59682.58
1206.643, 60688.52
1207.125, 61807.34
1207.607, 63016.81
1208.089, 64183.75
1208.572, 65243.42
1209.054, 66325.97
1209.536, 67513.09
1210.018, 68670.56
1210.500, 69752.74
1210.982, 70765.62
1211.464, 71680.68
1211.946, 72533.89
1212.428, 73437.98
1212.911, 74425.03
1213.393, 75232.92
1213.875, 75796.85
1214.357, 76343.35
1214.839, 76930.02
1215.321, 77431.91
1215.803, 77787.63
1216.285, 78030.57
1216.768, 78198.86
1217.250, 78300.16
1217.732, 78359.52
1218.214, 78379.07
1218.696, 78419.89
1219.178, 78478.73
1219.660, 78443.55
1220.142, 78286.17
1220.625, 78110.49
1221.107, 77987.31
1221.589, 77906.95
1222.071, 77890.98
1222.553, 77885.59
1223.035, 77759.30
1223.517, 77584.92
1223.999, 77532.58
1224.481, 77584.95
1224.964, 77598.55
1225.446, 77522.11
1225.928, 77447.67
1226.410, 77430.89
1226.892, 77430.93
1227.374, 77450.00
1227.856, 77450.38
1228.338, 77375.27
1228.821, 77274.83
1229.303, 77208.91
1229.785, 77188.93
1230.267, 77251.25
1230.749, 77417.38
1231.231, 77634.28
1231.713, 77858.52
1232.195, 78204.87
1232.677, 78759.13
1233.160, 79352.41
1233.642, 79814.14
1234.124, 80275.70
1234.606, 81037.58
1235.088, 82098.99
1235.570, 83199.84
1236.052, 84331.30
1236.534, 85600.62
1237.016, 87016.60
1237.499, 88617.69
1237.981, 90415.65
1238.463, 92247.71
1238.945, 93935.34
1239.427, 95577.34
1239.909, 97389.63
1240.391, 99273.72
1240.873, 101086.7
1241.356, 102775.7
1241.838, 104245.0
1242.320, 105497.7
1242.802, 106657.3
1243.284, 107811.2
1243.766, 108730.5
1244.248, 109317.7
1244.730, 109585.5
1245.213, 109431.5
1245.695, 109064.6
1246.177, 108702.1
1246.659, 108262.6
1247.141, 107508.2
1247.623, 106410.3
1248.105, 105387.0
1248.587, 104590.2
1249.069, 103639.4
1249.552, 102471.1
1250.034, 101230.0
1250.516, 99900.52
1250.998, 98664.94
1251.480, 97709.64
1251.962, 96923.55
1252.444, 95997.30
1252.926, 94938.95
1253.408, 94107.41
1253.891, 93485.05
1254.373, 92908.41
1254.855, 92349.99
1255.337, 91800.14
1255.819, 91257.82
1256.301, 90822.82
1256.783, 90624.84
1257.265, 90524.63
1257.748, 90323.43
1258.230, 90125.25
1258.712, 90058.58
1259.194, 90111.38
1259.676, 90282.06
1260.158, 90534.15
1260.640, 90725.05
1261.122, 90770.33
1261.604, 90893.44
1262.087, 91200.29
1262.569, 91551.84
1263.051, 91925.95
1263.533, 92297.22
1264.015, 92637.07
1264.497, 92973.23
1264.979, 93357.03
1265.461, 93783.47
1265.943, 94202.09
1266.426, 94627.85
1266.908, 94963.08
1267.390, 95198.83
1267.872, 95350.87
1268.354, 95421.81
1268.836, 95444.97
1269.318, 95437.45
1269.800, 95441.98
1270.283, 95555.70
1270.765, 95715.29
1271.247, 95737.82
1271.729, 95710.70
1272.211, 95835.49
1272.693, 96100.16
1273.175, 96406.66
1273.657, 96717.92
1274.140, 96981.37
1274.622, 97084.70
1275.104, 97287.83
1275.586, 97797.97
1276.068, 98355.65
1276.550, 98882.81
1277.032, 99307.91
1277.514, 99531.49
1277.996, 99602.68
1278.479, 99712.80
1278.961, 99901.32
1279.443, 99852.55
1279.925, 99561.59
1280.407, 99037.69
1280.889, 98256.91
1281.371, 97369.42
1281.853, 96445.05
1282.335, 95372.42
1282.818, 94020.65
1283.300, 92499.36
1283.782, 91067.13
1284.264, 89661.69
1284.746, 88099.91
1285.228, 86402.41
1285.710, 84596.26
1286.192, 82740.73
1286.675, 80983.10
1287.157, 79402.34
1287.639, 77982.57
1288.121, 0.0000000E+00
1288.603, 0.0000000E+00
##END=



