##NAMES=Fluorapophyllite-(K)
##RRUFFID=R050084
##IDEAL CHEMISTRY=KCa_4_Si_8_O_20_F&#183;8H_2_O
##LOCALITY=near Ahmednagar, Maharashtra, India
##OWNER=RRUFF
##SOURCE=Rock Currier
##DESCRIPTION=Greenish-white prismatic single crystal associated with scolecite
##STATUS=The identification of this mineral has been confirmed by X-ray diffraction and chemical analysis
##URL=rruff.info/R050084
##MEASURED CHEMISTRY=(K_0.98_Na_0.02_)Ca_4.00_Si_8.00_O_20_F_1.00_Â·8H_2_O
126.0381, 745.5463
126.5202, 787.0272
127.0023, 846.7054
127.4844, 921.8213
127.9666, 1009.360
128.4487, 1109.291
128.9308, 1219.530
129.4129, 1349.156
129.8950, 1492.525
130.3772, 1614.303
130.8593, 1706.317
131.3414, 1769.463
131.8235, 1807.270
132.3056, 1819.749
132.7877, 1805.440
133.2699, 1754.047
133.7520, 1663.826
134.2341, 1569.405
134.7162, 1479.094
135.1983, 1392.409
135.6804, 1326.394
136.1626, 1284.721
136.6447, 1259.682
137.1268, 1237.057
137.6089, 1215.725
138.0910, 1201.441
138.5731, 1198.450
139.0553, 1208.433
139.5374, 1221.768
140.0195, 1239.108
140.5016, 1259.234
140.9837, 1275.058
141.4658, 1280.734
141.9480, 1291.552
142.4301, 1318.229
142.9122, 1365.358
143.3943, 1418.432
143.8764, 1476.560
144.3585, 1539.230
144.8407, 1607.152
145.3228, 1679.083
145.8049, 1756.803
146.2870, 1841.935
146.7691, 1939.999
147.2512, 2036.686
147.7334, 2125.439
148.2155, 2202.271
148.6976, 2293.093
149.1797, 2401.302
149.6618, 2522.893
150.1439, 2651.388
150.6261, 2775.029
151.1082, 2914.656
151.5903, 3075.941
152.0724, 3264.668
152.5545, 3461.346
153.0366, 3651.372
153.5188, 3848.071
154.0009, 4076.639
154.4830, 4355.642
154.9651, 4658.454
155.4472, 4975.276
155.9293, 5295.858
156.4115, 5641.964
156.8936, 6027.212
157.3757, 6444.662
157.8578, 6875.399
158.3399, 7342.822
158.8221, 7804.434
159.3042, 8237.749
159.7863, 8708.167
160.2684, 9079.717
160.7505, 9335.033
161.2326, 9469.521
161.7148, 9425.901
162.1969, 9134.820
162.6790, 8670.018
163.1611, 8107.916
163.6432, 7361.528
164.1253, 6608.844
164.6075, 5927.970
165.0896, 5321.141
165.5717, 4790.126
166.0538, 4345.334
166.5359, 3975.630
167.0180, 3662.967
167.5002, 3409.673
167.9823, 3201.177
168.4644, 3026.563
168.9465, 2884.565
169.4286, 2779.752
169.9107, 2724.339
170.3929, 2709.350
170.8750, 2714.521
171.3571, 2730.176
171.8392, 2760.528
172.3213, 2810.200
172.8034, 2879.371
173.2856, 2967.499
173.7677, 3075.819
174.2498, 3203.698
174.7319, 3346.599
175.2140, 3491.800
175.6961, 3652.428
176.1783, 3848.651
176.6604, 4083.048
177.1425, 4351.768
177.6246, 4651.658
178.1067, 4980.113
178.5888, 5341.181
179.0710, 5726.368
179.5531, 6140.775
180.0352, 6591.687
180.5173, 7078.186
180.9994, 7600.331
181.4815, 8162.926
181.9637, 8769.307
182.4458, 9367.807
182.9279, 9964.180
183.4100, 10532.86
183.8921, 10994.81
184.3742, 11360.53
184.8564, 11591.64
185.3385, 11573.44
185.8206, 11299.02
186.3027, 10857.08
186.7848, 10276.98
187.2669, 9576.786
187.7491, 8874.532
188.2312, 8184.702
188.7133, 7526.183
189.1954, 6954.364
189.6775, 6474.306
190.1596, 6075.906
190.6418, 5750.215
191.1239, 5498.403
191.6060, 5297.430
192.0881, 5143.701
192.5702, 5035.543
193.0524, 4961.828
193.5345, 4926.263
194.0166, 4915.673
194.4987, 4907.829
194.9808, 4901.385
195.4629, 4918.228
195.9451, 4973.894
196.4272, 5068.358
196.9093, 5164.794
197.3914, 5260.081
197.8735, 5360.454
198.3556, 5478.880
198.8378, 5616.261
199.3199, 5762.838
199.8020, 5903.605
200.2841, 6033.897
200.7662, 6211.093
201.2483, 6444.488
201.7305, 6721.029
202.2126, 7012.129
202.6947, 7319.336
203.1768, 7635.337
203.6589, 7952.027
204.1410, 8262.356
204.6232, 8604.762
205.1053, 8989.329
205.5874, 9405.106
206.0695, 9821.337
206.5516, 10244.56
207.0337, 10651.06
207.5159, 11040.37
207.9980, 11419.43
208.4801, 11716.82
208.9622, 11928.10
209.4443, 12050.63
209.9264, 12066.23
210.4086, 11962.18
210.8907, 11775.69
211.3728, 11526.17
211.8549, 11194.44
212.3370, 10855.90
212.8191, 10510.43
213.3013, 10164.46
213.7834, 9843.270
214.2655, 9540.532
214.7476, 9271.835
215.2297, 9056.962
215.7118, 8905.214
216.1940, 8776.453
216.6761, 8666.614
217.1582, 8574.806
217.6403, 8495.019
218.1224, 8435.289
218.6045, 8378.091
219.0867, 8303.916
219.5688, 8202.054
220.0509, 8109.456
220.5330, 8034.165
221.0151, 7975.203
221.4972, 7931.248
221.9794, 7898.803
222.4615, 7884.754
222.9436, 7901.404
223.4257, 7970.511
223.9078, 8026.479
224.3899, 8057.432
224.8721, 8064.317
225.3542, 8038.555
225.8363, 7972.088
226.3184, 7880.517
226.8005, 7784.064
227.2827, 7700.049
227.7648, 7578.752
228.2469, 7405.687
228.7290, 7178.432
229.2111, 6923.231
229.6932, 6632.804
230.1754, 6323.431
230.6575, 6009.802
231.1396, 5686.458
231.6217, 5372.077
232.1038, 5069.833
232.5859, 4778.066
233.0681, 4508.513
233.5502, 4267.983
234.0323, 4045.749
234.5144, 3821.269
234.9965, 3583.868
235.4786, 3364.986
235.9608, 3173.648
236.4429, 3014.470
236.9250, 2872.547
237.4071, 2753.247
237.8892, 2648.942
238.3713, 2547.478
238.8535, 2446.095
239.3356, 2352.285
239.8177, 2270.076
240.2998, 2203.097
240.7819, 2132.200
241.2640, 2049.893
241.7462, 1966.879
242.2283, 1902.085
242.7104, 1864.558
243.1925, 1830.311
243.6746, 1790.043
244.1567, 1738.216
244.6389, 1699.603
245.1210, 1679.490
245.6031, 1669.456
246.0852, 1654.172
246.5673, 1628.012
247.0494, 1606.184
247.5316, 1594.220
248.0137, 1593.919
248.4958, 1597.615
248.9779, 1605.807
249.4600, 1617.720
249.9421, 1632.342
250.4243, 1652.252
250.9064, 1670.359
251.3885, 1682.323
251.8706, 1683.219
252.3527, 1695.166
252.8348, 1721.173
253.3170, 1756.249
253.7991, 1791.386
254.2812, 1826.443
254.7633, 1861.022
255.2454, 1892.947
255.7275, 1917.398
256.2097, 1956.807
256.6918, 2015.169
257.1739, 2085.272
257.6560, 2154.335
258.1381, 2220.243
258.6202, 2289.841
259.1024, 2367.132
259.5845, 2453.017
260.0666, 2539.263
260.5487, 2624.399
261.0308, 2710.861
261.5129, 2808.756
261.9951, 2922.526
262.4772, 3035.159
262.9593, 3138.847
263.4414, 3233.376
263.9235, 3325.666
264.4056, 3421.831
264.8878, 3511.049
265.3699, 3578.558
265.8520, 3626.584
266.3341, 3648.190
266.8162, 3640.212
267.2983, 3601.725
267.7805, 3538.692
268.2626, 3447.678
268.7447, 3336.307
269.2268, 3215.077
269.7089, 3081.614
270.1910, 2947.240
270.6732, 2812.240
271.1553, 2675.903
271.6374, 2552.790
272.1195, 2444.268
272.6016, 2346.737
273.0837, 2256.603
273.5659, 2172.046
274.0480, 2101.897
274.5301, 2053.350
275.0122, 2027.592
275.4943, 1993.537
275.9764, 1946.421
276.4586, 1899.976
276.9407, 1876.974
277.4228, 1879.918
277.9049, 1886.526
278.3870, 1886.856
278.8691, 1881.554
279.3513, 1886.502
279.8334, 1903.352
280.3155, 1926.207
280.7976, 1945.893
281.2798, 1961.829
281.7619, 1984.141
282.2440, 2017.722
282.7261, 2061.487
283.2082, 2107.673
283.6903, 2156.499
284.1725, 2206.943
284.6546, 2255.604
285.1367, 2302.430
285.6188, 2357.198
286.1009, 2424.177
286.5830, 2501.927
287.0652, 2585.896
287.5473, 2675.901
288.0294, 2768.597
288.5115, 2857.482
288.9936, 2944.227
289.4757, 3038.943
289.9579, 3151.806
290.4400, 3273.826
290.9221, 3379.714
291.4042, 3468.108
291.8863, 3557.371
292.3684, 3674.525
292.8506, 3811.161
293.3327, 3932.397
293.8148, 4024.652
294.2969, 4097.089
294.7790, 4171.900
295.2611, 4249.368
295.7433, 4314.735
296.2254, 4361.561
296.7075, 4387.589
297.1896, 4385.584
297.6717, 4351.456
298.1538, 4290.399
298.6360, 4208.130
299.1181, 4104.437
299.6002, 3985.865
300.0823, 3852.067
300.5644, 3706.377
301.0465, 3552.590
301.5287, 3385.489
302.0108, 3218.671
302.4929, 3069.366
302.9750, 2935.313
303.4571, 2812.036
303.9392, 2697.164
304.4214, 2589.959
304.9035, 2486.234
305.3856, 2385.001
305.8677, 2290.928
306.3498, 2210.998
306.8319, 2143.784
307.3141, 2082.585
307.7962, 2024.081
308.2783, 1970.381
308.7604, 1923.465
309.2425, 1886.665
309.7246, 1852.480
310.2068, 1814.948
310.6889, 1776.035
311.1710, 1740.409
311.6531, 1707.278
312.1352, 1680.085
312.6173, 1663.309
313.0995, 1661.279
313.5816, 1659.545
314.0637, 1648.924
314.5458, 1634.019
315.0279, 1623.408
315.5100, 1622.130
315.9922, 1624.686
316.4743, 1628.081
316.9564, 1631.542
317.4385, 1637.609
317.9206, 1650.109
318.4027, 1665.040
318.8849, 1676.813
319.3670, 1679.595
319.8491, 1682.774
320.3312, 1689.816
320.8133, 1701.394
321.2954, 1714.527
321.7776, 1725.511
322.2597, 1739.016
322.7418, 1760.021
323.2239, 1801.394
323.7060, 1838.203
324.1881, 1861.813
324.6703, 1870.529
325.1524, 1884.980
325.6345, 1908.958
326.1166, 1937.778
326.5987, 1967.918
327.0808, 2001.022
327.5630, 2033.456
328.0451, 2065.059
328.5272, 2095.800
329.0093, 2124.773
329.4914, 2144.841
329.9735, 2168.886
330.4557, 2206.496
330.9378, 2271.738
331.4199, 2325.983
331.9020, 2363.838
332.3841, 2388.210
332.8662, 2413.195
333.3484, 2439.163
333.8305, 2464.813
334.3126, 2492.119
334.7947, 2526.989
335.2768, 2543.463
335.7589, 2535.276
336.2411, 2510.701
336.7232, 2490.669
337.2053, 2477.791
337.6874, 2462.233
338.1695, 2441.245
338.6516, 2416.009
339.1338, 2374.530
339.6159, 2312.707
340.0980, 2241.313
340.5801, 2180.778
341.0622, 2131.665
341.5443, 2081.420
342.0265, 2023.692
342.5086, 1959.534
342.9907, 1891.922
343.4728, 1820.035
343.9549, 1750.156
344.4370, 1693.282
344.9192, 1648.332
345.4013, 1601.791
345.8834, 1545.894
346.3655, 1486.501
346.8476, 1442.587
347.3297, 1414.614
347.8119, 1392.648
348.2940, 1368.730
348.7761, 1343.725
349.2582, 1320.926
349.7403, 1301.784
350.2225, 1284.127
350.7046, 1261.918
351.1867, 1236.252
351.6688, 1217.132
352.1509, 1215.858
352.6331, 1224.615
353.1152, 1232.012
353.5973, 1235.830
354.0794, 1237.110
354.5615, 1233.593
355.0436, 1227.615
355.5258, 1226.282
356.0079, 1236.522
356.4900, 1251.441
356.9721, 1264.562
357.4542, 1273.667
357.9363, 1285.138
358.4185, 1303.899
358.9006, 1327.310
359.3827, 1350.798
359.8648, 1369.052
360.3469, 1389.725
360.8290, 1417.500
361.3112, 1453.661
361.7933, 1491.228
362.2754, 1528.422
362.7575, 1565.983
363.2396, 1604.878
363.7217, 1644.315
364.2039, 1685.590
364.6860, 1728.302
365.1681, 1772.643
365.6502, 1821.021
366.1323, 1878.894
366.6144, 1938.101
367.0966, 1993.204
367.5787, 2039.596
368.0608, 2086.690
368.5429, 2137.691
369.0250, 2190.868
369.5071, 2235.853
369.9893, 2267.340
370.4714, 2296.640
370.9535, 2331.539
371.4356, 2384.631
371.9177, 2413.229
372.3998, 2411.563
372.8820, 2387.698
373.3641, 2361.305
373.8462, 2338.250
374.3283, 2297.721
374.8104, 2229.304
375.2925, 2130.325
375.7747, 2025.146
376.2568, 1909.109
376.7389, 1794.330
377.2210, 1700.429
377.7031, 1628.711
378.1852, 1558.950
378.6674, 1480.852
379.1495, 1399.815
379.6316, 1337.876
380.1137, 1296.851
380.5958, 1263.180
381.0779, 1223.719
381.5601, 1180.351
382.0422, 1145.672
382.5243, 1123.414
383.0064, 1108.874
383.4885, 1095.637
383.9706, 1083.430
384.4528, 1071.161
384.9349, 1055.957
385.4170, 1040.638
385.8991, 1030.310
386.3812, 1026.889
386.8633, 1024.405
387.3455, 1015.710
387.8276, 1003.612
388.3097, 994.3998
388.7918, 990.3951
389.2739, 991.2298
389.7560, 999.7299
390.2382, 1017.178
390.7203, 1029.228
391.2024, 1021.496
391.6845, 1006.363
392.1666, 998.0055
392.6487, 1005.581
393.1309, 1016.712
393.6130, 1026.912
394.0951, 1036.288
394.5772, 1046.915
395.0593, 1059.777
395.5414, 1073.787
396.0236, 1088.156
396.5057, 1105.655
396.9878, 1120.154
397.4699, 1128.516
397.9520, 1133.058
398.4341, 1141.094
398.9163, 1158.302
399.3984, 1173.087
399.8805, 1180.475
400.3626, 1176.733
400.8447, 1176.604
401.3268, 1180.411
401.8090, 1187.602
402.2911, 1197.948
402.7732, 1212.412
403.2553, 1227.120
403.7374, 1240.226
404.2195, 1252.052
404.7017, 1270.095
405.1838, 1297.172
405.6659, 1323.040
406.1480, 1336.419
406.6301, 1337.154
407.1122, 1341.200
407.5944, 1353.092
408.0765, 1368.235
408.5586, 1372.110
409.0407, 1365.034
409.5228, 1363.516
410.0049, 1383.730
410.4871, 1417.990
410.9692, 1444.417
411.4513, 1459.785
411.9334, 1471.650
412.4155, 1487.371
412.8976, 1506.753
413.3798, 1528.456
413.8619, 1548.194
414.3440, 1572.393
414.8261, 1608.786
415.3082, 1657.706
415.7903, 1712.877
416.2725, 1771.240
416.7546, 1833.535
417.2367, 1901.997
417.7188, 1977.444
418.2009, 2057.254
418.6830, 2137.716
419.1652, 2220.849
419.6473, 2310.935
420.1294, 2406.186
420.6115, 2511.853
421.0937, 2632.421
421.5758, 2766.998
422.0579, 2914.846
422.5400, 3086.733
423.0221, 3269.802
423.5042, 3446.124
423.9864, 3577.445
424.4685, 3742.468
424.9506, 3973.861
425.4327, 4275.765
425.9148, 4550.096
426.3969, 4779.972
426.8791, 5001.391
427.3612, 5241.370
427.8433, 5500.523
428.3254, 5775.721
428.8075, 6071.871
429.2896, 6381.090
429.7718, 6683.644
430.2539, 6989.840
430.7360, 7240.504
431.2181, 7417.993
431.7002, 7518.223
432.1823, 7473.498
432.6645, 7271.085
433.1466, 6953.520
433.6287, 6548.584
434.1108, 6070.993
434.5929, 5588.447
435.0750, 5114.006
435.5572, 4662.924
436.0393, 4259.721
436.5214, 3904.297
437.0035, 3593.208
437.4856, 3337.233
437.9677, 3122.867
438.4499, 2934.169
438.9320, 2770.242
439.4141, 2625.688
439.8962, 2500.436
440.3783, 2392.557
440.8604, 2293.382
441.3426, 2195.280
441.8247, 2109.168
442.3068, 2044.406
442.7889, 2005.999
443.2710, 1969.569
443.7531, 1924.781
444.2353, 1880.280
444.7174, 1844.849
445.1995, 1826.303
445.6816, 1810.275
446.1637, 1792.619
446.6458, 1774.267
447.1280, 1764.346
447.6101, 1764.394
448.0922, 1771.228
448.5743, 1783.788
449.0564, 1804.615
449.5385, 1824.947
450.0207, 1844.830
450.5028, 1863.800
450.9849, 1878.003
451.4670, 1884.363
451.9491, 1900.876
452.4312, 1935.601
452.9134, 1987.010
453.3955, 2047.115
453.8776, 2117.102
454.3597, 2185.818
454.8418, 2237.431
455.3239, 2276.874
455.8061, 2323.038
456.2882, 2383.094
456.7703, 2448.209
457.2524, 2506.569
457.7345, 2559.095
458.2166, 2610.959
458.6988, 2666.804
459.1809, 2722.299
459.6630, 2773.063
460.1451, 2819.617
460.6272, 2857.989
461.1093, 2890.470
461.5915, 2911.777
462.0736, 2914.482
462.5557, 2883.823
463.0378, 2846.316
463.5199, 2816.396
464.0020, 2791.298
464.4842, 2747.923
464.9663, 2666.345
465.4484, 2576.758
465.9305, 2495.013
466.4126, 2428.767
466.8947, 2355.945
467.3769, 2269.839
467.8590, 2180.404
468.3411, 2103.315
468.8232, 2044.029
469.3053, 1987.066
469.7874, 1928.036
470.2696, 1867.142
470.7517, 1806.838
471.2338, 1745.724
471.7159, 1689.942
472.1980, 1646.761
472.6801, 1615.815
473.1623, 1587.310
473.6444, 1559.200
474.1265, 1533.729
474.6086, 1513.824
475.0907, 1499.636
475.5728, 1492.149
476.0550, 1498.474
476.5371, 1509.550
477.0192, 1508.982
477.5013, 1496.101
477.9834, 1482.478
478.4655, 1472.980
478.9477, 1469.362
479.4298, 1474.135
479.9119, 1490.636
480.3940, 1512.438
480.8761, 1541.584
481.3582, 1574.081
481.8404, 1598.025
482.3225, 1604.669
482.8046, 1605.863
483.2867, 1607.436
483.7688, 1611.488
484.2509, 1610.321
484.7331, 1600.060
485.2152, 1585.939
485.6973, 1572.646
486.1794, 1562.203
486.6615, 1549.195
487.1436, 1533.399
487.6258, 1514.437
488.1079, 1488.204
488.5900, 1450.417
489.0721, 1417.675
489.5542, 1400.240
490.0363, 1398.105
490.5185, 1399.564
491.0006, 1405.409
491.4827, 1411.174
491.9648, 1410.456
492.4470, 1404.175
492.9291, 1396.950
493.4112, 1388.446
493.8933, 1381.647
494.3754, 1382.879
494.8575, 1391.105
495.3397, 1399.704
495.8218, 1404.004
496.3039, 1406.660
496.7860, 1410.180
497.2681, 1414.735
497.7502, 1421.173
498.2324, 1428.695
498.7145, 1438.734
499.1966, 1453.390
499.6787, 1482.612
500.1608, 1507.021
500.6429, 1516.648
501.1251, 1512.747
501.6072, 1516.874
502.0893, 1542.786
502.5714, 1566.221
503.0535, 1573.462
503.5356, 1548.683
504.0178, 1547.008
504.4999, 1578.376
504.9820, 1623.887
505.4641, 1656.554
505.9462, 1675.398
506.4283, 1685.338
506.9105, 1683.379
507.3926, 1674.440
507.8747, 1681.142
508.3568, 1704.430
508.8389, 1726.478
509.3210, 1732.064
509.8032, 1726.425
510.2853, 1722.824
510.7674, 1722.030
511.2495, 1727.119
511.7316, 1747.734
512.2137, 1776.315
512.6959, 1797.197
513.1780, 1800.903
513.6601, 1797.446
514.1422, 1790.694
514.6243, 1781.418
515.1064, 1774.100
515.5886, 1773.352
516.0707, 1773.084
516.5528, 1769.467
517.0349, 1760.354
517.5170, 1751.300
517.9991, 1738.769
518.4813, 1728.217
518.9634, 1727.680
519.4455, 1746.097
519.9276, 1758.972
520.4097, 1759.518
520.8918, 1749.954
521.3740, 1745.546
521.8561, 1747.902
522.3382, 1750.093
522.8203, 1744.167
523.3024, 1731.274
523.7845, 1732.325
524.2667, 1750.679
524.7488, 1774.793
525.2309, 1793.083
525.7130, 1806.048
526.1951, 1814.364
526.6772, 1810.972
527.1594, 1810.211
527.6415, 1836.537
528.1236, 1883.072
528.6057, 1920.186
529.0878, 1922.249
529.5699, 1913.776
530.0521, 1911.471
530.5342, 1917.206
531.0163, 1930.420
531.4984, 1959.341
531.9805, 1992.168
532.4626, 2016.486
532.9448, 2021.981
533.4269, 2029.178
533.9090, 2040.346
534.3911, 2054.871
534.8732, 2070.540
535.3553, 2089.962
535.8375, 2105.951
536.3196, 2114.669
536.8017, 2115.922
537.2838, 2117.242
537.7659, 2119.621
538.2480, 2118.805
538.7302, 2107.546
539.2123, 2087.565
539.6944, 2071.922
540.1765, 2064.821
540.6586, 2060.729
541.1407, 2052.206
541.6229, 2039.945
542.1050, 2026.361
542.5871, 2012.603
543.0692, 1998.183
543.5513, 1982.445
544.0334, 1965.500
544.5156, 1948.735
544.9977, 1930.060
545.4798, 1913.411
545.9619, 1902.350
546.4440, 1902.097
546.9261, 1900.651
547.4083, 1897.742
547.8904, 1892.289
548.3725, 1881.932
548.8546, 1861.170
549.3367, 1844.378
549.8188, 1835.071
550.3010, 1832.928
550.7831, 1835.100
551.2652, 1842.728
551.7473, 1850.883
552.2294, 1853.909
552.7115, 1852.921
553.1937, 1861.219
553.6758, 1881.915
554.1579, 1903.333
554.6400, 1908.799
555.1221, 1903.022
555.6042, 1899.143
556.0864, 1899.491
556.5685, 1906.131
557.0506, 1925.060
557.5327, 1953.067
558.0148, 1977.947
558.4969, 1989.103
558.9791, 1998.869
559.4612, 2014.359
559.9433, 2036.681
560.4254, 2062.466
560.9075, 2092.855
561.3896, 2125.468
561.8718, 2158.123
562.3539, 2186.012
562.8360, 2223.249
563.3181, 2276.966
563.8002, 2337.349
564.2823, 2377.187
564.7645, 2389.301
565.2466, 2411.825
565.7287, 2461.732
566.2108, 2534.313
566.6929, 2605.725
567.1750, 2675.105
567.6572, 2749.904
568.1393, 2838.856
568.6214, 2936.134
569.1035, 3025.607
569.5856, 3103.321
570.0677, 3182.506
570.5499, 3279.505
571.0320, 3385.103
571.5141, 3485.332
571.9962, 3555.887
572.4783, 3639.185
572.9604, 3758.310
573.4426, 3906.410
573.9247, 4050.877
574.4068, 4181.670
574.8889, 4311.163
575.3710, 4445.634
575.8531, 4587.231
576.3353, 4711.801
576.8174, 4808.421
577.2995, 4902.437
577.7816, 5025.151
578.2637, 5180.363
578.7458, 5317.557
579.2280, 5428.900
579.7101, 5520.121
580.1922, 5598.606
580.6743, 5665.033
581.1564, 5723.234
581.6385, 5783.438
582.1207, 5832.033
582.6028, 5848.392
583.0849, 5834.180
583.5670, 5803.794
584.0491, 5773.464
584.5313, 5725.336
585.0134, 5641.663
585.4955, 5510.537
585.9776, 5375.387
586.4597, 5254.721
586.9418, 5132.774
587.4240, 4992.558
587.9061, 4820.590
588.3882, 4649.362
588.8703, 4479.469
589.3524, 4313.304
589.8345, 4158.695
590.3167, 4017.290
590.7988, 3880.188
591.2809, 3748.398
591.7630, 3619.545
592.2451, 3482.435
592.7272, 3336.320
593.2094, 3200.319
593.6915, 3097.151
594.1736, 3014.036
594.6557, 2924.043
595.1378, 2821.580
595.6199, 2725.116
596.1021, 2649.849
596.5842, 2589.495
597.0663, 2534.875
597.5485, 2487.789
598.0306, 2441.607
598.5127, 2390.562
598.9948, 2337.795
599.4769, 2296.508
599.9590, 2276.430
600.4412, 2256.096
600.9233, 2227.044
601.4054, 2187.963
601.8875, 2160.151
602.3696, 2147.537
602.8517, 2137.021
603.3339, 2116.896
603.8160, 2087.908
604.2981, 2061.005
604.7802, 2037.018
605.2623, 2017.537
605.7444, 2009.413
606.2266, 2007.950
606.7087, 2000.654
607.1908, 1974.820
607.6729, 1949.632
608.1550, 1940.877
608.6371, 1945.418
609.1193, 1952.744
609.6014, 1962.966
610.0835, 1971.301
610.5656, 1973.622
611.0477, 1968.275
611.5298, 1968.568
612.0120, 1977.704
612.4941, 1989.735
612.9762, 2000.461
613.4583, 2008.622
613.9404, 2020.054
614.4225, 2035.502
614.9047, 2053.300
615.3868, 2072.362
615.8689, 2092.584
616.3510, 2110.082
616.8331, 2122.054
617.3152, 2132.880
617.7974, 2152.820
618.2795, 2178.506
618.7616, 2197.949
619.2437, 2197.519
619.7258, 2193.478
620.2079, 2196.737
620.6901, 2207.986
621.1722, 2225.310
621.6543, 2256.228
622.1364, 2287.366
622.6185, 2309.126
623.1006, 2315.658
623.5828, 2325.466
624.0649, 2341.653
624.5470, 2358.268
625.0291, 2367.665
625.5112, 2368.591
625.9933, 2369.370
626.4755, 2372.450
626.9576, 2374.883
627.4397, 2366.687
627.9218, 2349.884
628.4039, 2339.888
628.8860, 2353.711
629.3682, 2373.786
629.8503, 2372.331
630.3324, 2352.314
630.8145, 2336.598
631.2966, 2340.289
631.7787, 2351.947
632.2609, 2365.635
632.7430, 2383.052
633.2251, 2392.564
633.7072, 2385.876
634.1893, 2373.888
634.6714, 2364.851
635.1536, 2356.639
635.6357, 2357.442
636.1178, 2372.767
636.5999, 2392.188
637.0820, 2390.446
637.5641, 2366.073
638.0463, 2358.820
638.5284, 2388.589
639.0105, 2437.183
639.4926, 2469.567
639.9747, 2487.970
640.4568, 2504.469
640.9390, 2528.131
641.4211, 2552.447
641.9032, 2567.270
642.3853, 2571.878
642.8674, 2587.869
643.3495, 2634.969
643.8317, 2689.002
644.3138, 2733.250
644.7959, 2756.470
645.2780, 2787.824
645.7601, 2831.090
646.2422, 2879.004
646.7244, 2922.290
647.2065, 2958.203
647.6886, 3003.058
648.1707, 3062.587
648.6528, 3127.635
649.1349, 3178.904
649.6171, 3218.180
650.0992, 3259.602
650.5813, 3306.811
651.0634, 3361.596
651.5455, 3431.025
652.0276, 3512.550
652.5098, 3589.145
652.9919, 3646.501
653.4740, 3700.327
653.9561, 3763.357
654.4382, 3840.565
654.9203, 3903.552
655.4025, 3940.250
655.8846, 3968.858
656.3667, 3999.675
656.8488, 4031.167
657.3309, 4071.248
657.8130, 4123.713
658.2952, 4178.858
658.7773, 4224.449
659.2594, 4260.938
659.7415, 4289.318
660.2236, 4310.167
660.7057, 4322.624
661.1879, 4323.030
661.6700, 4313.694
662.1521, 4300.963
662.6342, 4293.866
663.1163, 4279.208
663.5984, 4246.715
664.0806, 4197.798
664.5627, 4145.193
665.0448, 4095.972
665.5269, 4040.441
666.0090, 3973.560
666.4911, 3894.414
666.9733, 3815.431
667.4554, 3737.999
667.9375, 3657.979
668.4196, 3570.071
668.9017, 3474.286
669.3839, 3383.229
669.8660, 3299.015
670.3481, 3216.434
670.8302, 3129.854
671.3123, 3040.645
671.7944, 2950.475
672.2766, 2855.141
672.7587, 2768.236
673.2408, 2704.017
673.7229, 2653.664
674.2050, 2598.596
674.6871, 2532.502
675.1693, 2462.350
675.6514, 2384.736
676.1335, 2302.555
676.6156, 2233.021
677.0977, 2179.279
677.5798, 2131.370
678.0620, 2086.104
678.5441, 2043.180
679.0262, 2004.221
679.5083, 1969.086
679.9904, 1934.923
680.4725, 1899.609
680.9547, 1863.694
681.4368, 1828.180
681.9189, 1793.778
682.4010, 1757.075
682.8831, 1709.131
683.3652, 1661.299
683.8474, 1626.055
684.3295, 1614.774
684.8116, 1602.494
685.2937, 1583.951
685.7758, 1563.165
686.2579, 1545.759
686.7401, 1533.309
687.2222, 1520.239
687.7043, 1506.253
688.1864, 1490.559
688.6685, 1468.317
689.1506, 1440.278
689.6328, 1418.767
690.1149, 1413.786
690.5970, 1415.415
691.0791, 1409.032
691.5612, 1395.689
692.0433, 1381.073
692.5255, 1368.108
693.0076, 1354.648
693.4897, 1339.324
693.9718, 1321.961
694.4539, 1303.405
694.9360, 1276.954
695.4182, 1255.760
695.9003, 1249.458
696.3824, 1264.961
696.8645, 1264.138
697.3466, 1242.194
697.8287, 1216.510
698.3109, 1208.755
698.7930, 1214.879
699.2751, 1211.838
699.7572, 1193.437
700.2393, 1173.467
700.7214, 1166.416
701.2036, 1167.684
701.6857, 1169.612
702.1678, 1168.830
702.6499, 1169.000
703.1320, 1175.341
703.6141, 1183.549
704.0963, 1182.306
704.5784, 1162.942
705.0605, 1146.913
705.5426, 1139.779
706.0247, 1139.372
706.5068, 1136.235
706.9890, 1130.107
707.4711, 1123.302
707.9532, 1115.427
708.4353, 1108.124
708.9174, 1106.422
709.3995, 1109.955
709.8817, 1115.367
710.3638, 1123.212
710.8459, 1130.028
711.3280, 1133.794
711.8101, 1134.774
712.2922, 1128.352
712.7744, 1103.495
713.2565, 1077.948
713.7386, 1062.632
714.2207, 1057.365
714.7028, 1065.450
715.1849, 1094.386
715.6671, 1123.767
716.1492, 1128.093
716.6313, 1109.549
717.1134, 1094.394
717.5955, 1087.119
718.0776, 1084.694
718.5598, 1086.816
719.0419, 1090.760
719.5240, 1091.205
720.0061, 1084.432
720.4882, 1075.977
720.9703, 1064.633
721.4525, 1053.654
721.9346, 1050.434
722.4167, 1062.872
722.8988, 1074.303
723.3809, 1083.014
723.8630, 1088.298
724.3452, 1084.652
724.8273, 1070.101
725.3094, 1060.985
725.7915, 1068.947
726.2736, 1086.484
726.7557, 1093.663
727.2379, 1091.570
727.7200, 1088.771
728.2021, 1094.279
728.6842, 1098.979
729.1663, 1092.012
729.6484, 1072.041
730.1306, 1060.075
730.6127, 1069.348
731.0948, 1082.397
731.5769, 1089.417
732.0590, 1088.615
732.5411, 1089.538
733.0233, 1092.546
733.5054, 1096.473
733.9875, 1100.949
734.4696, 1105.689
734.9517, 1108.271
735.4338, 1108.286
735.9160, 1107.111
736.3981, 1101.605
736.8802, 1097.243
737.3623, 1103.917
737.8444, 1134.618
738.3266, 1156.482
738.8087, 1149.478
739.2908, 1128.797
739.7729, 1116.605
740.2551, 1117.127
740.7372, 1120.064
741.2193, 1124.794
741.7014, 1130.872
742.1835, 1136.887
742.6656, 1142.797
743.1478, 1151.544
743.6299, 1165.027
744.1120, 1180.744
744.5941, 1195.523
745.0762, 1209.248
745.5583, 1222.035
746.0405, 1233.697
746.5226, 1244.494
747.0047, 1252.909
747.4868, 1259.891
747.9689, 1270.804
748.4510, 1290.654
748.9332, 1308.493
749.4153, 1318.994
749.8974, 1323.373
750.3795, 1337.213
750.8616, 1361.269
751.3438, 1388.255
751.8259, 1413.272
752.3080, 1437.789
752.7901, 1464.972
753.2722, 1494.958
753.7543, 1530.249
754.2365, 1573.847
754.7186, 1622.554
755.2007, 1675.380
755.6828, 1734.535
756.1649, 1785.962
756.6470, 1820.003
757.1292, 1852.825
757.6113, 1894.182
758.0934, 1945.706
758.5755, 1999.765
759.0576, 2058.583
759.5397, 2114.125
760.0219, 2153.469
760.5040, 2182.821
760.9861, 2222.365
761.4682, 2276.656
761.9503, 2331.238
762.4324, 2378.646
762.9146, 2418.510
763.3967, 2450.620
763.8788, 2474.106
764.3609, 2491.105
764.8430, 2506.621
765.3251, 2512.853
765.8073, 2499.242
766.2894, 2462.111
766.7715, 2419.220
767.2536, 2371.786
767.7357, 2322.323
768.2178, 2274.367
768.7000, 2227.733
769.1821, 2183.500
769.6642, 2145.352
770.1463, 2103.583
770.6284, 2044.320
771.1105, 1976.127
771.5927, 1915.566
772.0748, 1873.625
772.5569, 1832.828
773.0390, 1785.595
773.5211, 1737.448
774.0032, 1705.434
774.4854, 1694.988
774.9675, 1679.345
775.4496, 1646.378
775.9317, 1606.713
776.4138, 1589.456
776.8959, 1591.274
777.3781, 1593.242
777.8602, 1582.364
778.3423, 1569.967
778.8244, 1567.073
779.3065, 1571.358
779.7886, 1572.568
780.2708, 1555.566
780.7529, 1548.257
781.2350, 1564.427
781.7171, 1600.422
782.1992, 1620.131
782.6813, 1619.356
783.1635, 1618.302
783.6456, 1627.804
784.1277, 1644.812
784.6098, 1660.756
785.0919, 1675.481
785.5740, 1688.138
786.0562, 1691.640
786.5383, 1697.782
787.0204, 1721.352
787.5025, 1763.030
787.9846, 1793.360
788.4667, 1793.663
788.9489, 1792.227
789.4310, 1802.244
789.9131, 1824.709
790.3952, 1838.150
790.8773, 1841.676
791.3594, 1839.831
791.8416, 1840.967
792.3237, 1838.647
792.8058, 1809.137
793.2879, 1751.617
793.7700, 1698.792
794.2521, 1683.236
794.7343, 1675.186
795.2164, 1647.869
795.6985, 1591.087
796.1806, 1546.088
796.6627, 1521.998
797.1448, 1504.678
797.6270, 1485.994
798.1091, 1465.643
798.5912, 1446.323
799.0733, 1427.858
799.5554, 1410.505
800.0375, 1394.588
800.5197, 1380.089
801.0018, 1367.222
801.4839, 1356.277
801.9660, 1345.392
802.4481, 1327.919
802.9302, 1313.428
803.4124, 1310.965
803.8945, 1329.829
804.3766, 1343.024
804.8587, 1349.240
805.3408, 1351.492
805.8229, 1351.842
806.3051, 1350.302
806.7872, 1348.089
807.2693, 1344.800
807.7514, 1343.956
808.2335, 1348.156
808.7156, 1357.500
809.1978, 1373.575
809.6799, 1399.570
810.1620, 1422.590
810.6441, 1436.182
811.1262, 1444.858
811.6083, 1452.903
812.0905, 1460.906
812.5726, 1467.313
813.0547, 1471.360
813.5368, 1475.098
814.0189, 1480.355
814.5010, 1487.252
814.9832, 1496.892
815.4653, 1509.772
815.9474, 1523.576
816.4295, 1533.960
816.9116, 1545.052
817.3937, 1563.157
817.8759, 1597.398
818.3580, 1623.339
818.8401, 1629.194
819.3222, 1628.780
819.8043, 1634.327
820.2864, 1646.357
820.7686, 1663.097
821.2507, 1685.723
821.7328, 1708.593
822.2149, 1719.359
822.6970, 1724.579
823.1791, 1744.029
823.6613, 1787.694
824.1434, 1826.815
824.6255, 1831.777
825.1076, 1826.262
825.5897, 1836.506
826.0718, 1893.587
826.5540, 1927.440
827.0361, 1928.276
827.5182, 1917.485
828.0003, 1920.086
828.4824, 1935.920
828.9645, 1953.455
829.4467, 1970.597
829.9288, 1990.569
830.4109, 2022.600
830.8930, 2058.022
831.3751, 2082.983
831.8572, 2089.147
832.3394, 2094.968
832.8215, 2110.818
833.3036, 2127.327
833.7857, 2133.030
834.2678, 2120.256
834.7499, 2119.932
835.2321, 2136.742
835.7142, 2159.742
836.1963, 2180.833
836.6784, 2197.248
837.1605, 2193.330
837.6426, 2160.534
838.1248, 2133.009
838.6069, 2144.709
839.0890, 2172.674
839.5711, 2191.649
840.0532, 2193.325
840.5353, 2191.078
841.0175, 2183.989
841.4996, 2175.477
841.9817, 2167.929
842.4638, 2161.113
842.9459, 2162.066
843.4280, 2173.229
843.9102, 2182.914
844.3923, 2176.899
844.8744, 2161.215
845.3565, 2144.414
845.8386, 2126.490
846.3207, 2113.699
846.8029, 2111.322
847.2850, 2113.545
847.7671, 2115.908
848.2492, 2121.269
848.7313, 2117.648
849.2134, 2102.452
849.6956, 2084.942
850.1777, 2076.516
850.6598, 2073.550
851.1419, 2061.521
851.6240, 2037.676
852.1061, 2015.029
852.5883, 2005.015
853.0704, 1999.658
853.5525, 1991.436
854.0346, 1978.147
854.5167, 1965.484
854.9988, 1953.356
855.4810, 1942.463
855.9631, 1936.112
856.4452, 1934.501
856.9273, 1916.661
857.4094, 1881.172
857.8915, 1843.425
858.3737, 1810.942
858.8558, 1787.660
859.3379, 1783.344
859.8200, 1800.706
860.3021, 1812.573
860.7842, 1815.689
861.2664, 1803.186
861.7485, 1765.900
862.2306, 1698.310
862.7127, 1662.128
863.1948, 1661.989
863.6769, 1671.599
864.1591, 1679.740
864.6412, 1681.936
865.1233, 1661.067
865.6054, 1618.807
866.0875, 1584.732
866.5696, 1584.938
867.0518, 1591.519
867.5339, 1584.955
868.0160, 1563.107
868.4981, 1552.866
868.9802, 1562.419
869.4623, 1566.160
869.9445, 1548.204
870.4266, 1514.826
870.9087, 1497.173
871.3908, 1493.541
871.8729, 1488.229
872.3550, 1461.768
872.8372, 1437.395
873.3193, 1442.219
873.8014, 1469.929
874.2835, 1482.697
874.7656, 1453.332
875.2477, 1430.419
875.7299, 1428.092
876.2120, 1440.940
876.6941, 1449.520
877.1762, 1453.828
877.6583, 1452.161
878.1404, 1441.016
878.6226, 1426.347
879.1047, 1415.486
879.5869, 1407.509
880.0690, 1399.765
880.5511, 1389.561
881.0332, 1381.447
881.5153, 1376.624
881.9974, 1374.767
882.4796, 1376.312
882.9617, 1382.339
883.4438, 1385.434
883.9259, 1383.234
884.4080, 1378.547
884.8901, 1375.030
885.3723, 1372.563
885.8544, 1371.283
886.3365, 1374.895
886.8186, 1373.700
887.3007, 1356.897
887.7828, 1335.504
888.2650, 1325.049
888.7471, 1329.293
889.2292, 1335.576
889.7113, 1343.885
890.1934, 1351.744
890.6755, 1359.228
891.1577, 1363.748
891.6398, 1353.277
892.1219, 1321.410
892.6040, 1296.834
893.0861, 1309.732
893.5682, 1333.593
894.0504, 1342.018
894.5325, 1319.783
895.0146, 1313.837
895.4967, 1332.929
895.9788, 1352.143
896.4609, 1347.219
896.9431, 1322.583
897.4252, 1305.414
897.9073, 1297.182
898.3894, 1292.172
898.8715, 1284.302
899.3536, 1278.776
899.8358, 1280.682
900.3179, 1290.967
900.8000, 1302.785
901.2821, 1320.085
901.7642, 1331.687
902.2463, 1331.110
902.7285, 1320.043
903.2106, 1309.698
903.6927, 1300.234
904.1748, 1294.291
904.6569, 1297.440
905.1390, 1301.875
905.6212, 1300.011
906.1033, 1292.506
906.5854, 1282.818
907.0675, 1265.822
907.5496, 1254.418
908.0317, 1253.364
908.5139, 1259.248
908.9960, 1261.305
909.4781, 1259.505
909.9602, 1259.846
910.4423, 1265.992
910.9244, 1272.713
911.4066, 1273.603
911.8887, 1270.482
912.3708, 1266.691
912.8529, 1262.431
913.3350, 1258.905
913.8171, 1258.824
914.2993, 1257.831
914.7814, 1247.333
915.2635, 1225.848
915.7456, 1216.109
916.2277, 1223.143
916.7098, 1234.595
917.1920, 1235.823
917.6741, 1232.268
918.1562, 1232.653
918.6383, 1240.776
919.1204, 1245.438
919.6025, 1242.815
920.0847, 1235.745
920.5668, 1224.064
921.0489, 1205.626
921.5310, 1199.623
922.0131, 1207.311
922.4952, 1216.957
922.9774, 1218.200
923.4595, 1215.792
923.9416, 1217.146
924.4237, 1222.424
924.9058, 1226.999
925.3879, 1231.277
925.8701, 1231.896
926.3522, 1225.480
926.8343, 1213.611
927.3164, 1210.738
927.7985, 1218.053
928.2806, 1223.028
928.7628, 1217.389
929.2449, 1208.466
929.7270, 1207.121
930.2091, 1211.964
930.6912, 1219.203
931.1733, 1231.972
931.6555, 1241.344
932.1376, 1241.278
932.6197, 1237.557
933.1018, 1241.610
933.5839, 1255.677
934.0660, 1259.744
934.5482, 1248.229
935.0303, 1231.894
935.5124, 1224.475
935.9945, 1221.927
936.4766, 1216.066
936.9587, 1200.834
937.4409, 1193.513
937.9230, 1207.476
938.4051, 1225.621
938.8872, 1233.800
939.3693, 1229.038
939.8514, 1233.999
940.3336, 1250.091
940.8157, 1265.440
941.2978, 1268.896
941.7799, 1266.098
942.2620, 1264.993
942.7441, 1266.017
943.2263, 1266.557
943.7084, 1265.137
944.1905, 1263.456
944.6726, 1261.694
945.1547, 1260.176
945.6368, 1262.323
946.1190, 1268.589
946.6011, 1270.740
947.0832, 1261.790
947.5653, 1250.388
948.0474, 1247.814
948.5295, 1251.845
949.0117, 1257.308
949.4938, 1261.140
949.9759, 1268.106
950.4580, 1280.660
950.9401, 1295.483
951.4222, 1309.581
951.9044, 1323.198
952.3865, 1324.542
952.8686, 1309.578
953.3507, 1292.433
953.8328, 1288.886
954.3149, 1291.785
954.7971, 1291.281
955.2792, 1283.133
955.7613, 1281.127
956.2434, 1289.654
956.7255, 1301.841
957.2076, 1312.749
957.6898, 1322.688
958.1719, 1343.752
958.6540, 1375.869
959.1361, 1402.776
959.6182, 1410.359
960.1003, 1410.234
960.5825, 1407.889
961.0646, 1405.885
961.5467, 1417.010
962.0288, 1454.885
962.5109, 1488.300
962.9930, 1507.403
963.4752, 1519.098
963.9573, 1542.344
964.4394, 1574.506
964.9215, 1599.681
965.4036, 1608.757
965.8857, 1617.156
966.3679, 1636.119
966.8500, 1662.315
967.3321, 1692.035
967.8142, 1728.969
968.2963, 1762.105
968.7784, 1793.482
969.2606, 1816.308
969.7427, 1822.194
970.2248, 1813.441
970.7069, 1797.401
971.1890, 1774.768
971.6711, 1747.112
972.1533, 1717.378
972.6354, 1681.628
973.1175, 1633.429
973.5996, 1573.356
974.0817, 1524.164
974.5638, 1487.671
975.0460, 1455.567
975.5281, 1422.762
976.0102, 1393.247
976.4923, 1379.352
976.9744, 1375.977
977.4565, 1368.140
977.9387, 1343.443
978.4208, 1320.034
978.9029, 1302.852
979.3850, 1291.423
979.8671, 1285.979
980.3492, 1287.655
980.8314, 1288.636
981.3135, 1287.755
981.7956, 1287.555
982.2777, 1290.127
982.7598, 1295.471
983.2419, 1305.464
983.7241, 1321.588
984.2062, 1331.736
984.6883, 1324.689
985.1704, 1318.636
985.6525, 1322.879
986.1346, 1336.034
986.6168, 1341.843
987.0989, 1340.622
987.5810, 1342.259
988.0631, 1352.181
988.5452, 1367.831
989.0273, 1389.326
989.5095, 1414.457
989.9916, 1437.475
990.4737, 1458.680
990.9558, 1474.408
991.4379, 1479.990
991.9200, 1485.712
992.4022, 1511.134
992.8843, 1551.290
993.3664, 1584.220
993.8485, 1604.009
994.3306, 1626.406
994.8127, 1662.324
995.2949, 1705.681
995.7770, 1752.462
996.2591, 1803.034
996.7412, 1848.435
997.2233, 1885.349
997.7054, 1927.708
998.1876, 1987.698
998.6697, 2057.333
999.1518, 2122.466
999.6339, 2182.871
1000.116, 2238.558
1000.598, 2283.839
1001.080, 2331.629
1001.562, 2388.326
1002.044, 2449.771
1002.527, 2508.666
1003.009, 2563.783
1003.491, 2631.904
1003.973, 2719.921
1004.455, 2799.900
1004.937, 2839.415
1005.419, 2851.802
1005.901, 2851.995
1006.384, 2841.998
1006.866, 2822.494
1007.348, 2798.026
1007.830, 2758.915
1008.312, 2696.393
1008.794, 2614.331
1009.276, 2532.472
1009.758, 2450.814
1010.240, 2366.766
1010.723, 2274.084
1011.205, 2183.199
1011.687, 2099.244
1012.169, 2022.579
1012.651, 1952.892
1013.133, 1889.640
1013.615, 1832.523
1014.097, 1781.285
1014.580, 1736.452
1015.062, 1702.998
1015.544, 1675.919
1016.026, 1644.884
1016.508, 1607.271
1016.990, 1571.176
1017.472, 1537.746
1017.954, 1508.956
1018.436, 1485.177
1018.919, 1466.683
1019.401, 1456.794
1019.883, 1455.524
1020.365, 1457.035
1020.847, 1460.896
1021.329, 1463.495
1021.811, 1460.226
1022.293, 1452.933
1022.776, 1445.969
1023.258, 1437.260
1023.740, 1434.363
1024.222, 1440.082
1024.704, 1448.409
1025.186, 1450.391
1025.668, 1447.985
1026.150, 1448.781
1026.632, 1454.266
1027.115, 1456.993
1027.597, 1446.573
1028.079, 1436.862
1028.561, 1437.165
1029.043, 1447.144
1029.525, 1462.550
1030.007, 1483.904
1030.489, 1504.322
1030.972, 1520.808
1031.454, 1534.324
1031.936, 1545.337
1032.418, 1554.809
1032.900, 1564.631
1033.382, 1574.777
1033.864, 1586.754
1034.346, 1602.583
1034.828, 1617.695
1035.311, 1623.011
1035.793, 1621.507
1036.275, 1632.514
1036.757, 1657.703
1037.239, 1691.922
1037.721, 1741.735
1038.203, 1790.553
1038.685, 1823.805
1039.167, 1842.910
1039.650, 1865.685
1040.132, 1889.767
1040.614, 1928.639
1041.096, 1990.935
1041.578, 2061.819
1042.060, 2113.648
1042.542, 2156.139
1043.024, 2208.341
1043.507, 2277.678
1043.989, 2352.642
1044.471, 2431.108
1044.953, 2515.287
1045.435, 2605.690
1045.917, 2702.706
1046.399, 2818.037
1046.881, 2951.427
1047.364, 3100.787
1047.846, 3268.138
1048.328, 3447.812
1048.810, 3631.234
1049.292, 3824.017
1049.774, 4045.195
1050.256, 4298.044
1050.738, 4568.670
1051.220, 4855.746
1051.703, 5154.880
1052.185, 5449.201
1052.667, 5746.352
1053.149, 6059.015
1053.631, 6392.673
1054.113, 6727.558
1054.595, 7065.130
1055.077, 7396.019
1055.559, 7722.416
1056.042, 8037.620
1056.524, 8315.893
1057.006, 8557.296
1057.488, 8762.404
1057.970, 8965.057
1058.452, 9096.659
1058.934, 9113.835
1059.416, 9028.174
1059.899, 8869.660
1060.381, 8633.044
1060.863, 8351.513
1061.345, 8025.429
1061.827, 7659.890
1062.309, 7239.195
1062.791, 6786.282
1063.273, 6330.217
1063.755, 5871.233
1064.238, 5446.145
1064.720, 5069.076
1065.202, 4715.808
1065.684, 4381.106
1066.166, 4068.639
1066.648, 3793.236
1067.130, 3555.950
1067.612, 3340.531
1068.094, 3143.842
1068.577, 2963.756
1069.059, 2794.278
1069.541, 2642.813
1070.023, 2514.795
1070.505, 2412.596
1070.987, 2314.217
1071.469, 2218.218
1071.951, 2128.251
1072.434, 2044.991
1072.916, 1969.306
1073.398, 1901.000
1073.880, 1839.992
1074.362, 1786.839
1074.844, 1747.414
1075.326, 1703.624
1075.808, 1649.729
1076.291, 1596.107
1076.773, 1557.433
1077.255, 1530.487
1077.737, 1508.297
1078.219, 1490.345
1078.701, 1472.568
1079.183, 1453.323
1079.665, 1433.662
1080.147, 1413.666
1080.630, 1393.607
1081.112, 1373.677
1081.594, 1354.002
1082.076, 1338.887
1082.558, 1331.732
1083.040, 1326.310
1083.522, 1316.983
1084.004, 1306.033
1084.486, 1296.488
1084.969, 1288.389
1085.451, 1282.100
1085.933, 1277.797
1086.415, 1274.833
1086.897, 1273.524
1087.379, 1272.838
1087.861, 1270.637
1088.343, 1267.328
1088.826, 1264.774
1089.308, 1271.287
1089.790, 1266.915
1090.272, 1242.230
1090.754, 1212.657
1091.236, 1204.011
1091.718, 1212.178
1092.200, 1219.100
1092.682, 1222.171
1093.165, 1222.627
1093.647, 1212.159
1094.129, 1207.977
1094.611, 1226.560
1095.093, 1262.673
1095.575, 1277.150
1096.057, 1269.062
1096.539, 1262.681
1097.022, 1268.655
1097.504, 1276.752
1097.986, 1271.221
1098.468, 1263.519
1098.950, 1271.350
1099.432, 1309.555
1099.914, 1327.172
1100.396, 1316.418
1100.879, 1309.323
1101.361, 1334.836
1101.843, 1377.156
1102.325, 1404.425
1102.807, 1421.108
1103.289, 1444.337
1103.771, 1487.435
1104.253, 1528.492
1104.735, 1561.444
1105.218, 1594.401
1105.700, 1641.819
1106.182, 1699.757
1106.664, 1743.878
1107.146, 1771.792
1107.628, 1806.130
1108.110, 1865.135
1108.592, 1930.987
1109.074, 1996.327
1109.557, 2059.823
1110.039, 2111.167
1110.521, 2150.517
1111.003, 2198.970
1111.485, 2266.112
1111.967, 2331.987
1112.449, 2384.950
1112.931, 2420.765
1113.414, 2433.872
1113.896, 2422.341
1114.378, 2394.873
1114.860, 2350.874
1115.342, 2293.233
1115.824, 2218.478
1116.306, 2135.375
1116.788, 2059.106
1117.271, 1985.625
1117.753, 1904.595
1118.235, 1795.958
1118.717, 1707.085
1119.199, 1645.359
1119.681, 1593.923
1120.163, 1535.889
1120.645, 1474.761
1121.127, 1418.770
1121.609, 1368.595
1122.092, 1329.526
1122.574, 1310.406
1123.056, 1296.577
1123.538, 1284.900
1124.020, 1273.591
1124.502, 1258.350
1124.984, 1239.783
1125.466, 1223.882
1125.949, 1212.603
1126.431, 1198.691
1126.913, 1169.865
1127.395, 1142.852
1127.877, 1132.443
1128.359, 1136.087
1128.841, 1133.192
1129.323, 1123.305
1129.806, 1114.644
1130.288, 1110.359
1130.770, 1108.152
1131.252, 1108.407
1131.734, 1108.051
1132.216, 1101.518
1132.698, 1083.292
1133.180, 1078.661
1133.662, 1090.407
1134.145, 1104.203
1134.627, 1114.279
1135.109, 1118.645
1135.591, 1111.315
1136.073, 1095.797
1136.555, 1081.176
1137.037, 1067.756
1137.519, 1058.974
1138.001, 1055.556
1138.484, 1055.659
1138.966, 1059.711
1139.448, 1065.241
1139.930, 1064.778
1140.412, 1058.783
1140.894, 1055.041
1141.376, 1063.208
1141.858, 1065.041
1142.341, 1052.563
1142.823, 1034.943
1143.305, 1030.189
1143.787, 1035.367
1144.269, 1036.935
1144.751, 1032.353
1145.233, 1027.318
1145.715, 1022.804
1146.198, 1021.230
1146.680, 1024.704
1147.162, 1031.846
1147.644, 1035.434
1148.126, 1035.873
1148.608, 1039.115
1149.090, 1049.401
1149.572, 1056.822
1150.054, 1049.552
1150.536, 1038.944
1151.019, 1036.648
1151.501, 1043.722
1151.983, 1047.007
1152.465, 1046.496
1152.947, 1042.850
1153.429, 1032.164
1153.911, 1023.306
1154.393, 1029.077
1154.876, 1041.277
1155.358, 1045.308
1155.840, 1038.902
1156.322, 1027.139
1156.804, 1008.135
1157.286, 994.6224
1157.768, 998.7714
1158.250, 1012.973
1158.733, 1034.848
1159.215, 1059.153
1159.697, 1066.987
1160.179, 1045.713
1160.661, 1030.680
1161.143, 1026.956
1161.625, 1027.380
1162.107, 1021.180
1162.589, 1014.519
1163.072, 1020.857
1163.554, 1040.020
1164.036, 1052.861
1164.518, 1054.642
1165.000, 1048.664
1165.482, 1032.122
1165.964, 1013.701
1166.446, 1009.953
1166.928, 1016.492
1167.411, 1024.791
1167.893, 1034.005
1168.375, 1039.401
1168.857, 1036.428
1169.339, 1033.031
1169.821, 1031.804
1170.303, 1032.526
1170.785, 1034.882
1171.268, 1038.647
1171.750, 1043.625
1172.232, 1051.355
1172.714, 1055.962
1173.196, 1052.844
1173.678, 1047.666
1174.160, 1041.586
1174.642, 1036.065
1175.125, 1047.348
1175.607, 1071.063
1176.089, 1082.413
1176.571, 1057.256
1177.053, 1033.831
1177.535, 1032.409
1178.017, 1037.997
1178.499, 1036.453
1178.981, 1027.905
1179.464, 1026.594
1179.946, 1031.995
1180.428, 1033.594
1180.910, 1016.024
1181.392, 1002.444
1181.874, 1008.837
1182.356, 1025.351
1182.838, 1037.693
1183.320, 1045.889
1183.803, 1052.655
1184.285, 1058.322
1184.767, 1058.321
1185.249, 1041.834
1185.731, 1025.583
1186.213, 1023.689
1186.695, 1031.025
1187.177, 1032.122
1187.660, 1026.398
1188.142, 1023.613
1188.624, 1025.604
1189.106, 1028.747
1189.588, 1030.687
1190.070, 1031.763
1190.552, 1031.420
1191.034, 1030.208
1191.516, 1032.585
1191.999, 1039.331
1192.481, 1041.885
1192.963, 1037.522
1193.445, 1030.656
1193.927, 1022.462
1194.409, 1016.190
1194.891, 1016.159
1195.373, 1022.692
1195.855, 1028.621
1196.338, 1034.289
1196.820, 1036.294
1197.302, 1031.671
1197.784, 1026.237
1198.266, 1024.920
1198.748, 1027.340
1199.230, 1034.768
1199.712, 1049.157
1200.195, 1054.124
1200.677, 1048.442
1201.159, 1041.892
1201.641, 1039.687
1202.123, 1039.291
1202.605, 1039.324
1203.087, 1038.648
1203.569, 1034.715
1204.052, 1024.020
1204.534, 1020.529
1205.016, 1024.994
1205.498, 1032.009
1205.980, 1038.099
1206.462, 1044.583
1206.944, 1056.298
1207.426, 1069.106
1207.908, 1072.527
1208.391, 1063.543
1208.873, 1050.492
1209.355, 1031.454
1209.837, 1019.961
1210.319, 1037.323
1210.801, 1060.936
1211.283, 1062.383
1211.765, 1047.385
1212.247, 1038.565
1212.730, 1039.018
1213.212, 1041.944
1213.694, 1047.233
1214.176, 1052.157
1214.658, 1052.033
1215.140, 1051.669
1215.622, 1061.153
1216.104, 1076.990
1216.587, 1075.171
1217.069, 1045.806
1217.551, 1030.201
1218.033, 1036.414
1218.515, 1051.867
1218.997, 1070.106
1219.479, 1084.732
1219.961, 1087.896
1220.443, 1079.105
1220.926, 1064.024
1221.408, 1038.796
1221.890, 1026.336
1222.372, 1034.762
1222.854, 1047.881
1223.336, 1045.387
1223.818, 1037.303
1224.300, 1035.559
1224.782, 1041.822
1225.265, 1044.580
1225.747, 1042.433
1226.229, 1043.912
1226.711, 1053.150
1227.193, 1062.854
1227.675, 1062.410
1228.157, 1058.437
1228.639, 1059.687
1229.122, 1067.880
1229.604, 1070.071
1230.086, 1065.073
1230.568, 1063.065
1231.050, 1071.783
1231.532, 1077.102
1232.014, 1053.016
1232.496, 1021.491
1232.979, 1011.178
1233.461, 1026.334
1233.943, 1040.434
1234.425, 1053.444
1234.907, 1065.011
1235.389, 1077.394
1235.871, 1084.259
1236.353, 1073.580
1236.835, 1056.924
1237.318, 1050.204
1237.800, 1055.152
1238.282, 1059.235
1238.764, 1062.305
1239.246, 1067.135
1239.728, 1079.240
1240.210, 1088.540
1240.692, 1080.845
1241.175, 1068.106
1241.657, 1067.252
1242.139, 1080.856
1242.621, 1092.401
1243.103, 1102.021
1243.585, 1105.277
1244.067, 1094.298
1244.549, 1081.798
1245.031, 1076.970
1245.514, 1075.490
1245.996, 1069.884
1246.478, 1059.055
1246.960, 1059.645
1247.442, 1071.270
1247.924, 1080.658
1248.406, 1075.699
1248.888, 1069.955
1249.370, 1072.788
1249.853, 1078.180
1250.335, 1077.502
1250.817, 1071.051
1251.299, 1068.626
1251.781, 1070.300
1252.263, 1070.585
1252.745, 1064.518
1253.227, 1058.099
1253.710, 1051.752
1254.192, 1048.321
1254.674, 1054.751
1255.156, 1068.650
1255.638, 1070.794
1256.120, 1061.115
1256.602, 1052.931
1257.084, 1054.147
1257.567, 1057.693
1258.049, 1062.728
1258.531, 1066.860
1259.013, 1064.665
1259.495, 1058.773
1259.977, 1060.485
1260.459, 1069.744
1260.941, 1076.050
1261.423, 1066.710
1261.906, 1065.955
1262.388, 1083.882
1262.870, 1104.575
1263.352, 1101.211
1263.834, 1083.980
1264.316, 1076.119
1264.798, 1079.252
1265.280, 1084.082
1265.762, 1093.078
1266.245, 1094.036
1266.727, 1082.540
1267.209, 1067.417
1267.691, 1058.651
1268.173, 1055.548
1268.655, 1057.663
1269.137, 1064.725
1269.619, 1074.340
1270.102, 1089.620
1270.584, 1097.641
1271.066, 1094.871
1271.548, 1086.759
1272.030, 1076.776
1272.512, 1067.724
1272.994, 1063.839
1273.476, 1065.170
1273.958, 1065.029
1274.441, 1062.645
1274.923, 1061.588
1275.405, 1062.650
1275.887, 1065.221
1276.369, 1070.300
1276.851, 1075.308
1277.333, 1077.720
1277.815, 1077.626
1278.297, 1076.236
1278.780, 1073.492
1279.262, 1070.073
1279.744, 1065.408
1280.226, 1064.798
1280.708, 1079.602
1281.190, 1093.480
1281.672, 1093.066
1282.154, 1082.402
1282.637, 1073.381
1283.119, 1066.546
1283.601, 1069.398
1284.083, 1085.386
1284.565, 1097.073
1285.047, 1089.773
1285.529, 1079.696
1286.011, 1074.043
1286.494, 1072.231
1286.976, 1073.937
1287.458, 1078.195
1287.940, 1082.733
1288.422, 1087.713
1288.904, 1087.474
1289.386, 1073.059
1289.868, 1062.568
1290.350, 1063.203
1290.833, 1069.326
1291.315, 1069.523
1291.797, 1066.850
1292.279, 1067.059
1292.761, 1071.214
1293.243, 1078.871
1293.725, 1092.505
1294.207, 1102.193
1294.689, 1104.387
1295.172, 1102.050
1295.654, 1096.035
1296.136, 1090.078
1296.618, 1090.947
1297.100, 1100.458
1297.582, 1099.975
1298.064, 1087.161
1298.546, 1079.970
1299.029, 1085.718
1299.511, 1093.418
1299.993, 1089.592
1300.475, 1083.487
1300.957, 1087.018
1301.439, 1097.782
1301.921, 1094.918
##END=



