##NAMES=Fluorcalciomicrolite
##RRUFFID=R080146
##IDEAL CHEMISTRY=(Ca,Na)_2_Ta^5+^_2_O_6_F
##LOCALITY= Ip√© mine, Governador, Valadares, Minas Gerias, Brazil
##OWNER=RRUFF
##SOURCE=Luiz Menezes
##DESCRIPTION=Small transparent orange octahedrons on muscovite and albite matrix.
##STATUS=The identification of this mineral is confirmed by single-crystal X-ray diffraction and chemical analysis.
##URL=rruff.info/R080146
##MEASURED CHEMISTRY=(Ca_1.32_Na_0.37_Mn_0.02_Fe_0.01_)(Ta_1.51_Nb_0.33_Ti_0.15_Sn_0.01_)_2_O_6_[F_0.50_(OH)_0.41_]
93.30109, 0.0000000E+00
93.78320, 5892.820
94.26532, 5800.999
94.74744, 5818.208
95.22955, 5930.772
95.71167, 6104.158
96.19379, 6256.257
96.67590, 6400.501
97.15802, 6527.362
97.64014, 6634.310
98.12225, 6724.073
98.60437, 6803.323
99.08649, 6877.967
99.56860, 6941.955
100.0507, 6989.593
100.5328, 7012.006
101.0150, 7014.612
101.4971, 6998.118
101.9792, 6962.547
102.4613, 6925.034
102.9434, 6890.845
103.4255, 6856.070
103.9077, 6817.037
104.3898, 6771.814
104.8719, 6723.459
105.3540, 6677.508
105.8361, 6631.282
106.3182, 6591.221
106.8004, 6557.346
107.2825, 6528.946
107.7646, 6504.561
108.2467, 6483.066
108.7288, 6464.350
109.2109, 6449.780
109.6931, 6443.222
110.1752, 6436.360
110.6573, 6425.081
111.1394, 6411.029
111.6215, 6399.250
112.1036, 6394.741
112.5858, 6398.836
113.0679, 6398.811
113.5500, 6392.750
114.0321, 6384.278
114.5142, 6374.732
114.9964, 6364.322
115.4785, 6355.444
115.9606, 6352.855
116.4427, 6356.126
116.9248, 6355.722
117.4069, 6346.167
117.8891, 6331.595
118.3712, 6321.007
118.8533, 6318.178
119.3354, 6316.485
119.8175, 6309.221
120.2996, 6296.815
120.7818, 6283.920
121.2639, 6274.431
121.7460, 6268.507
122.2281, 6261.077
122.7102, 6251.006
123.1923, 6239.093
123.6745, 6224.459
124.1566, 6207.228
124.6387, 6190.131
125.1208, 6177.733
125.6029, 6174.132
126.0850, 6166.369
126.5672, 6152.718
127.0493, 6135.769
127.5314, 6116.548
128.0135, 6095.524
128.4956, 6074.366
128.9777, 6057.361
129.4599, 6051.337
129.9420, 6042.310
130.4241, 6026.080
130.9062, 6006.734
131.3883, 5991.131
131.8704, 5983.693
132.3526, 5982.063
132.8347, 5972.525
133.3168, 5949.880
133.7989, 5926.569
134.2810, 5907.076
134.7632, 5891.187
135.2453, 5877.140
135.7274, 5863.058
136.2095, 5850.400
136.6916, 5842.704
137.1737, 5845.038
137.6559, 5849.429
138.1380, 5847.064
138.6201, 5836.712
139.1022, 5825.298
139.5843, 5818.328
140.0664, 5813.063
140.5486, 5805.380
141.0307, 5791.452
141.5128, 5774.167
141.9949, 5762.553
142.4770, 5759.441
142.9591, 5758.257
143.4413, 5757.603
143.9234, 5756.561
144.4055, 5753.321
144.8876, 5745.480
145.3697, 5732.994
145.8518, 5725.187
146.3340, 5727.148
146.8161, 5729.666
147.2982, 5730.006
147.7803, 5728.393
148.2624, 5726.361
148.7445, 5725.091
149.2267, 5723.881
149.7088, 5726.948
150.1909, 5740.469
150.6730, 5752.469
151.1551, 5754.744
151.6372, 5746.922
152.1194, 5735.805
152.6015, 5729.752
153.0836, 5731.493
153.5657, 5731.572
154.0478, 5728.095
154.5299, 5723.838
155.0121, 5721.773
155.4942, 5722.728
155.9763, 5725.005
156.4584, 5726.794
156.9405, 5728.583
157.4226, 5727.466
157.9048, 5720.890
158.3869, 5710.901
158.8690, 5701.970
159.3511, 5695.681
159.8332, 5690.002
160.3153, 5683.165
160.7975, 5675.346
161.2796, 5664.984
161.7617, 5649.063
162.2438, 5628.122
162.7259, 5610.630
163.2081, 5600.750
163.6902, 5593.426
164.1723, 5585.658
164.6544, 5577.055
165.1365, 5567.140
165.6186, 5555.702
166.1008, 5543.208
166.5829, 5527.261
167.0650, 5503.680
167.5471, 5479.116
168.0292, 5457.708
168.5113, 5440.509
168.9935, 5425.966
169.4756, 5411.597
169.9577, 5397.122
170.4398, 5383.375
170.9219, 5372.013
171.4040, 5360.482
171.8862, 5346.207
172.3683, 5328.319
172.8504, 5308.501
173.3325, 5290.562
173.8146, 5275.490
174.2967, 5261.641
174.7789, 5248.536
175.2610, 5236.713
175.7431, 5227.479
176.2252, 5221.463
176.7073, 5217.286
177.1894, 5210.320
177.6716, 5197.128
178.1537, 5185.624
178.6358, 5178.625
179.1179, 5174.251
179.6000, 5168.454
180.0821, 5158.805
180.5643, 5147.112
181.0464, 5138.876
181.5285, 5134.211
182.0106, 5131.868
182.4927, 5132.331
182.9748, 5135.040
183.4570, 5137.220
183.9391, 5136.506
184.4212, 5135.247
184.9033, 5138.263
185.3854, 5147.908
185.8675, 5158.072
186.3497, 5162.744
186.8318, 5161.726
187.3139, 5162.280
187.7960, 5167.886
188.2781, 5176.920
188.7602, 5188.561
189.2424, 5204.010
189.7245, 5219.065
190.2066, 5227.426
190.6887, 5227.172
191.1708, 5227.129
191.6530, 5230.405
192.1351, 5235.281
192.6172, 5241.462
193.0993, 5249.450
193.5814, 5256.197
194.0635, 5254.877
194.5457, 5241.522
195.0278, 5227.549
195.5099, 5217.444
195.9920, 5207.328
196.4741, 5193.995
196.9562, 5176.120
197.4384, 5153.424
197.9205, 5124.390
198.4026, 5082.869
198.8847, 5043.140
199.3668, 5007.822
199.8489, 4974.913
200.3311, 4941.746
200.8132, 4906.921
201.2953, 4871.474
201.7774, 4839.916
202.2595, 4816.634
202.7416, 4792.528
203.2238, 4764.317
203.7059, 4735.134
204.1880, 4709.493
204.6701, 4690.101
205.1522, 4675.369
205.6343, 4658.298
206.1165, 4635.244
206.5986, 4614.008
207.0807, 4595.128
207.5628, 4579.247
208.0449, 4568.313
208.5270, 4564.183
209.0092, 4564.583
209.4913, 4560.133
209.9734, 4548.126
210.4555, 4535.718
210.9376, 4525.683
211.4197, 4517.275
211.9019, 4507.888
212.3840, 4495.376
212.8661, 4482.056
213.3482, 4474.048
213.8303, 4473.198
214.3124, 4474.155
214.7946, 4474.476
215.2767, 4474.263
215.7588, 4474.205
216.2409, 4475.315
216.7230, 4476.123
217.2052, 4474.197
217.6873, 4468.640
218.1694, 4462.233
218.6515, 4457.437
219.1336, 4454.136
219.6157, 4449.481
220.0979, 4439.875
220.5800, 4430.093
221.0621, 4425.935
221.5442, 4429.043
222.0263, 4433.616
222.5084, 4433.467
222.9906, 4428.046
223.4727, 4423.835
223.9548, 4423.198
224.4369, 4424.436
224.9190, 4427.226
225.4011, 4431.644
225.8833, 4435.361
226.3654, 4434.475
226.8475, 4427.352
227.3296, 4423.517
227.8117, 4427.025
228.2938, 4433.142
228.7760, 4439.331
229.2581, 4445.045
229.7402, 4451.006
230.2223, 4458.005
230.7044, 4465.862
231.1865, 4475.529
231.6687, 4489.632
232.1508, 4503.672
232.6329, 4514.735
233.1150, 4522.389
233.5971, 4528.251
234.0792, 4534.345
234.5614, 4540.338
235.0435, 4547.548
235.5256, 4556.700
236.0077, 4566.389
236.4898, 4574.958
236.9719, 4582.492
237.4541, 4591.203
237.9362, 4604.399
238.4183, 4624.247
238.9004, 4643.353
239.3825, 4662.143
239.8646, 4679.919
240.3468, 4695.567
240.8289, 4709.287
241.3110, 4722.404
241.7931, 4736.663
242.2752, 4751.883
242.7573, 4768.880
243.2395, 4789.759
243.7216, 4810.501
244.2037, 4827.817
244.6858, 4841.667
245.1679, 4855.138
245.6501, 4871.712
246.1322, 4892.324
246.6143, 4912.625
247.0964, 4931.218
247.5785, 4950.645
248.0606, 4972.494
248.5428, 4996.870
249.0249, 5023.346
249.5070, 5051.545
249.9891, 5081.917
250.4712, 5113.182
250.9533, 5145.475
251.4355, 5178.593
251.9176, 5212.219
252.3997, 5246.487
252.8818, 5282.263
253.3639, 5319.640
253.8460, 5359.213
254.3282, 5403.194
254.8103, 5452.854
255.2924, 5505.758
255.7745, 5559.118
256.2566, 5613.182
256.7387, 5671.306
257.2209, 5737.049
257.7030, 5809.306
258.1851, 5879.439
258.6672, 5948.287
259.1493, 6014.017
259.6314, 6076.372
260.1136, 6135.047
260.5957, 6187.626
261.0778, 6233.040
261.5599, 6270.269
262.0420, 6301.727
262.5241, 6331.099
263.0063, 6350.321
263.4884, 6353.062
263.9705, 6340.024
264.4526, 6317.096
264.9347, 6286.102
265.4168, 6246.200
265.8990, 6198.531
266.3811, 6140.342
266.8632, 6079.537
267.3453, 6020.997
267.8274, 5964.655
268.3095, 5908.174
268.7917, 5848.052
269.2738, 5790.711
269.7559, 5743.687
270.2380, 5707.822
270.7201, 5678.410
271.2022, 5654.708
271.6844, 5635.892
272.1665, 5615.549
272.6486, 5590.411
273.1307, 5565.258
273.6128, 5544.038
274.0949, 5526.642
274.5771, 5512.333
275.0592, 5501.262
275.5413, 5493.046
276.0234, 5485.171
276.5055, 5475.087
276.9876, 5468.541
277.4698, 5470.350
277.9519, 5479.297
278.4340, 5489.250
278.9161, 5496.188
279.3982, 5500.958
279.8803, 5507.988
280.3625, 5519.554
280.8446, 5530.040
281.3267, 5535.190
281.8088, 5536.740
282.2909, 5538.753
282.7730, 5543.033
283.2552, 5549.431
283.7373, 5557.842
284.2194, 5569.458
284.7015, 5580.826
285.1836, 5590.165
285.6658, 5598.331
286.1479, 5606.536
286.6300, 5615.072
287.1121, 5624.153
287.5942, 5634.542
288.0764, 5647.110
288.5585, 5658.929
289.0406, 5668.282
289.5227, 5676.686
290.0048, 5685.548
290.4869, 5695.462
290.9691, 5706.128
291.4512, 5718.041
291.9333, 5732.968
292.4154, 5743.472
292.8975, 5743.753
293.3796, 5741.284
293.8618, 5740.923
294.3439, 5743.933
294.8260, 5750.007
295.3081, 5760.362
295.7902, 5776.861
296.2723, 5788.691
296.7545, 5790.410
297.2366, 5789.335
297.7187, 5787.197
298.2008, 5785.074
298.6829, 5786.410
299.1650, 5797.036
299.6472, 5818.513
300.1293, 5834.295
300.6114, 5838.483
301.0935, 5840.718
301.5756, 5844.489
302.0577, 5849.878
302.5399, 5855.984
303.0220, 5862.936
303.5041, 5870.544
303.9862, 5874.561
304.4683, 5874.565
304.9504, 5870.946
305.4326, 5859.879
305.9147, 5845.889
306.3968, 5837.255
306.8789, 5839.961
307.3610, 5851.354
307.8431, 5860.116
308.3253, 5866.083
308.8074, 5869.356
309.2895, 5868.853
309.7716, 5866.539
310.2537, 5864.524
310.7358, 5863.640
311.2180, 5863.865
311.7001, 5865.420
312.1822, 5869.269
312.6643, 5872.203
313.1464, 5871.349
313.6285, 5870.672
314.1107, 5874.542
314.5928, 5883.914
315.0749, 5894.062
315.5570, 5897.448
316.0391, 5891.628
316.5212, 5887.868
317.0034, 5886.539
317.4855, 5888.128
317.9676, 5895.295
318.4497, 5907.024
318.9318, 5917.690
319.4139, 5920.474
319.8961, 5914.275
320.3782, 5911.273
320.8603, 5914.922
321.3424, 5918.803
321.8245, 5919.780
322.3066, 5918.932
322.7888, 5919.172
323.2709, 5922.462
323.7530, 5928.661
324.2351, 5937.021
324.7172, 5951.383
325.1993, 5962.337
325.6815, 5964.999
326.1636, 5963.420
326.6457, 5963.606
327.1278, 5968.866
327.6099, 5976.490
328.0920, 5979.322
328.5742, 5974.000
329.0563, 5971.124
329.5384, 5975.729
330.0205, 5982.122
330.5026, 5985.621
330.9847, 5984.888
331.4669, 5981.392
331.9490, 5977.342
332.4311, 5973.217
332.9132, 5966.468
333.3953, 5954.960
333.8774, 5941.923
334.3596, 5929.311
334.8417, 5917.103
335.3238, 5903.815
335.8059, 5886.283
336.2880, 5864.328
336.7701, 5849.140
337.2523, 5849.521
337.7344, 5847.091
338.2165, 5832.946
338.6986, 5809.667
339.1807, 5783.620
339.6628, 5758.108
340.1450, 5732.937
340.6271, 5707.308
341.1092, 5681.503
341.5913, 5654.678
342.0735, 5628.263
342.5556, 5600.193
343.0377, 5566.720
343.5198, 5525.226
344.0019, 5481.467
344.4840, 5446.107
344.9662, 5421.284
345.4483, 5394.404
345.9304, 5360.689
346.4125, 5323.849
346.8946, 5285.143
347.3767, 5244.602
347.8589, 5205.672
348.3410, 5172.687
348.8231, 5145.357
349.3052, 5117.429
349.7873, 5088.445
350.2694, 5057.858
350.7516, 5024.751
351.2337, 4989.647
351.7158, 4955.354
352.1979, 4925.568
352.6800, 4897.851
353.1621, 4863.217
353.6443, 4818.010
354.1264, 4773.968
354.6085, 4738.447
355.0906, 4708.355
355.5727, 4679.911
356.0548, 4653.021
356.5370, 4625.878
357.0191, 4594.796
357.5012, 4559.382
357.9833, 4526.733
358.4654, 4502.959
358.9475, 4481.787
359.4297, 4455.148
359.9118, 4421.067
360.3939, 4387.356
360.8760, 4360.570
361.3581, 4339.515
361.8402, 4317.593
362.3224, 4293.490
362.8045, 4267.947
363.2866, 4241.405
363.7687, 4214.014
364.2508, 4186.805
364.7329, 4158.838
365.2151, 4131.598
365.6972, 4107.768
366.1793, 4087.715
366.6614, 4069.603
367.1435, 4053.003
367.6256, 4037.309
368.1078, 4020.727
368.5899, 4003.497
369.0720, 3984.801
369.5541, 3962.871
370.0362, 3938.293
370.5183, 3915.303
371.0005, 3896.286
371.4826, 3879.791
371.9647, 3862.492
372.4468, 3844.629
372.9289, 3825.750
373.4110, 3803.543
373.8932, 3780.577
374.3753, 3762.860
374.8574, 3752.488
375.3395, 3744.170
375.8216, 3730.958
376.3037, 3712.119
376.7859, 3694.993
377.2680, 3682.229
377.7501, 3670.059
378.2322, 3654.198
378.7143, 3634.958
379.1964, 3617.218
379.6786, 3604.929
380.1607, 3597.561
380.6428, 3588.052
381.1249, 3576.344
381.6070, 3563.041
382.0891, 3547.471
382.5713, 3530.507
383.0534, 3513.467
383.5355, 3496.730
384.0176, 3480.952
384.4997, 3467.456
384.9818, 3458.013
385.4640, 3448.100
385.9461, 3438.222
386.4282, 3427.507
386.9103, 3415.213
387.3924, 3401.317
387.8745, 3386.052
388.3567, 3369.585
388.8388, 3351.521
389.3209, 3335.249
389.8030, 3319.017
390.2851, 3305.887
390.7672, 3299.642
391.2494, 3297.218
391.7315, 3292.308
392.2136, 3280.996
392.6957, 3265.383
393.1778, 3253.899
393.6599, 3251.185
394.1421, 3246.100
394.6242, 3235.969
395.1063, 3224.108
395.5884, 3213.526
396.0706, 3204.937
396.5527, 3197.246
397.0348, 3188.749
397.5169, 3178.908
397.9990, 3170.542
398.4811, 3166.521
398.9633, 3161.417
399.4454, 3150.974
399.9275, 3137.458
400.4096, 3126.877
400.8917, 3124.429
401.3738, 3127.629
401.8560, 3125.719
402.3381, 3117.231
402.8202, 3106.174
403.3023, 3089.781
403.7844, 3073.612
404.2665, 3064.500
404.7487, 3064.836
405.2308, 3067.850
405.7129, 3065.011
406.1950, 3055.960
406.6771, 3047.784
407.1592, 3042.855
407.6414, 3037.998
408.1235, 3031.251
408.6056, 3022.642
409.0877, 3012.669
409.5698, 2999.901
410.0519, 2986.244
410.5341, 2976.859
411.0162, 2973.024
411.4983, 2969.085
411.9804, 2962.021
412.4625, 2952.431
412.9446, 2940.691
413.4268, 2924.671
413.9089, 2910.187
414.3910, 2903.453
414.8731, 2902.902
415.3552, 2900.828
415.8373, 2894.314
416.3195, 2886.041
416.8016, 2880.835
417.2837, 2879.167
417.7658, 2874.090
418.2479, 2860.937
418.7300, 2844.927
419.2122, 2832.155
419.6943, 2823.189
420.1764, 2814.695
420.6585, 2803.733
421.1406, 2790.767
421.6227, 2781.097
422.1049, 2776.912
422.5870, 2773.138
423.0691, 2768.341
423.5512, 2762.480
424.0333, 2755.503
424.5154, 2747.417
424.9976, 2738.292
425.4797, 2728.222
425.9618, 2716.090
426.4439, 2705.380
426.9260, 2697.731
427.4081, 2690.178
427.8903, 2680.226
428.3724, 2668.122
428.8545, 2655.989
429.3366, 2645.401
429.8187, 2636.332
430.3008, 2629.102
430.7830, 2626.575
431.2651, 2622.760
431.7472, 2615.898
432.2293, 2607.555
432.7114, 2599.399
433.1935, 2592.092
433.6757, 2585.834
434.1578, 2581.410
434.6399, 2579.679
435.1220, 2576.676
435.6041, 2570.054
436.0862, 2563.803
436.5684, 2560.251
437.0505, 2558.860
437.5326, 2557.485
438.0147, 2555.035
438.4968, 2551.376
438.9789, 2545.488
439.4611, 2535.901
439.9432, 2527.831
440.4253, 2525.233
440.9074, 2524.425
441.3895, 2521.215
441.8716, 2514.290
442.3538, 2507.554
442.8359, 2505.053
443.3180, 2506.077
443.8001, 2506.510
444.2822, 2505.625
444.7643, 2503.891
445.2465, 2501.641
445.7286, 2498.926
446.2107, 2495.841
446.6928, 2491.091
447.1749, 2486.865
447.6570, 2486.421
448.1392, 2489.302
448.6213, 2490.950
449.1034, 2488.709
449.5855, 2483.854
450.0677, 2479.938
450.5498, 2477.334
451.0319, 2474.667
451.5140, 2471.643
451.9961, 2468.342
452.4782, 2463.880
452.9604, 2458.386
453.4425, 2455.203
453.9246, 2458.607
454.4067, 2469.779
454.8888, 2474.779
455.3709, 2469.983
455.8531, 2464.148
456.3352, 2459.551
456.8173, 2456.267
457.2994, 2454.201
457.7815, 2453.335
458.2636, 2453.019
458.7458, 2451.797
459.2279, 2448.884
459.7100, 2446.723
460.1921, 2445.478
460.6742, 2444.823
461.1563, 2444.346
461.6385, 2444.224
462.1206, 2445.218
462.6027, 2448.323
463.0848, 2452.931
463.5669, 2455.640
464.0490, 2455.013
464.5312, 2455.338
465.0133, 2459.978
465.4954, 2465.220
465.9775, 2467.023
466.4596, 2464.318
466.9417, 2460.208
467.4239, 2456.840
467.9060, 2454.348
468.3881, 2453.991
468.8702, 2457.048
469.3523, 2460.136
469.8344, 2459.682
470.3166, 2456.885
470.7987, 2455.156
471.2808, 2455.578
471.7629, 2457.273
472.2450, 2460.076
472.7271, 2463.714
473.2093, 2466.499
473.6914, 2467.352
474.1735, 2467.692
474.6556, 2470.495
475.1377, 2476.350
475.6198, 2482.190
476.1020, 2486.623
476.5841, 2491.482
477.0662, 2499.028
477.5483, 2508.953
478.0304, 2518.856
478.5125, 2526.909
478.9947, 2533.251
479.4768, 2538.914
479.9589, 2542.733
480.4410, 2547.343
480.9231, 2554.172
481.4052, 2561.377
481.8874, 2566.136
482.3695, 2568.204
482.8516, 2570.886
483.3337, 2578.423
483.8158, 2591.343
484.2979, 2604.698
484.7801, 2619.458
485.2622, 2633.520
485.7443, 2645.067
486.2264, 2655.656
486.7085, 2667.467
487.1906, 2681.198
487.6728, 2697.329
488.1549, 2717.706
488.6370, 2742.644
489.1191, 2766.522
489.6012, 2787.093
490.0833, 2807.510
490.5655, 2831.377
491.0476, 2858.097
491.5297, 2883.183
492.0118, 2902.349
492.4939, 2920.358
492.9760, 2942.952
493.4582, 2970.265
493.9403, 3000.337
494.4224, 3032.954
494.9045, 3067.050
495.3866, 3099.160
495.8687, 3127.717
496.3509, 3158.739
496.8330, 3195.351
497.3151, 3234.177
497.7972, 3271.849
498.2793, 3307.807
498.7614, 3342.379
499.2436, 3375.247
499.7257, 3406.554
500.2078, 3441.639
500.6899, 3485.294
501.1720, 3526.940
501.6541, 3564.457
502.1363, 3599.301
502.6184, 3632.598
503.1005, 3664.948
503.5826, 3697.859
504.0647, 3733.540
504.5468, 3772.445
505.0290, 3809.627
505.5111, 3844.582
505.9932, 3878.573
506.4753, 3913.807
506.9575, 3947.970
507.4396, 3977.224
507.9217, 3999.768
508.4038, 4018.249
508.8859, 4034.792
509.3680, 4049.544
509.8502, 4065.241
510.3323, 4084.566
510.8144, 4101.651
511.2965, 4109.296
511.7786, 4109.060
512.2607, 4108.980
512.7429, 4110.933
513.2250, 4113.886
513.7071, 4117.568
514.1892, 4121.640
514.6713, 4125.133
515.1534, 4127.862
515.6356, 4129.171
516.1177, 4127.776
516.5998, 4123.351
517.0819, 4116.612
517.5640, 4106.100
518.0461, 4094.532
518.5283, 4083.258
519.0104, 4072.566
519.4925, 4062.692
519.9746, 4053.808
520.4567, 4045.760
520.9388, 4037.967
521.4210, 4030.177
521.9031, 4023.109
522.3852, 4016.457
522.8673, 4010.666
523.3494, 4006.433
523.8315, 4003.532
524.3137, 4000.799
524.7958, 3997.984
525.2779, 3994.558
525.7600, 3988.041
526.2421, 3977.284
526.7242, 3967.759
527.2064, 3962.283
527.6885, 3959.246
528.1706, 3956.484
528.6527, 3953.721
529.1348, 3952.131
529.6169, 3952.839
530.0991, 3954.938
530.5812, 3957.522
531.0633, 3960.446
531.5454, 3962.077
532.0275, 3961.273
532.5096, 3958.141
532.9918, 3953.295
533.4739, 3943.731
533.9560, 3936.601
534.4381, 3934.089
534.9202, 3934.347
535.4023, 3936.317
535.8845, 3939.281
536.3666, 3941.514
536.8487, 3941.286
537.3308, 3938.600
537.8129, 3934.508
538.2950, 3926.394
538.7772, 3920.356
539.2593, 3919.359
539.7414, 3920.199
540.2235, 3918.736
540.7056, 3914.039
541.1877, 3910.353
541.6699, 3913.902
542.1520, 3923.163
542.6341, 3927.054
543.1162, 3923.469
543.5983, 3917.784
544.0804, 3913.621
544.5626, 3909.694
545.0447, 3903.124
545.5268, 3891.619
546.0089, 3881.129
546.4910, 3876.357
546.9731, 3874.691
547.4553, 3871.388
547.9374, 3865.393
548.4195, 3857.454
548.9016, 3847.905
549.3837, 3836.654
549.8658, 3826.962
550.3480, 3820.758
550.8301, 3813.491
551.3122, 3802.494
551.7943, 3790.410
552.2764, 3780.843
552.7585, 3774.595
553.2407, 3769.125
553.7228, 3760.635
554.2049, 3748.677
554.6870, 3742.705
555.1691, 3751.939
555.6512, 3753.745
556.1334, 3734.296
556.6155, 3705.959
557.0976, 3684.863
557.5797, 3675.794
558.0618, 3670.072
558.5439, 3660.707
559.0261, 3648.315
559.5082, 3634.304
559.9903, 3618.226
560.4724, 3603.730
560.9545, 3594.876
561.4366, 3590.228
561.9188, 3582.025
562.4009, 3569.625
562.8830, 3554.449
563.3651, 3533.927
563.8472, 3512.153
564.3293, 3494.836
564.8115, 3483.108
565.2936, 3474.485
565.7757, 3466.815
566.2578, 3460.078
566.7399, 3452.611
567.2220, 3443.754
567.7042, 3434.922
568.1863, 3426.920
568.6684, 3418.771
569.1505, 3409.070
569.6326, 3397.743
570.1147, 3386.679
570.5969, 3378.307
571.0790, 3372.052
571.5611, 3364.171
572.0432, 3353.893
572.5253, 3343.987
573.0074, 3335.811
573.4896, 3328.938
573.9717, 3322.717
574.4538, 3317.254
574.9359, 3312.061
575.4180, 3307.984
575.9001, 3303.562
576.3823, 3296.006
576.8644, 3285.309
577.3465, 3274.627
577.8286, 3265.719
578.3107, 3259.004
578.7928, 3256.573
579.2750, 3265.825
579.7571, 3269.600
580.2392, 3262.001
580.7213, 3252.313
581.2034, 3247.391
581.6855, 3247.690
582.1677, 3250.326
582.6498, 3253.875
583.1319, 3257.346
583.6140, 3256.210
584.0961, 3248.024
584.5782, 3243.632
585.0604, 3248.812
585.5425, 3256.865
586.0246, 3261.904
586.5067, 3264.063
586.9889, 3267.254
587.4710, 3274.842
587.9531, 3283.292
588.4352, 3288.522
588.9174, 3290.767
589.3995, 3291.692
589.8816, 3291.745
590.3637, 3291.559
590.8458, 3291.886
591.3279, 3291.544
591.8101, 3295.694
592.2922, 3307.700
592.7743, 3320.762
593.2564, 3331.594
593.7385, 3340.670
594.2206, 3349.343
594.7028, 3358.177
595.1849, 3367.194
595.6670, 3376.510
596.1491, 3386.241
596.6312, 3395.210
597.1133, 3402.142
597.5955, 3410.059
598.0776, 3420.940
598.5597, 3433.810
599.0418, 3446.824
599.5239, 3459.545
600.0060, 3472.395
600.4882, 3485.489
600.9703, 3498.994
601.4524, 3513.385
601.9345, 3528.711
602.4166, 3545.241
602.8987, 3563.349
603.3809, 3582.918
603.8630, 3601.261
604.3451, 3617.871
604.8272, 3634.132
605.3093, 3651.444
605.7914, 3667.770
606.2736, 3680.304
606.7557, 3689.314
607.2378, 3698.336
607.7199, 3710.319
608.2020, 3724.916
608.6841, 3740.686
609.1663, 3758.533
609.6484, 3774.935
610.1305, 3787.911
610.6126, 3799.747
611.0947, 3811.804
611.5768, 3824.305
612.0590, 3838.489
612.5411, 3856.191
613.0232, 3875.123
613.5053, 3893.588
613.9874, 3911.168
614.4695, 3926.166
614.9517, 3937.594
615.4338, 3947.687
615.9159, 3960.233
616.3980, 3975.846
616.8801, 3991.802
617.3622, 4010.013
617.8444, 4026.640
618.3265, 4039.137
618.8086, 4049.271
619.2907, 4059.516
619.7728, 4070.839
620.2549, 4082.940
620.7371, 4095.394
621.2192, 4108.203
621.7013, 4122.238
622.1834, 4138.460
622.6655, 4153.739
623.1476, 4165.604
623.6298, 4175.493
624.1119, 4185.925
624.5940, 4198.018
625.0761, 4207.958
625.5582, 4211.849
626.0403, 4213.747
626.5225, 4217.778
627.0046, 4224.727
627.4867, 4236.220
627.9688, 4254.540
628.4509, 4275.538
628.9330, 4285.268
629.4152, 4274.044
629.8973, 4269.132
630.3794, 4275.643
630.8615, 4283.862
631.3436, 4287.545
631.8257, 4288.447
632.3079, 4292.581
632.7900, 4304.074
633.2721, 4316.761
633.7542, 4320.305
634.2363, 4315.987
634.7184, 4316.029
635.2006, 4323.951
635.6827, 4333.087
636.1648, 4337.889
636.6469, 4338.614
637.1290, 4338.723
637.6111, 4337.604
638.0933, 4336.607
638.5754, 4336.249
639.0575, 4336.171
639.5396, 4336.358
640.0217, 4336.536
640.5038, 4335.558
640.9860, 4332.141
641.4681, 4327.073
641.9502, 4324.467
642.4323, 4325.392
642.9144, 4326.039
643.3965, 4326.706
643.8787, 4325.864
644.3608, 4321.879
644.8429, 4315.208
645.3250, 4308.218
645.8071, 4300.507
646.2892, 4294.147
646.7714, 4292.968
647.2535, 4295.083
647.7356, 4294.056
648.2177, 4287.949
648.6998, 4279.812
649.1819, 4273.129
649.6641, 4268.033
650.1462, 4261.665
650.6283, 4252.664
651.1104, 4244.166
651.5925, 4236.252
652.0746, 4229.500
652.5568, 4225.930
653.0389, 4224.883
653.5210, 4221.477
654.0031, 4209.734
654.4852, 4193.584
654.9673, 4185.285
655.4495, 4185.688
655.9316, 4184.105
656.4137, 4176.425
656.8958, 4165.846
657.3779, 4156.056
657.8600, 4147.042
658.3422, 4138.496
658.8243, 4131.951
659.3064, 4124.281
659.7885, 4112.892
660.2706, 4099.510
660.7527, 4086.212
661.2349, 4073.938
661.7170, 4063.693
662.1991, 4057.470
662.6812, 4054.960
663.1633, 4048.269
663.6454, 4034.800
664.1276, 4022.111
664.6097, 4014.130
665.0918, 4006.954
665.5739, 3996.638
666.0560, 3983.033
666.5381, 3970.357
667.0203, 3961.343
667.5024, 3953.526
667.9845, 3944.260
668.4666, 3933.927
668.9487, 3924.345
669.4308, 3916.331
669.9130, 3907.583
670.3951, 3894.828
670.8772, 3877.613
671.3593, 3860.250
671.8414, 3839.608
672.3235, 3822.644
672.8057, 3813.085
673.2878, 3806.684
673.7699, 3800.228
674.2520, 3792.716
674.7341, 3782.283
675.2162, 3764.936
675.6984, 3744.667
676.1805, 3730.273
676.6626, 3721.512
677.1447, 3713.100
677.6268, 3703.632
678.1089, 3692.271
678.5911, 3677.260
679.0732, 3657.395
679.5553, 3640.338
680.0374, 3628.139
680.5195, 3616.203
681.0016, 3601.304
681.4838, 3586.443
681.9659, 3576.651
682.4480, 3572.444
682.9301, 3568.351
683.4122, 3558.937
683.8943, 3545.515
684.3765, 3532.652
684.8586, 3520.189
685.3407, 3509.685
685.8228, 3502.395
686.3049, 3496.490
686.7870, 3489.954
687.2692, 3482.832
687.7513, 3474.939
688.2334, 3465.100
688.7155, 3455.690
689.1976, 3447.841
689.6797, 3441.367
690.1619, 3436.385
690.6440, 3432.655
691.1261, 3428.490
691.6082, 3421.739
692.0903, 3413.113
692.5724, 3407.925
693.0546, 3407.408
693.5367, 3406.868
694.0188, 3405.171
694.5009, 3402.848
694.9830, 3399.837
695.4651, 3396.408
695.9473, 3394.446
696.4294, 3395.139
696.9116, 3396.854
697.3937, 3399.716
697.8758, 3402.457
698.3579, 3402.292
698.8400, 3398.802
699.3221, 3394.598
699.8043, 3392.211
700.2864, 3391.301
700.7685, 3389.579
701.2506, 3387.887
701.7327, 3383.497
702.2148, 3375.386
702.6970, 3364.705
703.1791, 3352.336
703.6612, 3338.042
704.1433, 3320.263
704.6254, 3296.065
705.1075, 3271.528
705.5897, 3253.218
706.0718, 3237.958
706.5539, 3219.506
707.0360, 3196.595
707.5181, 3170.932
708.0002, 3143.325
708.4824, 3114.484
708.9645, 3087.714
709.4466, 3063.386
709.9287, 3040.309
710.4108, 3018.727
710.8929, 2997.988
711.3751, 2977.114
711.8572, 2956.768
712.3393, 2939.306
712.8214, 2926.480
713.3035, 2914.095
713.7856, 2898.317
714.2678, 2880.409
714.7499, 2862.256
715.2320, 2844.341
715.7141, 2827.484
716.1962, 2812.205
716.6783, 2798.660
717.1605, 2787.565
717.6426, 2780.704
718.1247, 2772.909
718.6068, 2763.641
719.0889, 2754.081
719.5710, 2743.171
720.0532, 2732.770
720.5353, 2726.652
721.0174, 2726.461
721.4995, 2726.093
721.9816, 2719.985
722.4637, 2710.465
722.9459, 2701.385
723.4280, 2693.166
723.9101, 2687.035
724.3922, 2683.770
724.8743, 2682.145
725.3564, 2680.015
725.8386, 2677.623
726.3207, 2673.773
726.8028, 2665.535
727.2849, 2659.216
727.7670, 2659.396
728.2491, 2661.157
728.7313, 2656.950
729.2134, 2645.843
729.6955, 2637.491
730.1776, 2641.222
730.6597, 2650.460
731.1418, 2654.742
731.6240, 2654.766
732.1061, 2656.136
732.5882, 2661.123
733.0703, 2665.420
733.5524, 2663.070
734.0345, 2653.601
734.5167, 2649.036
734.9988, 2653.861
735.4809, 2657.903
735.9630, 2659.488
736.4451, 2659.831
736.9272, 2658.650
737.4094, 2656.900
737.8915, 2658.091
738.3736, 2665.351
738.8557, 2674.551
739.3378, 2681.458
739.8199, 2686.559
740.3021, 2691.296
740.7842, 2695.962
741.2663, 2700.438
741.7484, 2704.477
742.2305, 2708.396
742.7126, 2713.700
743.1948, 2720.593
743.6769, 2728.541
744.1590, 2737.981
744.6411, 2747.886
745.1232, 2758.151
745.6053, 2768.351
746.0875, 2778.056
746.5696, 2787.424
747.0517, 2794.744
747.5338, 2796.591
748.0159, 2796.334
748.4980, 2799.509
748.9802, 2806.403
749.4623, 2815.360
749.9444, 2825.823
750.4265, 2836.817
750.9086, 2846.833
751.3907, 2856.215
751.8729, 2862.841
752.3550, 2863.295
752.8371, 2865.620
753.3192, 2872.721
753.8013, 2882.632
754.2834, 2894.187
754.7656, 2907.129
755.2477, 2918.028
755.7298, 2923.485
756.2119, 2927.756
756.6940, 2934.499
757.1761, 2943.348
757.6583, 2953.576
758.1404, 2964.889
758.6225, 2976.310
759.1046, 2987.137
759.5867, 2997.163
760.0688, 3005.095
760.5510, 3009.894
761.0331, 3015.250
761.5152, 3021.074
761.9973, 3028.585
762.4794, 3039.203
762.9615, 3052.147
763.4437, 3064.847
763.9258, 3076.391
764.4079, 3088.310
764.8900, 3100.342
765.3721, 3113.709
765.8542, 3131.742
766.3364, 3152.781
766.8185, 3170.015
767.3006, 3179.532
767.7827, 3185.883
768.2648, 3197.337
768.7469, 3214.047
769.2291, 3229.576
769.7112, 3242.822
770.1933, 3257.357
770.6754, 3275.370
771.1575, 3295.406
771.6396, 3315.306
772.1218, 3335.526
772.6039, 3353.528
773.0860, 3366.004
773.5681, 3379.332
774.0502, 3398.284
774.5323, 3419.602
775.0145, 3437.987
775.4966, 3452.723
775.9787, 3467.826
776.4608, 3487.380
776.9429, 3508.928
777.4250, 3525.413
777.9072, 3537.075
778.3893, 3553.282
778.8714, 3577.375
779.3535, 3602.198
779.8356, 3621.023
780.3177, 3635.079
780.7999, 3652.426
781.2820, 3677.551
781.7641, 3699.505
782.2462, 3714.553
782.7283, 3729.348
783.2104, 3748.708
783.6926, 3770.813
784.1747, 3791.197
784.6568, 3808.336
785.1389, 3824.622
785.6210, 3842.112
786.1031, 3860.297
786.5853, 3879.295
787.0674, 3898.500
787.5495, 3913.573
788.0316, 3922.134
788.5137, 3928.775
788.9958, 3940.105
789.4780, 3956.483
789.9601, 3972.650
790.4422, 3989.632
790.9243, 4004.767
791.4064, 4015.591
791.8885, 4025.920
792.3707, 4041.015
792.8528, 4059.300
793.3349, 4071.655
793.8170, 4072.177
794.2991, 4070.073
794.7813, 4069.847
795.2634, 4071.126
795.7455, 4073.894
796.2276, 4077.754
796.7097, 4082.240
797.1918, 4087.484
797.6740, 4090.212
798.1561, 4081.304
798.6382, 4059.979
799.1203, 4048.927
799.6024, 4053.302
800.0845, 4056.265
800.5667, 4047.715
801.0488, 4033.966
801.5309, 4027.778
802.0130, 4031.079
802.4951, 4028.145
802.9772, 4013.410
803.4594, 3996.929
803.9415, 3982.145
804.4236, 3968.484
804.9057, 3955.319
805.3878, 3942.485
805.8699, 3930.051
806.3521, 3918.457
806.8342, 3906.813
807.3163, 3893.716
807.7985, 3879.468
808.2806, 3865.680
808.7627, 3852.709
809.2448, 3837.768
809.7269, 3818.245
810.2090, 3796.135
810.6912, 3778.043
811.1733, 3767.612
811.6554, 3752.394
812.1375, 3727.839
812.6196, 3703.584
813.1017, 3683.729
813.5839, 3666.073
814.0660, 3647.346
814.5481, 3626.949
815.0302, 3608.833
815.5123, 3597.552
815.9944, 3586.509
816.4766, 3570.126
816.9587, 3550.202
817.4408, 3529.862
817.9229, 3510.143
818.4050, 3491.946
818.8871, 3476.470
819.3693, 3462.233
819.8514, 3444.147
820.3335, 3421.989
820.8156, 3402.745
821.2977, 3388.739
821.7798, 3373.570
822.2620, 3351.026
822.7441, 3324.852
823.2262, 3306.756
823.7083, 3303.000
824.1904, 3292.531
824.6725, 3269.714
825.1547, 3245.609
825.6368, 3224.251
826.1189, 3205.198
826.6010, 3187.855
827.0831, 3171.877
827.5652, 3155.811
828.0474, 3137.756
828.5295, 3119.856
829.0116, 3105.039
829.4937, 3092.444
829.9758, 3080.121
830.4579, 3067.537
830.9401, 3053.805
831.4222, 3037.905
831.9043, 3021.063
832.3864, 3007.792
832.8685, 2999.980
833.3506, 2986.041
833.8328, 2961.950
834.3149, 2937.646
834.7970, 2918.289
835.2791, 2902.392
835.7612, 2887.523
836.2433, 2873.874
836.7255, 2860.313
837.2076, 2847.115
837.6897, 2833.571
838.1718, 2819.605
838.6539, 2804.970
839.1360, 2788.452
839.6182, 2770.582
840.1003, 2754.430
840.5824, 2742.646
841.0645, 2732.365
841.5466, 2719.562
842.0287, 2704.954
842.5109, 2691.295
842.9930, 2678.882
843.4751, 2665.987
843.9572, 2651.548
844.4393, 2636.346
844.9214, 2622.420
845.4036, 2610.070
845.8857, 2597.171
846.3678, 2583.356
846.8499, 2569.545
847.3320, 2556.785
847.8141, 2543.729
848.2963, 2528.676
848.7784, 2511.750
849.2605, 2494.813
849.7426, 2476.130
850.2247, 2460.152
850.7068, 2451.802
851.1890, 2444.719
851.6711, 2431.323
852.1532, 2413.084
852.6353, 2397.117
853.1174, 2387.053
853.5995, 2378.793
854.0817, 2368.159
854.5638, 2355.475
855.0459, 2341.107
855.5280, 2325.312
856.0101, 2310.760
856.4922, 2298.537
856.9744, 2287.239
857.4565, 2275.003
857.9386, 2261.875
858.4207, 2250.636
858.9028, 2242.062
859.3849, 2233.584
859.8671, 2226.144
860.3492, 2217.095
860.8313, 2203.789
861.3134, 2187.465
861.7955, 2171.040
862.2776, 2153.664
862.7598, 2138.921
863.2419, 2130.204
863.7240, 2122.120
864.2061, 2109.724
864.6882, 2095.878
865.1703, 2087.043
865.6525, 2084.124
866.1346, 2078.732
866.6167, 2061.135
867.0988, 2039.570
867.5809, 2027.814
868.0630, 2023.332
868.5452, 2018.275
869.0273, 2010.920
869.5094, 2001.077
869.9915, 1988.150
870.4736, 1974.056
870.9557, 1964.135
871.4379, 1959.202
871.9200, 1953.799
872.4021, 1948.549
872.8842, 1940.940
873.3663, 1929.006
873.8484, 1914.747
874.3306, 1900.299
874.8127, 1885.452
875.2948, 1873.992
875.7769, 1869.369
876.2590, 1864.070
876.7411, 1855.384
877.2233, 1845.666
877.7054, 1836.838
878.1875, 1828.938
878.6696, 1821.450
879.1517, 1814.547
879.6339, 1806.556
880.1160, 1794.598
880.5981, 1781.746
881.0802, 1772.004
881.5623, 1765.259
882.0444, 1760.832
882.5266, 1758.248
883.0087, 1754.341
883.4908, 1745.139
883.9729, 1732.454
884.4550, 1724.280
884.9371, 1721.009
885.4193, 1715.588
885.9014, 1706.227
886.3835, 1696.356
886.8656, 1688.210
887.3477, 1681.385
887.8298, 1674.699
888.3120, 1668.232
888.7941, 1661.768
889.2762, 1655.570
889.7583, 1649.043
890.2404, 1641.073
890.7225, 1633.345
891.2047, 1628.164
891.6868, 1625.256
892.1689, 1621.204
892.6510, 1614.978
893.1331, 1607.319
893.6152, 1597.256
894.0974, 1586.895
894.5795, 1578.444
895.0616, 1571.745
895.5437, 1565.965
896.0258, 1560.709
896.5079, 1555.067
896.9901, 1548.214
897.4722, 1540.203
897.9543, 1529.760
898.4364, 1517.891
898.9185, 1511.081
899.4006, 1511.207
899.8828, 1511.570
900.3649, 1506.057
900.8470, 1496.519
901.3291, 1489.758
901.8112, 1486.471
902.2933, 1482.527
902.7755, 1477.388
903.2576, 1472.252
903.7397, 1468.988
904.2218, 1465.114
904.7039, 1455.360
905.1860, 1438.342
905.6682, 1426.543
906.1503, 1423.883
906.6324, 1421.594
907.1145, 1419.119
907.5966, 1414.887
908.0787, 1405.718
908.5609, 1393.863
909.0430, 1386.149
909.5251, 1385.982
910.0072, 1384.889
910.4893, 1376.307
910.9714, 1365.805
911.4536, 1358.407
911.9357, 1353.653
912.4178, 1350.628
912.8999, 1348.611
913.3820, 1345.284
913.8641, 1338.295
914.3463, 1333.794
914.8284, 1323.452
915.3105, 1318.972
915.7926, 1311.119
916.2748, 1299.429
916.7569, 1289.668
917.2390, 1285.179
917.7211, 1283.338
918.2032, 1279.571
918.6854, 1273.768
919.1675, 1270.189
919.6496, 1270.331
920.1317, 1268.019
920.6138, 1260.737
921.0959, 1251.798
921.5781, 1243.465
922.0602, 1235.837
922.5423, 1229.532
923.0244, 1226.336
923.5065, 1221.020
923.9886, 1211.626
924.4708, 1202.062
924.9529, 1192.983
925.4350, 1185.316
925.9171, 1181.020
926.3992, 1179.893
926.8813, 1177.557
927.3635, 1171.549
927.8456, 1164.779
928.3277, 1156.884
928.8098, 1150.555
929.2919, 1151.383
929.7740, 1156.283
930.2562, 1156.006
930.7383, 1146.794
931.2204, 1134.936
931.7025, 1126.206
932.1846, 1119.239
932.6667, 1110.996
933.1489, 1102.248
933.6310, 1096.884
934.1131, 1095.471
934.5952, 1093.292
935.0773, 1086.549
935.5594, 1077.830
936.0416, 1073.651
936.5237, 1074.046
937.0058, 1073.713
937.4879, 1072.705
937.9700, 1069.073
938.4521, 1061.496
938.9343, 1052.121
939.4164, 1042.829
939.8985, 1033.813
940.3806, 1028.732
940.8627, 1031.129
941.3448, 1030.468
941.8270, 1023.190
942.3091, 1015.723
942.7912, 1012.072
943.2733, 1010.156
943.7554, 1006.340
944.2375, 1000.056
944.7197, 995.2770
945.2018, 994.2009
945.6839, 992.7984
946.1660, 989.2311
946.6481, 984.9517
947.1302, 981.3371
947.6124, 978.2175
948.0945, 974.4929
948.5766, 969.5051
949.0587, 965.2504
949.5408, 964.1048
950.0229, 963.2454
950.5051, 959.1172
950.9872, 953.3837
951.4693, 949.4651
951.9514, 947.8856
952.4335, 946.9659
952.9156, 945.7834
953.3978, 943.9913
953.8799, 941.0727
954.3620, 937.1620
954.8441, 931.9613
955.3262, 925.8522
955.8083, 921.2972
956.2905, 919.2772
956.7726, 918.0881
957.2547, 915.6657
957.7368, 914.5822
958.2189, 913.6240
958.7010, 911.9828
959.1832, 911.0771
959.6653, 910.4709
960.1474, 908.7773
960.6295, 907.4860
961.1116, 906.1495
961.5938, 904.0449
962.0759, 901.2311
962.5580, 896.6747
963.0401, 888.0280
963.5222, 882.6469
964.0043, 882.9977
964.4865, 886.0311
964.9686, 891.8324
965.4507, 898.2955
965.9328, 898.4015
966.4149, 888.6205
966.8970, 882.0626
967.3792, 883.0696
967.8613, 883.1829
968.3434, 877.1987
968.8255, 870.4094
969.3076, 868.5419
969.7897, 871.0645
970.2719, 873.5068
970.7540, 875.2522
971.2361, 875.4693
971.7182, 872.9763
972.2003, 869.6382
972.6824, 866.2167
973.1646, 863.2999
973.6467, 861.8026
974.1288, 861.7422
974.6109, 861.8881
975.0930, 861.5274
975.5751, 861.0804
976.0573, 860.9161
976.5394, 860.9274
977.0215, 861.3213
977.5036, 861.7292
977.9857, 860.8610
978.4678, 858.3457
978.9500, 855.7963
979.4321, 854.7560
979.9142, 854.7686
980.3963, 854.9200
980.8784, 855.3362
981.3605, 857.0275
981.8427, 859.8721
982.3248, 861.1201
982.8069, 859.2092
983.2890, 856.3932
983.7711, 856.0247
984.2532, 857.7620
984.7354, 859.1186
985.2175, 860.0878
985.6996, 861.3715
986.1817, 863.4688
986.6638, 863.0978
987.1459, 857.0729
987.6281, 849.0476
988.1102, 848.0761
988.5923, 855.7316
989.0744, 858.0250
989.5565, 852.3401
990.0386, 849.2894
990.5208, 853.1708
991.0029, 858.1895
991.4850, 859.3071
991.9671, 857.4374
992.4492, 856.0306
992.9313, 854.7470
993.4135, 854.7988
993.8956, 858.2321
994.3777, 860.2380
994.8598, 856.9826
995.3419, 853.4431
995.8240, 855.8446
996.3062, 862.6684
996.7883, 864.6775
997.2704, 856.3818
997.7525, 851.7793
998.2346, 854.8022
998.7167, 859.6047
999.1989, 865.2872
999.6810, 869.8674
1000.163, 870.6701
1000.645, 867.8734
1001.127, 864.6756
1001.609, 861.4285
1002.092, 858.9034
1002.574, 856.8384
1003.056, 856.1517
1003.538, 858.9469
1004.020, 863.0567
1004.502, 864.5391
1004.984, 862.9393
1005.466, 861.8723
1005.948, 863.5352
1006.431, 865.9579
1006.913, 867.5394
1007.395, 869.1986
1007.877, 872.7936
1008.359, 877.2441
1008.841, 879.5180
1009.323, 878.8691
1009.805, 877.8981
1010.288, 878.6353
1010.770, 880.0598
1011.252, 880.7991
1011.734, 881.3949
1012.216, 883.5125
1012.698, 886.5411
1013.180, 887.3280
1013.662, 884.7092
1014.144, 882.1235
1014.627, 883.2512
1015.109, 886.6425
1015.591, 889.3954
1016.073, 891.9115
1016.555, 896.7349
1017.037, 903.3679
1017.519, 905.4882
1018.001, 899.8130
1018.484, 892.9444
1018.966, 894.4852
1019.448, 901.4617
1019.930, 902.4323
1020.412, 898.1631
1020.894, 895.7327
1021.376, 896.3623
1021.858, 898.7468
1022.340, 902.3690
1022.823, 905.7757
1023.305, 906.3493
1023.787, 904.4789
1024.269, 903.9200
1024.751, 904.6935
1025.233, 906.7908
1025.715, 910.5021
1026.197, 913.4098
1026.680, 913.8383
1027.162, 912.9520
1027.644, 912.7571
1028.126, 913.2443
1028.608, 915.4407
1029.090, 920.0974
1029.572, 922.5162
1030.054, 920.8267
1030.536, 919.4106
1031.019, 921.6951
1031.501, 925.6251
1031.983, 926.5931
1032.465, 924.0101
1032.947, 923.1570
1033.429, 925.0008
1033.911, 925.8562
1034.393, 923.8497
1034.875, 922.6561
1035.358, 925.5495
1035.840, 930.6349
1036.322, 933.0684
1036.804, 931.6313
1037.286, 933.6501
1037.768, 942.4727
1038.250, 948.6514
1038.732, 948.6416
1039.215, 947.2415
1039.697, 947.3301
1040.179, 948.7367
1040.661, 951.0472
1041.143, 954.3224
1041.625, 958.2997
1042.107, 964.4160
1042.589, 969.2684
1043.072, 971.5411
1043.554, 972.9778
1044.036, 973.7636
1044.518, 974.8005
1045.000, 978.7624
1045.482, 987.1619
1045.964, 992.6556
1046.446, 992.8066
1046.928, 992.6204
1047.411, 991.1530
1047.893, 991.8423
1048.375, 999.6895
1048.857, 1011.100
1049.339, 1016.818
1049.821, 1014.338
1050.303, 1014.775
1050.785, 1024.531
1051.267, 1031.212
1051.750, 1027.764
1052.232, 1022.573
1052.714, 1021.105
1053.196, 1023.390
1053.678, 1029.522
1054.160, 1040.493
1054.642, 1048.285
1055.124, 1048.538
1055.607, 1048.562
1056.089, 1051.373
1056.571, 1054.721
1057.053, 1056.617
1057.535, 1057.585
1058.017, 1059.190
1058.499, 1061.825
1058.981, 1063.738
1059.464, 1063.172
1059.946, 1063.372
1060.428, 1066.589
1060.910, 1070.289
1061.392, 1072.796
1061.874, 1073.970
1062.356, 1073.996
1062.838, 1072.912
1063.320, 1070.569
1063.802, 1062.498
1064.285, 1058.863
1064.767, 1069.647
1065.249, 1081.832
1065.731, 1083.381
1066.213, 1078.069
1066.695, 1074.544
1067.177, 1074.541
1067.659, 1075.242
1068.142, 1075.924
1068.624, 1076.574
1069.106, 1077.137
1069.588, 1077.708
1070.070, 1077.942
1070.552, 1078.411
1071.034, 1080.678
1071.516, 1084.796
1071.999, 1087.383
1072.481, 1085.327
1072.963, 1083.678
1073.445, 1085.660
1073.927, 1088.150
1074.409, 1088.462
1074.891, 1087.500
1075.373, 1086.731
1075.855, 1086.533
1076.338, 1087.372
1076.820, 1090.913
1077.302, 1093.080
1077.784, 1090.095
1078.266, 1086.778
1078.748, 1086.742
1079.230, 1088.999
1079.712, 1092.473
1080.194, 1096.491
1080.677, 1098.822
1081.159, 1097.706
1081.641, 1096.744
1082.123, 1098.158
1082.605, 1099.779
1083.087, 1099.878
1083.569, 1099.281
1084.052, 1098.846
1084.534, 1098.893
1085.016, 1100.137
1085.498, 1103.369
1085.980, 1106.154
1086.462, 1107.318
1086.944, 1107.805
1087.426, 1108.102
1087.908, 1108.167
1088.391, 1107.433
1088.873, 1106.379
1089.355, 1106.723
1089.837, 1109.292
1090.319, 1111.832
1090.801, 1114.675
1091.283, 1115.800
1091.765, 1111.831
1092.247, 1107.384
1092.730, 1108.020
1093.212, 1112.109
1093.694, 1113.926
1094.176, 1111.734
1094.658, 1110.746
1095.140, 1112.740
1095.622, 1116.394
1096.104, 1123.662
1096.587, 1130.046
1097.069, 1130.909
1097.551, 1128.141
1098.033, 1125.768
1098.515, 1124.468
1098.997, 1124.182
1099.479, 1126.244
1099.961, 1127.463
1100.443, 1125.423
1100.926, 1123.537
1101.408, 1124.385
1101.890, 1126.955
1102.372, 1129.616
1102.854, 1132.154
1103.336, 1134.646
1103.818, 1137.716
1104.300, 1139.821
1104.782, 1140.782
1105.265, 1140.522
1105.747, 1137.048
1106.229, 1133.596
1106.711, 1135.020
1107.193, 1140.705
1107.675, 1144.237
1108.157, 1142.347
1108.639, 1143.061
1109.122, 1149.151
1109.604, 1155.803
1110.086, 1162.776
1110.568, 1168.141
1111.050, 1168.585
1111.532, 1165.800
1112.014, 1166.648
1112.496, 1173.800
1112.979, 1178.072
1113.461, 1176.371
1113.943, 1175.505
1114.425, 1177.188
1114.907, 1180.149
1115.389, 1185.163
1115.871, 1190.255
1116.353, 1190.012
1116.835, 1182.555
1117.318, 1181.061
1117.800, 1189.012
1118.282, 1196.576
1118.764, 1202.630
1119.246, 1207.505
1119.728, 1210.749
1120.210, 1213.562
1120.692, 1218.093
1121.174, 1220.516
1121.657, 1227.942
1122.139, 1227.312
1122.621, 1229.186
1123.103, 1234.780
1123.585, 1241.346
1124.067, 1248.094
1124.549, 1254.590
1125.031, 1260.334
1125.514, 1265.364
1125.996, 1270.057
1126.478, 1274.693
1126.960, 1276.396
1127.442, 1273.329
1127.924, 1276.151
1128.406, 1289.578
1128.888, 1303.537
1129.370, 1309.870
1129.853, 1311.700
1130.335, 1316.635
1130.817, 1324.677
1131.299, 1328.407
1131.781, 1327.508
1132.263, 1330.648
1132.745, 1339.870
1133.227, 1348.183
1133.709, 1351.371
1134.192, 1352.964
1134.674, 1357.471
1135.156, 1364.994
1135.638, 1378.382
1136.120, 1396.109
1136.602, 1405.362
1137.084, 1405.389
1137.566, 1404.451
1138.049, 1405.879
1138.531, 1410.181
1139.013, 1418.845
1139.495, 1428.177
1139.977, 1428.654
1140.459, 1424.522
1140.941, 1427.419
1141.423, 1437.282
1141.906, 1453.426
1142.388, 1473.823
1142.870, 1487.751
1143.352, 1487.862
1143.834, 1484.024
1144.316, 1487.596
1144.798, 1494.928
1145.280, 1500.298
1145.762, 1505.219
1146.245, 1513.804
1146.727, 1525.405
1147.209, 1536.501
1147.691, 1545.724
1148.173, 1551.020
1148.655, 1547.424
1149.137, 1543.150
1149.619, 1545.426
1150.101, 1550.974
1150.584, 1556.712
1151.066, 1562.390
1151.548, 1568.676
1152.030, 1575.508
1152.512, 1581.325
1152.994, 1584.640
1153.476, 1588.403
1153.958, 1595.257
1154.441, 1601.656
1154.923, 1604.598
1155.405, 1606.169
1155.887, 1608.351
1156.369, 1611.611
1156.851, 1617.150
1157.333, 1626.861
1157.815, 1632.302
1158.297, 1626.745
1158.780, 1623.331
1159.262, 1627.150
1159.744, 1633.626
1160.226, 1641.355
1160.708, 1648.652
1161.190, 1651.877
1161.672, 1650.585
1162.154, 1651.946
1162.636, 1656.643
1163.119, 1663.029
1163.601, 1674.373
1164.083, 1681.064
1164.565, 1675.816
1165.047, 1669.291
1165.529, 1673.484
1166.011, 1685.357
1166.493, 1692.301
1166.976, 1692.919
1167.458, 1695.769
1167.940, 1701.157
1168.422, 1707.533
1168.904, 1714.785
1169.386, 1721.687
1169.868, 1727.434
1170.350, 1732.075
1170.833, 1735.323
1171.315, 1737.587
1171.797, 1741.910
1172.279, 1747.889
1172.761, 1749.754
1173.243, 1747.432
1173.725, 1749.310
1174.207, 1758.521
1174.689, 1768.572
1175.172, 1773.381
1175.654, 1776.124
1176.136, 1782.507
1176.618, 1787.910
1177.100, 1797.040
1177.582, 1801.854
1178.064, 1808.985
1178.546, 1818.473
1179.028, 1826.296
1179.511, 1830.344
1179.993, 1835.411
1180.475, 1848.391
1180.957, 1861.565
1181.439, 1866.562
1181.921, 1867.895
1182.403, 1869.611
1182.885, 1873.158
1183.368, 1880.992
1183.850, 1893.059
1184.332, 1903.652
1184.814, 1908.794
1185.296, 1915.027
1185.778, 1926.213
1186.260, 1937.861
1186.742, 1947.213
1187.224, 1955.575
1187.707, 1964.399
1188.189, 1973.647
1188.671, 1982.972
1189.153, 1992.910
1189.635, 2000.831
1190.117, 2003.903
1190.599, 2009.195
1191.081, 2019.855
1191.564, 2029.978
1192.046, 2035.336
1192.528, 2039.670
1193.010, 2048.026
1193.492, 2060.096
1193.974, 2073.520
1194.456, 2088.643
1194.938, 2103.830
1195.421, 2119.693
1195.903, 2130.572
1196.385, 2133.944
1196.867, 2137.405
1197.349, 2146.535
1197.831, 2159.681
1198.313, 2174.658
1198.795, 2190.843
1199.277, 2204.634
1199.760, 2216.604
1200.242, 2229.172
1200.724, 2242.650
1201.206, 2256.401
1201.688, 2270.145
1202.170, 2283.879
1202.652, 2297.542
1203.134, 2311.350
1203.616, 2326.160
1204.099, 2340.887
1204.581, 2352.282
1205.063, 2363.101
1205.545, 2379.413
1206.027, 2400.431
1206.509, 2421.408
1206.991, 2441.036
1207.473, 2454.589
1207.956, 2451.833
1208.438, 2452.398
1208.920, 2470.028
1209.402, 2491.386
1209.884, 2506.031
1210.366, 2517.126
1210.848, 2530.316
1211.330, 2545.827
1211.813, 2560.538
1212.295, 2572.121
1212.777, 2586.992
1213.259, 2608.821
1213.741, 2628.196
1214.223, 2641.311
1214.705, 2653.699
1215.187, 2669.415
1215.669, 2686.495
1216.151, 2701.004
1216.634, 2713.168
1217.116, 2726.074
1217.598, 2739.590
1218.080, 2754.827
1218.562, 2771.927
1219.044, 2791.138
1219.526, 2812.788
1220.008, 2830.488
1220.491, 2838.316
1220.973, 2843.484
1221.455, 2858.757
1221.937, 2880.867
1222.419, 2904.090
1222.901, 2926.281
1223.383, 2939.339
1223.865, 2945.645
1224.348, 2957.801
1224.830, 2979.756
1225.312, 3001.850
1225.794, 3016.747
1226.276, 3031.067
1226.758, 3050.839
1227.240, 3071.410
1227.722, 3088.838
1228.204, 3104.165
1228.687, 3119.346
1229.169, 3133.894
1229.651, 3144.771
1230.133, 3150.143
1230.615, 3159.190
1231.097, 3175.515
1231.579, 3192.663
1232.061, 3212.479
1232.543, 3228.843
1233.026, 3235.931
1233.508, 3241.894
1233.990, 3256.499
1234.472, 3277.433
1234.954, 3294.867
1235.436, 3308.519
1235.918, 3320.141
1236.400, 3329.305
1236.883, 3341.901
1237.365, 3359.280
1237.847, 3374.246
1238.329, 3382.786
1238.811, 3389.819
1239.293, 3400.660
1239.775, 3414.442
1240.257, 3431.798
1240.740, 3449.697
1241.222, 3459.909
1241.704, 3464.815
1242.186, 3472.353
1242.668, 3483.214
1243.150, 3492.207
1243.632, 3496.977
1244.114, 3501.609
1244.596, 3507.522
1245.078, 3515.817
1245.561, 3529.539
1246.043, 3543.590
1246.525, 3553.285
1247.007, 3560.620
1247.489, 3568.171
1247.971, 3576.510
1248.453, 3587.843
1248.935, 3606.740
1249.418, 3617.263
1249.900, 3614.583
1250.382, 3612.434
1250.864, 3612.280
1251.346, 3616.321
1251.828, 3627.319
1252.310, 3639.572
1252.792, 3645.227
1253.275, 3651.514
1253.757, 3650.111
1254.239, 3656.853
1254.721, 3659.360
1255.203, 3658.344
1255.685, 3663.302
1256.167, 3675.468
1256.649, 3686.159
1257.131, 3690.916
1257.614, 3693.487
1258.096, 3697.052
1258.578, 3701.124
1259.060, 3705.527
1259.542, 3709.770
1260.024, 3712.628
1260.506, 3715.123
1260.988, 3719.789
1261.470, 3725.997
1261.953, 3729.588
1262.435, 3728.573
1262.917, 3729.188
1263.399, 3734.310
1263.881, 3739.374
1264.363, 3742.133
1264.845, 3745.929
1265.327, 3754.155
1265.810, 3762.250
1266.292, 3764.510
1266.774, 3762.594
1267.256, 3763.198
1267.738, 3766.574
1268.220, 3770.543
1268.702, 3775.234
1269.184, 3774.028
1269.667, 3766.042
1270.149, 3763.362
1270.631, 3771.473
1271.113, 3781.818
1271.595, 3786.599
1272.077, 3788.226
1272.559, 3788.296
1273.041, 3789.098
1273.523, 3796.381
1274.005, 3796.666
1274.488, 3807.685
1274.970, 3804.248
1275.452, 3805.022
1275.934, 3812.605
1276.416, 3820.609
1276.898, 3829.993
1277.380, 3834.423
1277.862, 3823.527
1278.345, 3818.063
1278.827, 3835.507
1279.309, 3854.796
1279.791, 3857.189
1280.273, 3850.559
1280.755, 3852.856
1281.237, 3863.916
1281.719, 3868.208
1282.202, 3864.759
1282.684, 3868.722
1283.166, 3881.565
1283.648, 3891.783
1284.130, 3895.750
1284.612, 3898.799
1285.094, 3904.683
1285.576, 3910.854
1286.058, 3913.125
1286.541, 3914.277
1287.023, 3918.594
##END=



