##NAMES=Fluorapatite
##RRUFFID=R060184
##IDEAL CHEMISTRY=Ca_5_(PO_4_)_3_F
##LOCALITY=Yates mine, Otter Lake, Quebec, Canada
##OWNER=RRUFF
##SOURCE=Lloyd Twaites
##DESCRIPTION=Green colored fragment of a hexagonal prism
##STATUS=The identification of this mineral has been confirmed by X-ray diffraction and chemical analysis
##URL=rruff.info/R060184
##MEASURED CHEMISTRY=(Ca_0.99_Ce_0.01_)_5.00_((P_0.98_Si_0.01_S_0.01_)O_4_)_3_F_1.00_
89.78156, 0.0000000E+00
90.26367, 205.7025
90.74579, 205.9455
91.22791, 205.8388
91.71002, 205.4246
92.19214, 205.0743
92.67426, 205.1848
93.15638, 205.6083
93.63850, 205.9489
94.12061, 206.0204
94.60273, 205.9388
95.08485, 205.9984
95.56696, 206.2175
96.04908, 206.4501
96.53120, 206.4345
97.01331, 206.1906
97.49543, 206.1185
97.97755, 206.5612
98.45966, 207.4693
98.94178, 207.9218
99.42390, 207.7900
99.90602, 207.3796
100.3881, 207.2759
100.8703, 207.5392
101.3524, 207.8982
101.8345, 208.2305
102.3166, 208.5289
102.7987, 208.8228
103.2808, 209.1258
103.7630, 209.4251
104.2451, 209.6125
104.7272, 209.5111
105.2093, 209.5345
105.6914, 209.9729
106.1735, 210.9973
106.6557, 212.1356
107.1378, 213.2856
107.6199, 214.4504
108.1020, 215.8823
108.5841, 217.7624
109.0662, 219.8252
109.5484, 221.8549
110.0305, 223.2691
110.5126, 225.2497
110.9947, 227.9590
111.4768, 231.4256
111.9590, 235.6149
112.4411, 240.1752
112.9232, 245.5792
113.4053, 252.2967
113.8874, 260.3448
114.3695, 269.8197
114.8517, 280.7771
115.3338, 293.4118
115.8159, 306.9934
116.2980, 320.6636
116.7801, 335.2372
117.2622, 352.3084
117.7444, 372.4638
118.2265, 395.4579
118.7086, 421.0278
119.1907, 449.4011
119.6728, 480.3927
120.1549, 514.0743
120.6371, 550.3806
121.1192, 589.2143
121.6013, 630.2627
122.0834, 673.5322
122.5655, 718.9939
123.0476, 768.3904
123.5298, 818.4436
124.0119, 866.3757
124.4940, 912.2454
124.9761, 957.0754
125.4582, 1001.229
125.9404, 1044.622
126.4225, 1086.711
126.9046, 1128.016
127.3867, 1167.662
127.8688, 1202.477
128.3509, 1231.851
128.8331, 1262.326
129.3152, 1302.199
129.7973, 1350.207
130.2794, 1398.918
130.7615, 1444.615
131.2436, 1488.339
131.7258, 1532.379
132.2079, 1576.346
132.6900, 1622.024
133.1721, 1672.019
133.6542, 1726.141
134.1364, 1784.066
134.6185, 1847.175
135.1006, 1915.567
135.5827, 1984.196
136.0648, 2053.956
136.5469, 2123.067
137.0291, 2188.386
137.5112, 2250.133
137.9933, 2305.346
138.4754, 2352.347
138.9575, 2390.228
139.4396, 2422.989
139.9218, 2450.594
140.4039, 2473.265
140.8860, 2490.818
141.3681, 2501.583
141.8502, 2509.964
142.3323, 2518.799
142.8145, 2527.917
143.2966, 2538.096
143.7787, 2548.667
144.2608, 2559.790
144.7429, 2575.341
145.2250, 2596.728
145.7072, 2621.488
146.1893, 2647.361
146.6714, 2673.571
147.1535, 2701.980
147.6356, 2732.776
148.1178, 2765.847
148.5999, 2801.194
149.0820, 2838.908
149.5641, 2878.745
150.0462, 2920.094
150.5283, 2965.644
151.0105, 3009.502
151.4926, 3022.878
151.9747, 3028.551
152.4568, 3033.561
152.9389, 3037.721
153.4210, 3041.474
153.9032, 3045.496
154.3853, 3052.927
154.8674, 3057.953
155.3495, 3058.272
155.8316, 3051.666
156.3137, 3045.397
156.7959, 3041.812
157.2780, 3039.179
157.7601, 3034.281
158.2422, 3022.717
158.7243, 3011.323
159.2065, 3003.596
159.6886, 3002.644
160.1707, 3000.629
160.6528, 2993.950
161.1349, 2984.281
161.6170, 2976.105
162.0992, 2971.638
162.5813, 2968.738
163.0634, 2965.884
163.5455, 2961.597
164.0276, 2958.792
164.5097, 2958.726
164.9919, 2961.184
165.4740, 2965.416
165.9561, 2975.039
166.4382, 2984.493
166.9203, 2988.684
167.4024, 2982.142
167.8846, 2974.181
168.3667, 2970.093
168.8488, 2969.567
169.3309, 2970.677
169.8130, 2973.163
170.2952, 2976.332
170.7773, 2979.313
171.2594, 2982.354
171.7415, 2984.662
172.2236, 2985.123
172.7057, 2983.827
173.1879, 2982.519
173.6700, 2982.177
174.1521, 2982.675
174.6342, 2983.810
175.1163, 2987.044
175.5984, 2990.069
176.0806, 2989.692
176.5627, 2985.890
177.0448, 2981.260
177.5269, 2977.927
178.0090, 2975.532
178.4911, 2973.130
178.9733, 2970.204
179.4554, 2967.122
179.9375, 2964.395
180.4196, 2962.073
180.9017, 2960.100
181.3838, 2958.649
181.8660, 2957.620
182.3481, 2956.520
182.8302, 2955.217
183.3123, 2953.763
183.7944, 2952.036
184.2766, 2949.936
184.7587, 2948.245
185.2408, 2947.960
185.7229, 2948.976
186.2050, 2950.563
186.6871, 2952.486
187.1693, 2954.715
187.6514, 2956.998
188.1335, 2959.296
188.6156, 2961.718
189.0977, 2964.357
189.5798, 2967.181
190.0620, 2970.426
190.5441, 2974.405
191.0262, 2978.965
191.5083, 2983.392
191.9904, 2987.814
192.4725, 2991.784
192.9547, 2994.150
193.4368, 2994.879
193.9189, 2995.986
194.4010, 2998.819
194.8831, 3003.282
195.3652, 3007.644
195.8474, 3011.836
196.3295, 3015.871
196.8116, 3019.844
197.2937, 3023.789
197.7758, 3027.336
198.2579, 3029.885
198.7401, 3031.386
199.2222, 3033.844
199.7043, 3037.665
200.1864, 3042.111
200.6685, 3045.433
201.1507, 3047.383
201.6328, 3049.138
202.1149, 3051.375
202.5970, 3054.120
203.0791, 3056.870
203.5612, 3059.415
204.0434, 3062.044
204.5255, 3065.786
205.0076, 3071.047
205.4897, 3076.097
205.9718, 3079.636
206.4539, 3081.325
206.9361, 3083.854
207.4182, 3088.038
207.9003, 3092.982
208.3824, 3095.459
208.8645, 3094.484
209.3466, 3093.686
209.8288, 3095.324
210.3109, 3099.780
210.7930, 3105.229
211.2751, 3112.297
211.7572, 3120.035
212.2393, 3124.819
212.7215, 3125.495
213.2036, 3125.616
213.6857, 3127.457
214.1678, 3131.514
214.6499, 3135.533
215.1320, 3139.210
215.6142, 3142.709
216.0963, 3146.945
216.5784, 3152.598
217.0605, 3157.644
217.5426, 3160.351
218.0247, 3159.345
218.5069, 3160.128
218.9890, 3164.028
219.4711, 3170.145
219.9532, 3173.993
220.4353, 3174.344
220.9175, 3174.551
221.3996, 3176.834
221.8817, 3181.936
222.3638, 3187.219
222.8459, 3192.595
223.3280, 3198.021
223.8102, 3202.712
224.2923, 3206.164
224.7744, 3209.734
225.2565, 3214.324
225.7386, 3220.406
226.2207, 3226.228
226.7029, 3231.545
227.1850, 3236.437
227.6671, 3241.192
228.1492, 3246.083
228.6313, 3250.438
229.1134, 3253.858
229.5956, 3256.337
230.0777, 3257.887
230.5598, 3257.863
231.0419, 3256.860
231.5240, 3257.838
232.0062, 3261.734
232.4883, 3266.414
232.9704, 3270.905
233.4525, 3276.185
233.9346, 3279.003
234.4167, 3277.606
234.8989, 3273.364
235.3810, 3273.076
235.8631, 3279.682
236.3452, 3286.319
236.8273, 3288.636
237.3094, 3283.272
237.7916, 3280.833
238.2737, 3282.933
238.7558, 3288.397
239.2379, 3292.390
239.7200, 3294.208
240.2021, 3295.446
240.6843, 3296.911
241.1664, 3298.577
241.6485, 3300.605
242.1306, 3303.432
242.6127, 3306.677
243.0948, 3308.635
243.5770, 3308.635
244.0591, 3308.426
244.5412, 3308.871
245.0233, 3310.037
245.5054, 3311.859
245.9876, 3314.224
246.4697, 3317.311
246.9518, 3321.872
247.4339, 3328.817
247.9160, 3335.918
248.3981, 3341.911
248.8803, 3345.991
249.3624, 3350.960
249.8445, 3357.306
250.3266, 3364.387
250.8087, 3370.350
251.2908, 3374.103
251.7730, 3378.272
252.2551, 3384.296
252.7372, 3393.765
253.2193, 3400.795
253.7014, 3404.095
254.1835, 3405.442
254.6657, 3408.955
255.1478, 3415.526
255.6299, 3422.731
256.1120, 3429.745
256.5941, 3436.546
257.0763, 3443.154
257.5584, 3449.567
258.0405, 3455.920
258.5226, 3462.391
259.0047, 3469.162
259.4868, 3475.840
259.9690, 3482.118
260.4511, 3487.776
260.9332, 3494.153
261.4153, 3501.621
261.8974, 3509.559
262.3795, 3516.875
262.8617, 3523.664
263.3438, 3529.719
263.8259, 3534.928
264.3080, 3539.144
264.7901, 3543.269
265.2722, 3547.391
265.7544, 3551.277
266.2365, 3554.562
266.7186, 3557.238
267.2007, 3559.296
267.6828, 3560.791
268.1649, 3561.770
268.6471, 3561.490
269.1292, 3559.392
269.6113, 3556.937
270.0934, 3556.091
270.5755, 3557.294
271.0576, 3558.404
271.5398, 3558.727
272.0219, 3558.307
272.5040, 3558.425
272.9861, 3559.183
273.4682, 3560.246
273.9503, 3561.325
274.4325, 3562.425
274.9146, 3563.346
275.3967, 3563.705
275.8788, 3563.724
276.3610, 3565.591
276.8431, 3569.810
277.3252, 3574.284
277.8073, 3576.876
278.2894, 3577.419
278.7715, 3578.222
279.2537, 3579.735
279.7358, 3581.927
280.2179, 3584.858
280.7000, 3588.779
281.1821, 3592.504
281.6642, 3594.981
282.1464, 3596.215
282.6285, 3597.270
283.1106, 3597.882
283.5927, 3598.765
284.0748, 3602.346
284.5569, 3608.877
285.0391, 3615.647
285.5212, 3620.259
286.0033, 3622.952
286.4854, 3627.249
286.9675, 3634.011
287.4496, 3641.812
287.9318, 3648.123
288.4139, 3652.963
288.8960, 3656.376
289.3781, 3657.452
289.8602, 3656.878
290.3423, 3658.211
290.8245, 3661.996
291.3066, 3667.285
291.7887, 3673.022
292.2708, 3679.168
292.7529, 3684.883
293.2350, 3689.138
293.7172, 3692.588
294.1993, 3697.459
294.6814, 3704.208
295.1635, 3710.850
295.6456, 3713.825
296.1277, 3714.078
296.6099, 3715.683
297.0920, 3721.070
297.5741, 3728.893
298.0562, 3737.041
298.5383, 3745.491
299.0204, 3753.074
299.5026, 3757.804
299.9847, 3760.612
300.4668, 3764.123
300.9489, 3769.360
301.4311, 3775.865
301.9132, 3783.465
302.3953, 3792.183
302.8774, 3800.302
303.3595, 3806.396
303.8416, 3811.046
304.3238, 3815.346
304.8059, 3819.079
305.2880, 3823.081
305.7701, 3828.123
306.2522, 3834.173
306.7343, 3840.764
307.2165, 3848.660
307.6986, 3856.596
308.1807, 3862.982
308.6628, 3867.229
309.1449, 3870.198
309.6270, 3871.608
310.1092, 3872.075
310.5913, 3873.605
311.0734, 3879.024
311.5555, 3885.017
312.0376, 3888.018
312.5197, 3885.846
313.0019, 3884.794
313.4840, 3890.294
313.9661, 3899.441
314.4482, 3906.348
314.9303, 3906.371
315.4124, 3904.957
315.8946, 3906.048
316.3767, 3911.012
316.8588, 3914.021
317.3409, 3910.162
317.8230, 3903.675
318.3051, 3900.149
318.7873, 3903.873
319.2694, 3908.637
319.7515, 3911.872
320.2336, 3913.306
320.7157, 3914.944
321.1978, 3917.959
321.6800, 3921.107
322.1621, 3923.247
322.6442, 3922.315
323.1263, 3922.188
323.6084, 3924.011
324.0905, 3927.678
324.5727, 3931.456
325.0548, 3934.662
325.5369, 3938.176
326.0190, 3942.533
326.5012, 3950.397
326.9833, 3956.144
327.4654, 3957.539
327.9475, 3956.024
328.4296, 3957.302
328.9117, 3963.459
329.3939, 3970.570
329.8760, 3977.141
330.3581, 3983.081
330.8402, 3988.504
331.3223, 3992.958
331.8044, 3996.938
332.2866, 4001.578
332.7687, 4007.494
333.2508, 4012.894
333.7329, 4017.139
334.2150, 4019.990
334.6971, 4022.634
335.1793, 4025.163
335.6614, 4027.434
336.1435, 4029.452
336.6256, 4031.792
337.1077, 4032.540
337.5898, 4030.582
338.0720, 4026.212
338.5541, 4024.643
339.0362, 4026.786
339.5183, 4029.974
340.0004, 4031.724
340.4825, 4031.884
340.9647, 4032.188
341.4468, 4032.823
341.9289, 4033.875
342.4110, 4035.781
342.8931, 4038.588
343.3752, 4041.561
343.8574, 4043.838
344.3395, 4045.473
344.8216, 4047.968
345.3037, 4051.461
345.7858, 4055.649
346.2679, 4060.604
346.7501, 4066.212
347.2322, 4070.664
347.7143, 4072.292
348.1964, 4071.952
348.6785, 4072.426
349.1607, 4073.854
349.6428, 4075.943
350.1249, 4079.095
350.6070, 4082.813
351.0891, 4085.516
351.5713, 4085.655
352.0534, 4084.874
352.5355, 4085.967
353.0176, 4088.869
353.4997, 4091.563
353.9818, 4092.004
354.4640, 4091.333
354.9461, 4091.427
355.4282, 4093.717
355.9103, 4095.842
356.3924, 4094.353
356.8745, 4090.457
357.3567, 4088.894
357.8388, 4094.895
358.3209, 4102.962
358.8030, 4108.080
359.2851, 4108.243
359.7672, 4108.359
360.2494, 4111.551
360.7315, 4116.505
361.2136, 4120.743
361.6957, 4120.625
362.1778, 4121.776
362.6599, 4128.287
363.1421, 4141.403
363.6242, 4152.071
364.1063, 4155.729
364.5884, 4156.317
365.0705, 4157.834
365.5526, 4161.474
366.0348, 4165.630
366.5169, 4170.320
366.9990, 4175.438
367.4811, 4179.740
367.9632, 4182.264
368.4453, 4184.501
368.9275, 4187.276
369.4096, 4190.790
369.8917, 4194.576
370.3738, 4199.111
370.8559, 4203.916
371.3380, 4207.530
371.8202, 4209.328
372.3023, 4210.840
372.7844, 4212.466
373.2665, 4213.972
373.7487, 4216.701
374.2308, 4221.394
374.7129, 4226.599
375.1950, 4230.260
375.6771, 4231.846
376.1592, 4233.656
376.6414, 4236.197
377.1235, 4239.493
377.6056, 4244.100
378.0877, 4250.578
378.5698, 4256.763
379.0519, 4260.335
379.5341, 4261.262
380.0162, 4263.280
380.4983, 4267.278
380.9804, 4272.392
381.4625, 4276.235
381.9446, 4278.885
382.4268, 4282.020
382.9089, 4287.460
383.3910, 4294.263
383.8731, 4299.088
384.3552, 4301.232
384.8373, 4303.342
385.3195, 4309.133
385.8016, 4317.502
386.2837, 4325.354
386.7658, 4330.921
387.2479, 4335.303
387.7300, 4340.058
388.2122, 4345.131
388.6943, 4349.696
389.1764, 4352.345
389.6585, 4354.356
390.1406, 4357.366
390.6227, 4362.468
391.1049, 4367.750
391.5870, 4371.950
392.0691, 4375.272
392.5512, 4378.348
393.0333, 4380.700
393.5154, 4383.436
393.9976, 4387.524
394.4797, 4393.630
394.9618, 4399.220
395.4439, 4402.984
395.9260, 4405.919
396.4081, 4409.341
396.8903, 4414.979
397.3724, 4419.781
397.8545, 4422.313
398.3366, 4422.435
398.8188, 4423.964
399.3009, 4428.348
399.7830, 4433.429
400.2651, 4437.810
400.7472, 4440.333
401.2293, 4443.855
401.7115, 4448.610
402.1936, 4454.426
402.6757, 4460.974
403.1578, 4468.955
403.6399, 4476.433
404.1220, 4482.364
404.6042, 4486.450
405.0863, 4490.749
405.5684, 4495.107
406.0505, 4499.814
406.5326, 4505.327
407.0147, 4511.765
407.4969, 4518.298
407.9790, 4524.509
408.4611, 4530.773
408.9432, 4538.788
409.4253, 4548.654
409.9074, 4559.114
410.3896, 4570.100
410.8717, 4581.162
411.3538, 4589.775
411.8359, 4594.737
412.3180, 4599.042
412.8001, 4607.303
413.2823, 4618.604
413.7644, 4629.896
414.2465, 4638.971
414.7286, 4647.288
415.2107, 4656.964
415.6928, 4668.010
416.1750, 4679.724
416.6571, 4692.005
417.1392, 4704.388
417.6213, 4716.663
418.1034, 4728.385
418.5855, 4740.204
419.0677, 4752.371
419.5498, 4764.924
420.0319, 4777.500
420.5140, 4789.694
420.9961, 4802.234
421.4782, 4815.660
421.9604, 4830.225
422.4425, 4845.099
422.9246, 4860.914
423.4067, 4876.556
423.8889, 4890.712
424.3710, 4901.672
424.8531, 4912.656
425.3352, 4924.741
425.8173, 4937.960
426.2994, 4948.782
426.7816, 4955.065
427.2637, 4961.028
427.7458, 4969.709
428.2279, 4983.333
428.7100, 4994.422
429.1921, 5001.889
429.6743, 5006.896
430.1564, 5011.955
430.6385, 5017.365
431.1206, 5021.704
431.6027, 5024.397
432.0848, 5025.487
432.5670, 5024.867
433.0491, 5022.092
433.5312, 5019.469
434.0133, 5019.970
434.4954, 5023.128
434.9775, 5025.514
435.4597, 5025.737
435.9418, 5025.514
436.4239, 5027.257
436.9060, 5031.031
437.3881, 5037.253
437.8702, 5048.834
438.3524, 5062.042
438.8345, 5071.247
439.3166, 5075.489
439.7987, 5077.948
440.2808, 5079.327
440.7629, 5080.877
441.2451, 5084.556
441.7272, 5095.186
442.2093, 5104.445
442.6914, 5106.788
443.1735, 5103.134
443.6556, 5099.890
444.1378, 5101.199
444.6199, 5102.494
445.1020, 5100.757
445.5841, 5093.913
446.0662, 5087.485
446.5483, 5083.249
447.0305, 5079.761
447.5126, 5074.552
447.9947, 5067.266
448.4768, 5058.763
448.9590, 5048.759
449.4411, 5037.233
449.9232, 5026.298
450.4053, 5015.581
450.8874, 5005.686
451.3695, 4997.260
451.8517, 4990.460
452.3338, 4983.943
452.8159, 4977.671
453.2980, 4971.498
453.7801, 4964.953
454.2622, 4958.036
454.7444, 4951.278
455.2265, 4945.072
455.7086, 4939.271
456.1907, 4933.453
456.6728, 4927.554
457.1549, 4921.936
457.6371, 4916.363
458.1192, 4911.263
458.6013, 4907.692
459.0834, 4906.570
459.5655, 4905.941
460.0476, 4903.729
460.5298, 4900.268
461.0119, 4896.673
461.4940, 4891.906
461.9761, 4888.250
462.4582, 4888.306
462.9403, 4892.577
463.4225, 4896.124
463.9046, 4896.131
464.3867, 4894.625
464.8688, 4893.528
465.3509, 4893.689
465.8330, 4893.883
466.3152, 4893.724
466.7973, 4893.404
467.2794, 4893.572
467.7615, 4893.933
468.2436, 4895.157
468.7257, 4897.846
469.2079, 4902.617
469.6900, 4905.583
470.1721, 4905.160
470.6542, 4904.590
471.1363, 4907.836
471.6184, 4916.239
472.1006, 4923.020
472.5827, 4926.744
473.0648, 4928.238
473.5469, 4929.806
474.0291, 4931.451
474.5112, 4933.313
474.9933, 4935.367
475.4754, 4937.712
475.9575, 4940.812
476.4396, 4944.743
476.9218, 4949.081
477.4039, 4953.552
477.8860, 4958.036
478.3681, 4962.186
478.8502, 4965.640
479.3323, 4968.951
479.8145, 4973.099
480.2966, 4977.667
480.7787, 4981.079
481.2608, 4982.042
481.7429, 4981.900
482.2250, 4981.338
482.7072, 4980.280
483.1893, 4979.620
483.6714, 4979.928
484.1535, 4980.697
484.6356, 4981.423
485.1177, 4981.375
485.5999, 4982.150
486.0820, 4984.771
486.5641, 4988.645
487.0462, 4991.534
487.5283, 4993.364
488.0104, 4994.455
488.4926, 4994.788
488.9747, 4994.206
489.4568, 4993.996
489.9389, 4993.962
490.4210, 4994.673
490.9031, 4996.812
491.3853, 5000.401
491.8674, 5004.747
492.3495, 5009.901
492.8316, 5015.365
493.3137, 5020.302
493.7958, 5024.664
494.2780, 5028.017
494.7601, 5029.023
495.2422, 5029.055
495.7243, 5030.487
496.2064, 5033.432
496.6885, 5037.884
497.1707, 5046.294
497.6528, 5055.511
498.1349, 5060.859
498.6170, 5057.499
499.0992, 5055.213
499.5813, 5061.957
500.0634, 5073.938
500.5455, 5081.923
501.0276, 5078.517
501.5097, 5074.431
501.9919, 5074.799
502.4740, 5081.002
502.9561, 5084.174
503.4382, 5079.927
503.9203, 5075.151
504.4024, 5074.851
504.8846, 5082.447
505.3667, 5087.330
505.8488, 5087.619
506.3309, 5085.664
506.8130, 5087.041
507.2951, 5092.740
507.7773, 5097.376
508.2594, 5098.349
508.7415, 5096.482
509.2236, 5096.653
509.7057, 5098.994
510.1878, 5101.812
510.6700, 5103.792
511.1521, 5105.167
511.6342, 5106.896
512.1163, 5109.438
512.5984, 5111.208
513.0806, 5109.031
513.5627, 5104.866
514.0448, 5102.800
514.5269, 5107.142
515.0090, 5112.063
515.4911, 5113.153
515.9733, 5110.922
516.4554, 5109.272
516.9375, 5109.566
517.4196, 5110.904
517.9017, 5113.003
518.3839, 5116.650
518.8660, 5118.922
519.3481, 5118.523
519.8302, 5117.017
520.3123, 5115.983
520.7944, 5115.239
521.2766, 5115.539
521.7587, 5117.971
522.2408, 5121.510
522.7229, 5121.447
523.2050, 5116.745
523.6871, 5112.643
524.1693, 5112.394
524.6514, 5115.694
525.1335, 5117.420
525.6156, 5117.176
526.0977, 5118.190
526.5798, 5126.620
527.0620, 5139.214
527.5441, 5145.438
528.0262, 5140.451
528.5083, 5133.018
528.9904, 5132.362
529.4725, 5136.555
529.9547, 5141.030
530.4368, 5142.313
530.9189, 5143.953
531.4010, 5148.963
531.8831, 5157.350
532.3652, 5164.257
532.8474, 5168.273
533.3295, 5170.258
533.8116, 5170.607
534.2937, 5167.168
534.7758, 5165.938
535.2579, 5168.440
535.7401, 5172.627
536.2222, 5175.576
536.7043, 5177.296
537.1864, 5178.013
537.6685, 5177.282
538.1506, 5175.773
538.6328, 5176.593
539.1149, 5180.069
539.5970, 5184.283
540.0791, 5188.342
540.5612, 5192.240
541.0433, 5195.326
541.5255, 5197.436
542.0076, 5199.883
542.4897, 5204.760
542.9718, 5210.782
543.4539, 5215.367
543.9360, 5217.146
544.4182, 5218.181
544.9003, 5219.388
545.3824, 5220.971
545.8645, 5223.450
546.3466, 5227.172
546.8287, 5231.621
547.3109, 5237.225
547.7930, 5243.948
548.2751, 5248.847
548.7572, 5250.678
549.2393, 5251.178
549.7214, 5251.284
550.2036, 5251.149
550.6857, 5250.197
551.1678, 5247.367
551.6499, 5244.933
552.1320, 5246.890
552.6141, 5254.249
553.0963, 5259.790
553.5784, 5261.670
554.0605, 5260.905
554.5426, 5258.788
555.0247, 5255.535
555.5068, 5254.843
555.9890, 5261.170
556.4711, 5270.779
556.9532, 5276.791
557.4353, 5278.917
557.9174, 5280.321
558.3995, 5283.063
558.8817, 5286.397
559.3638, 5289.438
559.8459, 5291.468
560.3281, 5294.114
560.8102, 5297.338
561.2923, 5301.724
561.7744, 5308.185
562.2565, 5318.983
562.7386, 5329.612
563.2208, 5338.704
563.7029, 5346.641
564.1850, 5356.870
564.6671, 5370.724
565.1492, 5384.373
565.6313, 5395.574
566.1135, 5403.939
566.5956, 5414.474
567.0777, 5427.773
567.5598, 5440.868
568.0419, 5449.570
568.5240, 5454.915
569.0062, 5462.591
569.4883, 5473.395
569.9704, 5487.471
570.4525, 5507.876
570.9346, 5531.970
571.4167, 5551.991
571.8989, 5559.955
572.3810, 5566.782
572.8631, 5580.150
573.3452, 5599.429
573.8273, 5620.286
574.3094, 5641.377
574.7916, 5663.261
575.2737, 5686.390
575.7558, 5711.131
576.2379, 5735.999
576.7200, 5762.766
577.2021, 5787.837
577.6843, 5808.013
578.1664, 5821.808
578.6485, 5835.119
579.1306, 5850.431
579.6127, 5863.491
580.0948, 5866.915
580.5770, 5860.732
581.0591, 5844.934
581.5412, 5815.670
582.0233, 5779.003
582.5054, 5747.622
582.9875, 5721.462
583.4697, 5696.838
583.9518, 5669.419
584.4339, 5643.679
584.9160, 5624.815
585.3981, 5613.756
585.8802, 5606.379
586.3624, 5602.992
586.8445, 5601.167
587.3266, 5598.661
587.8087, 5592.903
588.2908, 5589.240
588.7729, 5590.376
589.2551, 5593.433
589.7372, 5593.362
590.2193, 5588.297
590.7014, 5583.667
591.1835, 5580.763
591.6656, 5579.299
592.1478, 5578.367
592.6299, 5578.100
593.1120, 5577.042
593.5941, 5573.552
594.0762, 5568.431
594.5583, 5564.490
595.0405, 5561.815
595.5226, 5560.655
596.0047, 5562.311
596.4868, 5565.329
596.9689, 5566.980
597.4510, 5564.986
597.9332, 5566.157
598.4153, 5578.029
598.8974, 5594.711
599.3795, 5607.693
599.8616, 5611.688
600.3438, 5615.333
600.8259, 5620.050
601.3080, 5625.952
601.7901, 5633.459
602.2722, 5643.169
602.7543, 5653.322
603.2365, 5663.640
603.7186, 5673.943
604.2007, 5683.037
604.6828, 5690.928
605.1649, 5696.569
605.6470, 5698.896
606.1292, 5698.048
606.6113, 5694.928
607.0934, 5689.636
607.5755, 5682.047
608.0576, 5670.232
608.5398, 5656.467
609.0219, 5645.001
609.5040, 5638.807
609.9861, 5632.940
610.4683, 5623.501
610.9504, 5612.627
611.4325, 5604.688
611.9146, 5602.253
612.3967, 5601.824
612.8788, 5603.967
613.3610, 5608.267
613.8431, 5608.948
614.3252, 5604.802
614.8073, 5599.171
615.2894, 5593.033
615.7715, 5586.256
616.2537, 5582.195
616.7358, 5581.502
617.2179, 5580.068
617.7000, 5571.622
618.1821, 5558.588
618.6642, 5550.394
619.1464, 5549.239
619.6285, 5550.058
620.1106, 5547.931
620.5927, 5544.096
621.0748, 5540.759
621.5569, 5537.843
622.0391, 5536.491
622.5212, 5538.334
623.0033, 5542.315
623.4854, 5545.128
623.9675, 5544.034
624.4496, 5544.204
624.9318, 5548.032
625.4139, 5555.466
625.8960, 5559.896
626.3781, 5560.407
626.8602, 5560.148
627.3423, 5560.546
627.8245, 5561.643
628.3066, 5564.757
628.7887, 5570.021
629.2708, 5576.377
629.7529, 5583.863
630.2350, 5591.389
630.7172, 5596.373
631.1993, 5597.426
631.6814, 5597.829
632.1635, 5599.850
632.6456, 5602.997
633.1277, 5606.552
633.6099, 5610.458
634.0920, 5614.507
634.5741, 5619.271
635.0562, 5624.277
635.5383, 5627.795
636.0204, 5628.511
636.5026, 5629.841
636.9847, 5633.481
637.4668, 5639.195
637.9489, 5642.188
638.4310, 5642.126
638.9131, 5641.343
639.3953, 5641.119
639.8774, 5641.483
640.3595, 5642.113
640.8416, 5642.898
641.3237, 5645.327
641.8058, 5652.284
642.2880, 5661.156
642.7701, 5667.833
643.2522, 5670.494
643.7343, 5673.477
644.2164, 5679.696
644.6985, 5687.337
645.1807, 5693.939
645.6628, 5699.072
646.1449, 5702.941
646.6270, 5705.178
647.1091, 5706.308
647.5912, 5707.656
648.0734, 5709.502
648.5555, 5710.804
649.0376, 5710.913
649.5197, 5710.299
650.0018, 5711.261
650.4839, 5713.807
650.9661, 5716.335
651.4482, 5716.752
651.9303, 5716.892
652.4124, 5721.132
652.8945, 5729.534
653.3766, 5736.360
653.8588, 5736.831
654.3409, 5734.727
654.8230, 5733.061
655.3051, 5732.322
655.7872, 5732.143
656.2693, 5731.515
656.7515, 5731.932
657.2336, 5735.017
657.7158, 5742.712
658.1979, 5748.626
658.6800, 5751.969
659.1621, 5753.468
659.6442, 5754.199
660.1263, 5754.085
660.6085, 5753.453
661.0906, 5751.895
661.5727, 5750.359
662.0548, 5750.500
662.5369, 5752.130
663.0190, 5754.601
663.5012, 5760.760
663.9833, 5765.232
664.4654, 5761.883
664.9475, 5751.923
665.4296, 5744.817
665.9117, 5746.286
666.3939, 5749.335
666.8760, 5750.502
667.3581, 5749.379
667.8402, 5749.537
668.3223, 5751.679
668.8044, 5754.131
669.2866, 5755.702
669.7687, 5756.361
670.2508, 5756.116
670.7329, 5754.596
671.2150, 5753.449
671.6971, 5754.574
672.1793, 5757.433
672.6614, 5760.855
673.1435, 5764.745
673.6256, 5768.437
674.1077, 5772.176
674.5898, 5775.189
675.0720, 5776.280
675.5541, 5772.331
676.0362, 5769.543
676.5183, 5770.625
677.0004, 5774.173
677.4825, 5776.270
677.9647, 5776.633
678.4468, 5776.204
678.9289, 5774.708
679.4110, 5772.780
679.8931, 5773.625
680.3752, 5777.430
680.8574, 5781.625
681.3395, 5785.124
681.8216, 5787.867
682.3037, 5789.390
682.7858, 5789.743
683.2679, 5789.833
683.7501, 5790.161
684.2322, 5790.470
684.7143, 5790.367
685.1964, 5789.608
685.6785, 5789.394
686.1606, 5789.931
686.6428, 5791.164
687.1249, 5793.106
687.6070, 5796.246
688.0891, 5799.160
688.5712, 5802.249
689.0533, 5804.616
689.5355, 5804.895
690.0176, 5803.225
690.4997, 5801.237
690.9818, 5798.753
691.4639, 5797.628
691.9460, 5802.269
692.4282, 5810.117
692.9103, 5815.415
693.3924, 5814.233
693.8745, 5811.892
694.3566, 5810.553
694.8387, 5810.288
695.3209, 5811.326
695.8030, 5813.431
696.2851, 5817.161
696.7672, 5823.973
697.2493, 5832.670
697.7314, 5835.995
698.2136, 5831.622
698.6957, 5829.561
699.1778, 5835.617
699.6599, 5847.513
700.1420, 5855.979
700.6241, 5861.053
701.1063, 5861.778
701.5884, 5853.861
702.0705, 5843.201
702.5526, 5837.177
703.0347, 5836.330
703.5168, 5836.688
703.9990, 5837.288
704.4811, 5837.697
704.9632, 5837.309
705.4453, 5834.990
705.9274, 5835.165
706.4095, 5839.397
706.8917, 5844.359
707.3738, 5847.113
707.8560, 5847.366
708.3381, 5847.971
708.8202, 5849.299
709.3023, 5850.519
709.7844, 5849.620
710.2665, 5847.751
710.7487, 5848.475
711.2308, 5853.657
711.7129, 5859.178
712.1950, 5862.125
712.6771, 5863.239
713.1592, 5863.636
713.6414, 5862.596
714.1235, 5862.044
714.6056, 5861.867
715.0877, 5862.530
715.5698, 5865.488
716.0519, 5872.298
716.5341, 5877.088
717.0162, 5878.037
717.4983, 5876.218
717.9804, 5874.109
718.4625, 5871.759
718.9446, 5870.378
719.4268, 5871.236
719.9089, 5872.912
720.3910, 5873.942
720.8731, 5874.261
721.3552, 5873.622
721.8373, 5869.565
722.3195, 5866.639
722.8016, 5868.751
723.2837, 5876.097
723.7658, 5879.389
724.2479, 5875.151
724.7300, 5871.204
725.2122, 5871.510
725.6943, 5876.162
726.1764, 5879.167
726.6585, 5880.326
727.1406, 5881.327
727.6227, 5884.056
728.1049, 5887.541
728.5870, 5889.170
729.0691, 5888.686
729.5512, 5888.051
730.0333, 5887.972
730.5154, 5888.786
730.9976, 5891.064
731.4797, 5895.601
731.9618, 5899.413
732.4439, 5902.016
732.9260, 5903.697
733.4081, 5904.456
733.8903, 5903.757
734.3724, 5904.112
734.8545, 5905.803
735.3366, 5908.234
735.8187, 5910.706
736.3008, 5913.254
736.7830, 5915.861
737.2651, 5918.225
737.7472, 5921.609
738.2293, 5928.098
738.7114, 5936.138
739.1935, 5943.479
739.6757, 5952.561
740.1578, 5956.710
740.6399, 5948.208
741.1220, 5935.164
741.6041, 5932.136
742.0862, 5945.526
742.5684, 5954.378
743.0505, 5954.328
743.5326, 5948.940
744.0147, 5945.813
744.4968, 5944.823
744.9789, 5944.187
745.4611, 5943.389
745.9432, 5942.474
746.4253, 5941.864
746.9074, 5941.249
747.3895, 5939.779
747.8716, 5935.421
748.3538, 5931.990
748.8359, 5931.665
749.3180, 5933.996
749.8001, 5936.112
750.2822, 5937.880
750.7643, 5939.754
751.2465, 5942.276
751.7286, 5945.026
752.2107, 5945.219
752.6928, 5942.805
753.1749, 5940.804
753.6570, 5940.971
754.1392, 5942.552
754.6213, 5944.485
755.1034, 5946.706
755.5855, 5949.007
756.0676, 5949.948
756.5498, 5951.949
757.0319, 5957.443
757.5140, 5966.563
757.9962, 5972.648
758.4783, 5973.327
758.9604, 5973.665
759.4425, 5976.170
759.9246, 5980.697
760.4067, 5983.100
760.8889, 5983.086
761.3710, 5983.395
761.8531, 5986.981
762.3352, 5992.052
762.8173, 5995.280
763.2994, 5996.544
763.7816, 5996.863
764.2637, 5996.614
764.7458, 5995.952
765.2279, 5994.709
765.7100, 5992.518
766.1921, 5992.087
766.6743, 5994.190
767.1564, 5997.388
767.6385, 6001.237
768.1206, 6006.044
768.6027, 6008.583
769.0848, 6008.544
769.5670, 6007.791
770.0491, 6007.373
770.5312, 6007.581
771.0133, 6009.135
771.4954, 6012.133
771.9775, 6015.817
772.4597, 6020.386
772.9418, 6024.925
773.4239, 6028.796
773.9060, 6032.110
774.3881, 6033.963
774.8702, 6033.353
775.3524, 6032.503
775.8345, 6033.862
776.3166, 6037.860
776.7987, 6038.784
777.2808, 6035.695
777.7629, 6032.819
778.2451, 6034.969
778.7272, 6040.623
779.2093, 6047.454
779.6914, 6055.661
780.1735, 6061.769
780.6556, 6061.561
781.1378, 6059.265
781.6199, 6058.979
782.1020, 6062.689
782.5841, 6066.084
783.0662, 6068.856
783.5483, 6071.541
784.0305, 6074.967
784.5126, 6079.196
784.9947, 6082.279
785.4768, 6084.013
785.9589, 6084.470
786.4410, 6083.016
786.9232, 6080.533
787.4053, 6078.552
787.8874, 6077.458
788.3695, 6076.918
788.8516, 6076.368
789.3337, 6076.460
789.8159, 6078.101
790.2980, 6083.694
790.7801, 6086.327
791.2622, 6084.452
791.7443, 6081.336
792.2264, 6081.593
792.7086, 6085.000
793.1907, 6087.772
793.6728, 6089.307
794.1549, 6090.088
794.6370, 6090.104
795.1191, 6089.931
795.6013, 6090.638
796.0834, 6093.329
796.5655, 6095.359
797.0476, 6095.552
797.5297, 6094.740
798.0118, 6093.842
798.4940, 6092.202
798.9761, 6092.205
799.4582, 6094.440
799.9403, 6097.580
800.4224, 6100.255
800.9045, 6102.350
801.3867, 6102.927
801.8688, 6101.201
802.3509, 6100.050
802.8330, 6103.754
803.3151, 6109.286
803.7972, 6112.261
804.2794, 6109.127
804.7615, 6107.391
805.2436, 6110.626
805.7258, 6114.851
806.2079, 6115.267
806.6900, 6110.017
807.1721, 6108.742
807.6542, 6113.273
808.1364, 6119.656
808.6185, 6123.171
809.1006, 6124.209
809.5827, 6123.341
810.0648, 6119.727
810.5469, 6117.500
811.0291, 6122.029
811.5112, 6128.603
811.9933, 6131.756
812.4754, 6128.204
812.9575, 6124.313
813.4396, 6119.284
813.9218, 6115.150
814.4039, 6115.146
814.8860, 6119.713
815.3681, 6121.235
815.8502, 6118.384
816.3323, 6114.812
816.8145, 6115.257
817.2966, 6117.937
817.7787, 6119.638
818.2608, 6119.472
818.7429, 6119.032
819.2250, 6118.081
819.7072, 6117.815
820.1893, 6119.673
820.6714, 6125.556
821.1535, 6129.208
821.6356, 6129.886
822.1177, 6129.581
822.5999, 6130.172
823.0820, 6131.592
823.5641, 6133.665
824.0462, 6136.393
824.5283, 6139.296
825.0104, 6141.473
825.4926, 6143.720
825.9747, 6147.272
826.4568, 6153.162
826.9389, 6157.390
827.4210, 6157.494
827.9031, 6156.783
828.3853, 6157.243
828.8674, 6158.814
829.3495, 6162.570
829.8316, 6169.279
830.3137, 6174.735
830.7958, 6173.041
831.2780, 6167.457
831.7601, 6165.711
832.2422, 6168.866
832.7243, 6170.838
833.2064, 6163.851
833.6885, 6157.083
834.1707, 6159.414
834.6528, 6176.230
835.1349, 6182.279
835.6170, 6171.953
836.0991, 6160.457
836.5812, 6158.261
837.0634, 6164.681
837.5455, 6169.648
838.0276, 6173.113
838.5097, 6176.507
838.9918, 6180.491
839.4739, 6185.212
839.9561, 6191.536
840.4382, 6199.413
840.9203, 6205.397
841.4024, 6208.083
841.8845, 6208.631
842.3666, 6206.905
842.8488, 6202.997
843.3309, 6201.958
843.8130, 6204.325
844.2951, 6206.840
844.7772, 6208.001
845.2593, 6207.931
845.7415, 6206.292
846.2236, 6203.449
846.7057, 6201.139
847.1878, 6199.663
847.6699, 6199.698
848.1520, 6201.643
848.6342, 6205.547
849.1163, 6211.368
849.5984, 6220.693
850.0805, 6228.439
850.5626, 6232.495
851.0447, 6233.875
851.5269, 6235.584
852.0090, 6237.591
852.4911, 6239.914
852.9732, 6242.522
853.4553, 6245.375
853.9374, 6248.552
854.4196, 6251.916
854.9017, 6255.193
855.3839, 6259.393
855.8660, 6261.943
856.3481, 6261.691
856.8302, 6259.893
857.3123, 6259.096
857.7944, 6259.304
858.2766, 6261.142
858.7587, 6265.600
859.2408, 6270.086
859.7229, 6270.384
860.2050, 6267.975
860.6871, 6265.702
861.1693, 6263.638
861.6514, 6263.423
862.1335, 6267.411
862.6156, 6272.948
863.0977, 6276.359
863.5798, 6276.959
864.0620, 6277.320
864.5441, 6277.394
865.0262, 6277.765
865.5083, 6279.570
865.9904, 6282.236
866.4725, 6283.917
866.9547, 6284.048
867.4368, 6284.286
867.9189, 6285.592
868.4010, 6287.616
868.8831, 6290.199
869.3652, 6293.993
869.8474, 6296.414
870.3295, 6296.778
870.8116, 6296.924
871.2937, 6298.646
871.7758, 6301.755
872.2579, 6303.792
872.7401, 6304.755
873.2222, 6304.190
873.7043, 6299.560
874.1864, 6294.721
874.6685, 6294.239
875.1506, 6298.497
875.6328, 6301.381
876.1149, 6299.647
876.5970, 6298.120
877.0791, 6298.814
877.5612, 6301.421
878.0433, 6302.476
878.5255, 6301.880
879.0076, 6302.228
879.4897, 6305.873
879.9718, 6310.822
880.4539, 6314.713
880.9360, 6317.561
881.4182, 6319.350
881.9003, 6318.374
882.3824, 6318.229
882.8645, 6320.578
883.3466, 6324.565
883.8287, 6328.386
884.3109, 6332.217
884.7930, 6334.509
885.2751, 6334.249
885.7572, 6333.217
886.2393, 6334.632
886.7214, 6337.619
887.2036, 6339.962
887.6857, 6339.607
888.1678, 6340.563
888.6499, 6347.450
889.1320, 6355.372
889.6141, 6357.557
890.0963, 6350.944
890.5784, 6347.001
891.0605, 6347.008
891.5426, 6348.532
892.0247, 6349.150
892.5068, 6349.003
892.9890, 6347.819
893.4711, 6345.347
893.9532, 6344.652
894.4353, 6349.954
894.9174, 6356.467
895.3995, 6360.042
895.8817, 6359.258
896.3638, 6360.070
896.8459, 6362.940
897.3280, 6366.306
897.8101, 6367.958
898.2922, 6368.923
898.7744, 6377.038
899.2565, 6391.398
899.7386, 6402.954
900.2207, 6404.183
900.7028, 6401.824
901.1849, 6399.673
901.6671, 6398.108
902.1492, 6398.335
902.6313, 6401.231
903.1134, 6404.500
903.5955, 6407.632
904.0776, 6410.785
904.5598, 6415.369
905.0419, 6420.962
905.5240, 6423.771
906.0062, 6421.177
906.4883, 6417.438
906.9704, 6415.656
907.4525, 6415.572
907.9346, 6416.727
908.4167, 6421.712
908.8989, 6424.014
909.3810, 6422.208
909.8631, 6418.714
910.3452, 6416.013
910.8273, 6414.127
911.3094, 6414.336
911.7916, 6416.956
912.2737, 6419.986
912.7558, 6423.169
913.2379, 6424.817
913.7200, 6421.533
914.2021, 6410.859
914.6843, 6406.770
915.1664, 6415.882
915.6485, 6426.308
916.1306, 6432.307
916.6127, 6434.034
917.0948, 6432.877
917.5770, 6428.861
918.0591, 6425.437
918.5412, 6425.374
919.0233, 6426.573
919.5054, 6426.375
919.9875, 6425.331
920.4697, 6425.997
920.9518, 6433.182
921.4339, 6436.730
921.9160, 6432.694
922.3981, 6424.603
922.8802, 6421.467
923.3624, 6423.151
923.8445, 6425.848
924.3266, 6428.957
924.8087, 6431.483
925.2908, 6432.149
925.7729, 6431.650
926.2551, 6430.947
926.7372, 6429.554
927.2193, 6429.555
927.7014, 6432.239
928.1835, 6435.367
928.6656, 6436.746
929.1478, 6436.453
929.6299, 6436.506
930.1120, 6436.977
930.5941, 6439.274
931.0762, 6447.008
931.5583, 6455.728
932.0405, 6459.387
932.5226, 6457.494
933.0047, 6459.418
933.4868, 6472.167
933.9689, 6482.690
934.4510, 6484.915
934.9332, 6481.170
935.4153, 6483.706
935.8974, 6492.247
936.3795, 6502.245
936.8616, 6512.775
937.3438, 6522.270
937.8259, 6528.317
938.3080, 6532.253
938.7901, 6536.658
939.2722, 6541.649
939.7543, 6547.857
940.2365, 6554.025
940.7186, 6562.775
941.2007, 6578.268
941.6828, 6600.115
942.1649, 6623.143
942.6470, 6646.782
943.1292, 6672.524
943.6113, 6699.428
944.0934, 6730.525
944.5755, 6770.537
945.0576, 6821.374
945.5397, 6872.498
946.0219, 6920.388
946.5040, 6972.430
946.9861, 7031.787
947.4682, 7099.023
947.9503, 7172.081
948.4324, 7251.306
948.9146, 7337.521
949.3967, 7428.923
949.8788, 7529.576
950.3609, 7644.267
950.8430, 7771.151
951.3251, 7902.730
951.8073, 8038.502
952.2894, 8179.953
952.7715, 8329.212
953.2536, 8481.338
953.7357, 8624.080
954.2179, 8761.952
954.7000, 8914.643
955.1821, 9086.491
955.6642, 9265.308
956.1464, 9443.231
956.6285, 9623.122
957.1106, 9810.011
957.5927, 10005.47
958.0748, 10202.47
958.5569, 10401.80
959.0391, 10602.37
959.5212, 10813.40
960.0033, 11023.73
960.4854, 11202.04
960.9675, 11348.38
961.4496, 11459.89
961.9318, 11556.01
962.4139, 11597.53
962.8960, 11566.11
963.3781, 11462.27
963.8602, 11286.45
964.3423, 11033.18
964.8245, 10734.24
965.3066, 10386.35
965.7887, 10017.31
966.2708, 9647.879
966.7529, 9288.535
967.2350, 8968.804
967.7172, 8696.222
968.1993, 8448.606
968.6814, 8212.605
969.1635, 8001.359
969.6456, 7821.567
970.1277, 7675.322
970.6099, 7543.884
971.0920, 7427.549
971.5741, 7325.834
972.0562, 7242.594
972.5383, 7172.729
973.0204, 7110.994
973.5026, 7056.632
973.9847, 7006.370
974.4668, 6957.717
974.9489, 6915.454
975.4310, 6880.322
975.9131, 6851.704
976.3953, 6829.717
976.8774, 6813.790
977.3595, 6796.693
977.8416, 6776.432
978.3237, 6757.496
978.8058, 6744.462
979.2880, 6734.668
979.7701, 6725.000
980.2522, 6714.278
980.7343, 6706.562
981.2164, 6702.522
981.6985, 6700.229
982.1807, 6698.911
982.6628, 6698.243
983.1449, 6697.335
983.6270, 6695.959
984.1091, 6692.976
984.5912, 6683.728
985.0734, 6676.658
985.5555, 6678.186
986.0376, 6685.266
986.5197, 6689.109
987.0018, 6688.063
987.4839, 6689.605
987.9661, 6695.718
988.4482, 6702.543
988.9303, 6703.458
989.4124, 6701.717
989.8945, 6704.184
990.3766, 6712.954
990.8588, 6720.421
991.3409, 6721.990
991.8230, 6722.830
992.3051, 6726.064
992.7872, 6731.556
993.2693, 6736.264
993.7515, 6740.125
994.2336, 6744.349
994.7157, 6749.116
995.1978, 6754.872
995.6799, 6762.048
996.1620, 6770.603
996.6442, 6780.458
997.1263, 6793.467
997.6084, 6804.723
998.0905, 6813.022
998.5726, 6820.233
999.0547, 6828.474
999.5369, 6837.827
1000.019, 6849.758
1000.501, 6864.736
1000.983, 6876.934
1001.465, 6879.844
1001.947, 6880.341
1002.430, 6883.376
1002.912, 6889.451
1003.394, 6896.422
1003.876, 6904.852
1004.358, 6912.743
1004.840, 6919.087
1005.322, 6925.001
1005.804, 6933.147
1006.287, 6942.696
1006.769, 6951.838
1007.251, 6960.120
1007.733, 6967.420
1008.215, 6973.883
1008.697, 6979.264
1009.179, 6983.156
1009.661, 6985.375
1010.143, 6987.683
1010.626, 6990.170
1011.108, 6992.227
1011.590, 6993.357
1012.072, 6993.845
1012.554, 6992.774
1013.036, 6990.772
1013.518, 6992.594
1014.000, 7000.990
1014.483, 7009.648
1014.965, 7017.009
1015.447, 7024.008
1015.929, 7034.042
1016.411, 7045.678
1016.893, 7052.304
1017.375, 7049.896
1017.857, 7051.040
1018.339, 7067.613
1018.822, 7088.193
1019.304, 7102.266
1019.786, 7108.301
1020.268, 7118.913
1020.750, 7134.831
1021.232, 7150.146
1021.714, 7160.210
1022.196, 7167.881
1022.679, 7176.694
1023.161, 7186.712
1023.643, 7198.107
1024.125, 7213.571
1024.607, 7226.764
1025.089, 7235.690
1025.571, 7243.236
1026.053, 7253.749
1026.535, 7266.750
1027.018, 7279.613
1027.500, 7292.144
1027.982, 7303.413
1028.464, 7312.612
1028.946, 7320.423
1029.428, 7326.275
1029.910, 7330.393
1030.392, 7338.440
1030.875, 7352.304
1031.357, 7363.189
1031.839, 7367.418
1032.321, 7367.817
1032.803, 7367.897
1033.285, 7368.208
1033.767, 7370.330
1034.249, 7377.386
1034.731, 7380.802
1035.214, 7375.528
1035.696, 7368.841
1036.178, 7366.164
1036.660, 7367.508
1037.142, 7368.741
1037.624, 7369.800
1038.106, 7369.092
1038.588, 7363.203
1039.071, 7357.333
1039.553, 7355.511
1040.035, 7357.057
1040.517, 7359.254
1040.999, 7362.924
1041.481, 7364.023
1041.963, 7360.823
1042.445, 7357.977
1042.927, 7363.362
1043.410, 7373.000
1043.892, 7378.252
1044.374, 7377.268
1044.856, 7379.119
1045.338, 7393.431
1045.820, 7404.221
1046.302, 7402.373
1046.784, 7391.248
1047.266, 7388.953
1047.749, 7394.808
1048.231, 7401.889
1048.713, 7408.625
1049.195, 7413.360
1049.677, 7414.054
1050.159, 7412.382
1050.641, 7410.408
1051.123, 7407.574
1051.606, 7407.347
1052.088, 7410.560
1052.570, 7413.778
1053.052, 7415.146
1053.534, 7414.446
1054.016, 7409.314
1054.498, 7401.182
1054.980, 7396.486
1055.463, 7402.637
1055.945, 7406.024
1056.427, 7401.859
1056.909, 7394.931
1057.391, 7394.858
1057.873, 7400.186
1058.355, 7398.530
1058.837, 7387.557
1059.319, 7374.496
1059.802, 7363.859
1060.284, 7354.510
1060.766, 7345.962
1061.248, 7338.142
1061.730, 7330.185
1062.212, 7321.765
1062.694, 7315.579
1063.176, 7314.210
1063.658, 7312.975
1064.141, 7301.860
1064.623, 7286.956
1065.105, 7278.942
1065.587, 7284.468
1066.069, 7288.416
1066.551, 7288.910
1067.033, 7287.687
1067.515, 7284.558
1067.998, 7280.437
1068.480, 7281.881
1068.962, 7287.829
1069.444, 7292.710
1069.926, 7295.854
1070.408, 7294.466
1070.890, 7286.302
1071.372, 7273.100
1071.854, 7256.076
1072.337, 7234.661
1072.819, 7218.170
1073.301, 7208.200
1073.783, 7199.202
1074.265, 7186.438
1074.747, 7172.070
1075.229, 7157.588
1075.711, 7143.381
1076.193, 7131.243
1076.676, 7122.756
1077.158, 7112.508
1077.640, 7098.259
1078.122, 7083.112
1078.604, 7073.241
1079.086, 7066.390
1079.568, 7058.180
1080.051, 7047.755
1080.533, 7034.943
1081.015, 7015.276
1081.497, 6997.819
1081.979, 6988.013
1082.461, 6984.667
1082.943, 6979.397
1083.425, 6972.517
1083.907, 6966.533
1084.390, 6964.408
1084.872, 6961.056
1085.354, 6950.858
1085.836, 6938.851
1086.318, 6931.349
1086.800, 6929.282
1087.282, 6928.827
1087.764, 6930.269
1088.246, 6929.992
1088.729, 6923.260
1089.211, 6914.502
1089.693, 6908.834
1090.175, 6905.612
1090.657, 6901.893
1091.139, 6897.077
1091.621, 6891.673
1092.103, 6885.386
1092.586, 6879.357
1093.068, 6875.462
1093.550, 6872.968
1094.032, 6870.581
1094.514, 6868.166
1094.996, 6863.792
1095.478, 6854.532
1095.960, 6845.554
1096.443, 6838.120
1096.925, 6832.779
1097.407, 6832.412
1097.889, 6836.116
1098.371, 6837.094
1098.853, 6832.955
1099.335, 6827.789
1099.817, 6823.643
1100.299, 6820.349
1100.781, 6818.260
1101.264, 6817.409
1101.746, 6813.597
1102.228, 6806.566
1102.710, 6799.561
1103.192, 6793.509
1103.674, 6789.250
1104.156, 6789.014
1104.638, 6790.952
1105.121, 6792.141
1105.603, 6793.454
1106.085, 6790.675
1106.567, 6782.353
1107.049, 6774.291
1107.531, 6771.827
1108.013, 6772.581
1108.495, 6770.951
1108.978, 6767.904
1109.460, 6767.558
1109.942, 6773.739
1110.424, 6779.771
1110.906, 6785.490
1111.388, 6789.085
1111.870, 6786.138
1112.352, 6778.742
1112.834, 6776.846
1113.317, 6781.088
1113.799, 6785.454
1114.281, 6786.250
1114.763, 6786.482
1115.245, 6788.142
1115.727, 6790.168
1116.209, 6788.760
1116.691, 6784.166
1117.173, 6783.519
1117.656, 6789.185
1118.138, 6794.833
1118.620, 6795.072
1119.102, 6793.006
1119.584, 6790.236
1120.066, 6787.090
1120.548, 6788.671
1121.030, 6795.930
1121.513, 6800.912
1121.995, 6799.845
1122.477, 6796.748
1122.959, 6795.719
1123.441, 6796.151
1123.923, 6797.249
1124.405, 6798.995
1124.887, 6800.923
1125.370, 6802.943
1125.852, 6805.333
1126.334, 6808.530
1126.816, 6812.069
1127.298, 6815.463
1127.780, 6818.395
1128.262, 6820.005
1128.744, 6818.538
1129.226, 6817.829
1129.709, 6818.092
1130.191, 6819.358
1130.673, 6822.249
1131.155, 6826.100
1131.637, 6828.237
1132.119, 6828.845
1132.601, 6829.521
1133.083, 6831.529
1133.566, 6833.083
1134.048, 6833.792
1134.530, 6833.569
1135.012, 6832.080
1135.494, 6829.451
1135.976, 6826.154
1136.458, 6822.282
1136.940, 6819.940
1137.422, 6823.349
1137.905, 6826.093
1138.387, 6823.126
1138.869, 6816.856
1139.351, 6812.789
1139.833, 6810.914
1140.315, 6812.325
1140.797, 6817.812
1141.279, 6822.479
1141.761, 6820.978
1142.244, 6817.471
1142.726, 6815.225
1143.208, 6814.435
1143.690, 6814.412
1144.172, 6815.376
1144.654, 6815.354
1145.136, 6813.359
1145.618, 6811.122
1146.101, 6810.731
1146.583, 6811.305
1147.065, 6811.907
1147.547, 6812.398
1148.029, 6812.499
1148.511, 6812.733
1148.993, 6810.658
1149.475, 6804.906
1149.958, 6796.747
1150.440, 6785.881
1150.922, 6774.808
1151.404, 6768.330
1151.886, 6770.484
1152.368, 6770.685
1152.850, 6768.119
1153.332, 6764.146
1153.814, 6759.651
1154.297, 6754.458
1154.779, 6747.187
1155.261, 6738.720
1155.743, 6731.762
1156.225, 6728.659
1156.707, 6724.923
1157.189, 6719.495
1157.671, 6713.883
1158.153, 6709.071
1158.636, 6705.102
1159.118, 6702.447
1159.600, 6700.975
1160.082, 6699.987
1160.564, 6700.279
1161.046, 6699.535
1161.528, 6697.041
1162.010, 6693.446
1162.493, 6689.027
1162.975, 6684.037
1163.457, 6680.458
1163.939, 6678.203
1164.421, 6675.078
1164.903, 6667.087
1165.385, 6661.093
1165.867, 6662.639
1166.349, 6666.342
1166.832, 6662.542
1167.314, 6651.873
1167.796, 6644.177
1168.278, 6640.529
1168.760, 6635.954
1169.242, 6623.303
1169.724, 6612.259
1170.206, 6611.111
1170.688, 6615.438
1171.171, 6614.489
1171.653, 6608.355
1172.135, 6600.349
1172.617, 6590.753
1173.099, 6582.731
1173.581, 6580.697
1174.063, 6579.871
1174.545, 6575.157
1175.028, 6568.125
1175.510, 6569.324
1175.992, 6579.446
1176.474, 6580.086
1176.956, 6564.763
1177.438, 6546.023
1177.920, 6533.683
1178.402, 6524.870
1178.885, 6516.484
1179.367, 6508.499
1179.849, 6506.201
1180.331, 6510.242
1180.813, 6513.000
1181.295, 6511.489
1181.777, 6508.840
1182.259, 6510.092
1182.741, 6511.001
1183.224, 6505.649
1183.706, 6492.878
1184.188, 6483.935
1184.670, 6479.142
1185.152, 6475.198
1185.634, 6469.618
1186.116, 6465.960
1186.598, 6470.936
1187.081, 6479.057
1187.563, 6482.916
1188.045, 6481.234
1188.527, 6475.535
1189.009, 6464.720
1189.491, 6456.259
1189.973, 6454.938
1190.455, 6457.253
1190.938, 6461.129
1191.420, 6464.888
1191.902, 6465.748
1192.384, 6463.164
1192.866, 6457.979
1193.348, 6449.778
1193.830, 6441.254
1194.312, 6432.501
1194.794, 6425.780
1195.276, 6425.665
1195.759, 6429.455
1196.241, 6431.570
1196.723, 6430.409
1197.205, 6429.313
1197.687, 6428.421
1198.169, 6426.936
1198.651, 6423.219
1199.133, 6419.222
1199.616, 6418.529
1200.098, 6419.579
1200.580, 6418.419
1201.062, 6414.117
1201.544, 6407.928
1202.026, 6399.226
1202.508, 6391.319
1202.990, 6387.899
1203.473, 6386.477
1203.955, 6384.209
1204.437, 6381.094
1204.919, 6377.337
1205.401, 6372.718
1205.883, 6368.259
1206.365, 6364.153
1206.847, 6359.686
1207.329, 6353.320
1207.812, 6346.836
1208.294, 6344.127
1208.776, 6343.644
1209.258, 6337.638
1209.740, 6320.104
1210.222, 6312.287
1210.704, 6318.636
1211.186, 6326.368
1211.668, 6321.011
1212.151, 6310.481
1212.633, 6305.054
1213.115, 6304.031
1213.597, 6300.079
1214.079, 6290.888
1214.561, 6283.876
1215.043, 6280.206
1215.525, 6278.150
1216.008, 6277.395
1216.490, 6276.046
1216.972, 6270.919
1217.454, 6262.468
1217.936, 6255.842
1218.418, 6251.359
1218.900, 6248.555
1219.382, 6247.764
1219.865, 6246.509
1220.347, 6241.102
1220.829, 6234.392
1221.311, 6229.316
1221.793, 6226.196
1222.275, 6224.231
1222.757, 6223.607
1223.239, 6223.993
1223.721, 6225.971
1224.203, 6226.127
1224.686, 6220.210
1225.168, 6210.951
1225.650, 6199.299
1226.132, 6186.261
1226.614, 6179.292
1227.096, 6179.915
1227.578, 6178.427
1228.061, 6172.533
1228.543, 6164.933
1229.025, 6156.424
1229.507, 6149.201
1229.989, 6146.909
1230.471, 6148.713
1230.953, 6145.322
1231.435, 6135.733
1231.917, 6129.607
1232.400, 6129.611
1232.882, 6131.097
1233.364, 6130.918
1233.846, 6129.096
1234.328, 6125.323
1234.810, 6119.852
1235.292, 6113.462
1235.774, 6106.175
1236.256, 6100.383
1236.739, 6097.282
1237.221, 6093.112
1237.703, 6081.854
1238.185, 6070.646
1238.667, 6066.552
1239.149, 6067.788
1239.631, 6066.237
1240.113, 6062.100
1240.596, 6060.372
1241.078, 6063.024
1241.560, 6063.814
1242.042, 6053.471
1242.524, 6044.096
1243.006, 6045.605
1243.488, 6054.242
1243.970, 6055.158
1244.453, 6049.350
1244.935, 6045.010
1245.417, 6043.922
1245.899, 6045.146
1246.381, 6051.056
1246.863, 6055.951
1247.345, 6056.690
1247.827, 6054.292
1248.309, 6050.965
1248.792, 6047.286
1249.274, 6045.838
1249.756, 6047.602
1250.238, 6049.547
1250.720, 6051.757
1251.202, 6051.777
1251.684, 6047.543
1252.166, 6041.458
1252.648, 6039.757
1253.131, 6041.375
1253.613, 6043.888
1254.095, 6047.293
1254.577, 6047.411
1255.059, 6039.226
1255.541, 6032.979
1256.023, 6032.646
1256.505, 6035.884
1256.988, 6039.327
1257.470, 6042.262
1257.952, 6042.305
1258.434, 6038.364
1258.916, 6038.329
1259.398, 6045.970
1259.880, 6051.539
1260.362, 6051.316
1260.844, 6048.518
1261.327, 6048.044
1261.809, 6048.731
1262.291, 6048.607
1262.773, 6047.241
1263.255, 6046.792
1263.737, 6047.245
1264.219, 6048.765
1264.701, 6051.477
1265.183, 6054.722
1265.666, 6057.847
1266.148, 6060.820
1266.630, 6063.620
1267.112, 6066.168
1267.594, 6068.484
1268.076, 6070.649
1268.558, 6071.480
1269.040, 6070.221
1269.523, 6069.126
1270.005, 6071.614
1270.487, 6074.403
1270.969, 6074.274
1271.451, 6071.637
1271.933, 6067.994
1272.415, 6063.459
1272.897, 6060.907
1273.380, 6061.539
1273.862, 6061.600
1274.344, 6058.078
1274.826, 6053.277
1275.308, 6048.404
1275.790, 6043.579
1276.272, 6038.837
1276.754, 6034.347
1277.236, 6030.779
1277.719, 6028.228
1278.201, 6027.428
1278.683, 6032.102
1279.165, 6034.488
1279.647, 6030.986
1280.129, 6024.061
1280.611, 6018.100
1281.093, 6013.079
1281.576, 6009.055
1282.058, 6006.045
1282.540, 6003.049
1283.022, 5998.853
1283.504, 5996.313
1283.986, 5996.548
1284.468, 5997.895
1284.950, 5997.723
1285.432, 5996.902
1285.915, 5997.111
1286.397, 5998.464
1286.879, 5998.658
1287.361, 5997.298
1287.843, 5995.434
1288.325, 5992.985
1288.807, 5991.384
1289.289, 5993.360
1289.771, 5996.243
1290.254, 5997.044
1290.736, 5995.869
1291.218, 5995.507
1291.700, 5996.147
1292.182, 5994.422
1292.664, 5989.305
1293.146, 5986.544
1293.628, 5993.664
1294.111, 6002.202
1294.593, 6006.779
1295.075, 6008.136
1295.557, 6007.094
1296.039, 6003.876
1296.521, 6000.281
1297.003, 5996.954
1297.485, 5996.849
1297.968, 6005.310
1298.450, 6010.721
1298.932, 6007.107
1299.414, 6001.471
1299.896, 6006.095
1300.378, 6017.289
1300.860, 6021.686
1301.342, 6019.339
1301.824, 6020.802
##END=



