##NAMES=Fluorapophyllite-(K)
##RRUFFID=R060554
##IDEAL CHEMISTRY=KCa_4_Si_8_O_20_F&#183;8H_2_O
##LOCALITY=unknown
##OWNER=RRUFF
##SOURCE=Gemological Institute of America
##DESCRIPTION=Colorless polished fragment
##STATUS=The identification of this mineral has been confirmed by X-ray diffraction and chemical analysis
##URL=rruff.info/R060554
##MEASURED CHEMISTRY=(K_0.88_Na_0.12_)Ca_4.00_Si_8.00_O_20_F_1.00_Â·8H2O
124.421, 958.029
124.903, 1019.023
125.385, 1085.680
125.867, 1159.256
126.349, 1259.508
126.831, 1393.932
127.313, 1550.945
127.796, 1732.242
128.278, 1934.499
128.760, 2155.256
129.242, 2393.203
129.724, 2651.569
130.206, 2902.162
130.688, 3174.656
131.170, 3416.089
131.652, 3620.822
132.135, 3779.702
132.617, 3872.785
133.099, 3880.413
133.581, 3794.696
134.063, 3640.936
134.545, 3378.857
135.027, 3094.453
135.509, 2826.763
135.992, 2584.181
136.474, 2364.144
136.956, 2165.079
137.438, 1990.131
137.920, 1837.839
138.402, 1710.392
138.884, 1601.954
139.366, 1507.292
139.848, 1426.011
140.331, 1361.807
140.813, 1321.429
141.295, 1314.663
141.777, 1311.764
142.259, 1305.812
142.741, 1306.512
143.223, 1324.388
143.705, 1362.211
144.188, 1413.883
144.670, 1471.233
145.152, 1532.133
145.634, 1604.481
146.116, 1698.999
146.598, 1802.646
147.080, 1895.827
147.562, 1971.675
148.044, 2042.817
148.527, 2132.844
149.009, 2244.508
149.491, 2358.451
149.973, 2475.531
150.455, 2591.916
150.937, 2699.518
151.419, 2795.461
151.901, 2883.593
152.383, 2969.454
152.866, 3050.146
153.348, 3138.120
153.830, 3230.679
154.312, 3333.105
154.794, 3459.448
155.276, 3612.893
155.758, 3795.878
156.240, 4005.304
156.723, 4236.013
157.205, 4499.301
157.687, 4803.792
158.169, 5145.409
158.651, 5520.304
159.133, 5955.357
159.615, 6391.978
160.097, 6766.370
160.579, 7101.977
161.062, 7320.100
161.544, 7367.121
162.026, 7249.026
162.508, 6999.925
162.990, 6573.134
163.472, 6055.138
163.954, 5572.528
164.436, 5130.366
164.919, 4724.568
165.401, 4356.712
165.883, 4025.761
166.365, 3727.183
166.847, 3469.722
167.329, 3242.165
167.811, 3028.800
168.293, 2827.255
168.775, 2644.324
169.258, 2486.731
169.740, 2354.532
170.222, 2245.079
170.704, 2161.873
171.186, 2101.193
171.668, 2056.497
172.150, 2025.645
172.632, 2016.097
173.115, 2040.246
173.597, 2100.152
174.079, 2167.604
174.561, 2227.292
175.043, 2294.966
175.525, 2386.296
176.007, 2506.500
176.489, 2643.712
176.971, 2779.259
177.454, 2908.626
177.936, 3072.535
178.418, 3290.158
178.900, 3548.404
179.382, 3840.195
179.864, 4164.831
180.346, 4523.291
180.828, 4918.522
181.311, 5350.719
181.793, 5814.311
182.275, 6356.803
182.757, 6905.254
183.239, 7420.338
183.721, 7907.495
184.203, 8296.100
184.685, 8503.705
185.167, 8522.769
185.650, 8399.031
186.132, 8062.198
186.614, 7623.404
187.096, 7133.373
187.578, 6593.939
188.060, 6062.419
188.542, 5594.642
189.024, 5192.377
189.507, 4862.022
189.989, 4649.574
190.471, 4490.874
190.953, 4345.604
191.435, 4203.782
191.917, 4079.764
192.399, 3987.470
192.881, 3925.628
193.363, 3903.799
193.846, 3951.953
194.328, 4027.337
194.810, 4103.809
195.292, 4175.210
195.774, 4249.060
196.256, 4330.921
196.738, 4418.708
197.220, 4527.289
197.702, 4680.082
198.185, 4844.344
198.667, 4993.686
199.149, 5122.750
199.631, 5260.467
200.113, 5439.934
200.595, 5663.449
201.077, 5917.895
201.559, 6196.590
202.042, 6513.038
202.524, 6877.993
203.006, 7295.083
203.488, 7757.674
203.970, 8259.970
204.452, 8803.526
204.934, 9384.322
205.416, 10031.600
205.898, 10696.260
206.381, 11365.110
206.863, 12036.080
207.345, 12669.790
207.827, 13249.450
208.309, 13782.100
208.791, 14182.120
209.273, 14452.870
209.755, 14554.420
210.238, 14441.810
210.720, 14116.200
211.202, 13642.040
211.684, 13043.450
212.166, 12316.600
212.648, 11591.520
213.130, 10849.810
213.612, 10155.040
214.094, 9543.721
214.577, 9019.340
215.059, 8563.306
215.541, 8174.548
216.023, 7852.815
216.505, 7570.007
216.987, 7335.102
217.469, 7133.801
217.951, 6957.848
218.434, 6805.794
218.916, 6670.500
219.398, 6544.037
219.880, 6428.028
220.362, 6337.420
220.844, 6275.688
221.326, 6239.516
221.808, 6220.370
222.290, 6220.074
222.773, 6245.265
223.255, 6312.667
223.737, 6413.243
224.219, 6501.875
224.701, 6576.297
225.183, 6639.320
225.665, 6700.035
226.147, 6753.617
226.629, 6786.859
227.112, 6801.685
227.594, 6790.967
228.076, 6729.875
228.558, 6607.520
229.040, 6454.767
229.522, 6289.192
230.004, 6109.320
230.486, 5911.157
230.969, 5688.453
231.451, 5448.391
231.933, 5200.468
232.415, 4942.074
232.897, 4685.285
233.379, 4431.931
233.861, 4186.622
234.343, 3957.845
234.825, 3751.707
235.307, 3562.015
235.790, 3378.508
236.272, 3200.141
236.754, 3032.957
237.236, 2877.095
237.718, 2734.943
238.200, 2610.189
238.682, 2508.229
239.165, 2418.719
239.647, 2332.162
240.129, 2248.153
240.611, 2172.323
241.093, 2111.726
241.575, 2058.471
242.057, 1998.809
242.539, 1927.049
243.021, 1857.681
243.503, 1802.614
243.986, 1760.438
244.468, 1720.458
244.950, 1677.252
245.432, 1636.183
245.914, 1605.502
246.396, 1587.394
246.878, 1572.705
247.361, 1557.040
247.843, 1541.024
248.325, 1525.508
248.807, 1508.706
249.289, 1496.097
249.771, 1498.945
250.253, 1519.953
250.735, 1535.580
251.217, 1535.744
251.699, 1525.230
252.182, 1510.032
252.664, 1489.897
253.146, 1471.967
253.628, 1467.276
254.110, 1476.278
254.592, 1485.989
255.074, 1490.917
255.556, 1496.774
256.039, 1510.264
256.521, 1532.517
257.003, 1560.250
257.485, 1590.881
257.967, 1624.711
258.449, 1660.817
258.931, 1697.452
259.413, 1737.471
259.896, 1781.646
260.378, 1830.760
260.860, 1888.348
261.342, 1959.809
261.824, 2044.796
262.306, 2123.823
262.788, 2192.977
263.270, 2260.065
263.752, 2333.964
264.235, 2410.141
264.717, 2476.200
265.199, 2524.822
265.681, 2556.923
266.163, 2578.679
266.645, 2602.420
267.127, 2604.150
267.609, 2572.232
268.091, 2515.333
268.574, 2444.821
269.056, 2365.588
269.538, 2280.297
270.020, 2198.566
270.502, 2118.527
270.984, 2044.547
271.466, 1976.104
271.948, 1914.088
272.431, 1860.900
272.913, 1816.883
273.395, 1778.061
273.877, 1736.714
274.359, 1687.366
274.841, 1646.671
275.323, 1615.113
275.805, 1590.373
276.288, 1571.164
276.770, 1557.062
277.252, 1548.170
277.734, 1544.340
278.216, 1545.254
278.698, 1553.074
279.180, 1570.544
279.662, 1592.256
280.144, 1614.623
280.626, 1639.124
281.109, 1671.014
281.591, 1716.775
282.073, 1775.473
282.555, 1825.941
283.037, 1858.506
283.519, 1894.877
284.001, 1941.055
284.483, 1995.544
284.966, 2055.292
285.448, 2117.086
285.930, 2184.418
286.412, 2266.763
286.894, 2370.172
287.376, 2476.429
287.858, 2571.033
288.340, 2668.923
288.823, 2785.919
289.305, 2928.521
289.787, 3086.237
290.269, 3246.698
290.751, 3409.511
291.233, 3576.250
291.715, 3745.637
292.197, 3920.311
292.679, 4104.385
293.162, 4298.729
293.644, 4493.439
294.126, 4686.447
294.608, 4875.327
295.090, 5047.777
295.572, 5212.087
296.054, 5341.844
296.536, 5408.347
297.018, 5416.655
297.501, 5399.878
297.983, 5381.964
298.465, 5343.622
298.947, 5248.440
299.429, 5088.222
299.911, 4895.173
300.393, 4686.279
300.875, 4463.460
301.358, 4244.875
301.840, 4027.324
302.322, 3819.287
302.804, 3628.519
303.286, 3454.237
303.768, 3289.976
304.250, 3130.875
304.732, 2978.789
305.215, 2839.510
305.697, 2714.537
306.179, 2598.826
306.661, 2486.526
307.143, 2382.160
307.625, 2295.164
308.107, 2230.548
308.589, 2180.719
309.071, 2130.337
309.553, 2079.315
310.036, 2026.995
310.518, 1969.467
311.000, 1912.632
311.482, 1859.792
311.964, 1812.314
312.446, 1773.259
312.928, 1747.670
313.410, 1739.876
313.893, 1729.807
314.375, 1716.334
314.857, 1701.977
315.339, 1686.756
315.821, 1671.591
316.303, 1658.006
316.785, 1646.722
317.267, 1638.042
317.750, 1636.117
318.232, 1646.910
318.714, 1657.609
319.196, 1665.071
319.678, 1670.529
320.160, 1674.883
320.642, 1677.869
321.124, 1682.403
321.606, 1694.630
322.089, 1715.953
322.571, 1740.917
323.053, 1773.695
323.535, 1806.401
324.017, 1829.394
324.499, 1840.770
324.981, 1856.810
325.463, 1894.226
325.945, 1951.913
326.428, 2012.911
326.910, 2079.662
327.392, 2142.106
327.874, 2188.187
328.356, 2221.106
328.838, 2259.424
329.320, 2316.680
329.802, 2382.794
330.284, 2439.299
330.767, 2483.686
331.249, 2529.403
331.731, 2587.792
332.213, 2655.544
332.695, 2719.302
333.177, 2779.055
333.659, 2833.626
334.142, 2882.020
334.624, 2924.332
335.106, 2960.806
335.588, 2992.456
336.070, 3017.051
336.552, 3027.476
337.034, 3025.980
337.516, 3009.567
337.998, 2972.440
338.480, 2922.603
338.963, 2869.146
339.445, 2814.333
339.927, 2753.518
340.409, 2679.965
340.891, 2589.275
341.373, 2500.382
341.855, 2412.645
342.337, 2326.933
342.819, 2244.558
343.302, 2164.557
343.784, 2084.717
344.266, 2001.739
344.748, 1917.117
345.230, 1839.806
345.712, 1770.495
346.194, 1725.896
346.677, 1693.348
347.159, 1657.880
347.641, 1619.645
348.123, 1570.357
348.605, 1535.341
349.087, 1494.596
349.569, 1453.625
350.051, 1420.618
350.533, 1372.939
351.016, 1339.803
351.498, 1299.791
351.980, 1257.968
352.462, 1236.050
352.944, 1228.908
353.426, 1232.213
353.908, 1230.064
354.390, 1220.247
354.872, 1207.384
355.355, 1192.262
355.837, 1176.565
356.319, 1165.422
356.801, 1160.786
357.283, 1160.519
357.765, 1163.090
358.247, 1168.443
358.729, 1176.206
359.211, 1185.860
359.694, 1198.107
360.176, 1215.807
360.658, 1243.999
361.140, 1267.656
361.622, 1276.004
362.104, 1280.229
362.586, 1295.648
363.069, 1326.026
363.551, 1363.117
364.033, 1395.747
364.515, 1420.066
364.997, 1455.723
365.479, 1507.072
365.961, 1564.202
366.443, 1621.928
366.925, 1681.108
367.408, 1744.874
367.890, 1815.871
368.372, 1893.218
368.854, 1969.753
369.336, 2045.678
369.818, 2120.208
370.300, 2198.100
370.782, 2271.900
371.264, 2335.330
371.747, 2386.257
372.229, 2424.399
372.711, 2451.059
373.193, 2466.739
373.675, 2463.262
374.157, 2443.810
374.639, 2397.310
375.121, 2310.205
375.603, 2189.329
376.086, 2066.261
376.568, 1955.746
377.050, 1853.525
377.532, 1751.553
378.014, 1648.669
378.496, 1553.225
378.978, 1470.480
379.460, 1399.602
379.943, 1335.099
380.425, 1276.612
380.907, 1224.629
381.389, 1177.990
381.871, 1137.814
382.353, 1108.323
382.835, 1091.621
383.317, 1078.866
383.799, 1055.904
384.282, 1014.476
384.764, 984.389
385.246, 968.222
385.728, 961.007
386.210, 964.925
386.692, 975.987
387.174, 982.529
387.656, 974.536
388.138, 954.477
388.621, 944.543
389.103, 955.131
389.585, 962.666
390.067, 958.687
390.549, 951.645
391.031, 950.901
391.513, 959.485
391.996, 973.021
392.478, 986.722
392.960, 1000.848
393.442, 1012.590
393.924, 1020.001
394.406, 1026.553
394.888, 1034.515
395.370, 1043.660
395.852, 1052.778
396.335, 1060.189
396.817, 1067.655
397.299, 1079.176
397.781, 1095.155
398.263, 1109.065
398.745, 1116.301
399.227, 1119.340
399.709, 1125.847
400.191, 1139.316
400.674, 1150.338
401.156, 1151.534
401.638, 1148.991
402.120, 1153.609
402.602, 1168.234
403.084, 1184.523
403.566, 1190.558
404.048, 1180.399
404.530, 1186.010
405.013, 1224.895
405.495, 1260.479
405.977, 1272.401
406.459, 1267.058
406.941, 1261.098
407.423, 1264.237
407.905, 1273.668
408.387, 1279.729
408.870, 1278.145
409.352, 1282.254
409.834, 1299.899
410.316, 1319.919
410.798, 1334.017
411.280, 1340.990
411.762, 1344.546
412.244, 1344.516
412.727, 1342.751
413.209, 1350.208
413.691, 1370.760
414.173, 1393.212
414.655, 1407.271
415.137, 1417.418
415.619, 1434.205
416.101, 1463.173
416.583, 1495.575
417.065, 1520.769
417.548, 1543.263
418.030, 1579.124
418.512, 1636.202
418.994, 1704.228
419.476, 1764.139
419.958, 1802.822
420.440, 1867.820
420.922, 1972.630
421.405, 2095.366
421.887, 2216.318
422.369, 2338.899
422.851, 2481.989
423.333, 2658.563
423.815, 2867.575
424.297, 3095.202
424.779, 3335.698
425.262, 3604.405
425.744, 3897.938
426.226, 4220.657
426.708, 4573.768
427.190, 4956.770
427.672, 5381.400
428.154, 5863.875
428.636, 6400.759
429.118, 6967.778
429.601, 7593.604
430.083, 8197.937
430.565, 8792.387
431.047, 9329.284
431.529, 9664.079
432.011, 9753.043
432.493, 9627.828
432.975, 9267.523
433.457, 8704.064
433.940, 8041.685
434.422, 7300.650
434.904, 6537.508
435.386, 5859.084
435.868, 5270.977
436.350, 4753.367
436.832, 4331.902
437.314, 3964.807
437.797, 3626.200
438.279, 3313.613
438.761, 3040.945
439.243, 2817.101
439.725, 2638.569
440.207, 2477.767
440.689, 2338.177
441.171, 2211.553
441.654, 2092.402
442.136, 1985.467
442.618, 1897.012
443.100, 1827.869
443.582, 1768.509
444.064, 1710.061
444.546, 1653.215
445.028, 1605.322
445.510, 1569.959
445.992, 1536.655
446.475, 1496.786
446.957, 1453.327
447.439, 1413.339
447.921, 1373.613
448.403, 1342.442
448.885, 1329.422
449.367, 1329.026
449.849, 1327.938
450.332, 1321.861
450.814, 1312.169
451.296, 1299.653
451.778, 1279.666
452.260, 1272.796
452.742, 1284.652
453.224, 1303.524
453.706, 1327.132
454.189, 1352.497
454.671, 1374.097
455.153, 1387.831
455.635, 1398.442
456.117, 1419.483
456.599, 1454.660
457.081, 1490.039
457.563, 1525.032
458.045, 1558.083
458.528, 1584.623
459.010, 1605.892
459.492, 1633.411
459.974, 1685.452
460.456, 1745.570
460.938, 1775.956
461.420, 1773.380
461.902, 1770.391
462.384, 1789.930
462.867, 1819.826
463.349, 1823.183
463.831, 1788.099
464.313, 1750.051
464.795, 1720.214
465.277, 1692.048
465.759, 1657.850
466.241, 1616.523
466.724, 1572.022
467.206, 1527.710
467.688, 1483.645
468.170, 1441.812
468.652, 1401.758
469.134, 1364.916
469.616, 1332.604
470.098, 1303.397
470.581, 1275.695
471.063, 1249.206
471.545, 1223.833
472.027, 1198.368
472.509, 1173.148
472.991, 1154.023
473.473, 1141.980
473.955, 1135.116
474.437, 1135.448
474.919, 1140.085
475.402, 1141.095
475.884, 1130.769
476.366, 1122.598
476.848, 1125.518
477.330, 1137.242
477.812, 1152.400
478.294, 1169.266
478.776, 1189.272
479.259, 1215.390
479.741, 1251.828
480.223, 1279.247
480.705, 1283.472
481.187, 1294.412
481.669, 1331.317
482.151, 1383.942
482.633, 1433.585
483.116, 1471.465
483.598, 1497.456
484.080, 1508.148
484.562, 1501.321
485.044, 1494.636
485.526, 1496.615
486.008, 1493.218
486.490, 1470.456
486.972, 1431.662
487.455, 1396.175
487.937, 1375.477
488.419, 1358.019
488.901, 1329.029
489.383, 1291.276
489.865, 1259.708
490.347, 1241.050
490.829, 1231.556
491.311, 1224.596
491.794, 1224.242
492.276, 1217.574
492.758, 1197.071
493.240, 1176.863
493.722, 1164.426
494.204, 1159.847
494.686, 1161.093
495.168, 1167.643
495.651, 1177.241
496.133, 1184.325
496.615, 1189.316
497.097, 1190.258
497.579, 1179.542
498.061, 1170.555
498.543, 1175.515
499.025, 1193.488
499.508, 1210.472
499.990, 1216.556
500.472, 1220.224
500.954, 1234.322
501.436, 1257.598
501.918, 1277.637
502.400, 1287.945
502.882, 1291.829
503.364, 1296.689
503.846, 1302.028
504.329, 1309.373
504.811, 1314.470
505.293, 1325.074
505.775, 1350.704
506.257, 1387.313
506.739, 1421.647
507.221, 1444.371
507.703, 1459.464
508.186, 1479.988
508.668, 1510.462
509.150, 1530.748
509.632, 1524.313
510.114, 1515.244
510.596, 1525.791
511.078, 1555.068
511.560, 1580.363
512.042, 1579.994
512.525, 1577.519
513.007, 1574.545
513.489, 1574.886
513.971, 1579.524
514.453, 1583.120
514.935, 1585.727
515.417, 1584.393
515.899, 1588.149
516.382, 1589.866
516.864, 1591.498
517.346, 1594.848
517.828, 1582.019
518.310, 1576.354
518.792, 1572.509
519.274, 1567.341
519.756, 1561.677
520.239, 1557.641
520.721, 1555.634
521.203, 1552.668
521.685, 1545.656
522.167, 1540.027
522.649, 1542.167
523.131, 1551.151
523.613, 1557.573
524.096, 1554.759
524.578, 1551.058
525.060, 1553.967
525.542, 1562.531
526.024, 1572.277
526.506, 1581.176
526.988, 1591.568
527.470, 1608.164
527.952, 1633.915
528.435, 1657.939
528.917, 1680.990
529.399, 1701.746
529.881, 1718.445
530.363, 1732.606
530.845, 1745.688
531.327, 1757.143
531.809, 1772.914
532.291, 1806.662
532.774, 1857.453
533.256, 1895.680
533.738, 1911.669
534.220, 1922.338
534.702, 1945.082
535.184, 1977.331
535.666, 2001.299
536.148, 2009.736
536.630, 2015.073
537.113, 2023.794
537.595, 2033.617
538.077, 2041.176
538.559, 2045.277
539.041, 2045.119
539.523, 2039.202
540.005, 2027.047
540.487, 2014.892
540.969, 2007.496
541.452, 1993.587
541.934, 1962.247
542.416, 1926.170
542.898, 1902.313
543.380, 1896.307
543.862, 1892.931
544.344, 1879.918
544.826, 1860.428
545.309, 1842.192
545.791, 1826.120
546.273, 1809.449
546.755, 1789.493
547.237, 1767.477
547.719, 1749.968
548.201, 1738.919
548.683, 1729.127
549.166, 1701.396
549.648, 1690.630
550.130, 1694.485
550.612, 1694.792
551.094, 1691.740
551.576, 1680.142
552.058, 1705.616
552.540, 1697.152
553.023, 1687.296
553.505, 1724.689
553.987, 1706.514
554.469, 1705.669
554.951, 1702.522
555.433, 1696.963
555.915, 1699.849
556.397, 1724.254
556.879, 1750.686
557.362, 1760.446
557.844, 1757.507
558.326, 1753.852
558.808, 1754.333
559.290, 1762.788
559.772, 1788.706
560.254, 1842.561
560.736, 1881.377
561.218, 1892.796
561.701, 1901.037
562.183, 1909.476
562.665, 1921.938
563.147, 1943.886
563.629, 1977.720
564.111, 2020.315
564.593, 2073.418
565.075, 2133.265
565.557, 2188.284
566.040, 2237.078
566.522, 2276.976
567.004, 2300.537
567.486, 2311.263
567.968, 2349.620
568.450, 2433.635
568.932, 2518.174
569.414, 2594.892
569.896, 2668.668
570.379, 2740.240
570.861, 2812.906
571.343, 2896.695
571.825, 3001.612
572.307, 3122.685
572.789, 3242.004
573.271, 3357.418
573.753, 3479.228
574.236, 3606.995
574.718, 3745.477
575.200, 3903.096
575.682, 4080.008
576.164, 4253.667
576.646, 4411.204
577.128, 4569.303
577.610, 4740.176
578.093, 4920.911
578.575, 5105.831
579.057, 5292.784
579.539, 5479.555
580.021, 5666.710
580.503, 5860.877
580.985, 6019.372
581.467, 6127.571
581.950, 6218.720
582.432, 6314.152
582.914, 6401.193
583.396, 6464.696
583.878, 6506.297
584.360, 6506.551
584.842, 6442.403
585.324, 6332.735
585.806, 6204.371
586.289, 6062.035
586.771, 5907.310
587.253, 5740.771
587.735, 5563.216
588.217, 5376.476
588.699, 5177.080
589.181, 4974.133
589.663, 4757.783
590.145, 4548.147
590.628, 4359.677
591.110, 4189.789
591.592, 4025.627
592.074, 3861.893
592.556, 3700.283
593.038, 3538.441
593.520, 3379.471
594.002, 3239.392
594.484, 3123.208
594.967, 3018.812
595.449, 2912.806
595.931, 2804.682
596.413, 2708.211
596.895, 2626.105
597.377, 2550.203
597.859, 2481.926
598.341, 2417.264
598.823, 2350.842
599.306, 2282.327
599.788, 2217.367
600.270, 2162.167
600.752, 2113.823
601.234, 2061.416
601.716, 2003.896
602.198, 1954.032
602.680, 1918.491
603.162, 1891.039
603.645, 1863.719
604.127, 1836.923
604.609, 1807.572
605.091, 1769.710
605.573, 1734.799
606.055, 1711.192
606.537, 1694.655
607.019, 1677.649
607.502, 1657.431
607.984, 1636.604
608.466, 1617.172
608.948, 1599.313
609.430, 1587.785
609.912, 1584.949
610.394, 1582.493
610.876, 1577.154
611.359, 1569.172
611.841, 1559.000
612.323, 1546.204
612.805, 1532.788
613.287, 1514.275
613.769, 1499.342
614.251, 1498.408
614.733, 1507.978
615.216, 1515.627
615.698, 1514.873
616.180, 1511.636
616.662, 1518.729
617.144, 1538.781
617.626, 1550.923
618.108, 1549.463
618.590, 1546.612
619.072, 1548.189
619.555, 1553.549
620.037, 1562.516
620.519, 1577.529
621.001, 1590.329
621.483, 1595.635
621.965, 1597.556
622.447, 1601.159
622.929, 1606.465
623.411, 1609.528
623.894, 1607.159
624.376, 1603.207
624.858, 1608.764
625.340, 1626.163
625.822, 1645.216
626.304, 1670.729
626.786, 1690.887
627.268, 1696.543
627.750, 1691.884
628.233, 1687.132
628.715, 1681.324
629.197, 1681.763
629.679, 1698.930
630.161, 1722.575
630.643, 1737.296
631.125, 1741.071
631.607, 1739.005
632.089, 1733.908
632.572, 1727.791
633.054, 1729.590
633.536, 1743.159
634.018, 1754.467
634.500, 1759.531
634.982, 1763.638
635.464, 1768.422
635.946, 1774.806
636.429, 1785.710
636.911, 1804.887
637.393, 1824.888
637.875, 1840.286
638.357, 1853.203
638.839, 1867.223
639.321, 1882.974
639.803, 1898.208
640.286, 1909.880
640.768, 1920.570
641.250, 1945.308
641.732, 1991.708
642.214, 2033.611
642.696, 2065.207
643.178, 2091.913
643.660, 2113.031
644.143, 2131.399
644.625, 2158.083
645.107, 2200.210
645.589, 2247.552
646.071, 2296.959
646.553, 2345.463
647.035, 2387.292
647.517, 2421.784
647.999, 2453.298
648.482, 2483.739
648.964, 2515.684
649.446, 2564.982
649.928, 2638.393
650.410, 2713.042
650.892, 2787.296
651.374, 2859.382
651.856, 2924.284
652.338, 2985.145
652.821, 3055.794
653.303, 3153.727
653.785, 3247.977
654.267, 3311.516
654.749, 3361.843
655.231, 3429.237
655.713, 3517.222
656.195, 3603.721
656.677, 3668.964
657.160, 3718.597
657.642, 3780.095
658.124, 3859.664
658.606, 3929.792
659.088, 3981.695
659.570, 4025.740
660.052, 4074.116
660.534, 4123.577
661.016, 4159.127
661.499, 4168.691
661.981, 4174.366
662.463, 4192.715
662.945, 4210.586
663.427, 4211.936
663.909, 4194.081
664.391, 4161.091
664.873, 4115.144
665.356, 4058.297
665.838, 3999.549
666.320, 3940.904
666.802, 3866.042
667.284, 3761.437
667.766, 3655.605
668.248, 3580.720
668.730, 3527.117
669.213, 3454.038
669.695, 3345.786
670.177, 3233.863
670.659, 3123.052
671.141, 3016.870
671.623, 2921.392
672.105, 2834.983
672.587, 2750.717
673.070, 2664.399
673.552, 2576.535
674.034, 2482.242
674.516, 2381.938
674.998, 2305.048
675.480, 2263.554
675.962, 2223.891
676.444, 2159.790
676.926, 2076.153
677.409, 1998.473
677.891, 1927.138
678.373, 1860.106
678.855, 1794.460
679.337, 1735.254
679.819, 1689.497
680.301, 1653.175
680.783, 1615.699
681.265, 1570.933
681.748, 1526.883
682.230, 1497.374
682.712, 1477.925
683.194, 1449.146
683.676, 1408.362
684.158, 1365.756
684.640, 1326.230
685.122, 1291.602
685.604, 1267.444
686.087, 1266.364
686.569, 1252.187
687.051, 1210.953
687.533, 1172.179
688.015, 1152.296
688.497, 1143.943
688.979, 1133.154
689.461, 1115.548
689.943, 1096.827
690.426, 1080.295
690.908, 1065.952
691.390, 1054.997
691.872, 1046.745
692.354, 1037.474
692.836, 1025.546
693.318, 1010.430
693.800, 990.192
694.283, 962.526
694.765, 941.576
695.247, 929.460
695.729, 920.885
696.211, 917.138
696.693, 913.908
697.175, 904.865
697.657, 888.812
698.140, 875.788
698.622, 873.722
699.104, 872.389
699.586, 860.849
700.068, 844.062
700.550, 833.834
701.032, 833.460
701.514, 835.627
701.997, 832.611
702.479, 825.074
702.961, 817.071
703.443, 808.663
703.925, 799.305
704.407, 786.615
704.889, 775.857
705.371, 775.507
705.853, 785.531
706.336, 787.590
706.818, 772.814
707.300, 760.055
707.782, 758.871
708.264, 760.156
708.746, 752.375
709.228, 736.471
709.710, 723.873
710.192, 722.298
710.675, 727.052
711.157, 732.931
711.639, 739.119
712.121, 740.381
712.603, 735.319
713.085, 731.197
713.567, 734.674
714.049, 743.086
714.531, 743.832
715.014, 730.730
715.496, 721.249
715.978, 718.797
716.460, 717.532
716.942, 713.521
717.424, 708.699
717.906, 707.769
718.388, 713.294
718.870, 718.304
719.353, 716.853
719.835, 713.672
720.317, 715.941
720.799, 722.341
721.281, 725.837
721.763, 723.047
722.245, 717.443
722.727, 715.042
723.210, 716.064
723.692, 712.752
724.174, 703.169
724.656, 694.892
725.138, 691.093
725.620, 690.333
726.102, 691.974
726.584, 697.021
727.067, 696.194
727.549, 680.411
728.031, 668.023
728.513, 669.036
728.995, 676.630
729.477, 678.742
729.959, 675.749
730.441, 667.496
730.924, 674.771
731.406, 678.277
731.888, 678.216
732.370, 663.904
732.852, 667.994
733.334, 664.710
733.816, 661.122
734.298, 667.802
734.780, 662.408
735.263, 657.113
735.745, 680.624
736.227, 695.312
736.709, 690.832
737.191, 682.815
737.673, 680.745
738.155, 681.510
738.637, 675.477
739.119, 653.677
739.602, 647.429
740.084, 659.496
740.566, 667.118
741.048, 670.532
741.530, 657.138
742.012, 665.448
742.494, 665.061
742.976, 664.316
743.458, 675.682
743.941, 664.732
744.423, 675.905
744.905, 676.630
745.387, 677.447
745.869, 680.185
746.351, 682.424
746.833, 679.979
747.315, 671.620
747.797, 668.367
748.280, 671.283
748.762, 677.910
749.244, 691.800
749.726, 706.272
750.208, 715.270
750.690, 718.979
751.172, 721.648
751.654, 723.681
752.137, 727.155
752.619, 733.100
753.101, 741.828
753.583, 753.734
754.065, 768.937
754.547, 788.951
755.029, 815.724
755.511, 843.013
755.994, 852.905
756.476, 844.433
756.958, 854.808
757.440, 893.005
757.922, 930.141
758.404, 949.200
758.886, 958.017
759.368, 973.172
759.851, 997.066
760.333, 1020.568
760.815, 1044.993
761.297, 1067.552
761.779, 1086.315
762.261, 1103.026
762.743, 1121.176
763.225, 1140.719
763.707, 1155.875
764.190, 1159.232
764.672, 1159.947
765.154, 1168.294
765.636, 1181.288
766.118, 1195.447
766.600, 1208.504
767.082, 1210.700
767.564, 1192.986
768.046, 1161.001
768.529, 1130.749
769.011, 1102.111
769.493, 1077.876
769.975, 1059.975
770.457, 1042.937
770.939, 1023.394
771.421, 1002.188
771.903, 981.510
772.385, 959.639
772.868, 941.958
773.350, 931.068
773.832, 921.913
774.314, 913.588
774.796, 904.862
775.278, 893.612
775.760, 879.541
776.242, 866.336
776.724, 853.483
777.207, 844.836
777.689, 847.897
778.171, 857.889
778.653, 863.049
779.135, 861.018
779.617, 855.395
780.099, 843.453
780.581, 839.514
781.064, 849.948
781.546, 877.485
782.028, 900.867
782.510, 920.323
782.992, 924.089
783.474, 948.115
783.956, 964.021
784.438, 979.594
784.920, 1001.999
785.403, 1029.857
785.885, 1050.311
786.367, 1076.429
786.849, 1119.540
787.331, 1168.921
787.813, 1209.644
788.295, 1239.045
788.778, 1264.835
789.260, 1293.160
789.742, 1317.386
790.224, 1330.517
790.706, 1335.907
791.188, 1342.213
791.670, 1349.509
792.152, 1346.157
792.634, 1320.687
793.117, 1283.560
793.599, 1259.197
794.081, 1246.055
794.563, 1226.013
795.045, 1196.038
795.527, 1160.887
796.009, 1121.896
796.491, 1082.226
796.973, 1050.216
797.456, 1029.010
797.938, 1006.083
798.420, 980.375
798.902, 954.231
799.384, 923.934
799.866, 896.389
800.348, 880.544
800.830, 877.089
801.312, 876.854
801.795, 881.963
802.277, 884.484
802.759, 878.755
803.241, 869.227
803.723, 857.959
804.205, 847.774
804.687, 846.807
805.169, 862.270
805.652, 881.279
806.134, 883.970
806.616, 878.297
807.098, 886.278
807.580, 908.834
808.062, 932.677
808.544, 950.998
809.026, 967.596
809.508, 989.037
809.991, 1015.564
810.473, 1039.543
810.955, 1061.533
811.437, 1079.616
811.919, 1095.475
812.401, 1104.364
812.883, 1101.831
813.365, 1087.677
813.847, 1061.724
814.330, 1008.690
814.812, 965.874
815.294, 945.554
815.776, 930.900
816.258, 909.774
816.740, 885.278
817.222, 865.632
817.705, 852.872
818.187, 846.996
818.669, 854.097
819.151, 863.163
819.633, 862.662
820.115, 855.104
820.597, 844.009
821.079, 831.992
821.561, 829.616
822.044, 828.757
822.526, 841.796
823.008, 851.464
823.490, 857.937
823.972, 851.656
824.454, 861.845
824.936, 865.433
825.418, 868.751
825.901, 881.259
826.383, 882.959
826.865, 888.692
827.347, 896.697
827.829, 908.959
828.311, 919.328
828.793, 922.811
829.275, 924.297
829.757, 932.450
830.240, 948.370
830.722, 958.986
831.204, 958.286
831.686, 958.716
832.168, 963.338
832.650, 971.258
833.132, 983.197
833.614, 997.648
834.096, 1010.586
834.579, 1020.602
835.061, 1028.121
835.543, 1033.311
836.025, 1036.245
836.507, 1036.230
836.989, 1034.064
837.471, 1031.418
837.953, 1029.008
838.435, 1027.565
838.918, 1026.524
839.400, 1027.529
839.882, 1037.871
840.364, 1055.948
840.846, 1068.427
841.328, 1071.947
841.810, 1070.919
842.292, 1068.362
842.774, 1065.080
843.257, 1064.281
843.739, 1067.022
844.221, 1067.030
844.703, 1061.806
845.185, 1058.429
845.667, 1062.173
846.149, 1068.457
846.631, 1067.996
847.114, 1057.415
847.596, 1057.607
848.078, 1078.196
848.560, 1097.031
849.042, 1112.171
849.524, 1120.532
850.006, 1116.830
850.488, 1103.759
850.971, 1091.523
851.453, 1083.529
851.935, 1075.750
852.417, 1064.976
852.899, 1054.489
853.381, 1039.534
853.863, 1029.188
854.345, 1012.651
854.828, 1014.895
855.310, 1012.582
855.792, 1005.954
856.274, 982.088
856.756, 980.481
857.238, 969.954
857.720, 959.059
858.202, 960.586
858.684, 947.506
859.167, 941.713
859.649, 946.570
860.131, 942.595
860.613, 930.116
861.095, 920.467
861.577, 915.156
862.059, 906.035
862.541, 888.231
863.023, 868.663
863.506, 856.357
863.988, 851.427
864.470, 852.039
864.952, 866.562
865.434, 868.601
865.916, 842.063
866.398, 814.597
866.880, 807.603
867.362, 814.682
867.845, 819.605
868.327, 822.943
868.809, 821.546
869.291, 809.910
869.773, 799.274
870.255, 795.693
870.737, 795.576
871.219, 794.900
871.701, 792.972
872.184, 790.046
872.666, 786.282
873.148, 781.484
873.630, 774.220
874.112, 766.766
874.594, 745.754
875.076, 736.253
875.558, 744.543
876.041, 748.514
876.523, 748.398
877.005, 731.958
877.487, 736.599
877.969, 732.791
878.451, 728.636
878.933, 736.244
879.415, 722.178
879.898, 729.599
880.380, 728.442
880.862, 731.211
881.344, 725.480
881.826, 722.375
882.308, 727.772
882.790, 728.461
883.272, 721.752
883.755, 724.770
884.237, 710.408
884.719, 711.297
885.201, 718.768
885.683, 712.485
886.165, 715.660
886.647, 715.232
887.129, 698.438
887.611, 710.107
888.094, 709.467
888.576, 696.187
889.058, 698.549
889.540, 693.342
890.022, 686.860
890.504, 675.686
890.986, 667.414
891.468, 665.484
891.950, 667.069
892.433, 669.512
892.915, 672.614
893.397, 676.481
893.879, 684.727
894.361, 688.846
894.843, 682.598
895.325, 674.578
895.807, 669.692
896.289, 668.722
896.772, 674.016
897.254, 686.447
897.736, 693.875
898.218, 683.826
898.700, 671.446
899.182, 671.141
899.664, 676.138
900.146, 675.510
900.628, 668.755
901.111, 662.240
901.593, 659.352
902.075, 658.576
902.557, 659.388
903.039, 660.610
903.521, 659.291
904.003, 656.226
904.485, 654.570
904.968, 655.362
905.450, 658.488
905.932, 664.666
906.414, 671.835
906.896, 675.122
907.378, 674.753
907.860, 671.395
908.342, 665.187
908.825, 659.893
909.307, 657.557
909.789, 656.504
910.271, 653.622
910.753, 649.174
911.235, 650.095
911.717, 657.624
912.199, 662.646
912.682, 663.018
913.164, 660.078
913.646, 653.402
914.128, 645.510
914.610, 644.617
915.092, 654.150
915.574, 659.688
916.056, 661.056
916.538, 658.529
917.021, 649.500
917.503, 639.270
917.985, 633.042
918.467, 630.731
918.949, 631.224
919.431, 637.891
919.913, 642.247
920.395, 643.185
920.877, 642.487
921.360, 639.865
921.842, 636.697
922.324, 636.192
922.806, 638.943
923.288, 636.381
923.770, 621.377
924.252, 608.006
924.734, 598.143
925.216, 594.237
925.699, 603.338
926.181, 618.973
926.663, 621.203
927.145, 599.204
927.627, 600.294
928.109, 586.781
928.591, 607.853
929.073, 620.530
929.555, 625.263
930.038, 598.259
930.520, 612.237
931.002, 609.790
931.484, 606.671
931.966, 626.417
932.448, 619.271
932.930, 632.735
933.412, 625.866
933.895, 606.584
934.377, 599.602
934.859, 609.958
935.341, 622.823
935.823, 627.580
936.305, 629.685
936.787, 637.920
937.269, 647.853
937.752, 648.054
938.234, 640.858
938.716, 641.040
939.198, 653.890
939.680, 664.886
940.162, 656.411
940.644, 637.266
941.126, 626.774
941.609, 623.131
942.091, 617.417
942.573, 609.344
943.055, 611.866
943.537, 633.046
944.019, 657.546
944.501, 659.394
944.983, 643.847
945.465, 642.066
945.948, 653.194
946.430, 660.796
946.912, 660.963
947.394, 660.010
947.876, 662.508
948.358, 667.118
948.840, 671.303
949.322, 675.104
949.804, 676.275
950.287, 674.547
950.769, 672.070
951.251, 669.274
951.733, 666.749
952.215, 664.400
952.697, 663.470
953.179, 669.908
953.661, 685.828
954.143, 697.559
954.626, 704.192
955.108, 707.346
955.590, 706.802
956.072, 704.850
956.554, 704.614
957.036, 705.601
957.518, 702.070
958.000, 691.044
958.482, 683.716
958.965, 680.052
959.447, 682.704
959.929, 697.590
960.411, 714.541
960.893, 716.219
961.375, 701.488
961.857, 699.352
962.339, 720.090
962.822, 733.813
963.304, 731.096
963.786, 727.903
964.268, 732.487
964.750, 743.108
965.232, 757.801
965.714, 778.041
966.196, 793.810
966.679, 804.735
967.161, 811.553
967.643, 808.013
968.125, 806.623
968.607, 819.646
969.089, 840.146
969.571, 851.325
970.053, 849.980
970.536, 849.473
971.018, 855.894
971.500, 856.507
971.982, 846.069
972.464, 829.976
972.946, 809.327
973.428, 786.974
973.910, 770.857
974.392, 763.545
974.875, 757.557
975.357, 756.438
975.839, 750.697
976.321, 728.712
976.803, 706.518
977.285, 700.908
977.767, 709.266
978.249, 717.495
978.731, 723.708
979.214, 728.018
979.696, 727.068
980.178, 728.185
980.660, 739.844
981.142, 752.236
981.624, 752.350
982.106, 741.824
982.588, 734.617
983.070, 735.773
983.553, 737.142
984.035, 733.425
984.517, 732.253
984.999, 743.799
985.481, 757.154
985.963, 755.068
986.445, 739.018
986.927, 730.793
987.409, 742.171
987.892, 753.061
988.374, 754.055
988.856, 753.965
989.338, 760.624
989.820, 769.097
990.302, 770.213
990.784, 764.142
991.266, 762.424
991.749, 773.314
992.231, 782.549
992.713, 779.553
993.195, 777.136
993.677, 789.062
994.159, 806.206
994.641, 811.396
995.123, 803.479
995.606, 800.705
996.088, 812.839
996.570, 827.917
997.052, 839.725
997.534, 852.879
998.016, 872.641
998.498, 895.650
998.980, 915.064
999.463, 930.151
999.945, 948.492
1000.427, 978.013
1000.909, 1005.072
1001.391, 1020.731
1001.873, 1033.214
1002.355, 1046.161
1002.837, 1062.410
1003.319, 1089.400
1003.802, 1126.983
1004.284, 1155.251
1004.766, 1157.473
1005.248, 1158.691
1005.730, 1172.411
1006.212, 1188.818
1006.694, 1202.888
1007.176, 1212.044
1007.658, 1214.759
1008.141, 1210.308
1008.623, 1193.182
1009.105, 1151.119
1009.587, 1108.841
1010.069, 1078.228
1010.551, 1051.983
1011.033, 1003.990
1011.515, 980.443
1011.997, 965.623
1012.480, 948.645
1012.962, 929.701
1013.444, 902.747
1013.926, 886.134
1014.408, 865.378
1014.890, 846.673
1015.372, 817.198
1015.854, 792.071
1016.337, 776.719
1016.819, 771.406
1017.301, 765.041
1017.783, 744.447
1018.265, 734.349
1018.747, 729.807
1019.229, 736.754
1019.711, 740.912
1020.193, 742.431
1020.676, 733.409
1021.158, 737.999
1021.640, 737.133
1022.122, 736.044
1022.604, 742.551
1023.086, 735.060
1023.568, 741.446
1024.050, 742.293
1024.533, 741.857
1025.015, 743.367
1025.497, 747.307
1025.979, 753.778
1026.461, 763.028
1026.943, 774.506
1027.425, 787.314
1027.907, 803.153
1028.390, 830.219
1028.872, 856.872
1029.354, 864.597
1029.836, 853.116
1030.318, 845.439
1030.800, 844.606
1031.282, 849.411
1031.764, 864.393
1032.246, 879.652
1032.729, 890.760
1033.211, 898.690
1033.693, 903.082
1034.175, 904.674
1034.657, 911.008
1035.139, 927.228
1035.621, 941.351
1036.103, 947.628
1036.585, 957.404
1037.068, 978.924
1037.550, 1004.010
1038.032, 1023.647
1038.514, 1038.246
1038.996, 1052.160
1039.478, 1059.867
1039.960, 1076.511
1040.442, 1108.733
1040.925, 1140.415
1041.407, 1161.291
1041.889, 1184.213
1042.371, 1223.770
1042.853, 1276.584
1043.335, 1324.847
1043.817, 1365.281
1044.299, 1409.633
1044.781, 1454.866
1045.264, 1510.068
1045.746, 1580.919
1046.228, 1657.458
1046.710, 1728.638
1047.192, 1799.003
1047.674, 1883.022
1048.156, 1982.578
1048.638, 2085.704
1049.120, 2188.166
1049.603, 2308.094
1050.085, 2451.332
1050.567, 2608.541
1051.049, 2768.852
1051.531, 2943.424
1052.013, 3122.077
1052.495, 3282.678
1052.977, 3885.689
1053.460, 5059.833
1053.942, 5819.440
1054.424, 5901.603
1054.906, 5810.121
1055.388, 5839.021
1055.870, 5982.860
1056.352, 6250.990
1056.834, 6629.977
1057.317, 6977.661
1057.799, 7293.360
1058.281, 7583.449
1058.763, 7850.048
1059.245, 8019.063
1059.727, 8052.607
1060.209, 7962.917
1060.691, 7751.954
1061.173, 7440.775
1061.656, 7096.243
1062.138, 6716.749
1062.620, 6288.062
1063.102, 5812.885
1063.584, 5328.517
1064.066, 4853.627
1064.548, 4423.820
1065.030, 4080.315
1065.512, 3791.674
1065.995, 3492.890
1066.477, 3198.844
1066.959, 2943.868
1067.441, 2726.489
1067.923, 2534.204
1068.405, 2361.356
1068.887, 2199.839
1069.369, 2041.486
1069.852, 1895.906
1070.334, 1778.317
1070.816, 1678.920
1071.298, 1583.475
1071.780, 1493.481
1072.262, 1416.474
1072.744, 1352.386
1073.226, 1293.337
1073.708, 1235.809
1074.191, 1181.784
1074.673, 1138.001
1075.155, 1093.918
1075.637, 1028.603
1076.119, 964.811
1076.601, 948.812
1077.083, 964.046
1077.565, 935.554
1078.047, 829.031
1078.530, 747.710
1079.012, 754.593
1079.494, 775.110
1079.976, 774.734
1080.458, 767.070
1080.940, 766.932
1081.422, 769.679
1081.904, 761.707
1082.386, 739.966
1082.869, 721.458
1083.351, 709.337
1083.833, 700.852
1084.315, 700.980
1084.797, 698.626
1085.279, 684.488
1085.761, 665.522
1086.243, 650.167
1086.726, 638.577
1087.208, 636.994
1087.690, 653.786
1088.172, 663.152
1088.654, 660.768
1089.136, 656.841
1089.618, 656.278
1090.100, 653.688
1090.583, 641.785
1091.065, 624.189
1091.547, 617.471
1092.029, 624.770
1092.511, 623.277
1092.993, 610.365
1093.475, 602.044
1093.957, 602.869
1094.439, 608.093
1094.922, 614.983
1095.404, 621.344
1095.886, 621.133
1096.368, 615.994
1096.850, 621.621
1097.332, 636.439
1097.814, 644.050
1098.296, 642.139
1098.778, 637.316
1099.261, 632.809
1099.743, 631.024
1100.225, 636.116
1100.707, 644.119
1101.189, 644.133
1101.671, 641.933
1102.153, 654.684
1102.635, 678.152
1103.118, 692.813
1103.600, 693.747
1104.082, 693.279
1104.564, 698.289
1105.046, 708.688
1105.528, 725.796
1106.010, 747.073
1106.492, 770.302
1106.974, 795.432
1107.457, 823.332
1107.939, 853.201
1108.421, 880.862
1108.903, 902.917
1109.385, 930.830
1109.867, 974.197
1110.349, 1018.977
1110.831, 1059.692
1111.313, 1096.772
1111.796, 1132.307
1112.278, 1164.423
1112.760, 1189.026
1113.242, 1205.246
1113.724, 1217.740
1114.206, 1230.589
1114.688, 1234.343
1115.170, 1233.532
1115.653, 1215.862
1116.135, 1171.048
1116.617, 1110.661
1117.099, 1044.732
1117.581, 976.458
1118.063, 931.224
1118.545, 916.227
1119.027, 894.040
1119.510, 863.416
1119.992, 822.688
1120.474, 768.095
1120.956, 720.886
1121.438, 699.213
1121.920, 690.969
1122.402, 668.213
1122.884, 634.630
1123.366, 621.645
1123.849, 626.102
1124.331, 626.450
1124.813, 619.177
1125.295, 608.388
1125.777, 596.120
1126.259, 584.998
1126.741, 578.127
1127.223, 573.755
1127.705, 570.677
1128.188, 567.334
1128.670, 561.204
1129.152, 552.436
1129.634, 538.839
1130.116, 522.365
1130.598, 516.632
1131.080, 533.421
1131.562, 548.726
1132.045, 547.400
1132.527, 539.568
1133.009, 528.661
1133.491, 518.191
1133.973, 509.821
1134.455, 505.215
1134.937, 509.811
1135.419, 527.210
1135.901, 537.547
1136.384, 534.096
1136.866, 528.567
1137.348, 520.969
1137.830, 514.696
1138.312, 512.792
1138.794, 511.656
1139.276, 504.513
1139.758, 493.388
1140.240, 497.303
1140.723, 522.202
1141.205, 534.223
1141.687, 530.885
1142.169, 517.924
1142.651, 494.818
1143.133, 479.417
1143.615, 486.739
1144.097, 504.095
1144.580, 508.891
1145.062, 503.279
1145.544, 493.595
1146.026, 482.170
1146.508, 479.647
1146.990, 486.065
1147.472, 494.839
1147.954, 502.912
1148.437, 506.315
1148.919, 498.505
1149.401, 490.298
1149.883, 492.966
1150.365, 501.957
1150.847, 518.632
1151.329, 534.119
1151.811, 530.604
1152.293, 510.879
1152.776, 499.253
1153.258, 506.421
1153.740, 509.722
1154.222, 497.102
1154.704, 484.964
1155.186, 479.188
1155.668, 476.948
1156.150, 476.351
1156.632, 477.630
1157.115, 482.043
1157.597, 489.564
1158.079, 493.959
1158.561, 494.952
1159.043, 492.872
1159.525, 485.695
1160.007, 483.384
1160.489, 490.897
1160.972, 497.808
1161.454, 494.660
1161.936, 486.013
1162.418, 479.567
1162.900, 476.365
1163.382, 487.360
1163.864, 474.127
1164.346, 491.426
1164.828, 501.314
1165.311, 504.189
1165.793, 479.046
1166.275, 490.082
1166.757, 486.619
1167.239, 482.561
1167.721, 498.689
1168.203, 477.621
1168.685, 493.429
1169.167, 494.516
1169.650, 502.342
1170.132, 492.565
1170.614, 494.756
1171.096, 508.793
1171.578, 518.791
1172.060, 517.725
1172.542, 515.424
1173.024, 515.021
1173.507, 514.380
1173.989, 511.450
1174.471, 507.992
1174.953, 506.878
1175.435, 507.716
1175.917, 505.711
1176.399, 499.406
1176.881, 498.297
1177.364, 503.825
1177.846, 506.501
1178.328, 503.232
1178.810, 502.001
1179.292, 508.653
1179.774, 518.082
1180.256, 523.239
1180.738, 524.450
1181.220, 521.192
1181.703, 515.104
1182.185, 509.910
1182.667, 505.966
1183.149, 503.004
1183.631, 500.688
1184.113, 497.657
1184.595, 493.124
1185.077, 487.736
1185.559, 478.390
1186.042, 472.392
1186.524, 478.365
1187.006, 487.344
1187.488, 488.660
1187.970, 485.432
1188.452, 487.818
1188.934, 497.754
1189.416, 504.061
1189.899, 506.487
1190.381, 505.209
1190.863, 498.636
1191.345, 492.352
1191.827, 488.771
1192.309, 484.985
1192.791, 477.658
1193.273, 470.102
1193.755, 471.267
1194.238, 479.598
1194.720, 484.823
1195.202, 486.994
1195.684, 484.478
1196.166, 478.839
1196.648, 480.281
1197.130, 491.775
1197.612, 499.869
1198.094, 491.567
1198.577, 482.082
1199.059, 489.727
1199.541, 497.963
1200.023, 485.746
1200.505, 468.358
1200.987, 467.543
1201.469, 480.453
1201.951, 492.350
1202.434, 501.375
1202.916, 506.249
1203.398, 503.399
1203.880, 502.078
1204.362, 506.728
1204.844, 505.566
1205.326, 490.591
1205.808, 475.255
1206.291, 473.810
1206.773, 479.561
1207.255, 471.901
1207.737, 453.136
1208.219, 453.764
1208.701, 470.576
1209.183, 483.190
1209.665, 488.478
1210.147, 488.747
1210.630, 485.292
1211.112, 482.252
1211.594, 483.463
1212.076, 484.820
1212.558, 479.693
1213.040, 475.718
1213.522, 482.611
1214.004, 493.273
1214.486, 499.996
1214.969, 501.761
1215.451, 496.166
1215.933, 480.559
1216.415, 478.966
1216.897, 509.323
1217.379, 524.851
1217.861, 515.183
1218.343, 505.552
1218.826, 505.929
1219.308, 507.373
1219.790, 501.875
1220.272, 492.791
1220.754, 487.305
1221.236, 484.698
1221.718, 479.746
1222.200, 473.990
1222.682, 475.332
1223.165, 482.734
1223.647, 488.763
1224.129, 490.674
1224.611, 486.991
1225.093, 473.418
1225.575, 464.847
1226.057, 479.097
1226.539, 493.989
1227.021, 493.572
1227.504, 486.474
1227.986, 477.295
1228.468, 470.106
1228.950, 473.383
1229.432, 487.320
1229.914, 498.071
1230.396, 506.665
1230.878, 508.282
1231.361, 500.786
1231.843, 494.687
1232.325, 492.834
1232.807, 492.985
1233.289, 494.038
1233.771, 493.301
1234.253, 485.090
1234.735, 474.832
1235.218, 475.707
1235.700, 482.924
1236.182, 487.422
1236.664, 489.680
1237.146, 494.304
1237.628, 500.328
1238.110, 499.014
1238.592, 485.394
1239.074, 476.256
1239.557, 482.967
1240.039, 488.301
1240.521, 484.622
1241.003, 480.387
1241.485, 479.537
1241.967, 481.000
1242.449, 483.356
1242.931, 487.358
1243.413, 496.784
1243.896, 511.841
1244.378, 519.658
1244.860, 520.281
1245.342, 510.910
1245.824, 493.323
1246.306, 485.181
1246.788, 492.169
1247.270, 498.625
1247.753, 492.593
1248.235, 483.136
1248.717, 474.209
1249.199, 470.801
1249.681, 482.918
1250.163, 498.171
1250.645, 503.520
1251.127, 501.028
1251.609, 496.182
1252.092, 489.608
1252.574, 486.320
1253.056, 486.779
1253.538, 490.003
1254.020, 497.572
1254.502, 501.749
1254.984, 500.487
1255.466, 496.496
1255.948, 491.155
1256.431, 486.134
1256.913, 483.954
1257.395, 482.618
1257.877, 477.866
1258.359, 471.569
1258.841, 464.378
1259.323, 459.717
1259.805, 467.664
1260.288, 483.829
##END=



