##NAMES=Fluorapatite
##RRUFFID=R050529
##IDEAL CHEMISTRY=Ca_5_(PO_4_)_3_F
##LOCALITY=Limburg de an Lahn, Germany
##OWNER=RRUFF
##SOURCE=University of Arizona Mineral Museum
##DESCRIPTION=Botryoidal aggregate
##STATUS=The identification of this mineral has been confirmed by X-ray diffraction and chemical analysis
##URL=rruff.info/R050529
##MEASURED CHEMISTRY=(Ca_4.68_[box]_0.32_)_Σ=5_((PO_4_)_2.36_(CO_3_)_0.64_)_Σ=3_F_1.00_
90.92609, 0.0000000E+00
91.40820, 12.76770
91.89032, 12.75200
92.37244, 12.74870
92.85455, 12.75929
93.33667, 12.79252
93.81879, 12.92166
94.30090, 13.08862
94.78302, 13.09286
95.26514, 12.79764
95.74725, 12.39184
96.22937, 12.32283
96.71149, 12.61011
97.19360, 13.01862
97.67572, 13.41942
98.15784, 13.80280
98.63995, 13.95477
99.12207, 13.72134
99.60419, 13.16388
100.0863, 12.81835
100.5684, 12.71982
101.0505, 12.76315
101.5327, 12.80595
102.0148, 12.82144
102.4969, 12.92959
102.9790, 13.21446
103.4611, 13.73362
103.9432, 14.06831
104.4253, 14.06709
104.9075, 13.96195
105.3896, 14.23709
105.8717, 15.14542
106.3538, 16.09462
106.8359, 16.85366
107.3180, 17.13053
107.8002, 17.71420
108.2823, 18.70694
108.7644, 20.02289
109.2465, 21.39126
109.7286, 22.62290
110.2107, 24.02538
110.6929, 25.75526
111.1750, 27.93533
111.6571, 30.28882
112.1392, 32.74105
112.6213, 35.31720
113.1034, 38.25985
113.5856, 41.55092
114.0677, 45.29533
114.5498, 49.53273
115.0319, 54.11456
115.5140, 59.37127
115.9961, 65.31951
116.4783, 71.96407
116.9604, 79.39966
117.4425, 87.78588
117.9246, 97.04578
118.4067, 107.0055
118.8888, 118.4538
119.3710, 130.0534
119.8531, 141.0871
120.3352, 151.4453
120.8173, 161.4593
121.2994, 171.2282
121.7815, 180.7085
122.2637, 189.8642
122.7458, 198.5094
123.2279, 206.8083
123.7100, 214.7272
124.1921, 222.1292
124.6742, 229.7102
125.1564, 238.0776
125.6385, 247.1482
126.1206, 256.7002
126.6027, 265.8125
127.0848, 275.3688
127.5669, 287.0135
128.0491, 301.3120
128.5312, 317.1052
129.0133, 332.7559
129.4954, 348.2352
129.9775, 364.5838
130.4596, 383.2862
130.9418, 403.5525
131.4239, 422.9516
131.9060, 440.8361
132.3881, 457.8333
132.8702, 475.4414
133.3523, 493.8618
133.8345, 511.3695
134.3166, 526.3154
134.7987, 538.8242
135.2808, 550.3672
135.7629, 561.2754
136.2450, 571.6662
136.7272, 582.0105
137.2093, 592.5968
137.6914, 602.4479
138.1735, 610.4258
138.6556, 616.2368
139.1377, 621.4753
139.6199, 626.8473
140.1020, 632.3000
140.5841, 635.5316
141.0662, 635.6020
141.5483, 634.6659
142.0304, 635.4681
142.5126, 638.5615
142.9947, 641.8332
143.4768, 642.7585
143.9589, 639.7569
144.4410, 637.2072
144.9231, 634.8082
145.4053, 633.0022
145.8874, 632.5410
146.3695, 634.3099
146.8516, 636.1542
147.3337, 637.3265
147.8158, 637.3510
148.2980, 638.0385
148.7801, 639.9297
149.2622, 642.3912
149.7443, 644.0919
150.2264, 644.2713
150.7085, 644.4205
151.1907, 645.0664
151.6728, 646.8235
152.1549, 648.0496
152.6370, 648.4890
153.1191, 648.3649
153.6012, 648.2180
154.0834, 647.5697
154.5655, 647.2688
155.0476, 647.7480
155.5297, 650.5714
156.0118, 652.0763
156.4939, 650.9266
156.9761, 647.8854
157.4582, 645.5272
157.9403, 644.6085
158.4224, 644.3979
158.9045, 644.4736
159.3866, 644.7513
159.8688, 645.3053
160.3509, 646.3864
160.8330, 647.8583
161.3151, 649.0667
161.7972, 649.6318
162.2793, 649.9353
162.7615, 650.2668
163.2436, 650.6082
163.7257, 651.0900
164.2078, 651.8469
164.6899, 652.8368
165.1720, 653.7777
165.6541, 654.3741
166.1363, 654.9037
166.6184, 655.6407
167.1005, 657.0713
167.5826, 658.4141
168.0647, 659.0671
168.5468, 659.0795
169.0290, 659.1387
169.5111, 659.7250
169.9932, 660.5975
170.4753, 661.4424
170.9574, 662.2372
171.4395, 662.8883
171.9217, 663.2480
172.4038, 663.3228
172.8859, 663.4120
173.3680, 663.9958
173.8501, 664.7394
174.3322, 665.0588
174.8144, 663.9521
175.2965, 662.6406
175.7786, 662.7275
176.2607, 664.2559
176.7428, 666.2873
177.2249, 668.4235
177.7071, 670.4414
178.1892, 671.8509
178.6713, 671.9146
179.1534, 671.3653
179.6355, 671.6373
180.1176, 672.8820
180.5998, 673.9172
181.0819, 673.1985
181.5640, 671.1298
182.0461, 669.1386
182.5282, 668.0065
183.0103, 667.4260
183.4925, 666.7084
183.9746, 665.8085
184.4567, 664.8965
184.9388, 664.5325
185.4209, 664.5342
185.9030, 663.7972
186.3852, 661.2035
186.8673, 657.3773
187.3494, 654.4337
187.8315, 652.5660
188.3136, 651.2842
188.7957, 650.1034
189.2779, 649.0098
189.7600, 647.5802
190.2421, 645.0614
190.7242, 641.8215
191.2063, 640.0794
191.6884, 640.1786
192.1706, 641.1779
192.6527, 641.7668
193.1348, 641.9314
193.6169, 641.8157
194.0990, 641.2457
194.5811, 640.2767
195.0633, 639.8570
195.5454, 640.0619
196.0275, 640.7328
196.5096, 641.8232
196.9917, 643.4174
197.4738, 644.5692
197.9560, 644.4365
198.4381, 643.0218
198.9202, 642.5320
199.4023, 643.2200
199.8844, 644.6858
200.3665, 646.1509
200.8487, 647.6078
201.3308, 649.2191
201.8129, 651.0789
202.2950, 653.1999
202.7771, 655.5319
203.2592, 658.2475
203.7414, 661.0147
204.2235, 663.0472
204.7056, 664.1478
205.1877, 665.1718
205.6698, 666.5000
206.1519, 668.1356
206.6341, 670.0762
207.1162, 672.5110
207.5983, 675.0414
208.0804, 676.7064
208.5625, 677.3189
209.0446, 677.5838
209.5268, 677.7861
210.0089, 677.9049
210.4910, 678.0671
210.9731, 678.2584
211.4552, 678.5195
211.9373, 679.0410
212.4195, 680.0504
212.9016, 680.7694
213.3837, 680.7167
213.8658, 679.6057
214.3479, 678.7687
214.8300, 678.1979
215.3121, 677.9247
215.7943, 678.1603
216.2764, 679.2703
216.7585, 680.0930
217.2406, 679.9626
217.7227, 678.4078
218.2048, 677.4259
218.6870, 677.2782
219.1691, 677.5695
219.6512, 677.2908
220.1333, 675.9993
220.6154, 674.9393
221.0975, 674.6495
221.5797, 675.3292
222.0618, 676.2321
222.5439, 677.4519
223.0260, 678.8640
223.5081, 680.2267
223.9902, 681.5468
224.4724, 682.8311
224.9545, 684.0261
225.4366, 685.0463
225.9187, 686.3441
226.4008, 688.0891
226.8829, 690.0573
227.3651, 691.8053
227.8472, 693.4297
228.3293, 694.6939
228.8114, 695.3185
229.2935, 694.7388
229.7757, 695.2914
230.2578, 697.5059
230.7399, 700.5684
231.2220, 702.9114
231.7041, 704.1865
232.1862, 705.2458
232.6684, 706.4993
233.1505, 708.3123
233.6326, 709.0314
234.1147, 708.1180
234.5968, 706.3969
235.0789, 705.4324
235.5611, 705.7680
236.0432, 705.9760
236.5253, 705.3914
237.0074, 703.4821
237.4895, 702.9098
237.9716, 704.6286
238.4538, 707.1104
238.9359, 707.8318
239.4180, 705.9752
239.9001, 703.6909
240.3822, 701.4939
240.8643, 699.3184
241.3465, 697.6584
241.8286, 696.7054
242.3107, 696.1290
242.7928, 695.4910
243.2749, 694.8580
243.7570, 694.0230
244.2392, 692.7776
244.7213, 690.9334
245.2034, 689.8304
245.6855, 689.7064
246.1676, 690.1174
246.6497, 690.5532
247.1319, 691.1262
247.6140, 691.5416
248.0961, 691.7258
248.5782, 691.6717
249.0603, 691.4876
249.5424, 690.9810
250.0246, 690.5400
250.5067, 690.5812
250.9888, 691.1859
251.4709, 692.1397
251.9530, 693.5569
252.4351, 695.4889
252.9173, 696.8114
253.3994, 697.1255
253.8815, 697.2803
254.3636, 698.1563
254.8457, 700.1140
255.3278, 701.9269
255.8100, 703.3261
256.2921, 704.3217
256.7742, 705.3600
257.2563, 706.3995
257.7384, 707.5309
258.2205, 708.8625
258.7026, 710.5660
259.1848, 712.0576
259.6669, 713.0853
260.1490, 713.7723
260.6311, 715.0833
261.1132, 717.2289
261.5953, 719.6768
262.0775, 722.0247
262.5596, 724.2731
263.0417, 726.4863
263.5238, 728.6523
264.0059, 730.7841
264.4880, 733.1501
264.9702, 735.9670
265.4523, 738.5358
265.9344, 740.2841
266.4165, 740.9206
266.8986, 741.7937
267.3807, 742.9362
267.8629, 744.4174
268.3450, 746.6805
268.8271, 750.2208
269.3092, 753.4024
269.7913, 755.2374
270.2734, 755.3969
270.7556, 755.8103
271.2377, 756.5442
271.7198, 757.6406
272.2019, 759.3577
272.6840, 761.9621
273.1661, 764.3357
273.6483, 765.8361
274.1304, 766.3303
274.6125, 767.0111
275.0946, 767.8919
275.5767, 768.9333
276.0588, 770.0457
276.5410, 771.1829
277.0231, 772.5090
277.5052, 774.1907
277.9873, 776.2307
278.4694, 777.7679
278.9515, 778.7012
279.4337, 779.2872
279.9158, 779.8558
280.3979, 780.4008
280.8800, 780.9264
281.3621, 781.6244
281.8442, 782.4019
282.3264, 782.1243
282.8085, 780.6042
283.2906, 778.7360
283.7727, 777.5350
284.2548, 777.0174
284.7369, 776.6643
285.2191, 776.4220
285.7012, 776.2324
286.1833, 775.9388
286.6654, 775.5964
287.1475, 774.8021
287.6296, 772.8997
288.1118, 770.0024
288.5939, 767.3958
289.0760, 765.4424
289.5581, 763.9029
290.0402, 762.1160
290.5223, 760.0598
291.0045, 758.0307
291.4866, 756.4793
291.9687, 755.2150
292.4508, 753.2153
292.9329, 750.0027
293.4150, 746.4410
293.8972, 744.2067
294.3793, 743.1761
294.8614, 741.8217
295.3435, 738.5533
295.8256, 734.1658
296.3077, 731.0251
296.7899, 729.6788
297.2720, 728.9695
297.7541, 727.3235
298.2362, 724.9484
298.7183, 722.7308
299.2004, 721.2081
299.6826, 720.1677
300.1647, 719.3668
300.6468, 718.8805
301.1289, 718.0311
301.6110, 715.3948
302.0931, 711.7418
302.5753, 709.0388
303.0574, 709.2259
303.5395, 710.4483
304.0216, 710.0400
304.5037, 707.9047
304.9858, 705.8403
305.4680, 705.8229
305.9501, 706.8506
306.4322, 707.1926
306.9143, 705.4365
307.3964, 703.3151
307.8785, 702.5863
308.3607, 703.1259
308.8428, 703.6442
309.3249, 703.3756
309.8070, 702.5811
310.2891, 701.5410
310.7712, 700.1393
311.2534, 698.7327
311.7355, 697.5721
312.2176, 696.5968
312.6997, 695.6418
313.1818, 694.6017
313.6639, 693.5536
314.1461, 692.5768
314.6282, 691.7751
315.1103, 690.8586
315.5924, 689.6215
316.0745, 688.1710
316.5566, 686.7086
317.0388, 685.5538
317.5209, 684.2598
318.0030, 682.5130
318.4851, 680.1848
318.9672, 677.8142
319.4493, 676.0011
319.9315, 674.1641
320.4136, 671.4987
320.8957, 666.1924
321.3778, 661.4852
321.8599, 658.8560
322.3420, 658.5778
322.8242, 657.9430
323.3063, 656.0617
323.7884, 653.7346
324.2705, 651.6607
324.7526, 650.5089
325.2347, 649.0073
325.7169, 646.6844
326.1990, 643.6136
326.6811, 640.9732
327.1632, 638.9787
327.6453, 637.3427
328.1274, 635.9073
328.6096, 634.5717
329.0917, 633.5631
329.5738, 633.3638
330.0559, 633.5553
330.5380, 632.7260
331.0201, 629.9000
331.5023, 627.1158
331.9844, 625.1980
332.4665, 624.5150
332.9486, 623.8412
333.4307, 623.2028
333.9128, 622.5595
334.3950, 621.8654
334.8771, 621.1348
335.3592, 620.3005
335.8413, 619.2468
336.3234, 617.8954
336.8055, 617.1366
337.2877, 617.3206
337.7698, 617.6175
338.2519, 617.0016
338.7340, 615.1989
339.2161, 613.5516
339.6982, 612.3030
340.1803, 611.4453
340.6624, 611.1504
341.1446, 611.6180
341.6267, 611.9843
342.1088, 611.3149
342.5909, 609.5569
343.0730, 608.6262
343.5551, 609.0658
344.0373, 610.1425
344.5194, 610.0458
345.0015, 608.7222
345.4836, 607.3137
345.9657, 606.4257
346.4478, 606.0161
346.9300, 605.9995
347.4121, 606.4924
347.8942, 606.9421
348.3763, 606.3551
348.8584, 604.9332
349.3405, 603.8304
349.8227, 603.9640
350.3048, 604.7028
350.7869, 604.5212
351.2690, 603.4026
351.7511, 602.3779
352.2332, 602.6346
352.7154, 603.6959
353.1975, 604.5237
353.6796, 604.6728
354.1617, 604.5605
354.6438, 604.5815
355.1259, 604.7228
355.6081, 604.9503
356.0902, 605.3176
356.5723, 605.7096
357.0544, 605.9445
357.5365, 605.8412
358.0186, 605.8805
358.5008, 606.5494
358.9829, 607.5999
359.4650, 608.5068
359.9471, 609.1119
360.4292, 609.4388
360.9113, 609.4156
361.3935, 608.9864
361.8756, 608.6331
362.3577, 608.6855
362.8398, 608.8892
363.3219, 608.9539
363.8040, 608.6673
364.2862, 608.3812
364.7683, 608.2164
365.2504, 608.1758
365.7325, 608.1639
366.2146, 608.0803
366.6967, 608.0773
367.1789, 608.2490
367.6610, 608.9552
368.1431, 609.4236
368.6252, 609.4336
369.1073, 609.1461
369.5894, 609.0627
370.0716, 609.0228
370.5537, 609.3513
371.0358, 610.2691
371.5179, 612.1251
372.0000, 613.5139
372.4821, 614.4246
372.9643, 614.8563
373.4464, 614.6738
373.9285, 613.3759
374.4106, 612.5168
374.8927, 612.5253
375.3748, 613.3685
375.8570, 614.2334
376.3391, 615.1410
376.8212, 616.0212
377.3033, 616.8519
377.7854, 617.6409
378.2675, 618.2410
378.7497, 618.5510
379.2318, 618.7455
379.7139, 619.3568
380.1960, 620.4233
380.6781, 621.4474
381.1602, 622.1305
381.6424, 622.5158
382.1245, 622.7805
382.6066, 622.8937
383.0887, 623.0969
383.5708, 623.8372
384.0529, 624.9953
384.5351, 626.0098
385.0172, 626.5363
385.4993, 626.8228
385.9814, 627.2706
386.4635, 627.8742
386.9456, 628.6373
387.4278, 629.6137
387.9099, 630.7246
388.3920, 631.8738
388.8741, 633.0712
389.3562, 634.2128
389.8383, 635.2790
390.3205, 636.2369
390.8026, 636.9713
391.2847, 637.1924
391.7668, 637.3098
392.2489, 637.6097
392.7310, 638.1213
393.2132, 638.8472
393.6953, 639.9387
394.1774, 641.1893
394.6595, 642.3585
395.1416, 643.6465
395.6237, 644.5713
396.1059, 644.5861
396.5880, 643.7923
397.0701, 643.7658
397.5522, 645.5040
398.0343, 647.6591
398.5164, 649.4417
398.9986, 650.7827
399.4807, 651.7545
399.9628, 652.0009
400.4449, 651.9128
400.9270, 652.3861
401.4091, 653.5222
401.8913, 655.0837
402.3734, 657.0067
402.8555, 659.2947
403.3376, 661.8768
403.8197, 664.5448
404.3018, 667.7429
404.7840, 672.4363
405.2661, 679.6348
405.7482, 684.6827
406.2303, 686.0886
406.7124, 684.8165
407.1945, 684.8948
407.6767, 686.3904
408.1588, 688.8607
408.6409, 692.1379
409.1230, 696.1865
409.6051, 700.7849
410.0872, 706.0426
410.5694, 711.5660
411.0515, 716.4476
411.5336, 720.8807
412.0157, 725.9413
412.4978, 732.1494
412.9799, 739.3152
413.4621, 747.2926
413.9442, 756.1400
414.4263, 765.1103
414.9084, 773.5319
415.3905, 781.7631
415.8727, 790.4963
416.3548, 799.8691
416.8369, 809.9396
417.3190, 820.9948
417.8011, 832.7899
418.2832, 844.8920
418.7654, 856.0777
419.2475, 868.0689
419.7296, 882.0881
420.2117, 898.6208
420.6938, 915.6779
421.1759, 932.2194
421.6581, 948.9168
422.1402, 966.7006
422.6223, 986.1288
423.1044, 1006.104
423.5865, 1025.712
424.0686, 1045.133
424.5508, 1066.630
425.0329, 1091.760
425.5150, 1117.771
425.9971, 1143.536
426.4792, 1169.387
426.9613, 1194.266
427.4435, 1218.303
427.9256, 1241.154
428.4077, 1262.484
428.8898, 1283.546
429.3719, 1300.841
429.8540, 1313.406
430.3362, 1321.354
430.8183, 1326.972
431.3004, 1330.620
431.7825, 1330.761
432.2646, 1325.829
432.7467, 1315.865
433.2289, 1302.789
433.7110, 1286.711
434.1931, 1268.279
434.6752, 1248.350
435.1573, 1226.997
435.6394, 1205.066
436.1216, 1182.093
436.6036, 1158.913
437.0858, 1137.646
437.5679, 1118.229
438.0500, 1100.572
438.5321, 1085.174
439.0142, 1071.383
439.4963, 1058.029
439.9785, 1044.275
440.4606, 1031.495
440.9427, 1020.861
441.4248, 1012.183
441.9069, 1005.052
442.3890, 1000.310
442.8712, 996.3261
443.3533, 992.0613
443.8354, 987.3136
444.3175, 982.7044
444.7996, 978.2448
445.2817, 974.1531
445.7639, 970.6175
446.2460, 968.5400
446.7281, 966.0377
447.2102, 962.9706
447.6923, 959.2498
448.1744, 954.4895
448.6566, 948.0846
449.1387, 941.2043
449.6208, 934.3138
450.1029, 927.2921
450.5850, 920.5427
451.0671, 914.5134
451.5493, 908.3832
452.0314, 900.7509
452.5135, 891.2536
452.9956, 882.1964
453.4777, 874.5084
453.9598, 867.7809
454.4420, 859.7670
454.9241, 850.3885
455.4062, 841.1042
455.8883, 833.3193
456.3704, 826.6914
456.8525, 819.6955
457.3347, 812.2125
457.8168, 804.6935
458.2989, 797.9005
458.7810, 791.6332
459.2631, 785.5209
459.7452, 779.2605
460.2274, 773.0530
460.7095, 766.9669
461.1916, 761.0032
461.6737, 755.8287
462.1558, 752.6658
462.6379, 749.9658
463.1201, 746.1171
463.6022, 740.0046
464.0843, 734.5227
464.5664, 731.5681
465.0485, 729.8381
465.5306, 727.2571
466.0128, 722.1615
466.4949, 717.3098
466.9770, 713.5807
467.4591, 711.0313
467.9412, 708.7203
468.4233, 706.8964
468.9055, 705.0466
469.3876, 702.8203
469.8697, 699.9074
470.3518, 697.3450
470.8339, 695.2551
471.3160, 693.4482
471.7982, 691.5264
472.2803, 689.4307
472.7624, 687.4631
473.2445, 685.7229
473.7266, 684.1991
474.2087, 682.9851
474.6909, 682.1232
475.1730, 681.1883
475.6551, 679.5868
476.1372, 677.5468
476.6193, 676.0748
477.1014, 675.3893
477.5836, 675.1004
478.0657, 675.1075
478.5478, 675.1723
479.0299, 674.6288
479.5120, 672.4737
479.9941, 670.0203
480.4763, 668.6627
480.9584, 668.3070
481.4405, 667.8930
481.9226, 666.4422
482.4047, 664.9318
482.8868, 664.2689
483.3690, 665.2747
483.8511, 665.8149
484.3332, 664.9279
484.8153, 663.2748
485.2974, 661.9135
485.7795, 661.1009
486.2617, 660.5035
486.7438, 660.0323
487.2259, 659.6904
487.7080, 659.6386
488.1901, 660.1015
488.6722, 660.5666
489.1544, 660.6756
489.6365, 660.2666
490.1186, 660.2360
490.6007, 660.8792
491.0828, 661.5164
491.5649, 660.7678
492.0471, 658.5532
492.5292, 656.9122
493.0113, 656.7358
493.4934, 657.4838
493.9755, 657.7196
494.4576, 657.4547
494.9398, 657.1244
495.4219, 657.0306
495.9040, 657.0873
496.3861, 657.2318
496.8682, 657.5151
497.3503, 657.5410
497.8325, 656.7283
498.3146, 655.5021
498.7967, 654.5054
499.2788, 653.9865
499.7609, 653.7886
500.2430, 654.1337
500.7252, 654.8456
501.2073, 655.1239
501.6894, 654.4625
502.1715, 653.5499
502.6536, 652.5768
503.1357, 651.2576
503.6179, 650.8251
504.1000, 651.9050
504.5821, 653.4767
505.0642, 654.5798
505.5463, 655.2411
506.0284, 655.2713
506.5106, 654.2562
506.9927, 652.7029
507.4748, 652.4667
507.9569, 653.7993
508.4390, 655.1796
508.9211, 655.7746
509.4033, 655.6895
509.8854, 655.7975
510.3675, 656.0935
510.8496, 656.6021
511.3317, 657.2402
511.8138, 658.1135
512.2960, 659.7570
512.7781, 663.0045
513.2602, 665.6055
513.7423, 664.3704
514.2244, 660.6052
514.7065, 657.4883
515.1887, 656.9794
515.6708, 657.2924
516.1529, 657.3517
516.6350, 657.1171
517.1171, 656.9800
517.5992, 657.1452
518.0814, 657.4124
518.5635, 657.6690
519.0456, 658.0645
519.5277, 658.1708
520.0098, 657.6745
520.4919, 657.0041
520.9741, 656.8149
521.4562, 657.3338
521.9383, 657.8683
522.4204, 658.2283
522.9025, 658.4634
523.3846, 659.0222
523.8668, 660.0313
524.3489, 660.7862
524.8310, 660.5953
525.3131, 659.6141
525.7952, 659.2770
526.2773, 659.6957
526.7595, 660.4369
527.2416, 661.1548
527.7237, 661.8065
528.2058, 662.3074
528.6879, 662.7123
529.1700, 662.8466
529.6522, 662.1339
530.1343, 660.9582
530.6164, 660.4003
531.0985, 661.7333
531.5806, 663.2917
532.0627, 664.0266
532.5449, 663.8225
533.0270, 663.5110
533.5091, 663.0297
533.9912, 662.6976
534.4733, 662.7469
534.9554, 663.4246
535.4376, 664.1625
535.9197, 665.0548
536.4018, 665.9432
536.8839, 666.5067
537.3660, 666.6299
537.8481, 666.7260
538.3303, 666.9089
538.8124, 667.1490
539.2945, 667.2356
539.7766, 667.1324
540.2587, 667.1923
540.7408, 667.8024
541.2230, 668.8014
541.7051, 669.5712
542.1872, 670.0690
542.6693, 670.4008
543.1514, 670.7299
543.6335, 670.9693
544.1157, 670.9324
544.5978, 670.3378
545.0799, 669.7804
545.5620, 669.4430
546.0441, 669.4558
546.5262, 670.1391
547.0084, 671.8981
547.4905, 674.0833
547.9726, 677.0184
548.4547, 680.8672
548.9368, 682.7325
549.4189, 680.1044
549.9011, 677.2621
550.3832, 676.7433
550.8653, 679.8712
551.3474, 682.1630
551.8295, 683.1952
552.3116, 683.7697
552.7938, 685.2923
553.2759, 687.9404
553.7580, 689.7340
554.2401, 689.9285
554.7222, 689.1246
555.2043, 688.6686
555.6865, 688.5649
556.1686, 688.7868
556.6507, 689.3239
557.1328, 690.1855
557.6149, 691.4107
558.0970, 693.0084
558.5792, 694.9099
559.0613, 697.6470
559.5434, 700.3787
560.0255, 702.1215
560.5076, 701.7643
560.9897, 701.9874
561.4719, 703.7921
561.9540, 706.7086
562.4361, 709.9189
562.9182, 713.7172
563.4003, 717.3626
563.8824, 720.6674
564.3646, 723.6664
564.8467, 726.7921
565.3288, 729.8953
565.8109, 733.4221
566.2930, 737.8290
566.7751, 743.1371
567.2573, 747.8174
567.7394, 751.7357
568.2215, 755.7824
568.7036, 761.0592
569.1857, 767.2923
569.6678, 773.7275
570.1500, 780.2236
570.6321, 786.6824
571.1142, 792.3297
571.5963, 797.7866
572.0784, 804.4208
572.5605, 813.5123
573.0427, 823.4464
573.5248, 833.3268
574.0069, 843.1771
574.4890, 853.8909
574.9711, 865.4172
575.4532, 877.9353
575.9354, 891.5692
576.4175, 906.5924
576.8996, 921.6910
577.3817, 936.6788
577.8638, 951.7451
578.3459, 967.4376
578.8281, 983.8303
579.3102, 999.7520
579.7923, 1015.290
580.2744, 1029.926
580.7565, 1043.112
581.2386, 1054.712
581.7208, 1062.356
582.2029, 1064.694
582.6850, 1062.882
583.1671, 1058.006
583.6492, 1050.486
584.1313, 1042.836
584.6134, 1035.951
585.0955, 1030.031
585.5776, 1024.776
586.0598, 1019.976
586.5419, 1017.952
587.0240, 1021.303
587.5061, 1026.891
587.9882, 1032.125
588.4703, 1036.223
588.9525, 1040.537
589.4346, 1046.053
589.9167, 1051.406
590.3988, 1054.549
590.8809, 1055.594
591.3630, 1054.091
591.8452, 1050.186
592.3273, 1043.549
592.8094, 1032.398
593.2915, 1016.558
593.7736, 998.8430
594.2557, 980.2642
594.7379, 961.1767
595.2200, 941.5953
595.7021, 921.6966
596.1842, 902.6498
596.6663, 885.0303
597.1484, 869.0248
597.6306, 854.6780
598.1127, 842.1389
598.5948, 831.7719
599.0769, 824.9922
599.5590, 820.1163
600.0411, 815.0043
600.5233, 807.8489
601.0054, 802.1486
601.4875, 798.6970
601.9696, 797.0763
602.4517, 796.0566
602.9338, 795.7171
603.4160, 795.7797
603.8981, 796.0657
604.3802, 796.6326
604.8623, 798.0701
605.3444, 800.4272
605.8265, 803.3537
606.3087, 807.6191
606.7908, 812.2039
607.2729, 813.8966
607.7550, 812.1874
608.2371, 809.6261
608.7192, 809.2740
609.2014, 809.2421
609.6835, 806.6782
610.1656, 799.2443
610.6477, 791.8292
611.1298, 785.9766
611.6119, 781.6571
612.0941, 778.6854
612.5762, 778.3160
613.0583, 777.9183
613.5404, 776.8925
614.0225, 775.3808
614.5046, 774.1771
614.9868, 773.7406
615.4689, 772.5701
615.9510, 769.6408
616.4331, 765.0771
616.9152, 761.5398
617.3973, 759.1954
617.8795, 756.5049
618.3616, 751.9285
618.8437, 746.0408
619.3258, 740.1746
619.8079, 734.4206
620.2900, 728.9652
620.7722, 723.7228
621.2543, 718.9213
621.7364, 714.9661
622.2185, 712.7010
622.7006, 710.3688
623.1827, 706.7289
623.6649, 702.6090
624.1470, 699.9733
624.6291, 700.3283
625.1112, 700.5648
625.5933, 699.9676
626.0754, 698.6539
626.5576, 697.5024
627.0397, 696.5090
627.5218, 695.6616
628.0039, 694.9748
628.4860, 694.4343
628.9681, 693.9545
629.4503, 693.5374
629.9324, 693.1364
630.4145, 692.8359
630.8966, 692.4938
631.3787, 691.7070
631.8608, 690.2296
632.3430, 689.1309
632.8251, 689.5849
633.3072, 690.6837
633.7893, 691.3124
634.2714, 690.3577
634.7535, 689.8576
635.2357, 690.5925
635.7178, 692.0203
636.1999, 692.8817
636.6820, 692.7678
637.1641, 692.8126
637.6462, 693.3417
638.1284, 694.2494
638.6105, 695.0920
639.0926, 695.9037
639.5747, 696.2961
640.0568, 695.8329
640.5389, 694.7774
641.0211, 693.8532
641.5032, 693.0765
641.9853, 692.4634
642.4674, 692.0772
642.9495, 691.8544
643.4316, 691.7914
643.9138, 691.9753
644.3959, 691.9809
644.8780, 691.3225
645.3601, 690.5564
645.8422, 690.2439
646.3243, 690.9706
646.8065, 691.4907
647.2886, 691.7369
647.7707, 691.7833
648.2528, 691.6982
648.7349, 691.3942
649.2170, 691.3844
649.6992, 691.9910
650.1813, 692.8005
650.6634, 692.4247
651.1455, 691.0150
651.6276, 690.1045
652.1097, 691.0968
652.5919, 692.7519
653.0740, 693.3563
653.5561, 693.0055
654.0382, 692.7151
654.5203, 693.1702
655.0024, 693.7780
655.4846, 694.1082
655.9667, 694.0153
656.4488, 694.0947
656.9309, 694.6501
657.4130, 695.2183
657.8951, 695.4377
658.3773, 695.0406
658.8594, 695.1292
659.3415, 695.9109
659.8236, 696.8665
660.3057, 697.2987
660.7878, 697.2393
661.2700, 697.0098
661.7521, 696.5692
662.2342, 696.2496
662.7163, 696.6750
663.1984, 697.5858
663.6805, 698.3256
664.1627, 698.1051
664.6448, 698.0866
665.1269, 699.6021
665.6090, 702.0526
666.0911, 703.1168
666.5732, 700.5961
667.0554, 698.2966
667.5375, 697.4698
668.0196, 698.1025
668.5017, 699.0371
668.9838, 700.4434
669.4659, 701.7460
669.9481, 702.6597
670.4302, 703.1699
670.9123, 703.1453
671.3944, 702.5361
671.8765, 701.8243
672.3586, 701.3308
672.8408, 701.0817
673.3229, 701.2363
673.8050, 701.9384
674.2871, 702.4703
674.7692, 701.9612
675.2513, 701.2031
675.7335, 701.0761
676.2156, 702.3264
676.6977, 703.5731
677.1798, 704.8576
677.6619, 705.9811
678.1440, 706.5756
678.6262, 706.3750
679.1083, 706.3649
679.5904, 706.7214
680.0725, 707.4027
680.5546, 708.5276
681.0367, 710.0557
681.5189, 711.1920
682.0010, 711.2675
682.4831, 710.9260
682.9652, 710.9369
683.4473, 711.3416
683.9294, 712.3604
684.4116, 714.7254
684.8937, 717.2321
685.3758, 719.2167
685.8579, 720.6061
686.3400, 721.6229
686.8221, 721.8969
687.3043, 722.1604
687.7864, 722.7742
688.2685, 723.8217
688.7506, 724.8119
689.2327, 725.7842
689.7148, 726.6292
690.1970, 727.3488
690.6791, 727.8953
691.1612, 727.8936
691.6433, 727.2709
692.1254, 726.2744
692.6075, 724.7389
693.0897, 723.1004
693.5718, 722.1116
694.0539, 722.4363
694.5360, 722.5925
695.0181, 721.6611
695.5002, 720.2220
695.9824, 719.1608
696.4645, 718.6949
696.9466, 718.5236
697.4287, 718.8708
697.9108, 719.3907
698.3929, 719.0614
698.8751, 717.6806
699.3572, 716.6093
699.8393, 716.2575
700.3214, 716.5217
700.8035, 717.4608
701.2856, 718.9232
701.7678, 720.0406
702.2499, 720.1298
702.7320, 719.7644
703.2141, 719.2269
703.6962, 718.6058
704.1783, 718.4645
704.6605, 719.6083
705.1426, 720.7523
705.6247, 721.0199
706.1068, 720.2016
706.5889, 720.4666
707.0710, 722.4100
707.5532, 724.3889
708.0353, 725.2150
708.5174, 724.8898
708.9995, 725.1709
709.4816, 726.1869
709.9637, 727.1984
710.4459, 727.2853
710.9280, 726.9325
711.4101, 727.0192
711.8922, 727.7221
712.3743, 728.7660
712.8564, 730.6712
713.3386, 732.5082
713.8207, 733.2861
714.3028, 731.4525
714.7849, 730.5366
715.2670, 731.3029
715.7491, 732.7450
716.2313, 733.6526
716.7134, 733.9890
717.1955, 733.7722
717.6776, 732.8107
718.1597, 731.5656
718.6418, 730.8300
719.1240, 730.5539
719.6061, 730.5728
720.0882, 731.1249
720.5703, 731.5551
721.0524, 730.8906
721.5345, 729.5803
722.0167, 728.7048
722.4988, 729.6907
722.9809, 730.1494
723.4630, 728.7245
723.9451, 725.9007
724.4272, 724.1410
724.9094, 723.9587
725.3915, 723.9236
725.8736, 723.5460
726.3557, 722.9223
726.8378, 722.4128
727.3199, 722.0130
727.8021, 722.0771
728.2842, 723.2527
728.7663, 724.8478
729.2484, 725.6451
729.7305, 725.6622
730.2126, 725.6109
730.6948, 725.7158
731.1769, 725.9987
731.6590, 726.6418
732.1411, 727.8058
732.6232, 728.2042
733.1053, 727.3035
733.5875, 726.1473
734.0696, 725.3368
734.5517, 724.9063
735.0338, 724.5201
735.5159, 724.1602
735.9980, 723.9548
736.4802, 723.9842
736.9623, 724.2830
737.4444, 725.0930
737.9265, 726.5491
738.4086, 727.7432
738.8907, 727.8779
739.3729, 727.4364
739.8550, 726.9250
740.3371, 726.4552
740.8192, 725.8917
741.3013, 724.7451
741.7834, 723.7775
742.2656, 723.9252
742.7477, 725.7822
743.2298, 726.5296
743.7119, 725.5590
744.1940, 724.0432
744.6761, 723.6615
745.1583, 724.2787
745.6404, 725.4113
746.1225, 727.3307
746.6046, 728.7867
747.0867, 727.9539
747.5688, 725.9385
748.0510, 724.6370
748.5331, 725.3263
749.0152, 726.0765
749.4973, 726.5178
749.9794, 726.6600
750.4615, 726.4425
750.9437, 725.5811
751.4258, 725.1142
751.9079, 725.3792
752.3900, 726.0710
752.8721, 726.3959
753.3542, 726.3951
753.8364, 726.5306
754.3185, 727.1154
754.8006, 727.8021
755.2827, 728.2070
755.7648, 728.3701
756.2469, 728.4013
756.7291, 727.8602
757.2112, 727.6855
757.6933, 728.6068
758.1754, 730.3435
758.6575, 731.2574
759.1396, 730.8922
759.6218, 730.5858
760.1039, 730.7835
760.5860, 731.4025
761.0681, 732.2919
761.5502, 733.4304
762.0323, 734.1066
762.5145, 733.3051
762.9966, 732.1563
763.4787, 732.4540
763.9608, 733.9697
764.4429, 735.1354
764.9250, 734.9040
765.4072, 734.4031
765.8893, 734.0002
766.3714, 733.7197
766.8535, 734.4026
767.3356, 736.8944
767.8177, 738.8113
768.2999, 738.6148
768.7820, 736.5856
769.2641, 735.7910
769.7462, 736.2559
770.2283, 736.8444
770.7104, 736.3591
771.1926, 735.6508
771.6747, 736.1407
772.1568, 737.8584
772.6389, 739.3412
773.1210, 740.0253
773.6031, 740.1468
774.0853, 739.6476
774.5674, 738.3395
775.0495, 737.7639
775.5316, 738.3162
776.0137, 738.9470
776.4958, 738.9183
776.9780, 738.2775
777.4601, 737.8898
777.9422, 737.7747
778.4243, 737.8453
778.9064, 738.2155
779.3885, 738.6369
779.8707, 738.6942
780.3528, 738.3016
780.8349, 738.0621
781.3170, 738.1992
781.7991, 738.6161
782.2812, 739.3866
782.7633, 740.8326
783.2454, 741.3047
783.7275, 740.3358
784.2097, 739.2647
784.6918, 739.2656
785.1739, 740.2365
785.6560, 741.4027
786.1381, 742.7896
786.6202, 743.5811
787.1024, 742.3118
787.5845, 740.3525
788.0666, 739.4865
788.5487, 740.1378
789.0308, 741.1263
789.5129, 742.3842
789.9951, 743.5719
790.4772, 744.4026
790.9593, 744.7628
791.4414, 745.0667
791.9235, 745.2419
792.4056, 745.5125
792.8878, 746.1445
793.3699, 747.0744
793.8520, 748.0433
794.3341, 749.0471
794.8162, 749.9192
795.2983, 750.4843
795.7805, 750.8796
796.2626, 751.2332
796.7447, 751.5012
797.2268, 751.9619
797.7089, 753.2557
798.1910, 754.3688
798.6732, 754.4080
799.1553, 752.9081
799.6374, 752.1257
800.1195, 752.1544
800.6016, 752.7812
801.0837, 754.1893
801.5659, 756.0250
802.0480, 757.1265
802.5301, 757.2592
803.0122, 757.1694
803.4943, 757.0679
803.9764, 757.2018
804.4586, 757.9045
804.9407, 759.6651
805.4228, 760.8839
805.9049, 761.2635
806.3870, 761.2360
806.8691, 761.0576
807.3513, 760.6785
807.8334, 760.5623
808.3155, 760.7409
808.7976, 761.1086
809.2797, 761.7651
809.7618, 762.4779
810.2440, 762.8131
810.7261, 762.7081
811.2082, 762.2025
811.6903, 760.4794
812.1724, 758.8828
812.6545, 758.7395
813.1367, 761.0801
813.6188, 762.5582
814.1009, 763.0998
814.5830, 762.8889
815.0651, 761.6220
815.5472, 759.4499
816.0294, 758.7768
816.5115, 759.8910
816.9936, 761.2224
817.4757, 761.1785
817.9578, 760.5648
818.4399, 760.4456
818.9221, 761.1263
819.4042, 761.5323
819.8863, 760.6266
820.3684, 759.8584
820.8505, 760.2737
821.3326, 762.2409
821.8148, 763.9413
822.2969, 765.4056
822.7790, 766.4527
823.2611, 766.7072
823.7432, 766.3865
824.2253, 766.1638
824.7075, 766.0763
825.1896, 766.0848
825.6717, 765.9854
826.1538, 766.0726
826.6359, 766.7982
827.1180, 768.4574
827.6002, 769.2592
828.0823, 768.5298
828.5644, 767.5804
829.0465, 767.2207
829.5286, 767.4898
830.0107, 767.2517
830.4929, 766.4667
830.9750, 765.9030
831.4571, 766.5717
831.9392, 767.6938
832.4213, 767.8589
832.9034, 767.0408
833.3856, 766.6516
833.8677, 767.9675
834.3498, 769.3900
834.8319, 769.8915
835.3140, 769.4133
835.7961, 769.2618
836.2783, 769.4998
836.7604, 769.8803
837.2425, 770.3068
837.7246, 770.7537
838.2067, 771.1891
838.6888, 771.5912
839.1710, 771.7823
839.6531, 771.4786
840.1352, 771.0330
840.6173, 770.5600
841.0994, 770.1152
841.5815, 770.1931
842.0637, 771.3514
842.5458, 772.4850
843.0279, 773.2806
843.5100, 773.7690
843.9921, 774.1430
844.4742, 774.4036
844.9564, 774.5651
845.4385, 774.8035
845.9206, 774.8484
846.4027, 774.0941
846.8848, 772.7708
847.3669, 771.6305
847.8491, 770.7352
848.3312, 770.4101
848.8133, 771.1397
849.2954, 772.5761
849.7775, 773.5175
850.2596, 773.7424
850.7418, 774.2181
851.2239, 775.3020
851.7060, 776.6708
852.1881, 777.5547
852.6702, 778.0551
853.1523, 778.5843
853.6345, 779.3375
854.1166, 780.1035
854.5987, 780.5983
855.0808, 781.0022
855.5629, 781.6984
856.0450, 783.2330
856.5272, 784.3229
857.0093, 784.7524
857.4914, 784.7712
857.9735, 784.6845
858.4556, 784.5248
858.9377, 784.7028
859.4199, 785.4315
859.9020, 786.2047
860.3841, 786.2361
860.8662, 786.0489
861.3483, 786.4688
861.8304, 788.3014
862.3126, 789.6859
862.7947, 789.3112
863.2768, 788.8651
863.7589, 790.0876
864.2410, 793.4918
864.7231, 795.6277
865.2053, 796.1028
865.6874, 796.0264
866.1695, 796.6312
866.6516, 797.5508
867.1337, 798.1205
867.6158, 798.2430
868.0980, 797.9090
868.5801, 796.5653
869.0622, 795.1545
869.5443, 794.5707
870.0264, 795.1613
870.5085, 794.9035
870.9907, 793.5149
871.4728, 792.0977
871.9549, 791.4069
872.4370, 791.3762
872.9191, 792.0358
873.4012, 793.3193
873.8834, 794.0449
874.3655, 792.7800
874.8476, 791.1348
875.3297, 790.1971
875.8118, 790.0309
876.2939, 790.2523
876.7761, 790.7554
877.2582, 791.7194
877.7403, 793.5651
878.2224, 795.8789
878.7045, 796.2793
879.1866, 794.9128
879.6688, 793.7050
880.1509, 793.7489
880.6330, 794.3830
881.1151, 795.2186
881.5972, 796.1239
882.0793, 796.7063
882.5615, 796.2363
883.0436, 796.2451
883.5257, 797.3845
884.0078, 799.0078
884.4899, 799.5173
884.9720, 798.8457
885.4542, 798.4325
885.9363, 798.6318
886.4184, 799.2860
886.9005, 800.3264
887.3826, 801.6327
887.8647, 802.9916
888.3469, 804.3506
888.8290, 805.7333
889.3111, 807.7884
889.7932, 809.4353
890.2753, 809.3899
890.7574, 807.1146
891.2396, 805.5564
891.7217, 804.9418
892.2038, 804.7625
892.6859, 804.3361
893.1680, 803.9716
893.6501, 804.4678
894.1323, 806.0258
894.6144, 807.3778
895.0965, 807.7087
895.5786, 807.7537
896.0607, 807.9308
896.5428, 808.2062
897.0250, 809.2321
897.5071, 811.2739
897.9892, 813.2097
898.4713, 814.2057
898.9534, 814.5806
899.4355, 815.1315
899.9177, 815.8881
900.3998, 817.0544
900.8819, 819.6602
901.3640, 821.8113
901.8461, 821.8773
902.3282, 820.2528
902.8104, 819.8796
903.2925, 821.6486
903.7746, 822.4443
904.2567, 820.9611
904.7388, 818.3895
905.2209, 817.7094
905.7031, 818.4735
906.1852, 818.8436
906.6673, 817.8293
907.1494, 816.6819
907.6315, 816.0871
908.1136, 815.9678
908.5958, 816.2151
909.0779, 816.8145
909.5600, 817.9013
910.0421, 819.8337
910.5242, 821.6861
911.0063, 822.1518
911.4885, 821.4683
911.9706, 820.7003
912.4527, 819.9344
912.9348, 819.7032
913.4169, 820.8000
913.8990, 822.3759
914.3812, 823.6777
914.8633, 824.5320
915.3454, 825.3500
915.8275, 826.0142
916.3096, 826.8410
916.7917, 828.1163
917.2739, 829.7325
917.7560, 831.0693
918.2381, 832.1214
918.7202, 832.9316
919.2023, 833.5615
919.6844, 833.9221
920.1666, 833.6790
920.6487, 833.0230
921.1308, 832.9600
921.6129, 833.9570
922.0950, 835.0251
922.5771, 835.9880
923.0593, 836.8507
923.5414, 837.6047
924.0235, 838.2572
924.5056, 838.8182
924.9877, 839.2579
925.4698, 839.6976
925.9520, 840.1160
926.4341, 840.6542
926.9162, 841.5002
927.3983, 842.6184
927.8804, 844.1859
928.3625, 846.1498
928.8447, 848.6000
929.3268, 851.9398
929.8089, 855.9612
930.2910, 859.3824
930.7731, 862.1223
931.2552, 863.9943
931.7374, 863.8775
932.2195, 863.5802
932.7016, 864.7836
933.1837, 867.7482
933.6658, 870.7464
934.1479, 873.5116
934.6301, 876.5150
935.1122, 880.0549
935.5943, 883.9857
936.0764, 887.4498
936.5585, 890.6046
937.0406, 894.3637
937.5228, 899.3160
938.0049, 905.0408
938.4870, 911.4767
938.9691, 918.4407
939.4512, 925.4564
939.9333, 932.2181
940.4155, 939.5018
940.8976, 947.1041
941.3797, 955.6729
941.8618, 966.1506
942.3439, 978.4375
942.8260, 991.7203
943.3082, 1006.023
943.7903, 1021.342
944.2724, 1036.852
944.7545, 1053.850
945.2366, 1073.823
945.7188, 1097.529
946.2009, 1122.405
946.6830, 1148.046
947.1651, 1176.035
947.6472, 1207.092
948.1293, 1241.202
948.6115, 1278.953
949.0936, 1320.298
949.5757, 1365.998
950.0578, 1414.724
950.5399, 1469.018
951.0220, 1530.077
951.5042, 1598.231
951.9863, 1672.957
952.4684, 1753.840
952.9505, 1841.956
953.4326, 1937.911
953.9147, 2040.961
954.3969, 2151.578
954.8790, 2269.692
955.3611, 2394.896
955.8432, 2524.061
956.3253, 2665.039
956.8074, 2822.803
957.2896, 2993.769
957.7717, 3175.642
958.2538, 3367.022
958.7359, 3572.487
959.2180, 3789.909
959.7001, 4022.356
960.1823, 4277.084
960.6644, 4548.255
961.1465, 4819.932
961.6286, 5092.248
962.1107, 5355.857
962.5928, 5623.537
963.0750, 5862.930
963.5571, 6071.046
964.0392, 6243.327
964.5213, 6360.245
965.0034, 6424.589
965.4855, 6409.953
965.9677, 6306.921
966.4498, 6125.157
966.9319, 5860.048
967.4140, 5531.497
967.8961, 5177.728
968.3782, 4788.402
968.8604, 4406.822
969.3425, 4024.117
969.8246, 3660.675
970.3067, 3327.507
970.7888, 3027.164
971.2709, 2754.680
971.7531, 2511.227
972.2352, 2294.186
972.7173, 2105.898
973.1994, 1939.502
973.6815, 1791.861
974.1636, 1662.880
974.6458, 1549.324
975.1279, 1453.249
975.6100, 1369.907
976.0921, 1299.328
976.5742, 1239.877
977.0563, 1187.891
977.5385, 1142.848
978.0206, 1104.451
978.5027, 1073.537
978.9848, 1047.171
979.4669, 1023.880
979.9490, 1003.495
980.4311, 986.0023
980.9132, 972.0145
981.3953, 959.3230
981.8774, 947.9697
982.3596, 937.8824
982.8417, 929.5776
983.3238, 922.5118
983.8059, 914.9168
984.2880, 906.8076
984.7701, 899.8878
985.2523, 895.5013
985.7344, 892.1880
986.2165, 889.5051
986.6986, 887.2650
987.1807, 884.9080
987.6628, 882.4426
988.1450, 879.9071
988.6271, 877.3076
989.1092, 874.6658
989.5913, 871.8680
990.0734, 869.0944
990.5555, 866.6292
991.0377, 864.4143
991.5198, 862.9111
992.0019, 862.6772
992.4840, 862.8035
992.9661, 862.6252
993.4482, 862.1293
993.9304, 861.9424
994.4125, 862.0808
994.8946, 862.0632
995.3767, 861.0925
995.8588, 860.1432
996.3409, 860.3217
996.8231, 861.4499
997.3052, 862.2390
997.7873, 862.5802
998.2694, 862.3045
998.7515, 860.8884
999.2336, 859.4456
999.7158, 860.9484
1000.198, 864.4894
1000.680, 866.6122
1001.162, 866.0917
1001.644, 865.0363
1002.126, 864.1666
1002.608, 863.7979
1003.091, 864.3347
1003.573, 865.9309
1004.055, 867.5354
1004.537, 869.2642
1005.019, 870.5281
1005.501, 870.5295
1005.983, 870.0298
1006.465, 870.5217
1006.948, 871.7465
1007.430, 872.6859
1007.912, 872.2365
1008.394, 872.3382
1008.876, 873.7391
1009.358, 875.7635
1009.840, 877.3356
1010.322, 878.4557
1010.804, 878.9378
1011.287, 878.6153
1011.769, 878.4879
1012.251, 879.7170
1012.733, 881.4797
1013.215, 882.9641
1013.697, 884.0068
1014.179, 885.1101
1014.661, 886.3523
1015.143, 887.5126
1015.626, 888.4477
1016.108, 889.2297
1016.590, 889.9661
1017.072, 890.7208
1017.554, 891.7475
1018.036, 892.9520
1018.518, 894.6970
1019.000, 897.5115
1019.483, 900.7684
1019.965, 903.4628
1020.447, 905.3212
1020.929, 908.2965
1021.411, 912.6353
1021.893, 917.4021
1022.375, 921.8019
1022.857, 926.0341
1023.339, 930.4247
1023.822, 934.9798
1024.304, 939.2181
1024.786, 942.2625
1025.268, 946.0351
1025.750, 951.1797
1026.232, 957.3327
1026.714, 963.2299
1027.196, 969.1048
1027.679, 976.3500
1028.161, 986.1423
1028.643, 995.5598
1029.125, 1002.236
1029.607, 1007.866
1030.089, 1014.271
1030.571, 1021.660
1031.053, 1029.315
1031.536, 1037.331
1032.018, 1045.398
1032.500, 1053.428
1032.982, 1061.280
1033.464, 1068.561
1033.946, 1075.340
1034.428, 1082.222
1034.910, 1089.886
1035.392, 1097.118
1035.875, 1103.813
1036.357, 1109.863
1036.839, 1114.774
1037.321, 1118.695
1037.803, 1122.516
1038.285, 1126.418
1038.767, 1130.302
1039.249, 1134.127
1039.731, 1137.869
1040.214, 1141.630
1040.696, 1145.403
1041.178, 1148.638
1041.660, 1151.307
1042.142, 1153.475
1042.624, 1155.409
1043.106, 1156.608
1043.588, 1155.657
1044.071, 1153.371
1044.553, 1151.583
1045.035, 1150.592
1045.517, 1150.743
1045.999, 1153.011
1046.481, 1155.450
1046.963, 1155.504
1047.445, 1153.491
1047.927, 1154.895
1048.410, 1159.850
1048.892, 1165.969
1049.374, 1172.533
1049.856, 1178.777
1050.338, 1183.881
1050.820, 1188.099
1051.302, 1192.438
1051.784, 1196.864
1052.266, 1201.888
1052.749, 1208.186
1053.231, 1213.508
1053.713, 1214.951
1054.195, 1213.184
1054.677, 1208.942
1055.159, 1202.014
1055.641, 1194.743
1056.123, 1187.383
1056.606, 1180.256
1057.088, 1173.512
1057.570, 1167.101
1058.052, 1160.551
1058.534, 1154.087
1059.016, 1149.014
1059.498, 1146.085
1059.980, 1144.554
1060.463, 1143.922
1060.945, 1144.486
1061.427, 1146.636
1061.909, 1150.544
1062.391, 1155.100
1062.873, 1160.141
1063.355, 1166.334
1063.837, 1174.301
1064.319, 1183.756
1064.802, 1194.232
1065.284, 1205.693
1065.766, 1218.385
1066.248, 1231.498
1066.730, 1247.344
1067.212, 1266.867
1067.694, 1288.947
1068.176, 1311.418
1068.658, 1334.557
1069.141, 1358.959
1069.623, 1384.891
1070.105, 1410.371
1070.587, 1437.105
1071.069, 1460.260
1071.551, 1477.042
1072.033, 1487.620
1072.515, 1495.360
1072.998, 1500.262
1073.480, 1498.819
1073.962, 1487.988
1074.444, 1472.290
1074.926, 1456.490
1075.408, 1439.200
1075.890, 1418.344
1076.372, 1391.011
1076.854, 1364.881
1077.337, 1340.200
1077.819, 1316.220
1078.301, 1292.361
1078.783, 1268.972
1079.265, 1248.279
1079.747, 1229.642
1080.229, 1209.654
1080.711, 1184.629
1081.193, 1160.852
1081.676, 1140.060
1082.158, 1121.141
1082.640, 1102.490
1083.122, 1084.228
1083.604, 1067.687
1084.086, 1053.093
1084.568, 1039.636
1085.050, 1026.878
1085.532, 1014.884
1086.015, 1003.808
1086.497, 993.5914
1086.979, 983.8190
1087.461, 974.3879
1087.943, 966.2960
1088.425, 960.2355
1088.907, 954.8856
1089.389, 948.4083
1089.872, 941.5828
1090.354, 935.5480
1090.836, 930.7570
1091.318, 926.1327
1091.800, 921.2555
1092.282, 917.1884
1092.764, 914.9003
1093.246, 913.7969
1093.729, 912.2054
1094.211, 910.2055
1094.693, 908.2018
1095.175, 906.5046
1095.657, 904.5587
1096.139, 901.7204
1096.621, 898.9749
1097.103, 897.7795
1097.585, 898.0150
1098.068, 896.3739
1098.550, 892.7369
1099.032, 890.0092
1099.514, 891.4437
1099.996, 893.4266
1100.478, 893.6807
1100.960, 892.4142
1101.442, 890.6223
1101.924, 888.0324
1102.407, 886.5970
1102.889, 886.8651
1103.371, 887.5155
1103.853, 886.8386
1104.335, 885.8044
1104.817, 885.6370
1105.299, 886.5815
1105.781, 887.3757
1106.264, 888.1683
1106.746, 888.1190
1107.228, 886.5262
1107.710, 884.3880
1108.192, 883.7216
1108.674, 884.1088
1109.156, 884.6252
1109.638, 885.0786
1110.120, 885.4489
1110.603, 886.0077
1111.085, 886.1581
1111.567, 885.3401
1112.049, 883.7405
1112.531, 882.5602
1113.013, 881.7919
1113.495, 881.2634
1113.977, 881.0790
1114.459, 880.8962
1114.942, 880.6415
1115.424, 880.2501
1115.906, 879.6631
1116.388, 878.8903
1116.870, 877.6804
1117.352, 875.9886
1117.834, 874.7584
1118.316, 875.0923
1118.799, 875.8928
1119.281, 876.3891
1119.763, 876.5536
1120.245, 876.4970
1120.727, 876.2644
1121.209, 875.5240
1121.691, 874.0116
1122.173, 872.7460
1122.656, 873.5354
1123.138, 874.9792
1123.620, 874.8748
1124.102, 872.9034
1124.584, 872.1492
1125.066, 873.7881
1125.548, 874.8268
1126.030, 874.0344
1126.512, 872.5576
1126.995, 872.9885
1127.477, 874.5087
1127.959, 875.1496
1128.441, 874.2327
1128.923, 873.2403
1129.405, 872.3699
1129.887, 871.8604
1130.369, 871.9420
1130.851, 872.4745
1131.334, 872.8934
1131.816, 873.1721
1132.298, 873.1864
1132.780, 872.3922
1133.262, 872.0748
1133.744, 873.4354
1134.226, 875.0809
1134.708, 875.5715
1135.191, 874.7816
1135.673, 875.0079
1136.155, 876.2112
1136.637, 877.0795
1137.119, 876.3121
1137.601, 875.4013
1138.083, 875.8007
1138.565, 876.6931
1139.047, 876.3041
1139.530, 874.3508
1140.012, 872.4912
1140.494, 870.7801
1140.976, 869.9417
1141.458, 871.2247
1141.940, 873.2668
1142.422, 875.1787
1142.904, 876.6589
1143.386, 876.4714
1143.869, 873.7875
1144.351, 871.8112
1144.833, 871.0389
1145.315, 871.3380
1145.797, 873.3524
1146.279, 875.9307
1146.761, 877.4543
1147.243, 877.7156
1147.726, 877.3965
1148.208, 875.9500
1148.690, 875.4256
1149.172, 876.7963
1149.654, 878.8646
1150.136, 879.3182
1150.618, 878.7203
1151.100, 878.1301
1151.583, 877.7062
1152.065, 877.6464
1152.547, 878.0844
1153.029, 878.7712
1153.511, 879.7576
1153.993, 880.8116
1154.475, 880.9781
1154.957, 880.5580
1155.439, 880.6129
1155.922, 881.9482
1156.404, 882.9401
1156.886, 882.7087
1157.368, 882.2182
1157.850, 882.0922
1158.332, 882.2859
1158.814, 882.1902
1159.296, 881.8945
1159.778, 881.9628
1160.261, 883.3701
1160.743, 884.4119
1161.225, 883.6536
1161.707, 882.5180
1162.189, 882.6666
1162.671, 884.1370
1163.153, 884.3886
1163.635, 883.4099
1164.118, 882.9778
1164.600, 885.4279
1165.082, 887.6441
1165.564, 887.3046
1166.046, 885.4773
1166.528, 884.0964
1167.010, 883.1428
1167.492, 883.0621
1167.974, 883.9525
1168.457, 884.8348
1168.939, 885.1096
1169.421, 884.8717
1169.903, 883.6640
1170.385, 881.9714
1170.867, 881.9347
1171.349, 884.0120
1171.831, 884.8394
1172.313, 883.6890
1172.796, 882.1296
1173.278, 881.5847
1173.760, 881.5631
1174.242, 881.6756
1174.724, 881.8871
1175.206, 882.1227
1175.688, 882.4023
1176.170, 882.6608
1176.653, 882.9327
1177.135, 883.0241
1177.617, 882.3740
1178.099, 881.5751
1178.581, 881.3174
1179.063, 881.7307
1179.545, 882.7036
1180.027, 884.4156
1180.510, 885.9833
1180.992, 887.1740
1181.474, 887.8330
1181.956, 887.2811
1182.438, 886.2249
1182.920, 885.7633
1183.402, 886.1971
1183.884, 887.0283
1184.366, 888.4677
1184.849, 889.6260
1185.331, 890.0859
1185.813, 890.0146
1186.295, 889.7313
1186.777, 889.1570
1187.259, 888.0463
1187.741, 885.6763
1188.223, 884.4149
1188.705, 884.6465
1189.188, 885.3143
1189.670, 885.9311
1190.152, 886.3851
1190.634, 886.2162
1191.116, 885.7170
1191.598, 885.6010
1192.080, 886.5325
1192.562, 887.1859
1193.045, 887.5137
1193.527, 887.4951
1194.009, 886.7780
1194.491, 885.8290
1194.973, 885.8344
1195.455, 886.5963
1195.937, 887.4098
1196.419, 888.7944
1196.901, 888.8349
1197.384, 886.5974
1197.866, 884.4378
1198.348, 885.0297
1198.830, 887.2789
1199.312, 888.7623
1199.794, 889.4179
1200.276, 889.4983
1200.758, 888.2900
1201.240, 887.7874
1201.723, 888.7277
1202.205, 889.6760
1202.687, 888.3024
1203.169, 885.7595
1203.651, 885.1016
1204.133, 886.3156
1204.615, 887.3221
1205.097, 886.6089
1205.580, 886.7779
1206.062, 888.8338
1206.544, 891.0856
1207.026, 890.5371
1207.508, 888.3600
1207.990, 887.5019
1208.472, 888.2055
1208.954, 889.1351
1209.437, 890.3638
1209.919, 890.8710
1210.401, 890.0236
1210.883, 888.9612
1211.365, 890.0505
1211.847, 892.3303
1212.329, 893.2656
1212.811, 892.4617
1213.293, 892.5175
1213.776, 895.6198
1214.258, 897.8837
1214.740, 898.0627
1215.222, 897.1786
1215.704, 896.8515
1216.186, 897.1039
1216.668, 898.2509
1217.150, 900.4752
1217.632, 901.9780
1218.115, 901.7914
1218.597, 901.5253
1219.079, 901.7126
1219.561, 902.0869
1220.043, 901.7800
1220.525, 901.3175
1221.007, 902.2559
1221.489, 905.4036
1221.972, 906.7146
1222.454, 903.9933
1222.936, 901.8138
1223.418, 902.1937
1223.900, 903.7842
1224.382, 903.7318
1224.864, 902.6475
1225.346, 901.7524
1225.828, 901.2985
1226.311, 901.2365
1226.793, 901.7655
1227.275, 902.2009
1227.757, 902.2220
1228.239, 901.9816
1228.721, 901.6797
1229.203, 901.3887
1229.685, 901.2661
1230.167, 901.4096
1230.650, 901.5792
1231.132, 901.8314
1231.614, 901.9171
1232.096, 901.6349
1232.578, 901.1849
1233.060, 900.7443
1233.542, 900.4804
1234.024, 900.8419
1234.507, 902.5977
1234.989, 902.9480
1235.471, 901.2630
1235.953, 899.8270
1236.435, 900.1365
1236.917, 901.2582
1237.399, 902.0157
1237.881, 902.3211
1238.364, 901.9287
1238.846, 900.2221
1239.328, 899.2460
1239.810, 899.1080
1240.292, 899.3435
1240.774, 899.7296
1241.256, 900.2860
1241.738, 901.3124
1242.220, 902.4482
1242.703, 903.0287
1243.185, 902.8132
1243.667, 902.3918
1244.149, 901.6992
1244.631, 901.1396
1245.113, 901.1804
1245.595, 901.2808
1246.077, 900.1689
1246.559, 898.9226
1247.042, 899.7388
1247.524, 903.6769
1248.006, 905.8672
1248.488, 906.2596
1248.970, 905.5787
1249.452, 903.4599
1249.934, 901.3434
1250.416, 900.4846
1250.899, 900.5250
1251.381, 900.9568
1251.863, 901.9769
1252.345, 902.0451
1252.827, 901.1653
1253.309, 900.3524
1253.791, 900.2361
1254.273, 900.4596
1254.755, 901.1476
1255.238, 901.7932
1255.720, 901.5370
1256.202, 900.2903
1256.684, 900.1227
1257.166, 900.9963
1257.648, 901.7792
1258.130, 901.2314
1258.612, 901.0344
1259.094, 902.8282
1259.577, 904.8696
1260.059, 905.1660
1260.541, 903.8806
1261.023, 902.8748
1261.505, 902.2373
1261.987, 902.1434
1262.469, 903.4898
1262.951, 904.3260
1263.434, 903.3694
1263.916, 902.3834
1264.398, 903.6627
1264.880, 906.4387
1265.362, 907.0179
1265.844, 905.6749
1266.326, 904.4906
1266.808, 904.4588
1267.291, 904.5737
1267.773, 904.5842
1268.255, 904.7715
1268.737, 905.5173
1269.219, 906.6307
1269.701, 907.9352
1270.183, 909.2274
1270.665, 909.7834
1271.147, 908.4896
1271.630, 907.9230
1272.112, 908.5126
1272.594, 909.1696
1273.076, 908.6810
1273.558, 907.7294
1274.040, 907.2140
1274.522, 907.1543
1275.004, 907.5739
1275.486, 908.8840
1275.969, 909.4821
1276.451, 909.1740
1276.933, 908.6739
1277.415, 908.5313
1277.897, 908.5648
1278.379, 908.5121
1278.861, 908.5120
1279.343, 908.9051
1279.825, 909.7552
1280.308, 910.8417
1280.790, 912.1855
1281.272, 913.0292
1281.754, 912.0117
1282.236, 911.0956
1282.718, 912.1003
1283.200, 913.9296
1283.682, 914.7293
1284.165, 914.4644
1284.647, 914.2441
1285.129, 914.1270
1285.611, 914.2796
1286.093, 915.5053
1286.575, 916.1752
1287.057, 914.9320
1287.539, 913.2948
1288.021, 912.9479
1288.504, 913.6628
1288.986, 914.2623
1289.468, 914.6570
1289.950, 914.5986
1290.432, 912.8555
1290.914, 912.3906
1291.396, 914.3152
1291.878, 916.5745
1292.360, 916.9568
1292.843, 916.2776
1293.325, 916.7175
1293.807, 917.9333
1294.289, 918.5648
1294.771, 917.4913
1295.253, 916.8470
1295.735, 916.6914
1296.217, 917.0309
1296.700, 918.2375
1297.182, 919.6642
1297.664, 920.5859
1298.146, 920.9014
1298.628, 920.3996
1299.110, 918.7316
1299.592, 918.2640
1300.074, 919.1423
1300.557, 920.1425
1301.039, 920.7258
1301.521, 920.7333
1302.003, 919.8733
1302.485, 918.4573
1302.967, 917.2461
1303.449, 916.7713
##END=



