##NAMES=Fluor-uvite
##RRUFFID=R050301
##IDEAL CHEMISTRY=CaMg_3_(Al_5_Mg)(Si_6_O_18_)(BO_3_)_3_(OH)_3_F
##LOCALITY=Brumado, Bahia, Brazil
##OWNER=RRUFF
##SOURCE=Eugene Schlepp
##DESCRIPTION=Short prismatic green crystals
##STATUS=The identification of this mineral has been confirmed by X-ray diffraction and chemical analysis
##URL=rruff.info/R050301
##MEASURED CHEMISTRY=(Ca_0.68_Na_0.22_[box]_0.10_)(Mg_0.77_Al_0.16_Ti_0.03_[box]_0.04_)_3_(Mg_1.00_Al_5.00_)(BO_3_)_3_Si_6.00_O_18_((OH)_3_F)
111.6382, 19.06413
112.1203, 19.69205
112.6024, 20.51899
113.0845, 21.24167
113.5667, 21.71943
114.0488, 22.12630
114.5309, 22.58502
115.0130, 23.04696
115.4951, 23.63058
115.9772, 24.40576
116.4594, 25.37512
116.9415, 26.37790
117.4236, 27.46331
117.9057, 28.51741
118.3878, 29.41446
118.8699, 30.00266
119.3521, 30.51008
119.8342, 31.02829
120.3163, 31.55247
120.7984, 32.20702
121.2805, 33.19354
121.7626, 34.35402
122.2448, 35.41827
122.7269, 36.26640
123.2090, 36.95385
123.6911, 37.47880
124.1732, 37.79334
124.6553, 38.14532
125.1375, 38.79583
125.6196, 39.68280
126.1017, 40.60982
126.5838, 41.57482
127.0659, 42.48480
127.5480, 43.10236
128.0302, 43.26502
128.5123, 43.40755
128.9944, 44.22306
129.4765, 45.65314
129.9586, 47.15192
130.4407, 48.31541
130.9229, 49.21453
131.4050, 50.14635
131.8871, 51.15592
132.3692, 52.21646
132.8513, 53.28191
133.3334, 54.27436
133.8156, 54.93872
134.2977, 55.15852
134.7798, 55.13963
135.2619, 55.31758
135.7440, 55.84958
136.2261, 56.64409
136.7083, 57.28527
137.1904, 57.72233
137.6725, 58.18019
138.1546, 58.98966
138.6367, 60.26277
139.1188, 61.28170
139.6010, 61.80609
140.0831, 61.83501
140.5652, 62.03590
141.0473, 62.49047
141.5294, 63.00377
142.0115, 63.29271
142.4937, 63.24734
142.9758, 63.24214
143.4579, 63.39696
143.9400, 63.74657
144.4221, 64.07095
144.9042, 64.36436
145.3864, 64.63387
145.8685, 64.88734
146.3506, 65.13966
146.8327, 65.35621
147.3148, 65.50958
147.7969, 65.50697
148.2791, 65.65686
148.7612, 66.18644
149.2433, 66.84859
149.7254, 67.07233
150.2075, 66.56118
150.6896, 65.87580
151.1718, 65.22702
151.6539, 64.76356
152.1360, 64.12322
152.6181, 63.20332
153.1002, 62.08865
153.5823, 61.03612
154.0645, 60.14950
154.5466, 59.25402
155.0287, 58.26935
155.5108, 57.07733
155.9929, 55.90661
156.4750, 54.76710
156.9572, 53.66775
157.4393, 52.67592
157.9214, 52.01362
158.4035, 51.32694
158.8856, 50.39427
159.3677, 48.64059
159.8499, 47.15819
160.3320, 46.40631
160.8141, 46.27333
161.2962, 46.09829
161.7783, 45.60169
162.2604, 44.98954
162.7426, 44.43174
163.2247, 44.02293
163.7068, 43.63993
164.1889, 43.17671
164.6710, 42.65074
165.1531, 42.25813
165.6353, 42.13898
166.1174, 42.18816
166.5995, 42.29255
167.0816, 42.42695
167.5637, 42.59111
168.0458, 42.75566
168.5280, 42.91944
169.0101, 43.18914
169.4922, 43.80720
169.9743, 44.53761
170.4564, 45.04633
170.9385, 45.03679
171.4207, 44.84378
171.9028, 44.73661
172.3849, 44.72664
172.8670, 44.77975
173.3491, 44.94989
173.8312, 45.16302
174.3134, 45.27741
174.7955, 45.01032
175.2776, 44.70420
175.7597, 44.85019
176.2418, 45.52253
176.7239, 46.23874
177.2061, 46.52672
177.6882, 46.50560
178.1703, 46.49427
178.6524, 46.60263
179.1345, 46.83167
179.6166, 47.17678
180.0988, 47.63864
180.5809, 48.22613
181.0630, 49.05827
181.5451, 50.06955
182.0272, 50.96148
182.5093, 51.37685
182.9915, 51.57668
183.4736, 52.23594
183.9557, 53.47149
184.4378, 54.92434
184.9199, 56.14506
185.4020, 57.14506
185.8842, 58.16960
186.3663, 59.32739
186.8484, 60.61114
187.3305, 61.94390
187.8126, 63.32521
188.2947, 64.77824
188.7769, 66.26900
189.2590, 67.80850
189.7411, 69.62863
190.2232, 71.99968
190.7053, 74.83346
191.1874, 77.60316
191.6696, 80.27052
192.1517, 82.91136
192.6338, 85.66269
193.1159, 88.52380
193.5980, 91.51456
194.0801, 94.69674
194.5623, 98.04166
195.0444, 101.3763
195.5265, 104.6839
196.0086, 107.9367
196.4907, 111.1264
196.9728, 114.2731
197.4550, 117.1874
197.9371, 119.7283
198.4192, 121.8930
198.9013, 123.8489
199.3834, 125.5156
199.8655, 127.0705
200.3477, 129.1171
200.8298, 131.8058
201.3119, 134.2822
201.7940, 135.9173
202.2761, 136.6181
202.7582, 137.5309
203.2404, 138.7546
203.7225, 140.2525
204.2046, 141.9137
204.6867, 143.7203
205.1688, 145.7630
205.6509, 148.0579
206.1331, 150.6044
206.6152, 153.4406
207.0973, 156.4864
207.5794, 159.8657
208.0615, 163.9762
208.5436, 168.8736
209.0258, 174.3780
209.5079, 180.5891
209.9900, 187.7874
210.4721, 194.3200
210.9542, 200.2221
211.4363, 205.3117
211.9185, 209.1474
212.4006, 212.0732
212.8827, 212.9921
213.3648, 211.0988
213.8469, 206.0194
214.3290, 199.4055
214.8112, 190.9031
215.2933, 181.0813
215.7754, 171.6546
216.2575, 162.7206
216.7396, 153.9595
217.2217, 145.0672
217.7038, 135.6100
218.1860, 127.4439
218.6681, 120.9441
219.1502, 115.8284
219.6323, 111.1725
220.1144, 106.9352
220.5965, 103.2980
221.0787, 100.4389
221.5608, 98.50810
222.0429, 96.96529
222.5250, 95.81966
223.0071, 95.04111
223.4892, 94.57729
223.9714, 94.49731
224.4535, 94.61710
224.9356, 94.85918
225.4177, 95.27737
225.8998, 95.67193
226.3819, 95.94698
226.8641, 96.20295
227.3462, 96.78418
227.8283, 97.76362
228.3104, 98.95170
228.7925, 100.2211
229.2746, 101.4914
229.7568, 103.0766
230.2389, 105.0690
230.7210, 107.3828
231.2031, 109.6442
231.6852, 111.6057
232.1673, 113.8727
232.6495, 116.7264
233.1316, 120.2661
233.6137, 124.1689
234.0958, 128.3855
234.5779, 132.9258
235.0600, 137.7191
235.5422, 142.6436
236.0243, 148.0817
236.5064, 154.3676
236.9885, 162.2980
237.4706, 169.3325
237.9527, 175.4273
238.4349, 180.5508
238.9170, 184.4832
239.3991, 186.8620
239.8812, 188.5952
240.3633, 190.2006
240.8454, 192.3552
241.3276, 192.6607
241.8097, 190.6995
242.2918, 187.0406
242.7739, 182.9101
243.2560, 178.3929
243.7381, 173.2712
244.2203, 167.3700
244.7024, 160.3606
245.1845, 153.4954
245.6666, 146.7761
246.1487, 140.2154
246.6308, 133.6608
247.1130, 126.8999
247.5951, 120.4647
248.0772, 114.6052
248.5593, 109.3432
249.0414, 104.4558
249.5235, 99.96297
250.0057, 95.83864
250.4878, 91.94615
250.9699, 88.20799
251.4520, 84.82682
251.9341, 81.91821
252.4162, 79.51093
252.8984, 77.36339
253.3805, 75.53631
253.8626, 73.90856
254.3447, 72.34651
254.8268, 70.79512
255.3089, 69.37225
255.7911, 68.12090
256.2732, 67.03592
256.7553, 66.09902
257.2374, 65.26828
257.7195, 64.62591
258.2017, 64.30545
258.6838, 64.44260
259.1659, 64.58498
259.6480, 64.60743
260.1301, 64.50217
260.6122, 64.49100
261.0944, 64.61007
261.5765, 64.77930
262.0586, 64.91999
262.5407, 65.03309
263.0228, 65.11125
263.5049, 65.12592
263.9871, 65.08387
264.4692, 65.17167
264.9513, 65.47349
265.4334, 65.77247
265.9155, 65.80025
266.3976, 65.39037
266.8798, 65.29345
267.3619, 65.76665
267.8440, 66.71081
268.3261, 67.28126
268.8082, 67.41290
269.2903, 67.30818
269.7725, 67.07800
270.2546, 66.68313
270.7367, 66.35816
271.2188, 66.15047
271.7009, 66.03680
272.1830, 65.96502
272.6652, 66.00759
273.1473, 65.89273
273.6294, 65.35476
274.1115, 64.30185
274.5936, 63.40169
275.0757, 62.76530
275.5579, 62.28292
276.0400, 61.66998
276.5221, 60.91862
277.0042, 60.06664
277.4863, 59.05157
277.9684, 57.84248
278.4506, 56.92271
278.9327, 56.38785
279.4148, 56.07888
279.8969, 55.64166
280.3790, 55.04832
280.8611, 54.52560
281.3433, 54.20197
281.8254, 54.07589
282.3075, 54.05770
282.7896, 54.22054
283.2717, 54.32347
283.7538, 53.82209
284.2360, 52.68465
284.7181, 51.76989
285.2002, 51.62383
285.6823, 52.13512
286.1644, 52.25286
286.6465, 51.91435
287.1287, 51.40670
287.6108, 51.04305
288.0929, 50.82258
288.5750, 50.74237
289.0571, 50.83644
289.5392, 51.07136
290.0214, 51.34477
290.5035, 51.66604
290.9856, 51.94206
291.4677, 52.09269
291.9498, 52.11804
292.4319, 51.99450
292.9141, 51.57748
293.3962, 51.08189
293.8783, 51.07428
294.3604, 51.56147
294.8425, 52.15855
295.3246, 52.52335
295.8068, 52.73006
296.2889, 53.01851
296.7710, 53.45966
297.2531, 53.99969
297.7352, 54.63050
298.2173, 55.32500
298.6995, 55.87052
299.1816, 55.94457
299.6637, 55.76683
300.1458, 55.80653
300.6279, 56.18287
301.1100, 56.72353
301.5922, 57.26478
302.0743, 57.79814
302.5564, 58.28953
303.0385, 58.67702
303.5206, 59.02478
304.0027, 59.40517
304.4849, 59.79955
304.9670, 60.32409
305.4491, 61.15458
305.9312, 62.20293
306.4133, 63.25836
306.8954, 64.08807
307.3776, 64.94457
307.8597, 66.12337
308.3418, 67.67941
308.8239, 69.26479
309.3060, 70.59655
309.7881, 71.80752
310.2703, 73.06324
310.7524, 74.42300
311.2345, 75.87656
311.7166, 77.43877
312.1987, 79.10464
312.6808, 80.74966
313.1630, 82.30885
313.6451, 83.82320
314.1272, 85.35166
314.6093, 87.02552
315.0914, 88.58988
315.5735, 89.98228
316.0557, 91.17464
316.5378, 92.02042
317.0199, 92.35921
317.5020, 92.38419
317.9841, 92.22564
318.4662, 91.84462
318.9484, 91.38741
319.4305, 90.83928
319.9126, 90.24529
320.3947, 89.72343
320.8768, 89.23196
321.3589, 88.87916
321.8411, 88.68863
322.3232, 88.58482
322.8053, 88.84436
323.2874, 89.83366
323.7695, 91.16162
324.2516, 92.20905
324.7338, 92.70879
325.2159, 93.07263
325.6980, 93.39107
326.1801, 93.64461
326.6622, 93.96976
327.1443, 94.34531
327.6265, 94.81135
328.1086, 95.41569
328.5907, 96.70641
329.0728, 97.50786
329.5549, 97.34644
330.0370, 96.20671
330.5192, 95.78464
331.0013, 96.65742
331.4834, 97.75500
331.9655, 98.33645
332.4476, 98.05427
332.9297, 97.85352
333.4119, 97.85942
333.8940, 98.01162
334.3761, 98.01358
334.8582, 97.69065
335.3403, 97.49097
335.8224, 97.69701
336.3046, 98.52012
336.7867, 99.07707
337.2688, 99.18021
337.7509, 99.14008
338.2330, 99.63439
338.7151, 100.7921
339.1973, 102.0731
339.6794, 103.3144
340.1615, 104.5078
340.6436, 105.6724
341.1257, 106.8665
341.6078, 107.8867
342.0899, 108.3193
342.5721, 108.0983
343.0542, 108.1055
343.5363, 108.5937
344.0184, 109.5133
344.5005, 110.7220
344.9826, 112.2295
345.4648, 113.8860
345.9469, 115.6103
346.4290, 117.3991
346.9111, 119.0131
347.3932, 120.3425
347.8753, 121.5794
348.3575, 123.1029
348.8396, 124.8811
349.3217, 126.6609
349.8038, 128.0119
350.2859, 129.2310
350.7680, 131.0943
351.2502, 133.7591
351.7323, 136.8080
352.2144, 139.7146
352.6965, 142.6131
353.1786, 145.8252
353.6607, 149.7189
354.1429, 153.9273
354.6250, 157.9561
355.1071, 161.7774
355.5892, 165.7166
356.0713, 169.8937
356.5534, 174.3813
357.0356, 179.2871
357.5177, 184.7540
357.9998, 190.5957
358.4819, 196.5584
358.9640, 202.6850
359.4461, 209.0809
359.9283, 215.7357
360.4104, 222.7174
360.8925, 230.1042
361.3746, 238.0376
361.8567, 246.1567
362.3388, 254.5090
362.8210, 262.9044
363.3031, 271.1071
363.7852, 278.8686
364.2673, 286.5446
364.7494, 294.4689
365.2315, 302.9797
365.7137, 310.6363
366.1958, 317.1660
366.6779, 322.6127
367.1600, 327.0865
367.6421, 331.2298
368.1242, 333.7492
368.6064, 333.9895
369.0885, 331.8363
369.5706, 329.5966
370.0527, 328.5031
370.5348, 326.3698
371.0169, 321.6517
371.4991, 313.0802
371.9812, 304.1816
372.4633, 295.2666
372.9454, 286.1452
373.4275, 276.2519
373.9096, 264.9868
374.3918, 253.7984
374.8739, 243.6780
375.3560, 234.8439
375.8381, 225.4656
376.3202, 215.2926
376.8023, 205.0360
377.2845, 195.8389
377.7666, 187.8886
378.2487, 180.3385
378.7308, 172.9957
379.2129, 165.8556
379.6950, 159.7134
380.1772, 154.6250
380.6593, 149.9745
381.1414, 145.1267
381.6235, 140.1548
382.1056, 135.2979
382.5877, 130.5805
383.0699, 126.1027
383.5520, 122.0761
384.0341, 118.4571
384.5162, 115.1765
384.9983, 112.2376
385.4804, 109.5657
385.9626, 106.9596
386.4447, 104.3876
386.9268, 101.9448
387.4089, 99.79664
387.8910, 97.84401
388.3731, 95.91462
388.8553, 93.98244
389.3374, 91.99838
389.8195, 89.77915
390.3016, 87.38586
390.7837, 85.31416
391.2658, 84.16451
391.7480, 83.40384
392.2301, 82.47301
392.7122, 81.09942
393.1943, 79.69807
393.6764, 78.46114
394.1585, 77.35386
394.6407, 76.29985
395.1228, 75.21603
395.6049, 74.21630
396.0870, 73.39236
396.5691, 72.85789
397.0512, 72.17786
397.5334, 70.97269
398.0155, 69.66873
398.4976, 68.81406
398.9797, 69.05870
399.4618, 69.10667
399.9439, 68.52834
400.4261, 67.32808
400.9082, 66.66836
401.3903, 66.90298
401.8724, 67.34007
402.3545, 67.54299
402.8366, 67.40015
403.3188, 67.26354
403.8009, 67.17277
404.2830, 67.09078
404.7651, 66.90346
405.2472, 66.56508
405.7293, 66.25758
406.2115, 66.05224
406.6936, 65.95213
407.1757, 65.92674
407.6578, 65.99870
408.1399, 66.08520
408.6220, 66.08199
409.1042, 65.99129
409.5863, 65.92480
410.0684, 65.98363
410.5505, 66.02909
411.0326, 65.63744
411.5147, 64.82098
411.9969, 64.02371
412.4790, 63.60846
412.9611, 63.43797
413.4432, 63.20687
413.9253, 62.88013
414.4074, 62.45850
414.8896, 61.88153
415.3717, 61.20655
415.8538, 60.57137
416.3359, 60.13844
416.8180, 59.71688
417.3001, 59.11606
417.7823, 58.32981
418.2644, 57.54646
418.7465, 56.84098
419.2286, 56.18779
419.7107, 55.56683
420.1928, 54.91925
420.6750, 54.36251
421.1571, 54.09040
421.6392, 53.95242
422.1213, 53.56473
422.6034, 52.55571
423.0855, 51.51040
423.5677, 50.67323
424.0498, 50.13445
424.5319, 49.56990
425.0140, 48.87308
425.4961, 48.17469
425.9782, 47.60170
426.4604, 47.16134
426.9425, 46.83901
427.4246, 46.65252
427.9067, 46.58875
428.3888, 46.58110
428.8709, 46.68444
429.3531, 46.74772
429.8352, 46.66870
430.3173, 46.41342
430.7994, 46.18582
431.2815, 45.98260
431.7636, 45.82117
432.2458, 45.77462
432.7279, 45.85426
433.2100, 45.84237
433.6921, 45.60935
434.1742, 45.23200
434.6563, 44.99829
435.1385, 44.90699
435.6206, 44.88662
436.1027, 44.85597
436.5848, 44.84713
437.0669, 44.96474
437.5490, 45.26197
438.0312, 45.60913
438.5133, 45.89903
438.9954, 46.12757
439.4775, 46.28227
439.9596, 46.27945
440.4417, 46.25018
440.9239, 46.37433
441.4060, 46.66273
441.8881, 46.80991
442.3702, 46.37318
442.8523, 45.83278
443.3344, 45.65477
443.8166, 46.32594
444.2987, 46.95006
444.7808, 47.17205
445.2629, 47.12641
445.7450, 47.20889
446.2271, 47.71623
446.7093, 48.17315
447.1914, 48.39068
447.6735, 48.30304
448.1556, 48.15809
448.6377, 47.86014
449.1198, 47.57024
449.6020, 47.45596
450.0841, 47.57577
450.5662, 47.76481
451.0483, 48.06148
451.5304, 48.40749
452.0125, 48.49730
452.4947, 48.24713
452.9768, 48.00171
453.4589, 47.96726
453.9410, 48.14945
454.4231, 48.30007
454.9052, 48.40061
455.3874, 48.51519
455.8695, 48.72450
456.3516, 49.02487
456.8337, 49.40871
457.3158, 50.04587
457.7979, 50.62551
458.2801, 50.33343
458.7622, 49.31300
459.2443, 48.56700
459.7264, 49.09034
460.2085, 50.18517
460.6906, 50.91917
461.1728, 51.10491
461.6549, 51.18160
462.1370, 51.41257
462.6191, 51.74220
463.1012, 52.08437
463.5833, 52.24805
464.0655, 52.56531
464.5476, 53.31849
465.0297, 54.43757
465.5118, 55.35975
465.9939, 55.54850
466.4760, 55.76227
466.9582, 56.44178
467.4403, 58.03471
467.9224, 59.36090
468.4045, 60.22782
468.8866, 60.88238
469.3687, 61.68679
469.8509, 62.66750
470.3330, 63.74067
470.8151, 64.98025
471.2972, 66.33973
471.7793, 67.23392
472.2614, 67.48868
472.7436, 67.77891
473.2257, 68.73666
473.7078, 70.38424
474.1899, 71.48532
474.6720, 71.87793
475.1541, 71.91758
475.6363, 72.10587
476.1184, 72.41179
476.6005, 72.63672
477.0826, 72.67106
477.5647, 72.59393
478.0468, 72.46896
478.5290, 72.31454
479.0111, 72.29823
479.4932, 72.87423
479.9753, 73.51045
480.4574, 73.51055
480.9395, 72.60030
481.4217, 71.54582
481.9038, 70.63387
482.3859, 69.92988
482.8680, 69.54673
483.3501, 70.16497
483.8322, 70.48396
484.3144, 69.80688
484.7965, 68.21249
485.2786, 66.92939
485.7607, 66.35682
486.2428, 65.98172
486.7249, 65.53392
487.2071, 64.87358
487.6892, 64.46651
488.1713, 64.47161
488.6534, 64.62021
489.1355, 64.52116
489.6176, 64.12077
490.0998, 63.60620
490.5819, 62.91945
491.0640, 62.15546
491.5461, 61.86855
492.0282, 62.10805
492.5103, 62.44860
492.9925, 62.67055
493.4746, 62.76246
493.9567, 62.60879
494.4388, 62.16660
494.9209, 61.65736
495.4030, 61.29382
495.8852, 61.05653
496.3673, 60.89127
496.8494, 60.82061
497.3315, 60.77284
497.8136, 60.66321
498.2957, 60.50969
498.7779, 60.39347
499.2600, 60.48385
499.7421, 60.53708
500.2242, 60.32576
500.7063, 59.73249
501.1884, 59.28133
501.6706, 59.39213
502.1527, 59.60968
502.6348, 59.47183
503.1169, 58.55651
503.5990, 57.71812
504.0811, 57.07652
504.5633, 56.58790
505.0454, 56.07975
505.5275, 55.56886
506.0096, 55.02323
506.4917, 54.41325
506.9738, 53.72144
507.4560, 53.10068
507.9381, 52.53866
508.4202, 52.07951
508.9023, 51.85423
509.3844, 51.84050
509.8665, 51.63081
510.3487, 51.10608
510.8308, 50.43296
511.3129, 49.80952
511.7950, 49.25694
512.2772, 48.87378
512.7593, 48.84156
513.2414, 48.93925
513.7235, 48.87649
514.2056, 48.65524
514.6877, 48.46489
515.1699, 48.56763
515.6520, 48.68295
516.1341, 48.49966
516.6162, 47.66350
517.0983, 47.08705
517.5804, 47.28239
518.0626, 47.88142
518.5447, 48.28058
519.0268, 48.23146
519.5089, 48.13444
519.9910, 48.09686
520.4731, 48.10866
520.9553, 47.99618
521.4374, 47.68703
521.9195, 47.36447
522.4016, 47.12840
522.8837, 46.99212
523.3658, 46.89914
523.8480, 46.87297
524.3301, 46.84026
524.8122, 46.68393
525.2943, 46.41338
525.7764, 46.16541
526.2585, 45.99599
526.7407, 45.84874
527.2228, 45.58052
527.7049, 45.21679
528.1870, 44.91337
528.6691, 44.90065
529.1512, 44.92551
529.6334, 44.55996
530.1155, 43.75174
530.5976, 43.20422
531.0797, 43.66383
531.5618, 44.43124
532.0439, 44.80730
532.5261, 44.43876
533.0082, 43.92944
533.4903, 43.24877
533.9724, 42.54468
534.4545, 42.12141
534.9366, 42.31277
535.4188, 42.43835
535.9009, 42.30930
536.3830, 41.93414
536.8651, 41.68599
537.3472, 41.62607
537.8293, 41.57512
538.3115, 41.38608
538.7936, 41.04179
539.2757, 40.83759
539.7578, 40.81887
540.2399, 40.85783
540.7220, 40.80451
541.2042, 40.66225
541.6863, 40.44665
542.1684, 40.14665
542.6505, 39.79057
543.1326, 39.31584
543.6147, 38.78955
544.0969, 38.46114
544.5790, 38.76290
545.0611, 39.14049
545.5432, 39.06993
546.0253, 38.48664
546.5074, 37.95908
546.9896, 37.76807
547.4717, 37.71324
547.9538, 37.63231
548.4359, 37.42885
548.9180, 37.29573
549.4001, 37.36571
549.8823, 37.47911
550.3644, 37.33091
550.8465, 36.67594
551.3286, 36.22998
551.8107, 36.24866
552.2928, 36.64825
552.7750, 36.78765
553.2571, 36.62479
553.7392, 36.41551
554.2213, 36.31081
554.7034, 36.30091
555.1855, 36.33805
555.6677, 36.42565
556.1498, 36.51623
556.6319, 36.55977
557.1140, 36.56850
557.5961, 36.57650
558.0782, 36.63548
558.5604, 36.62463
559.0425, 36.31332
559.5246, 35.85807
560.0067, 35.61073
560.4888, 36.02576
560.9709, 36.40117
561.4531, 36.35115
561.9352, 35.86527
562.4173, 35.48777
562.8994, 35.38107
563.3815, 35.32900
563.8636, 35.21785
564.3458, 35.00133
564.8279, 34.86422
565.3100, 34.85386
565.7921, 34.86192
566.2742, 34.72538
566.7563, 34.42290
567.2385, 34.17480
567.7206, 34.01775
568.2027, 33.95661
568.6848, 34.10549
569.1669, 34.42217
569.6490, 34.57262
570.1312, 34.13175
570.6133, 33.53011
571.0954, 33.48021
571.5775, 33.96098
572.0596, 34.42405
572.5417, 34.54981
573.0239, 34.48626
573.5060, 34.34742
573.9881, 34.13353
574.4702, 33.89943
574.9523, 33.57789
575.4344, 33.27288
575.9166, 33.12050
576.3987, 33.27279
576.8808, 33.38395
577.3629, 33.42531
577.8450, 33.39899
578.3271, 33.29266
578.8093, 33.06326
579.2914, 32.88348
579.7735, 32.85147
580.2556, 32.94191
580.7377, 32.94115
581.2198, 32.83988
581.7020, 32.74334
582.1841, 32.76483
582.6662, 32.85441
583.1483, 32.85928
583.6304, 32.73051
584.1125, 32.67785
584.5947, 33.01558
585.0768, 33.51534
585.5589, 33.84255
586.0410, 33.81414
586.5231, 33.67063
587.0052, 33.38663
587.4873, 33.05546
587.9694, 32.93049
588.4515, 33.27634
588.9337, 33.61081
589.4158, 33.77548
589.8979, 33.76912
590.3800, 33.84934
590.8621, 34.06551
591.3442, 34.28084
591.8264, 34.37824
592.3085, 34.34280
592.7906, 34.44899
593.2727, 34.73799
593.7548, 35.04862
594.2369, 35.16193
594.7191, 35.13087
595.2012, 35.17530
595.6833, 35.40203
596.1654, 35.61931
596.6475, 35.52322
597.1296, 35.25307
597.6118, 35.12949
598.0939, 35.43449
598.5760, 35.80456
599.0581, 36.03423
599.5402, 36.13260
600.0223, 36.26958
600.5045, 36.66916
600.9866, 36.95052
601.4687, 36.87352
601.9508, 36.27444
602.4329, 36.06556
602.9150, 36.42484
603.3972, 36.93022
603.8793, 37.18464
604.3614, 37.15795
604.8435, 37.23157
605.3256, 37.47874
605.8077, 37.76882
606.2899, 37.86166
606.7720, 37.80037
607.2541, 37.78544
607.7362, 37.90155
608.2183, 38.08841
608.7004, 38.27827
609.1826, 38.47898
609.6647, 38.71100
610.1468, 38.97262
610.6289, 39.28384
611.1110, 39.67731
611.5931, 40.16249
612.0753, 40.60846
612.5574, 41.02430
613.0395, 41.36975
613.5216, 41.59566
614.0037, 41.55951
614.4858, 41.79161
614.9680, 42.36887
615.4501, 43.10978
615.9322, 43.81197
616.4143, 44.47017
616.8964, 45.13692
617.3785, 45.82618
617.8607, 46.50900
618.3428, 47.05317
618.8249, 47.52111
619.3070, 48.17518
619.7891, 49.24165
620.2712, 50.47882
620.7534, 51.70459
621.2355, 52.91393
621.7176, 54.02919
622.1997, 54.85172
622.6818, 55.70410
623.1639, 56.73757
623.6461, 57.95122
624.1282, 59.46729
624.6103, 61.72953
625.0924, 63.92636
625.5745, 65.51286
626.0566, 66.26078
626.5388, 67.10948
627.0209, 68.13493
627.5030, 69.15027
627.9851, 69.97899
628.4672, 70.60381
628.9493, 70.76937
629.4315, 70.28699
629.9136, 69.54762
630.3957, 69.19139
630.8778, 69.09184
631.3599, 68.87503
631.8420, 68.26163
632.3242, 67.54236
632.8063, 66.91119
633.2884, 66.36671
633.7705, 65.84600
634.2526, 65.12968
634.7347, 64.60433
635.2169, 64.48782
635.6990, 64.84706
636.1811, 65.24866
636.6632, 65.60052
637.1453, 66.11335
637.6274, 66.95360
638.1096, 68.16576
638.5917, 69.43452
639.0738, 70.74014
639.5559, 72.14406
640.0380, 73.87389
640.5201, 75.82958
641.0023, 77.48819
641.4844, 78.60610
641.9665, 79.64700
642.4486, 81.15224
642.9307, 82.99190
643.4128, 84.85487
643.8950, 86.76968
644.3771, 88.54452
644.8592, 90.14822
645.3413, 91.55553
645.8234, 92.72664
646.3055, 93.48026
646.7877, 94.15190
647.2698, 94.90819
647.7519, 95.77347
648.2340, 96.06600
648.7161, 95.57708
649.1982, 95.08550
649.6804, 95.27100
650.1625, 96.04069
650.6446, 96.49804
651.1267, 96.57461
651.6088, 96.50676
652.0909, 96.30070
652.5731, 96.17004
653.0552, 96.56358
653.5373, 97.79781
654.0194, 99.06121
654.5015, 99.75783
654.9836, 100.2084
655.4658, 100.8883
655.9479, 102.1173
656.4300, 103.3579
656.9121, 104.5005
657.3942, 105.5916
657.8763, 106.7429
658.3585, 107.9480
658.8406, 109.2592
659.3227, 110.7841
659.8048, 112.4277
660.2869, 113.5985
660.7690, 114.2829
661.2512, 114.7859
661.7333, 115.3429
662.2154, 115.8335
662.6975, 115.9749
663.1796, 115.7638
663.6617, 115.4657
664.1439, 115.4511
664.6260, 115.3210
665.1081, 114.6396
665.5902, 113.1507
666.0723, 111.7932
666.5544, 111.0328
667.0366, 110.3706
667.5187, 109.3464
668.0008, 107.8169
668.4829, 106.2226
668.9650, 104.5912
669.4471, 102.9255
669.9293, 101.2169
670.4114, 99.46586
670.8935, 97.63879
671.3756, 95.68851
671.8577, 93.71073
672.3398, 91.74663
672.8220, 89.83543
673.3041, 88.14635
673.7862, 86.96237
674.2683, 85.85978
674.7504, 84.51885
675.2325, 82.97686
675.7147, 81.48575
676.1968, 80.06593
676.6789, 78.74039
677.1610, 77.54257
677.6431, 76.45872
678.1252, 75.49650
678.6074, 74.69793
679.0895, 73.95816
679.5716, 73.18763
680.0537, 72.38054
680.5358, 71.81273
681.0179, 71.51111
681.5001, 71.29400
681.9822, 70.99741
682.4643, 70.65505
682.9464, 70.31564
683.4285, 69.95419
683.9106, 69.72493
684.3928, 69.76176
684.8749, 69.98106
685.3570, 70.27937
685.8391, 70.77020
686.3212, 71.16947
686.8033, 71.17376
687.2855, 71.14765
687.7676, 71.73409
688.2497, 73.25791
688.7318, 74.56717
689.2139, 75.30872
689.6960, 75.80260
690.1782, 76.95872
690.6603, 78.74604
691.1424, 80.54659
691.6245, 82.06128
692.1066, 83.45589
692.5887, 84.93816
693.0709, 86.50651
693.5530, 88.17116
694.0351, 89.71362
694.5172, 91.51862
694.9993, 93.97004
695.4814, 97.10489
695.9636, 100.0199
696.4457, 102.1654
696.9278, 104.4768
697.4099, 107.4937
697.8920, 111.3973
698.3741, 114.7418
698.8563, 117.4227
699.3384, 119.8631
699.8205, 122.4365
700.3026, 125.0832
700.7847, 127.6630
701.2668, 130.1766
701.7490, 132.5019
702.2311, 134.8578
702.7132, 136.8358
703.1953, 137.8622
703.6774, 137.7047
704.1595, 136.7634
704.6417, 134.9114
705.1238, 132.4569
705.6059, 129.8535
706.0880, 127.3844
706.5701, 124.3390
707.0522, 120.5502
707.5344, 116.2051
708.0165, 111.6544
708.4986, 106.8987
708.9807, 102.1892
709.4628, 97.53292
709.9449, 93.05782
710.4271, 89.07873
710.9092, 85.53049
711.3913, 82.02088
711.8734, 78.27660
712.3555, 74.61842
712.8376, 71.08395
713.3198, 67.74437
713.8019, 65.00620
714.2840, 63.34407
714.7661, 61.91059
715.2482, 60.40205
715.7303, 58.82490
716.2125, 57.42751
716.6946, 56.25549
717.1767, 55.11098
717.6588, 53.82987
718.1409, 52.44951
718.6230, 51.36423
719.1052, 50.56554
719.5873, 49.91341
720.0694, 49.27571
720.5515, 48.70676
721.0336, 48.27369
721.5157, 47.99371
721.9979, 47.79314
722.4800, 47.64910
722.9621, 47.56020
723.4442, 47.53240
723.9263, 47.61304
724.4084, 47.65827
724.8906, 47.70720
725.3727, 47.67425
725.8548, 47.43341
726.3369, 46.96350
726.8190, 46.54684
727.3011, 46.19500
727.7833, 45.99080
728.2654, 46.27687
728.7475, 46.78721
729.2296, 46.84310
729.7117, 46.05475
730.1938, 45.18792
730.6760, 44.72335
731.1581, 44.53436
731.6402, 44.41674
732.1223, 44.42080
732.6044, 44.37367
733.0865, 44.26562
733.5687, 44.08916
734.0508, 43.77285
734.5329, 43.22553
735.0150, 42.93351
735.4971, 43.07727
735.9792, 43.48890
736.4614, 43.86655
736.9435, 44.19472
737.4256, 44.39309
737.9077, 44.19594
738.3898, 44.02626
738.8719, 44.32587
739.3541, 44.99327
739.8362, 45.66963
740.3183, 46.16774
740.8004, 46.71034
741.2825, 47.49257
741.7646, 48.45638
742.2468, 49.01302
742.7289, 48.93441
743.2110, 49.01784
743.6931, 49.69433
744.1752, 50.85231
744.6573, 51.77291
745.1395, 52.46243
745.6216, 53.40493
746.1037, 55.17058
746.5858, 57.24484
747.0679, 58.98851
747.5500, 60.38133
748.0322, 61.65354
748.5143, 62.82517
748.9964, 63.97506
749.4785, 65.13907
749.9606, 66.30830
750.4427, 67.63690
750.9249, 69.27828
751.4070, 70.85407
751.8891, 72.01095
752.3712, 72.76788
752.8533, 73.73722
753.3354, 74.95541
753.8176, 76.27616
754.2997, 77.70085
754.7818, 79.08731
755.2639, 80.16938
755.7460, 80.83902
756.2281, 81.58630
756.7103, 83.07163
757.1924, 84.50298
757.6745, 85.13742
758.1566, 84.32587
758.6387, 83.84750
759.1208, 83.93022
759.6030, 84.06290
760.0851, 83.71917
760.5672, 82.88501
761.0493, 81.84902
761.5314, 80.61424
762.0135, 79.29972
762.4957, 78.04155
762.9778, 76.81228
763.4599, 75.56242
763.9420, 74.34485
764.4241, 72.96102
764.9063, 71.09789
765.3884, 69.08952
765.8705, 67.34505
766.3526, 65.85102
766.8347, 64.78082
767.3168, 64.39314
767.7990, 64.19389
768.2811, 63.35875
768.7632, 61.85081
769.2453, 60.47723
769.7274, 59.42934
770.2095, 58.53536
770.6917, 57.54454
771.1738, 56.53140
771.6559, 55.64803
772.1380, 55.00014
772.6201, 54.43342
773.1022, 53.84666
773.5844, 53.29422
774.0665, 52.88086
774.5486, 52.66357
775.0307, 52.54150
775.5128, 52.62443
775.9949, 52.71378
776.4771, 52.23930
776.9592, 51.16817
777.4413, 50.43206
777.9234, 50.41936
778.4055, 50.68291
778.8876, 50.63051
779.3698, 50.30024
779.8519, 49.78738
780.3340, 48.78174
780.8161, 47.97581
781.2982, 47.82433
781.7803, 48.11396
782.2625, 48.26488
782.7446, 48.15283
783.2267, 48.03377
783.7088, 47.95893
784.1909, 47.90844
784.6730, 47.82111
785.1552, 47.69684
785.6373, 47.57399
786.1194, 47.46461
786.6015, 47.36949
787.0836, 47.29576
787.5657, 47.23889
788.0479, 47.18699
788.5300, 47.06638
789.0121, 47.02041
789.4942, 47.18781
789.9763, 47.49507
790.4584, 47.63966
790.9406, 47.49178
791.4227, 47.42872
791.9048, 47.59007
792.3869, 47.88765
792.8690, 48.04931
793.3511, 48.07991
793.8333, 48.02877
794.3154, 47.82869
794.7975, 47.63720
795.2796, 47.70778
795.7617, 47.96052
796.2438, 48.13584
796.7260, 48.02147
797.2081, 47.92421
797.6902, 47.98453
798.1723, 48.16278
798.6544, 48.30485
799.1365, 48.40488
799.6187, 48.48827
800.1008, 48.59146
800.5829, 48.66605
801.0650, 48.51654
801.5471, 48.17755
802.0292, 47.86802
802.5114, 47.65182
802.9935, 47.56216
803.4756, 47.76117
803.9577, 48.13343
804.4398, 48.29377
804.9219, 47.94851
805.4041, 47.56864
805.8862, 47.29925
806.3683, 47.10658
806.8504, 46.84909
807.3325, 46.51804
807.8146, 46.15778
808.2968, 45.77082
808.7789, 45.37374
809.2610, 44.95362
809.7431, 44.54274
810.2252, 44.27229
810.7073, 44.50966
811.1895, 44.63258
811.6716, 44.03345
812.1537, 42.95364
812.6358, 42.30132
813.1179, 42.56389
813.6000, 42.79195
814.0822, 42.82014
814.5643, 42.64889
815.0464, 42.21053
815.5285, 41.50079
816.0106, 40.86768
816.4927, 40.48354
816.9749, 40.22616
817.4570, 39.90562
817.9391, 39.55805
818.4212, 39.27805
818.9033, 39.18061
819.3854, 39.08710
819.8676, 38.99505
820.3497, 38.84907
820.8318, 38.43439
821.3139, 37.46274
821.7960, 36.95704
822.2781, 37.36946
822.7603, 38.21170
823.2424, 38.30943
823.7245, 37.73449
824.2066, 36.94244
824.6887, 35.94329
825.1708, 35.01567
825.6530, 34.46086
826.1351, 34.15648
826.6172, 33.84594
827.0993, 33.38797
827.5814, 32.99253
828.0635, 32.74843
828.5457, 32.56757
829.0278, 32.23590
829.5099, 31.72425
829.9920, 31.28314
830.4741, 31.01052
830.9562, 30.76674
831.4384, 30.29316
831.9205, 29.66421
832.4026, 29.06178
832.8847, 28.49011
833.3668, 28.03928
833.8489, 27.86474
834.3311, 27.81150
834.8132, 27.60693
835.2953, 27.15461
835.7774, 26.70631
836.2595, 26.27040
836.7416, 25.87465
837.2238, 25.54295
837.7059, 25.27957
838.1880, 25.19864
838.6701, 25.39605
839.1522, 25.55490
839.6343, 25.33810
840.1165, 24.88134
840.5986, 24.35962
841.0807, 23.61117
841.5628, 23.15726
842.0449, 23.34850
842.5270, 23.71371
843.0092, 23.76958
843.4913, 23.44671
843.9734, 23.22071
844.4555, 23.15547
844.9376, 23.10997
845.4197, 22.85876
845.9019, 22.51394
846.3840, 22.32839
846.8661, 22.38328
847.3482, 22.43458
847.8303, 22.33998
848.3124, 22.18212
848.7946, 22.01456
849.2767, 21.75934
849.7588, 21.74937
850.2409, 22.09690
850.7230, 22.47705
851.2051, 22.59191
851.6873, 22.47572
852.1694, 22.35019
852.6515, 22.22791
853.1336, 22.10521
853.6157, 21.92873
854.0978, 21.78034
854.5800, 21.76285
855.0621, 21.90738
855.5442, 22.00554
856.0263, 21.98626
856.5084, 21.93915
856.9905, 21.88463
857.4727, 21.82264
857.9548, 21.91046
858.4369, 22.16759
858.9190, 22.36733
859.4011, 22.25608
859.8832, 22.03300
860.3654, 22.08282
860.8475, 22.36976
861.3296, 22.51466
861.8117, 22.13436
862.2938, 21.76907
862.7759, 21.71699
863.2581, 21.93537
863.7402, 22.11882
864.2223, 22.26835
864.7044, 22.37757
865.1865, 22.46119
865.6686, 22.49070
866.1508, 22.30518
866.6329, 21.97083
867.1150, 21.78138
867.5971, 21.97994
868.0792, 22.28234
868.5613, 22.61406
869.0435, 22.92150
869.5256, 23.01648
870.0077, 22.71705
870.4898, 22.53351
870.9719, 22.59771
871.4540, 22.79015
871.9362, 22.82377
872.4183, 22.72470
872.9004, 22.70566
873.3825, 22.86048
873.8646, 23.05892
874.3467, 23.22184
874.8289, 23.33177
875.3110, 23.35925
875.7931, 23.14775
876.2752, 23.06085
876.7573, 23.19209
877.2394, 23.39575
877.7216, 23.48943
878.2037, 23.46380
878.6858, 23.48199
879.1679, 23.56184
879.6500, 23.69468
880.1321, 24.01420
880.6143, 24.32495
881.0964, 24.25999
881.5785, 23.63002
882.0606, 23.20782
882.5427, 23.43701
883.0248, 23.84078
883.5070, 24.10028
883.9891, 24.20357
884.4712, 24.22925
884.9533, 24.16361
885.4354, 24.08858
885.9175, 24.06584
886.3997, 24.08052
886.8818, 24.12813
887.3639, 24.20020
887.8460, 24.21021
888.3281, 23.97950
888.8102, 23.79174
889.2924, 23.87264
889.7745, 24.19697
890.2566, 24.32874
890.7387, 24.21962
891.2208, 24.05779
891.7029, 23.90232
892.1851, 23.76024
892.6672, 23.64324
893.1493, 23.55170
893.6314, 23.48891
894.1135, 23.50671
894.5956, 23.50216
895.0778, 23.36369
895.5599, 23.16158
896.0420, 23.08838
896.5241, 23.23779
897.0062, 23.34030
897.4883, 23.36508
897.9705, 23.30494
898.4526, 23.08246
898.9347, 22.74663
899.4168, 22.52085
899.8989, 22.45762
900.3810, 22.52271
900.8632, 22.79861
901.3453, 23.13396
901.8274, 23.35708
902.3095, 23.35650
902.7916, 23.37405
903.2737, 23.42227
903.7559, 23.47391
904.2380, 23.49854
904.7201, 23.50067
905.2022, 23.52949
905.6843, 23.58817
906.1664, 23.63843
906.6486, 23.63851
907.1307, 23.62222
907.6128, 23.59278
908.0949, 23.54604
908.5770, 23.63016
909.0591, 24.01452
909.5413, 24.31899
910.0234, 24.36952
910.5055, 24.20638
910.9876, 24.06751
911.4697, 23.95170
911.9518, 23.83462
912.4340, 23.64315
912.9161, 23.49030
913.3982, 23.52174
913.8803, 23.68834
914.3624, 23.85391
914.8445, 23.96564
915.3267, 24.09393
915.8088, 24.25599
916.2909, 24.43652
916.7730, 24.61788
917.2551, 24.79936
917.7372, 24.93646
918.2194, 25.02764
918.7015, 25.04751
919.1836, 24.76991
919.6657, 24.48212
920.1478, 24.63485
920.6299, 25.71524
921.1121, 26.38076
921.5942, 26.22653
922.0763, 25.86325
922.5584, 25.75998
923.0405, 25.92538
923.5226, 26.10510
924.0048, 26.29426
924.4869, 26.46063
924.9690, 26.61139
925.4511, 26.70587
925.9332, 26.62823
926.4153, 26.38978
926.8975, 26.31103
927.3796, 26.61308
927.8617, 26.95076
928.3438, 27.23696
928.8259, 27.46625
929.3080, 27.58051
929.7902, 27.58323
930.2723, 27.65644
930.7544, 27.94242
931.2365, 28.26478
931.7186, 28.33608
932.2007, 28.29836
932.6829, 28.44224
933.1650, 29.17928
933.6471, 29.65677
934.1292, 29.62552
934.6113, 29.41984
935.0934, 29.53290
935.5756, 29.96183
936.0577, 30.31162
936.5398, 30.51926
937.0219, 30.67742
937.5040, 30.82901
937.9861, 31.00361
938.4683, 31.27023
938.9504, 31.68762
939.4325, 31.92653
939.9146, 31.79789
940.3967, 31.65216
940.8788, 31.65113
941.3610, 31.79291
941.8431, 32.11631
942.3252, 32.61388
942.8073, 32.99935
943.2894, 32.92765
943.7715, 32.78945
944.2537, 32.96655
944.7358, 33.38992
945.2179, 33.78085
945.7000, 34.10149
946.1821, 34.34765
946.6642, 34.50415
947.1464, 34.60150
947.6285, 34.64277
948.1106, 34.65591
948.5927, 34.88254
949.0748, 35.43689
949.5569, 36.04272
950.0391, 36.39938
950.5212, 36.70037
951.0033, 37.18949
951.4854, 38.11535
951.9675, 38.72048
952.4496, 38.87626
952.9318, 38.91972
953.4139, 39.10296
953.8960, 39.40144
954.3781, 39.69093
954.8602, 39.96394
955.3423, 40.19035
955.8245, 40.24820
956.3066, 40.33992
956.7887, 40.68281
957.2708, 41.23030
957.7529, 41.54530
958.2350, 41.45525
958.7172, 41.52879
959.1993, 41.97609
959.6814, 42.60494
960.1635, 43.02672
960.6456, 43.27576
961.1277, 43.43208
961.6099, 43.42763
962.0920, 43.53355
962.5741, 44.08387
963.0562, 44.72918
963.5383, 45.04332
964.0204, 44.85485
964.5026, 44.82774
964.9847, 44.99831
965.4668, 45.21429
965.9489, 45.38258
966.4310, 45.47957
966.9131, 45.36375
967.3953, 45.06038
967.8774, 44.97573
968.3595, 45.67109
968.8416, 46.27226
969.3237, 46.21430
969.8058, 45.69290
970.2880, 45.70338
970.7701, 46.34751
971.2522, 46.62327
971.7343, 46.02776
972.2164, 45.18104
972.6985, 44.96769
973.1807, 45.15850
973.6628, 45.31487
974.1449, 45.32555
974.6270, 45.25459
975.1091, 45.11860
975.5912, 44.90382
976.0734, 44.57317
976.5555, 44.12555
977.0376, 43.71787
977.5197, 43.36628
978.0018, 42.99041
978.4839, 42.33691
978.9661, 41.75482
979.4482, 41.72973
979.9303, 42.24221
980.4124, 42.45049
980.8945, 42.12621
981.3766, 41.63776
981.8588, 40.99494
982.3409, 40.32695
982.8230, 40.04949
983.3051, 40.09910
983.7872, 40.15258
984.2693, 40.12115
984.7515, 40.00713
985.2336, 39.80257
985.7157, 39.52001
986.1978, 39.15911
986.6799, 38.60735
987.1620, 38.26423
987.6442, 38.18211
988.1263, 38.16148
988.6084, 38.00488
989.0905, 37.77689
989.5726, 37.64592
990.0547, 37.61280
990.5369, 37.59369
991.0190, 37.64120
991.5011, 37.59387
991.9832, 37.32624
992.4653, 36.90535
992.9474, 36.48624
993.4296, 36.04358
993.9117, 35.91707
994.3938, 36.32980
994.8759, 36.82954
995.3580, 36.76223
995.8401, 36.38025
996.3223, 36.09143
996.8044, 36.05619
997.2865, 35.98431
997.7686, 35.73859
998.2507, 35.55290
998.7328, 35.68100
999.2150, 36.09715
999.6971, 36.17484
1000.179, 35.91977
1000.661, 35.68006
1001.143, 35.61584
1001.626, 35.73115
1002.108, 36.20210
1002.590, 36.89664
1003.072, 37.15867
1003.554, 36.66784
1004.036, 36.45669
1004.518, 36.79647
1005.000, 37.39528
1005.482, 37.77126
1005.965, 38.00056
1006.447, 38.28420
1006.929, 38.69142
1007.411, 39.06304
1007.893, 39.21681
1008.375, 39.39647
1008.857, 39.79137
1009.339, 40.42241
1009.822, 41.02124
1010.304, 41.58364
1010.786, 42.13976
1011.268, 42.63383
1011.750, 43.16771
1012.232, 43.91241
1012.714, 44.81027
1013.196, 45.70079
1013.678, 46.66354
1014.161, 47.41185
1014.643, 47.77267
1015.125, 48.04740
1015.607, 48.70359
1016.089, 49.67966
1016.571, 50.63410
1017.053, 51.51500
1017.535, 52.35011
1018.018, 53.13945
1018.500, 53.90778
1018.982, 54.62801
1019.464, 55.29977
1019.946, 56.27585
1020.428, 57.65430
1020.910, 58.97176
1021.392, 59.97865
1021.874, 60.86441
1022.357, 62.07328
1022.839, 63.43599
1023.321, 64.53437
1023.803, 64.81702
1024.285, 65.39523
1024.767, 66.69726
1025.249, 68.27695
1025.731, 69.74831
1026.214, 71.11692
1026.696, 72.38121
1027.178, 73.54301
1027.660, 74.69581
1028.142, 76.04488
1028.624, 77.33066
1029.106, 78.17819
1029.588, 78.67226
1030.070, 79.62313
1030.553, 81.36617
1031.035, 82.84475
1031.517, 83.69108
1031.999, 84.34188
1032.481, 85.71906
1032.963, 87.53844
1033.445, 89.06806
1033.927, 90.07937
1034.410, 91.01559
1034.892, 92.01490
1035.374, 93.05029
1035.856, 94.16165
1036.338, 95.36486
1036.820, 95.95534
1037.302, 95.90805
1037.784, 96.07762
1038.266, 97.29810
1038.749, 98.71803
1039.231, 99.43577
1039.713, 99.67702
1040.195, 99.97698
1040.677, 100.6919
1041.159, 100.9765
1041.641, 100.6411
1042.123, 100.0975
1042.605, 99.90133
1043.088, 99.89790
1043.570, 99.55930
1044.052, 98.83128
1044.534, 98.30124
1045.016, 98.68851
1045.498, 98.94312
1045.980, 98.46101
1046.462, 97.39937
1046.945, 96.40343
1047.427, 95.46155
1047.909, 94.74939
1048.391, 94.44045
1048.873, 94.13033
1049.355, 93.20410
1049.837, 92.08402
1050.319, 91.38366
1050.802, 91.63294
1051.284, 91.26019
1051.766, 90.02227
1052.248, 88.68637
1052.730, 87.88718
1053.212, 87.41649
1053.694, 86.49525
1054.176, 85.25741
1054.658, 84.33335
1055.141, 84.55889
1055.623, 84.53181
1056.105, 83.45556
1056.587, 81.99361
1057.069, 81.20219
1057.551, 81.10983
1058.033, 80.56856
1058.515, 79.37029
1058.997, 78.29838
1059.480, 78.27895
1059.962, 78.55078
1060.444, 78.36679
1060.926, 77.65807
1061.408, 77.12046
1061.890, 76.81599
1062.372, 76.57653
1062.854, 76.34384
1063.337, 76.15193
1063.819, 76.13416
1064.301, 76.20056
1064.783, 76.12915
1065.265, 75.73734
1065.747, 75.49698
1066.229, 75.64835
1066.711, 75.90646
1067.193, 76.14165
1067.676, 76.34463
1068.158, 76.37257
1068.640, 76.22521
1069.122, 75.91578
1069.604, 75.19847
1070.086, 74.57291
1070.568, 74.57008
1071.050, 74.84831
1071.532, 74.58777
1072.015, 73.47244
1072.497, 72.96835
1072.979, 73.34569
1073.461, 73.77464
1073.943, 73.27261
1074.425, 72.32322
1074.907, 71.55399
1075.389, 71.02563
1075.872, 70.58070
1076.354, 70.37375
1076.836, 69.96542
1077.318, 69.19727
1077.800, 68.20097
1078.282, 67.09828
1078.764, 65.98769
1079.246, 65.29294
1079.729, 65.27169
1080.211, 65.10844
1080.693, 64.18575
1081.175, 63.08246
1081.657, 62.30605
1082.139, 61.85460
1082.621, 60.97555
1083.103, 59.65304
1083.585, 58.44207
1084.068, 57.68842
1084.550, 57.12882
1085.032, 56.67834
1085.514, 56.20221
1085.996, 55.43633
1086.478, 54.09335
1086.960, 53.05517
1087.442, 52.38737
1087.924, 51.90549
1088.406, 51.58773
1088.889, 51.27161
1089.371, 50.50470
1089.853, 49.37346
1090.335, 48.53382
1090.817, 48.63500
1091.299, 48.53318
1091.781, 47.93301
1092.263, 47.02310
1092.746, 46.05323
1093.228, 45.06779
1093.710, 44.30444
1094.192, 43.80896
1094.674, 43.48518
1095.156, 43.50303
1095.638, 43.46194
1096.120, 43.05164
1096.603, 42.32928
1097.085, 41.61862
1097.567, 40.91109
1098.049, 40.47487
1098.531, 40.56875
1099.013, 40.63045
1099.495, 39.87593
1099.977, 38.82562
1100.459, 38.16832
1100.942, 38.19678
1101.424, 38.01648
1101.906, 37.55373
1102.388, 37.12147
1102.870, 36.99993
1103.352, 37.00034
1103.834, 36.69903
1104.316, 36.20716
1104.798, 35.84583
1105.281, 35.96697
1105.763, 35.85987
1106.245, 35.31704
1106.727, 34.69825
1107.209, 34.46094
1107.691, 34.50303
1108.173, 34.41882
1108.655, 34.18752
1109.138, 33.90296
1109.620, 33.59769
1110.102, 33.26919
1110.584, 32.86692
1111.066, 32.45926
1111.548, 32.18134
1112.030, 32.02997
1112.512, 31.97997
1112.995, 32.04472
1113.477, 32.07960
1113.959, 31.92529
1114.441, 31.71128
1114.923, 31.56966
1115.405, 31.49937
1115.887, 31.27978
1116.369, 30.86913
1116.851, 30.53974
1117.333, 30.41191
1117.816, 30.35807
1118.298, 30.20948
1118.780, 30.02433
1119.262, 29.88860
1119.744, 29.83720
1120.226, 29.78858
1120.708, 29.74135
1121.190, 29.69308
1121.673, 29.64196
1122.155, 29.58870
1122.637, 29.58299
1123.119, 29.57544
1123.601, 29.42944
1124.083, 28.89106
1124.565, 28.49825
1125.047, 28.39528
1125.530, 28.37148
1126.012, 28.21685
1126.494, 27.96416
1126.976, 27.80237
1127.458, 27.72822
1127.940, 27.66140
1128.422, 27.62814
1128.904, 27.50756
1129.386, 27.15389
1129.869, 26.73419
1130.351, 26.51410
1130.833, 26.49054
1131.315, 26.52924
1131.797, 26.62471
1132.279, 26.59896
1132.761, 26.16938
1133.243, 25.69210
1133.725, 25.48856
1134.208, 25.48578
1134.690, 25.23166
1135.172, 24.67182
1135.654, 24.28603
1136.136, 24.22407
1136.618, 24.21796
1137.100, 23.92290
1137.582, 23.55170
1138.065, 23.37097
1138.547, 23.45649
1139.029, 23.34870
1139.511, 22.97443
1139.993, 22.63793
1140.475, 22.45856
1140.957, 22.38229
1141.439, 22.36351
1141.922, 22.37222
1142.404, 22.35399
1142.886, 22.27974
1143.368, 22.22572
1143.850, 22.22047
1144.332, 22.18728
1144.814, 22.05637
1145.296, 21.87596
1145.778, 21.82330
1146.260, 21.82912
1146.743, 21.68899
1147.225, 21.08954
1147.707, 20.67091
1148.189, 20.56083
1148.671, 20.59061
1149.153, 20.67329
1149.635, 20.77314
1150.117, 20.65045
1150.600, 20.34219
1151.082, 20.13711
1151.564, 20.31879
1152.046, 20.46363
1152.528, 20.36488
1153.010, 20.19289
1153.492, 20.20279
1153.974, 20.37151
1154.457, 20.43459
1154.939, 20.36881
1155.421, 20.24707
1155.903, 20.00495
1156.385, 19.83413
1156.867, 19.95408
1157.349, 20.20201
1157.831, 20.15357
1158.313, 19.80091
1158.796, 19.73728
1159.278, 20.10030
1159.760, 20.43046
1160.242, 20.23334
1160.724, 19.92827
1161.206, 19.88703
1161.688, 20.07527
1162.170, 20.11799
1162.652, 19.99916
1163.135, 19.91297
1163.617, 19.92268
1164.099, 19.95175
1164.581, 19.94829
1165.063, 19.90344
1165.545, 19.78598
1166.027, 19.58346
1166.509, 19.45118
1166.992, 19.38832
1167.474, 19.40824
1167.956, 19.57261
1168.438, 19.72123
1168.920, 19.56745
1169.402, 19.29877
1169.884, 19.18971
1170.366, 19.35141
1170.849, 19.49703
1171.331, 19.63981
1171.813, 19.71903
1172.295, 19.66994
1172.777, 19.56744
1173.259, 19.48444
1173.741, 19.45137
1174.223, 19.53537
1174.705, 19.95765
1175.188, 20.10285
1175.670, 19.86053
1176.152, 19.61667
1176.634, 19.80542
1177.116, 20.12285
1177.598, 19.79752
1178.080, 19.07479
1178.562, 18.70675
1179.044, 19.30558
1179.527, 19.71901
1180.009, 19.82551
1180.491, 19.80049
1180.973, 19.81033
1181.455, 19.82048
1181.937, 19.72033
1182.419, 19.53533
1182.901, 19.40150
1183.384, 19.43174
1183.866, 19.43168
1184.348, 19.35413
1184.830, 19.26416
1185.312, 19.24739
1185.794, 19.28218
1186.276, 19.29881
1186.758, 19.29865
1187.240, 19.35441
1187.723, 19.60729
1188.205, 19.76192
1188.687, 19.70401
1189.169, 19.57572
1189.651, 19.63618
1190.133, 19.81874
1190.615, 19.90951
1191.097, 19.88023
1191.579, 19.84906
1192.062, 19.93394
1192.544, 19.93363
1193.026, 19.74314
1193.508, 19.47274
1193.990, 19.35930
1194.472, 19.37362
1194.954, 19.41559
1195.436, 19.46645
1195.919, 19.55150
1196.401, 19.81623
1196.883, 19.94980
1197.365, 19.76764
1197.847, 19.41020
1198.329, 19.24419
1198.811, 19.25998
1199.293, 19.46762
1199.776, 19.94523
1200.258, 20.25730
1200.740, 20.08988
1201.222, 19.80529
1201.704, 19.52790
1202.186, 19.30062
1202.668, 19.37140
1203.150, 19.66387
1203.632, 19.87228
1204.115, 19.88422
1204.597, 19.84684
1205.079, 19.75781
1205.561, 19.71298
1206.043, 19.79559
1206.525, 19.96637
1207.007, 20.02047
1207.489, 19.97376
1207.971, 19.88806
1208.454, 19.71752
1208.936, 19.65397
1209.418, 19.92624
1209.900, 20.19378
1210.382, 20.18038
1210.864, 19.95625
1211.346, 20.08530
1211.828, 20.48118
1212.311, 20.70999
1212.793, 20.38238
1213.275, 20.15887
1213.757, 20.45573
1214.239, 20.77853
1214.721, 20.68102
1215.203, 20.25242
1215.685, 20.22028
1216.167, 20.52450
1216.650, 20.84027
1217.132, 21.08592
1217.614, 21.20896
1218.096, 21.11417
1218.578, 20.97528
1219.060, 20.92627
1219.542, 20.96503
1220.024, 21.15377
1220.506, 21.44220
1220.989, 21.55383
1221.471, 21.07121
1221.953, 20.77008
1222.435, 20.95949
1222.917, 21.30561
1223.399, 21.46733
1223.881, 21.48929
1224.363, 21.62724
1224.846, 21.85695
1225.328, 21.97540
1225.810, 21.79267
1226.292, 21.59533
1226.774, 21.39783
1227.256, 21.29017
1227.738, 21.40899
1228.220, 21.70552
1228.703, 22.10708
1229.185, 22.55892
1229.667, 22.74068
1230.149, 22.26092
1230.631, 21.80255
1231.113, 21.44989
1231.595, 21.28094
1232.077, 21.52341
1232.559, 22.00126
1233.042, 22.19836
1233.524, 22.10927
1234.006, 22.00368
1234.488, 21.94853
1234.970, 21.95987
1235.452, 22.07245
1235.934, 22.19175
1236.416, 22.17224
1236.898, 22.06842
1237.381, 21.98878
1237.863, 21.94452
1238.345, 21.93616
1238.827, 21.99442
1239.309, 22.04116
1239.791, 22.05251
1240.273, 22.07386
1240.755, 22.20222
1241.238, 22.36968
1241.720, 22.43887
1242.202, 22.40594
1242.684, 22.38237
1243.166, 22.41543
1243.648, 22.39874
1244.130, 22.29169
1244.612, 22.18294
1245.094, 22.17330
1245.577, 22.24539
1246.059, 22.42962
1246.541, 22.70953
1247.023, 22.80326
1247.505, 22.65691
1247.987, 22.40356
1248.469, 22.01801
1248.951, 21.72260
1249.433, 21.90945
1249.916, 22.27666
1250.398, 22.47697
1250.880, 22.48220
1251.362, 22.48707
1251.844, 22.51333
1252.326, 22.46925
1252.808, 22.31624
1253.290, 22.16721
1253.773, 22.14310
1254.255, 22.18387
1254.737, 22.23836
1255.219, 22.30303
1255.701, 22.39802
1256.183, 22.53710
1256.665, 22.55742
1257.147, 22.39164
1257.630, 22.26978
1258.112, 22.56487
1258.594, 22.86368
1259.076, 22.69521
1259.558, 22.20686
1260.040, 22.08083
1260.522, 22.31352
1261.004, 22.56838
1261.486, 22.79006
1261.969, 22.89744
1262.451, 22.71906
1262.933, 22.51174
1263.415, 22.46310
1263.897, 22.51589
1264.379, 22.46261
1264.861, 22.32162
1265.343, 22.22877
1265.825, 22.21501
1266.308, 22.24120
1266.790, 22.36743
1267.272, 22.42623
1267.754, 22.29545
1268.236, 22.08295
1268.718, 22.10550
1269.200, 22.29277
1269.682, 22.37486
1270.165, 22.28696
1270.647, 22.23158
1271.129, 22.33072
1271.611, 22.43627
1272.093, 22.52263
1272.575, 22.56006
1273.057, 22.42701
1273.539, 22.21562
1274.021, 22.15844
1274.504, 22.31100
1274.986, 22.38804
1275.468, 22.29430
1275.950, 22.21633
1276.432, 22.21449
1276.914, 22.24270
1277.396, 22.20110
1277.878, 22.15560
1278.360, 22.22198
1278.843, 22.42149
1279.325, 22.60809
1279.807, 22.82140
1280.289, 22.79893
1280.771, 22.38201
1281.253, 21.98332
1281.735, 22.20809
1282.217, 22.64245
1282.700, 22.84556
1283.182, 22.78923
1283.664, 22.64066
1284.146, 22.37653
1284.628, 22.33531
1285.110, 22.66059
1285.592, 22.92954
1286.074, 22.65585
1286.557, 22.27523
1287.039, 22.18464
1287.521, 22.27414
1288.003, 22.00039
1288.485, 21.42035
1288.967, 21.26739
1289.449, 21.74500
1289.931, 22.27013
1290.413, 22.66942
1290.896, 22.78169
1291.378, 22.44793
1291.860, 21.88744
1292.342, 21.60830
1292.824, 21.57901
1293.306, 21.74896
1293.788, 22.12922
1294.270, 22.35665
1294.752, 22.09776
1295.235, 21.91831
1295.717, 21.99755
1296.199, 22.17747
1296.681, 22.21566
1297.163, 22.14623
1297.645, 21.97980
1298.127, 21.72012
1298.609, 21.63639
1299.092, 21.80974
1299.574, 22.00371
1300.056, 22.18997
1300.538, 22.29555
1301.020, 22.14216
1301.502, 21.92388
1301.984, 21.89223
1302.466, 22.04149
1302.948, 22.09367
1303.431, 22.03827
1303.913, 21.95590
1304.395, 21.86245
1304.877, 21.74559
##END=



