##NAMES=Fluorite
##RRUFFID=R050115
##IDEAL CHEMISTRY=CaF_2_
##LOCALITY=Isthak Valley Iskardu, N.A. Gilgit, Pakistan
##OWNER=RRUFF
##SOURCE=Syed Shah
##DESCRIPTION=Colorless fragment
##STATUS=The identification of this mineral has been confirmed by X-ray diffraction and chemical analysis
##URL=rruff.info/R050115
##MEASURED CHEMISTRY=CaF_2_
80.48071, 1254.076
80.96282, 1271.448
81.44494, 1277.045
81.92706, 1269.720
82.40917, 1260.757
82.89129, 1248.610
83.37341, 1238.054
83.85552, 1236.439
84.33764, 1256.530
84.81976, 1281.433
85.30187, 1297.564
85.78399, 1296.843
86.26611, 1296.133
86.74822, 1307.140
87.23034, 1328.869
87.71246, 1355.612
88.19457, 1388.091
88.67669, 1422.774
89.15881, 1453.932
89.64092, 1481.000
90.12304, 1502.663
90.60516, 1513.649
91.08727, 1512.964
91.56938, 1510.878
92.05150, 1518.869
92.53362, 1535.812
93.01573, 1555.356
93.49785, 1578.140
93.97997, 1602.033
94.46208, 1615.026
94.94420, 1611.952
95.42632, 1602.585
95.90843, 1611.024
96.39055, 1639.409
96.87267, 1672.292
97.35478, 1698.889
97.83690, 1719.645
98.31902, 1731.031
98.80113, 1726.482
99.28325, 1707.312
99.76537, 1710.655
100.2475, 1743.708
100.7296, 1790.127
101.2117, 1826.260
101.6938, 1844.032
102.1759, 1867.891
102.6581, 1906.069
103.1402, 1958.310
103.6223, 2024.974
104.1044, 2107.922
104.5865, 2204.785
105.0686, 2309.388
105.5508, 2419.411
106.0329, 2538.969
106.5150, 2667.173
106.9971, 2795.250
107.4792, 2945.180
107.9613, 3121.136
108.4435, 3325.526
108.9256, 3539.850
109.4077, 3760.122
109.8898, 3992.725
110.3719, 4238.245
110.8540, 4459.180
111.3362, 4727.394
111.8183, 5064.557
112.3004, 5480.179
112.7825, 5942.743
113.2646, 6455.809
113.7467, 7015.673
114.2289, 7608.516
114.7110, 8219.040
115.1931, 8869.457
115.6752, 9581.017
116.1573, 10357.75
116.6394, 11190.46
117.1216, 12064.09
117.6037, 12983.26
118.0858, 13981.67
118.5679, 15038.39
119.0500, 16194.44
119.5321, 17500.53
120.0143, 18962.91
120.4964, 20591.33
120.9785, 22397.63
121.4606, 24384.29
121.9427, 26542.95
122.4248, 28887.41
122.9070, 31390.79
123.3891, 33959.98
123.8712, 36592.05
124.3533, 39248.11
124.8354, 41866.63
125.3175, 44437.80
125.7996, 46970.46
126.2818, 49487.84
126.7639, 52008.18
127.2460, 54450.32
127.7281, 56776.41
128.2102, 59012.91
128.6924, 61254.36
129.1745, 63497.01
129.6566, 65770.23
130.1387, 68174.72
130.6208, 70708.22
131.1029, 73309.18
131.5850, 75961.23
132.0672, 78675.63
132.5493, 81353.86
133.0314, 84051.23
133.5135, 86760.09
133.9956, 89185.94
134.4777, 91291.80
134.9599, 93133.01
135.4420, 94785.41
135.9241, 96260.30
136.4062, 97477.60
136.8883, 98343.69
137.3704, 98794.72
137.8526, 99189.26
138.3347, 99556.38
138.8168, 99890.70
139.2989, 100142.7
139.7810, 100224.5
140.2631, 100363.3
140.7453, 100751.8
141.2274, 101440.9
141.7095, 102261.6
142.1916, 103175.0
142.6737, 104190.8
143.1558, 105334.7
143.6380, 106684.2
144.1201, 108126.0
144.6022, 109535.8
145.0843, 110775.4
145.5664, 111114.9
146.0485, 111506.8
146.5307, 111995.6
147.0128, 112499.0
147.4949, 113066.3
147.9770, 113650.2
148.4591, 114107.8
148.9412, 114425.8
149.4234, 114642.3
149.9055, 114771.2
150.3876, 114829.5
150.8697, 114796.9
151.3518, 114671.6
151.8339, 114460.1
152.3161, 114184.0
152.7982, 113817.4
153.2803, 113406.4
153.7624, 112982.7
154.2445, 112573.0
154.7266, 112131.0
155.2087, 111633.0
155.6909, 111076.4
156.1730, 110530.4
156.6551, 109994.3
157.1372, 109480.8
157.6193, 108997.7
158.1014, 108518.8
158.5836, 108091.2
159.0657, 107737.9
159.5478, 107476.8
160.0299, 107242.0
160.5120, 107004.8
160.9941, 106772.8
161.4763, 106564.9
161.9584, 106413.8
162.4405, 106271.9
162.9226, 106107.7
163.4047, 105915.8
163.8868, 105698.5
164.3690, 105440.3
164.8511, 105151.3
165.3332, 104873.0
165.8153, 104613.8
166.2974, 104383.5
166.7795, 104193.1
167.2617, 104119.9
167.7438, 104036.8
168.2259, 103823.8
168.7080, 103487.0
169.1901, 103153.6
169.6722, 102923.2
170.1544, 102754.1
170.6365, 102576.8
171.1186, 102352.7
171.6007, 102109.4
172.0828, 101865.8
172.5649, 101621.0
173.0471, 101382.7
173.5292, 101152.1
174.0113, 100933.3
174.4934, 100740.7
174.9755, 100607.5
175.4576, 100500.6
175.9397, 100362.1
176.4219, 100167.4
176.9040, 99977.35
177.3861, 99868.26
177.8682, 99831.44
178.3503, 99812.98
178.8324, 99765.21
179.3146, 99706.95
179.7967, 99681.88
180.2788, 99694.15
180.7609, 99747.80
181.2430, 99861.52
181.7251, 100033.2
182.2073, 100229.0
182.6894, 100455.7
183.1715, 100694.1
183.6536, 100848.9
184.1357, 100848.0
184.6178, 100757.8
185.1000, 100756.4
185.5821, 100851.2
186.0642, 100988.3
186.5463, 101110.9
187.0284, 101221.3
187.5105, 101347.6
187.9927, 101494.1
188.4748, 101660.7
188.9569, 101880.4
189.4390, 102169.5
189.9211, 102457.5
190.4032, 102610.2
190.8854, 102621.5
191.3675, 102667.1
191.8496, 102891.2
192.3317, 103272.1
192.8138, 103496.5
193.2959, 103501.0
193.7781, 103400.0
194.2602, 103450.9
194.7423, 103675.4
195.2244, 103897.1
195.7065, 103994.2
196.1886, 103965.4
196.6708, 103933.7
197.1529, 103904.1
197.6350, 103892.0
198.1171, 103955.6
198.5992, 104110.1
199.0813, 104292.2
199.5634, 104437.2
200.0456, 104535.4
200.5277, 104694.2
201.0098, 104944.3
201.4919, 105277.3
201.9740, 105609.1
202.4561, 105932.2
202.9383, 106266.1
203.4204, 106632.1
203.9025, 107033.8
204.3846, 107447.1
204.8667, 107856.8
205.3488, 108262.6
205.8310, 108703.7
206.3131, 109173.3
206.7952, 109684.6
207.2773, 110267.5
207.7594, 110942.2
208.2415, 111626.4
208.7237, 112277.3
209.2058, 112879.1
209.6879, 113543.4
210.1700, 114284.1
210.6521, 115078.3
211.1342, 115878.1
211.6164, 116660.0
212.0985, 117489.0
212.5806, 118404.5
213.0627, 119426.8
213.5448, 120439.9
214.0269, 121418.7
214.5091, 122400.9
214.9912, 123507.5
215.4733, 124762.4
215.9554, 126070.9
216.4375, 127378.4
216.9196, 128623.0
217.4018, 129969.6
217.8839, 131457.1
218.3660, 133049.6
218.8481, 134658.3
219.3302, 136280.7
219.8123, 137902.2
220.2945, 139482.6
220.7766, 140966.0
221.2587, 142539.8
221.7408, 144233.2
222.2229, 146051.2
222.7050, 147842.1
223.1871, 149601.3
223.6693, 151358.7
224.1514, 153172.0
224.6335, 155068.4
225.1156, 156942.5
225.5977, 158807.5
226.0798, 160647.5
226.5620, 162474.8
227.0441, 164285.6
227.5262, 166065.9
228.0083, 167844.0
228.4904, 169704.8
228.9725, 171384.4
229.4547, 172796.8
229.9368, 173911.0
230.4189, 175003.0
230.9010, 176147.8
231.3831, 177226.0
231.8652, 178082.5
232.3474, 178705.3
232.8295, 179138.2
233.3116, 179379.7
233.7937, 179413.4
234.2758, 179328.6
234.7579, 179150.7
235.2401, 178835.2
235.7222, 178293.6
236.2043, 177444.7
236.6864, 176490.7
237.1685, 175491.8
237.6507, 174437.7
238.1328, 173367.3
238.6149, 172295.2
239.0970, 171202.7
239.5791, 170048.7
240.0612, 168838.8
240.5434, 167558.1
241.0255, 166205.1
241.5076, 164729.4
241.9897, 163284.6
242.4718, 161879.0
242.9539, 160506.9
243.4360, 159149.1
243.9182, 157811.2
244.4003, 156483.9
244.8824, 155148.7
245.3645, 153777.2
245.8466, 152494.5
246.3287, 151316.1
246.8109, 150231.9
247.2930, 149197.5
247.7751, 148234.3
248.2572, 147307.7
248.7393, 146399.2
249.2214, 145523.6
249.7036, 144650.9
250.1857, 143771.4
250.6678, 142894.0
251.1499, 142033.1
251.6320, 141208.3
252.1141, 140365.9
252.5963, 139467.7
253.0784, 138457.5
253.5605, 137501.8
254.0426, 136626.0
254.5247, 135825.6
255.0068, 135002.3
255.4890, 134164.0
255.9711, 133291.0
256.4532, 132337.1
256.9353, 131220.0
257.4174, 130221.0
257.8995, 129402.7
258.3817, 128756.6
258.8638, 128051.4
259.3459, 127269.6
259.8280, 126453.0
260.3101, 125621.1
260.7922, 124775.3
261.2744, 123920.4
261.7565, 123056.6
262.2386, 122174.8
262.7207, 121381.9
263.2028, 120699.9
263.6849, 120056.7
264.1671, 119366.8
264.6492, 118621.1
265.1313, 117860.7
265.6134, 117097.2
266.0955, 116331.1
266.5776, 115600.4
267.0598, 114924.1
267.5419, 114265.3
268.0240, 113557.2
268.5061, 112772.8
268.9882, 112068.9
269.4703, 111522.6
269.9525, 111130.8
270.4346, 110642.1
270.9167, 110038.4
271.3988, 109365.9
271.8809, 108663.4
272.3630, 107926.4
272.8452, 107203.0
273.3273, 106514.0
273.8094, 105864.7
274.2915, 105213.6
274.7736, 104555.6
275.2557, 103910.8
275.7379, 103313.8
276.2200, 102766.0
276.7021, 102254.4
277.1842, 101776.9
277.6663, 101336.4
278.1484, 100909.1
278.6305, 100491.2
279.1126, 100096.8
279.5948, 99763.52
280.0769, 99494.83
280.5590, 99221.53
281.0411, 98912.72
281.5232, 98570.06
282.0053, 98244.60
282.4875, 97941.37
282.9696, 97632.01
283.4517, 97251.32
283.9338, 96799.64
284.4159, 96403.28
284.8980, 96143.16
285.3802, 95995.05
285.8623, 95825.38
286.3444, 95632.41
286.8265, 95424.73
287.3086, 95218.45
287.7907, 95012.46
288.2729, 94783.37
288.7550, 94527.57
289.2371, 94243.49
289.7192, 93905.55
290.2013, 93502.62
290.6834, 93109.77
291.1656, 92836.48
291.6477, 92666.59
292.1298, 92517.95
292.6119, 92338.21
293.0940, 92151.52
293.5761, 92022.61
294.0583, 91957.62
294.5404, 91922.60
295.0225, 91883.94
295.5046, 91842.74
295.9867, 91806.32
296.4688, 91794.40
296.9510, 91784.69
297.4331, 91734.22
297.9152, 91639.06
298.3973, 91520.23
298.8794, 91389.98
299.3615, 91252.63
299.8437, 91115.23
300.3258, 90947.07
300.8079, 90796.23
301.2900, 90734.64
301.7721, 90772.58
302.2542, 90849.05
302.7364, 90911.45
303.2185, 90972.37
303.7006, 91058.80
304.1827, 91171.62
304.6648, 91321.36
305.1469, 91528.45
305.6291, 91797.37
306.1112, 92078.38
306.5933, 92372.36
307.0754, 92650.62
307.5575, 92859.44
308.0396, 92980.06
308.5218, 93021.15
309.0039, 92956.53
309.4860, 92778.08
309.9681, 92616.77
310.4502, 92547.91
310.9323, 92546.17
311.4145, 92575.80
311.8966, 92613.03
312.3787, 92686.11
312.8608, 92804.77
313.3429, 92968.89
313.8250, 93192.63
314.3072, 93551.92
314.7893, 93953.16
315.2714, 94288.91
315.7535, 94348.29
316.2356, 94484.58
316.7177, 94901.52
317.1999, 95627.70
317.6820, 96284.13
318.1641, 96735.65
318.6462, 97075.02
319.1283, 97387.76
319.6104, 97719.42
320.0926, 98004.13
320.5747, 98254.71
321.0568, 98477.38
321.5389, 98547.74
322.0210, 98389.60
322.5031, 98099.07
322.9852, 97761.18
323.4673, 97320.74
323.9495, 96904.15
324.4316, 96532.34
324.9137, 96206.80
325.3958, 95910.55
325.8779, 95634.11
326.3600, 95395.11
326.8422, 95207.27
327.3243, 95090.89
327.8064, 95000.59
328.2885, 94935.57
328.7706, 94894.05
329.2527, 94855.38
329.7349, 94796.23
330.2170, 94758.87
330.6991, 94773.09
331.1812, 94855.19
331.6633, 94956.41
332.1454, 95074.74
332.6276, 95208.31
333.1097, 95351.87
333.5918, 95518.46
334.0739, 95672.70
334.5560, 95791.59
335.0381, 95868.23
335.5203, 95928.76
336.0024, 95963.00
336.4845, 95987.42
336.9666, 96072.00
337.4487, 96238.31
337.9308, 96406.31
338.4130, 96509.09
338.8951, 96539.23
339.3772, 96611.07
339.8593, 96746.53
340.3414, 96920.27
340.8235, 97072.33
341.3057, 97197.64
341.7878, 97329.25
342.2699, 97498.18
342.7520, 97698.11
343.2341, 97840.85
343.7162, 97898.02
344.1984, 97933.34
344.6805, 98083.48
345.1626, 98339.80
345.6447, 98562.50
346.1268, 98646.98
346.6089, 98633.71
347.0911, 98634.92
347.5732, 98659.73
348.0553, 98700.72
348.5374, 98746.34
349.0195, 98800.81
349.5016, 98877.88
349.9838, 99042.00
350.4659, 99216.46
350.9480, 99256.43
351.4301, 99138.03
351.9122, 99016.20
352.3943, 99037.65
352.8765, 99160.95
353.3586, 99299.48
353.8407, 99423.38
354.3228, 99537.21
354.8049, 99648.01
355.2870, 99756.21
355.7692, 99838.00
356.2513, 99830.39
356.7334, 99797.35
357.2155, 99823.45
357.6976, 100009.6
358.1797, 100203.3
358.6619, 100328.8
359.1440, 100384.1
359.6261, 100404.3
360.1082, 100340.6
360.5903, 100275.9
361.0724, 100285.3
361.5546, 100488.0
362.0367, 100665.1
362.5188, 100751.5
363.0009, 100752.5
363.4830, 100731.9
363.9651, 100664.9
364.4473, 100603.3
364.9294, 100579.6
365.4115, 100671.6
365.8936, 100716.7
366.3757, 100689.1
366.8578, 100600.4
367.3399, 100504.9
367.8221, 100390.5
368.3042, 100283.2
368.7863, 100195.6
369.2684, 100143.8
369.7505, 100088.8
370.2326, 100035.6
370.7148, 99981.48
371.1969, 99916.63
371.6790, 99836.05
372.1611, 99757.67
372.6432, 99684.52
373.1253, 99610.38
373.6075, 99575.74
374.0896, 99601.13
374.5717, 99641.45
375.0538, 99610.05
375.5359, 99487.95
376.0180, 99374.62
376.5002, 99312.18
376.9823, 99296.82
377.4644, 99261.41
377.9465, 99200.94
378.4286, 99129.91
378.9107, 99064.61
379.3929, 99003.85
379.8750, 98946.84
380.3571, 98904.56
380.8392, 98863.79
381.3213, 98781.70
381.8034, 98658.39
382.2856, 98518.45
382.7677, 98375.70
383.2498, 98235.32
383.7319, 98104.55
384.2140, 97973.83
384.6961, 97869.41
385.1783, 97844.52
385.6604, 97890.14
386.1425, 97928.89
386.6246, 97918.86
387.1067, 97868.69
387.5888, 97782.14
388.0710, 97627.56
388.5531, 97489.76
389.0352, 97429.64
389.5173, 97434.79
389.9994, 97468.75
390.4815, 97538.56
390.9637, 97614.57
391.4458, 97675.55
391.9279, 97713.02
392.4100, 97745.60
392.8921, 97766.04
393.3742, 97784.96
393.8564, 97821.80
394.3385, 97950.13
394.8206, 98033.36
395.3027, 97991.66
395.7848, 97765.15
396.2669, 97627.43
396.7491, 97665.77
397.2312, 97782.65
397.7133, 97866.94
398.1954, 97918.73
398.6775, 97940.02
399.1596, 97922.23
399.6418, 97865.92
400.1239, 97830.84
400.6060, 97809.61
401.0881, 97823.70
401.5702, 97898.48
402.0523, 98056.34
402.5345, 98214.77
403.0166, 98369.06
403.4987, 98513.48
403.9808, 98614.02
404.4629, 98651.80
404.9450, 98697.26
405.4272, 98796.94
405.9093, 98949.74
406.3914, 99115.53
406.8735, 99291.76
407.3556, 99468.91
407.8377, 99644.23
408.3199, 99815.49
408.8020, 99937.28
409.2841, 99961.33
409.7662, 99918.16
410.2483, 99899.13
410.7304, 99914.63
411.2126, 99931.58
411.6946, 99900.34
412.1768, 99842.59
412.6589, 99811.74
413.1410, 99860.71
413.6231, 99935.08
414.1052, 99980.70
414.5873, 99997.98
415.0695, 99998.77
415.5516, 99952.94
416.0337, 99909.33
416.5158, 99925.57
416.9979, 100118.4
417.4800, 100278.6
417.9622, 100270.0
418.4443, 100128.7
418.9264, 100030.3
419.4085, 100043.6
419.8906, 100112.3
420.3727, 100205.9
420.8549, 100347.5
421.3370, 100467.9
421.8191, 100553.7
422.3012, 100608.1
422.7833, 100636.7
423.2654, 100604.9
423.7476, 100578.3
424.2297, 100579.3
424.7118, 100619.9
425.1939, 100637.6
425.6760, 100604.8
426.1581, 100572.0
426.6403, 100612.4
427.1224, 100765.0
427.6045, 100893.7
428.0866, 100958.4
428.5687, 100968.4
429.0508, 101010.0
429.5330, 101092.4
430.0151, 101185.9
430.4972, 101268.9
430.9793, 101341.4
431.4614, 101404.0
431.9435, 101453.8
432.4257, 101494.2
432.9078, 101520.3
433.3899, 101533.0
433.8720, 101569.5
434.3541, 101651.0
434.8362, 101771.9
435.3184, 101928.2
435.8005, 102124.6
436.2826, 102333.1
436.7647, 102538.4
437.2468, 102737.3
437.7289, 102918.4
438.2111, 103052.5
438.6932, 103188.3
439.1753, 103376.1
439.6574, 103621.5
440.1395, 103855.3
440.6216, 104046.3
441.1038, 104207.5
441.5859, 104350.0
442.0680, 104423.7
442.5501, 104533.9
443.0322, 104722.2
443.5143, 104977.3
443.9965, 105234.2
444.4786, 105468.4
444.9607, 105707.8
445.4428, 105972.7
445.9249, 106309.9
446.4070, 106587.9
446.8892, 106776.5
447.3713, 106914.4
447.8534, 107072.9
448.3355, 107240.0
448.8176, 107457.6
449.2997, 107760.7
449.7819, 108158.0
450.2640, 108516.5
450.7461, 108838.0
451.2282, 109127.9
451.7103, 109377.9
452.1924, 109589.1
452.6746, 109804.2
453.1567, 110023.7
453.6388, 110262.3
454.1209, 110581.5
454.6030, 110981.5
455.0851, 111370.9
455.5673, 111670.5
456.0494, 111909.6
456.5315, 112151.7
457.0136, 112389.2
457.4957, 112675.0
457.9778, 113142.0
458.4599, 113709.7
458.9420, 114186.4
459.4242, 114358.9
459.9063, 114476.6
460.3884, 114756.5
460.8705, 115234.0
461.3526, 115670.3
461.8347, 115886.3
462.3169, 116026.3
462.7990, 116240.3
463.2811, 116609.6
463.7632, 117009.5
464.2453, 117462.3
464.7274, 117950.3
465.2096, 118319.4
465.6917, 118384.1
466.1738, 118471.0
466.6559, 118743.9
467.1380, 119362.1
467.6201, 119853.1
468.1023, 120169.5
468.5844, 120384.1
469.0665, 120631.7
469.5486, 120916.6
470.0307, 121210.7
470.5128, 121518.4
470.9950, 121834.9
471.4771, 122076.1
471.9592, 122232.3
472.4413, 122354.1
472.9234, 122482.6
473.4055, 122620.1
473.8877, 122780.9
474.3698, 122985.9
474.8519, 123199.6
475.3340, 123365.6
475.8161, 123488.5
476.2982, 123586.5
476.7804, 123649.2
477.2625, 123705.6
477.7446, 123803.4
478.2267, 123965.1
478.7088, 124103.0
479.1909, 124131.9
479.6731, 124102.2
480.1552, 124094.6
480.6373, 124171.9
481.1194, 124243.9
481.6015, 124269.9
482.0836, 124246.9
482.5658, 124207.3
483.0479, 124149.8
483.5300, 124081.2
484.0121, 124006.2
484.4942, 123930.4
484.9763, 123843.6
485.4585, 123755.4
485.9406, 123658.9
486.4227, 123528.3
486.9048, 123349.8
487.3869, 123174.6
487.8690, 123022.5
488.3512, 122895.6
488.8333, 122796.0
489.3154, 122739.4
489.7975, 122669.8
490.2796, 122506.9
490.7617, 122255.3
491.2439, 122000.3
491.7260, 121748.2
492.2081, 121517.3
492.6902, 121367.4
493.1723, 121289.5
493.6544, 121177.0
494.1366, 120884.4
494.6187, 120538.9
495.1008, 120339.8
495.5829, 120356.5
496.0650, 120391.3
496.5471, 120331.8
497.0293, 120193.8
497.5114, 120004.3
497.9935, 119711.2
498.4756, 119422.0
498.9577, 119196.1
499.4398, 119034.8
499.9220, 118845.6
500.4041, 118545.0
500.8862, 118246.4
501.3683, 118034.9
501.8504, 118019.3
502.3325, 117916.9
502.8146, 117684.5
503.2968, 117366.2
503.7789, 117074.3
504.2610, 116808.6
504.7431, 116563.8
505.2252, 116352.5
505.7073, 116174.8
506.1895, 115954.5
506.6716, 115681.3
507.1537, 115401.5
507.6358, 115172.4
508.1179, 114985.9
508.6000, 114784.6
509.0822, 114543.6
509.5643, 114292.1
510.0464, 114081.5
510.5285, 113902.1
511.0106, 113703.3
511.4927, 113450.9
511.9749, 113164.9
512.4570, 112848.1
512.9391, 112489.0
513.4212, 112174.0
513.9033, 111997.6
514.3854, 111878.0
514.8676, 111711.4
515.3497, 111407.8
515.8318, 111116.6
516.3139, 110883.6
516.7960, 110708.4
517.2781, 110533.9
517.7603, 110375.4
518.2424, 110200.1
518.7245, 109994.1
519.2066, 109768.5
519.6887, 109481.8
520.1708, 109102.0
520.6530, 108690.7
521.1351, 108364.0
521.6172, 108135.6
522.0993, 107898.4
522.5814, 107619.1
523.0635, 107303.0
523.5457, 106971.7
524.0278, 106623.8
524.5099, 106276.6
524.9920, 105956.6
525.4741, 105653.2
525.9562, 105342.0
526.4384, 105013.5
526.9205, 104703.8
527.4026, 104465.6
527.8847, 104273.2
528.3668, 104064.2
528.8489, 103819.3
529.3311, 103546.7
529.8132, 103240.2
530.2953, 102897.3
530.7774, 102572.5
531.2595, 102305.9
531.7416, 102047.2
532.2238, 101762.5
532.7059, 101395.4
533.1880, 101076.5
533.6701, 100836.3
534.1522, 100636.0
534.6343, 100394.0
535.1165, 100092.6
535.5986, 99789.31
536.0807, 99503.20
536.5628, 99231.54
537.0449, 98988.20
537.5270, 98780.10
538.0092, 98554.52
538.4913, 98225.23
538.9734, 97825.83
539.4555, 97499.11
539.9376, 97288.96
540.4197, 97135.93
540.9019, 96971.66
541.3840, 96799.37
541.8661, 96628.03
542.3482, 96503.89
542.8303, 96352.63
543.3124, 96076.56
543.7946, 95661.96
544.2767, 95311.03
544.7588, 95161.18
545.2409, 95074.51
545.7230, 94937.82
546.2051, 94699.99
546.6873, 94443.23
547.1694, 94152.10
547.6515, 93847.20
548.1336, 93583.55
548.6157, 93396.01
549.0978, 93195.85
549.5800, 92956.91
550.0621, 92680.71
550.5442, 92383.11
551.0263, 92068.37
551.5084, 91731.09
551.9905, 91331.95
552.4727, 90892.80
552.9548, 90552.20
553.4369, 90360.41
553.9190, 90234.80
554.4011, 90058.62
554.8832, 89847.17
555.3654, 89646.80
555.8475, 89473.27
556.3296, 89325.39
556.8117, 89211.77
557.2938, 89130.23
557.7759, 89028.29
558.2581, 88859.42
558.7402, 88665.65
559.2223, 88479.72
559.7044, 88264.70
560.1865, 88108.78
560.6686, 88095.93
561.1508, 88135.09
561.6329, 88034.77
562.1150, 87708.03
562.5971, 87387.09
563.0792, 87153.81
563.5613, 87004.84
564.0435, 86809.47
564.5256, 86563.85
565.0077, 86296.75
565.4898, 86008.49
565.9719, 85711.70
566.4540, 85492.88
566.9362, 85388.02
567.4183, 85305.27
567.9004, 85111.27
568.3824, 84837.91
568.8646, 84584.16
569.3467, 84442.35
569.8288, 84302.60
570.3109, 84042.96
570.7930, 83676.17
571.2751, 83349.44
571.7573, 83170.59
572.2394, 83033.70
572.7215, 82872.08
573.2036, 82665.34
573.6857, 82454.14
574.1678, 82212.86
574.6500, 81981.64
575.1321, 81832.36
575.6142, 81836.34
576.0963, 81773.25
576.5784, 81582.90
577.0605, 81284.98
577.5427, 80978.31
578.0248, 80655.99
578.5069, 80348.48
578.9890, 80066.48
579.4711, 79813.63
579.9532, 79615.18
580.4354, 79478.87
580.9175, 79358.99
581.3996, 79219.29
581.8817, 79061.21
582.3638, 78887.27
582.8459, 78670.66
583.3281, 78465.96
583.8102, 78340.54
584.2923, 78264.69
584.7744, 78134.95
585.2565, 77858.15
585.7386, 77573.27
586.2208, 77343.91
586.7029, 77188.13
587.1850, 77035.41
587.6671, 76882.96
588.1492, 76737.70
588.6313, 76608.27
589.1135, 76499.16
589.5956, 76382.13
590.0777, 76244.98
590.5598, 76104.93
591.0419, 76009.16
591.5240, 75955.81
592.0062, 75893.70
592.4883, 75788.13
592.9704, 75658.65
593.4525, 75539.30
593.9346, 75430.27
594.4167, 75344.99
594.8989, 75331.18
595.3810, 75328.55
595.8631, 75269.48
596.3452, 75121.05
596.8273, 74960.79
597.3094, 74804.24
597.7916, 74657.58
598.2737, 74527.70
598.7558, 74397.84
599.2379, 74307.19
599.7200, 74285.13
600.2021, 74317.39
600.6843, 74283.32
601.1664, 74149.23
601.6485, 74028.80
602.1306, 74008.64
602.6127, 74088.80
603.0948, 74091.20
603.5770, 74000.45
604.0591, 73893.44
604.5412, 73856.72
605.0233, 73874.93
605.5054, 73905.20
605.9875, 73940.53
606.4697, 73975.22
606.9518, 74005.55
607.4339, 74029.68
607.9160, 74044.64
608.3981, 74044.55
608.8802, 74034.85
609.3624, 73997.79
609.8445, 73923.65
610.3266, 73919.13
610.8087, 74064.13
611.2908, 74227.38
611.7729, 74327.15
612.2551, 74332.12
612.7372, 74361.42
613.2193, 74430.22
613.7014, 74513.70
614.1835, 74576.38
614.6656, 74619.48
615.1478, 74644.38
615.6299, 74639.80
616.1120, 74629.63
616.5941, 74650.34
617.0762, 74704.03
617.5583, 74804.09
618.0405, 75003.61
618.5226, 75226.73
619.0047, 75385.05
619.4868, 75456.85
619.9689, 75561.84
620.4510, 75768.99
620.9332, 76022.45
621.4153, 76269.48
621.8974, 76527.03
622.3795, 76743.79
622.8616, 76897.20
623.3438, 77015.25
623.8259, 77153.15
624.3080, 77312.33
624.7901, 77493.79
625.2722, 77701.50
625.7543, 77933.65
626.2365, 78174.56
626.7186, 78422.13
627.2007, 78691.82
627.6828, 79020.91
628.1649, 79373.69
628.6470, 79673.16
629.1292, 79900.25
629.6113, 80117.44
630.0934, 80359.03
630.5755, 80620.95
631.0576, 80901.68
631.5397, 81206.54
632.0219, 81524.66
632.5040, 81850.56
632.9861, 82187.43
633.4682, 82541.45
633.9503, 82936.91
634.4324, 83320.89
634.9146, 83676.85
635.3967, 84007.51
635.8788, 84376.67
636.3609, 84787.84
636.8430, 85212.71
637.3251, 85615.79
637.8073, 86006.60
638.2894, 86446.52
638.7715, 86946.46
639.2536, 87479.50
639.7357, 88081.42
640.2178, 88687.57
640.7000, 89192.70
641.1821, 89475.17
641.6642, 89734.41
642.1463, 90092.47
642.6284, 90509.23
643.1105, 90875.91
643.5927, 91132.27
644.0748, 91367.28
644.5569, 91607.16
645.0390, 91856.26
645.5211, 92105.80
646.0032, 92363.98
646.4854, 92607.84
646.9675, 92819.17
647.4496, 93000.96
647.9317, 93154.16
648.4138, 93276.57
648.8959, 93381.02
649.3781, 93470.42
649.8602, 93551.28
650.3423, 93646.44
650.8244, 93782.79
651.3065, 93906.53
651.7886, 93969.45
652.2708, 93984.68
652.7529, 93991.93
653.2350, 94022.92
653.7171, 94031.27
654.1992, 93991.85
654.6813, 93901.38
655.1635, 93815.27
655.6456, 93734.36
656.1277, 93660.30
656.6098, 93598.82
657.0919, 93554.35
657.5740, 93504.39
658.0562, 93454.83
658.5382, 93386.00
659.0203, 93267.13
659.5024, 93107.17
659.9846, 92938.41
660.4667, 92771.77
660.9488, 92594.57
661.4309, 92375.09
661.9130, 92135.88
662.3951, 91933.91
662.8773, 91855.04
663.3594, 91761.66
663.8415, 91580.47
664.3236, 91310.28
664.8057, 91059.36
665.2878, 90851.97
665.7700, 90647.41
666.2521, 90432.38
666.7342, 90211.83
667.2163, 89946.52
667.6984, 89625.45
668.1805, 89288.42
668.6627, 88980.91
669.1448, 88693.58
669.6269, 88372.87
670.1090, 87982.59
670.5911, 87613.32
671.0732, 87418.88
671.5554, 87314.02
672.0375, 87119.51
672.5196, 86680.68
673.0017, 86213.80
673.4838, 85802.70
673.9659, 85448.13
674.4481, 85116.63
674.9302, 84800.13
675.4123, 84511.49
675.8944, 84254.27
676.3765, 84028.41
676.8586, 83832.07
677.3408, 83678.47
677.8229, 83513.27
678.3050, 83265.07
678.7871, 82954.02
679.2692, 82698.66
679.7513, 82520.30
680.2335, 82355.13
680.7156, 82113.19
681.1977, 81838.47
681.6798, 81610.66
682.1619, 81507.09
682.6440, 81393.84
683.1262, 81186.63
683.6083, 80923.77
684.0904, 80700.18
684.5725, 80595.15
685.0546, 80467.75
685.5367, 80271.18
686.0189, 80016.58
686.5010, 79824.63
686.9831, 79709.86
687.4652, 79605.52
687.9473, 79464.34
688.4294, 79294.36
688.9116, 79148.37
689.3937, 79027.13
689.8758, 78925.80
690.3579, 78866.41
690.8400, 78812.93
691.3221, 78710.46
691.8043, 78527.32
692.2864, 78337.18
692.7685, 78156.49
693.2506, 77990.41
693.7327, 77846.41
694.2148, 77782.64
694.6970, 77664.29
695.1791, 77448.34
695.6612, 77175.09
696.1433, 76974.39
696.6254, 76862.43
697.1075, 76747.00
697.5897, 76584.56
698.0718, 76389.98
698.5539, 76201.95
699.0360, 76020.04
699.5181, 75850.46
700.0002, 75720.84
700.4824, 75593.26
700.9645, 75424.63
701.4466, 75203.30
701.9287, 74978.86
702.4108, 74800.73
702.8929, 74607.44
703.3751, 74343.24
703.8572, 73936.99
704.3393, 73579.50
704.8214, 73297.85
705.3035, 73043.65
705.7856, 72751.30
706.2678, 72421.84
706.7499, 72067.44
707.2320, 71685.09
707.7141, 71299.06
708.1962, 70966.37
708.6783, 70673.95
709.1605, 70382.68
709.6426, 70048.40
710.1247, 69724.09
710.6068, 69474.18
711.0889, 69283.81
711.5710, 69051.59
712.0532, 68696.70
712.5353, 68339.88
713.0174, 68029.61
713.4995, 67771.02
713.9816, 67543.27
714.4637, 67373.12
714.9459, 67177.36
715.4280, 66862.80
715.9101, 66447.08
716.3922, 66068.03
716.8743, 65745.78
717.3564, 65438.61
717.8386, 65119.25
718.3207, 64782.25
718.8028, 64419.07
719.2849, 64002.56
719.7670, 63604.57
720.2491, 63305.16
720.7313, 63043.33
721.2134, 62706.12
721.6955, 62224.41
722.1776, 61736.40
722.6597, 61272.82
723.1418, 60822.52
723.6240, 60335.52
724.1061, 59806.23
724.5882, 59280.16
725.0703, 58769.71
725.5524, 58277.07
726.0345, 57808.21
726.5167, 57361.69
726.9988, 56915.70
727.4809, 56446.86
727.9630, 55977.51
728.4451, 55532.91
728.9272, 55123.09
729.4094, 54701.75
729.8915, 54267.46
730.3736, 53811.39
730.8557, 53325.30
731.3378, 52763.00
731.8199, 52290.02
732.3021, 51939.64
732.7842, 51628.30
733.2663, 51229.77
733.7484, 50752.65
734.2305, 50334.51
734.7126, 50026.12
735.1948, 49754.38
735.6769, 49436.36
736.1590, 49084.94
736.6411, 48735.61
737.1232, 48405.93
737.6053, 48072.71
738.0875, 47723.67
738.5696, 47363.13
739.0517, 46997.38
739.5338, 46620.27
740.0159, 46246.63
740.4980, 45871.25
740.9802, 45498.18
741.4623, 45205.85
741.9444, 45005.04
742.4265, 44775.20
742.9086, 44392.09
743.3907, 43933.06
743.8729, 43585.04
744.3550, 43355.03
744.8371, 43137.63
745.3192, 42859.17
745.8013, 42562.11
746.2834, 42287.27
746.7656, 42055.96
747.2477, 41798.69
747.7298, 41485.86
748.2119, 41156.10
748.6940, 40843.61
749.1761, 40544.27
749.6582, 40274.64
750.1403, 40045.59
750.6224, 39829.78
751.1046, 39591.16
751.5867, 39330.01
752.0688, 39054.71
752.5509, 38750.87
753.0330, 38455.48
753.5151, 38199.91
753.9973, 37976.62
754.4794, 37757.01
754.9615, 37542.31
755.4436, 37322.26
755.9257, 37094.30
756.4078, 36859.05
756.8900, 36626.08
757.3721, 36397.41
757.8542, 36168.09
758.3363, 35943.94
758.8184, 35716.88
759.3005, 35441.73
759.7827, 35123.64
760.2648, 34830.70
760.7469, 34644.56
761.2290, 34492.55
761.7111, 34288.28
762.1932, 34021.44
762.6754, 33767.65
763.1575, 33565.71
763.6396, 33380.28
764.1217, 33182.29
764.6038, 32956.94
765.0859, 32767.27
765.5681, 32630.64
766.0502, 32499.98
766.5323, 32324.26
767.0144, 32106.40
767.4965, 31905.40
767.9786, 31730.80
768.4608, 31564.11
768.9429, 31390.83
769.4250, 31211.41
769.9071, 31021.21
770.3892, 30798.85
770.8713, 30599.52
771.3535, 30474.85
771.8356, 30379.90
772.3177, 30231.15
772.7998, 29974.72
773.2819, 29767.11
773.7640, 29647.58
774.2462, 29576.63
774.7283, 29451.18
775.2104, 29273.42
775.6925, 29108.42
776.1746, 29002.93
776.6567, 28907.55
777.1389, 28739.41
777.6210, 28520.24
778.1031, 28328.34
778.5852, 28217.27
779.0673, 28126.33
779.5494, 28030.74
780.0316, 27929.11
780.5137, 27821.39
780.9958, 27702.49
781.4779, 27591.39
781.9600, 27507.07
782.4421, 27443.82
782.9243, 27328.70
783.4064, 27159.53
783.8885, 26985.88
784.3706, 26853.90
784.8527, 26740.49
785.3348, 26617.19
785.8170, 26482.05
786.2991, 26337.79
786.7812, 26176.97
787.2633, 26014.42
787.7454, 25864.79
788.2275, 25734.66
788.7097, 25596.71
789.1918, 25451.73
789.6739, 25298.98
790.1560, 25138.14
790.6381, 24970.75
791.1202, 24806.32
791.6024, 24650.76
792.0845, 24482.59
792.5666, 24249.51
793.0487, 23996.82
793.5308, 23803.61
794.0129, 23734.33
794.4951, 23650.52
794.9772, 23488.58
795.4593, 23287.96
795.9414, 23107.17
796.4235, 22951.61
796.9056, 22810.40
797.3878, 22683.04
797.8699, 22565.40
798.3520, 22455.13
798.8341, 22348.68
799.3162, 22226.62
799.7983, 22080.40
800.2805, 21919.00
800.7626, 21747.98
801.2447, 21568.90
801.7268, 21389.77
802.2089, 21210.89
802.6910, 21034.94
803.1732, 20862.89
803.6553, 20695.52
804.1374, 20530.61
804.6195, 20368.87
805.1016, 20212.20
805.5837, 20071.00
806.0659, 19933.32
806.5480, 19749.96
807.0301, 19526.75
807.5122, 19314.99
807.9943, 19156.36
808.4764, 19011.36
808.9586, 18839.82
809.4407, 18644.87
809.9228, 18466.68
810.4049, 18347.63
810.8870, 18217.31
811.3691, 18042.28
811.8513, 17822.21
812.3334, 17638.13
812.8155, 17496.90
813.2976, 17357.83
813.7797, 17184.58
814.2618, 16994.24
814.7440, 16831.99
815.2261, 16699.48
815.7082, 16567.63
816.1903, 16408.21
816.6724, 16248.54
817.1545, 16109.16
817.6367, 15995.66
818.1188, 15887.33
818.6009, 15786.93
819.0830, 15684.71
819.5651, 15573.24
820.0472, 15451.37
820.5294, 15336.47
821.0115, 15231.83
821.4936, 15121.79
821.9757, 14977.01
822.4578, 14821.05
822.9399, 14699.17
823.4221, 14625.65
823.9042, 14545.43
824.3863, 14429.22
824.8684, 14295.53
825.3505, 14161.84
825.8326, 14025.29
826.3148, 13895.24
826.7969, 13775.54
827.2790, 13656.55
827.7611, 13514.89
828.2432, 13358.47
828.7253, 13245.72
829.2075, 13194.53
829.6896, 13151.39
830.1717, 13059.75
830.6538, 12945.55
831.1359, 12843.50
831.6180, 12782.25
832.1002, 12702.06
832.5823, 12568.91
833.0644, 12419.91
833.5465, 12296.14
834.0286, 12203.13
834.5107, 12111.88
834.9929, 12020.04
835.4750, 11925.14
835.9571, 11817.27
836.4392, 11702.68
836.9213, 11604.23
837.4034, 11537.38
837.8855, 11471.59
838.3676, 11386.13
838.8497, 11288.90
839.3318, 11192.37
839.8140, 11097.38
840.2961, 11003.17
840.7782, 10906.96
841.2603, 10814.18
841.7424, 10738.30
842.2245, 10679.50
842.7067, 10613.13
843.1888, 10529.16
843.6709, 10442.07
844.1530, 10370.19
844.6351, 10308.73
845.1172, 10247.84
845.5994, 10185.29
846.0815, 10121.88
846.5636, 10061.97
847.0457, 9999.991
847.5278, 9921.012
848.0099, 9810.806
848.4921, 9733.324
848.9742, 9717.608
849.4563, 9721.363
849.9384, 9644.465
850.4205, 9508.969
850.9026, 9395.983
851.3848, 9352.239
851.8669, 9327.495
852.3490, 9296.868
852.8311, 9259.239
853.3132, 9211.726
853.7953, 9148.487
854.2775, 9082.229
854.7596, 9013.666
855.2417, 8943.700
855.7238, 8875.194
856.2059, 8808.098
856.6880, 8742.984
857.1702, 8680.154
857.6523, 8621.824
858.1344, 8573.325
858.6165, 8532.385
859.0986, 8491.792
859.5807, 8440.852
860.0629, 8398.690
860.5450, 8382.067
861.0271, 8377.765
861.5092, 8352.514
861.9913, 8300.123
862.4734, 8248.214
862.9556, 8202.779
863.4377, 8163.802
863.9198, 8134.610
864.4019, 8112.107
864.8840, 8083.973
865.3661, 8048.848
865.8483, 8001.824
866.3304, 7922.711
866.8125, 7827.682
867.2946, 7770.793
867.7767, 7787.286
868.2589, 7784.552
868.7410, 7735.073
869.2231, 7660.240
869.7052, 7623.014
870.1873, 7619.357
870.6694, 7600.058
871.1516, 7532.575
871.6337, 7453.850
872.1158, 7402.086
872.5979, 7370.555
873.0800, 7343.509
873.5621, 7319.213
874.0443, 7295.771
874.5264, 7278.874
875.0085, 7260.917
875.4906, 7217.176
875.9727, 7145.014
876.4548, 7075.966
876.9370, 7016.241
877.4191, 6969.960
877.9012, 6952.783
878.3833, 6954.611
878.8654, 6949.412
879.3475, 6917.104
879.8297, 6885.402
880.3118, 6871.873
880.7939, 6865.337
881.2760, 6837.196
881.7581, 6776.927
882.2402, 6726.427
882.7224, 6697.698
883.2045, 6679.624
883.6866, 6649.617
884.1687, 6610.498
884.6508, 6574.015
885.1329, 6548.235
885.6151, 6521.274
886.0972, 6483.336
886.5793, 6438.919
887.0614, 6397.482
887.5435, 6355.847
888.0256, 6325.157
888.5078, 6310.278
888.9899, 6303.497
889.4720, 6289.802
889.9541, 6270.009
890.4362, 6252.518
890.9183, 6243.839
891.4005, 6230.164
891.8826, 6186.989
892.3647, 6132.991
892.8468, 6097.996
893.3289, 6118.787
893.8110, 6121.821
894.2932, 6094.767
894.7753, 6050.384
895.2574, 6002.381
895.7395, 5950.252
896.2216, 5918.352
896.7037, 5915.583
897.1859, 5921.130
897.6680, 5908.064
898.1501, 5886.500
898.6322, 5875.431
899.1143, 5897.898
899.5964, 5899.281
900.0786, 5838.484
900.5607, 5765.397
901.0428, 5735.549
901.5249, 5760.528
902.0070, 5765.066
902.4891, 5739.320
902.9713, 5703.286
903.4534, 5679.641
903.9355, 5663.835
904.4176, 5645.150
904.8997, 5617.028
905.3818, 5600.698
905.8640, 5630.749
906.3461, 5660.605
906.8282, 5644.971
907.3103, 5555.489
907.7924, 5504.115
908.2745, 5498.617
908.7567, 5507.879
909.2388, 5502.057
909.7209, 5486.540
910.2030, 5474.364
910.6851, 5466.943
911.1672, 5464.331
911.6494, 5483.857
912.1315, 5496.261
912.6136, 5470.986
913.0957, 5391.324
913.5778, 5348.616
914.0599, 5357.448
914.5421, 5369.127
915.0242, 5337.755
915.5063, 5278.971
915.9884, 5260.992
916.4705, 5284.344
916.9526, 5303.536
917.4348, 5283.319
917.9169, 5250.225
918.3990, 5219.768
918.8811, 5193.156
919.3632, 5177.870
919.8453, 5180.808
920.3275, 5181.633
920.8096, 5167.934
921.2917, 5144.130
921.7738, 5129.562
922.2559, 5124.021
922.7380, 5125.436
923.2202, 5145.894
923.7023, 5161.596
924.1844, 5146.635
924.6665, 5105.944
925.1486, 5083.359
925.6307, 5098.790
926.1129, 5104.939
926.5950, 5084.141
927.0771, 5046.178
927.5591, 5025.590
928.0413, 5020.399
928.5234, 5016.050
929.0055, 5006.638
929.4876, 4994.140
929.9697, 4975.029
930.4518, 4954.329
930.9340, 4944.887
931.4161, 4966.936
931.8982, 4975.535
932.3803, 4963.812
932.8624, 4936.566
933.3445, 4896.358
933.8267, 4845.888
934.3088, 4805.477
934.7909, 4781.402
935.2730, 4769.019
935.7551, 4774.677
936.2372, 4785.881
936.7194, 4785.036
937.2015, 4762.323
937.6836, 4733.131
938.1657, 4691.189
938.6478, 4651.734
939.1299, 4636.838
939.6121, 4644.206
940.0942, 4641.699
940.5763, 4624.345
941.0584, 4602.654
941.5405, 4587.423
942.0226, 4572.565
942.5048, 4550.113
942.9869, 4514.226
943.4690, 4486.598
943.9511, 4475.087
944.4332, 4464.191
944.9153, 4439.450
945.3975, 4402.570
945.8796, 4381.167
946.3617, 4375.807
946.8438, 4379.352
947.3259, 4403.692
947.8080, 4422.097
948.2902, 4399.425
948.7723, 4332.399
949.2544, 4296.706
949.7365, 4328.136
950.2186, 4350.292
950.7007, 4326.890
951.1829, 4268.763
951.6650, 4236.178
952.1471, 4227.035
952.6292, 4221.406
953.1113, 4209.792
953.5934, 4195.445
954.0756, 4177.806
954.5577, 4159.080
955.0398, 4148.048
955.5219, 4154.654
956.0040, 4153.203
956.4861, 4133.294
956.9683, 4107.803
957.4504, 4115.651
957.9325, 4148.839
958.4146, 4156.313
958.8967, 4107.963
959.3788, 4054.944
959.8610, 4041.202
960.3431, 4046.398
960.8252, 4039.988
961.3073, 3999.394
961.7894, 3980.072
962.2715, 3991.413
962.7537, 4011.657
963.2358, 4015.033
963.7179, 4004.578
964.2000, 3991.456
964.6821, 3976.964
965.1642, 3962.944
965.6464, 3955.419
966.1285, 3945.975
966.6106, 3924.912
967.0927, 3885.896
967.5748, 3860.584
968.0569, 3852.038
968.5391, 3848.976
969.0212, 3848.186
969.5033, 3846.371
969.9854, 3827.344
970.4675, 3793.314
970.9496, 3766.901
971.4318, 3771.650
971.9139, 3777.916
972.3960, 3765.818
972.8781, 3738.042
973.3602, 3721.713
973.8423, 3723.527
974.3245, 3711.151
974.8066, 3665.873
975.2887, 3608.429
975.7708, 3574.742
976.2529, 3562.171
976.7350, 3562.449
977.2172, 3592.433
977.6993, 3611.115
978.1814, 3597.442
978.6635, 3566.029
979.1456, 3536.502
979.6277, 3507.671
980.1099, 3489.140
980.5920, 3484.488
981.0741, 3481.742
981.5562, 3460.586
982.0383, 3433.104
982.5204, 3421.136
983.0026, 3435.285
983.4847, 3442.519
983.9668, 3430.257
984.4489, 3409.536
984.9310, 3385.771
985.4131, 3358.939
985.8953, 3330.191
986.3774, 3299.059
986.8595, 3275.234
987.3416, 3271.820
987.8237, 3275.799
988.3058, 3274.327
988.7880, 3266.811
989.2701, 3255.982
989.7522, 3243.153
990.2343, 3225.122
990.7164, 3195.445
991.1985, 3162.183
991.6807, 3160.336
992.1628, 3185.614
992.6449, 3201.421
993.1270, 3187.261
993.6091, 3164.836
994.0912, 3149.054
994.5734, 3137.366
995.0555, 3125.236
995.5376, 3111.165
996.0197, 3097.644
996.5018, 3083.422
996.9839, 3072.578
997.4661, 3077.731
997.9482, 3090.936
998.4303, 3083.728
998.9124, 3047.737
999.3945, 3015.106
999.8766, 3015.246
1000.359, 3020.036
1000.841, 3005.457
1001.323, 2967.637
1001.805, 2939.551
1002.287, 2922.308
1002.769, 2908.654
1003.251, 2891.727
1003.734, 2875.980
1004.216, 2870.070
1004.698, 2872.801
1005.180, 2876.547
1005.662, 2882.505
1006.144, 2883.828
1006.626, 2878.723
1007.108, 2867.710
1007.591, 2847.322
1008.073, 2817.315
1008.555, 2805.624
1009.037, 2830.552
1009.519, 2855.140
1010.001, 2826.952
1010.483, 2775.337
1010.965, 2743.356
1011.447, 2762.886
1011.930, 2769.419
1012.412, 2755.021
1012.894, 2735.488
1013.376, 2727.289
1013.858, 2727.849
1014.340, 2722.827
1014.822, 2711.249
1015.304, 2694.695
1015.786, 2670.335
1016.269, 2644.853
1016.751, 2618.605
1017.233, 2592.436
1017.715, 2590.438
1018.197, 2622.949
1018.679, 2643.403
1019.161, 2623.439
1019.643, 2586.254
1020.125, 2582.554
1020.608, 2601.498
1021.090, 2611.811
1021.572, 2590.989
1022.054, 2570.725
1022.536, 2563.851
1023.018, 2560.636
1023.500, 2544.430
1023.982, 2513.995
1024.465, 2499.380
1024.947, 2507.232
1025.429, 2518.032
1025.911, 2509.952
1026.393, 2494.747
1026.875, 2486.449
1027.357, 2489.986
1027.839, 2486.655
1028.322, 2472.689
1028.804, 2456.481
1029.286, 2441.385
1029.768, 2427.939
1030.250, 2422.674
1030.732, 2423.471
1031.214, 2417.546
1031.696, 2387.182
1032.178, 2358.872
1032.661, 2348.336
1033.143, 2351.044
1033.625, 2353.714
1034.107, 2357.603
1034.589, 2354.814
1035.071, 2342.080
1035.553, 2326.606
1036.035, 2317.092
1036.517, 2311.875
1037.000, 2308.517
1037.482, 2307.518
1037.964, 2305.312
1038.446, 2302.955
1038.928, 2297.202
1039.410, 2285.853
1039.892, 2269.037
1040.374, 2245.313
1040.857, 2215.469
1041.339, 2190.956
1041.821, 2185.164
1042.303, 2183.236
1042.785, 2170.496
1043.267, 2150.639
1043.749, 2146.863
1044.231, 2170.003
1044.714, 2179.763
1045.196, 2162.192
1045.678, 2135.196
1046.160, 2132.726
1046.642, 2143.875
1047.124, 2142.541
1047.606, 2113.127
1048.088, 2090.331
1048.570, 2096.400
1049.052, 2105.362
1049.535, 2095.913
1050.017, 2066.487
1050.499, 2051.259
1050.981, 2051.016
1051.463, 2048.030
1051.945, 2021.022
1052.427, 1991.671
1052.909, 1980.853
1053.392, 1986.974
1053.874, 1990.520
1054.356, 1990.000
1054.838, 1985.920
1055.320, 1976.065
1055.802, 1966.193
1056.284, 1970.123
1056.766, 1983.086
1057.249, 1993.552
1057.731, 2000.418
1058.213, 1998.935
1058.695, 1978.329
1059.177, 1954.951
1059.659, 1946.140
1060.141, 1954.815
1060.623, 1937.531
1061.105, 1892.309
1061.588, 1853.395
1062.070, 1852.241
1062.552, 1866.242
1063.034, 1878.391
1063.516, 1887.047
1063.998, 1887.042
1064.480, 1875.567
1064.962, 1861.656
1065.444, 1845.471
1065.927, 1831.212
1066.409, 1829.296
1066.891, 1835.603
1067.373, 1839.169
1067.855, 1836.287
1068.337, 1831.665
1068.819, 1826.875
1069.301, 1821.122
1069.783, 1812.624
1070.266, 1800.491
1070.748, 1796.788
1071.230, 1801.675
1071.712, 1806.515
1072.194, 1807.616
1072.676, 1803.719
1073.158, 1788.531
1073.640, 1765.596
1074.123, 1756.462
1074.605, 1769.904
1075.087, 1777.731
1075.569, 1772.520
1076.051, 1761.152
1076.533, 1754.179
1077.015, 1750.282
1077.497, 1747.009
1077.979, 1744.463
1078.462, 1740.453
1078.944, 1731.179
1079.426, 1723.057
1079.908, 1721.175
1080.390, 1725.371
1080.872, 1722.982
1081.354, 1714.385
1081.836, 1710.171
1082.318, 1727.429
1082.801, 1741.992
1083.283, 1733.411
1083.765, 1707.045
1084.247, 1683.149
1084.729, 1660.529
1085.211, 1646.582
1085.693, 1643.329
1086.175, 1647.016
1086.658, 1657.488
1087.140, 1669.628
1087.622, 1674.406
1088.104, 1668.592
1088.586, 1662.994
1089.068, 1661.905
1089.550, 1658.919
1090.032, 1649.928
1090.515, 1636.288
1090.997, 1622.534
1091.479, 1609.734
1091.961, 1604.695
1092.443, 1620.933
1092.925, 1634.955
1093.407, 1633.625
1093.889, 1622.855
1094.371, 1611.987
1094.854, 1600.205
1095.336, 1594.961
1095.818, 1598.109
1096.300, 1601.526
1096.782, 1595.163
1097.264, 1585.700
1097.746, 1580.834
1098.228, 1581.687
1098.710, 1582.111
1099.193, 1582.153
1099.675, 1580.493
1100.157, 1576.784
1100.639, 1570.792
1101.121, 1557.617
1101.603, 1541.524
1102.085, 1534.961
1102.567, 1554.020
1103.050, 1566.013
1103.532, 1558.308
1104.014, 1543.761
1104.496, 1533.049
1104.978, 1526.048
1105.460, 1521.989
1105.942, 1520.792
1106.424, 1520.124
1106.906, 1521.604
1107.389, 1520.045
1107.871, 1509.163
1108.353, 1491.312
1108.835, 1478.273
1109.317, 1469.400
1109.799, 1471.036
1110.281, 1490.768
1110.763, 1506.519
1111.245, 1477.224
1111.728, 1430.676
1112.210, 1407.944
1112.692, 1428.001
1113.174, 1443.164
1113.656, 1451.883
1114.138, 1452.770
1114.620, 1439.162
1115.102, 1418.109
1115.585, 1414.016
1116.067, 1423.240
1116.549, 1429.771
1117.031, 1424.603
1117.513, 1417.544
1117.995, 1411.766
1118.477, 1405.483
1118.959, 1393.532
1119.442, 1377.033
1119.924, 1371.233
1120.406, 1379.308
1120.888, 1385.455
1121.370, 1372.576
1121.852, 1357.243
1122.334, 1353.807
1122.816, 1361.238
1123.298, 1366.526
1123.781, 1370.007
1124.263, 1367.632
1124.745, 1353.510
1125.227, 1339.470
1125.709, 1342.218
1126.191, 1354.141
1126.673, 1363.185
1127.155, 1371.226
1127.637, 1365.670
1128.120, 1341.399
1128.602, 1317.115
1129.084, 1310.196
1129.566, 1314.401
1130.048, 1318.628
1130.530, 1322.049
1131.012, 1322.684
1131.494, 1317.057
1131.977, 1312.167
1132.459, 1311.104
1132.941, 1310.243
1133.423, 1300.289
1133.905, 1283.977
1134.387, 1275.538
1134.869, 1279.797
1135.351, 1279.774
1135.833, 1252.014
1136.316, 1229.240
1136.798, 1236.588
1137.280, 1270.899
1137.762, 1290.372
1138.244, 1295.152
1138.726, 1296.199
1139.208, 1300.360
1139.690, 1301.015
1140.172, 1288.068
1140.655, 1269.752
1141.137, 1259.852
1141.619, 1260.733
1142.101, 1264.461
1142.583, 1271.860
1143.065, 1275.514
1143.547, 1261.792
1144.029, 1244.915
1144.512, 1244.129
1144.994, 1258.381
1145.476, 1272.761
1145.958, 1290.483
1146.440, 1295.501
1146.922, 1280.202
1147.404, 1258.751
1147.886, 1257.887
1148.369, 1267.250
1148.851, 1265.567
1149.333, 1245.322
1149.815, 1228.810
1150.297, 1221.914
1150.779, 1219.656
1151.261, 1221.297
1151.743, 1225.331
1152.225, 1224.051
1152.708, 1219.320
1153.190, 1218.994
1153.672, 1232.896
1154.154, 1243.970
1154.636, 1244.127
1155.118, 1239.801
1155.600, 1236.773
1156.082, 1234.990
1156.564, 1231.823
1157.047, 1227.153
1157.529, 1220.192
1158.011, 1205.712
1158.493, 1193.193
1158.975, 1190.266
1159.457, 1194.123
1159.939, 1198.110
1160.421, 1202.714
1160.903, 1200.025
1161.386, 1186.679
1161.868, 1173.042
1162.350, 1168.064
1162.832, 1169.114
1163.314, 1175.685
1163.796, 1188.658
1164.278, 1192.564
1164.760, 1185.964
1165.243, 1176.782
1165.725, 1166.898
1166.207, 1158.526
1166.689, 1154.546
1167.171, 1154.241
1167.653, 1156.337
1168.135, 1166.254
1168.617, 1168.408
1169.099, 1161.540
1169.582, 1150.378
1170.064, 1134.556
1170.546, 1119.290
1171.028, 1114.367
1171.510, 1119.296
1171.992, 1130.343
1172.474, 1163.378
1172.956, 1176.007
1173.438, 1153.486
1173.921, 1120.837
1174.403, 1118.441
1174.885, 1135.257
1175.367, 1142.407
1175.849, 1135.405
1176.331, 1126.146
1176.813, 1118.964
1177.295, 1111.047
1177.778, 1100.930
1178.260, 1089.685
1178.742, 1080.008
1179.224, 1071.970
1179.706, 1064.741
1180.188, 1055.357
1180.670, 1053.531
1181.152, 1072.099
1181.635, 1092.920
1182.117, 1103.339
1182.599, 1103.695
1183.081, 1100.331
1183.563, 1093.267
1184.045, 1083.124
1184.527, 1065.209
1185.009, 1050.045
1185.491, 1047.252
1185.974, 1048.414
1186.456, 1038.650
1186.938, 1016.668
1187.420, 1017.012
1187.902, 1043.419
1188.384, 1062.793
1188.866, 1040.077
1189.348, 1010.079
1189.830, 998.9794
1190.313, 1002.057
1190.795, 997.8389
1191.277, 985.2435
1191.759, 978.2011
1192.241, 980.5988
1192.723, 985.3793
1193.205, 988.0007
1193.687, 988.0391
1194.170, 983.3546
1194.652, 973.6505
1195.134, 971.0637
1195.616, 976.8458
1196.098, 979.7593
1196.580, 972.3234
1197.062, 964.5530
1197.544, 975.2037
1198.026, 990.0472
1198.509, 985.6027
1198.991, 946.9555
1199.473, 928.3875
1199.955, 932.5239
1200.437, 943.0040
1200.919, 953.7426
1201.401, 960.4091
1201.883, 954.1050
1202.365, 939.1421
1202.848, 927.7175
1203.330, 920.4039
1203.812, 920.6472
1204.294, 931.1667
1204.776, 940.4214
1205.258, 932.3625
1205.740, 917.7681
1206.222, 911.4954
1206.705, 914.0745
1207.187, 917.6265
1207.669, 922.1174
1208.151, 925.1635
1208.633, 926.9821
1209.115, 925.3082
1209.597, 913.6575
1210.079, 897.5107
1210.562, 885.6438
1211.044, 879.9631
1211.526, 874.7952
1212.008, 866.8481
1212.490, 865.4555
1212.972, 876.7333
1213.454, 893.8926
1213.936, 906.9913
1214.418, 914.9079
1214.901, 914.3660
1215.383, 899.8775
1215.865, 887.5057
1216.347, 878.9980
1216.829, 872.0359
1217.311, 862.6619
1217.793, 854.8357
1218.275, 864.5086
1218.757, 883.7997
1219.240, 889.0230
1219.722, 854.4589
1220.204, 830.9241
1220.686, 823.9349
1221.168, 826.9611
1221.650, 839.3929
1222.132, 854.9902
1222.614, 858.8118
1223.097, 851.3288
1223.579, 841.0627
1224.061, 824.0541
1224.543, 815.2740
1225.025, 820.2243
1225.507, 829.3197
1225.989, 826.3878
1226.471, 817.3269
1226.953, 815.1472
1227.436, 821.6255
1227.918, 831.0889
1228.400, 847.6279
1228.882, 857.3596
1229.364, 853.7672
1229.846, 844.0931
1230.328, 846.1788
1230.810, 853.3788
1231.292, 848.8656
1231.775, 824.1342
1232.257, 807.6182
1232.739, 807.5355
1233.221, 811.8166
1233.703, 815.9147
1234.185, 819.6711
1234.667, 824.2726
1235.149, 828.0227
1235.632, 826.0139
1236.114, 809.8414
1236.596, 801.9099
1237.078, 808.9469
1237.560, 816.0787
1238.042, 810.7661
1238.524, 797.7837
1239.006, 789.4904
1239.489, 784.9474
1239.971, 780.6359
1240.453, 773.7197
1240.935, 769.3426
1241.417, 768.2245
1241.899, 769.1832
1242.381, 772.8608
1242.863, 777.0222
1243.345, 777.9539
1243.828, 775.1206
1244.310, 766.5151
1244.792, 738.3115
1245.274, 725.7554
1245.756, 739.2107
1246.238, 759.8484
1246.720, 763.6719
1247.202, 754.6398
1247.684, 733.1005
1248.167, 699.4979
1248.649, 687.1674
1249.131, 714.2244
1249.613, 738.8430
1250.095, 750.4711
1250.577, 753.7787
1251.059, 754.0082
1251.541, 752.3633
1252.023, 751.1960
1252.506, 751.3631
1252.988, 747.8660
1253.470, 736.7388
1253.952, 732.3977
1254.434, 745.6218
1254.916, 761.2985
1255.398, 750.7348
1255.880, 725.3041
1256.363, 703.4836
1256.845, 688.2249
1257.327, 681.9899
1257.809, 686.5323
1258.291, 694.0148
1258.773, 702.8535
1259.255, 709.2542
1259.737, 704.9455
1260.219, 694.5635
1260.702, 687.3425
1261.184, 687.8124
1261.666, 684.4998
1262.148, 676.6151
1262.630, 668.7075
1263.112, 661.9276
1263.594, 658.7869
1264.076, 667.0258
1264.558, 680.7487
1265.041, 682.7348
1265.523, 666.0936
1266.005, 661.9891
1266.487, 674.3144
1266.969, 686.5506
1267.451, 681.8524
1267.933, 672.1393
1268.415, 667.1666
1268.898, 667.3131
1269.380, 672.4062
1269.862, 684.2461
1270.344, 686.5490
1270.826, 675.8656
1271.308, 664.4862
1271.790, 665.1530
1272.272, 668.4700
1272.755, 666.4194
1273.237, 660.2963
1273.719, 656.3252
1274.201, 654.5728
1274.683, 652.6708
1275.165, 650.2544
1275.647, 646.8630
1276.129, 639.3979
1276.611, 633.5170
1277.094, 635.8441
1277.576, 643.2306
1278.058, 637.9377
1278.540, 621.6774
1279.022, 610.5778
1279.504, 609.8956
1279.986, 613.4214
1280.468, 621.6952
1280.950, 628.7886
1281.433, 630.1756
1281.915, 627.2614
1282.397, 629.6390
1282.879, 635.2427
1283.361, 633.9120
1283.843, 616.8247
1284.325, 603.5596
1284.807, 602.0889
1285.290, 606.2424
1285.772, 616.7486
1286.254, 629.1545
1286.736, 619.7286
1287.218, 595.5248
1287.700, 580.5898
1288.182, 592.2614
1288.664, 602.4758
1289.146, 609.2453
1289.629, 610.5604
1290.111, 601.0607
1290.593, 586.3392
1291.075, 578.5227
1291.557, 577.1860
1292.039, 580.4798
1292.521, 598.9993
1293.003, 603.3302
1293.485, 588.3980
1293.968, 568.6690
##END=



