##NAMES=Fluoborite
##RRUFFID=R061042
##IDEAL CHEMISTRY=Mg_3_(BO_3_)F_3_
##LOCALITY=Kinmount, Ontario, Canada
##OWNER=RRUFF
##SOURCE=Royal Ontario Museum
##DESCRIPTION=Off white massive bleb, fluorescent under short wave ultraviolet light, embedded in white calcite
##STATUS=The identification of this mineral is confirmed by single-crystal X-ray diffraction and chemical analysis.
##URL=rruff.info/R061042
##MEASURED CHEMISTRY=(Mg_0.99_Fe_0.01_)_Σ=3_(BO_3_)(F_1.96_(OH)_1.04_)_Σ=3_ ;  B assumed by stoichiometry; OH estimated by difference and stoichiometry
166.0538, 10004.68
166.5359, 10081.78
167.0180, 10172.66
167.5002, 10285.99
167.9823, 10405.68
168.4644, 10520.88
168.9465, 10630.96
169.4286, 10735.51
169.9107, 10826.28
170.3929, 10910.51
170.8750, 11005.87
171.3571, 11136.49
171.8392, 11275.15
172.3213, 11391.71
172.8034, 11478.64
173.2856, 11551.92
173.7677, 11635.90
174.2498, 11721.65
174.7319, 11777.36
175.2140, 11762.57
175.6961, 11710.76
176.1783, 11669.76
176.6604, 11643.91
177.1425, 11639.86
177.6246, 11672.92
178.1067, 11739.40
178.5888, 11817.69
179.0710, 11887.76
179.5531, 11957.07
180.0352, 12039.93
180.5173, 12134.37
180.9994, 12248.77
181.4815, 12395.40
181.9637, 12575.27
182.4458, 12779.00
182.9279, 13039.54
183.4100, 13329.59
183.8921, 13554.75
184.3742, 13706.88
184.8564, 13769.11
185.3385, 13674.32
185.8206, 13414.20
186.3027, 13088.08
186.7848, 12757.72
187.2669, 12431.31
187.7491, 12159.03
188.2312, 11967.41
188.7133, 11844.44
189.1954, 11742.87
189.6775, 11662.05
190.1596, 11609.00
190.6418, 11605.26
191.1239, 11649.56
191.6060, 11688.02
192.0881, 11693.99
192.5702, 11671.79
193.0524, 11659.99
193.5345, 11660.47
194.0166, 11666.55
194.4987, 11666.44
194.9808, 11659.38
195.4629, 11657.53
195.9451, 11665.67
196.4272, 11683.84
196.9093, 11715.54
197.3914, 11768.32
197.8735, 11822.95
198.3556, 11834.12
198.8378, 11793.83
199.3199, 11760.68
199.8020, 11773.07
200.2841, 11834.80
200.7662, 11882.20
201.2483, 11906.92
201.7305, 11919.65
202.2126, 11949.75
202.6947, 12002.77
203.1768, 12052.50
203.6589, 12078.42
204.1410, 12075.08
204.6232, 12087.45
205.1053, 12127.59
205.5874, 12182.43
206.0695, 12202.43
206.5516, 12174.09
207.0337, 12146.28
207.5159, 12156.94
207.9980, 12215.70
208.4801, 12265.66
208.9622, 12297.72
209.4443, 12315.71
209.9264, 12337.96
210.4086, 12364.82
210.8907, 12395.34
211.3728, 12429.75
211.8549, 12470.75
212.3370, 12506.75
212.8191, 12533.04
213.3013, 12551.70
213.7834, 12584.39
214.2655, 12637.73
214.7476, 12694.66
215.2297, 12736.25
215.7118, 12751.12
216.1940, 12784.15
216.6761, 12847.33
217.1582, 12939.35
217.6403, 13025.18
218.1224, 13098.10
218.6045, 13172.44
219.0867, 13259.51
219.5688, 13353.31
220.0509, 13473.68
220.5330, 13627.47
221.0151, 13817.39
221.4972, 14002.46
221.9794, 14176.80
222.4615, 14354.56
222.9436, 14554.39
223.4257, 14785.00
223.9078, 15022.41
224.3899, 15254.66
224.8721, 15482.53
225.3542, 15732.30
225.8363, 15997.76
226.3184, 16292.83
226.8005, 16640.41
227.2827, 17046.47
227.7648, 17490.10
228.2469, 17966.91
228.7290, 18474.65
229.2111, 19016.88
229.6932, 19588.72
230.1754, 20192.42
230.6575, 20836.36
231.1396, 21503.05
231.6217, 22234.57
232.1038, 23047.86
232.5859, 23952.28
233.0681, 24891.35
233.5502, 25878.96
234.0323, 26887.03
234.5144, 27899.71
234.9965, 28956.34
235.4786, 29940.99
235.9608, 30846.68
236.4429, 31695.72
236.9250, 32319.17
237.4071, 32714.46
237.8892, 32879.55
238.3713, 32801.05
238.8535, 32427.05
239.3356, 31894.85
239.8177, 31233.30
240.2998, 30418.63
240.7819, 29552.14
241.2640, 28585.53
241.7462, 27581.29
242.2283, 26636.43
242.7104, 25751.71
243.1925, 24925.27
243.6746, 24158.45
244.1567, 23453.04
244.6389, 22791.51
245.1210, 22173.48
245.6031, 21600.62
246.0852, 21082.95
246.5673, 20631.15
247.0494, 20216.47
247.5316, 19830.19
248.0137, 19473.24
248.4958, 19140.32
248.9779, 18834.22
249.4600, 18552.37
249.9421, 18296.87
250.4243, 18065.82
250.9064, 17861.36
251.3885, 17689.14
251.8706, 17560.84
252.3527, 17421.33
252.8348, 17258.03
253.3170, 17091.58
253.7991, 16965.07
254.2812, 16896.18
254.7633, 16835.76
255.2454, 16764.11
255.7275, 16675.27
256.2097, 16599.63
256.6918, 16539.23
257.1739, 16491.46
257.6560, 16449.64
258.1381, 16408.88
258.6202, 16384.23
259.1024, 16384.55
259.5845, 16416.91
260.0666, 16445.01
260.5487, 16468.62
261.0308, 16488.09
261.5129, 16505.10
261.9951, 16519.91
262.4772, 16531.31
262.9593, 16538.65
263.4414, 16541.75
263.9235, 16539.34
264.4056, 16523.64
264.8878, 16509.74
265.3699, 16531.78
265.8520, 16608.71
266.3341, 16667.87
266.8162, 16673.93
267.2983, 16615.45
267.7805, 16577.28
268.2626, 16563.73
268.7447, 16566.19
269.2268, 16574.24
269.7089, 16592.55
270.1910, 16599.41
270.6732, 16576.56
271.1553, 16517.30
271.6374, 16503.12
272.1195, 16551.78
272.6016, 16619.45
273.0837, 16627.52
273.5659, 16564.18
274.0480, 16502.53
274.5301, 16476.71
275.0122, 16488.92
275.4943, 16472.60
275.9764, 16419.72
276.4586, 16353.44
276.9407, 16308.23
277.4228, 16286.50
277.9049, 16269.69
278.3870, 16254.16
278.8691, 16239.47
279.3513, 16215.72
279.8334, 16182.55
280.3155, 16141.22
280.7976, 16090.01
281.2798, 16028.82
281.7619, 15970.23
282.2440, 15918.51
282.7261, 15873.41
283.2082, 15837.24
283.6903, 15813.86
284.1725, 15785.27
284.6546, 15714.51
285.1367, 15604.70
285.6188, 15523.46
286.1009, 15510.20
286.5830, 15546.44
287.0652, 15549.99
287.5473, 15517.10
288.0294, 15473.78
288.5115, 15449.04
288.9936, 15440.64
289.4757, 15430.74
289.9579, 15411.87
290.4400, 15387.53
290.9221, 15364.72
291.4042, 15343.05
291.8863, 15327.72
292.3684, 15326.04
292.8506, 15335.96
293.3327, 15349.64
293.8148, 15374.20
294.2969, 15395.62
294.7790, 15377.29
295.2611, 15319.04
295.7433, 15262.45
296.2254, 15242.20
296.7075, 15251.82
297.1896, 15275.63
297.6717, 15324.54
298.1538, 15372.32
298.6360, 15367.22
299.1181, 15313.69
299.6002, 15264.64
300.0823, 15263.73
300.5644, 15295.41
301.0465, 15332.40
301.5287, 15376.55
302.0108, 15411.79
302.4929, 15402.91
302.9750, 15359.44
303.4571, 15336.43
303.9392, 15400.94
304.4214, 15499.16
304.9035, 15558.11
305.3856, 15548.24
305.8677, 15512.20
306.3498, 15470.95
306.8319, 15430.07
307.3141, 15408.65
307.7962, 15439.63
308.2783, 15485.79
308.7604, 15507.79
309.2425, 15485.88
309.7246, 15463.96
310.2068, 15477.60
310.6889, 15514.08
311.1710, 15540.42
311.6531, 15531.39
312.1352, 15511.86
312.6173, 15500.65
313.0995, 15503.87
313.5816, 15506.78
314.0637, 15497.90
314.5458, 15484.19
315.0279, 15478.61
315.5100, 15485.70
315.9922, 15502.57
316.4743, 15532.91
316.9564, 15583.76
317.4385, 15620.51
317.9206, 15616.86
318.4027, 15595.67
318.8849, 15588.85
319.3670, 15612.17
319.8491, 15644.98
320.3312, 15686.23
320.8133, 15740.55
321.2954, 15774.26
321.7776, 15761.41
322.2597, 15732.52
322.7418, 15720.15
323.2239, 15757.51
323.7060, 15783.31
324.1881, 15773.82
324.6703, 15723.93
325.1524, 15696.95
325.6345, 15713.77
326.1166, 15746.67
326.5987, 15773.60
327.0808, 15795.11
327.5630, 15809.73
328.0451, 15813.75
328.5272, 15807.89
329.0093, 15807.77
329.4914, 15813.70
329.9735, 15825.01
330.4557, 15841.79
330.9378, 15868.33
331.4199, 15892.87
331.9020, 15913.51
332.3841, 15931.38
332.8662, 15953.97
333.3484, 15989.60
333.8305, 16016.96
334.3126, 16019.09
334.7947, 15979.46
335.2768, 15966.79
335.7589, 15991.31
336.2411, 16040.92
336.7232, 16088.03
337.2053, 16133.30
337.6874, 16173.07
338.1695, 16204.30
338.6516, 16225.45
339.1338, 16249.31
339.6159, 16276.54
340.0980, 16305.48
340.5801, 16330.96
341.0622, 16352.35
341.5443, 16379.31
342.0265, 16417.15
342.5086, 16464.80
342.9907, 16519.16
343.4728, 16582.66
343.9549, 16641.46
344.4370, 16672.81
344.9192, 16679.37
345.4013, 16687.65
345.8834, 16704.26
346.3655, 16729.78
346.8476, 16771.49
347.3297, 16829.97
347.8119, 16883.70
348.2940, 16903.05
348.7761, 16899.79
349.2582, 16909.41
349.7403, 16947.59
350.2225, 16997.72
350.7046, 17026.65
351.1867, 17039.53
351.6688, 17074.26
352.1509, 17185.72
352.6331, 17329.47
353.1152, 17438.41
353.5973, 17492.56
354.0794, 17518.02
354.5615, 17537.05
355.0436, 17546.33
355.5258, 17535.77
356.0079, 17492.77
356.4900, 17431.42
356.9721, 17359.24
357.4542, 17271.07
357.9363, 17193.44
358.4185, 17148.04
358.9006, 17122.54
359.3827, 17095.58
359.8648, 17037.13
360.3469, 16992.29
360.8290, 16994.31
361.3112, 17054.09
361.7933, 17100.68
362.2754, 17108.57
362.7575, 17093.13
363.2396, 17070.90
363.7217, 17037.91
364.2039, 17006.48
364.6860, 16973.30
365.1681, 16938.29
365.6502, 16927.38
366.1323, 16976.98
366.6144, 17031.22
367.0966, 17051.25
367.5787, 16976.57
368.0608, 16940.68
368.5429, 16972.37
369.0250, 17056.09
369.5071, 17110.78
369.9893, 17119.84
370.4714, 17119.14
370.9535, 17126.26
371.4356, 17148.29
371.9177, 17161.22
372.3998, 17160.58
372.8820, 17152.82
373.3641, 17151.07
373.8462, 17154.13
374.3283, 17166.57
374.8104, 17195.72
375.2925, 17245.01
375.7747, 17271.28
376.2568, 17269.74
376.7389, 17255.18
377.2210, 17245.28
377.7031, 17240.08
378.1852, 17239.81
378.6674, 17246.34
379.1495, 17257.76
379.6316, 17259.88
380.1137, 17250.03
380.5958, 17254.81
381.0779, 17313.33
381.5601, 17413.85
382.0422, 17494.24
382.5243, 17541.68
383.0064, 17563.29
383.4885, 17565.84
383.9706, 17550.91
384.4528, 17529.93
384.9349, 17499.05
385.4170, 17470.03
385.8991, 17464.26
386.3812, 17489.52
386.8633, 17523.15
387.3455, 17547.50
387.8276, 17564.15
388.3097, 17577.10
388.7918, 17583.72
389.2739, 17590.20
389.7560, 17604.20
390.2382, 17627.39
390.7203, 17644.63
391.2024, 17647.13
391.6845, 17639.39
392.1666, 17626.53
392.6487, 17592.59
393.1309, 17570.39
393.6130, 17580.23
394.0951, 17619.11
394.5772, 17651.56
395.0593, 17657.10
395.5414, 17660.63
396.0236, 17677.70
396.5057, 17724.57
396.9878, 17768.41
397.4699, 17816.92
397.9520, 17861.49
398.4341, 17874.22
398.9163, 17819.57
399.3984, 17770.01
399.8805, 17754.62
400.3626, 17790.54
400.8447, 17808.46
401.3268, 17796.06
401.8090, 17774.71
402.2911, 17775.05
402.7732, 17803.04
403.2553, 17837.96
403.7374, 17879.62
404.2195, 17926.58
404.7017, 17949.55
405.1838, 17941.97
405.6659, 17928.14
406.1480, 17930.78
406.6301, 17950.10
407.1122, 17969.78
407.5944, 17987.96
408.0765, 18003.78
408.5586, 18011.53
409.0407, 18011.47
409.5228, 18016.91
410.0049, 18037.75
410.4871, 18070.77
410.9692, 18111.62
411.4513, 18163.70
411.9334, 18208.42
412.4155, 18216.86
412.8976, 18199.87
413.3798, 18188.60
413.8619, 18213.24
414.3440, 18241.44
414.8261, 18227.07
415.3082, 18169.65
415.7903, 18130.74
416.2725, 18174.56
416.7546, 18249.87
417.2367, 18299.13
417.7188, 18280.41
418.2009, 18257.15
418.6830, 18259.54
419.1652, 18281.57
419.6473, 18301.16
420.1294, 18304.11
420.6115, 18307.82
421.0937, 18323.68
421.5758, 18362.84
422.0579, 18392.58
422.5400, 18402.86
423.0221, 18402.50
423.5042, 18405.93
423.9864, 18404.17
424.4685, 18417.07
424.9506, 18457.78
425.4327, 18529.96
425.9148, 18574.26
426.3969, 18576.49
426.8791, 18567.03
427.3612, 18571.10
427.8433, 18590.79
428.3254, 18617.55
428.8075, 18651.39
429.2896, 18691.10
429.7718, 18735.41
430.2539, 18787.28
430.7360, 18828.94
431.2181, 18842.42
431.7002, 18830.40
432.1823, 18832.14
432.6645, 18850.51
433.1466, 18879.75
433.6287, 18914.99
434.1108, 18955.06
434.5929, 18994.60
435.0750, 19029.47
435.5572, 19062.90
436.0393, 19103.35
436.5214, 19150.28
437.0035, 19192.58
437.4856, 19215.78
437.9677, 19230.25
438.4499, 19250.32
438.9320, 19280.91
439.4141, 19315.73
439.8962, 19361.93
440.3783, 19409.79
440.8604, 19435.71
441.3426, 19404.14
441.8247, 19366.28
442.3068, 19352.32
442.7889, 19370.13
443.2710, 19389.98
443.7531, 19403.50
444.2353, 19415.21
444.7174, 19430.37
445.1995, 19461.30
445.6816, 19482.80
446.1637, 19487.89
446.6458, 19478.00
447.1280, 19467.85
447.6101, 19454.74
448.0922, 19444.35
448.5743, 19440.96
449.0564, 19449.32
449.5385, 19451.49
450.0207, 19444.88
450.5028, 19433.85
450.9849, 19427.89
451.4670, 19428.98
451.9491, 19425.26
452.4312, 19409.10
452.9134, 19382.98
453.3955, 19366.29
453.8776, 19359.65
454.3597, 19358.05
454.8418, 19357.94
455.3239, 19359.09
455.8061, 19360.81
456.2882, 19363.78
456.7703, 19365.99
457.2524, 19357.19
457.7345, 19342.52
458.2166, 19343.12
458.6988, 19406.57
459.1809, 19474.29
459.6630, 19467.12
460.1451, 19365.50
460.6272, 19275.05
461.1093, 19277.08
461.5915, 19324.95
462.0736, 19360.87
462.5557, 19345.63
463.0378, 19334.86
463.5199, 19352.47
464.0020, 19395.04
464.4842, 19435.53
464.9663, 19485.96
465.4484, 19519.44
465.9305, 19517.64
466.4126, 19428.96
466.8947, 19396.74
467.3769, 19458.74
467.8590, 19560.55
468.3411, 19609.16
468.8232, 19567.26
469.3053, 19547.65
469.7874, 19593.50
470.2696, 19698.81
470.7517, 19748.13
471.2338, 19730.92
471.7159, 19690.14
472.1980, 19655.23
472.6801, 19626.34
473.1623, 19612.84
473.6444, 19615.53
474.1265, 19634.74
474.6086, 19686.13
475.0907, 19762.53
475.5728, 19817.36
476.0550, 19807.26
476.5371, 19766.39
477.0192, 19751.75
477.5013, 19765.42
477.9834, 19782.15
478.4655, 19772.62
478.9477, 19757.54
479.4298, 19765.32
479.9119, 19824.07
480.3940, 19882.79
480.8761, 19908.42
481.3582, 19911.98
481.8404, 19924.86
482.3225, 19986.12
482.8046, 20035.19
483.2867, 20035.95
483.7688, 19962.80
484.2509, 19919.87
484.7331, 19940.73
485.2152, 19983.04
485.6973, 20008.15
486.1794, 20008.00
486.6615, 20003.55
487.1436, 19992.54
487.6258, 19979.18
488.1079, 19983.90
488.5900, 20008.96
489.0721, 20045.99
489.5542, 20097.32
490.0363, 20163.46
490.5185, 20209.46
491.0006, 20232.65
491.4827, 20240.38
491.9648, 20232.00
492.4470, 20212.22
492.9291, 20208.81
493.4112, 20243.06
493.8933, 20288.57
494.3754, 20300.38
494.8575, 20283.15
495.3397, 20265.45
495.8218, 20268.27
496.3039, 20279.26
496.7860, 20281.04
497.2681, 20264.87
497.7502, 20263.84
498.2324, 20316.86
498.7145, 20389.58
499.1966, 20436.34
499.6787, 20421.96
500.1608, 20400.93
500.6429, 20384.47
501.1251, 20373.50
501.6072, 20374.94
502.0893, 20400.14
502.5714, 20428.17
503.0535, 20448.38
503.5356, 20453.06
504.0178, 20468.98
504.4999, 20500.99
504.9820, 20539.72
505.4641, 20573.91
505.9462, 20605.04
506.4283, 20622.28
506.9105, 20615.50
507.3926, 20593.88
507.8747, 20596.29
508.3568, 20623.83
508.8389, 20656.67
509.3210, 20677.99
509.8032, 20693.61
510.2853, 20724.58
510.7674, 20778.41
511.2495, 20826.60
511.7316, 20831.33
512.2137, 20809.22
512.6959, 20794.11
513.1780, 20802.62
513.6601, 20820.63
514.1422, 20840.51
514.6243, 20862.24
515.1064, 20886.50
515.5886, 20916.98
516.0707, 20947.77
516.5528, 20973.97
517.0349, 20989.04
517.5170, 21012.41
517.9991, 21059.46
518.4813, 21110.35
518.9634, 21138.56
519.4455, 21128.85
519.9276, 21122.57
520.4097, 21128.67
520.8918, 21145.22
521.3740, 21157.20
521.8561, 21159.68
522.3382, 21173.95
522.8203, 21220.92
523.3024, 21297.79
523.7845, 21365.22
524.2667, 21423.01
524.7488, 21464.93
525.2309, 21482.82
525.7130, 21479.39
526.1951, 21462.13
526.6772, 21414.90
527.1594, 21372.89
527.6415, 21386.38
528.1236, 21444.98
528.6057, 21503.65
529.0878, 21548.02
529.5699, 21574.70
530.0521, 21574.76
530.5342, 21539.67
531.0163, 21512.40
531.4984, 21510.31
531.9805, 21521.23
532.4626, 21532.18
532.9448, 21538.95
533.4269, 21548.63
533.9090, 21559.56
534.3911, 21573.70
534.8732, 21599.45
535.3553, 21644.20
535.8375, 21687.68
536.3196, 21725.45
536.8017, 21759.11
537.2838, 21759.68
537.7659, 21720.98
538.2480, 21669.57
538.7302, 21629.74
539.2123, 21600.99
539.6944, 21582.94
540.1765, 21576.96
540.6586, 21578.89
541.1407, 21583.31
541.6229, 21590.64
542.1050, 21602.31
542.5871, 21626.61
543.0692, 21650.73
543.5513, 21658.25
544.0334, 21648.53
544.5156, 21647.13
544.9977, 21682.56
545.4798, 21721.71
545.9619, 21736.60
546.4440, 21692.23
546.9261, 21667.77
547.4083, 21703.59
547.8904, 21760.03
548.3725, 21761.30
548.8546, 21654.98
549.3367, 21580.83
549.8188, 21584.39
550.3010, 21657.07
550.7831, 21695.75
551.2652, 21692.69
551.7473, 21681.53
552.2294, 21689.91
552.7115, 21714.68
553.1937, 21719.22
553.6758, 21695.97
554.1579, 21671.80
554.6400, 21687.79
555.1221, 21730.77
555.6042, 21761.85
556.0864, 21753.32
556.5685, 21741.33
557.0506, 21770.61
557.5327, 21828.86
558.0148, 21869.90
558.4969, 21854.76
558.9791, 21827.83
559.4612, 21816.75
559.9433, 21827.87
560.4254, 21836.98
560.9075, 21831.44
561.3896, 21826.82
561.8718, 21837.47
562.3539, 21879.14
562.8360, 21909.20
563.3181, 21922.26
563.8002, 21922.66
564.2823, 21918.17
564.7645, 21906.26
565.2466, 21901.51
565.7287, 21915.14
566.2108, 21941.08
566.6929, 21947.92
567.1750, 21935.13
567.6572, 21913.82
568.1393, 21876.13
568.6214, 21839.64
569.1035, 21849.28
569.5856, 21923.03
570.0677, 21998.15
570.5499, 22019.35
571.0320, 22008.76
571.5141, 22001.76
571.9962, 22018.15
572.4783, 22033.69
572.9604, 22036.11
573.4426, 22028.20
573.9247, 22025.23
574.4068, 22026.42
574.8889, 22036.34
575.3710, 22060.63
575.8531, 22105.04
576.3353, 22130.71
576.8174, 22129.12
577.2995, 22121.03
577.7816, 22125.37
578.2637, 22142.75
578.7458, 22168.64
579.2280, 22207.22
579.7101, 22245.15
580.1922, 22255.76
580.6743, 22242.65
581.1564, 22226.18
581.6385, 22210.11
582.1207, 22199.01
582.6028, 22201.59
583.0849, 22216.49
583.5670, 22233.06
584.0491, 22248.90
584.5313, 22261.40
585.0134, 22266.12
585.4955, 22257.12
585.9776, 22257.69
586.4597, 22291.18
586.9418, 22329.90
587.4240, 22340.54
587.9061, 22286.09
588.3882, 22260.59
588.8703, 22281.46
589.3524, 22335.68
589.8345, 22389.49
590.3167, 22446.99
590.7988, 22487.92
591.2809, 22494.78
591.7630, 22476.30
592.2451, 22480.39
592.7272, 22507.97
593.2094, 22535.70
593.6915, 22540.75
594.1736, 22532.84
594.6557, 22529.13
595.1378, 22531.60
595.6199, 22542.08
596.1021, 22572.92
596.5842, 22609.76
597.0663, 22632.22
597.5485, 22617.90
598.0306, 22604.27
598.5127, 22591.61
598.9948, 22586.39
599.4769, 22617.20
599.9590, 22738.33
600.4412, 22831.66
600.9233, 22849.39
601.4054, 22785.41
601.8875, 22743.71
602.3696, 22726.13
602.8517, 22727.23
603.3339, 22752.87
603.8160, 22800.06
604.2981, 22822.21
604.7802, 22809.18
605.2623, 22787.16
605.7444, 22793.01
606.2266, 22817.27
606.7087, 22834.06
607.1908, 22827.65
607.6729, 22816.91
608.1550, 22803.46
608.6371, 22795.66
609.1193, 22820.21
609.6014, 22942.64
610.0835, 23052.87
610.5656, 23083.93
611.0477, 23017.59
611.5298, 22987.13
612.0120, 23025.57
612.4941, 23072.60
612.9762, 23083.00
613.4583, 23037.13
613.9404, 23030.56
614.4225, 23080.60
614.9047, 23147.02
615.3868, 23168.59
615.8689, 23148.93
616.3510, 23133.20
616.8331, 23134.29
617.3152, 23146.37
617.7974, 23164.77
618.2795, 23187.47
618.7616, 23207.48
619.2437, 23217.58
619.7258, 23225.94
620.2079, 23242.48
620.6901, 23267.33
621.1722, 23281.24
621.6543, 23246.02
622.1364, 23219.79
622.6185, 23247.02
623.1006, 23376.27
623.5828, 23454.49
624.0649, 23463.15
624.5470, 23437.79
625.0291, 23410.13
625.5112, 23371.40
625.9933, 23385.63
626.4755, 23484.68
626.9576, 23614.94
627.4397, 23652.74
627.9218, 23609.74
628.4039, 23574.72
628.8860, 23607.11
629.3682, 23664.49
629.8503, 23689.67
630.3324, 23685.58
630.8145, 23675.06
631.2966, 23647.00
631.7787, 23634.39
632.2609, 23669.87
632.7430, 23775.22
633.2251, 23858.43
633.7072, 23881.11
634.1893, 23886.30
634.6714, 23910.27
635.1536, 23964.77
635.6357, 24011.31
636.1178, 24042.22
636.5999, 24068.53
637.0820, 24114.42
637.5641, 24180.84
638.0463, 24237.68
638.5284, 24271.15
639.0105, 24293.06
639.4926, 24334.73
639.9747, 24390.89
640.4568, 24430.07
640.9390, 24410.63
641.4211, 24380.63
641.9032, 24391.33
642.3853, 24446.16
642.8674, 24491.86
643.3495, 24506.00
643.8317, 24504.22
644.3138, 24496.80
644.7959, 24481.47
645.2780, 24467.18
645.7601, 24458.83
646.2422, 24447.35
646.7244, 24416.98
647.2065, 24361.00
647.6886, 24324.36
648.1707, 24320.97
648.6528, 24332.71
649.1349, 24315.84
649.6171, 24276.16
650.0992, 24254.26
650.5813, 24295.74
651.0634, 24348.72
651.5455, 24335.59
652.0276, 24269.68
652.5098, 24223.12
652.9919, 24261.67
653.4740, 24310.35
653.9561, 24321.48
654.4382, 24284.92
654.9203, 24243.67
655.4025, 24178.80
655.8846, 24130.48
656.3667, 24133.64
656.8488, 24218.88
657.3309, 24259.56
657.8130, 24239.56
658.2952, 24196.08
658.7773, 24184.64
659.2594, 24201.72
659.7415, 24204.82
660.2236, 24177.73
660.7057, 24140.05
661.1879, 24114.05
661.6700, 24099.99
662.1521, 24099.14
662.6342, 24123.25
663.1163, 24151.16
663.5984, 24167.51
664.0806, 24174.06
664.5627, 24187.61
665.0448, 24225.74
665.5269, 24259.08
666.0090, 24273.36
666.4911, 24265.16
666.9733, 24262.36
667.4554, 24265.72
667.9375, 24272.95
668.4196, 24285.95
668.9017, 24304.17
669.3839, 24303.69
669.8660, 24276.62
670.3481, 24257.90
670.8302, 24309.47
671.3123, 24398.45
671.7944, 24452.04
672.2766, 24432.15
672.7587, 24395.60
673.2408, 24365.62
673.7229, 24347.20
674.2050, 24349.33
674.6871, 24402.49
675.1693, 24446.31
675.6514, 24457.57
676.1335, 24444.11
676.6156, 24448.55
677.0977, 24481.84
677.5798, 24507.92
678.0620, 24507.61
678.5441, 24484.13
679.0262, 24467.67
679.5083, 24458.10
679.9904, 24455.49
680.4725, 24467.42
680.9547, 24484.07
681.4368, 24481.71
681.9189, 24454.21
682.4010, 24440.82
682.8831, 24489.28
683.3652, 24554.98
683.8474, 24591.60
684.3295, 24566.80
684.8116, 24547.62
685.2937, 24552.70
685.7758, 24564.56
686.2579, 24554.49
686.7401, 24498.96
687.2222, 24491.87
687.7043, 24570.42
688.1864, 24687.67
688.6685, 24724.11
689.1506, 24684.16
689.6328, 24638.38
690.1149, 24603.91
690.5970, 24591.12
691.0791, 24633.89
691.5612, 24719.90
692.0433, 24785.36
692.5255, 24778.58
693.0076, 24755.63
693.4897, 24754.85
693.9718, 24782.20
694.4539, 24793.80
694.9360, 24771.87
695.4182, 24743.69
695.9003, 24718.95
696.3824, 24691.56
696.8645, 24700.67
697.3466, 24756.61
697.8287, 24821.95
698.3109, 24857.87
698.7930, 24867.85
699.2751, 24868.21
699.7572, 24859.55
700.2393, 24850.06
700.7214, 24843.17
701.2036, 24842.41
701.6857, 24854.18
702.1678, 24902.66
702.6499, 24938.45
703.1320, 24927.11
703.6141, 24889.86
704.0963, 24880.93
704.5784, 24919.68
705.0605, 24962.04
705.5426, 25006.59
706.0247, 25047.09
706.5068, 25046.28
706.9890, 24998.13
707.4711, 24959.39
707.9532, 24970.23
708.4353, 25009.73
708.9174, 25015.10
709.3995, 24991.00
709.8817, 24983.23
710.3638, 25043.00
710.8459, 25120.28
711.3280, 25171.45
711.8101, 25190.60
712.2922, 25198.65
712.7744, 25196.19
713.2565, 25188.44
713.7386, 25178.98
714.2207, 25167.41
714.7028, 25153.44
715.1849, 25132.21
715.6671, 25116.82
716.1492, 25131.30
716.6313, 25171.42
717.1134, 25180.08
717.5955, 25136.65
718.0776, 25094.28
718.5598, 25139.15
719.0419, 25229.91
719.5240, 25285.67
720.0061, 25253.62
720.4882, 25210.09
720.9703, 25177.12
721.4525, 25158.92
721.9346, 25165.06
722.4167, 25216.32
722.8988, 25267.60
723.3809, 25316.37
723.8630, 25358.44
724.3452, 25372.19
724.8273, 25353.76
725.3094, 25334.64
725.7915, 25328.12
726.2736, 25332.07
726.7557, 25348.99
727.2379, 25375.80
727.7200, 25388.38
728.2021, 25342.83
728.6842, 25296.52
729.1663, 25310.43
729.6484, 25391.79
730.1306, 25443.22
730.6127, 25385.57
731.0948, 25333.72
731.5769, 25358.85
732.0590, 25492.50
732.5411, 25569.42
733.0233, 25577.76
733.5054, 25555.91
733.9875, 25530.42
734.4696, 25503.19
734.9517, 25493.33
735.4338, 25506.04
735.9160, 25516.87
736.3981, 25491.53
736.8802, 25451.23
737.3623, 25428.53
737.8444, 25441.59
738.3266, 25454.79
738.8087, 25457.50
739.2908, 25451.25
739.7729, 25437.24
740.2551, 25404.85
740.7372, 25383.68
741.2193, 25374.73
741.7014, 25380.74
742.1835, 25423.79
742.6656, 25504.43
743.1478, 25539.66
743.6299, 25484.53
744.1120, 25393.13
744.5941, 25338.29
745.0762, 25317.72
745.5583, 25322.57
746.0405, 25372.52
746.5226, 25424.63
747.0047, 25452.79
747.4868, 25460.83
747.9689, 25473.24
748.4510, 25500.69
748.9332, 25522.09
749.4153, 25524.42
749.8974, 25511.43
750.3795, 25538.83
750.8616, 25614.61
751.3438, 25668.42
751.8259, 25630.25
752.3080, 25542.56
752.7901, 25509.78
753.2722, 25532.14
753.7543, 25561.83
754.2365, 25563.37
754.7186, 25561.48
755.2007, 25579.27
755.6828, 25624.58
756.1649, 25658.45
756.6470, 25674.10
757.1292, 25677.06
757.6113, 25666.20
758.0934, 25634.04
758.5755, 25624.02
759.0576, 25640.13
759.5397, 25664.88
760.0219, 25684.30
760.5040, 25697.64
760.9861, 25699.51
761.4682, 25686.91
761.9503, 25674.88
762.4324, 25671.29
762.9146, 25676.74
763.3967, 25692.72
763.8788, 25730.57
764.3609, 25760.99
764.8430, 25774.70
765.3251, 25780.96
765.8073, 25790.30
766.2894, 25804.16
766.7715, 25815.93
767.2536, 25825.71
767.7357, 25830.91
768.2178, 25821.73
768.7000, 25802.75
769.1821, 25794.39
769.6642, 25810.31
770.1463, 25827.52
770.6284, 25824.36
771.1105, 25808.47
771.5927, 25794.66
772.0748, 25778.95
772.5569, 25776.10
773.0390, 25797.04
773.5211, 25831.54
774.0032, 25852.99
774.4854, 25857.59
774.9675, 25864.54
775.4496, 25884.30
775.9317, 25905.96
776.4138, 25896.97
776.8959, 25862.48
777.3781, 25829.95
777.8602, 25808.54
778.3423, 25799.49
778.8244, 25798.94
779.3065, 25810.14
779.7886, 25846.41
780.2708, 25961.44
780.7529, 26048.97
781.2350, 26066.86
781.7171, 26023.55
782.1992, 25997.53
782.6813, 25991.09
783.1635, 25993.76
783.6456, 26004.30
784.1277, 26019.28
784.6098, 26022.73
785.0919, 26016.78
785.5740, 26021.91
786.0562, 26056.62
786.5383, 26104.39
787.0204, 26164.94
787.5025, 26237.55
787.9846, 26266.91
788.4667, 26181.45
788.9489, 26106.39
789.4310, 26098.71
789.9131, 26162.81
790.3952, 26214.89
790.8773, 26255.68
791.3594, 26278.93
791.8416, 26267.19
792.3237, 26235.55
792.8058, 26222.17
793.2879, 26228.81
793.7700, 26250.41
794.2521, 26304.11
794.7343, 26357.34
795.2164, 26379.38
795.6985, 26358.92
796.1806, 26343.46
796.6627, 26334.13
797.1448, 26335.31
797.6270, 26356.56
798.1091, 26404.05
798.5912, 26410.65
799.0733, 26366.14
799.5554, 26334.28
800.0375, 26400.45
800.5197, 26517.00
801.0018, 26591.62
801.4839, 26608.25
801.9660, 26609.56
802.4481, 26613.24
802.9302, 26617.93
803.4124, 26623.95
803.8945, 26639.71
804.3766, 26634.48
804.8587, 26592.37
805.3408, 26550.27
805.8229, 26542.34
806.3051, 26568.44
806.7872, 26610.67
807.2693, 26671.76
807.7514, 26723.65
808.2335, 26724.82
808.7156, 26702.90
809.1978, 26702.03
809.6799, 26738.66
810.1620, 26771.94
810.6441, 26777.26
811.1262, 26775.58
811.6083, 26789.79
812.0905, 26842.31
812.5726, 26855.35
813.0547, 26811.05
813.5368, 26758.53
814.0189, 26759.67
814.5010, 26806.14
814.9832, 26850.65
815.4653, 26886.08
815.9474, 26915.60
816.4295, 26941.82
816.9116, 26964.31
817.3937, 26982.64
817.8759, 26996.31
818.3580, 27006.07
818.8401, 27004.28
819.3222, 27003.70
819.8043, 27021.76
820.2864, 27068.93
820.7686, 27082.05
821.2507, 27048.41
821.7328, 27001.13
822.2149, 26988.88
822.6970, 26996.89
823.1791, 26984.46
823.6613, 26935.92
824.1434, 26888.31
824.6255, 26852.36
825.1076, 26837.38
825.5897, 26854.33
826.0718, 26968.70
826.5540, 27018.30
827.0361, 26967.38
827.5182, 26893.18
828.0003, 26895.70
828.4824, 26973.83
828.9645, 27033.88
829.4467, 27061.37
829.9288, 27070.17
830.4109, 27070.22
830.8930, 27063.95
831.3751, 27052.55
831.8572, 27026.74
832.3394, 27018.30
832.8215, 27052.66
833.3036, 27102.52
833.7857, 27136.46
834.2678, 27145.71
834.7499, 27165.39
835.2321, 27201.82
835.7142, 27238.82
836.1963, 27250.05
836.6784, 27243.90
837.1605, 27251.41
837.6426, 27279.92
838.1248, 27315.81
838.6069, 27360.82
839.0890, 27401.59
839.5711, 27420.76
840.0532, 27390.07
840.5353, 27383.71
841.0175, 27411.42
841.4996, 27458.71
841.9817, 27517.01
842.4638, 27587.75
842.9459, 27638.47
843.4280, 27664.91
843.9102, 27677.51
844.3923, 27676.06
844.8744, 27672.31
845.3565, 27685.92
845.8386, 27723.35
846.3207, 27768.49
846.8029, 27843.79
847.2850, 27904.68
847.7671, 27906.67
848.2492, 27807.02
848.7313, 27769.42
849.2134, 27809.70
849.6956, 27872.43
850.1777, 27905.91
850.6598, 27916.08
851.1419, 27922.77
851.6240, 27928.21
852.1061, 27931.36
852.5883, 27924.81
853.0704, 27919.70
853.5525, 27931.69
854.0346, 27980.10
854.5167, 27987.73
854.9988, 27924.97
855.4810, 27854.80
855.9631, 27824.49
856.4452, 27834.70
856.9273, 27831.26
857.4094, 27811.45
857.8915, 27798.07
858.3737, 27818.57
858.8558, 27853.73
859.3379, 27882.08
859.8200, 27901.19
860.3021, 27908.14
860.7842, 27908.48
861.2664, 27888.88
861.7485, 27838.16
862.2306, 27751.21
862.7127, 27675.35
863.1948, 27605.05
863.6769, 27567.46
864.1591, 27614.50
864.6412, 27700.68
865.1233, 27706.79
865.6054, 27635.25
866.0875, 27567.76
866.5696, 27555.53
867.0518, 27560.42
867.5339, 27562.73
868.0160, 27560.81
868.4981, 27546.22
868.9802, 27507.08
869.4623, 27480.33
869.9445, 27486.87
870.4266, 27519.96
870.9087, 27554.56
871.3908, 27589.74
871.8729, 27611.56
872.3550, 27594.80
872.8372, 27575.14
873.3193, 27588.92
873.8014, 27629.78
874.2835, 27657.26
874.7656, 27640.61
875.2477, 27635.70
875.7299, 27658.80
876.2120, 27703.66
876.6941, 27753.90
877.1762, 27809.35
877.6583, 27844.47
878.1404, 27843.21
878.6226, 27820.29
879.1047, 27787.11
879.5869, 27748.01
880.0690, 27713.25
880.5511, 27671.77
881.0332, 27652.93
881.5153, 27676.56
881.9974, 27724.54
882.4796, 27764.54
882.9617, 27797.29
883.4438, 27816.17
883.9259, 27815.62
884.4080, 27808.29
884.8901, 27821.87
885.3723, 27843.84
885.8544, 27842.20
886.3365, 27780.03
886.8186, 27734.72
887.3007, 27745.25
887.7828, 27791.71
888.2650, 27850.13
888.7471, 27939.30
889.2292, 27981.66
889.7113, 27958.85
890.1934, 27914.99
890.6755, 27911.61
891.1577, 27934.69
891.6398, 27933.28
892.1219, 27890.11
892.6040, 27863.07
893.0861, 27925.11
893.5682, 28003.30
894.0504, 28024.38
894.5325, 27944.44
895.0146, 27893.58
895.4967, 27878.63
895.9788, 27880.16
896.4609, 27882.12
896.9431, 27886.12
897.4252, 27907.00
897.9073, 27945.78
898.3894, 27979.83
898.8715, 27990.94
899.3536, 27991.31
899.8358, 27988.93
900.3179, 27984.11
900.8000, 27984.45
901.2821, 27984.83
901.7642, 27998.85
902.2463, 28039.15
902.7285, 28099.91
903.2106, 28146.19
903.6927, 28177.40
904.1748, 28186.13
904.6569, 28143.68
905.1390, 28094.64
905.6212, 28084.65
906.1033, 28108.38
906.5854, 28138.00
907.0675, 28183.66
907.5496, 28210.58
908.0317, 28195.14
908.5139, 28161.47
908.9960, 28200.49
909.4781, 28312.48
909.9602, 28384.29
910.4423, 28356.38
910.9244, 28300.99
911.4066, 28309.49
911.8887, 28353.04
912.3708, 28378.65
912.8529, 28338.79
913.3350, 28317.47
913.8171, 28332.90
914.2993, 28371.09
914.7814, 28418.97
915.2635, 28478.12
915.7456, 28528.55
916.2277, 28569.60
916.7098, 28592.07
917.1920, 28560.12
917.6741, 28512.23
918.1562, 28511.32
918.6383, 28586.13
919.1204, 28649.80
919.6025, 28668.09
920.0847, 28672.70
920.5668, 28684.56
921.0489, 28705.76
921.5310, 28719.47
922.0131, 28725.41
922.4952, 28725.96
922.9774, 28709.59
923.4595, 28695.60
923.9416, 28718.14
924.4237, 28776.88
924.9058, 28837.09
925.3879, 28887.93
925.8701, 28934.93
926.3522, 28987.40
926.8343, 29041.20
927.3164, 29050.46
927.7985, 29007.85
928.2806, 28989.34
928.7628, 29042.41
929.2449, 29127.70
929.7270, 29177.04
930.2091, 29207.49
930.6912, 29266.81
931.1733, 29412.39
931.6555, 29544.83
932.1376, 29641.34
932.6197, 29702.67
933.1018, 29711.54
933.5839, 29654.10
934.0660, 29653.62
934.5482, 29740.83
935.0303, 29865.25
935.5124, 29976.03
935.9945, 30075.63
936.4766, 30158.70
936.9587, 30199.38
937.4409, 30296.45
937.9230, 30525.69
938.4051, 30793.00
938.8872, 31026.10
939.3693, 31219.06
939.8514, 31417.12
940.3336, 31614.98
940.8157, 31845.48
941.2978, 32119.33
941.7799, 32453.82
942.2620, 32883.02
942.7441, 33404.30
943.2263, 33979.05
943.7084, 34569.38
944.1905, 35224.36
944.6726, 35950.74
945.1547, 36751.96
945.6368, 37650.50
946.1190, 38655.34
946.6011, 39730.26
947.0832, 40853.45
947.5653, 42047.56
948.0474, 43375.17
948.5295, 44810.29
949.0117, 46292.47
949.4938, 47770.85
949.9759, 49337.13
950.4580, 51025.86
950.9401, 52799.82
951.4222, 54586.91
951.9044, 56394.06
952.3865, 58262.58
952.8686, 60240.27
953.3507, 62081.09
953.8328, 63714.34
954.3149, 64963.51
954.7971, 65638.47
955.2792, 65727.70
955.7613, 65056.39
956.2434, 63499.50
956.7255, 61336.80
957.2076, 58589.00
957.6898, 55264.48
958.1719, 52039.84
958.6540, 48892.46
959.1361, 46023.20
959.6182, 43506.07
960.1003, 41340.53
960.5825, 39544.16
961.0646, 38089.07
961.5467, 36825.08
962.0288, 35749.56
962.5109, 34838.01
962.9930, 34125.02
963.4752, 33562.23
963.9573, 33052.47
964.4394, 32602.29
964.9215, 32232.04
965.4036, 31974.59
965.8857, 31745.27
966.3679, 31458.61
966.8500, 31166.21
967.3321, 30934.52
967.8142, 30805.40
968.2963, 30680.08
968.7784, 30554.17
969.2606, 30442.16
969.7427, 30370.11
970.2248, 30325.80
970.7069, 30263.12
971.1890, 30179.05
971.6711, 30094.66
972.1533, 30003.89
972.6354, 29935.04
973.1175, 29922.08
973.5996, 29963.22
974.0817, 29975.42
974.5638, 29958.04
975.0460, 29909.54
975.5281, 29800.80
976.0102, 29686.42
976.4923, 29718.65
976.9744, 29845.59
977.4565, 29914.77
977.9387, 29813.90
978.4208, 29697.58
978.9029, 29588.82
979.3850, 29511.08
979.8671, 29505.99
980.3492, 29589.15
980.8314, 29659.97
981.3135, 29712.30
981.7956, 29729.86
982.2777, 29667.49
982.7598, 29571.90
983.2419, 29506.63
983.7241, 29481.48
984.2062, 29483.75
984.6883, 29558.95
985.1704, 29608.51
985.6525, 29568.82
986.1346, 29454.84
986.6168, 29446.40
987.0989, 29539.55
987.5810, 29610.15
988.0631, 29551.12
988.5452, 29466.83
989.0273, 29465.52
989.5095, 29517.17
989.9916, 29544.01
990.4737, 29503.28
990.9558, 29480.65
991.4379, 29488.88
991.9200, 29515.30
992.4022, 29543.96
992.8843, 29574.13
993.3664, 29610.01
993.8485, 29657.01
994.3306, 29677.81
994.8127, 29611.70
995.2949, 29531.59
995.7770, 29504.88
996.2591, 29541.45
996.7412, 29584.18
997.2233, 29642.09
997.7054, 29671.89
998.1876, 29628.02
998.6697, 29545.22
999.1518, 29491.79
999.6339, 29466.52
1000.116, 29463.16
1000.598, 29493.24
1001.080, 29528.37
1001.562, 29563.21
1002.044, 29594.99
1002.527, 29623.62
1003.009, 29650.59
1003.491, 29639.25
1003.973, 29570.60
1004.455, 29515.41
1004.937, 29589.22
1005.419, 29705.63
1005.901, 29745.50
1006.384, 29661.02
1006.866, 29617.19
1007.348, 29650.24
1007.830, 29700.63
1008.312, 29746.85
1008.794, 29783.11
1009.276, 29755.78
1009.758, 29674.51
1010.240, 29618.44
1010.723, 29638.07
1011.205, 29693.21
1011.687, 29795.30
1012.169, 29909.62
1012.651, 29942.89
1013.133, 29858.39
1013.615, 29797.56
1014.097, 29781.92
1014.580, 29794.90
1015.062, 29834.02
1015.544, 29879.29
1016.026, 29883.50
1016.508, 29827.69
1016.990, 29792.48
1017.472, 29839.17
1017.954, 29888.77
1018.436, 29891.80
1018.919, 29851.28
1019.401, 29835.68
1019.883, 29845.09
1020.365, 29856.60
1020.847, 29859.38
1021.329, 29856.00
1021.811, 29838.69
1022.293, 29817.91
1022.776, 29820.13
1023.258, 29879.59
1023.740, 29910.50
1024.222, 29892.17
1024.704, 29863.37
1025.186, 29893.03
1025.668, 29957.63
1026.150, 29965.00
1026.632, 29897.52
1027.115, 29841.66
1027.597, 29863.84
1028.079, 29903.69
1028.561, 29915.40
1029.043, 29900.39
1029.525, 29920.62
1030.007, 29980.64
1030.489, 30036.12
1030.972, 30068.94
1031.454, 30083.28
1031.936, 30081.91
1032.418, 30067.43
1032.900, 30045.51
1033.382, 30004.41
1033.864, 29973.08
1034.346, 29943.34
1034.828, 29937.69
1035.311, 30002.79
1035.793, 30122.79
1036.275, 30180.69
1036.757, 30167.26
1037.239, 30148.17
1037.721, 30184.94
1038.203, 30220.02
1038.685, 30201.55
1039.167, 30136.27
1039.650, 30103.76
1040.132, 30108.50
1040.614, 30129.61
1041.096, 30165.73
1041.578, 30204.44
1042.060, 30220.81
1042.542, 30225.65
1043.024, 30241.34
1043.507, 30290.60
1043.989, 30317.10
1044.471, 30294.91
1044.953, 30266.07
1045.435, 30264.86
1045.917, 30288.79
1046.399, 30308.31
1046.881, 30322.43
1047.364, 30325.69
1047.846, 30301.99
1048.328, 30277.57
1048.810, 30267.25
1049.292, 30272.07
1049.774, 30294.05
1050.256, 30346.55
1050.738, 30363.23
1051.220, 30320.08
1051.703, 30265.37
1052.185, 30269.47
1052.667, 30310.71
1053.149, 30357.38
1053.631, 30407.77
1054.113, 30441.21
1054.595, 30437.88
1055.077, 30433.05
1055.559, 30449.80
1056.042, 30481.48
1056.524, 30478.37
1057.006, 30444.04
1057.488, 30407.59
1057.970, 30353.29
1058.452, 30334.54
1058.934, 30425.51
1059.416, 30562.90
1059.899, 30621.30
1060.381, 30569.38
1060.863, 30545.91
1061.345, 30566.49
1061.827, 30597.31
1062.309, 30618.21
1062.791, 30619.68
1063.273, 30563.96
1063.755, 30451.26
1064.238, 30402.55
1064.720, 30516.95
1065.202, 30614.07
1065.684, 30635.10
1066.166, 30607.54
1066.648, 30602.70
1067.130, 30617.71
1067.612, 30638.64
1068.094, 30659.94
1068.577, 30689.10
1069.059, 30763.22
1069.541, 30824.57
1070.023, 30807.13
1070.505, 30684.71
1070.987, 30644.59
1071.469, 30693.37
1071.951, 30754.05
1072.434, 30767.84
1072.916, 30768.51
1073.398, 30804.79
1073.880, 30863.84
1074.362, 30898.20
1074.844, 30880.01
1075.326, 30865.00
1075.808, 30853.43
1076.291, 30858.88
1076.773, 30928.19
1077.255, 31027.59
1077.737, 31039.40
1078.219, 30941.33
1078.701, 30875.32
1079.183, 30961.65
1079.665, 31049.98
1080.147, 31056.56
1080.630, 30999.25
1081.112, 30985.97
1081.594, 31015.49
1082.076, 31050.89
1082.558, 31084.68
1083.040, 31106.83
1083.522, 31095.22
1084.004, 31072.38
1084.486, 31070.16
1084.969, 31101.58
1085.451, 31123.74
1085.933, 31133.50
1086.415, 31145.11
1086.897, 31183.92
1087.379, 31224.51
1087.861, 31199.66
1088.343, 31130.40
1088.826, 31108.33
1089.308, 31241.28
1089.790, 31321.00
1090.272, 31291.46
1090.754, 31216.32
1091.236, 31189.90
1091.718, 31205.18
1092.200, 31234.29
1092.682, 31274.13
1093.165, 31310.72
1093.647, 31349.92
1094.129, 31368.27
1094.611, 31331.74
1095.093, 31255.98
1095.575, 31272.97
1096.057, 31388.45
1096.539, 31445.31
1097.022, 31349.04
1097.504, 31241.88
1097.986, 31306.61
1098.468, 31436.39
1098.950, 31477.22
1099.432, 31353.77
1099.914, 31285.20
1100.396, 31283.98
1100.879, 31300.73
1101.361, 31303.13
1101.843, 31297.88
1102.325, 31303.13
1102.807, 31313.43
1103.289, 31308.23
1103.771, 31251.16
1104.253, 31217.49
1104.735, 31222.27
1105.218, 31250.78
1105.700, 31289.79
1106.182, 31335.69
1106.664, 31372.14
1107.146, 31397.83
1107.628, 31405.08
1108.110, 31360.39
1108.592, 31325.27
1109.074, 31342.00
1109.557, 31396.32
1110.039, 31433.98
1110.521, 31455.15
1111.003, 31463.72
1111.485, 31455.05
1111.967, 31451.45
1112.449, 31500.62
1112.931, 31550.90
1113.414, 31529.64
1113.896, 31401.01
1114.378, 31374.63
1114.860, 31476.86
1115.342, 31565.16
1115.824, 31532.19
1116.306, 31459.75
1116.788, 31485.80
1117.271, 31573.65
1117.753, 31641.92
1118.235, 31660.35
1118.717, 31662.52
1119.199, 31648.60
1119.681, 31624.28
1120.163, 31579.16
1120.645, 31530.55
1121.127, 31541.75
1121.609, 31608.57
1122.092, 31666.25
1122.574, 31671.67
1123.056, 31674.41
1123.538, 31687.08
1124.020, 31710.13
1124.502, 31753.18
1124.984, 31811.65
1125.466, 31843.87
1125.949, 31839.60
1126.431, 31828.61
1126.913, 31831.63
1127.395, 31835.45
1127.877, 31828.13
1128.359, 31811.73
1128.841, 31801.04
1129.323, 31795.49
1129.806, 31808.23
1130.288, 31849.93
1130.770, 31898.82
1131.252, 31941.71
1131.734, 31974.22
1132.216, 31990.35
1132.698, 31991.70
1133.180, 31962.58
1133.662, 31892.06
1134.145, 31838.04
1134.627, 31841.46
1135.109, 31881.04
1135.591, 31947.64
1136.073, 32021.94
1136.555, 32053.21
1137.037, 31971.07
1137.519, 31932.27
1138.001, 31959.01
1138.484, 32002.89
1138.966, 32003.46
1139.448, 31984.84
1139.930, 32016.37
1140.412, 32094.98
1140.894, 32155.09
1141.376, 32158.68
1141.858, 32155.31
1142.341, 32164.04
1142.823, 32168.04
1143.305, 32112.85
1143.787, 32021.57
1144.269, 32014.34
1144.751, 32120.76
1145.233, 32202.29
1145.715, 32107.62
1146.198, 32044.12
1146.680, 32157.85
1147.162, 32391.63
1147.644, 32450.08
1148.126, 32347.38
1148.608, 32278.29
1149.090, 32319.63
1149.572, 32369.16
1150.054, 32344.95
1150.536, 32295.26
1151.019, 32262.40
1151.501, 32247.09
1151.983, 32264.40
1152.465, 32316.45
1152.947, 32349.84
1153.429, 32308.15
1153.911, 32266.02
1154.393, 32318.21
1154.876, 32412.15
1155.358, 32452.68
1155.840, 32415.58
1156.322, 32380.41
1156.804, 32346.46
1157.286, 32326.29
1157.768, 32335.35
1158.250, 32360.29
1158.733, 32393.32
1159.215, 32428.42
1159.697, 32444.46
1160.179, 32423.90
1160.661, 32419.09
1161.143, 32441.42
1161.625, 32465.43
1162.107, 32449.97
1162.589, 32421.67
1163.072, 32429.99
1163.554, 32476.29
1164.036, 32517.24
1164.518, 32545.21
1165.000, 32559.36
1165.482, 32552.36
1165.964, 32542.50
1166.446, 32575.38
1166.928, 32628.28
1167.411, 32646.61
1167.893, 32615.38
1168.375, 32586.08
1168.857, 32563.52
1169.339, 32563.71
1169.821, 32606.86
1170.303, 32667.41
1170.785, 32656.16
1171.268, 32597.34
1171.750, 32574.45
1172.232, 32632.65
1172.714, 32680.38
1173.196, 32650.23
1173.678, 32630.68
1174.160, 32698.38
1174.642, 32826.85
1175.125, 32800.61
1175.607, 32652.22
1176.089, 32562.66
1176.571, 32670.41
1177.053, 32784.46
1177.535, 32830.81
1178.017, 32836.09
1178.499, 32808.59
1178.981, 32749.10
1179.464, 32753.63
1179.946, 32819.36
1180.428, 32884.12
1180.910, 32916.33
1181.392, 32928.84
1181.874, 32926.37
1182.356, 32909.24
1182.838, 32864.49
1183.320, 32788.89
1183.803, 32785.48
1184.285, 32864.22
1184.767, 32951.18
1185.249, 33006.08
1185.731, 33036.16
1186.213, 33041.42
1186.695, 33024.98
1187.177, 32986.24
1187.660, 32921.77
1188.142, 32890.53
1188.624, 32904.54
1189.106, 32934.44
1189.588, 32963.47
1190.070, 32990.17
1190.552, 33009.37
1191.034, 33023.91
1191.516, 33055.81
1191.999, 33107.87
1192.481, 33153.99
1192.963, 33189.62
1193.445, 33211.85
1193.927, 33209.23
1194.409, 33197.56
1194.891, 33189.11
1195.373, 33184.84
1195.855, 33204.01
1196.338, 33250.73
1196.820, 33286.98
1197.302, 33300.30
1197.784, 33291.75
1198.266, 33234.81
1198.748, 33171.10
1199.230, 33159.98
1199.712, 33217.64
1200.195, 33255.70
1200.677, 33272.22
1201.159, 33282.35
1201.641, 33290.89
1202.123, 33300.96
1202.605, 33332.61
1203.087, 33362.20
1203.569, 33343.59
1204.052, 33233.05
1204.534, 33204.14
1205.016, 33268.75
1205.498, 33342.56
1205.980, 33367.12
1206.462, 33370.19
1206.944, 33380.46
1207.426, 33395.02
1207.908, 33406.01
1208.391, 33409.14
1208.873, 33422.47
1209.355, 33450.46
1209.837, 33469.09
1210.319, 33436.88
1210.801, 33400.31
1211.283, 33424.79
1211.765, 33492.10
1212.247, 33530.08
1212.730, 33518.04
1213.212, 33528.75
1213.694, 33574.18
1214.176, 33621.02
1214.658, 33635.42
1215.140, 33635.49
1215.622, 33635.84
1216.104, 33640.05
1216.587, 33662.35
1217.069, 33711.33
1217.551, 33752.25
1218.033, 33782.64
1218.515, 33790.07
1218.997, 33725.14
1219.479, 33653.67
1219.961, 33662.87
1220.443, 33752.69
1220.926, 33814.90
1221.408, 33845.64
1221.890, 33842.57
1222.372, 33799.28
1222.854, 33742.57
1223.336, 33687.62
1223.818, 33648.01
1224.300, 33639.10
1224.782, 33665.25
1225.265, 33720.70
1225.747, 33814.57
1226.229, 33895.81
1226.711, 33953.86
1227.193, 33979.04
1227.675, 33933.48
1228.157, 33863.57
1228.639, 33822.53
1229.122, 33817.68
1229.604, 33837.03
1230.086, 33885.36
1230.568, 33926.30
1231.050, 33943.70
1231.532, 33952.24
1232.014, 33964.23
1232.496, 33979.77
1232.979, 33999.70
1233.461, 34024.17
1233.943, 34055.23
1234.425, 34095.18
1234.907, 34113.69
1235.389, 34077.07
1235.871, 34044.36
1236.353, 34100.91
1236.835, 34181.92
1237.318, 34189.69
1237.800, 34104.66
1238.282, 34093.65
1238.764, 34160.87
1239.246, 34217.09
1239.728, 34204.28
1240.210, 34170.41
1240.692, 34137.11
1241.175, 34117.51
1241.657, 34130.14
1242.139, 34179.15
1242.621, 34238.46
1243.103, 34308.90
1243.585, 34357.04
1244.067, 34352.58
1244.549, 34330.96
1245.031, 34296.90
1245.514, 34271.86
1245.996, 34285.03
1246.478, 34340.04
1246.960, 34398.74
1247.442, 34459.50
1247.924, 34501.99
1248.406, 34504.02
1248.888, 34493.33
1249.370, 34481.85
1249.853, 34468.52
1250.335, 34446.08
1250.817, 34415.82
1251.299, 34414.00
1251.781, 34441.39
1252.263, 34484.07
1252.745, 34571.18
1253.227, 34625.94
1253.710, 34579.73
1254.192, 34510.66
1254.674, 34525.87
1255.156, 34611.14
1255.638, 34670.36
1256.120, 34697.36
1256.602, 34696.20
1257.084, 34613.45
1257.567, 34577.36
1258.049, 34644.11
1258.531, 34752.28
1259.013, 34831.17
1259.495, 34878.78
1259.977, 34875.82
1260.459, 34825.89
1260.941, 34781.46
1261.423, 34752.29
1261.906, 34756.82
1262.388, 34814.40
1262.870, 34880.02
1263.352, 34874.92
1263.834, 34831.59
1264.316, 34826.95
1264.798, 34865.23
1265.280, 34904.17
1265.762, 34932.29
1266.245, 34960.98
1266.727, 34998.96
1267.209, 35023.04
1267.691, 34972.51
1268.173, 34900.46
1268.655, 34907.38
1269.137, 34996.08
1269.619, 35053.32
1270.102, 35052.85
1270.584, 35060.77
1271.066, 35093.95
1271.548, 35128.23
1272.030, 35132.50
1272.512, 35120.39
1272.994, 35101.31
1273.476, 35078.63
1273.958, 35074.91
1274.441, 35094.36
1274.923, 35111.16
1275.405, 35116.20
1275.887, 35132.91
1276.369, 35227.74
1276.851, 35313.36
1277.333, 35279.71
1277.815, 35149.46
1278.297, 35081.95
1278.780, 35079.12
1279.262, 35116.92
1279.744, 35198.29
1280.226, 35266.90
1280.708, 35264.32
1281.190, 35243.38
1281.672, 35232.25
1282.154, 35236.59
1282.637, 35288.24
1283.119, 35380.68
1283.601, 35452.66
1284.083, 35493.52
1284.565, 35502.36
1285.047, 35464.57
1285.529, 35405.79
1286.011, 35321.86
1286.494, 35240.86
1286.976, 35262.38
1287.458, 35356.88
1287.940, 35428.63
1288.422, 35458.26
1288.904, 35462.41
1289.386, 35408.41
1289.868, 35385.11
1290.350, 35431.70
1290.833, 35511.24
1291.315, 35559.71
1291.797, 35582.50
1292.279, 35582.23
1292.761, 35553.79
1293.243, 35556.70
1293.725, 35609.40
1294.207, 35659.82
1294.689, 35694.86
1295.172, 35711.20
1295.654, 35687.68
1296.136, 35651.57
1296.618, 35645.24
1297.100, 35678.28
1297.582, 35671.32
1298.064, 35613.64
1298.546, 35586.32
1299.029, 35621.18
1299.511, 35673.87
1299.993, 35704.83
1300.475, 35725.30
1300.957, 35758.37
1301.439, 35795.41
1301.921, 35739.42
1302.403, 35595.99
1302.885, 35541.80
1303.368, 35642.02
1303.850, 35766.22
1304.332, 35845.96
1304.814, 35894.25
1305.296, 35922.53
1305.778, 35930.34
1306.260, 35897.22
1306.742, 35840.72
1307.224, 35839.81
1307.707, 35927.05
1308.189, 35994.19
1308.671, 35980.33
1309.153, 35958.11
1309.635, 35948.19
1310.117, 35951.21
1310.599, 35980.09
1311.081, 36019.58
1311.564, 36028.39
1312.046, 35989.03
1312.528, 36014.46
1313.010, 36152.57
1313.492, 36231.41
1313.974, 36174.06
1314.456, 36077.71
1314.938, 36063.38
##END=



