##NAMES=Fluor-liddicoatite
##RRUFFID=R060635
##IDEAL CHEMISTRY=Ca(Li_2_Al)Al_6_(Si_6_O_18_)(BO_3_)_3_(OH)_3_F
##LOCALITY=unknown
##OWNER=RRUFF
##SOURCE=Gemological Institute of America
##DESCRIPTION=Rootbeer brown cut gemstone
##STATUS=The identification of this mineral has been confirmed by X-ray diffraction and chemical analysis
##URL=rruff.info/R060635
##MEASURED CHEMISTRY=(Li_1.84_Al_1.05_Mn_0.11_)_Σ=3_(Ca_0.82_Na_0.15_[box]_0.03_)_Σ=1_Al_6.00_(BO_3_)_3_[Si_6.00_O_18_]((OH)_3.16_F_0.84_)_Σ=4_
91.72394, 0.0000000E+00
92.20605, 57.91846
92.68817, 59.05691
93.17029, 59.96050
93.65240, 59.52674
94.13452, 58.64329
94.61664, 57.71355
95.09875, 56.98904
95.58087, 56.31390
96.06299, 55.05621
96.54510, 52.52416
97.02721, 50.43490
97.50933, 49.37476
97.99145, 48.88118
98.47356, 48.31335
98.95568, 47.18340
99.43780, 45.41192
99.91991, 43.98431
100.4020, 42.80663
100.8841, 41.94088
101.3663, 41.59359
101.8484, 41.65269
102.3305, 41.69610
102.8126, 41.27023
103.2947, 40.20373
103.7768, 39.41616
104.2590, 38.96033
104.7411, 38.74123
105.2232, 38.72441
105.7053, 38.93813
106.1874, 39.19086
106.6695, 39.19959
107.1517, 38.98499
107.6338, 38.75840
108.1159, 38.60918
108.5980, 38.52454
109.0801, 38.43696
109.5622, 38.29152
110.0444, 38.17524
110.5265, 38.15272
111.0086, 38.22971
111.4907, 38.37200
111.9728, 38.53289
112.4549, 38.69006
112.9371, 38.94604
113.4192, 39.51002
113.9013, 40.06750
114.3834, 40.36290
114.8655, 40.29738
115.3476, 39.99731
115.8298, 39.79089
116.3119, 39.63442
116.7940, 39.65337
117.2761, 39.98140
117.7582, 40.45771
118.2403, 40.88100
118.7225, 41.13152
119.2046, 41.22378
119.6867, 41.31496
120.1688, 41.19658
120.6509, 41.27439
121.1330, 41.85291
121.6152, 42.81321
122.0973, 43.71587
122.5794, 44.21142
123.0615, 44.27699
123.5436, 44.35012
124.0257, 44.28175
124.5079, 44.30386
124.9900, 44.66655
125.4721, 45.41871
125.9542, 46.32515
126.4363, 47.29878
126.9184, 48.28434
127.4006, 49.10617
127.8827, 49.54039
128.3648, 49.73854
128.8469, 50.18053
129.3290, 51.06128
129.8111, 51.98284
130.2932, 52.74757
130.7754, 53.36062
131.2575, 53.84782
131.7396, 54.13538
132.2217, 54.17153
132.7038, 54.48081
133.1859, 55.21149
133.6681, 56.13641
134.1502, 57.30315
134.6323, 58.65064
135.1144, 59.94853
135.5965, 60.85263
136.0786, 61.01288
136.5608, 61.49849
137.0429, 62.47169
137.5250, 63.60836
138.0071, 64.67295
138.4892, 65.59232
138.9713, 66.43986
139.4535, 67.34599
139.9356, 68.24025
140.4177, 69.31121
140.8998, 70.75709
141.3819, 72.34653
141.8640, 73.72396
142.3462, 74.69117
142.8283, 75.44827
143.3104, 76.59328
143.7925, 78.41820
144.2746, 80.04929
144.7567, 80.92380
145.2388, 81.22308
145.7210, 81.75575
146.2031, 83.06197
146.6852, 84.75410
147.1673, 86.07143
147.6494, 86.92520
148.1315, 87.48357
148.6137, 87.88539
149.0958, 88.13256
149.5779, 88.20925
150.0600, 88.07696
150.5421, 87.77413
151.0242, 87.27905
151.5064, 86.53282
151.9885, 85.66293
152.4706, 84.98730
152.9527, 84.74125
153.4348, 84.21199
153.9169, 83.13832
154.3991, 81.72421
154.8812, 80.19606
155.3633, 78.68342
155.8454, 77.16908
156.3275, 75.56082
156.8096, 73.75510
157.2918, 71.96164
157.7739, 70.11541
158.2560, 68.31300
158.7381, 66.73952
159.2202, 65.55383
159.7023, 64.76979
160.1845, 63.85285
160.6666, 62.74056
161.1487, 61.57666
161.6308, 60.38725
162.1129, 59.18866
162.5950, 57.99245
163.0772, 56.79684
163.5593, 55.58390
164.0414, 54.61241
164.5235, 54.07044
165.0056, 53.60917
165.4877, 52.89864
165.9698, 51.92855
166.4520, 51.11076
166.9341, 50.98479
167.4162, 51.55278
167.8983, 51.81884
168.3804, 51.32305
168.8625, 50.61269
169.3447, 50.43085
169.8268, 50.96708
170.3089, 51.66697
170.7910, 51.90289
171.2731, 51.80263
171.7552, 51.83919
172.2374, 52.25614
172.7195, 52.95243
173.2016, 53.69741
173.6837, 54.64465
174.1658, 55.33415
174.6479, 55.28728
175.1301, 54.68551
175.6122, 54.22914
176.0943, 54.49823
176.5764, 55.45938
177.0585, 56.31109
177.5406, 57.03211
178.0228, 57.59034
178.5049, 57.92535
178.9870, 58.06815
179.4691, 58.12985
179.9512, 58.26543
180.4333, 58.55307
180.9155, 58.54120
181.3976, 57.93679
181.8797, 57.27651
182.3618, 56.80842
182.8439, 56.54698
183.3260, 56.34817
183.8082, 55.98313
184.2903, 55.18491
184.7724, 54.96993
185.2545, 55.66563
185.7366, 56.57361
186.2187, 57.27157
186.7009, 57.67333
187.1830, 57.94275
187.6651, 58.29765
188.1472, 58.70288
188.6293, 59.31663
189.1114, 60.33191
189.5936, 61.43481
190.0757, 62.25033
190.5578, 62.68703
191.0399, 63.12764
191.5220, 64.23625
192.0041, 66.30968
192.4863, 68.22293
192.9684, 69.85802
193.4505, 71.26328
193.9326, 72.41033
194.4147, 73.23470
194.8968, 74.03979
195.3790, 75.37888
195.8611, 77.23633
196.3432, 79.25823
196.8253, 81.56947
197.3074, 83.96668
197.7895, 85.98059
198.2717, 87.39510
198.7538, 88.53367
199.2359, 89.82259
199.7180, 91.27253
200.2001, 92.68465
200.6822, 93.92137
201.1644, 95.02410
201.6465, 96.18125
202.1286, 97.46007
202.6107, 98.78981
203.0928, 100.0983
203.5749, 101.3892
204.0571, 102.6521
204.5392, 103.9149
205.0213, 105.1788
205.5034, 106.3031
205.9855, 107.3063
206.4676, 108.0963
206.9497, 108.5385
207.4319, 108.6543
207.9140, 108.6894
208.3961, 108.8800
208.8782, 109.2465
209.3603, 109.6403
209.8424, 109.9023
210.3246, 110.3015
210.8067, 111.1085
211.2888, 112.2849
211.7709, 113.4592
212.2530, 114.0896
212.7351, 113.8514
213.2173, 114.0957
213.6994, 115.0394
214.1815, 116.2658
214.6636, 117.6227
215.1457, 119.0529
215.6278, 120.5390
216.1100, 122.0392
216.5921, 123.4752
217.0742, 125.1513
217.5563, 127.3002
218.0384, 129.4702
218.5205, 131.2596
219.0027, 132.6618
219.4848, 134.1163
219.9669, 136.2271
220.4490, 139.3586
220.9311, 142.2816
221.4132, 144.7030
221.8954, 147.1457
222.3775, 150.2552
222.8596, 154.0479
223.3417, 157.6878
223.8238, 160.0354
224.3059, 160.3665
224.7881, 161.3006
225.2702, 163.5764
225.7523, 166.0081
226.2344, 167.5235
226.7165, 167.9391
227.1986, 167.8475
227.6807, 167.8931
228.1629, 168.0879
228.6450, 168.4177
229.1271, 168.9738
229.6092, 169.6192
230.0913, 170.1703
230.5734, 170.5878
231.0556, 171.0673
231.5377, 171.8954
232.0198, 173.0668
232.5019, 174.0978
232.9840, 174.7742
233.4661, 175.3265
233.9483, 176.0141
234.4304, 176.8692
234.9125, 177.8727
235.3946, 179.3120
235.8767, 181.0128
236.3588, 182.0529
236.8410, 181.7244
237.3231, 180.7573
237.8052, 180.4168
238.2873, 181.0594
238.7694, 181.3778
239.2515, 180.2495
239.7337, 178.0194
240.2158, 175.1768
240.6979, 171.4675
241.1800, 167.3412
241.6621, 163.7814
242.1442, 161.0700
242.6264, 158.1362
243.1085, 153.9185
243.5906, 149.0659
244.0727, 144.6540
244.5548, 141.3964
245.0369, 138.7477
245.5191, 135.4651
246.0012, 131.2392
246.4833, 127.1228
246.9654, 123.6882
247.4475, 120.6526
247.9296, 117.6586
248.4117, 114.5294
248.8939, 111.3816
249.3760, 108.3657
249.8581, 105.3486
250.3402, 102.8079
250.8223, 101.2518
251.3044, 100.0787
251.7866, 98.57833
252.2687, 96.37537
252.7508, 93.86640
253.2329, 91.95033
253.7150, 90.89175
254.1971, 89.93796
254.6793, 88.98296
255.1614, 87.98808
255.6435, 86.83804
256.1256, 85.47330
256.6077, 84.10963
257.0898, 83.23804
257.5720, 83.17022
258.0541, 83.00510
258.5362, 82.46908
259.0183, 81.86430
259.5004, 81.46423
259.9825, 81.36123
260.4647, 81.41050
260.9468, 81.33448
261.4289, 81.03248
261.9110, 80.80215
262.3931, 80.76203
262.8752, 80.72886
263.3574, 80.47742
263.8395, 79.97844
264.3216, 79.49156
264.8037, 79.46111
265.2858, 80.19995
265.7679, 80.78493
266.2501, 81.23489
266.7322, 81.53787
267.2143, 81.64735
267.6964, 81.57384
268.1785, 81.39820
268.6606, 81.19935
269.1428, 80.86685
269.6249, 80.83089
270.1070, 81.26138
270.5891, 81.79237
271.0712, 82.22807
271.5533, 82.53762
272.0355, 82.78248
272.5176, 83.02712
272.9997, 83.26974
273.4818, 83.51154
273.9639, 83.57784
274.4460, 83.78848
274.9282, 84.44762
275.4103, 85.45886
275.8924, 86.40893
276.3745, 86.89433
276.8566, 86.83858
277.3387, 87.06224
277.8208, 87.70189
278.3029, 88.41871
278.7851, 89.14529
279.2672, 89.83797
279.7493, 90.41273
280.2314, 90.79500
280.7135, 90.99248
281.1956, 91.25105
281.6778, 91.55447
282.1599, 91.92213
282.6420, 92.56131
283.1241, 93.27475
283.6062, 93.60625
284.0883, 93.24426
284.5705, 92.32989
285.0526, 91.70208
285.5347, 91.71252
286.0168, 91.55313
286.4989, 90.84165
286.9810, 89.85988
287.4632, 89.14583
287.9453, 88.98330
288.4274, 89.10862
288.9095, 88.74664
289.3916, 87.51709
289.8737, 86.40628
290.3559, 85.52007
290.8380, 84.85475
291.3201, 84.52073
291.8022, 84.57769
292.2843, 84.70576
292.7664, 84.27435
293.2486, 82.94852
293.7307, 81.87556
294.2128, 81.32242
294.6949, 81.00340
295.1770, 80.54424
295.6591, 79.85894
296.1413, 79.28867
296.6234, 79.34490
297.1055, 80.28491
297.5876, 80.79588
298.0697, 80.37000
298.5518, 79.78874
299.0340, 79.79774
299.5161, 80.45803
299.9982, 81.22084
300.4803, 81.56067
300.9624, 81.42381
301.4445, 81.46878
301.9267, 81.89426
302.4088, 82.33541
302.8909, 82.49775
303.3730, 82.41544
303.8551, 82.41011
304.3372, 82.77163
304.8194, 83.41841
305.3015, 83.65842
305.7836, 83.01647
306.2657, 82.48170
306.7478, 82.68616
307.2299, 83.41043
307.7121, 83.91564
308.1942, 83.71971
308.6763, 83.15006
309.1584, 83.38773
309.6405, 85.01248
310.1227, 86.39990
310.6048, 86.79463
311.0869, 86.62086
311.5690, 86.69868
312.0511, 87.36456
312.5332, 88.29745
313.0154, 88.84737
313.4975, 88.91470
313.9796, 88.99474
314.4617, 89.13960
314.9438, 89.36588
315.4259, 89.71374
315.9081, 90.19526
316.3902, 90.75518
316.8723, 91.41293
317.3544, 92.24746
317.8365, 92.59349
318.3186, 91.95150
318.8007, 91.07524
319.2828, 90.69438
319.7650, 90.86484
320.2471, 91.10258
320.7292, 90.99362
321.2113, 90.52129
321.6934, 90.07254
322.1755, 89.65833
322.6577, 89.25515
323.1398, 88.81197
323.6219, 88.35405
324.1040, 87.98807
324.5861, 87.79789
325.0682, 87.74855
325.5504, 87.65932
326.0325, 87.80406
326.5146, 87.62222
326.9967, 86.66343
327.4788, 85.24711
327.9609, 84.00127
328.4431, 83.17844
328.9252, 82.70761
329.4073, 82.49302
329.8894, 82.76123
330.3715, 82.76245
330.8536, 82.11430
331.3358, 81.21523
331.8179, 80.56567
332.3000, 80.29808
332.7821, 80.23769
333.2642, 80.16481
333.7463, 80.06539
334.2285, 80.01578
334.7106, 80.17949
335.1927, 80.28598
335.6748, 80.00975
336.1569, 79.37170
336.6390, 78.78047
337.1212, 78.60429
337.6033, 78.86770
338.0854, 79.12455
338.5675, 79.41738
339.0496, 79.66759
339.5317, 79.75710
340.0139, 79.76103
340.4960, 79.90648
340.9781, 80.35128
341.4602, 81.01644
341.9423, 81.49882
342.4244, 81.59977
342.9066, 81.78426
343.3887, 82.27797
343.8708, 82.87802
344.3529, 83.20823
344.8350, 83.11498
345.3171, 82.92361
345.7993, 83.27312
346.2814, 84.76721
346.7635, 85.76901
347.2456, 85.93616
347.7277, 85.80430
348.2098, 85.80907
348.6920, 86.02762
349.1741, 86.29091
349.6562, 86.39790
350.1383, 86.29329
350.6204, 86.31802
351.1025, 86.48769
351.5847, 86.74731
352.0668, 87.17285
352.5489, 87.67785
353.0310, 88.03622
353.5131, 88.06294
353.9952, 87.80122
354.4774, 87.70467
354.9595, 87.57807
355.4416, 87.83855
355.9237, 88.83591
356.4058, 90.19125
356.8879, 91.36987
357.3701, 92.12916
357.8522, 92.69949
358.3343, 93.63277
358.8164, 95.24023
359.2985, 96.75133
359.7806, 97.99152
360.2627, 99.24338
360.7448, 100.6503
361.2270, 102.2789
361.7091, 104.1974
362.1912, 106.5555
362.6733, 109.5069
363.1554, 112.2196
363.6375, 114.2598
364.1197, 116.4832
364.6018, 119.1494
365.0839, 122.3020
365.5660, 125.8918
366.0481, 129.9079
366.5302, 134.3286
367.0124, 138.9939
367.4945, 144.0105
367.9766, 149.1580
368.4587, 154.0197
368.9408, 159.0997
369.4229, 165.0628
369.9051, 172.1587
370.3872, 179.9663
370.8693, 187.7357
371.3514, 195.3515
371.8335, 203.2108
372.3156, 211.9920
372.7978, 220.5703
373.2799, 228.4949
373.7620, 235.5809
374.2441, 241.7959
374.7262, 247.2139
375.2083, 251.8606
375.6905, 254.9430
376.1726, 255.8495
376.6547, 255.7051
377.1368, 255.1443
377.6189, 253.9752
378.1010, 251.7646
378.5832, 248.2164
379.0653, 243.4933
379.5474, 237.9207
380.0295, 231.3085
380.5116, 224.3294
380.9937, 217.1344
381.4759, 209.7480
381.9580, 202.0777
382.4401, 194.0457
382.9222, 186.0715
383.4043, 178.6687
383.8864, 171.8193
384.3686, 165.1092
384.8507, 158.2474
385.3328, 151.7626
385.8149, 145.9294
386.2970, 140.7788
386.7791, 136.2134
387.2613, 132.4535
387.7434, 129.2592
388.2255, 125.9539
388.7076, 122.3703
389.1897, 119.1426
389.6718, 116.8742
390.1540, 115.2757
390.6361, 113.8460
391.1182, 112.6315
391.6003, 111.4031
392.0824, 109.8084
392.5645, 107.9119
393.0467, 106.3459
393.5288, 105.4038
394.0109, 104.9229
394.4930, 104.5968
394.9751, 104.4537
395.4572, 104.3341
395.9394, 104.0228
396.4215, 103.7356
396.9036, 103.8939
397.3857, 104.6121
397.8678, 105.5267
398.3499, 106.2875
398.8321, 106.8809
399.3142, 107.4615
399.7963, 107.7037
400.2784, 108.2112
400.7605, 109.5918
401.2426, 111.6830
401.7247, 113.7449
402.2068, 115.3172
402.6890, 116.5389
403.1711, 118.0032
403.6532, 119.9035
404.1353, 121.7653
404.6174, 123.5432
405.0995, 125.2251
405.5817, 126.8102
406.0638, 128.2876
406.5459, 129.6114
407.0280, 130.7363
407.5101, 131.7311
407.9922, 132.2159
408.4744, 132.1876
408.9565, 131.7289
409.4386, 130.9043
409.9207, 129.6931
410.4028, 127.9949
410.8849, 125.6828
411.3671, 122.8361
411.8492, 120.0086
412.3313, 117.3513
412.8134, 114.5208
413.2955, 111.4422
413.7776, 108.1850
414.2598, 104.7441
414.7419, 101.1360
415.2240, 97.54808
415.7061, 94.28316
416.1882, 91.40162
416.6703, 88.58164
417.1525, 85.72089
417.6346, 83.01225
418.1167, 80.59254
418.5988, 78.40893
419.0809, 76.32520
419.5630, 74.18516
420.0452, 72.06978
420.5273, 70.33249
421.0094, 69.18359
421.4915, 67.99098
421.9736, 66.36027
422.4557, 64.63433
422.9379, 63.20559
423.4200, 62.19654
423.9021, 61.39868
424.3842, 60.66020
424.8663, 59.97626
425.3484, 59.18309
425.8306, 58.17574
426.3127, 57.14001
426.7948, 56.18604
427.2769, 55.32388
427.7590, 54.62772
428.2411, 54.20436
428.7233, 53.93354
429.2054, 53.64223
429.6875, 53.31925
430.1696, 53.01111
430.6517, 52.79040
431.1339, 52.58913
431.6160, 52.21261
432.0981, 51.49391
432.5802, 50.86344
433.0623, 50.67706
433.5444, 50.72083
434.0266, 50.51672
434.5087, 49.90633
434.9908, 49.13344
435.4729, 48.49916
435.9550, 48.01387
436.4371, 47.67760
436.9193, 47.64960
437.4014, 47.64228
437.8835, 47.41500
438.3656, 47.01207
438.8477, 46.66442
439.3298, 46.53568
439.8120, 46.57113
440.2941, 46.47863
440.7762, 46.16676
441.2583, 45.83645
441.7404, 45.40091
442.2225, 45.01152
442.7046, 44.88039
443.1867, 45.03426
443.6689, 45.24989
444.1510, 45.23407
444.6331, 44.93285
445.1152, 44.66970
445.5973, 44.30939
446.0794, 44.12551
446.5616, 44.38985
447.0437, 44.88416
447.5258, 45.18951
448.0079, 45.04290
448.4900, 44.63915
448.9721, 44.49657
449.4543, 44.76471
449.9364, 44.86276
450.4185, 44.41240
450.9006, 43.90665
451.3827, 43.71122
451.8648, 43.85495
452.3470, 44.07360
452.8291, 44.12837
453.3112, 44.07660
453.7933, 44.20324
454.2754, 44.60838
454.7575, 44.98498
455.2397, 45.03391
455.7218, 44.92818
456.2039, 44.97879
456.6860, 45.38097
457.1681, 45.77372
457.6502, 45.75284
458.1324, 45.42660
458.6145, 45.30931
459.0966, 45.61018
459.5787, 46.10594
460.0608, 46.50732
460.5429, 46.82835
461.0251, 47.01526
461.5072, 46.92263
461.9893, 46.78444
462.4714, 46.86592
462.9535, 47.13803
463.4356, 47.32048
463.9178, 47.20568
464.3999, 46.86121
464.8820, 46.65740
465.3641, 46.63663
465.8462, 46.69021
466.3283, 46.86775
466.8105, 47.08008
467.2926, 47.25099
467.7747, 47.35531
468.2568, 47.38001
468.7389, 47.30350
469.2210, 47.11158
469.7032, 46.90540
470.1853, 46.61665
470.6674, 46.38543
471.1495, 46.31393
471.6316, 46.31620
472.1137, 46.24778
472.5959, 46.03584
473.0780, 45.75502
473.5601, 45.52697
474.0422, 45.33886
474.5243, 45.26229
475.0064, 45.46405
475.4886, 45.65706
475.9707, 45.68763
476.4528, 45.55104
476.9349, 45.29209
477.4170, 44.82130
477.8991, 44.27128
478.3813, 43.96834
478.8634, 43.95039
479.3455, 43.94922
479.8276, 43.69268
480.3097, 43.44559
480.7918, 43.73011
481.2740, 44.80980
481.7561, 45.72822
482.2382, 45.83892
482.7203, 45.49773
483.2024, 45.39100
483.6845, 45.66273
484.1666, 45.97652
484.6487, 45.99169
485.1309, 45.69539
485.6130, 45.56486
486.0951, 45.64109
486.5772, 45.82661
487.0593, 46.17200
487.5414, 46.58148
488.0236, 46.84747
488.5057, 46.88885
488.9878, 46.89136
489.4699, 47.20507
489.9520, 48.05468
490.4341, 48.66729
490.9163, 49.00028
491.3984, 49.17807
491.8805, 49.15593
492.3626, 49.02983
492.8447, 49.00218
493.3268, 49.21761
493.8090, 49.57951
494.2911, 49.75950
494.7732, 49.59936
495.2553, 49.68814
495.7374, 50.38369
496.2195, 51.22463
496.7017, 51.92493
497.1838, 52.45324
497.6659, 52.89750
498.1480, 53.32458
498.6301, 53.71003
499.1122, 53.96903
499.5944, 54.08120
500.0765, 54.14323
500.5586, 54.14325
501.0407, 54.15539
501.5228, 54.33837
502.0049, 54.78172
502.4871, 55.21751
502.9692, 55.47080
503.4513, 55.63848
503.9334, 55.92279
504.4155, 56.36852
504.8976, 56.81966
505.3798, 57.10722
505.8619, 57.21974
506.3440, 57.43536
506.8261, 57.91565
507.3082, 58.30951
507.7903, 58.38652
508.2725, 58.32347
508.7546, 58.43506
509.2367, 58.83115
509.7188, 59.29612
510.2009, 59.47300
510.6830, 59.26928
511.1652, 59.09191
511.6473, 58.82579
512.1294, 58.70145
512.6115, 58.94849
513.0936, 59.39048
513.5757, 59.69817
514.0579, 59.71429
514.5400, 59.48385
515.0221, 59.01746
515.5042, 58.26493
515.9863, 57.65186
516.4684, 57.37477
516.9506, 57.16920
517.4327, 56.79951
517.9148, 56.28515
518.3969, 55.79065
518.8790, 55.49292
519.3611, 55.18898
519.8433, 54.55291
520.3254, 53.60611
520.8075, 52.67788
521.2896, 51.87197
521.7717, 51.24137
522.2538, 51.02129
522.7360, 51.46990
523.2181, 51.52791
523.7002, 50.63858
524.1823, 49.55094
524.6644, 49.00759
525.1465, 48.97314
525.6287, 48.84164
526.1108, 48.12875
526.5929, 47.01512
527.0750, 46.45854
527.5571, 46.97998
528.0392, 47.34281
528.5214, 47.30723
529.0035, 47.16768
529.4856, 47.19844
529.9677, 47.40696
530.4498, 47.56480
530.9319, 47.40137
531.4141, 47.00068
531.8962, 46.94104
532.3783, 47.44722
532.8604, 47.77169
533.3425, 47.41879
533.8246, 46.80058
534.3068, 46.27717
534.7889, 45.88688
535.2710, 45.70298
535.7531, 45.92124
536.2352, 46.35003
536.7173, 46.55816
537.1995, 46.47902
537.6816, 46.34925
538.1637, 46.36611
538.6458, 46.48277
539.1279, 46.42504
539.6100, 45.97735
540.0922, 45.63586
540.5743, 45.59854
541.0564, 45.71564
541.5385, 45.86026
542.0206, 45.97982
542.5027, 45.96164
542.9849, 45.63996
543.4670, 45.00021
543.9491, 44.70363
544.4312, 45.06300
544.9133, 45.40969
545.3954, 45.70830
545.8775, 45.88096
546.3596, 45.77014
546.8417, 45.35783
547.3239, 44.94841
547.8060, 44.93582
548.2881, 45.27672
548.7702, 45.45351
549.2523, 45.38828
549.7344, 45.27461
550.2166, 45.26990
550.6987, 45.28316
551.1808, 45.12579
551.6629, 44.63210
552.1450, 44.27976
552.6271, 44.51775
553.1093, 45.08302
553.5914, 45.45317
554.0735, 45.52427
554.5556, 45.39163
555.0377, 45.10527
555.5198, 44.66774
556.0020, 44.32016
556.4841, 44.11988
556.9662, 43.92545
557.4483, 43.60776
557.9304, 43.31652
558.4125, 43.30276
558.8947, 43.59279
559.3768, 43.90089
559.8589, 43.88300
560.3410, 43.52983
560.8231, 43.29129
561.3052, 43.26184
561.7874, 43.21434
562.2695, 43.12571
562.7516, 42.95960
563.2337, 42.63091
563.7158, 42.10898
564.1979, 41.60939
564.6801, 41.39890
565.1622, 41.36436
565.6443, 41.02763
566.1264, 40.23790
566.6085, 39.69649
567.0906, 40.06427
567.5728, 41.05245
568.0549, 41.50797
568.5370, 41.12326
569.0191, 40.69606
569.5012, 40.40623
569.9833, 40.26665
570.4655, 40.38218
570.9476, 40.72099
571.4297, 40.99277
571.9118, 40.90971
572.3939, 40.51215
572.8760, 40.32467
573.3582, 40.45583
573.8403, 40.66309
574.3224, 41.02124
574.8045, 41.36780
575.2866, 41.56917
575.7687, 41.60579
576.2509, 41.52814
576.7330, 41.30622
577.2151, 41.00494
577.6972, 40.91281
578.1793, 41.08995
578.6614, 41.21001
579.1436, 41.04134
579.6257, 40.79387
580.1078, 40.81396
580.5899, 41.16911
581.0720, 41.41938
581.5541, 41.34989
582.0363, 41.12165
582.5184, 40.81837
583.0005, 40.49824
583.4826, 40.41468
583.9647, 40.76731
584.4468, 41.34521
584.9290, 41.51897
585.4111, 40.77598
585.8932, 40.43292
586.3753, 40.90408
586.8574, 41.38758
587.3395, 41.26496
587.8217, 40.70385
588.3038, 40.30582
588.7859, 40.46295
589.2680, 40.89856
589.7501, 40.97329
590.2322, 40.61550
590.7144, 40.42534
591.1965, 40.68967
591.6786, 40.96648
592.1607, 40.82296
592.6428, 40.35048
593.1249, 39.96911
593.6071, 39.86965
594.0892, 39.85496
594.5713, 39.74524
595.0534, 39.58951
595.5355, 39.57337
596.0176, 39.77202
596.4998, 39.94641
596.9819, 39.74754
597.4640, 39.05690
597.9461, 38.73352
598.4282, 39.04195
598.9103, 39.35730
599.3925, 39.49136
599.8746, 39.50850
600.3567, 39.50933
600.8388, 39.52436
601.3209, 39.51601
601.8030, 39.38549
602.2852, 39.14474
602.7673, 39.15814
603.2494, 39.61055
603.7315, 39.91986
604.2136, 39.59177
604.6957, 39.01569
605.1779, 38.71750
605.6600, 38.80323
606.1421, 38.95211
606.6242, 38.94174
607.1063, 38.92722
607.5884, 39.28453
608.0706, 39.97080
608.5527, 40.32368
609.0348, 39.84810
609.5169, 38.81142
609.9990, 38.13165
610.4811, 37.95433
610.9633, 37.95575
611.4454, 38.33411
611.9275, 38.71178
612.4096, 38.73223
612.8917, 38.52787
613.3738, 38.57462
613.8560, 39.23860
614.3381, 40.07157
614.8202, 40.05632
615.3023, 39.09595
615.7844, 38.56051
616.2665, 38.87544
616.7487, 39.47136
617.2308, 39.95077
617.7129, 40.30837
618.1950, 40.48419
618.6771, 40.17901
619.1592, 39.98265
619.6414, 40.35147
620.1235, 41.05790
620.6056, 41.67536
621.0877, 42.09463
621.5698, 42.45918
622.0519, 42.90830
622.5341, 43.44385
623.0162, 44.06720
623.4983, 44.88688
623.9804, 45.65951
624.4625, 46.27623
624.9446, 46.87017
625.4268, 47.53494
625.9089, 48.29480
626.3910, 49.17471
626.8730, 50.19813
627.3552, 51.35010
627.8373, 52.66774
628.3194, 54.18106
628.8015, 55.45247
629.2836, 56.18980
629.7657, 56.74131
630.2479, 57.71434
630.7300, 59.14216
631.2121, 60.46319
631.6942, 61.61565
632.1763, 62.62333
632.6584, 63.54144
633.1406, 64.32594
633.6227, 64.88142
634.1048, 65.16917
634.5869, 65.25545
635.0690, 65.25812
635.5511, 65.21033
636.0333, 64.82970
636.5154, 63.95223
636.9975, 62.95723
637.4796, 61.99393
637.9617, 61.00425
638.4438, 59.88156
638.9260, 58.59379
639.4081, 57.33390
639.8902, 56.34000
640.3723, 55.43730
640.8544, 54.22281
641.3365, 52.68849
641.8187, 51.21216
642.3008, 49.96513
642.7829, 48.98432
643.2650, 48.39349
643.7471, 48.70713
644.2292, 48.41125
644.7114, 46.93848
645.1935, 45.40026
645.6756, 44.42921
646.1577, 43.88664
646.6398, 43.34286
647.1219, 42.59600
647.6041, 41.87027
648.0862, 41.59043
648.5683, 41.74481
649.0504, 41.62568
649.5325, 41.07078
650.0146, 40.44854
650.4968, 39.92498
650.9789, 39.52175
651.4610, 39.31335
651.9431, 39.38410
652.4252, 39.47162
652.9073, 39.43486
653.3895, 39.38628
653.8716, 39.53691
654.3537, 39.83414
654.8358, 39.95237
655.3179, 39.66907
655.8000, 39.12435
656.2822, 38.68745
656.7643, 38.33210
657.2464, 38.15638
657.7285, 38.31953
658.2106, 38.52814
658.6927, 38.70008
659.1749, 38.81229
659.6570, 38.82823
660.1391, 38.72380
660.6212, 38.55261
661.1033, 38.31076
661.5854, 38.04464
662.0676, 37.90400
662.5497, 37.91614
663.0318, 37.90104
663.5139, 37.69923
663.9960, 37.37117
664.4781, 37.21712
664.9603, 37.40070
665.4424, 37.53528
665.9245, 37.55764
666.4066, 37.56986
666.8887, 37.69360
667.3708, 37.87163
667.8530, 37.92286
668.3351, 37.72939
668.8172, 37.43392
669.2993, 37.22747
669.7814, 37.11250
670.2635, 37.19912
670.7457, 37.60811
671.2278, 37.94741
671.7099, 37.83661
672.1920, 37.39410
672.6741, 37.14824
673.1563, 37.23788
673.6384, 37.31887
674.1205, 37.36772
674.6026, 37.30997
675.0847, 37.00096
675.5668, 36.49358
676.0490, 36.02907
676.5311, 35.77142
677.0132, 35.62175
677.4953, 35.28957
677.9774, 34.69690
678.4595, 34.30584
678.9417, 34.30730
679.4238, 34.35170
679.9059, 34.20795
680.3880, 33.94236
680.8701, 33.69373
681.3522, 33.46289
681.8344, 33.31106
682.3165, 33.33860
682.7986, 33.43729
683.2807, 33.42653
683.7628, 33.30193
684.2449, 33.20280
684.7271, 33.22318
685.2092, 33.33939
685.6913, 33.47884
686.1734, 33.64462
686.6555, 33.82551
687.1376, 33.92987
687.6198, 34.13858
688.1019, 34.63777
688.5840, 35.28661
689.0661, 35.78892
689.5482, 36.00607
690.0303, 36.19627
690.5125, 36.61296
690.9946, 37.15491
691.4767, 37.49977
691.9588, 37.63036
692.4409, 38.07291
692.9230, 39.23819
693.4052, 40.84447
693.8873, 42.07830
694.3694, 42.79020
694.8515, 43.38426
695.3336, 43.62503
695.8157, 43.99006
696.2979, 44.69437
696.7800, 45.70681
697.2621, 46.98831
697.7442, 48.54837
698.2263, 50.12679
698.7084, 51.45470
699.1906, 52.58580
699.6727, 53.65358
700.1548, 54.64758
700.6369, 55.86275
701.1190, 57.52958
701.6011, 59.44577
702.0833, 61.11283
702.5654, 62.36882
703.0475, 63.73771
703.5296, 65.18062
704.0117, 66.78318
704.4938, 68.66464
704.9760, 70.71101
705.4581, 72.78890
705.9402, 74.83430
706.4223, 76.80477
706.9044, 78.41938
707.3865, 79.86155
707.8687, 82.18203
708.3508, 85.56411
708.8329, 88.62495
709.3149, 90.73713
709.7971, 92.21265
710.2792, 93.56853
710.7613, 94.84438
711.2434, 95.80782
711.7255, 96.38162
712.2076, 96.71090
712.6898, 97.04465
713.1719, 97.10732
713.6540, 96.49717
714.1361, 95.10861
714.6182, 93.14560
715.1003, 90.72986
715.5825, 87.91318
716.0646, 84.77389
716.5467, 81.25768
717.0288, 77.94263
717.5109, 75.15623
717.9930, 72.52287
718.4752, 69.41780
718.9573, 65.86668
719.4394, 62.93415
719.9215, 61.14531
720.4036, 59.50082
720.8857, 57.60556
721.3679, 55.61838
721.8500, 53.60481
722.3321, 51.67039
722.8142, 50.13432
723.2963, 49.30988
723.7784, 48.99058
724.2606, 48.61586
724.7427, 48.17896
725.2248, 47.71618
725.7069, 47.18029
726.1890, 46.71975
726.6711, 46.53749
727.1533, 46.56177
727.6354, 46.44920
728.1175, 46.06825
728.5996, 45.70245
729.0817, 45.30336
729.5638, 45.04968
730.0460, 45.16224
730.5281, 45.60155
731.0102, 46.17116
731.4923, 46.76334
731.9744, 47.37964
732.4565, 48.05704
732.9387, 48.79728
733.4208, 49.39782
733.9029, 49.76089
734.3850, 50.18835
734.8671, 50.95437
735.3492, 51.88642
735.8314, 52.56040
736.3135, 52.92100
736.7956, 53.17627
737.2777, 53.37856
737.7598, 53.48083
738.2419, 53.49060
738.7241, 53.36658
739.2062, 53.00484
739.6883, 52.36924
740.1704, 51.61656
740.6525, 50.90776
741.1346, 50.24670
741.6168, 49.73268
742.0989, 49.46304
742.5810, 48.83760
743.0631, 47.44020
743.5452, 45.75606
744.0273, 44.46627
744.5095, 43.57780
744.9916, 42.81594
745.4737, 42.36867
745.9558, 41.80461
746.4379, 40.78399
746.9200, 39.62447
747.4022, 38.71926
747.8843, 38.13213
748.3664, 37.67453
748.8485, 37.22271
749.3306, 36.77692
749.8127, 36.32363
750.2949, 35.86185
750.7770, 35.46476
751.2591, 35.12883
751.7412, 34.92189
752.2233, 34.94814
752.7054, 35.16864
753.1876, 35.28872
753.6697, 35.27429
754.1518, 35.21722
754.6339, 34.97975
755.1160, 34.83126
755.5981, 35.05025
756.0803, 35.52241
756.5624, 35.94757
757.0445, 36.19588
757.5266, 36.32908
758.0087, 36.43612
758.4908, 36.49327
758.9730, 36.28700
759.4551, 35.77163
759.9372, 35.63044
760.4193, 36.33028
760.9014, 37.42243
761.3835, 38.03573
761.8657, 37.98458
762.3478, 38.07403
762.8299, 38.39467
763.3120, 38.73812
763.7941, 39.15654
764.2762, 39.49068
764.7584, 39.44426
765.2405, 39.03109
765.7226, 38.78532
766.2047, 39.22273
766.6868, 39.93212
767.1689, 40.31045
767.6511, 40.42654
768.1332, 40.61093
768.6153, 40.96046
769.0974, 41.16637
769.5795, 40.88029
770.0616, 40.19364
770.5438, 39.88686
771.0259, 40.26204
771.5080, 40.47738
771.9901, 40.43048
772.4722, 40.23088
772.9543, 39.86870
773.4365, 39.40911
773.9186, 38.99459
774.4007, 38.68769
774.8828, 38.36357
775.3649, 37.90682
775.8470, 37.40342
776.3292, 36.97564
776.8113, 36.62078
777.2934, 36.32202
777.7755, 36.07847
778.2576, 35.71660
778.7397, 34.89940
779.2219, 33.57278
779.7040, 32.45536
780.1861, 31.58538
780.6682, 30.84678
781.1503, 30.25114
781.6324, 29.73638
782.1146, 29.25385
782.5967, 28.79770
783.0788, 28.34507
783.5609, 27.96195
784.0430, 27.50150
784.5251, 26.71460
785.0073, 25.88943
785.4894, 25.47697
785.9715, 25.47710
786.4536, 25.50925
786.9357, 25.31435
787.4178, 24.95831
787.9000, 24.55060
788.3821, 24.09345
788.8642, 23.69803
789.3463, 23.37463
789.8284, 23.13427
790.3105, 23.01192
790.7927, 22.96719
791.2747, 22.90511
791.7568, 22.89502
792.2390, 22.69582
792.7211, 22.07666
793.2032, 21.49690
793.6853, 21.22539
794.1674, 21.11952
794.6495, 20.93005
795.1317, 20.60955
795.6138, 20.35971
796.0959, 20.43584
796.5780, 20.63168
797.0601, 20.58586
797.5422, 20.33306
798.0244, 20.01893
798.5065, 19.67509
798.9886, 19.42938
799.4707, 19.42275
799.9528, 19.61697
800.4349, 19.73667
800.9171, 19.76607
801.3992, 19.75296
801.8813, 19.67028
802.3634, 19.57580
802.8455, 19.46353
803.3276, 19.36827
803.8098, 19.38218
804.2919, 19.57019
804.7740, 19.68882
805.2561, 19.53165
805.7382, 19.30906
806.2203, 19.27703
806.7025, 19.36329
807.1846, 19.31860
807.6667, 19.05887
808.1488, 18.77538
808.6309, 18.69700
809.1130, 18.79562
809.5952, 18.92280
810.0773, 19.10283
810.5594, 19.14991
811.0415, 18.93916
811.5236, 18.70968
812.0057, 18.71557
812.4879, 18.93136
812.9700, 19.06290
813.4521, 19.14376
813.9342, 19.09506
814.4163, 18.73691
814.8984, 18.39348
815.3806, 18.31443
815.8627, 18.44188
816.3448, 18.61181
816.8269, 18.76528
817.3090, 18.91626
817.7911, 19.11363
818.2733, 19.30164
818.7554, 19.34682
819.2375, 19.26327
819.7196, 19.17657
820.2017, 19.13387
820.6838, 19.11464
821.1660, 19.09433
821.6481, 19.07303
822.1302, 19.04641
822.6123, 18.94742
823.0944, 18.98999
823.5765, 19.39120
824.0587, 19.78154
824.5408, 19.85194
825.0229, 19.69450
825.5050, 19.59997
825.9871, 19.59943
826.4692, 19.70645
826.9514, 20.07571
827.4335, 20.43435
827.9156, 20.48529
828.3977, 20.31874
828.8798, 20.14130
829.3619, 20.04169
829.8441, 20.13423
830.3262, 20.72442
830.8083, 21.60756
831.2904, 21.95097
831.7725, 21.75875
832.2546, 21.68476
832.7368, 21.97943
833.2189, 22.26066
833.7010, 22.08964
834.1831, 21.52356
834.6652, 21.20926
835.1473, 21.27413
835.6295, 21.39550
836.1116, 21.58204
836.5937, 21.78138
837.0758, 21.99452
837.5579, 22.19285
838.0400, 22.32573
838.5222, 22.37850
839.0043, 22.38275
839.4864, 22.34775
839.9685, 22.27820
840.4506, 22.16656
840.9327, 22.02664
841.4149, 21.88033
841.8970, 21.73745
842.3791, 21.61381
842.8612, 21.53674
843.3433, 21.48248
843.8254, 21.34599
844.3076, 21.12218
844.7897, 21.00047
845.2718, 21.03610
845.7539, 21.13426
846.2360, 21.28427
846.7181, 21.41327
847.2003, 21.24903
847.6824, 20.47091
848.1645, 20.03499
848.6466, 20.24693
849.1287, 20.44198
849.6108, 20.27990
850.0930, 19.97405
850.5751, 19.86043
851.0572, 19.97376
851.5393, 19.95968
852.0214, 19.45187
852.5035, 18.91861
852.9857, 18.82164
853.4678, 18.96705
853.9499, 19.02564
854.4320, 18.94046
854.9141, 18.79273
855.3962, 18.63222
855.8784, 18.47174
856.3605, 18.34604
856.8426, 18.25343
857.3247, 18.10358
857.8068, 17.84933
858.2889, 17.77552
858.7711, 18.10748
859.2532, 18.55514
859.7353, 18.65108
860.2174, 18.33199
860.6995, 18.12305
861.1816, 18.00029
861.6638, 18.01539
862.1459, 18.44032
862.6280, 18.79102
863.1101, 18.50507
863.5922, 17.79395
864.0743, 17.44475
864.5565, 17.84224
865.0386, 18.28754
865.5207, 18.34427
866.0028, 18.20721
866.4849, 18.03994
866.9670, 17.88581
867.4492, 17.79222
867.9313, 17.77813
868.4134, 17.85451
868.8955, 18.09690
869.3776, 18.41610
869.8597, 18.41223
870.3419, 18.08251
870.8240, 17.94425
871.3061, 18.16299
871.7882, 18.38744
872.2703, 18.30431
872.7524, 18.00971
873.2346, 17.87985
873.7166, 17.96009
874.1987, 18.11499
874.6808, 18.54678
875.1630, 18.82188
875.6451, 18.66190
876.1272, 18.32459
876.6093, 18.11979
877.0914, 18.08148
877.5735, 18.09102
878.0557, 18.22224
878.5378, 18.26213
879.0199, 17.95916
879.5020, 17.57127
879.9841, 17.45257
880.4662, 17.58217
880.9484, 17.68802
881.4305, 17.61781
881.9126, 17.51306
882.3947, 17.62884
882.8768, 17.85080
883.3589, 17.74493
883.8411, 17.32855
884.3232, 17.07635
884.8053, 17.18174
885.2874, 17.44854
885.7695, 17.67017
886.2516, 17.83667
886.7338, 17.80486
887.2159, 17.48727
887.6980, 17.21921
888.1801, 17.05479
888.6622, 16.94763
889.1443, 16.91945
889.6265, 16.91381
890.1086, 16.77211
890.5907, 16.39955
891.0728, 16.18933
891.5549, 16.30410
892.0370, 16.47079
892.5192, 16.60161
893.0013, 16.68392
893.4834, 16.71634
893.9655, 16.69650
894.4476, 16.60601
894.9297, 16.38475
895.4119, 16.17698
895.8940, 16.12751
896.3761, 16.17865
896.8582, 16.26534
897.3403, 16.36141
897.8224, 16.41593
898.3046, 16.40482
898.7867, 16.34401
899.2688, 16.22690
899.7509, 16.07536
900.2330, 16.07054
900.7151, 16.22941
901.1973, 16.19500
901.6794, 15.81368
902.1615, 15.45162
902.6436, 15.45777
903.1257, 15.72808
903.6078, 15.79977
904.0900, 15.48750
904.5721, 15.36994
905.0542, 15.57987
905.5363, 15.83391
906.0184, 16.08372
906.5005, 16.28175
906.9827, 16.37744
907.4648, 16.36644
907.9469, 16.24553
908.4290, 15.85854
908.9111, 15.55509
909.3932, 15.52049
909.8754, 15.61280
910.3575, 15.74939
910.8396, 15.88015
911.3217, 15.91022
911.8038, 15.79096
912.2859, 15.69557
912.7681, 15.87762
913.2502, 16.12048
913.7323, 15.98265
914.2144, 15.60192
914.6965, 15.49568
915.1786, 15.77824
915.6608, 16.08212
916.1429, 16.08704
916.6250, 16.25556
917.1071, 16.32043
917.5892, 16.24986
918.0714, 16.31706
918.5535, 16.09860
919.0356, 15.92559
919.5177, 15.96665
919.9998, 16.12469
920.4819, 16.25926
920.9641, 16.37070
921.4462, 16.46659
921.9283, 16.55017
922.4104, 16.61202
922.8925, 16.56346
923.3746, 16.57621
923.8568, 16.81408
924.3389, 17.18496
924.8210, 17.48603
925.3031, 17.72150
925.7852, 17.79419
926.2673, 17.48515
926.7495, 17.22059
927.2316, 17.28569
927.7137, 17.50618
928.1958, 17.64992
928.6779, 17.70167
929.1600, 17.81322
929.6422, 18.12881
930.1243, 18.38135
930.6064, 18.21527
931.0885, 17.90323
931.5706, 17.85584
932.0527, 18.05625
932.5349, 18.34908
933.0170, 18.66430
933.4991, 18.91353
933.9812, 18.97272
934.4633, 18.91483
934.9454, 18.92850
935.4276, 19.01594
935.9097, 19.25083
936.3918, 19.65732
936.8739, 19.95666
937.3560, 19.94712
937.8381, 19.79219
938.3203, 19.84521
938.8024, 20.14709
939.2845, 20.30030
939.7666, 20.22663
940.2487, 20.21688
940.7308, 20.42305
941.2130, 20.62728
941.6951, 20.57606
942.1772, 20.33776
942.6593, 20.30325
943.1414, 20.64994
943.6235, 20.87640
944.1057, 20.92536
944.5878, 20.89405
945.0699, 20.65220
945.5520, 20.45707
946.0341, 20.69889
946.5162, 21.36600
946.9984, 21.92242
947.4805, 22.25616
947.9626, 22.35466
948.4447, 22.02300
948.9268, 21.60349
949.4089, 21.36697
949.8911, 21.33632
950.3732, 21.52170
950.8553, 21.91656
951.3374, 22.29600
951.8195, 22.47092
952.3016, 22.53718
952.7838, 22.58431
953.2659, 22.63271
953.7480, 22.75205
954.2301, 22.93272
954.7122, 23.03916
955.1943, 22.98332
955.6764, 22.93322
956.1585, 23.19260
956.6406, 23.69168
957.1227, 24.06654
957.6049, 24.31698
958.0870, 24.56933
958.5691, 24.85845
959.0512, 25.19541
959.5333, 25.61409
960.0154, 26.04443
960.4976, 26.19625
960.9797, 25.98130
961.4618, 25.96668
961.9439, 26.23512
962.4260, 26.53736
962.9081, 26.78432
963.3903, 27.00045
963.8724, 27.20271
964.3545, 27.39324
964.8366, 27.63485
965.3187, 28.02515
965.8008, 28.30905
966.2830, 28.34213
966.7651, 28.41231
967.2472, 28.77729
967.7293, 29.20456
968.2114, 29.27987
968.6935, 28.95832
969.1757, 28.84192
969.6578, 29.24560
970.1399, 29.62904
970.6220, 29.71832
971.1041, 29.77637
971.5862, 30.11666
972.0684, 30.58933
972.5505, 30.81069
973.0326, 30.66124
973.5147, 30.45368
973.9968, 30.41102
974.4789, 30.33975
974.9611, 29.99164
975.4432, 29.55517
975.9253, 29.33114
976.4074, 29.31365
976.8895, 29.28427
977.3716, 29.12749
977.8538, 28.99714
978.3359, 29.11339
978.8180, 29.33598
979.3001, 29.47606
979.7822, 29.49830
980.2643, 29.22795
980.7465, 28.67538
981.2286, 28.27808
981.7107, 28.38470
982.1928, 28.68994
982.6749, 28.61528
983.1570, 28.21752
983.6392, 27.75318
984.1213, 27.24713
984.6034, 26.98980
985.0855, 27.09445
985.5676, 27.34983
986.0497, 27.57364
986.5319, 27.74321
987.0140, 27.73778
987.4961, 27.51815
987.9782, 27.44653
988.4603, 27.57850
988.9424, 27.74199
989.4246, 27.87273
989.9067, 27.98360
990.3888, 28.09406
990.8709, 28.20142
991.3530, 28.26872
991.8351, 28.29456
992.3173, 28.27946
992.7994, 28.17118
993.2815, 28.09672
993.7636, 28.07343
994.2457, 28.14906
994.7278, 28.45614
995.2100, 29.02014
995.6921, 29.40546
996.1742, 29.48322
996.6563, 29.56105
997.1384, 29.68940
997.6205, 29.82525
998.1027, 29.84389
998.5848, 29.89138
999.0669, 30.27666
999.5490, 31.06317
1000.031, 31.71100
1000.513, 32.08383
1000.995, 32.29564
1001.477, 32.27987
1001.960, 32.21289
1002.442, 32.21906
1002.924, 32.30252
1003.406, 32.40427
1003.888, 32.49899
1004.370, 32.79966
1004.852, 33.78308
1005.334, 34.59859
1005.817, 34.35054
1006.299, 33.80277
1006.781, 34.04538
1007.263, 34.89695
1007.745, 35.36454
1008.227, 35.03348
1008.709, 34.76436
1009.191, 35.52782
1009.673, 36.46832
1010.156, 36.53234
1010.638, 36.08668
1011.120, 35.83675
1011.602, 35.85069
1012.084, 35.78460
1012.566, 35.45026
1013.048, 35.13217
1013.530, 35.17459
1014.013, 35.44397
1014.495, 35.79435
1014.977, 36.13843
1015.459, 36.18852
1015.941, 35.92303
1016.423, 35.60482
1016.905, 35.39214
1017.387, 35.27958
1017.869, 35.29988
1018.352, 35.40953
1018.834, 35.46638
1019.316, 35.46387
1019.798, 35.36530
1020.280, 35.16509
1020.762, 34.97322
1021.244, 34.88640
1021.726, 34.77723
1022.208, 34.25642
1022.691, 33.39544
1023.173, 33.17116
1023.655, 33.61651
1024.137, 33.91832
1024.619, 33.84547
1025.101, 33.63716
1025.583, 33.48701
1026.065, 33.33319
1026.547, 32.95613
1027.030, 32.31616
1027.512, 32.01792
1027.994, 32.12443
1028.476, 32.25978
1028.958, 32.33492
1029.440, 32.32150
1029.922, 32.16590
1030.404, 31.93524
1030.887, 31.83697
1031.369, 31.85736
1031.851, 32.11934
1032.333, 32.79896
1032.815, 33.19074
1033.297, 32.93357
1033.779, 32.59483
1034.261, 32.70731
1034.744, 33.13344
1035.226, 33.35802
1035.708, 33.27234
1036.190, 33.31227
1036.672, 33.51640
1037.154, 33.77498
1037.636, 34.06323
1038.118, 34.38367
1038.600, 34.77065
1039.083, 35.18925
1039.565, 35.50118
1040.047, 35.68708
1040.529, 35.80174
1041.011, 35.54969
1041.493, 35.64237
1041.975, 36.61137
1042.457, 37.71989
1042.939, 38.32208
1043.422, 38.53089
1043.904, 38.75090
1044.386, 39.00639
1044.868, 39.23318
1045.350, 39.28960
1045.832, 39.49642
1046.314, 39.99936
1046.796, 40.65102
1047.279, 41.40230
1047.761, 42.19032
1048.243, 42.79665
1048.725, 43.02632
1049.207, 43.58573
1049.689, 44.85872
1050.171, 46.10217
1050.653, 47.08661
1051.135, 47.90281
1051.618, 48.53804
1052.100, 49.09380
1052.582, 49.90107
1053.064, 51.14000
1053.546, 52.12865
1054.028, 52.63312
1054.510, 52.97547
1054.992, 52.99965
1055.474, 53.16133
1055.957, 54.01962
1056.439, 55.33509
1056.921, 56.39511
1057.403, 57.03310
1057.885, 57.59428
1058.367, 58.06478
1058.849, 58.61696
1059.331, 59.60668
1059.814, 60.47292
1060.296, 60.61322
1060.778, 60.22797
1061.260, 59.84694
1061.742, 59.55943
1062.224, 59.45880
1062.706, 59.81052
1063.188, 60.06267
1063.671, 59.91037
1064.153, 59.58238
1064.635, 59.32985
1065.117, 59.06878
1065.599, 58.49870
1066.081, 57.52874
1066.563, 56.75961
1067.045, 56.62335
1067.527, 56.49128
1068.010, 55.98436
1068.492, 55.41194
1068.974, 55.14473
1069.456, 55.00699
1069.938, 54.57797
1070.420, 53.77385
1070.902, 52.94994
1071.384, 52.09141
1071.866, 51.45742
1072.349, 51.21173
1072.831, 51.20463
1073.313, 51.51272
1073.795, 51.87568
1074.277, 51.77627
1074.759, 51.16639
1075.241, 50.73171
1075.723, 50.87070
1076.206, 51.09215
1076.688, 51.18151
1077.170, 51.23516
1077.652, 51.34469
1078.134, 51.46806
1078.616, 51.61458
1079.098, 51.73259
1079.580, 51.47333
1080.062, 50.25823
1080.545, 49.46204
1081.027, 50.07778
1081.509, 51.01385
1081.991, 51.56478
1082.473, 51.83540
1082.955, 51.99472
1083.437, 52.10215
1083.919, 52.25588
1084.401, 52.49510
1084.884, 52.77385
1085.366, 53.02382
1085.848, 53.35676
1086.330, 54.09661
1086.812, 54.79475
1087.294, 54.76156
1087.776, 54.15179
1088.258, 53.79443
1088.740, 54.00063
1089.223, 54.21556
1089.705, 54.15428
1090.187, 54.09786
1090.669, 54.30165
1091.151, 54.52496
1091.633, 54.41539
1092.115, 54.11029
1092.597, 54.08647
1093.080, 54.50841
1093.562, 54.80455
1094.044, 54.72965
1094.526, 54.52152
1095.008, 54.24527
1095.490, 53.92732
1095.972, 53.57943
1096.454, 53.20866
1096.937, 52.86361
1097.419, 52.55886
1097.901, 52.03852
1098.383, 50.88060
1098.865, 49.96308
1099.347, 49.76997
1099.829, 49.74517
1100.311, 49.59592
1100.793, 49.28640
1101.276, 48.77423
1101.758, 48.06858
1102.240, 47.34780
1102.722, 46.58335
1103.204, 45.91975
1103.686, 45.47715
1104.168, 45.04262
1104.650, 44.54745
1105.132, 43.96173
1105.615, 43.22427
1106.097, 42.35920
1106.579, 41.50712
1107.061, 40.59259
1107.543, 39.90505
1108.025, 39.63953
1108.507, 39.41669
1108.989, 39.08738
1109.472, 38.73368
1109.954, 38.48383
1110.436, 38.27695
1110.918, 37.88739
1111.400, 37.21052
1111.882, 36.65549
1112.364, 36.29314
1112.846, 36.00070
1113.328, 35.87477
1113.811, 35.68393
1114.293, 35.16900
1114.775, 34.51356
1115.257, 34.07558
1115.739, 33.87102
1116.221, 33.77657
1116.703, 33.95711
1117.185, 33.95874
1117.667, 33.48431
1118.150, 33.16943
1118.632, 33.47167
1119.114, 33.98713
1119.596, 34.18891
1120.078, 34.08805
1120.560, 33.85340
1121.042, 33.37950
1121.524, 33.01801
1122.007, 32.71494
1122.489, 32.70674
1122.971, 33.26865
1123.453, 33.83068
1123.935, 33.77559
1124.417, 33.29122
1124.899, 33.09233
1125.381, 33.25463
1125.864, 33.34958
1126.346, 33.35951
1126.828, 33.35089
1127.310, 33.30269
1127.792, 33.38008
1128.274, 33.73503
1128.756, 34.22211
1129.238, 34.57325
1129.720, 34.78644
1130.203, 34.78518
1130.685, 34.54097
1131.167, 34.42727
1131.649, 34.51965
1132.131, 34.54115
1132.613, 34.31687
1133.095, 34.20832
1133.577, 34.75481
1134.059, 35.70363
1134.542, 36.01007
1135.024, 35.74242
1135.506, 35.73694
1135.988, 36.04863
1136.470, 36.30684
1136.952, 36.38959
1137.434, 36.61574
1137.916, 37.28799
1138.399, 37.56466
1138.881, 38.52978
1139.363, 38.66509
1139.845, 39.20012
1140.327, 39.98604
1140.809, 40.13401
1141.291, 39.60141
1141.773, 39.40016
1142.255, 40.09277
1142.738, 41.06292
1143.220, 41.67668
1143.702, 42.03181
1144.184, 42.13938
1144.666, 42.17979
1145.148, 42.61037
1145.630, 43.33937
1146.112, 43.87034
1146.594, 44.06568
1147.077, 44.31471
1147.559, 44.91493
1148.041, 45.65444
1148.523, 46.33223
1149.005, 47.02970
1149.487, 47.85434
1149.969, 48.76985
1150.451, 49.73194
1150.934, 50.70377
1151.416, 51.58137
1151.898, 52.30647
1152.380, 53.00038
1152.862, 53.67407
1153.344, 54.40708
1153.826, 55.31084
1154.308, 56.25586
1154.791, 57.00208
1155.273, 57.69860
1155.755, 58.76267
1156.237, 60.29806
1156.719, 61.77998
1157.201, 62.98561
1157.683, 64.21782
1158.165, 65.55958
1158.647, 66.97076
1159.130, 68.53124
1159.612, 70.09170
1160.094, 71.41920
1160.576, 72.53893
1161.058, 73.68311
1161.540, 74.81573
1162.022, 76.07600
1162.504, 77.50237
1162.986, 79.01101
1163.469, 80.65589
1163.951, 82.25610
1164.433, 83.53876
1164.915, 84.77136
1165.397, 86.65523
1165.879, 89.29552
1166.361, 91.40430
1166.843, 92.87261
1167.325, 94.12017
1167.808, 95.08565
1168.290, 96.33213
1168.772, 98.20970
1169.254, 100.2517
1169.736, 101.9098
1170.218, 103.2793
1170.700, 104.7467
1171.182, 106.3030
1171.665, 107.6692
1172.147, 108.8379
1172.629, 110.2673
1173.111, 112.0822
1173.593, 113.9689
1174.075, 115.7371
1174.557, 117.2587
1175.039, 118.0153
1175.521, 118.4992
1176.004, 120.5151
1176.486, 123.3866
1176.968, 124.8606
1177.450, 124.9945
1177.932, 125.4329
1178.414, 126.7562
1178.896, 128.1059
1179.378, 128.6726
1179.860, 129.2294
1180.343, 130.9046
1180.825, 132.8518
1181.307, 133.9642
1181.789, 134.5443
1182.271, 135.1130
1182.753, 135.8252
1183.235, 136.8331
1183.717, 138.2598
1184.200, 139.5301
1184.682, 140.0187
1185.164, 140.6669
1185.646, 142.2376
1186.128, 143.9832
1186.610, 145.4336
1187.092, 146.4896
1187.574, 146.9310
1188.057, 146.7741
1188.539, 146.8786
1189.021, 147.4770
1189.503, 148.1909
1189.985, 148.6696
1190.467, 149.6765
1190.949, 151.9557
1191.431, 154.3370
1191.913, 155.6726
1192.396, 156.3833
1192.878, 157.6221
1193.360, 159.4575
1193.842, 161.3233
1194.324, 163.4551
1194.806, 164.5860
1195.288, 164.2471
1195.770, 164.0630
1196.252, 164.8671
1196.735, 166.0043
1197.217, 166.7027
1197.699, 167.1353
1198.181, 167.9136
1198.663, 168.9750
1199.145, 169.6424
1199.627, 169.9820
1200.109, 170.9388
1200.592, 172.6581
1201.074, 174.2094
1201.556, 175.0362
1202.038, 175.6965
1202.520, 176.9875
1203.002, 178.4207
1203.484, 179.1873
1203.966, 179.5215
1204.448, 179.5903
1204.931, 179.6675
1205.413, 180.4691
1205.895, 182.0127
1206.377, 183.2715
1206.859, 183.7093
1207.341, 183.7659
1207.823, 183.4825
1208.305, 183.1714
1208.787, 182.8236
1209.270, 182.7504
1209.752, 183.7374
1210.234, 185.1267
1210.716, 185.1365
1211.198, 183.3884
1211.680, 182.4886
1212.162, 183.9156
1212.644, 184.5099
1213.127, 183.1663
1213.609, 181.8129
1214.091, 181.2580
1214.573, 180.8887
1215.055, 180.1488
1215.537, 179.1172
1216.019, 178.0221
1216.501, 176.8526
1216.984, 175.7352
1217.466, 174.6902
1217.948, 173.5578
1218.430, 172.3111
1218.912, 171.0442
1219.394, 169.8166
1219.876, 168.4080
1220.358, 166.4765
1220.840, 165.5166
1221.323, 163.4532
1221.805, 163.1478
1222.287, 162.3271
1222.769, 161.0529
1223.251, 159.8145
1223.733, 158.6510
1224.215, 157.1543
1224.697, 155.1268
1225.179, 153.2104
1225.662, 152.0237
1226.144, 151.1018
1226.626, 150.2015
1227.108, 149.2018
1227.590, 147.8205
1228.072, 146.3331
1228.554, 145.3197
1229.036, 144.6951
1229.519, 143.5787
1230.001, 141.5458
1230.483, 139.6939
1230.965, 138.4855
1231.447, 137.1972
1231.929, 135.3401
1232.411, 133.6341
1232.893, 132.6637
1233.375, 131.9847
1233.858, 130.9957
1234.340, 129.7209
1234.822, 128.3494
1235.304, 126.8180
1235.786, 125.4815
1236.268, 124.3768
1236.750, 123.2918
1237.232, 122.1658
1237.714, 121.0645
1238.197, 120.0182
1238.679, 119.0940
1239.161, 118.3599
1239.643, 117.8364
1240.125, 117.8532
1240.607, 118.0422
1241.089, 117.0699
1241.571, 115.2575
1242.054, 113.9646
1242.536, 113.4577
1243.018, 113.1064
1243.500, 112.5935
1243.982, 112.0682
1244.464, 111.6125
1244.946, 111.2176
1245.428, 110.8157
1245.910, 110.5257
1246.393, 110.6608
1246.875, 110.8942
1247.357, 110.5274
1247.839, 109.5930
1248.321, 109.1145
1248.803, 109.4299
1249.285, 109.7990
1249.767, 110.2675
1250.250, 110.6238
1250.732, 110.6743
1251.214, 110.8528
1251.696, 111.4092
1252.178, 112.2902
1252.660, 113.4749
1253.142, 114.8800
1253.624, 116.1015
1254.106, 117.1385
1254.589, 117.5516
1255.071, 117.3933
1255.553, 117.7744
1256.035, 118.9370
1256.517, 120.4098
1256.999, 121.9196
1257.481, 123.4336
1257.963, 124.9753
1258.445, 126.4140
1258.928, 127.2952
1259.410, 128.1446
1259.892, 129.8610
1260.374, 132.0400
1260.856, 133.8242
1261.338, 135.1804
1261.820, 136.6065
1262.302, 138.1570
1262.785, 140.2846
1263.267, 143.6909
1263.749, 146.9127
1264.231, 149.4172
1264.713, 151.6918
1265.195, 153.7478
1265.677, 155.9731
1266.159, 158.8581
1266.641, 162.2285
1267.124, 165.3880
1267.606, 168.3157
1268.088, 170.9755
1268.570, 173.2758
1269.052, 176.6191
1269.534, 181.2679
1270.016, 185.3830
1270.498, 188.1607
1270.980, 190.9499
1271.463, 195.0556
1271.945, 199.8920
1272.427, 204.8794
1272.909, 209.7468
1273.391, 213.7161
1273.873, 217.3449
1274.355, 221.7561
1274.837, 226.8421
1275.320, 231.7546
1275.802, 236.3086
1276.284, 241.1589
1276.766, 246.6858
1277.248, 252.4414
1277.730, 258.4636
1278.212, 264.4920
1278.694, 270.3329
1279.177, 276.2160
1279.659, 282.4588
1280.141, 288.7059
1280.623, 294.2206
1281.105, 299.0337
1281.587, 304.0030
1282.069, 309.0639
1282.551, 314.9832
1283.033, 321.8935
1283.516, 327.8620
1283.998, 332.4179
1284.480, 337.4599
1284.962, 344.1544
1285.444, 351.7015
1285.926, 359.3247
##END=



