##NAMES=Fluorapatite
##RRUFFID=R060184
##IDEAL CHEMISTRY=Ca_5_(PO_4_)_3_F
##LOCALITY=Yates mine, Otter Lake, Quebec, Canada
##OWNER=RRUFF
##SOURCE=Lloyd Twaites
##DESCRIPTION=Green colored fragment of a hexagonal prism
##STATUS=The identification of this mineral has been confirmed by X-ray diffraction and chemical analysis
##URL=rruff.info/R060184
##MEASURED CHEMISTRY=(Ca_0.99_Ce_0.01_)_5.00_((P_0.98_Si_0.01_S_0.01_)O_4_)_3_F_1.00_
92.02539, 3862.359
92.50751, 3844.455
92.98962, 3863.964
93.47174, 3888.618
93.95386, 3921.860
94.43597, 3937.073
94.91809, 3927.481
95.40021, 3902.342
95.88232, 3876.666
96.36444, 3849.948
96.84656, 3823.645
97.32867, 3796.071
97.81078, 3771.499
98.29290, 3757.242
98.77502, 3758.858
99.25713, 3774.147
99.73925, 3773.261
100.2214, 3747.499
100.7035, 3719.517
101.1856, 3698.931
101.6677, 3686.175
102.1498, 3675.564
102.6320, 3659.466
103.1141, 3630.631
103.5962, 3615.478
104.0783, 3618.284
104.5604, 3632.119
105.0425, 3652.063
105.5247, 3678.239
106.0068, 3703.959
106.4889, 3715.100
106.9710, 3710.375
107.4531, 3704.386
107.9352, 3699.113
108.4173, 3695.947
108.8995, 3704.282
109.3816, 3737.391
109.8637, 3776.278
110.3458, 3799.404
110.8279, 3801.971
111.3100, 3798.699
111.7922, 3809.354
112.2743, 3840.247
112.7564, 3864.307
113.2385, 3865.608
113.7206, 3860.828
114.2027, 3865.254
114.6849, 3886.462
115.1670, 3918.958
115.6491, 3942.637
116.1312, 3942.688
116.6133, 3951.354
117.0954, 3982.626
117.5776, 4024.826
118.0597, 4059.675
118.5418, 4073.785
119.0239, 4066.746
119.5060, 4067.181
119.9881, 4076.840
120.4703, 4090.411
120.9524, 4106.229
121.4345, 4124.043
121.9166, 4144.812
122.3987, 4171.022
122.8808, 4203.885
123.3630, 4225.948
123.8451, 4230.198
124.3272, 4227.254
124.8093, 4224.546
125.2914, 4222.182
125.7735, 4226.147
126.2557, 4248.381
126.7378, 4284.950
127.2199, 4320.897
127.7020, 4351.758
128.1841, 4377.756
128.6662, 4398.110
129.1483, 4408.127
129.6305, 4418.198
130.1126, 4437.030
130.5947, 4464.019
131.0768, 4492.361
131.5589, 4515.506
132.0410, 4532.488
132.5232, 4552.252
133.0053, 4587.431
133.4874, 4617.914
133.9695, 4627.652
134.4516, 4615.432
134.9337, 4597.925
135.4159, 4601.870
135.8980, 4642.663
136.3801, 4677.046
136.8622, 4706.505
137.3443, 4728.064
137.8264, 4733.840
138.3086, 4721.676
138.7907, 4702.491
139.2728, 4706.704
139.7549, 4767.415
140.2370, 4814.423
140.7191, 4835.953
141.2013, 4841.794
141.6834, 4845.796
142.1655, 4854.728
142.6476, 4867.780
143.1297, 4881.109
143.6118, 4892.078
144.0939, 4905.828
144.5761, 4929.177
145.0582, 4959.184
145.5403, 4981.979
146.0224, 4986.749
146.5045, 4978.212
146.9866, 4973.039
147.4688, 4966.756
147.9509, 4968.251
148.4330, 4989.658
148.9151, 5033.899
149.3972, 5079.987
149.8793, 5119.603
150.3615, 5152.797
150.8436, 5177.652
151.3257, 5190.296
151.8078, 5195.615
152.2899, 5203.631
152.7720, 5212.565
153.2542, 5228.378
153.7363, 5258.046
154.2184, 5294.194
154.7005, 5325.647
155.1826, 5344.143
155.6647, 5351.193
156.1469, 5361.876
156.6290, 5371.250
157.1111, 5390.342
157.5932, 5429.538
158.0753, 5481.400
158.5574, 5530.404
159.0396, 5562.857
159.5217, 5576.496
160.0038, 5594.005
160.4859, 5618.671
160.9680, 5643.693
161.4501, 5666.667
161.9323, 5687.299
162.4144, 5705.670
162.8965, 5720.542
163.3786, 5728.924
163.8607, 5750.839
164.3428, 5800.738
164.8250, 5852.986
165.3071, 5886.181
165.7892, 5897.711
166.2713, 5903.995
166.7534, 5925.413
167.2355, 5964.592
167.7177, 5999.738
168.1998, 6024.556
168.6819, 6045.693
169.1640, 6072.239
169.6461, 6106.860
170.1282, 6143.794
170.6104, 6173.208
171.0925, 6195.945
171.5746, 6225.273
172.0567, 6274.846
172.5388, 6335.878
173.0209, 6380.161
173.5031, 6392.277
173.9852, 6400.688
174.4673, 6432.181
174.9494, 6484.693
175.4315, 6539.918
175.9136, 6586.680
176.3958, 6625.162
176.8779, 6656.701
177.3600, 6668.837
177.8421, 6684.988
178.3242, 6722.266
178.8063, 6779.735
179.2885, 6839.989
179.7706, 6884.148
180.2527, 6907.960
180.7348, 6934.379
181.2169, 6962.895
181.6990, 6995.873
182.1812, 7037.756
182.6633, 7087.961
183.1454, 7138.965
183.6275, 7178.489
184.1096, 7194.657
184.5917, 7225.139
185.0738, 7278.784
185.5560, 7338.125
186.0381, 7391.837
186.5202, 7436.712
187.0023, 7475.830
187.4844, 7513.635
187.9665, 7544.299
188.4487, 7584.102
188.9308, 7638.971
189.4129, 7699.282
189.8950, 7757.537
190.3771, 7810.904
190.8592, 7859.348
191.3414, 7901.528
191.8235, 7929.682
192.3056, 7966.146
192.7877, 8017.420
193.2698, 8076.979
193.7519, 8137.748
194.2341, 8198.023
194.7162, 8255.988
195.1983, 8306.102
195.6804, 8345.735
196.1625, 8388.558
196.6446, 8444.040
197.1268, 8505.858
197.6089, 8558.339
198.0910, 8592.702
198.5731, 8621.060
199.0552, 8662.393
199.5373, 8717.718
200.0195, 8777.650
200.5016, 8849.590
200.9837, 8927.143
201.4658, 8972.417
201.9479, 8950.366
202.4300, 8915.127
202.9122, 8925.901
203.3943, 8986.682
203.8764, 9066.785
204.3585, 9152.090
204.8406, 9242.675
205.3227, 9313.326
205.8048, 9339.427
206.2870, 9356.056
206.7691, 9390.348
207.2512, 9445.029
207.7333, 9500.637
208.2154, 9530.364
208.6975, 9526.682
209.1797, 9542.030
209.6618, 9604.944
210.1439, 9676.527
210.6260, 9732.586
211.1081, 9770.222
211.5902, 9807.734
212.0724, 9875.597
212.5545, 9993.526
213.0366, 10079.39
213.5187, 10105.21
214.0008, 10116.02
214.4829, 10135.04
214.9651, 10168.36
215.4472, 10211.94
215.9293, 10260.85
216.4114, 10318.53
216.8935, 10374.73
217.3756, 10428.17
217.8578, 10481.35
218.3399, 10537.77
218.8220, 10597.33
219.3041, 10656.14
219.7862, 10706.94
220.2683, 10739.86
220.7505, 10784.61
221.2326, 10842.81
221.7147, 10910.44
222.1968, 10990.70
222.6789, 11082.23
223.1610, 11171.22
223.6432, 11235.95
224.1253, 11257.00
224.6074, 11292.81
225.0895, 11348.19
225.5716, 11415.34
226.0537, 11491.00
226.5358, 11573.92
227.0180, 11656.17
227.5001, 11726.19
227.9822, 11779.55
228.4643, 11832.70
228.9464, 11879.60
229.4285, 11929.87
229.9107, 11997.47
230.3928, 12085.99
230.8749, 12177.90
231.3570, 12247.43
231.8391, 12291.99
232.3212, 12343.83
232.8034, 12411.73
233.2855, 12488.00
233.7676, 12564.69
234.2497, 12641.01
234.7318, 12713.93
235.2139, 12775.27
235.6961, 12826.86
236.1782, 12888.71
236.6603, 12967.81
237.1424, 13059.53
237.6245, 13161.40
238.1066, 13277.89
238.5888, 13390.18
239.0709, 13476.32
239.5530, 13543.18
240.0351, 13611.57
240.5172, 13690.82
240.9993, 13775.67
241.4815, 13852.51
241.9636, 13914.82
242.4457, 13985.21
242.9278, 14091.59
243.4099, 14218.39
243.8920, 14332.95
244.3742, 14421.41
244.8563, 14488.04
245.3384, 14535.29
245.8205, 14546.66
246.3026, 14576.80
246.7847, 14664.38
247.2668, 14787.67
247.7490, 14916.05
248.2311, 15045.87
248.7132, 15166.65
249.1953, 15249.29
249.6774, 15272.93
250.1595, 15299.82
250.6417, 15358.31
251.1238, 15434.39
251.6059, 15511.84
252.0880, 15585.17
252.5701, 15653.16
253.0522, 15713.57
253.5344, 15765.38
254.0165, 15810.23
254.4986, 15844.62
254.9807, 15875.14
255.4628, 15907.01
255.9449, 15941.09
256.4271, 15982.33
256.9092, 16046.42
257.3913, 16152.93
257.8734, 16244.49
258.3555, 16294.06
258.8376, 16333.45
259.3198, 16394.96
259.8019, 16491.21
260.2840, 16606.05
260.7661, 16705.84
261.2482, 16782.96
261.7303, 16858.28
262.2125, 16937.21
262.6946, 17014.74
263.1767, 17082.41
263.6588, 17138.87
264.1409, 17195.04
264.6230, 17273.84
265.1052, 17397.37
265.5873, 17499.71
266.0694, 17566.40
266.5515, 17621.88
267.0336, 17676.54
267.5157, 17735.61
267.9979, 17807.50
268.4800, 17908.13
268.9621, 18059.70
269.4442, 18191.16
269.9263, 18307.30
270.4084, 18404.60
270.8906, 18469.63
271.3727, 18506.56
271.8548, 18540.80
272.3369, 18604.34
272.8190, 18707.17
273.3011, 18806.44
273.7833, 18911.89
274.2654, 19006.89
274.7475, 19069.56
275.2296, 19107.26
275.7117, 19153.58
276.1938, 19245.13
276.6760, 19394.06
277.1581, 19514.27
277.6402, 19586.77
278.1223, 19655.59
278.6044, 19733.71
279.0865, 19825.55
279.5686, 19937.84
280.0508, 20080.04
280.5329, 20253.06
281.0150, 20394.78
281.4971, 20471.14
281.9792, 20557.48
282.4613, 20692.43
282.9435, 20860.53
283.4256, 21019.59
283.9077, 21139.42
284.3898, 21228.00
284.8719, 21351.44
285.3540, 21549.93
285.8362, 21732.90
286.3183, 21865.46
286.8004, 21967.08
287.2825, 22071.65
287.7646, 22195.86
288.2467, 22337.53
288.7289, 22492.61
289.2110, 22674.26
289.6931, 22851.52
290.1752, 23016.06
290.6573, 23173.78
291.1394, 23333.18
291.6216, 23498.13
292.1037, 23661.55
292.5858, 23809.28
293.0679, 23924.90
293.5500, 24055.62
294.0321, 24197.70
294.5143, 24360.87
294.9964, 24574.51
295.4785, 24846.81
295.9606, 25116.66
296.4427, 25289.18
296.9248, 25311.84
297.4070, 25396.92
297.8891, 25573.75
298.3712, 25802.56
298.8533, 26071.41
299.3354, 26371.10
299.8175, 26652.56
300.2997, 26858.92
300.7818, 26973.65
301.2639, 27118.33
301.7460, 27314.31
302.2281, 27521.45
302.7102, 27716.39
303.1924, 27897.29
303.6745, 28073.30
304.1566, 28250.80
304.6387, 28429.89
305.1208, 28614.83
305.6029, 28800.09
306.0851, 28996.28
306.5672, 29214.27
307.0493, 29448.89
307.5314, 29684.79
308.0135, 29914.16
308.4956, 30137.37
308.9778, 30352.22
309.4599, 30545.89
309.9420, 30748.52
310.4241, 30972.68
310.9062, 31212.03
311.3883, 31455.08
311.8705, 31698.41
312.3526, 31936.10
312.8347, 32145.98
313.3168, 32306.47
313.7989, 32495.30
314.2810, 32736.12
314.7632, 33010.73
315.2453, 33303.64
315.7274, 33610.91
316.2095, 33919.33
316.6916, 34211.59
317.1737, 34485.04
317.6559, 34756.88
318.1380, 35030.38
318.6201, 35301.78
319.1022, 35554.54
319.5843, 35790.78
320.0664, 36051.68
320.5485, 36386.74
321.0306, 36802.13
321.5128, 37172.46
321.9949, 37478.45
322.4770, 37759.05
322.9591, 38038.13
323.4412, 38314.20
323.9233, 38575.02
324.4055, 38804.22
324.8876, 39011.74
325.3697, 39254.77
325.8518, 39572.01
326.3339, 39877.73
326.8160, 40131.22
327.2982, 40350.08
327.7803, 40579.13
328.2624, 40842.39
328.7445, 41120.46
329.2266, 41359.56
329.7087, 41538.57
330.1909, 41723.34
330.6730, 41946.22
331.1551, 42173.79
331.6372, 42353.27
332.1193, 42468.68
332.6014, 42564.07
333.0836, 42704.93
333.5657, 42911.97
334.0478, 43105.49
334.5299, 43286.11
335.0120, 43449.18
335.4941, 43586.00
335.9763, 43696.99
336.4584, 43799.41
336.9405, 43907.80
337.4226, 44023.18
337.9047, 44136.69
338.3868, 44250.73
338.8690, 44361.97
339.3511, 44471.44
339.8332, 44577.57
340.3153, 44675.40
340.7974, 44762.20
341.2795, 44838.06
341.7617, 44900.85
342.2438, 44959.07
342.7259, 44996.94
343.2080, 44987.65
343.6901, 44961.55
344.1722, 44969.01
344.6544, 45031.54
345.1365, 45121.39
345.6186, 45180.89
346.1007, 45186.67
346.5828, 45195.16
347.0649, 45203.89
347.5471, 45217.04
348.0292, 45244.48
348.5113, 45285.21
348.9934, 45321.88
349.4755, 45333.16
349.9576, 45314.23
350.4398, 45285.71
350.9219, 45230.05
351.4040, 45181.65
351.8861, 45174.96
352.3682, 45194.90
352.8503, 45191.64
353.3325, 45123.44
353.8146, 44996.09
354.2967, 44901.32
354.7788, 44884.62
355.2609, 44848.18
355.7430, 44757.18
356.2252, 44637.75
356.7073, 44529.75
357.1894, 44452.53
357.6715, 44390.18
358.1536, 44299.67
358.6357, 44141.30
359.1179, 44016.52
359.5999, 43962.87
360.0821, 43920.34
360.5642, 43837.60
361.0463, 43706.06
361.5284, 43557.13
362.0105, 43428.17
362.4926, 43323.06
362.9748, 43224.44
363.4569, 43158.89
363.9390, 43075.49
364.4211, 42932.14
364.9032, 42748.82
365.3853, 42585.54
365.8675, 42493.35
366.3496, 42461.43
366.8317, 42384.68
367.3138, 42218.32
367.7959, 42061.65
368.2780, 41925.59
368.7602, 41814.81
369.2423, 41739.35
369.7244, 41705.01
370.2065, 41691.61
370.6886, 41658.90
371.1707, 41598.69
371.6529, 41539.13
372.1350, 41481.03
372.6171, 41426.75
373.0992, 41377.89
373.5813, 41334.73
374.0634, 41294.91
374.5456, 41261.94
375.0277, 41237.19
375.5098, 41188.68
375.9919, 41075.68
376.4740, 40984.17
376.9561, 40971.85
377.4383, 41010.54
377.9204, 41032.86
378.4025, 40988.71
378.8846, 40908.35
379.3667, 40883.56
379.8488, 40940.93
380.3310, 40984.99
380.8131, 40963.36
381.2952, 40915.25
381.7773, 40873.20
382.2594, 40841.79
382.7415, 40834.60
383.2237, 40872.14
383.7058, 40954.17
384.1879, 41049.61
384.6700, 41177.16
385.1521, 41287.05
385.6342, 41330.98
386.1164, 41312.47
386.5985, 41287.70
387.0806, 41263.27
387.5627, 41257.14
388.0448, 41328.62
388.5269, 41505.06
389.0091, 41682.05
389.4912, 41764.56
389.9733, 41790.47
390.4554, 41842.56
390.9375, 41957.64
391.4196, 42086.47
391.9018, 42176.14
392.3839, 42232.66
392.8660, 42309.16
393.3481, 42434.41
393.8302, 42588.63
394.3123, 42729.36
394.7945, 42848.55
395.2766, 42980.74
395.7587, 43153.48
396.2408, 43344.22
396.7229, 43504.49
397.2050, 43621.42
397.6872, 43741.19
398.1693, 43924.98
398.6514, 44180.18
399.1335, 44399.49
399.6156, 44551.76
400.0977, 44690.02
400.5798, 44849.60
401.0620, 45029.73
401.5441, 45214.85
402.0262, 45393.80
402.5083, 45571.32
402.9904, 45768.64
403.4725, 46002.31
403.9547, 46232.32
404.4368, 46439.22
404.9189, 46643.18
405.4010, 46873.46
405.8831, 47137.25
406.3652, 47412.70
406.8474, 47668.91
407.3295, 47903.13
407.8116, 48118.05
408.2937, 48291.78
408.7758, 48467.04
409.2579, 48652.01
409.7401, 48858.57
410.2222, 49115.73
410.7043, 49455.98
411.1864, 49863.77
411.6685, 50211.67
412.1506, 50427.18
412.6328, 50669.14
413.1149, 50980.85
413.5970, 51321.61
414.0791, 51640.75
414.5612, 51922.21
415.0433, 52199.71
415.5255, 52533.70
416.0076, 52951.97
416.4897, 53336.03
416.9718, 53630.10
417.4539, 53928.32
417.9360, 54287.51
418.4182, 54695.15
418.9003, 55088.82
419.3824, 55417.05
419.8645, 55697.15
420.3466, 56015.22
420.8287, 56381.71
421.3109, 56761.47
421.7930, 57174.20
422.2751, 57575.48
422.7572, 57903.40
423.2393, 58132.54
423.7214, 58325.04
424.2036, 58550.43
424.6857, 58806.23
425.1678, 59036.01
425.6499, 59216.71
426.1320, 59380.07
426.6141, 59582.84
427.0963, 59813.20
427.5784, 59971.27
428.0605, 59972.61
428.5426, 59894.01
429.0247, 59862.13
429.5068, 59887.71
429.9890, 59888.75
430.4711, 59823.88
430.9532, 59688.19
431.4353, 59495.63
431.9174, 59234.32
432.3995, 58933.30
432.8817, 58592.96
433.3638, 58225.85
433.8459, 57857.58
434.3280, 57498.75
434.8101, 57133.86
435.2922, 56739.44
435.7744, 56306.98
436.2565, 55877.48
436.7386, 55456.84
437.2207, 55035.17
437.7028, 54613.50
438.1849, 54187.61
438.6671, 53743.88
439.1492, 53272.23
439.6313, 52776.30
440.1134, 52288.89
440.5955, 51803.31
441.0776, 51334.11
441.5598, 50874.98
442.0418, 50439.08
442.5240, 50056.87
443.0061, 49731.63
443.4882, 49416.34
443.9703, 49046.52
444.4524, 48600.11
444.9345, 48199.63
445.4167, 47847.63
445.8988, 47541.56
446.3809, 47317.17
446.8630, 47137.35
447.3451, 46926.02
447.8272, 46633.94
448.3094, 46304.57
448.7915, 46057.77
449.2736, 45931.17
449.7557, 45778.96
450.2378, 45535.84
450.7199, 45272.22
451.2021, 45028.29
451.6842, 44810.87
452.1663, 44621.54
452.6484, 44479.54
453.1305, 44370.82
453.6126, 44231.64
454.0948, 44044.50
454.5769, 43861.64
455.0590, 43737.29
455.5411, 43639.86
456.0232, 43508.13
456.5053, 43294.48
456.9875, 43091.63
457.4696, 43006.23
457.9517, 43008.93
458.4338, 42956.25
458.9159, 42787.27
459.3980, 42569.40
459.8802, 42402.28
460.3623, 42287.63
460.8444, 42179.26
461.3265, 42065.18
461.8086, 41956.84
462.2907, 41880.34
462.7729, 41827.16
463.2550, 41741.19
463.7371, 41574.36
464.2192, 41348.16
464.7013, 41182.89
465.1834, 41131.68
465.6656, 41069.11
466.1477, 40973.74
466.6298, 40859.58
467.1119, 40738.34
467.5940, 40614.20
468.0761, 40493.28
468.5583, 40384.96
469.0404, 40292.49
469.5225, 40186.23
470.0046, 40051.20
470.4867, 39917.65
470.9688, 39782.41
471.4510, 39657.64
471.9331, 39570.21
472.4152, 39536.71
472.8973, 39519.64
473.3794, 39445.15
473.8615, 39301.69
474.3437, 39149.58
474.8258, 38982.63
475.3079, 38824.60
475.7900, 38699.14
476.2721, 38601.13
476.7542, 38495.39
477.2364, 38354.75
477.7185, 38193.46
478.2006, 38038.34
478.6827, 37888.59
479.1648, 37756.08
479.6469, 37657.39
480.1291, 37575.96
480.6112, 37486.28
481.0933, 37394.61
481.5754, 37275.32
482.0575, 37081.24
482.5396, 36858.64
483.0217, 36702.20
483.5038, 36632.84
483.9860, 36584.45
484.4681, 36498.35
484.9502, 36372.15
485.4323, 36227.17
485.9144, 36052.45
486.3965, 35872.02
486.8787, 35679.21
487.3608, 35489.86
487.8429, 35338.41
488.3250, 35237.95
488.8071, 35158.13
489.2892, 35044.84
489.7714, 34877.69
490.2535, 34724.04
490.7356, 34592.54
491.2177, 34464.32
491.6998, 34345.27
492.1819, 34222.07
492.6641, 34062.23
493.1462, 33838.36
493.6283, 33580.55
494.1104, 33380.13
494.5925, 33257.34
495.0746, 33138.44
495.5568, 33018.52
496.0389, 32888.94
496.5210, 32735.57
497.0031, 32560.77
497.4852, 32391.49
497.9673, 32254.63
498.4495, 32138.25
498.9316, 32010.75
499.4137, 31870.06
499.8958, 31721.09
500.3779, 31550.94
500.8600, 31378.50
501.3422, 31244.63
501.8243, 31167.52
502.3064, 31092.77
502.7885, 30989.50
503.2706, 30870.70
503.7527, 30759.69
504.2349, 30662.00
504.7170, 30564.51
505.1991, 30454.93
505.6812, 30331.75
506.1633, 30206.31
506.6454, 30060.42
507.1276, 29932.65
507.6097, 29844.95
508.0918, 29782.24
508.5739, 29726.73
509.0560, 29670.88
509.5381, 29606.91
510.0203, 29518.86
510.5024, 29392.57
510.9845, 29290.67
511.4666, 29238.14
511.9487, 29185.54
512.4308, 29110.88
512.9130, 29021.89
513.3951, 28935.98
513.8772, 28861.74
514.3593, 28794.96
514.8414, 28729.42
515.3235, 28665.47
515.8057, 28597.15
516.2878, 28516.54
516.7699, 28437.18
517.2520, 28366.54
517.7341, 28305.53
518.2162, 28259.92
518.6984, 28270.03
519.1805, 28274.88
519.6626, 28161.98
520.1447, 27942.25
520.6268, 27785.36
521.1089, 27792.14
521.5911, 27886.52
522.0732, 27890.11
522.5553, 27773.70
523.0374, 27672.27
523.5195, 27622.87
524.0016, 27587.63
524.4838, 27535.46
524.9659, 27464.90
525.4480, 27385.50
525.9301, 27301.48
526.4122, 27218.88
526.8943, 27169.62
527.3765, 27204.65
527.8586, 27199.83
528.3407, 27120.59
528.8228, 27016.55
529.3049, 26925.06
529.7870, 26851.70
530.2692, 26782.68
530.7513, 26702.06
531.2334, 26615.00
531.7155, 26557.88
532.1976, 26552.77
532.6797, 26526.47
533.1619, 26416.69
533.6440, 26285.57
534.1261, 26195.24
534.6082, 26157.47
535.0903, 26140.11
535.5724, 26123.67
536.0546, 26112.24
536.5367, 26126.56
537.0188, 26172.80
537.5009, 26192.06
537.9830, 26131.59
538.4651, 26006.37
538.9473, 25908.07
539.4294, 25841.06
539.9115, 25791.92
540.3936, 25776.17
540.8757, 25766.86
541.3578, 25723.12
541.8400, 25640.89
542.3221, 25558.65
542.8042, 25520.16
543.2863, 25526.67
543.7684, 25498.87
544.2505, 25389.10
544.7326, 25302.33
545.2147, 25277.52
545.6968, 25276.24
546.1790, 25248.91
546.6611, 25185.31
547.1432, 25129.26
547.6253, 25150.83
548.1074, 25238.59
548.5895, 25246.10
549.0717, 25125.55
549.5538, 25015.71
550.0359, 25026.97
550.5180, 25095.04
551.0001, 25122.40
551.4822, 25077.36
551.9644, 25029.37
552.4465, 25037.39
552.9286, 25070.28
553.4107, 25055.68
553.8928, 24978.55
554.3749, 24895.63
554.8571, 24860.29
555.3392, 24870.65
555.8213, 24858.32
556.3034, 24787.73
556.7855, 24740.98
557.2676, 24765.76
557.7498, 24812.84
558.2319, 24820.71
558.7140, 24776.95
559.1961, 24716.02
559.6782, 24673.66
560.1603, 24650.21
560.6425, 24634.14
561.1246, 24632.27
561.6067, 24628.19
562.0888, 24613.63
562.5709, 24596.05
563.0530, 24589.25
563.5352, 24597.40
564.0173, 24592.53
564.4994, 24534.93
564.9815, 24444.46
565.4636, 24387.75
565.9457, 24373.96
566.4279, 24379.28
566.9100, 24398.37
567.3921, 24422.55
567.8742, 24422.53
568.3563, 24380.99
568.8384, 24344.29
569.3206, 24337.98
569.8027, 24340.09
570.2848, 24322.96
570.7669, 24283.34
571.2490, 24233.89
571.7311, 24183.91
572.2133, 24134.54
572.6954, 24100.99
573.1775, 24095.70
573.6596, 24089.70
574.1417, 24078.41
574.6238, 24065.46
575.1060, 24055.20
575.5881, 24047.44
576.0702, 24037.17
576.5523, 24016.41
577.0344, 23990.14
577.5165, 23980.02
577.9987, 23991.15
578.4808, 23996.18
578.9629, 23981.02
579.4450, 23954.92
579.9271, 23930.02
580.4092, 23905.98
580.8914, 23886.88
581.3735, 23879.86
581.8556, 23875.07
582.3377, 23862.56
582.8198, 23841.70
583.3019, 23813.00
583.7841, 23775.19
584.2662, 23733.33
584.7483, 23700.99
585.2304, 23675.73
585.7125, 23665.10
586.1946, 23700.65
586.6768, 23722.06
587.1589, 23672.92
587.6410, 23577.21
588.1231, 23504.28
588.6052, 23496.94
589.0873, 23527.03
589.5695, 23534.28
590.0516, 23513.90
590.5337, 23507.82
591.0158, 23542.66
591.4979, 23571.75
591.9800, 23551.89
592.4622, 23493.42
592.9443, 23437.82
593.4264, 23394.08
593.9085, 23361.30
594.3906, 23346.01
594.8727, 23341.76
595.3549, 23328.23
595.8370, 23298.40
596.3191, 23267.00
596.8012, 23252.17
597.2833, 23256.10
597.7654, 23261.92
598.2476, 23282.91
598.7297, 23290.36
599.2118, 23264.30
599.6939, 23224.38
600.1760, 23194.88
600.6581, 23182.97
601.1403, 23180.61
601.6224, 23181.19
602.1045, 23184.37
602.5866, 23184.48
603.0687, 23185.64
603.5508, 23174.21
604.0330, 23121.24
604.5151, 23061.16
604.9972, 23043.28
605.4793, 23080.94
605.9614, 23120.00
606.4435, 23140.48
606.9257, 23142.92
607.4078, 23122.46
607.8899, 23081.40
608.3720, 23034.22
608.8541, 22985.47
609.3362, 22945.30
609.8184, 22947.48
610.3005, 23062.49
610.7826, 23113.11
611.2647, 23048.97
611.7468, 22967.23
612.2289, 22925.22
612.7111, 22919.53
613.1932, 22923.98
613.6753, 22925.86
614.1574, 22923.21
614.6395, 22906.79
615.1216, 22874.08
615.6038, 22863.87
616.0859, 22902.15
616.5680, 22937.20
617.0501, 22914.55
617.5322, 22851.09
618.0143, 22803.43
618.4965, 22787.25
618.9786, 22784.76
619.4607, 22788.30
619.9428, 22797.38
620.4249, 22823.48
620.9070, 22866.33
621.3892, 22878.90
621.8713, 22803.03
622.3534, 22640.65
622.8355, 22552.85
623.3176, 22603.70
623.7997, 22650.11
624.2819, 22675.58
624.7640, 22684.91
625.2461, 22679.84
625.7282, 22662.42
626.2103, 22639.10
626.6924, 22608.22
627.1745, 22577.47
627.6566, 22570.44
628.1387, 22589.17
628.6208, 22603.58
629.1030, 22601.67
629.5851, 22591.07
630.0672, 22586.91
630.5493, 22591.48
631.0314, 22574.07
631.5135, 22503.80
631.9957, 22435.18
632.4778, 22401.90
632.9599, 22396.46
633.4420, 22400.69
633.9241, 22407.47
634.4063, 22419.68
634.8884, 22447.75
635.3705, 22498.67
635.8526, 22503.70
636.3347, 22415.80
636.8168, 22347.90
637.2990, 22354.52
637.7811, 22392.90
638.2632, 22413.05
638.7453, 22404.45
639.2274, 22386.18
639.7095, 22372.76
640.1917, 22358.04
640.6738, 22322.31
641.1559, 22266.45
641.6380, 22231.99
642.1201, 22248.33
642.6022, 22287.67
643.0844, 22283.76
643.5665, 22193.00
644.0486, 22151.08
644.5307, 22205.45
645.0128, 22262.57
645.4949, 22271.98
645.9771, 22244.52
646.4592, 22204.71
646.9413, 22162.73
647.4234, 22130.24
647.9055, 22128.97
648.3876, 22158.19
648.8698, 22182.32
649.3519, 22198.70
649.8340, 22209.54
650.3161, 22220.23
650.7982, 22224.73
651.2803, 22208.15
651.7625, 22159.01
652.2446, 22115.89
652.7267, 22098.45
653.2088, 22091.81
653.6909, 22079.71
654.1730, 22061.94
654.6552, 22046.42
655.1373, 22037.80
655.6194, 22035.46
656.1015, 22037.85
656.5836, 22045.53
657.0657, 22056.69
657.5479, 22099.55
658.0300, 22117.84
658.5121, 22060.57
658.9942, 21964.99
659.4763, 21909.86
659.9584, 21930.79
660.4406, 21965.41
660.9227, 21954.11
661.4048, 21913.59
661.8869, 21890.76
662.3690, 21892.85
662.8511, 21887.78
663.3333, 21848.27
663.8154, 21786.38
664.2975, 21753.14
664.7796, 21778.36
665.2617, 21790.71
665.7438, 21770.00
666.2260, 21752.28
666.7081, 21776.21
667.1902, 21823.81
667.6723, 21841.14
668.1544, 21795.43
668.6365, 21729.39
669.1187, 21714.84
669.6008, 21749.15
670.0829, 21769.90
670.5650, 21765.46
671.0471, 21754.44
671.5292, 21748.54
672.0114, 21746.84
672.4935, 21747.00
672.9756, 21761.40
673.4577, 21755.64
673.9398, 21686.77
674.4219, 21615.55
674.9041, 21619.65
675.3862, 21683.60
675.8683, 21720.14
676.3504, 21672.23
676.8325, 21580.13
677.3146, 21545.23
677.7968, 21584.82
678.2789, 21595.66
678.7610, 21542.03
679.2431, 21490.54
679.7252, 21488.92
680.2073, 21516.23
680.6895, 21529.34
681.1716, 21514.02
681.6537, 21497.45
682.1358, 21506.32
682.6179, 21518.10
683.1000, 21490.02
683.5822, 21424.96
684.0643, 21374.54
684.5464, 21375.51
685.0285, 21403.50
685.5106, 21384.23
685.9927, 21281.06
686.4749, 21216.91
686.9570, 21245.92
687.4391, 21265.56
687.9212, 21212.89
688.4033, 21123.42
688.8854, 21067.92
689.3676, 21075.05
689.8497, 21092.26
690.3318, 21072.32
690.8139, 21031.25
691.2960, 21001.88
691.7781, 20987.65
692.2603, 20983.21
692.7424, 20987.57
693.2245, 20995.43
693.7066, 20992.68
694.1887, 20974.14
694.6708, 20954.79
695.1530, 20942.08
695.6351, 20920.96
696.1172, 20879.65
696.5993, 20825.92
697.0814, 20769.46
697.5635, 20712.79
698.0457, 20669.82
698.5278, 20668.53
699.0099, 20691.88
699.4920, 20679.95
699.9741, 20626.73
700.4562, 20572.74
700.9384, 20540.57
701.4205, 20518.92
701.9026, 20483.09
702.3847, 20422.99
702.8668, 20376.98
703.3489, 20356.64
703.8311, 20339.17
704.3132, 20310.37
704.7953, 20278.06
705.2774, 20255.49
705.7595, 20246.80
706.2416, 20244.74
706.7238, 20245.26
707.2059, 20246.41
707.6880, 20238.96
708.1701, 20221.98
708.6522, 20202.51
709.1343, 20186.02
709.6164, 20165.09
710.0985, 20124.61
710.5806, 20060.74
711.0627, 20005.97
711.5449, 19955.06
712.0270, 19921.24
712.5091, 19930.54
712.9912, 19952.22
713.4733, 19937.18
713.9554, 19877.96
714.4376, 19818.91
714.9197, 19807.20
715.4018, 19828.11
715.8839, 19823.34
716.3660, 19790.65
716.8481, 19748.02
717.3303, 19693.62
717.8124, 19641.84
718.2945, 19605.79
718.7766, 19585.48
719.2587, 19587.24
719.7408, 19652.54
720.2230, 19691.89
720.7051, 19645.04
721.1872, 19567.52
721.6693, 19525.00
722.1514, 19524.58
722.6335, 19533.48
723.1157, 19529.87
723.5978, 19512.79
724.0799, 19472.20
724.5620, 19403.26
725.0441, 19361.72
725.5262, 19374.30
726.0084, 19387.60
726.4905, 19347.46
726.9726, 19270.46
727.4547, 19223.26
727.9368, 19230.47
728.4189, 19234.18
728.9011, 19206.52
729.3832, 19175.64
729.8653, 19172.01
730.3474, 19191.19
730.8295, 19209.89
731.3116, 19215.65
731.7938, 19211.35
732.2759, 19197.31
732.7580, 19173.25
733.2401, 19166.28
733.7222, 19187.50
734.2043, 19201.50
734.6865, 19176.36
735.1686, 19135.32
735.6507, 19134.51
736.1328, 19194.04
736.6149, 19223.81
737.0970, 19179.23
737.5792, 19123.51
738.0613, 19089.63
738.5434, 19080.38
739.0255, 19103.00
739.5076, 19157.33
739.9897, 19208.11
740.4719, 19209.06
740.9540, 19167.42
741.4361, 19133.05
741.9182, 19105.46
742.4003, 19087.98
742.8824, 19081.41
743.3646, 19086.21
743.8467, 19110.42
744.3288, 19154.64
744.8109, 19178.98
745.2930, 19163.92
745.7751, 19147.48
746.2573, 19143.81
746.7394, 19147.99
747.2215, 19152.20
747.7036, 19156.53
748.1857, 19169.52
748.6678, 19200.71
749.1500, 19239.78
749.6321, 19261.07
750.1142, 19264.68
750.5963, 19275.36
751.0784, 19302.18
751.5605, 19324.64
752.0427, 19324.97
752.5248, 19306.64
753.0069, 19289.40
753.4890, 19267.24
753.9711, 19255.22
754.4532, 19254.13
754.9354, 19264.59
755.4175, 19294.43
755.8996, 19335.00
756.3817, 19371.42
756.8638, 19398.19
757.3459, 19409.17
757.8281, 19379.55
758.3102, 19327.03
758.7923, 19326.50
759.2744, 19384.69
759.7565, 19450.02
760.2386, 19502.75
760.7208, 19539.32
761.2029, 19549.21
761.6850, 19518.66
762.1671, 19518.73
762.6492, 19580.67
763.1313, 19633.52
763.6135, 19653.39
764.0956, 19653.87
764.5777, 19645.16
765.0598, 19631.93
765.5419, 19625.51
766.0240, 19637.74
766.5062, 19656.93
766.9883, 19663.89
767.4704, 19662.67
767.9525, 19672.80
768.4346, 19699.47
768.9167, 19724.25
769.3989, 19730.38
769.8810, 19720.61
770.3631, 19710.13
770.8452, 19681.94
771.3273, 19684.43
771.8094, 19755.29
772.2916, 19822.63
772.7737, 19850.52
773.2558, 19845.52
773.7379, 19819.19
774.2200, 19766.12
774.7021, 19729.21
775.1843, 19760.41
775.6664, 19810.78
776.1485, 19802.45
776.6306, 19746.29
777.1127, 19708.97
777.5948, 19720.23
778.0770, 19759.52
778.5591, 19801.62
779.0412, 19848.19
779.5233, 19861.97
780.0054, 19827.11
780.4875, 19792.48
780.9697, 19769.11
781.4518, 19756.91
781.9339, 19756.44
782.4160, 19767.35
782.8981, 19786.14
783.3802, 19840.10
783.8624, 19869.53
784.3445, 19811.81
784.8266, 19729.57
785.3087, 19714.46
785.7908, 19765.06
786.2729, 19807.92
786.7551, 19794.28
787.2372, 19745.08
787.7193, 19689.33
788.2014, 19627.78
788.6835, 19622.45
789.1656, 19700.11
789.6478, 19761.74
790.1299, 19736.27
790.6120, 19661.02
791.0941, 19628.13
791.5762, 19656.97
792.0583, 19667.58
792.5404, 19646.67
793.0225, 19616.71
793.5046, 19579.07
793.9868, 19543.21
794.4689, 19523.36
794.9510, 19520.79
795.4331, 19517.65
795.9152, 19496.43
796.3973, 19469.22
796.8795, 19465.44
797.3616, 19476.42
797.8437, 19450.67
798.3258, 19373.52
798.8079, 19303.79
799.2900, 19298.03
799.7722, 19341.11
800.2543, 19348.45
800.7364, 19302.29
801.2185, 19256.63
801.7006, 19213.48
802.1827, 19173.65
802.6649, 19137.64
803.1470, 19105.62
803.6291, 19077.81
804.1112, 19054.08
804.5933, 19036.41
805.0754, 19026.47
805.5576, 19023.10
806.0397, 19037.07
806.5218, 19055.23
807.0039, 19039.15
807.4860, 18978.65
807.9681, 18918.13
808.4503, 18915.72
808.9324, 18953.71
809.4145, 18923.34
809.8966, 18807.04
810.3787, 18734.62
810.8608, 18756.62
811.3430, 18797.39
811.8251, 18784.82
812.3072, 18728.87
812.7893, 18701.61
813.2714, 18737.22
813.7535, 18749.99
814.2357, 18700.70
814.7178, 18649.80
815.1999, 18643.73
815.6820, 18667.76
816.1641, 18690.79
816.6462, 18702.49
817.1284, 18692.97
817.6105, 18636.23
818.0926, 18559.13
818.5747, 18514.55
819.0568, 18500.60
819.5389, 18498.18
820.0211, 18501.96
820.5032, 18493.92
820.9853, 18449.61
821.4674, 18372.41
821.9495, 18315.50
822.4316, 18276.95
822.9138, 18262.96
823.3959, 18316.49
823.8780, 18352.82
824.3601, 18286.60
824.8422, 18162.55
825.3243, 18104.33
825.8065, 18163.62
826.2886, 18213.60
826.7707, 18197.93
827.2528, 18159.24
827.7349, 18132.85
828.2170, 18115.03
828.6992, 18088.85
829.1813, 18048.69
829.6634, 18005.45
830.1455, 17970.23
830.6276, 17941.43
831.1097, 17918.95
831.5919, 17902.51
832.0740, 17860.67
832.5561, 17777.09
833.0382, 17697.66
833.5203, 17670.90
834.0024, 17687.48
834.4846, 17674.39
834.9667, 17594.38
835.4488, 17545.89
835.9309, 17562.14
836.4130, 17579.54
836.8951, 17564.75
837.3773, 17528.21
837.8594, 17489.44
838.3415, 17451.93
838.8236, 17418.40
839.3057, 17393.54
839.7878, 17370.48
840.2700, 17352.48
840.7521, 17328.88
841.2342, 17266.50
841.7163, 17163.19
842.1984, 17071.69
842.6805, 17046.67
843.1627, 17062.63
843.6448, 17038.69
844.1269, 16973.61
844.6090, 16926.57
845.0911, 16915.02
845.5732, 16896.68
846.0554, 16837.42
846.5375, 16753.43
847.0196, 16690.68
847.5017, 16652.45
847.9838, 16629.46
848.4659, 16640.49
848.9481, 16644.14
849.4302, 16627.93
849.9123, 16593.57
850.3944, 16536.13
850.8765, 16458.68
851.3586, 16391.16
851.8408, 16338.55
852.3229, 16311.37
852.8050, 16342.97
853.2871, 16395.80
853.7692, 16404.50
854.2513, 16363.33
854.7335, 16302.11
855.2156, 16238.22
855.6977, 16176.79
856.1798, 16129.49
856.6619, 16095.79
857.1440, 16059.85
857.6262, 16018.94
858.1083, 15988.48
858.5904, 15979.88
859.0725, 15978.16
859.5546, 15964.72
860.0367, 15940.10
860.5189, 15897.73
861.0010, 15818.47
861.4831, 15748.41
861.9652, 15701.24
862.4473, 15659.98
862.9294, 15613.70
863.4116, 15562.16
863.8937, 15507.32
864.3758, 15447.16
864.8579, 15391.44
865.3400, 15340.56
865.8221, 15301.60
866.3043, 15289.44
866.7864, 15295.65
867.2685, 15303.72
867.7506, 15306.01
868.2327, 15288.47
868.7148, 15227.37
869.1970, 15140.93
869.6791, 15092.19
870.1612, 15081.23
870.6433, 15079.57
871.1254, 15086.53
871.6075, 15075.22
872.0897, 15018.32
872.5718, 14933.53
873.0539, 14879.19
873.5360, 14869.50
874.0181, 14857.78
874.5002, 14845.92
874.9823, 14829.93
875.4644, 14815.22
875.9465, 14791.76
876.4286, 14739.18
876.9108, 14659.11
877.3929, 14596.53
877.8750, 14590.50
878.3571, 14578.70
878.8392, 14517.37
879.3214, 14437.07
879.8035, 14370.11
880.2856, 14320.40
880.7677, 14282.70
881.2498, 14255.14
881.7319, 14229.76
882.2141, 14194.11
882.6962, 14152.88
883.1783, 14122.37
883.6604, 14102.03
884.1425, 14076.21
884.6246, 14038.36
885.1068, 14005.80
885.5889, 14000.87
886.0710, 14017.82
886.5531, 14012.61
887.0352, 13985.87
887.5173, 13931.92
887.9995, 13822.57
888.4816, 13724.45
888.9637, 13686.04
889.4458, 13684.68
889.9279, 13676.16
890.4100, 13659.71
890.8922, 13635.68
891.3743, 13587.69
891.8564, 13551.10
892.3385, 13559.55
892.8206, 13576.86
893.3027, 13554.98
893.7849, 13497.09
894.2670, 13450.35
894.7491, 13446.38
895.2312, 13443.86
895.7133, 13400.14
896.1954, 13335.23
896.6776, 13274.16
897.1597, 13223.54
897.6418, 13198.67
898.1239, 13205.58
898.6060, 13213.96
899.0881, 13182.76
899.5703, 13120.63
900.0524, 13068.33
900.5345, 13025.40
901.0166, 13008.54
901.4987, 13027.68
901.9808, 13049.94
902.4630, 13049.58
902.9451, 13031.40
903.4272, 13013.25
903.9093, 13005.33
904.3914, 12972.62
904.8735, 12868.60
905.3557, 12798.39
905.8378, 12828.33
906.3199, 12890.37
906.8020, 12912.31
907.2841, 12891.52
907.7662, 12862.91
908.2484, 12824.06
908.7305, 12792.57
909.2126, 12777.50
909.6947, 12771.65
910.1768, 12774.42
910.6589, 12779.53
911.1411, 12770.44
911.6232, 12740.36
912.1053, 12718.90
912.5874, 12746.45
913.0695, 12789.10
913.5516, 12793.75
914.0338, 12767.88
914.5159, 12735.35
914.9980, 12703.03
915.4801, 12672.01
915.9622, 12641.81
916.4443, 12617.28
916.9265, 12612.71
917.4086, 12628.02
917.8907, 12639.01
918.3728, 12643.68
918.8549, 12645.97
919.3370, 12647.48
919.8192, 12647.98
920.3013, 12647.60
920.7834, 12646.44
921.2655, 12640.43
921.7476, 12628.47
922.2297, 12613.58
922.7119, 12591.61
923.1940, 12571.38
923.6761, 12559.19
924.1582, 12552.16
924.6403, 12541.84
925.1224, 12523.06
925.6046, 12521.14
926.0867, 12558.71
926.5688, 12596.16
927.0509, 12621.45
927.5330, 12629.22
928.0151, 12597.78
928.4973, 12540.34
928.9794, 12516.94
929.4615, 12569.47
929.9436, 12629.18
930.4257, 12637.43
930.9078, 12614.81
931.3900, 12580.14
931.8721, 12543.33
932.3542, 12527.87
932.8363, 12540.50
933.3184, 12561.76
933.8005, 12573.30
934.2827, 12578.18
934.7648, 12587.17
935.2469, 12598.69
935.7290, 12590.08
936.2111, 12556.07
936.6932, 12542.72
937.1754, 12581.10
937.6575, 12642.57
938.1396, 12675.42
938.6217, 12678.25
939.1038, 12669.57
939.5859, 12647.75
940.0681, 12617.34
940.5502, 12568.46
941.0323, 12525.93
941.5144, 12509.71
941.9965, 12517.06
942.4786, 12538.96
942.9608, 12596.86
943.4429, 12624.59
943.9250, 12591.52
944.4071, 12560.88
944.8892, 12565.43
945.3713, 12581.22
945.8535, 12585.59
946.3356, 12574.69
946.8177, 12543.02
947.2998, 12455.16
947.7819, 12397.62
948.2640, 12448.59
948.7462, 12518.32
949.2283, 12515.10
949.7104, 12464.87
950.1925, 12433.49
950.6746, 12441.25
951.1567, 12470.62
951.6389, 12533.82
952.1210, 12588.44
952.6031, 12564.64
953.0852, 12494.93
953.5673, 12443.75
954.0494, 12422.25
954.5316, 12428.04
955.0137, 12460.83
955.4958, 12498.76
955.9779, 12503.94
956.4600, 12485.99
956.9421, 12494.89
957.4242, 12529.92
957.9063, 12569.05
958.3884, 12607.84
958.8705, 12635.11
959.3527, 12638.50
959.8348, 12630.11
960.3169, 12648.76
960.7990, 12702.97
961.2811, 12736.66
961.7632, 12741.31
962.2454, 12745.80
962.7275, 12756.58
963.2096, 12778.83
963.6917, 12834.33
964.1738, 12914.22
964.6559, 12917.49
965.1381, 12769.15
965.6202, 12665.76
966.1023, 12654.85
966.5844, 12641.52
967.0665, 12583.81
967.5486, 12500.15
968.0308, 12408.78
968.5129, 12311.69
968.9950, 12234.24
969.4771, 12185.18
969.9592, 12151.83
970.4413, 12144.50
970.9235, 12138.26
971.4056, 12111.27
971.8877, 12070.30
972.3698, 12029.89
972.8519, 11993.88
973.3340, 11966.33
973.8162, 11955.89
974.2983, 11948.12
974.7804, 11929.83
975.2625, 11907.57
975.7446, 11894.48
976.2267, 11887.34
976.7089, 11866.73
977.1910, 11822.68
977.6731, 11781.75
978.1552, 11772.03
978.6373, 11783.40
979.1194, 11805.49
979.6016, 11832.77
980.0837, 11846.74
980.5658, 11845.44
981.0479, 11847.24
981.5300, 11865.61
982.0121, 11887.40
982.4943, 11887.92
982.9764, 11870.49
983.4585, 11853.61
983.9406, 11837.81
984.4227, 11814.83
984.9048, 11780.83
985.3870, 11756.76
985.8691, 11764.48
986.3512, 11791.79
986.8333, 11792.85
987.3154, 11760.17
987.7975, 11768.55
988.2797, 11833.02
988.7618, 11894.72
989.2439, 11932.95
989.7260, 11953.12
990.2081, 11957.85
990.6902, 11949.52
991.1724, 11950.82
991.6545, 11964.88
992.1366, 11981.68
992.6187, 12002.93
993.1008, 12023.52
993.5829, 12039.97
994.0651, 12055.26
994.5472, 12075.51
995.0293, 12100.91
995.5114, 12116.73
995.9935, 12114.08
996.4756, 12114.42
996.9578, 12130.56
997.4399, 12139.57
997.9220, 12113.54
998.4041, 12078.82
998.8862, 12081.31
999.3683, 12126.69
999.8505, 12165.90
1000.333, 12183.10
1000.815, 12197.10
1001.297, 12221.90
1001.779, 12239.80
1002.261, 12221.33
1002.743, 12188.96
1003.225, 12192.38
1003.707, 12244.17
1004.190, 12296.35
1004.672, 12322.32
1005.154, 12343.70
1005.636, 12384.42
1006.118, 12422.20
1006.600, 12420.53
1007.082, 12392.50
1007.564, 12381.37
1008.046, 12402.94
1008.529, 12436.39
1009.011, 12465.50
1009.493, 12497.84
1009.975, 12551.85
1010.457, 12610.64
1010.939, 12641.78
1011.421, 12645.72
1011.903, 12643.08
1012.385, 12643.52
1012.868, 12651.20
1013.350, 12677.21
1013.832, 12710.01
1014.314, 12723.02
1014.796, 12724.88
1015.278, 12744.56
1015.760, 12784.74
1016.242, 12824.15
1016.725, 12850.30
1017.207, 12869.77
1017.689, 12892.36
1018.171, 12916.17
1018.653, 12932.10
1019.135, 12941.61
1019.617, 12954.22
1020.099, 12972.36
1020.581, 13002.89
1021.064, 13052.85
1021.546, 13104.92
1022.028, 13117.35
1022.510, 13096.22
1022.992, 13124.12
1023.474, 13202.75
1023.956, 13254.67
1024.438, 13257.68
1024.921, 13257.03
1025.403, 13286.50
1025.885, 13336.12
1026.367, 13384.98
1026.849, 13433.54
1027.331, 13469.00
1027.813, 13488.70
1028.295, 13509.71
1028.777, 13534.43
1029.260, 13570.17
1029.742, 13625.46
1030.224, 13692.39
1030.706, 13747.15
1031.188, 13787.78
1031.670, 13827.24
1032.152, 13864.40
1032.634, 13904.54
1033.116, 13951.89
1033.599, 13997.20
1034.081, 14030.55
1034.563, 14057.29
1035.045, 14095.26
1035.527, 14149.71
1036.009, 14197.52
1036.491, 14237.78
1036.973, 14272.56
1037.456, 14294.88
1037.938, 14321.07
1038.420, 14366.01
1038.902, 14425.44
1039.384, 14487.81
1039.866, 14564.40
1040.348, 14610.23
1040.830, 14574.21
1041.313, 14580.64
1041.795, 14702.50
1042.277, 14841.60
1042.759, 14917.77
1043.241, 14947.55
1043.723, 14979.05
1044.205, 15007.55
1044.687, 15053.43
1045.169, 15137.06
1045.651, 15212.11
1046.134, 15248.76
1046.616, 15286.10
1047.098, 15364.42
1047.580, 15468.33
1048.062, 15550.27
1048.544, 15598.55
1049.026, 15651.27
1049.508, 15722.60
1049.991, 15786.80
1050.473, 15824.88
1050.955, 15861.81
1051.437, 15925.63
1051.919, 16004.91
1052.401, 16063.75
1052.883, 16088.37
1053.365, 16132.23
1053.848, 16224.13
1054.330, 16315.11
1054.812, 16381.44
1055.294, 16443.55
1055.776, 16521.92
1056.258, 16610.39
1056.740, 16688.29
1057.222, 16749.06
1057.704, 16818.57
1058.187, 16908.23
1058.669, 17002.43
1059.151, 17099.99
1059.633, 17193.83
1060.115, 17264.65
1060.597, 17330.90
1061.079, 17446.04
1061.561, 17628.66
1062.043, 17763.94
1062.526, 17771.82
1063.008, 17777.17
1063.490, 17829.60
1063.972, 17910.04
1064.454, 18014.96
1064.936, 18128.98
1065.418, 18222.91
1065.900, 18290.93
1066.383, 18365.11
1066.865, 18461.18
1067.347, 18562.12
1067.829, 18666.51
1068.311, 18766.56
1068.793, 18842.71
1069.275, 18913.76
1069.757, 19020.80
1070.240, 19169.82
1070.722, 19311.67
1071.204, 19419.47
1071.686, 19524.06
1072.168, 19639.15
1072.650, 19757.95
1073.132, 19873.70
1073.614, 19990.83
1074.096, 20118.50
1074.578, 20257.53
1075.061, 20401.14
1075.543, 20550.47
1076.025, 20697.75
1076.507, 20835.27
1076.989, 20972.93
1077.471, 21117.90
1077.953, 21269.60
1078.435, 21424.71
1078.918, 21583.80
1079.400, 21751.57
1079.882, 21934.88
1080.364, 22118.43
1080.846, 22298.45
1081.328, 22473.77
1081.810, 22644.02
1082.292, 22809.98
1082.774, 22971.57
1083.257, 23129.79
1083.739, 23285.81
1084.221, 23431.07
1084.703, 23603.73
1085.185, 23828.39
1085.667, 24077.74
1086.149, 24352.34
1086.631, 24627.92
1087.114, 24873.01
1087.596, 25094.82
1088.078, 25332.85
1088.560, 25606.11
1089.042, 25858.61
1089.524, 26037.53
1090.006, 26227.73
1090.488, 26492.11
1090.970, 26779.21
1091.453, 27027.88
1091.935, 27254.07
1092.417, 27505.69
1092.899, 27796.41
1093.381, 28096.75
1093.863, 28411.60
1094.345, 28713.28
1094.827, 28992.72
1095.309, 29246.97
1095.792, 29452.51
1096.274, 29638.86
1096.756, 29866.23
1097.238, 30144.29
1097.720, 30415.61
1098.202, 30690.05
1098.684, 30916.58
1099.166, 31028.76
1099.649, 31140.71
1100.131, 31339.32
1100.613, 31585.24
1101.095, 31828.52
1101.577, 32058.89
1102.059, 32246.96
1102.541, 32326.02
1103.023, 32458.35
1103.505, 32734.77
1103.988, 33013.93
1104.470, 33209.86
1104.952, 33373.38
1105.434, 33557.11
1105.916, 33765.49
1106.398, 33997.63
1106.880, 34272.93
1107.362, 34524.19
1107.844, 34698.67
1108.327, 34902.04
1108.809, 35207.27
1109.291, 35531.19
1109.773, 35787.79
1110.255, 36002.50
1110.737, 36256.83
1111.219, 36565.69
1111.701, 36878.20
1112.184, 37205.95
1112.666, 37514.50
1113.148, 37767.74
1113.630, 38030.47
1114.112, 38346.98
1114.594, 38699.58
1115.076, 39052.32
1115.558, 39398.81
1116.041, 39798.59
1116.523, 40275.86
1117.005, 40764.27
1117.487, 41271.47
1117.969, 41768.17
1118.451, 42229.71
1118.933, 42682.44
1119.415, 43152.42
1119.897, 43639.86
1120.380, 44182.92
1120.862, 44810.62
1121.344, 45416.26
1121.826, 45970.29
1122.308, 46562.38
1122.790, 47230.54
1123.272, 47943.75
1123.754, 48682.25
1124.236, 49432.35
1124.719, 50140.75
1125.201, 50793.77
1125.683, 51491.48
1126.165, 52237.37
1126.647, 53013.95
1127.129, 53811.30
1127.611, 54658.38
1128.093, 55577.28
1128.576, 56543.36
1129.058, 57509.95
1129.540, 58474.21
1130.022, 59493.39
1130.504, 60567.01
1130.986, 61637.23
1131.468, 62689.48
1131.950, 63755.20
1132.432, 64848.36
1132.915, 65964.89
1133.397, 67099.81
1133.879, 68244.59
1134.361, 69354.63
1134.843, 70443.35
1135.325, 71609.00
1135.807, 72849.13
1136.289, 73988.64
1136.771, 74972.20
1137.254, 75900.38
1137.736, 76857.55
1138.218, 77793.71
1138.700, 78611.23
1139.182, 79333.52
1139.664, 80047.42
1140.146, 80741.05
1140.628, 81341.09
1141.111, 81842.32
1141.593, 82299.55
1142.075, 82746.83
1142.557, 83128.76
1143.039, 83384.06
1143.521, 83534.80
1144.003, 83573.53
1144.485, 83553.69
1144.968, 83598.01
1145.450, 83689.57
1145.932, 83730.61
1146.414, 83691.85
1146.896, 83618.98
1147.378, 83530.96
1147.860, 83448.70
1148.342, 83386.66
1148.824, 83346.10
1149.307, 83339.62
1149.789, 83350.56
1150.271, 83350.54
1150.753, 83337.52
1151.235, 83322.39
1151.717, 83302.47
1152.199, 83317.51
1152.681, 83398.82
1153.163, 83512.96
1153.646, 83618.54
1154.128, 83762.27
1154.610, 84037.00
1155.092, 84378.79
1155.574, 84620.17
1156.056, 84726.66
1156.538, 84891.94
1157.020, 85192.22
1157.503, 85528.56
1157.985, 85866.95
1158.467, 86240.77
1158.949, 86688.39
1159.431, 87173.47
1159.913, 87655.05
1160.395, 88131.30
1160.877, 88580.76
1161.359, 88948.74
1161.842, 89400.57
1162.324, 89997.25
1162.806, 90589.18
1163.288, 91142.95
1163.770, 91666.45
1164.252, 92145.51
1164.734, 92612.70
1165.216, 93141.98
1165.698, 93737.63
1166.181, 94335.83
1166.663, 94937.63
1167.145, 95534.30
1167.627, 96131.20
1168.109, 96704.11
1168.591, 97231.81
1169.073, 97773.63
1169.555, 98413.23
1170.037, 99110.09
1170.520, 99706.93
1171.002, 100204.4
1171.484, 100690.5
1171.966, 101169.4
1172.448, 101700.1
1172.930, 102298.9
1173.412, 102947.6
1173.894, 103640.7
1174.377, 104319.7
1174.859, 104879.2
1175.341, 105368.0
1175.823, 105933.2
1176.305, 106544.0
1176.787, 107092.8
1177.269, 107590.5
1177.751, 108146.0
1178.234, 108791.1
1178.716, 109401.7
1179.198, 109854.5
1179.680, 110292.2
1180.162, 110925.8
1180.644, 111591.7
1181.126, 112075.2
1181.608, 112440.4
1182.090, 112791.5
1182.573, 113156.3
1183.055, 113554.3
1183.537, 113999.5
1184.019, 114414.5
1184.501, 114727.9
1184.983, 115036.0
1185.465, 115393.7
1185.947, 115767.1
1186.429, 116107.2
1186.912, 116451.2
1187.394, 116893.2
1187.876, 117434.7
1188.358, 117893.3
1188.840, 118150.4
1189.322, 118467.1
1189.804, 118908.7
1190.286, 119361.0
1190.769, 119766.7
1191.251, 120185.0
1191.733, 120681.9
1192.215, 121214.9
1192.697, 121667.4
1193.179, 122021.0
1193.661, 122442.0
1194.143, 122934.9
1194.625, 123480.6
1195.108, 124080.8
1195.590, 124723.5
1196.072, 125413.7
1196.554, 126093.6
1197.036, 126693.3
1197.518, 127228.9
1198.000, 127730.3
1198.482, 128205.8
1198.964, 128757.4
1199.447, 129382.0
1199.929, 130028.5
1200.411, 130687.4
1200.893, 131401.1
1201.375, 132192.4
1201.857, 133020.8
1202.339, 133869.1
1202.821, 134707.8
1203.304, 135471.0
1203.786, 136205.7
1204.268, 136995.8
1204.750, 137834.7
1205.232, 138663.0
1205.714, 139478.0
1206.196, 140365.6
1206.678, 141395.8
1207.161, 142409.2
1207.643, 143260.2
1208.125, 144108.2
1208.607, 145074.0
1209.089, 146093.8
1209.571, 147115.6
1210.053, 148125.5
1210.535, 149096.8
1211.017, 150016.3
1211.500, 151045.6
1211.982, 152280.1
1212.464, 153528.8
1212.946, 154857.6
1213.428, 156066.5
1213.910, 156984.0
1214.392, 157857.5
1214.874, 158890.0
1215.356, 160073.5
1215.839, 161412.2
1216.321, 162935.2
1216.803, 164318.0
1217.285, 165544.3
1217.767, 166736.2
1218.249, 167907.5
1218.731, 169058.6
1219.213, 170180.5
1219.696, 171396.6
1220.178, 172869.1
1220.660, 174456.0
1221.142, 175808.7
1221.624, 177010.6
1222.106, 178279.2
1222.588, 179647.8
1223.070, 181238.2
1223.552, 183015.8
1224.035, 184673.0
1224.517, 186066.0
1224.999, 187448.0
1225.481, 188997.4
1225.963, 190670.2
1226.445, 192497.0
1226.927, 194338.2
1227.409, 195974.0
1227.891, 197544.1
1228.374, 199334.6
1228.856, 201334.3
1229.338, 203342.4
1229.820, 205348.1
1230.302, 207193.0
1230.784, 208635.8
1231.266, 210199.5
1231.748, 212095.9
1232.231, 214115.2
1232.713, 216180.0
1233.195, 218243.7
1233.677, 220199.3
1234.159, 222074.3
1234.641, 224114.1
1235.123, 226370.7
1235.605, 228593.6
1236.088, 230781.9
1236.570, 232894.8
1237.052, 234912.6
1237.534, 237001.0
1238.016, 239273.4
1238.498, 241635.8
1238.980, 243961.6
1239.462, 246292.3
1239.944, 248854.9
1240.427, 251534.3
1240.909, 253935.6
1241.391, 256155.7
1241.873, 258643.6
1242.355, 261474.3
1242.837, 264366.8
1243.319, 267193.8
1243.801, 269953.1
1244.283, 272552.4
1244.766, 275234.6
1245.248, 278289.9
1245.730, 281436.8
1246.212, 284384.8
1246.694, 287210.1
1247.176, 290045.7
1247.658, 292903.8
1248.140, 295750.3
1248.622, 298476.7
1249.105, 301431.8
1249.587, 304854.5
1250.069, 308135.5
1250.551, 311019.3
1251.033, 313932.4
1251.515, 317183.7
1251.997, 320559.3
1252.479, 323739.4
1252.962, 326767.3
1253.444, 329898.1
1253.926, 333138.5
1254.408, 336355.3
1254.890, 339547.1
1255.372, 342831.3
1255.854, 346208.9
1256.336, 349585.9
1256.818, 352884.5
1257.301, 356027.8
1257.783, 358792.8
1258.265, 361486.4
1258.747, 364474.9
1259.229, 367639.7
1259.711, 370967.9
1260.193, 374283.8
1260.675, 377271.6
1261.157, 379959.8
1261.640, 382741.7
1262.122, 385781.6
1262.604, 388684.1
1263.086, 391170.3
1263.568, 393734.0
1264.050, 396683.8
1264.532, 399584.6
1265.014, 402238.5
1265.497, 404630.7
1265.979, 406614.3
1266.461, 408322.9
1266.943, 410330.4
1267.425, 412677.3
1267.907, 415018.0
1268.389, 417390.8
1268.871, 419290.4
1269.354, 420620.5
1269.836, 422062.3
1270.318, 423944.0
1270.800, 425768.8
1271.282, 427017.6
1271.764, 428053.9
1272.246, 429499.4
1272.728, 431124.7
1273.210, 432662.1
1273.693, 433987.5
1274.175, 434811.1
1274.657, 435253.8
1275.139, 435690.3
1275.621, 436238.5
1276.103, 436995.2
1276.585, 438191.2
1277.067, 439290.4
1277.549, 440312.0
1278.032, 440956.9
1278.514, 440813.3
1278.996, 440487.6
1279.478, 440493.3
1279.960, 440695.6
1280.442, 440821.2
1280.924, 440874.5
1281.406, 441034.9
1281.889, 441353.5
1282.371, 441439.9
1282.853, 441260.4
1283.335, 441108.8
1283.817, 441076.3
1284.299, 441225.0
1284.781, 441600.0
1285.263, 441964.3
1285.745, 442037.5
1286.228, 441812.7
##END=



