##NAMES=Fluorapatite
##RRUFFID=R060421
##IDEAL CHEMISTRY=Ca_5_(PO_4_)_3_F
##LOCALITY=Levant mine, St. Just, Cornwall, England
##OWNER=RRUFF
##SOURCE=Michael Scott
##DESCRIPTION=Brown hexagonal prisms
##STATUS=The identification of this mineral has been confirmed by X-ray diffraction and chemical analysis
##URL=rruff.info/R060421
##MEASURED CHEMISTRY=(Ca_4.93_[box]_0.07_)_Σ=5_((PO_4_)_2.86_(CO_3_)_0.14_)_Σ=3_F_1.00_ ; C not measured but estimated by difference and charge balance
110.3722, 1549.152
110.8544, 1547.476
111.3365, 1546.481
111.8186, 1548.477
112.3007, 1552.309
112.7828, 1555.762
113.2649, 1557.065
113.7471, 1556.443
114.2292, 1556.892
114.7113, 1559.421
115.1934, 1562.178
115.6755, 1564.779
116.1576, 1567.040
116.6397, 1568.680
117.1219, 1569.150
117.6040, 1567.616
118.0861, 1567.509
118.5682, 1569.105
119.0503, 1571.581
119.5324, 1574.953
120.0146, 1579.012
120.4967, 1582.987
120.9788, 1585.535
121.4609, 1585.143
121.9430, 1585.434
122.4251, 1586.581
122.9073, 1588.341
123.3894, 1590.558
123.8715, 1593.242
124.3536, 1596.111
124.8357, 1598.312
125.3178, 1599.384
125.8000, 1600.894
126.2821, 1603.587
126.7642, 1607.256
127.2463, 1611.038
127.7284, 1614.425
128.2105, 1617.862
128.6927, 1622.027
129.1748, 1627.031
129.6569, 1632.652
130.1390, 1639.046
130.6211, 1646.448
131.1032, 1653.209
131.5854, 1656.919
132.0675, 1660.254
132.5496, 1665.843
133.0317, 1674.890
133.5138, 1686.430
133.9959, 1698.257
134.4781, 1710.114
134.9602, 1722.907
135.4423, 1737.156
135.9244, 1752.296
136.4065, 1768.024
136.8886, 1784.711
137.3708, 1801.987
137.8529, 1813.306
138.3350, 1816.258
138.8171, 1815.257
139.2992, 1810.561
139.7813, 1802.583
140.2635, 1791.491
140.7456, 1777.060
141.2277, 1758.549
141.7098, 1743.187
142.1919, 1732.277
142.6740, 1722.718
143.1561, 1712.839
143.6383, 1702.561
144.1204, 1692.874
144.6025, 1684.939
145.0846, 1679.124
145.5667, 1673.104
146.0488, 1665.624
146.5310, 1658.460
147.0131, 1653.594
147.4952, 1651.484
147.9773, 1651.070
148.4594, 1652.217
148.9415, 1654.598
149.4237, 1655.703
149.9058, 1653.379
150.3879, 1648.979
150.8700, 1646.340
151.3521, 1646.499
151.8342, 1648.127
152.3164, 1649.871
152.7985, 1651.768
153.2806, 1654.174
153.7627, 1658.281
154.2448, 1664.181
154.7269, 1667.386
155.2091, 1664.148
155.6912, 1660.270
156.1733, 1658.304
156.6554, 1658.577
157.1375, 1660.376
157.6196, 1663.376
158.1018, 1668.697
158.5839, 1671.798
159.0660, 1671.536
159.5481, 1669.932
160.0302, 1667.530
160.5123, 1664.718
160.9945, 1662.343
161.4766, 1661.991
161.9587, 1665.421
162.4408, 1668.419
162.9229, 1671.188
163.4050, 1673.440
163.8871, 1674.788
164.3693, 1675.108
164.8514, 1674.716
165.3335, 1674.358
165.8156, 1674.440
166.2977, 1674.002
166.7798, 1672.241
167.2620, 1670.021
167.7441, 1668.960
168.2262, 1670.033
168.7083, 1672.052
169.1904, 1671.381
169.6725, 1666.334
170.1547, 1662.210
170.6368, 1661.762
171.1189, 1664.110
171.6010, 1666.340
172.0831, 1667.412
172.5652, 1667.276
173.0474, 1666.113
173.5295, 1663.358
174.0116, 1660.663
174.4937, 1659.439
174.9758, 1659.680
175.4579, 1660.031
175.9401, 1660.347
176.4222, 1660.231
176.9043, 1658.942
177.3864, 1655.849
177.8685, 1652.739
178.3506, 1652.168
178.8328, 1654.884
179.3149, 1657.508
179.7970, 1658.881
180.2791, 1659.654
180.7612, 1660.248
181.2433, 1660.779
181.7255, 1661.350
182.2076, 1662.253
182.6897, 1663.831
183.1718, 1665.071
183.6539, 1665.733
184.1360, 1666.022
184.6181, 1666.040
185.1003, 1665.808
185.5824, 1665.488
186.0645, 1665.688
186.5466, 1667.348
187.0287, 1668.364
187.5108, 1668.422
187.9930, 1667.717
188.4751, 1665.985
188.9572, 1662.933
189.4393, 1659.340
189.9214, 1659.755
190.4035, 1670.269
190.8857, 1678.040
191.3678, 1679.194
191.8499, 1676.080
192.3320, 1672.824
192.8141, 1671.876
193.2962, 1672.905
193.7784, 1673.349
194.2605, 1673.144
194.7426, 1672.589
195.2247, 1671.128
195.7068, 1669.267
196.1889, 1668.382
196.6711, 1669.343
197.1532, 1672.028
197.6353, 1675.242
198.1174, 1680.713
198.5995, 1685.114
199.0816, 1685.419
199.5638, 1682.313
200.0459, 1680.585
200.5280, 1684.075
201.0101, 1690.724
201.4922, 1694.177
201.9743, 1692.226
202.4565, 1689.061
202.9386, 1688.108
203.4207, 1689.409
203.9028, 1691.382
204.3849, 1693.260
204.8670, 1695.324
205.3492, 1698.095
205.8313, 1702.201
206.3134, 1706.362
206.7955, 1708.949
207.2776, 1709.776
207.7597, 1709.877
208.2419, 1708.761
208.7240, 1707.507
209.2061, 1707.289
209.6882, 1708.658
210.1703, 1710.845
210.6524, 1712.675
211.1346, 1714.257
211.6167, 1715.088
212.0988, 1714.336
212.5809, 1713.120
213.0630, 1712.625
213.5451, 1713.410
214.0273, 1714.787
214.5094, 1715.073
214.9915, 1713.250
215.4736, 1712.199
215.9557, 1712.678
216.4378, 1713.976
216.9200, 1715.537
217.4021, 1717.130
217.8842, 1718.621
218.3663, 1719.611
218.8484, 1719.886
219.3305, 1719.905
219.8127, 1719.323
220.2948, 1718.701
220.7769, 1718.694
221.2590, 1719.604
221.7411, 1721.105
222.2232, 1722.219
222.7054, 1721.810
223.1875, 1722.428
223.6696, 1724.733
224.1517, 1727.948
224.6338, 1731.311
225.1159, 1734.497
225.5980, 1737.423
226.0802, 1739.835
226.5623, 1741.678
227.0444, 1743.025
227.5265, 1743.057
228.0086, 1742.826
228.4907, 1744.012
228.9729, 1747.407
229.4550, 1751.808
229.9371, 1753.931
230.4192, 1751.787
230.9013, 1750.620
231.3834, 1751.724
231.8656, 1754.173
232.3477, 1756.863
232.8298, 1759.503
233.3119, 1761.674
233.7940, 1762.019
234.2761, 1759.310
234.7583, 1758.104
235.2404, 1760.642
235.7225, 1765.250
236.2046, 1769.107
236.6867, 1771.324
237.1688, 1772.389
237.6510, 1773.361
238.1331, 1774.650
238.6152, 1774.280
239.0973, 1770.836
239.5794, 1765.294
240.0615, 1759.195
240.5437, 1752.079
241.0258, 1746.356
241.5079, 1746.309
241.9900, 1751.856
242.4721, 1756.377
242.9542, 1756.398
243.4364, 1753.309
243.9185, 1750.291
244.4006, 1747.274
244.8827, 1745.837
245.3648, 1748.222
245.8469, 1753.917
246.3290, 1759.394
246.8112, 1763.169
247.2933, 1765.416
247.7754, 1766.593
248.2575, 1766.352
248.7396, 1765.650
249.2217, 1764.910
249.7039, 1764.262
250.1860, 1764.235
250.6681, 1765.792
251.1502, 1768.314
251.6323, 1769.412
252.1144, 1768.347
252.5966, 1766.823
253.0787, 1765.718
253.5608, 1764.970
254.0429, 1764.410
254.5250, 1763.592
255.0071, 1762.873
255.4893, 1763.764
255.9714, 1766.999
256.4535, 1770.794
256.9356, 1774.777
257.4177, 1778.627
257.8998, 1781.699
258.3820, 1783.167
258.8641, 1783.807
259.3462, 1786.630
259.8283, 1793.506
260.3104, 1799.488
260.7925, 1802.263
261.2747, 1803.558
261.7568, 1805.845
262.2389, 1810.664
262.7210, 1816.688
263.2031, 1819.827
263.6852, 1817.771
264.1674, 1816.725
264.6495, 1818.320
265.1316, 1821.426
265.6137, 1825.163
266.0958, 1829.221
266.5779, 1833.073
267.0601, 1835.382
267.5422, 1835.517
268.0243, 1835.095
268.5064, 1834.385
268.9885, 1833.336
269.4706, 1831.673
269.9528, 1829.335
270.4349, 1826.925
270.9170, 1825.671
271.3991, 1826.312
271.8812, 1826.715
272.3633, 1827.261
272.8455, 1827.233
273.3276, 1825.650
273.8097, 1822.452
274.2918, 1818.905
274.7739, 1817.014
275.2560, 1817.745
275.7382, 1818.132
276.2202, 1817.892
276.7024, 1817.580
277.1845, 1817.675
277.6666, 1818.163
278.1487, 1818.547
278.6308, 1818.140
279.1129, 1816.514
279.5951, 1815.576
280.0772, 1815.747
280.5593, 1816.095
281.0414, 1816.268
281.5235, 1816.175
282.0056, 1815.773
282.4878, 1814.962
282.9699, 1813.622
283.4520, 1812.754
283.9341, 1812.971
284.4162, 1813.014
284.8983, 1811.660
285.3805, 1809.608
285.8626, 1808.883
286.3447, 1811.327
286.8268, 1816.846
287.3089, 1819.818
287.7910, 1817.184
288.2732, 1815.506
288.7553, 1817.104
289.2374, 1821.007
289.7195, 1825.386
290.2016, 1829.244
290.6837, 1832.448
291.1659, 1834.259
291.6480, 1833.590
292.1301, 1832.777
292.6122, 1832.010
293.0943, 1831.357
293.5764, 1830.754
294.0586, 1830.149
294.5407, 1829.819
295.0228, 1830.523
295.5049, 1833.189
295.9870, 1835.828
296.4691, 1838.538
296.9513, 1841.125
297.4334, 1843.186
297.9155, 1844.615
298.3976, 1846.047
298.8797, 1848.629
299.3618, 1853.832
299.8440, 1857.339
300.3261, 1857.625
300.8082, 1857.185
301.2903, 1858.014
301.7724, 1860.479
302.2545, 1863.697
302.7367, 1866.595
303.2188, 1868.820
303.7009, 1872.257
304.1830, 1877.454
304.6651, 1883.281
305.1472, 1889.722
305.6294, 1896.372
306.1115, 1901.811
306.5936, 1904.499
307.0757, 1904.198
307.5578, 1906.254
308.0399, 1913.619
308.5221, 1920.002
309.0042, 1922.450
309.4863, 1921.635
309.9684, 1919.404
310.4505, 1916.699
310.9326, 1913.764
311.4148, 1912.465
311.8969, 1914.705
312.3790, 1916.128
312.8611, 1915.060
313.3432, 1912.621
313.8253, 1910.824
314.3075, 1910.664
314.7896, 1911.195
315.2717, 1909.931
315.7538, 1905.235
316.2359, 1901.103
316.7180, 1897.900
317.2001, 1895.392
317.6823, 1893.354
318.1644, 1891.707
318.6465, 1890.469
319.1286, 1889.630
319.6107, 1889.079
320.0928, 1889.388
320.5750, 1891.840
321.0571, 1894.226
321.5392, 1894.403
322.0213, 1892.364
322.5034, 1890.175
322.9855, 1890.083
323.4677, 1892.593
323.9498, 1893.202
324.4319, 1890.466
324.9140, 1887.464
325.3961, 1886.061
325.8782, 1885.804
326.3604, 1884.754
326.8425, 1881.286
327.3246, 1875.830
327.8067, 1873.260
328.2888, 1876.916
328.7709, 1879.280
329.2531, 1877.555
329.7352, 1873.453
330.2173, 1869.693
330.6994, 1867.545
331.1815, 1866.696
331.6636, 1866.299
332.1458, 1867.619
332.6279, 1867.810
333.1100, 1865.206
333.5921, 1862.218
334.0742, 1861.529
334.5563, 1863.795
335.0385, 1867.271
335.5206, 1869.422
336.0027, 1869.633
336.4848, 1869.971
336.9669, 1870.938
337.4490, 1871.620
337.9312, 1871.060
338.4133, 1869.451
338.8954, 1868.030
339.3775, 1868.050
339.8596, 1869.696
340.3417, 1870.375
340.8239, 1869.174
341.3060, 1868.078
341.7881, 1868.095
342.2702, 1868.736
342.7523, 1868.775
343.2344, 1867.355
343.7166, 1864.984
344.1987, 1864.160
344.6808, 1867.516
345.1629, 1869.445
345.6450, 1868.067
346.1271, 1865.563
346.6093, 1864.562
347.0914, 1865.991
347.5735, 1868.531
348.0556, 1869.669
348.5377, 1868.692
349.0198, 1867.524
349.5020, 1865.896
349.9841, 1864.331
350.4662, 1862.947
350.9483, 1861.914
351.4304, 1861.696
351.9125, 1863.050
352.3947, 1866.415
352.8768, 1868.413
353.3589, 1868.595
353.8410, 1867.877
354.3231, 1865.074
354.8052, 1861.623
355.2874, 1860.583
355.7695, 1864.481
356.2516, 1872.033
356.7337, 1875.868
357.2158, 1872.650
357.6979, 1870.037
358.1800, 1870.083
358.6621, 1871.132
359.1443, 1870.990
359.6264, 1868.827
360.1085, 1866.295
360.5906, 1866.625
361.0727, 1871.173
361.5548, 1875.093
362.0370, 1878.660
362.5191, 1880.941
363.0012, 1880.648
363.4833, 1878.041
363.9654, 1875.135
364.4475, 1873.914
364.9297, 1874.455
365.4118, 1875.345
365.8939, 1877.014
366.3760, 1878.550
366.8581, 1879.159
367.3402, 1879.368
367.8224, 1880.352
368.3045, 1883.100
368.7866, 1886.832
369.2687, 1889.338
369.7508, 1890.590
370.2329, 1890.561
370.7151, 1888.328
371.1972, 1885.375
371.6793, 1883.084
372.1614, 1881.882
372.6435, 1881.308
373.1256, 1880.818
373.6078, 1880.398
374.0899, 1880.378
374.5720, 1881.218
375.0541, 1882.149
375.5362, 1882.655
376.0183, 1882.728
376.5005, 1882.529
376.9826, 1881.681
377.4647, 1880.568
377.9468, 1880.798
378.4289, 1882.988
378.9110, 1885.345
379.3932, 1886.788
379.8753, 1887.525
380.3574, 1887.854
380.8395, 1887.679
381.3216, 1887.303
381.8037, 1887.105
382.2859, 1887.088
382.7680, 1887.006
383.2501, 1886.498
383.7322, 1886.073
384.2143, 1886.512
384.6964, 1888.008
385.1786, 1889.767
385.6607, 1891.660
386.1428, 1893.480
386.6249, 1894.482
387.1070, 1894.237
387.5891, 1893.896
388.0713, 1895.487
388.5534, 1898.794
389.0355, 1900.255
389.5176, 1897.062
389.9997, 1893.001
390.4818, 1891.990
390.9640, 1894.137
391.4461, 1897.165
391.9282, 1899.701
392.4103, 1901.825
392.8924, 1904.061
393.3745, 1907.140
393.8567, 1909.512
394.3388, 1910.267
394.8209, 1909.901
395.3030, 1909.207
395.7851, 1908.402
396.2672, 1907.792
396.7494, 1908.001
397.2315, 1909.593
397.7136, 1910.614
398.1957, 1909.843
398.6778, 1909.227
399.1599, 1910.795
399.6420, 1914.472
400.1241, 1918.435
400.6063, 1921.209
401.0884, 1922.815
401.5705, 1922.754
402.0526, 1918.954
402.5347, 1916.049
403.0168, 1915.643
403.4990, 1917.053
403.9811, 1919.295
404.4632, 1921.912
404.9453, 1924.615
405.4274, 1926.698
405.9095, 1928.268
406.3917, 1928.945
406.8738, 1927.806
407.3559, 1926.544
407.8380, 1926.393
408.3201, 1927.458
408.8022, 1929.016
409.2844, 1930.362
409.7665, 1931.454
410.2486, 1932.810
410.7307, 1934.783
411.2128, 1936.603
411.6949, 1938.048
412.1771, 1939.171
412.6592, 1939.968
413.1413, 1940.336
413.6234, 1940.710
414.1055, 1942.190
414.5876, 1945.250
415.0698, 1947.994
415.5519, 1949.610
416.0340, 1950.998
416.5161, 1952.543
416.9982, 1954.368
417.4803, 1956.843
417.9625, 1960.794
418.4446, 1965.904
418.9267, 1969.953
419.4088, 1972.296
419.8909, 1974.423
420.3730, 1977.241
420.8552, 1980.535
421.3373, 1983.899
421.8194, 1987.338
422.3015, 1990.630
422.7836, 1992.978
423.2657, 1994.405
423.7479, 1997.434
424.2300, 2004.101
424.7121, 2011.990
425.1942, 2016.934
425.6763, 2018.157
426.1584, 2020.451
426.6406, 2027.652
427.1227, 2036.768
427.6048, 2041.818
428.0869, 2041.547
428.5690, 2041.363
429.0511, 2046.722
429.5333, 2057.672
430.0154, 2066.024
430.4975, 2070.094
430.9796, 2073.126
431.4617, 2076.946
431.9438, 2081.162
432.4260, 2084.505
432.9081, 2086.268
433.3902, 2087.138
433.8723, 2088.678
434.3544, 2090.261
434.8365, 2093.676
435.3187, 2100.455
435.8008, 2108.094
436.2829, 2114.490
436.7650, 2119.446
437.2471, 2123.974
437.7292, 2128.911
438.2114, 2134.264
438.6935, 2140.509
439.1756, 2149.352
439.6577, 2157.226
440.1398, 2162.599
440.6219, 2166.754
441.1040, 2171.177
441.5862, 2176.489
442.0683, 2182.799
442.5504, 2190.823
443.0325, 2202.104
443.5146, 2210.442
443.9967, 2213.512
444.4789, 2215.003
444.9610, 2216.521
445.4431, 2218.105
445.9252, 2219.184
446.4073, 2219.614
446.8894, 2219.160
447.3716, 2216.829
447.8537, 2212.310
448.3358, 2206.645
448.8179, 2199.928
449.3000, 2192.414
449.7821, 2184.123
450.2643, 2174.905
450.7464, 2165.573
451.2285, 2157.236
451.7106, 2149.518
452.1927, 2140.471
452.6748, 2129.017
453.1570, 2117.669
453.6391, 2109.826
454.1212, 2104.646
454.6033, 2098.205
455.0854, 2088.082
455.5675, 2077.486
456.0497, 2069.402
456.5318, 2063.614
457.0139, 2058.129
457.4960, 2051.870
457.9781, 2045.361
458.4602, 2040.149
458.9424, 2037.066
459.4245, 2033.330
459.9066, 2027.913
460.3887, 2021.936
460.8708, 2015.994
461.3529, 2010.430
461.8351, 2006.459
462.3172, 2005.612
462.7993, 2008.073
463.2814, 2007.846
463.7635, 2002.794
464.2456, 1997.702
464.7278, 1993.710
465.2099, 1990.372
465.6920, 1986.790
466.1741, 1982.624
466.6562, 1978.687
467.1383, 1976.614
467.6205, 1977.334
468.1026, 1976.955
468.5847, 1974.467
469.0668, 1971.643
469.5489, 1968.527
470.0310, 1965.693
470.5132, 1964.468
470.9953, 1966.057
471.4774, 1969.432
471.9595, 1972.351
472.4416, 1975.219
472.9237, 1976.133
473.4059, 1972.883
473.8880, 1968.222
474.3701, 1964.638
474.8522, 1962.454
475.3343, 1960.243
475.8164, 1956.376
476.2986, 1951.882
476.7807, 1949.326
477.2628, 1949.110
477.7449, 1950.297
478.2270, 1953.187
478.7091, 1956.983
479.1913, 1958.470
479.6734, 1955.567
480.1555, 1952.451
480.6376, 1951.359
481.1197, 1951.595
481.6018, 1951.555
482.0839, 1950.674
482.5660, 1949.938
483.0482, 1950.893
483.5303, 1954.358
484.0124, 1956.474
484.4945, 1957.051
484.9766, 1956.553
485.4587, 1954.402
485.9409, 1951.385
486.4230, 1949.321
486.9051, 1949.296
487.3872, 1950.437
487.8693, 1950.150
488.3514, 1947.377
488.8336, 1945.135
489.3157, 1943.582
489.7978, 1942.597
490.2799, 1942.071
490.7620, 1942.033
491.2441, 1942.722
491.7263, 1944.862
492.2084, 1947.866
492.6905, 1948.569
493.1726, 1945.886
493.6547, 1943.536
494.1368, 1943.115
494.6190, 1943.783
495.1011, 1945.169
495.5832, 1947.407
496.0653, 1948.779
496.5474, 1946.989
497.0295, 1943.251
497.5117, 1941.732
497.9938, 1943.600
498.4759, 1945.208
498.9580, 1942.545
499.4401, 1936.762
499.9222, 1934.123
500.4044, 1937.258
500.8865, 1941.260
501.3686, 1943.779
501.8507, 1945.318
502.3328, 1947.283
502.8149, 1950.198
503.2971, 1952.607
503.7792, 1952.245
504.2613, 1947.923
504.7434, 1945.082
505.2255, 1944.896
505.7076, 1944.881
506.1898, 1943.318
506.6719, 1941.081
507.1540, 1940.236
507.6361, 1941.921
508.1182, 1945.035
508.6003, 1947.153
509.0825, 1948.354
509.5646, 1948.340
510.0467, 1945.358
510.5288, 1942.621
511.0109, 1942.349
511.4930, 1944.017
511.9752, 1945.251
512.4573, 1944.041
512.9394, 1941.748
513.4215, 1941.835
513.9036, 1944.735
514.3857, 1947.286
514.8679, 1948.375
515.3500, 1948.398
515.8321, 1948.039
516.3142, 1947.355
516.7963, 1945.868
517.2784, 1942.211
517.7606, 1938.159
518.2427, 1936.191
518.7248, 1936.497
519.2069, 1938.176
519.6890, 1941.068
520.1711, 1944.699
520.6533, 1946.551
521.1354, 1945.673
521.6175, 1944.610
522.0996, 1943.681
522.5817, 1942.814
523.0638, 1941.771
523.5460, 1940.620
524.0281, 1939.857
524.5102, 1939.954
524.9923, 1940.899
525.4744, 1942.426
525.9565, 1945.685
526.4387, 1947.968
526.9208, 1947.932
527.4029, 1947.126
527.8850, 1947.488
528.3671, 1949.422
528.8492, 1951.093
529.3314, 1950.081
529.8135, 1946.750
530.2956, 1944.814
530.7777, 1945.200
531.2598, 1945.504
531.7419, 1943.300
532.2241, 1940.229
532.7062, 1939.023
533.1883, 1940.567
533.6704, 1943.261
534.1525, 1947.479
534.6346, 1951.895
535.1168, 1952.553
535.5989, 1948.228
536.0810, 1943.667
536.5631, 1944.068
537.0452, 1949.728
537.5273, 1952.716
538.0095, 1950.865
538.4916, 1949.021
538.9737, 1949.143
539.4558, 1950.342
539.9379, 1951.520
540.4200, 1952.227
540.9022, 1951.999
541.3843, 1949.801
541.8664, 1944.930
542.3485, 1942.104
542.8306, 1942.407
543.3127, 1943.762
543.7948, 1946.525
544.2769, 1949.641
544.7590, 1951.547
545.2411, 1951.621
545.7233, 1950.771
546.2054, 1949.830
546.6875, 1948.826
547.1696, 1948.240
547.6517, 1947.976
548.1339, 1948.435
548.6160, 1950.826
549.0981, 1954.306
549.5802, 1956.411
550.0623, 1955.365
550.5444, 1954.203
551.0266, 1954.987
551.5087, 1957.116
551.9908, 1959.312
552.4729, 1961.202
552.9550, 1962.873
553.4371, 1964.446
553.9193, 1965.976
554.4014, 1967.116
554.8835, 1967.934
555.3656, 1968.373
555.8477, 1968.182
556.3298, 1967.687
556.8120, 1966.993
557.2941, 1966.209
557.7762, 1966.289
558.2583, 1969.168
558.7404, 1975.362
559.2225, 1979.849
559.7047, 1981.472
560.1868, 1982.601
560.6689, 1984.023
561.1510, 1985.823
561.6331, 1988.322
562.1152, 1991.927
562.5974, 1995.319
563.0795, 1997.195
563.5616, 1997.826
564.0437, 1997.866
564.5258, 1997.147
565.0079, 1997.304
565.4901, 2000.355
565.9722, 2006.115
566.4543, 2010.152
566.9364, 2010.559
567.4185, 2011.455
567.9006, 2014.795
568.3828, 2019.444
568.8649, 2023.829
569.3470, 2027.509
569.8291, 2031.001
570.3112, 2034.673
570.7933, 2038.466
571.2755, 2043.826
571.7576, 2051.137
572.2397, 2059.698
572.7218, 2069.197
573.2039, 2079.884
573.6860, 2091.817
574.1682, 2105.083
574.6503, 2120.349
575.1324, 2137.931
575.6145, 2157.987
576.0966, 2181.919
576.5787, 2210.668
577.0609, 2239.846
577.5430, 2266.845
578.0251, 2292.124
578.5072, 2317.495
578.9893, 2345.610
579.4714, 2367.895
579.9536, 2384.417
580.4357, 2391.577
580.9178, 2383.299
581.3999, 2359.937
581.8820, 2327.841
582.3641, 2290.600
582.8463, 2249.768
583.3284, 2213.987
583.8105, 2184.018
584.2926, 2158.351
584.7747, 2137.290
585.2568, 2119.789
585.7390, 2105.185
586.2211, 2093.349
586.7032, 2084.454
587.1853, 2079.210
587.6674, 2076.562
588.1495, 2073.953
588.6317, 2071.456
589.1138, 2068.436
589.5959, 2063.978
590.0780, 2059.576
590.5601, 2057.360
591.0422, 2057.275
591.5244, 2056.442
592.0065, 2053.475
592.4886, 2049.783
592.9707, 2046.570
593.4528, 2043.759
593.9349, 2040.686
594.4171, 2036.989
594.8992, 2033.484
595.3813, 2031.632
595.8634, 2031.879
596.3455, 2032.504
596.8276, 2033.789
597.3098, 2035.082
597.7919, 2035.763
598.2740, 2036.354
598.7561, 2037.467
599.2382, 2039.312
599.7203, 2042.599
600.2025, 2048.887
600.6846, 2058.107
601.1667, 2066.655
601.6488, 2074.006
602.1309, 2080.954
602.6130, 2087.396
603.0952, 2093.916
603.5773, 2101.913
604.0594, 2113.286
604.5415, 2122.980
605.0236, 2128.482
605.5057, 2130.702
605.9879, 2131.114
606.4700, 2129.912
606.9521, 2125.844
607.4342, 2117.315
607.9163, 2105.210
608.3984, 2096.209
608.8806, 2093.062
609.3627, 2089.377
609.8448, 2082.771
610.3269, 2076.797
610.8090, 2074.504
611.2911, 2075.726
611.7733, 2078.171
612.2554, 2080.683
612.7375, 2082.957
613.2196, 2084.356
613.7017, 2084.883
614.1838, 2084.575
614.6660, 2083.538
615.1481, 2081.554
615.6302, 2078.409
616.1123, 2074.170
616.5944, 2068.730
617.0765, 2062.009
617.5587, 2054.169
618.0408, 2044.300
618.5229, 2033.529
619.0050, 2024.123
619.4871, 2016.875
619.9692, 2011.198
620.4514, 2006.438
620.9335, 2002.688
621.4156, 1998.924
621.8977, 1993.725
622.3798, 1990.275
622.8619, 1991.071
623.3441, 1993.191
623.8262, 1993.224
624.3083, 1990.387
624.7904, 1986.600
625.2725, 1983.243
625.7546, 1980.227
626.2367, 1976.855
626.7188, 1972.906
627.2009, 1971.059
627.6830, 1973.595
628.1652, 1978.406
628.6473, 1980.685
629.1294, 1980.117
629.6115, 1978.682
630.0936, 1975.627
630.5757, 1972.686
631.0579, 1970.640
631.5400, 1969.788
632.0221, 1970.875
632.5042, 1974.340
632.9863, 1978.635
633.4684, 1980.658
633.9506, 1979.817
634.4327, 1979.729
634.9148, 1981.678
635.3969, 1982.958
635.8790, 1981.557
636.3611, 1978.822
636.8433, 1977.058
637.3254, 1976.900
637.8075, 1977.591
638.2896, 1979.873
638.7717, 1982.264
639.2538, 1981.018
639.7360, 1975.785
640.2181, 1971.153
640.7002, 1970.539
641.1823, 1972.914
641.6644, 1974.084
642.1465, 1973.213
642.6287, 1972.226
643.1108, 1970.858
643.5929, 1969.645
644.0750, 1969.033
644.5571, 1968.901
645.0392, 1968.792
645.5214, 1968.426
646.0035, 1968.074
646.4856, 1967.937
646.9677, 1968.021
647.4498, 1969.609
647.9319, 1973.600
648.4141, 1977.744
648.8962, 1980.550
649.3783, 1981.990
649.8604, 1981.818
650.3425, 1978.851
650.8246, 1975.820
651.3068, 1973.809
651.7889, 1972.298
652.2710, 1970.168
652.7531, 1967.605
653.2352, 1966.597
653.7173, 1968.982
654.1995, 1973.682
654.6816, 1976.037
655.1637, 1974.854
655.6458, 1974.164
656.1279, 1975.230
656.6100, 1976.440
657.0922, 1976.862
657.5743, 1976.639
658.0564, 1976.384
658.5385, 1976.250
659.0206, 1976.298
659.5027, 1976.749
659.9849, 1977.429
660.4670, 1977.919
660.9491, 1978.127
661.4312, 1977.907
661.9133, 1977.015
662.3954, 1975.530
662.8776, 1974.565
663.3597, 1974.477
663.8418, 1974.473
664.3239, 1974.975
664.8060, 1975.179
665.2881, 1974.024
665.7703, 1971.849
666.2524, 1970.188
666.7345, 1970.072
667.2166, 1970.920
667.6987, 1971.947
668.1808, 1973.130
668.6630, 1973.391
669.1451, 1972.128
669.6272, 1970.701
670.1093, 1970.586
670.5914, 1971.636
671.0735, 1971.975
671.5557, 1970.099
672.0378, 1969.286
672.5199, 1971.936
673.0020, 1975.389
673.4841, 1976.342
673.9662, 1974.727
674.4484, 1973.206
674.9305, 1973.988
675.4126, 1976.157
675.8947, 1976.370
676.3768, 1973.975
676.8589, 1972.593
677.3411, 1973.570
677.8232, 1975.099
678.3053, 1975.474
678.7874, 1975.133
679.2695, 1975.715
679.7516, 1978.740
680.2338, 1981.339
680.7159, 1980.820
681.1980, 1979.165
681.6801, 1979.890
682.1622, 1983.353
682.6443, 1987.142
683.1265, 1989.532
683.6086, 1990.276
684.0907, 1987.619
684.5728, 1978.021
685.0549, 1972.753
685.5370, 1976.934
686.0192, 1982.667
686.5013, 1986.199
686.9834, 1987.556
687.4655, 1987.593
687.9476, 1986.234
688.4297, 1984.341
688.9119, 1981.898
689.3940, 1979.633
689.8761, 1979.808
690.3582, 1982.751
690.8403, 1985.631
691.3224, 1986.258
691.8046, 1985.060
692.2867, 1984.057
692.7688, 1984.235
693.2509, 1983.010
693.7330, 1978.348
694.2151, 1974.176
694.6973, 1973.138
695.1794, 1974.485
695.6615, 1976.181
696.1436, 1977.578
696.6257, 1978.246
697.1078, 1976.718
697.5900, 1974.000
698.0721, 1974.141
698.5542, 1977.886
699.0363, 1981.685
699.5184, 1983.205
700.0005, 1982.897
700.4827, 1982.308
700.9648, 1980.876
701.4469, 1980.072
701.9290, 1979.906
702.4111, 1980.374
702.8932, 1981.914
703.3754, 1984.006
703.8575, 1985.634
704.3396, 1986.351
704.8217, 1986.813
705.3038, 1988.192
705.7859, 1990.082
706.2681, 1990.270
706.7502, 1988.371
707.2323, 1986.273
707.7144, 1984.979
708.1965, 1984.176
708.6786, 1982.960
709.1607, 1980.538
709.6428, 1980.012
710.1249, 1984.260
710.6071, 1987.784
711.0892, 1986.565
711.5713, 1982.734
712.0534, 1980.123
712.5355, 1980.010
713.0176, 1980.832
713.4998, 1980.929
713.9819, 1980.448
714.4640, 1980.235
714.9461, 1980.390
715.4282, 1980.202
715.9103, 1978.998
716.3925, 1977.726
716.8746, 1978.284
717.3567, 1981.050
717.8388, 1982.168
718.3209, 1979.584
718.8030, 1977.170
719.2852, 1977.015
719.7673, 1978.014
720.2494, 1978.242
720.7315, 1977.454
721.2136, 1977.555
721.6957, 1981.247
722.1779, 1986.763
722.6600, 1986.872
723.1421, 1980.753
723.6242, 1976.537
724.1063, 1977.334
724.5884, 1979.584
725.0706, 1979.375
725.5527, 1976.938
726.0348, 1975.457
726.5169, 1976.748
726.9990, 1976.996
727.4811, 1972.853
727.9633, 1968.339
728.4454, 1968.511
728.9275, 1973.089
729.4096, 1977.815
729.8917, 1979.899
730.3738, 1980.055
730.8560, 1979.720
731.3381, 1978.902
731.8202, 1977.251
732.3023, 1974.488
732.7844, 1971.363
733.2665, 1967.793
733.7487, 1964.367
734.2308, 1963.182
734.7129, 1965.704
735.1950, 1967.685
735.6771, 1967.746
736.1592, 1967.403
736.6414, 1967.800
737.1235, 1968.815
737.6056, 1969.942
738.0877, 1970.971
738.5698, 1971.674
739.0519, 1971.411
739.5341, 1970.366
740.0162, 1970.422
740.4983, 1971.913
740.9804, 1973.340
741.4625, 1974.072
741.9446, 1974.205
742.4268, 1973.685
742.9089, 1972.210
743.3910, 1971.615
743.8731, 1971.567
744.3552, 1972.939
744.8373, 1978.717
745.3195, 1985.034
745.8016, 1985.474
746.2837, 1979.249
746.7658, 1972.827
747.2479, 1972.189
747.7300, 1975.512
748.2122, 1978.232
748.6943, 1980.362
749.1764, 1981.807
749.6585, 1982.918
750.1406, 1982.253
750.6227, 1977.240
751.1049, 1968.143
751.5870, 1963.324
752.0691, 1966.902
752.5512, 1968.831
753.0333, 1965.437
753.5154, 1961.180
753.9976, 1959.884
754.4797, 1961.200
754.9618, 1962.588
755.4439, 1962.704
755.9260, 1962.518
756.4081, 1963.765
756.8903, 1965.871
757.3724, 1966.167
757.8545, 1964.234
758.3366, 1962.159
758.8187, 1961.166
759.3008, 1960.969
759.7830, 1960.797
760.2651, 1960.139
760.7472, 1960.787
761.2293, 1965.112
761.7114, 1968.032
762.1935, 1966.196
762.6757, 1962.337
763.1578, 1960.084
763.6399, 1960.274
764.1220, 1961.430
764.6041, 1962.910
765.0862, 1964.482
765.5684, 1965.664
766.0505, 1966.581
766.5326, 1968.192
767.0147, 1970.891
767.4968, 1972.719
767.9789, 1971.138
768.4611, 1966.363
768.9432, 1963.986
769.4253, 1965.471
769.9074, 1966.828
770.3895, 1967.564
770.8716, 1967.866
771.3538, 1968.209
771.8359, 1968.223
772.3180, 1966.613
772.8001, 1962.117
773.2822, 1957.662
773.7643, 1954.653
774.2465, 1953.248
774.7286, 1954.593
775.2107, 1958.090
775.6928, 1960.891
776.1749, 1961.456
776.6570, 1960.187
777.1392, 1957.133
777.6213, 1951.595
778.1034, 1949.686
778.5855, 1953.384
779.0676, 1957.006
779.5497, 1958.656
780.0319, 1958.500
780.5140, 1955.791
780.9961, 1950.177
781.4782, 1947.388
781.9603, 1952.023
782.4424, 1956.402
782.9246, 1954.896
783.4067, 1950.822
783.8888, 1949.545
784.3709, 1951.758
784.8530, 1953.967
785.3351, 1953.303
785.8173, 1950.843
786.2994, 1948.955
786.7815, 1947.643
787.2636, 1947.687
787.7457, 1949.669
788.2278, 1951.555
788.7100, 1951.530
789.1921, 1950.245
789.6742, 1950.262
790.1563, 1951.944
790.6384, 1954.225
791.1205, 1958.239
791.6026, 1961.672
792.0847, 1963.114
792.5668, 1963.153
793.0490, 1963.025
793.5311, 1963.079
794.0132, 1962.284
794.4953, 1959.281
794.9774, 1955.115
795.4595, 1951.570
795.9417, 1948.591
796.4238, 1945.351
796.9059, 1941.453
797.3880, 1938.951
797.8701, 1940.640
798.3522, 1946.059
798.8344, 1947.568
799.3165, 1942.077
799.7986, 1938.568
800.2807, 1940.129
800.7628, 1942.545
801.2449, 1943.655
801.7271, 1943.626
802.2092, 1942.907
802.6913, 1940.712
803.1734, 1940.093
803.6555, 1944.393
804.1376, 1949.826
804.6198, 1952.633
805.1019, 1952.853
805.5840, 1951.337
806.0661, 1948.511
806.5482, 1945.829
807.0303, 1945.547
807.5125, 1947.359
807.9946, 1948.188
808.4767, 1947.891
808.9588, 1947.496
809.4409, 1947.376
809.9230, 1947.245
810.4052, 1946.817
810.8873, 1946.077
811.3694, 1945.050
811.8515, 1943.737
812.3336, 1942.128
812.8157, 1938.742
813.2979, 1936.265
813.7800, 1938.026
814.2621, 1942.512
814.7442, 1945.089
815.2263, 1943.454
815.7084, 1941.289
816.1906, 1942.359
816.6727, 1945.418
817.1548, 1948.200
817.6369, 1950.481
818.1190, 1952.360
818.6011, 1953.927
819.0833, 1954.478
819.5654, 1952.512
820.0475, 1947.823
820.5296, 1946.747
821.0117, 1952.004
821.4938, 1955.229
821.9760, 1952.406
822.4581, 1948.338
822.9402, 1947.621
823.4223, 1949.326
823.9044, 1948.832
824.3865, 1943.014
824.8687, 1938.322
825.3508, 1938.111
825.8329, 1939.509
826.3150, 1940.195
826.7971, 1939.947
827.2792, 1939.132
827.7614, 1937.911
828.2435, 1936.308
828.7256, 1934.289
829.2077, 1931.911
829.6898, 1928.610
830.1719, 1924.407
830.6541, 1923.666
831.1362, 1928.853
831.6183, 1935.002
832.1004, 1936.183
832.5825, 1932.462
833.0646, 1928.586
833.5468, 1922.488
834.0289, 1919.583
834.5110, 1923.004
834.9931, 1927.286
835.4752, 1929.139
835.9573, 1929.110
836.4395, 1929.044
836.9216, 1929.443
837.4037, 1929.749
837.8858, 1929.511
838.3679, 1929.165
838.8500, 1929.621
839.3322, 1930.305
839.8143, 1929.289
840.2964, 1926.081
840.7785, 1923.114
841.2606, 1923.446
841.7427, 1926.055
842.2249, 1926.667
842.7070, 1925.157
843.1891, 1924.333
843.6712, 1924.960
844.1533, 1926.132
844.6354, 1927.219
845.1176, 1928.173
845.5997, 1928.769
846.0818, 1929.092
846.5639, 1928.889
847.0460, 1928.130
847.5281, 1926.900
848.0103, 1924.833
848.4924, 1922.500
848.9745, 1920.321
849.4566, 1918.390
849.9387, 1918.247
850.4208, 1923.109
850.9030, 1927.923
851.3851, 1927.243
851.8672, 1923.396
852.3493, 1920.757
852.8314, 1920.251
853.3135, 1920.621
853.7957, 1920.953
854.2778, 1921.465
854.7599, 1923.228
855.2420, 1926.174
855.7241, 1926.275
856.2062, 1922.420
856.6884, 1919.150
857.1705, 1919.177
857.6526, 1920.913
858.1347, 1921.469
858.6168, 1920.586
859.0989, 1919.623
859.5811, 1918.159
860.0632, 1917.137
860.5453, 1916.776
861.0274, 1916.929
861.5095, 1917.377
861.9916, 1918.196
862.4738, 1919.941
862.9559, 1924.031
863.4380, 1926.756
863.9201, 1924.330
864.4022, 1920.149
864.8843, 1918.103
865.3665, 1918.195
865.8486, 1919.670
866.3307, 1922.107
866.8128, 1923.260
867.2949, 1919.169
867.7770, 1911.470
868.2592, 1907.357
868.7413, 1906.879
869.2234, 1908.201
869.7055, 1911.343
870.1876, 1913.863
870.6697, 1913.186
871.1519, 1909.995
871.6340, 1908.132
872.1161, 1907.915
872.5981, 1908.384
873.0803, 1909.308
873.5624, 1911.112
874.0445, 1915.988
874.5266, 1920.911
875.0087, 1921.076
875.4908, 1915.628
875.9730, 1910.174
876.4551, 1906.065
876.9372, 1903.144
877.4193, 1901.147
877.9014, 1900.391
878.3835, 1902.292
878.8657, 1906.111
879.3478, 1908.480
879.8299, 1907.214
880.3120, 1904.354
880.7941, 1902.003
881.2762, 1900.451
881.7584, 1901.077
882.2405, 1903.802
882.7226, 1906.325
883.2047, 1907.623
883.6868, 1908.355
884.1689, 1909.452
884.6511, 1910.881
885.1332, 1911.623
885.6153, 1911.652
886.0974, 1911.038
886.5795, 1909.927
887.0616, 1907.962
887.5438, 1903.760
888.0259, 1898.512
888.5080, 1895.990
888.9901, 1897.765
889.4722, 1898.651
889.9543, 1896.613
890.4365, 1894.909
890.9186, 1895.803
891.4007, 1897.786
891.8828, 1898.789
892.3649, 1898.512
892.8470, 1897.933
893.3292, 1897.980
893.8113, 1897.496
894.2934, 1894.458
894.7755, 1890.520
895.2576, 1888.965
895.7397, 1889.691
896.2219, 1889.853
896.7040, 1887.928
897.1861, 1885.932
897.6682, 1887.808
898.1503, 1892.741
898.6324, 1893.441
899.1146, 1889.531
899.5967, 1887.111
900.0788, 1888.468
900.5609, 1890.286
901.0430, 1889.217
901.5251, 1885.781
902.0073, 1883.097
902.4894, 1880.152
902.9715, 1880.070
903.4536, 1886.438
903.9357, 1891.671
904.4178, 1890.582
904.9000, 1887.301
905.3821, 1888.005
905.8642, 1893.412
906.3463, 1897.465
906.8284, 1899.082
907.3105, 1898.577
907.7927, 1894.712
908.2748, 1889.767
908.7569, 1885.484
909.2390, 1882.343
909.7211, 1880.786
910.2032, 1881.196
910.6854, 1882.140
911.1675, 1882.236
911.6496, 1882.047
912.1317, 1882.787
912.6138, 1884.094
913.0959, 1884.371
913.5781, 1883.219
914.0602, 1882.108
914.5423, 1882.492
915.0244, 1883.822
915.5065, 1884.620
915.9886, 1884.891
916.4708, 1883.963
916.9529, 1881.393
917.4350, 1879.667
917.9171, 1880.314
918.3992, 1882.324
918.8813, 1884.095
919.3635, 1885.794
919.8456, 1886.168
920.3277, 1885.175
920.8098, 1882.953
921.2919, 1876.905
921.7740, 1872.021
922.2562, 1872.870
922.7383, 1877.692
923.2204, 1881.225
923.7025, 1882.846
924.1846, 1883.182
924.6667, 1881.306
925.1489, 1879.293
925.6310, 1877.934
926.1131, 1877.447
926.5952, 1878.226
927.0773, 1880.160
927.5594, 1882.379
928.0416, 1884.778
928.5237, 1886.615
929.0058, 1886.170
929.4879, 1885.277
929.9700, 1887.112
930.4521, 1891.391
930.9343, 1896.422
931.4164, 1901.389
931.8985, 1904.627
932.3806, 1903.477
932.8627, 1899.312
933.3448, 1896.118
933.8270, 1893.967
934.3091, 1893.655
934.7912, 1895.412
935.2733, 1898.465
935.7554, 1902.528
936.2375, 1906.880
936.7197, 1909.647
937.2018, 1910.516
937.6839, 1911.553
938.1660, 1912.467
938.6481, 1914.209
939.1302, 1916.553
939.6124, 1920.591
940.0945, 1928.537
940.5766, 1939.697
941.0587, 1947.707
941.5408, 1950.763
942.0229, 1953.547
942.5051, 1954.214
942.9872, 1956.879
943.4693, 1964.532
943.9514, 1974.877
944.4335, 1984.392
944.9156, 1992.769
945.3978, 2003.182
945.8799, 2015.923
946.3620, 2032.015
946.8441, 2053.976
947.3262, 2077.893
947.8083, 2098.538
948.2905, 2117.689
948.7726, 2141.068
949.2547, 2170.835
949.7368, 2203.960
950.2189, 2239.414
950.7010, 2275.834
951.1832, 2312.041
951.6653, 2347.818
952.1474, 2381.909
952.6295, 2414.767
953.1116, 2449.706
953.5938, 2488.871
954.0759, 2532.402
954.5580, 2580.298
955.0400, 2632.798
955.5222, 2690.686
956.0043, 2754.368
956.4864, 2824.295
956.9685, 2900.365
957.4506, 2986.999
957.9327, 3087.334
958.4149, 3202.456
958.8970, 3333.556
959.3791, 3481.691
959.8612, 3643.483
960.3433, 3818.999
960.8254, 4007.833
961.3076, 4216.875
961.7897, 4429.101
962.2718, 4630.954
962.7539, 4823.328
963.2360, 4948.036
963.7181, 5008.612
964.2003, 4993.752
964.6824, 4891.268
965.1645, 4728.075
965.6466, 4492.669
966.1287, 4215.020
966.6108, 3938.491
967.0930, 3664.118
967.5751, 3415.292
968.0572, 3197.158
968.5393, 3004.833
969.0214, 2839.644
969.5035, 2697.610
969.9857, 2580.313
970.4678, 2483.255
970.9499, 2397.717
971.4320, 2321.398
971.9141, 2255.287
972.3962, 2202.302
972.8784, 2157.498
973.3605, 2117.669
973.8426, 2082.843
974.3247, 2054.447
974.8068, 2031.702
975.2889, 2010.855
975.7711, 1989.875
976.2532, 1970.499
976.7353, 1955.368
977.2174, 1942.830
977.6995, 1928.924
978.1816, 1914.636
978.6638, 1904.765
979.1459, 1900.252
979.6280, 1897.246
980.1101, 1892.749
980.5922, 1887.449
981.0743, 1882.744
981.5565, 1878.593
982.0386, 1874.490
982.5207, 1870.445
983.0028, 1867.663
983.4849, 1866.757
983.9670, 1865.898
984.4492, 1862.951
984.9313, 1858.475
985.4134, 1854.931
985.8955, 1852.268
986.3776, 1851.171
986.8597, 1852.174
987.3419, 1852.926
987.8240, 1852.245
988.3061, 1850.812
988.7882, 1849.675
989.2703, 1848.823
989.7524, 1846.698
990.2346, 1842.104
990.7167, 1838.944
991.1988, 1838.771
991.6809, 1838.546
992.1630, 1835.507
992.6451, 1831.887
993.1273, 1832.293
993.6094, 1837.595
994.0915, 1840.590
994.5736, 1840.023
995.0557, 1838.795
995.5378, 1836.281
996.0200, 1834.414
996.5021, 1835.334
996.9842, 1837.567
997.4663, 1837.892
997.9484, 1835.536
998.4305, 1833.879
998.9127, 1834.564
999.3948, 1835.095
999.8769, 1833.602
1000.359, 1832.119
1000.841, 1833.417
1001.323, 1836.258
1001.805, 1836.778
1002.287, 1833.503
1002.770, 1830.765
1003.252, 1831.628
1003.734, 1832.930
1004.216, 1831.935
1004.698, 1830.239
1005.180, 1830.815
1005.662, 1832.934
1006.144, 1832.357
1006.627, 1826.707
1007.109, 1822.205
1007.591, 1825.455
1008.073, 1831.399
1008.555, 1834.500
1009.037, 1835.555
1009.519, 1836.574
1010.001, 1837.836
1010.483, 1838.304
1010.966, 1837.240
1011.448, 1836.205
1011.930, 1837.454
1012.412, 1839.860
1012.894, 1841.167
1013.376, 1841.638
1013.858, 1842.233
1014.340, 1843.274
1014.823, 1845.192
1015.305, 1848.417
1015.787, 1851.965
1016.269, 1854.492
1016.751, 1855.950
1017.233, 1855.421
1017.715, 1853.291
1018.197, 1852.628
1018.679, 1854.292
1019.162, 1857.073
1019.644, 1860.123
1020.126, 1863.143
1020.608, 1865.259
1021.090, 1866.580
1021.572, 1868.868
1022.054, 1872.227
1022.536, 1875.255
1023.018, 1877.375
1023.501, 1880.317
1023.983, 1885.924
1024.465, 1893.007
1024.947, 1897.571
1025.429, 1899.307
1025.911, 1901.780
1026.393, 1905.060
1026.875, 1909.446
1027.358, 1915.271
1027.840, 1921.453
1028.322, 1926.849
1028.804, 1931.770
1029.286, 1937.268
1029.768, 1943.290
1030.250, 1950.574
1030.732, 1960.567
1031.214, 1967.877
1031.697, 1970.273
1032.179, 1969.826
1032.661, 1968.327
1033.143, 1965.862
1033.625, 1962.664
1034.107, 1957.967
1034.589, 1954.699
1035.071, 1954.758
1035.553, 1952.854
1036.036, 1946.678
1036.518, 1938.299
1037.000, 1929.171
1037.482, 1919.590
1037.964, 1911.172
1038.446, 1904.114
1038.928, 1897.929
1039.410, 1893.001
1039.893, 1888.446
1040.375, 1883.873
1040.857, 1879.615
1041.339, 1875.844
1041.821, 1872.632
1042.303, 1870.476
1042.785, 1869.852
1043.267, 1869.343
1043.750, 1869.771
1044.232, 1869.204
1044.714, 1865.631
1045.196, 1861.774
1045.678, 1860.375
1046.160, 1861.089
1046.642, 1861.877
1047.124, 1862.407
1047.606, 1863.302
1048.089, 1865.932
1048.571, 1867.348
1049.053, 1865.628
1049.535, 1862.729
1050.017, 1859.701
1050.499, 1857.183
1050.981, 1857.044
1051.463, 1860.235
1051.945, 1864.072
1052.428, 1868.138
1052.910, 1872.603
1053.392, 1878.552
1053.874, 1884.174
1054.356, 1887.388
1054.838, 1888.686
1055.320, 1889.688
1055.802, 1889.685
1056.285, 1893.033
1056.767, 1905.210
1057.249, 1915.884
1057.731, 1919.315
1058.213, 1919.306
1058.695, 1919.457
1059.177, 1919.778
1059.659, 1918.986
1060.141, 1916.642
1060.624, 1913.850
1061.106, 1911.716
1061.588, 1908.334
1062.070, 1901.329
1062.552, 1893.701
1063.034, 1888.504
1063.516, 1885.296
1063.998, 1881.971
1064.480, 1877.848
1064.963, 1874.935
1065.445, 1874.994
1065.927, 1875.272
1066.409, 1873.471
1066.891, 1871.910
1067.373, 1873.664
1067.855, 1877.374
1068.337, 1879.066
1068.820, 1877.619
1069.302, 1877.666
1069.784, 1883.865
1070.266, 1888.707
1070.748, 1887.111
1071.230, 1883.379
1071.712, 1881.580
1072.194, 1880.858
1072.677, 1878.413
1073.159, 1873.676
1073.641, 1869.174
1074.123, 1865.753
1074.605, 1863.157
1075.087, 1861.917
1075.569, 1860.842
1076.051, 1858.622
1076.533, 1855.887
1077.016, 1854.393
1077.498, 1854.233
1077.980, 1852.530
1078.462, 1846.762
1078.944, 1841.082
1079.426, 1837.901
1079.908, 1835.207
1080.390, 1831.292
1080.872, 1826.761
1081.354, 1822.748
1081.837, 1819.389
1082.319, 1816.038
1082.801, 1812.454
1083.283, 1808.814
1083.765, 1804.772
1084.247, 1801.162
1084.729, 1799.136
1085.211, 1797.589
1085.694, 1794.437
1086.176, 1790.070
1086.658, 1787.585
1087.140, 1788.886
1087.622, 1789.602
1088.104, 1786.715
1088.586, 1783.949
1089.068, 1784.335
1089.551, 1785.671
1090.033, 1784.944
1090.515, 1782.666
1090.997, 1781.656
1091.479, 1782.896
1091.961, 1784.339
1092.443, 1786.725
1092.925, 1787.297
1093.407, 1783.855
1093.890, 1778.541
1094.372, 1771.771
1094.854, 1765.294
1095.336, 1763.114
1095.818, 1766.546
1096.300, 1769.416
1096.782, 1769.761
1097.264, 1769.216
1097.746, 1768.172
1098.229, 1766.742
1098.711, 1764.181
1099.193, 1761.620
1099.675, 1761.587
1100.157, 1764.416
1100.639, 1765.721
1101.121, 1762.371
1101.603, 1760.265
1102.086, 1763.072
1102.568, 1765.333
1103.050, 1763.056
1103.532, 1758.468
1104.014, 1754.020
1104.496, 1750.186
1104.978, 1748.951
1105.460, 1752.582
1105.943, 1755.588
1106.425, 1755.981
1106.907, 1756.959
1107.389, 1761.234
1107.871, 1765.857
1108.353, 1767.872
1108.835, 1767.422
1109.317, 1765.522
1109.799, 1760.729
1110.281, 1758.270
1110.764, 1762.411
1111.246, 1763.763
1111.728, 1756.582
1112.210, 1748.424
1112.692, 1745.315
1113.174, 1745.775
1113.656, 1745.915
1114.138, 1745.526
1114.621, 1745.737
1115.103, 1746.605
1115.585, 1748.024
1116.067, 1751.070
1116.549, 1753.196
1117.031, 1752.529
1117.513, 1750.342
1117.995, 1748.428
1118.478, 1746.789
1118.960, 1746.432
1119.442, 1748.352
1119.924, 1749.111
1120.406, 1747.557
1120.888, 1746.654
1121.370, 1747.863
1121.852, 1750.058
1122.334, 1752.146
1122.817, 1754.034
1123.299, 1755.313
1123.781, 1756.231
1124.263, 1755.068
1124.745, 1750.649
1125.227, 1748.428
1125.709, 1750.553
1126.191, 1753.761
1126.673, 1755.418
1127.156, 1756.122
1127.638, 1757.619
1128.120, 1760.000
1128.602, 1759.410
1129.084, 1755.401
1129.566, 1753.057
1130.048, 1753.471
1130.530, 1755.248
1131.013, 1757.835
1131.495, 1760.050
1131.977, 1759.958
1132.459, 1758.081
1132.941, 1756.200
1133.423, 1754.545
1133.905, 1757.844
1134.387, 1766.210
1134.870, 1770.391
1135.352, 1766.742
1135.834, 1760.923
1136.316, 1758.029
1136.798, 1757.472
1137.280, 1758.840
1137.762, 1761.358
1138.244, 1761.949
1138.726, 1760.952
1139.208, 1761.116
1139.691, 1762.844
1140.173, 1763.683
1140.655, 1762.068
1141.137, 1759.156
1141.619, 1756.043
1142.101, 1752.890
1142.583, 1749.395
1143.065, 1746.325
1143.548, 1745.474
1144.030, 1746.772
1144.512, 1749.335
1144.994, 1752.735
1145.476, 1755.562
1145.958, 1757.600
1146.440, 1757.386
1146.922, 1750.728
1147.405, 1743.026
1147.887, 1741.646
1148.369, 1744.588
1148.851, 1747.245
1149.333, 1748.408
1149.815, 1748.076
1150.297, 1745.433
1150.779, 1743.512
1151.261, 1744.284
1151.744, 1746.200
1152.226, 1749.513
1152.708, 1752.308
1153.190, 1751.887
1153.672, 1749.042
1154.154, 1746.670
1154.636, 1745.397
1155.118, 1744.685
1155.600, 1743.880
1156.083, 1744.294
1156.565, 1748.363
1157.047, 1751.780
1157.529, 1750.529
1158.011, 1747.161
1158.493, 1746.033
1158.975, 1747.318
1159.457, 1747.941
1159.940, 1747.793
1160.422, 1746.814
1160.904, 1743.289
1161.386, 1741.516
1161.868, 1744.708
1162.350, 1748.115
1162.832, 1746.839
1163.314, 1747.683
1163.796, 1746.941
1164.279, 1744.198
1164.761, 1744.193
1165.243, 1739.972
1165.725, 1738.684
1166.207, 1742.799
1166.689, 1745.969
1167.171, 1744.046
1167.653, 1740.781
1168.135, 1741.749
1168.618, 1746.019
1169.100, 1748.714
1169.582, 1749.820
1170.064, 1747.829
1170.546, 1742.732
1171.028, 1740.876
1171.510, 1744.378
1171.992, 1748.514
1172.474, 1749.564
1172.957, 1748.617
1173.439, 1746.802
1173.921, 1744.755
1174.403, 1744.541
1174.885, 1745.743
1175.367, 1747.425
1175.849, 1749.010
1176.331, 1748.348
1176.814, 1744.639
1177.296, 1741.963
1177.778, 1744.738
1178.260, 1749.302
1178.742, 1752.064
1179.224, 1753.495
1179.706, 1754.112
1180.188, 1753.983
1180.671, 1753.001
1181.153, 1751.236
1181.635, 1748.963
1182.117, 1746.080
1182.599, 1743.537
1183.081, 1740.971
1183.563, 1739.971
1184.045, 1743.000
1184.527, 1746.825
1185.010, 1748.590
1185.492, 1748.477
1185.974, 1747.268
1186.456, 1744.999
1186.938, 1743.232
1187.420, 1741.264
1187.902, 1741.281
1188.384, 1745.696
1188.866, 1749.618
1189.349, 1750.525
1189.831, 1750.315
1190.313, 1750.701
1190.795, 1751.631
1191.277, 1753.099
1191.759, 1753.153
1192.241, 1753.282
1192.723, 1754.000
1193.206, 1752.761
1193.688, 1753.476
1194.170, 1753.832
1194.652, 1752.173
1195.134, 1750.699
1195.616, 1752.904
1196.098, 1757.562
1196.580, 1759.323
1197.063, 1758.445
1197.545, 1757.319
1198.027, 1756.228
1198.509, 1755.891
1198.991, 1756.445
1199.473, 1756.710
1199.955, 1755.819
1200.437, 1756.310
1200.919, 1755.174
1201.401, 1756.153
1201.884, 1756.262
1202.366, 1755.870
1202.848, 1755.890
1203.330, 1756.118
1203.812, 1755.196
1204.294, 1752.965
1204.776, 1752.201
1205.258, 1755.888
1205.741, 1758.737
1206.223, 1755.682
1206.705, 1752.262
1207.187, 1753.009
1207.669, 1755.685
1208.151, 1758.236
1208.633, 1759.903
1209.115, 1758.768
1209.598, 1753.390
1210.080, 1751.794
1210.562, 1758.731
1211.044, 1764.291
1211.526, 1766.556
1212.008, 1766.955
1212.490, 1765.246
1212.972, 1762.909
1213.454, 1761.572
1213.937, 1761.145
1214.419, 1761.214
1214.901, 1761.823
1215.383, 1762.832
1215.865, 1764.406
1216.347, 1765.208
1216.829, 1764.798
1217.311, 1764.902
1217.793, 1766.593
1218.276, 1768.797
1218.758, 1770.212
1219.240, 1770.856
1219.722, 1769.978
1220.204, 1768.486
1220.686, 1770.360
1221.168, 1774.813
1221.650, 1777.626
1222.133, 1777.975
1222.615, 1777.850
1223.097, 1778.278
1223.579, 1779.389
1224.061, 1782.569
1224.543, 1785.122
1225.025, 1782.521
1225.507, 1779.275
1225.990, 1781.874
1226.472, 1787.644
1226.954, 1790.198
1227.436, 1788.807
1227.918, 1788.299
1228.400, 1790.780
1228.882, 1792.701
1229.364, 1792.896
1229.846, 1792.849
1230.328, 1792.887
1230.811, 1793.165
1231.293, 1793.689
1231.775, 1794.595
1232.257, 1796.238
1232.739, 1797.573
1233.221, 1799.408
1233.703, 1801.612
1234.185, 1803.525
1234.668, 1806.534
1235.150, 1808.971
1235.632, 1810.134
1236.114, 1812.185
1236.596, 1817.109
1237.078, 1822.356
1237.560, 1823.107
1238.042, 1820.724
1238.525, 1818.756
1239.007, 1817.766
1239.489, 1820.303
1239.971, 1825.602
1240.453, 1830.041
1240.935, 1832.615
1241.417, 1834.926
1241.899, 1837.875
1242.381, 1841.207
1242.864, 1845.059
1243.346, 1848.883
1243.828, 1852.074
1244.310, 1855.110
1244.792, 1858.648
1245.274, 1862.429
1245.756, 1865.688
1246.238, 1868.307
1246.720, 1871.117
1247.203, 1874.369
1247.685, 1877.627
1248.167, 1881.655
1248.649, 1884.336
1249.131, 1883.865
1249.613, 1883.811
1250.095, 1887.235
1250.577, 1892.357
1251.059, 1895.539
1251.542, 1897.057
1252.024, 1900.156
1252.506, 1904.842
1252.988, 1910.859
1253.470, 1918.070
1253.952, 1924.515
1254.434, 1929.602
1254.916, 1934.916
1255.399, 1941.657
1255.881, 1947.783
1256.363, 1948.823
1256.845, 1956.497
1257.327, 1956.920
1257.809, 1967.509
1258.291, 1974.607
1258.773, 1979.033
1259.255, 1983.794
1259.738, 1989.713
1260.220, 1997.432
1260.702, 2008.947
1261.184, 2017.370
1261.666, 2016.738
1262.148, 2017.725
1262.630, 2026.573
1263.112, 2036.416
1263.594, 2042.090
1264.077, 2045.801
1264.559, 2050.118
1265.041, 2055.298
1265.523, 2063.804
1266.005, 2076.209
1266.487, 2088.698
1266.969, 2101.384
1267.451, 2111.657
1267.934, 2118.835
1268.416, 2125.522
1268.898, 2133.208
1269.380, 2141.557
1269.862, 2149.942
1270.344, 2159.156
1270.826, 2171.048
1271.308, 2184.694
1271.791, 2199.128
1272.273, 2213.483
1272.755, 2226.274
1273.237, 2237.474
1273.719, 2247.495
1274.201, 2256.319
1274.683, 2267.477
1275.165, 2283.938
1275.647, 2301.219
1276.130, 2318.578
1276.612, 2335.321
1277.094, 2350.346
1277.576, 2365.200
1278.058, 2381.350
1278.540, 2398.458
1279.022, 2415.625
1279.504, 2432.865
1279.986, 2450.409
1280.469, 2468.219
1280.951, 2485.889
1281.433, 2503.393
1281.915, 2521.209
1282.397, 2539.632
1282.879, 2558.855
1283.361, 2579.191
1283.843, 2599.452
1284.326, 2618.249
1284.808, 2635.410
##END=



