##NAMES=Fluorapatite
##RRUFFID=R050122
##IDEAL CHEMISTRY=Ca_5_(PO_4_)_3_F
##LOCALITY=Cruziero mine, San Jose, Minas Gerais, Brazil
##OWNER=RRUFF
##SOURCE=Carlos and Paulo Vasconcelos
##DESCRIPTION=Green fragment
##STATUS=The identification of this mineral has been confirmed by X-ray diffraction and chemical analysis
##URL=rruff.info/R050122
##MEASURED CHEMISTRY=(Ca_4.99_Mn_0.01_)_Î£=5_(P_1.00_O_4_)_3_F_1.00_; trace amounts of Fe
114.3488, 506.9430
114.8309, 512.2492
115.3130, 507.2809
115.7952, 499.5735
116.2773, 501.1371
116.7594, 516.0567
117.2415, 530.6805
117.7236, 538.2476
118.2057, 542.5823
118.6879, 548.5591
119.1700, 559.9276
119.6521, 575.3182
120.1342, 584.1109
120.6163, 576.5894
121.0984, 571.7167
121.5805, 576.3604
122.0627, 587.6068
122.5448, 598.2614
123.0269, 601.2118
123.5090, 593.6916
123.9911, 596.0025
124.4732, 615.3635
124.9554, 636.1719
125.4375, 649.9349
125.9196, 655.9848
126.4017, 659.7420
126.8838, 667.7601
127.3659, 682.1627
127.8481, 694.7389
128.3302, 704.0104
128.8123, 711.9352
129.2944, 720.3334
129.7765, 729.4973
130.2586, 740.0281
130.7408, 752.5718
131.2229, 766.5312
131.7050, 783.6854
132.1871, 805.9200
132.6692, 832.2435
133.1513, 859.0413
133.6335, 884.9167
134.1156, 911.4048
134.5977, 938.9355
135.0798, 967.3066
135.5619, 999.3790
136.0440, 1039.609
136.5262, 1089.657
137.0083, 1137.179
137.4904, 1183.845
137.9725, 1224.072
138.4546, 1256.315
138.9367, 1280.230
139.4189, 1289.488
139.9010, 1269.093
140.3831, 1200.379
140.8652, 1133.354
141.3473, 1074.718
141.8294, 1021.795
142.3116, 971.4755
142.7937, 921.7800
143.2758, 874.8223
143.7579, 838.5898
144.2400, 820.7493
144.7221, 806.6188
145.2043, 795.4266
145.6864, 786.5222
146.1685, 779.6002
146.6506, 774.6336
147.1327, 771.4520
147.6148, 767.2004
148.0969, 759.5913
148.5791, 753.2903
149.0612, 750.0259
149.5433, 749.8298
150.0254, 752.2999
150.5075, 757.6817
150.9896, 765.9491
151.4718, 773.9399
151.9539, 781.8374
152.4360, 789.3364
152.9181, 794.9252
153.4002, 797.8999
153.8823, 803.4464
154.3645, 817.3314
154.8466, 837.1226
155.3287, 858.5984
155.8108, 888.0132
156.2929, 917.6505
156.7750, 928.2911
157.2572, 911.9432
157.7393, 888.5873
158.2214, 868.8739
158.7035, 852.3114
159.1856, 837.9398
159.6677, 825.8327
160.1499, 815.8721
160.6320, 805.2670
161.1141, 788.8173
161.5962, 777.3000
162.0783, 776.5552
162.5604, 784.7883
163.0426, 796.3461
163.5247, 807.3352
164.0068, 819.1498
164.4889, 822.5569
164.9710, 808.9168
165.4531, 794.7827
165.9353, 785.9285
166.4174, 783.7856
166.8995, 788.1046
167.3816, 799.8639
167.8637, 826.2303
168.3458, 840.1730
168.8279, 833.1689
169.3101, 821.2090
169.7922, 815.9991
170.2743, 819.9634
170.7564, 827.0122
171.2385, 827.7804
171.7206, 816.6910
172.2028, 812.3533
172.6849, 823.8514
173.1670, 839.4154
173.6491, 843.6077
174.1312, 830.7878
174.6133, 811.7553
175.0955, 806.3325
175.5776, 815.9233
176.0597, 824.7310
176.5418, 827.1199
177.0239, 825.4526
177.5060, 825.2095
177.9882, 828.4314
178.4703, 833.0689
178.9524, 836.7288
179.4345, 839.5845
179.9166, 840.8257
180.3987, 837.8708
180.8809, 831.6030
181.3630, 829.8020
181.8451, 838.3433
182.3272, 849.0247
182.8093, 853.9272
183.2914, 852.2042
183.7736, 849.5490
184.2557, 851.2738
184.7378, 857.7423
185.2199, 865.5945
185.7020, 877.7745
186.1841, 888.8010
186.6663, 894.5665
187.1484, 894.3243
187.6305, 891.5917
188.1126, 891.5811
188.5947, 896.1975
189.0768, 898.3688
189.5589, 892.8413
190.0411, 887.5715
190.5232, 889.1787
191.0053, 899.4326
191.4874, 913.7004
191.9695, 923.1129
192.4516, 923.1571
192.9338, 925.5065
193.4159, 931.9288
193.8980, 940.0580
194.3801, 948.0270
194.8622, 955.1382
195.3443, 961.5469
195.8265, 967.6422
196.3086, 975.0692
196.7907, 980.0347
197.2728, 978.9339
197.7549, 976.5679
198.2370, 979.2511
198.7192, 989.7513
199.2013, 1004.636
199.6834, 1014.354
200.1655, 1015.522
200.6476, 1016.846
201.1297, 1020.875
201.6119, 1025.748
202.0940, 1027.692
202.5761, 1024.413
203.0582, 1018.849
203.5403, 1018.972
204.0224, 1025.493
204.5046, 1034.320
204.9867, 1045.715
205.4688, 1058.475
205.9509, 1069.383
206.4330, 1076.705
206.9151, 1081.793
207.3973, 1087.902
207.8794, 1096.164
208.3615, 1102.502
208.8436, 1102.823
209.3257, 1098.320
209.8078, 1095.894
210.2899, 1098.314
210.7721, 1104.155
211.2542, 1111.712
211.7363, 1121.669
212.2184, 1130.394
212.7005, 1134.173
213.1826, 1132.984
213.6648, 1132.062
214.1469, 1136.300
214.6290, 1138.908
215.1111, 1130.961
215.5932, 1110.160
216.0753, 1091.353
216.5575, 1093.467
217.0396, 1120.383
217.5217, 1142.289
218.0038, 1149.883
218.4859, 1151.181
218.9680, 1148.698
219.4502, 1143.200
219.9323, 1137.733
220.4144, 1136.336
220.8965, 1139.980
221.3786, 1144.618
221.8607, 1151.053
222.3429, 1157.360
222.8250, 1161.900
223.3071, 1164.477
223.7892, 1166.627
224.2713, 1170.140
224.7534, 1173.764
225.2356, 1182.235
225.7177, 1201.631
226.1998, 1221.223
226.6819, 1233.886
227.1640, 1237.946
227.6461, 1236.514
228.1283, 1233.013
228.6104, 1220.126
229.0925, 1220.333
229.5746, 1243.524
230.0567, 1271.005
230.5388, 1290.058
231.0210, 1297.553
231.5031, 1298.222
231.9852, 1298.734
232.4673, 1297.322
232.9494, 1299.776
233.4315, 1306.955
233.9137, 1316.998
234.3958, 1329.162
234.8779, 1343.040
235.3600, 1357.805
235.8421, 1372.497
236.3242, 1387.958
236.8064, 1400.813
237.2885, 1409.829
237.7706, 1417.119
238.2527, 1424.768
238.7348, 1433.151
239.2169, 1440.661
239.6991, 1445.143
240.1812, 1445.803
240.6633, 1445.626
241.1454, 1441.412
241.6275, 1438.203
242.1096, 1441.891
242.5918, 1453.424
243.0739, 1467.165
243.5560, 1476.246
244.0381, 1480.055
244.5202, 1486.511
245.0023, 1501.128
245.4845, 1516.304
245.9666, 1522.442
246.4487, 1517.830
246.9308, 1511.530
247.4129, 1512.073
247.8950, 1518.979
248.3772, 1527.858
248.8593, 1540.712
249.3414, 1553.956
249.8235, 1562.288
250.3056, 1564.712
250.7877, 1567.473
251.2698, 1578.130
251.7520, 1593.690
252.2341, 1604.634
252.7162, 1606.507
253.1983, 1603.888
253.6804, 1601.865
254.1625, 1600.495
254.6447, 1600.078
255.1268, 1601.567
255.6089, 1604.105
256.0910, 1606.227
256.5731, 1607.337
257.0552, 1608.031
257.5374, 1609.780
258.0195, 1613.198
258.5016, 1614.552
258.9837, 1606.641
259.4658, 1596.806
259.9479, 1594.958
260.4301, 1607.060
260.9122, 1623.503
261.3943, 1630.742
261.8764, 1626.963
262.3585, 1622.687
262.8406, 1620.072
263.3228, 1620.272
263.8049, 1626.442
264.2870, 1641.224
264.7691, 1656.330
265.2512, 1659.127
265.7333, 1646.788
266.2155, 1635.949
266.6976, 1630.959
267.1797, 1630.088
267.6618, 1634.817
268.1439, 1645.896
268.6260, 1655.650
269.1082, 1652.162
269.5903, 1631.825
270.0724, 1617.068
270.5545, 1616.928
271.0366, 1621.252
271.5187, 1624.608
272.0009, 1626.073
272.4830, 1627.694
272.9651, 1630.658
273.4472, 1634.188
273.9293, 1643.678
274.4114, 1667.846
274.8936, 1692.236
275.3757, 1709.034
275.8578, 1718.332
276.3399, 1726.584
276.8220, 1742.176
277.3041, 1767.175
277.7863, 1783.863
278.2684, 1780.937
278.7505, 1778.455
279.2326, 1783.049
279.7147, 1794.794
280.1968, 1811.313
280.6789, 1831.647
281.1610, 1856.070
281.6432, 1877.800
282.1253, 1894.380
282.6074, 1910.524
283.0895, 1925.967
283.5716, 1942.078
284.0537, 1961.321
284.5359, 1986.039
285.0180, 2015.635
285.5001, 2043.173
285.9822, 2065.110
286.4643, 2088.769
286.9464, 2118.130
287.4286, 2149.831
287.9107, 2178.775
288.3928, 2202.199
288.8749, 2220.639
289.3570, 2235.767
289.8391, 2236.902
290.3213, 2249.526
290.8034, 2282.978
291.2855, 2327.278
291.7676, 2372.359
292.2497, 2413.554
292.7318, 2451.025
293.2140, 2485.226
293.6961, 2517.070
294.1782, 2543.640
294.6603, 2557.422
295.1424, 2570.219
295.6245, 2594.046
296.1067, 2632.151
296.5888, 2676.473
297.0709, 2712.894
297.5530, 2734.122
298.0351, 2761.162
298.5172, 2799.048
298.9994, 2838.366
299.4815, 2870.849
299.9636, 2896.276
300.4457, 2923.118
300.9278, 2964.111
301.4099, 3028.625
301.8921, 3076.254
302.3742, 3092.128
302.8563, 3107.376
303.3384, 3137.169
303.8205, 3181.912
304.3026, 3234.216
304.7848, 3287.665
305.2669, 3342.836
305.7490, 3397.671
306.2311, 3457.733
306.7132, 3512.066
307.1953, 3553.510
307.6775, 3586.188
308.1596, 3618.662
308.6417, 3657.032
309.1238, 3700.650
309.6059, 3742.649
310.0880, 3777.047
310.5702, 3816.490
311.0523, 3865.142
311.5344, 3919.642
312.0165, 3976.797
312.4986, 4035.285
312.9807, 4092.729
313.4629, 4142.533
313.9450, 4169.507
314.4271, 4208.326
314.9092, 4270.053
315.3913, 4339.822
315.8734, 4402.882
316.3556, 4454.355
316.8377, 4499.573
317.3198, 4547.590
317.8019, 4594.676
318.2840, 4652.320
318.7661, 4734.775
319.2483, 4816.415
319.7304, 4878.079
320.2125, 4917.767
320.6946, 4947.156
321.1767, 4979.431
321.6588, 5015.822
322.1409, 5050.935
322.6230, 5086.312
323.1052, 5119.433
323.5873, 5147.877
324.0694, 5172.853
324.5515, 5197.895
325.0336, 5226.875
325.5157, 5259.703
325.9979, 5283.930
326.4800, 5298.962
326.9621, 5305.852
327.4442, 5302.715
327.9263, 5291.668
328.4084, 5274.155
328.8906, 5250.362
329.3727, 5223.602
329.8548, 5208.166
330.3369, 5225.938
330.8190, 5226.702
331.3011, 5192.763
331.7833, 5145.974
332.2654, 5108.518
332.7475, 5088.617
333.2296, 5078.678
333.7117, 5065.172
334.1938, 5049.149
334.6760, 5026.775
335.1581, 4995.582
335.6402, 4960.977
336.1223, 4925.834
336.6044, 4890.838
337.0865, 4855.900
337.5687, 4820.309
338.0508, 4783.991
338.5329, 4748.436
339.0150, 4713.472
339.4971, 4679.545
339.9792, 4645.406
340.4614, 4612.439
340.9435, 4583.595
341.4256, 4561.840
341.9077, 4546.534
342.3898, 4529.774
342.8719, 4511.897
343.3541, 4491.689
343.8362, 4464.410
344.3183, 4435.963
344.8004, 4415.520
345.2825, 4408.049
345.7646, 4407.403
346.2468, 4396.629
346.7289, 4366.489
347.2110, 4343.600
347.6931, 4334.833
348.1752, 4331.288
348.6573, 4325.794
349.1395, 4316.580
349.6216, 4306.826
350.1037, 4301.167
350.5858, 4301.032
351.0679, 4299.404
351.5500, 4292.917
352.0322, 4287.417
352.5143, 4288.613
352.9964, 4294.231
353.4785, 4295.660
353.9606, 4283.986
354.4427, 4260.050
354.9249, 4240.076
355.4070, 4216.522
355.8891, 4208.305
356.3712, 4234.011
356.8533, 4275.676
357.3354, 4304.531
357.8176, 4304.475
358.2997, 4285.784
358.7818, 4272.526
359.2639, 4264.969
359.7460, 4262.259
360.2281, 4269.288
360.7103, 4277.878
361.1924, 4278.335
361.6745, 4267.956
362.1566, 4259.509
362.6387, 4273.431
363.1208, 4312.898
363.6029, 4337.510
364.0851, 4328.268
364.5672, 4313.253
365.0493, 4311.761
365.5314, 4322.243
366.0135, 4330.617
366.4956, 4325.749
366.9778, 4310.233
367.4599, 4293.789
367.9420, 4270.710
368.4241, 4258.759
368.9062, 4281.863
369.3883, 4320.343
369.8705, 4338.542
370.3526, 4314.766
370.8347, 4272.978
371.3168, 4249.163
371.7989, 4245.803
372.2810, 4240.496
372.7632, 4224.034
373.2453, 4200.292
373.7274, 4172.268
374.2095, 4138.408
374.6916, 4108.049
375.1737, 4092.858
375.6559, 4088.825
376.1380, 4074.124
376.6201, 4037.787
377.1022, 3999.315
377.5843, 3983.452
378.0664, 3987.301
378.5486, 3984.227
379.0307, 3959.294
379.5128, 3923.770
379.9949, 3894.023
380.4770, 3871.538
380.9591, 3851.532
381.4413, 3829.884
381.9234, 3808.040
382.4055, 3791.293
382.8876, 3789.536
383.3697, 3783.686
383.8518, 3752.708
384.3340, 3704.310
384.8161, 3670.906
385.2982, 3670.756
385.7803, 3687.398
386.2624, 3682.738
386.7445, 3649.936
387.2267, 3621.828
387.7088, 3610.889
388.1909, 3608.049
388.6730, 3601.011
389.1551, 3587.080
389.6372, 3571.654
390.1194, 3560.260
390.6015, 3553.557
391.0836, 3548.625
391.5657, 3548.158
392.0478, 3547.103
392.5299, 3541.953
393.0121, 3533.358
393.4942, 3523.618
393.9763, 3513.556
394.4584, 3504.085
394.9405, 3500.226
395.4226, 3509.301
395.9048, 3514.498
396.3869, 3505.279
396.8690, 3494.031
397.3511, 3498.834
397.8332, 3524.579
398.3153, 3556.710
398.7975, 3571.646
399.2796, 3557.755
399.7617, 3557.059
400.2438, 3582.448
400.7259, 3607.840
401.2080, 3617.929
401.6902, 3614.064
402.1723, 3605.189
402.6544, 3597.001
403.1365, 3590.295
403.6186, 3595.325
404.1007, 3627.495
404.5828, 3653.392
405.0649, 3664.113
405.5471, 3666.534
406.0292, 3667.682
406.5113, 3670.360
406.9934, 3675.786
407.4755, 3687.746
407.9576, 3710.531
408.4398, 3726.601
408.9219, 3730.141
409.4040, 3729.976
409.8861, 3730.319
410.3682, 3731.372
410.8503, 3731.304
411.3325, 3728.368
411.8146, 3722.887
412.2967, 3716.965
412.7788, 3708.599
413.2609, 3703.388
413.7430, 3702.465
414.2252, 3706.049
414.7073, 3716.290
415.1894, 3736.732
415.6715, 3757.055
416.1536, 3762.413
416.6357, 3752.135
417.1179, 3740.393
417.6000, 3730.177
418.0821, 3720.828
418.5642, 3710.952
419.0463, 3700.559
419.5284, 3692.275
420.0106, 3686.677
420.4927, 3684.314
420.9748, 3686.758
421.4569, 3694.543
421.9390, 3705.616
422.4211, 3722.817
422.9033, 3742.275
423.3854, 3751.300
423.8675, 3738.023
424.3496, 3723.892
424.8317, 3726.425
425.3138, 3741.193
425.7960, 3751.671
426.2781, 3750.148
426.7602, 3742.953
427.2423, 3742.723
427.7244, 3751.203
428.2065, 3759.040
428.6887, 3768.029
429.1708, 3773.638
429.6529, 3768.023
430.1350, 3751.678
430.6171, 3736.725
431.0992, 3734.905
431.5814, 3746.466
432.0635, 3748.148
432.5456, 3733.206
433.0277, 3718.115
433.5098, 3706.443
433.9919, 3698.402
434.4741, 3696.387
434.9562, 3701.367
435.4383, 3705.808
435.9204, 3693.792
436.4025, 3652.383
436.8846, 3618.210
437.3668, 3591.215
437.8489, 3570.280
438.3310, 3556.030
438.8131, 3547.456
439.2952, 3541.893
439.7773, 3536.795
440.2595, 3532.638
440.7416, 3535.695
441.2237, 3560.480
441.7058, 3570.346
442.1879, 3544.907
442.6700, 3506.208
443.1522, 3478.978
443.6343, 3471.406
444.1164, 3472.783
444.5985, 3472.707
445.0806, 3471.925
445.5627, 3459.141
446.0448, 3425.302
446.5269, 3386.773
447.0091, 3353.631
447.4912, 3325.125
447.9733, 3297.034
448.4554, 3267.558
448.9375, 3236.917
449.4196, 3205.646
449.9018, 3173.720
450.3839, 3140.013
450.8660, 3101.931
451.3481, 3062.779
451.8302, 3028.631
452.3123, 3000.997
452.7945, 2973.950
453.2766, 2944.563
453.7587, 2913.552
454.2408, 2883.421
454.7229, 2855.299
455.2050, 2822.767
455.6872, 2775.991
456.1693, 2713.771
456.6514, 2665.493
457.1335, 2641.551
457.6156, 2621.993
458.0977, 2593.987
458.5799, 2561.129
459.0620, 2535.229
459.5441, 2522.635
460.0262, 2517.076
460.5083, 2503.611
460.9904, 2474.952
461.4726, 2449.242
461.9547, 2429.356
462.4368, 2410.243
462.9189, 2386.676
463.4010, 2359.552
463.8831, 2335.207
464.3653, 2319.855
464.8474, 2312.697
465.3295, 2300.463
465.8116, 2277.158
466.2937, 2256.398
466.7758, 2241.536
467.2580, 2230.298
467.7401, 2220.819
468.2222, 2212.500
468.7043, 2203.961
469.1864, 2192.985
469.6685, 2179.308
470.1507, 2167.112
470.6328, 2158.855
471.1149, 2149.598
471.5970, 2135.673
472.0791, 2118.575
472.5612, 2102.288
473.0434, 2089.083
473.5255, 2077.014
474.0076, 2061.920
474.4897, 2043.620
474.9718, 2029.355
475.4539, 2023.570
475.9361, 2021.832
476.4182, 2018.515
476.9003, 2014.135
477.3824, 2005.059
477.8645, 1983.920
478.3466, 1959.930
478.8288, 1948.087
479.3109, 1949.588
479.7930, 1951.172
480.2751, 1942.650
480.7572, 1925.386
481.2393, 1910.355
481.7215, 1899.977
482.2036, 1888.787
482.6857, 1872.827
483.1678, 1856.060
483.6499, 1844.196
484.1320, 1838.765
484.6142, 1836.233
485.0963, 1832.218
485.5784, 1826.633
486.0605, 1819.867
486.5426, 1807.619
487.0247, 1798.675
487.5068, 1800.094
487.9890, 1806.422
488.4711, 1807.514
488.9532, 1798.072
489.4353, 1783.242
489.9174, 1774.487
490.3995, 1774.693
490.8817, 1771.096
491.3638, 1756.202
491.8459, 1741.358
492.3280, 1733.114
492.8101, 1730.932
493.2922, 1730.027
493.7744, 1725.965
494.2565, 1721.697
494.7386, 1726.627
495.2207, 1743.170
495.7028, 1753.380
496.1849, 1747.906
496.6671, 1731.528
497.1492, 1709.723
497.6313, 1678.834
498.1134, 1658.589
498.5955, 1668.611
499.0776, 1691.561
499.5598, 1698.208
500.0419, 1684.232
500.5240, 1665.494
501.0061, 1653.516
501.4882, 1648.400
501.9703, 1649.192
502.4525, 1663.997
502.9346, 1674.480
503.4167, 1673.272
503.8988, 1665.114
504.3809, 1654.816
504.8630, 1644.283
505.3452, 1636.253
505.8273, 1635.087
506.3094, 1642.930
506.7915, 1646.374
507.2736, 1642.324
507.7557, 1637.198
508.2379, 1632.173
508.7200, 1627.673
509.2021, 1624.474
509.6842, 1623.052
510.1663, 1621.688
510.6484, 1616.625
511.1306, 1606.963
511.6127, 1599.975
512.0948, 1597.292
512.5769, 1597.190
513.0590, 1598.635
513.5411, 1601.552
514.0233, 1605.968
514.5054, 1615.096
514.9875, 1623.436
515.4696, 1620.964
515.9517, 1608.374
516.4338, 1599.229
516.9160, 1600.327
517.3981, 1605.932
517.8802, 1606.007
518.3623, 1599.819
518.8444, 1594.272
519.3265, 1593.112
519.8087, 1591.687
520.2908, 1581.783
520.7729, 1565.922
521.2550, 1559.226
521.7371, 1573.346
522.2192, 1600.824
522.7014, 1611.911
523.1835, 1588.775
523.6656, 1572.024
524.1477, 1565.467
524.6298, 1563.866
525.1119, 1565.702
525.5941, 1569.011
526.0762, 1568.804
526.5583, 1559.730
527.0404, 1543.533
527.5225, 1532.114
528.0046, 1526.436
528.4868, 1523.754
528.9689, 1524.619
529.4510, 1527.099
529.9331, 1529.908
530.4152, 1532.791
530.8973, 1534.898
531.3795, 1535.868
531.8616, 1535.539
532.3437, 1532.953
532.8258, 1527.607
533.3079, 1522.344
533.7900, 1519.707
534.2722, 1518.355
534.7543, 1513.842
535.2364, 1501.776
535.7185, 1493.908
536.2006, 1500.716
536.6827, 1512.511
537.1649, 1513.512
537.6470, 1501.152
538.1291, 1486.607
538.6112, 1480.880
539.0933, 1484.132
539.5754, 1483.079
540.0576, 1472.304
540.5397, 1463.993
541.0218, 1461.747
541.5039, 1462.780
541.9860, 1464.623
542.4681, 1466.287
542.9503, 1466.735
543.4324, 1464.420
543.9145, 1459.228
544.3966, 1453.887
544.8787, 1445.968
545.3608, 1441.813
545.8430, 1447.469
546.3251, 1456.825
546.8072, 1461.495
547.2892, 1458.897
547.7714, 1453.149
548.2535, 1446.158
548.7356, 1438.774
549.2177, 1433.926
549.6998, 1432.356
550.1819, 1432.466
550.6641, 1433.566
551.1462, 1435.390
551.6283, 1435.912
552.1104, 1434.842
552.5925, 1432.778
553.0746, 1426.680
553.5568, 1420.866
554.0389, 1425.066
554.5210, 1440.738
555.0031, 1454.138
555.4852, 1447.383
555.9673, 1417.437
556.4495, 1403.231
556.9316, 1420.132
557.4137, 1436.014
557.8958, 1442.947
558.3779, 1445.291
558.8600, 1449.101
559.3422, 1456.067
559.8243, 1462.336
560.3064, 1461.004
560.7885, 1453.012
561.2706, 1454.058
561.7527, 1468.905
562.2349, 1484.746
562.7170, 1493.198
563.1991, 1497.637
563.6812, 1503.338
564.1633, 1512.490
564.6454, 1519.863
565.1276, 1520.865
565.6097, 1518.092
566.0918, 1516.183
566.5739, 1516.016
567.0560, 1517.359
567.5381, 1520.041
568.0203, 1524.055
568.5024, 1529.509
568.9845, 1535.045
569.4666, 1543.430
569.9487, 1557.573
570.4308, 1573.667
570.9130, 1587.107
571.3951, 1597.368
571.8772, 1607.698
572.3593, 1621.709
572.8414, 1639.088
573.3235, 1653.906
573.8057, 1660.112
574.2878, 1674.890
574.7699, 1706.307
575.2520, 1746.944
575.7341, 1790.982
576.2162, 1837.459
576.6984, 1884.025
577.1805, 1926.557
577.6626, 1968.579
578.1447, 2023.531
578.6268, 2093.409
579.1089, 2150.451
579.5911, 2179.609
580.0732, 2183.603
580.5553, 2169.860
581.0374, 2138.801
581.5195, 2093.020
582.0016, 2025.060
582.4838, 1948.145
582.9659, 1870.440
583.4480, 1795.017
583.9301, 1727.053
584.4122, 1669.603
584.8943, 1622.390
585.3765, 1583.457
585.8586, 1552.626
586.3407, 1531.220
586.8228, 1522.732
587.3049, 1520.438
587.7870, 1522.157
588.2692, 1526.705
588.7513, 1531.409
589.2334, 1533.415
589.7155, 1536.012
590.1976, 1548.940
590.6797, 1571.800
591.1619, 1581.923
591.6440, 1569.198
592.1261, 1545.497
592.6082, 1523.718
593.0903, 1503.606
593.5724, 1488.381
594.0546, 1482.946
594.5367, 1478.256
595.0188, 1465.518
595.5009, 1449.546
595.9830, 1441.321
596.4651, 1445.023
596.9473, 1455.978
597.4294, 1468.968
597.9115, 1487.273
598.3936, 1491.583
598.8757, 1461.392
599.3578, 1438.738
599.8400, 1439.575
600.3221, 1454.174
600.8042, 1468.631
601.2863, 1478.472
601.7684, 1488.846
602.2505, 1505.168
602.7327, 1526.557
603.2148, 1549.490
603.6969, 1574.359
604.1790, 1598.190
604.6611, 1618.775
605.1432, 1636.900
605.6254, 1656.775
606.1075, 1686.173
606.5896, 1703.040
607.0717, 1693.736
607.5538, 1672.432
608.0359, 1655.093
608.5181, 1642.442
609.0002, 1624.344
609.4823, 1592.323
609.9644, 1550.634
610.4465, 1517.099
610.9286, 1491.661
611.4108, 1475.002
611.8929, 1471.504
612.3750, 1472.472
612.8571, 1471.031
613.3392, 1468.781
613.8214, 1473.787
614.3035, 1495.759
614.7856, 1521.214
615.2677, 1529.113
615.7498, 1520.428
616.2319, 1505.410
616.7141, 1484.446
617.1962, 1463.982
617.6783, 1454.498
618.1604, 1456.302
618.6425, 1446.055
619.1246, 1410.765
619.6068, 1376.210
620.0889, 1355.183
620.5710, 1342.058
621.0531, 1326.830
621.5352, 1307.110
622.0173, 1288.985
622.4995, 1279.915
622.9816, 1279.905
623.4637, 1281.011
623.9458, 1286.829
624.4279, 1287.705
624.9100, 1275.625
625.3922, 1260.717
625.8743, 1253.122
626.3564, 1254.194
626.8385, 1257.706
627.3206, 1262.485
627.8027, 1265.993
628.2849, 1262.379
628.7670, 1252.068
629.2491, 1242.954
629.7311, 1238.552
630.2133, 1238.112
630.6954, 1241.172
631.1775, 1252.142
631.6596, 1254.269
632.1417, 1237.494
632.6238, 1221.684
633.1060, 1218.205
633.5881, 1223.398
634.0702, 1230.646
634.5523, 1237.120
635.0344, 1240.422
635.5165, 1234.901
635.9987, 1220.103
636.4808, 1212.210
636.9629, 1215.833
637.4450, 1219.224
637.9271, 1210.672
638.4092, 1199.443
638.8914, 1201.720
639.3735, 1224.896
639.8556, 1242.943
640.3377, 1238.658
640.8198, 1224.101
641.3019, 1214.479
641.7841, 1210.960
642.2662, 1208.782
642.7483, 1205.020
643.2304, 1200.482
643.7125, 1197.573
644.1946, 1197.442
644.6768, 1196.788
645.1589, 1195.344
645.6410, 1193.667
646.1231, 1190.552
646.6052, 1187.642
647.0873, 1189.335
647.5695, 1198.988
648.0516, 1207.797
648.5337, 1200.882
649.0158, 1181.972
649.4979, 1174.819
649.9800, 1185.138
650.4622, 1197.925
650.9443, 1203.349
651.4264, 1201.968
651.9085, 1197.111
652.3906, 1182.495
652.8727, 1174.433
653.3549, 1183.390
653.8370, 1195.590
654.3191, 1196.737
654.8012, 1188.126
655.2833, 1181.381
655.7654, 1184.583
656.2476, 1192.858
656.7297, 1192.378
657.2118, 1180.022
657.6939, 1173.470
658.1760, 1180.031
658.6581, 1187.299
659.1403, 1187.639
659.6224, 1182.455
660.1045, 1174.809
660.5866, 1163.394
661.0687, 1153.387
661.5508, 1147.954
662.0330, 1146.415
662.5151, 1149.147
662.9972, 1155.698
663.4793, 1160.889
663.9614, 1160.152
664.4435, 1155.164
664.9257, 1154.620
665.4078, 1162.354
665.8899, 1168.331
666.3720, 1171.967
666.8541, 1173.764
667.3362, 1173.455
667.8184, 1171.582
668.3005, 1168.900
668.7826, 1164.555
669.2647, 1162.365
669.7468, 1170.106
670.2289, 1185.287
670.7111, 1193.589
671.1932, 1191.244
671.6753, 1187.495
672.1574, 1190.598
672.6395, 1199.114
673.1216, 1202.414
673.6038, 1198.645
674.0859, 1192.861
674.5680, 1180.384
675.0501, 1170.220
675.5322, 1172.192
676.0143, 1184.192
676.4965, 1196.979
676.9786, 1205.519
677.4607, 1209.150
677.9428, 1204.120
678.4249, 1189.482
678.9070, 1180.552
679.3892, 1180.423
679.8713, 1185.191
680.3534, 1194.254
680.8355, 1205.917
681.3176, 1215.645
681.7997, 1223.176
682.2819, 1228.471
682.7640, 1230.932
683.2461, 1231.562
683.7282, 1231.573
684.2103, 1230.986
684.6924, 1228.369
685.1746, 1222.317
685.6567, 1215.540
686.1388, 1215.976
686.6209, 1225.270
687.1030, 1236.069
687.5851, 1251.932
688.0673, 1264.208
688.5494, 1265.885
689.0315, 1261.139
689.5136, 1258.820
689.9957, 1261.978
690.4778, 1265.287
690.9600, 1266.842
691.4421, 1265.729
691.9242, 1258.249
692.4063, 1245.312
692.8884, 1235.146
693.3705, 1232.939
693.8527, 1236.994
694.3348, 1242.832
694.8169, 1251.048
695.2990, 1259.752
695.7811, 1272.907
696.2632, 1282.523
696.7454, 1283.654
697.2275, 1279.356
697.7096, 1274.251
698.1917, 1269.270
698.6738, 1266.536
699.1559, 1270.867
699.6381, 1277.806
700.1202, 1276.575
700.6023, 1266.771
701.0844, 1257.647
701.5665, 1254.146
702.0486, 1254.716
702.5308, 1256.269
703.0129, 1260.227
703.4950, 1261.466
703.9771, 1259.754
704.4592, 1255.902
704.9413, 1248.665
705.4235, 1240.110
705.9056, 1233.362
706.3877, 1229.253
706.8698, 1225.653
707.3519, 1219.213
707.8340, 1212.104
708.3162, 1211.145
708.7983, 1216.585
709.2804, 1220.244
709.7625, 1218.201
710.2446, 1213.294
710.7267, 1209.824
711.2089, 1207.985
711.6909, 1207.030
712.1730, 1207.832
712.6552, 1208.469
713.1373, 1209.514
713.6194, 1209.353
714.1015, 1205.525
714.5836, 1197.863
715.0657, 1189.283
715.5479, 1182.683
716.0300, 1176.841
716.5121, 1166.196
716.9942, 1150.552
717.4763, 1145.135
717.9584, 1157.942
718.4406, 1175.579
718.9227, 1183.126
719.4048, 1180.026
719.8869, 1174.492
720.3690, 1161.076
720.8511, 1152.101
721.3333, 1155.815
721.8154, 1162.549
722.2975, 1160.760
722.7796, 1151.075
723.2617, 1143.650
723.7438, 1145.498
724.2260, 1154.010
724.7081, 1167.409
725.1902, 1185.275
725.6723, 1191.021
726.1544, 1177.334
726.6365, 1162.529
727.1187, 1162.414
727.6008, 1174.344
728.0829, 1182.117
728.5650, 1183.262
729.0471, 1184.218
729.5292, 1187.812
730.0114, 1190.159
730.4935, 1186.410
730.9756, 1178.768
731.4577, 1173.435
731.9398, 1173.491
732.4219, 1177.151
732.9041, 1183.997
733.3862, 1193.114
733.8683, 1195.870
734.3504, 1190.594
734.8325, 1182.927
735.3146, 1174.555
735.7968, 1166.886
736.2789, 1163.174
736.7610, 1163.664
737.2431, 1166.686
737.7252, 1177.341
738.2073, 1185.135
738.6895, 1180.314
739.1716, 1170.079
739.6537, 1167.731
740.1358, 1176.599
740.6179, 1186.116
741.1000, 1184.924
741.5822, 1175.634
742.0643, 1166.720
742.5464, 1157.910
743.0285, 1153.623
743.5106, 1156.879
743.9927, 1162.477
744.4749, 1163.886
744.9570, 1160.671
745.4391, 1158.699
745.9212, 1159.992
746.4033, 1159.928
746.8854, 1156.433
747.3676, 1151.454
747.8497, 1146.743
748.3318, 1142.542
748.8139, 1138.227
749.2960, 1132.674
749.7781, 1128.150
750.2603, 1130.882
750.7424, 1139.327
751.2245, 1140.382
751.7066, 1130.667
752.1887, 1118.619
752.6708, 1109.436
753.1530, 1103.372
753.6351, 1101.791
754.1172, 1112.003
754.5993, 1114.809
755.0814, 1102.194
755.5635, 1089.454
756.0457, 1086.211
756.5278, 1089.080
757.0099, 1091.062
757.4920, 1089.790
757.9741, 1086.243
758.4562, 1079.952
758.9384, 1072.398
759.4205, 1066.152
759.9026, 1061.548
760.3847, 1062.502
760.8668, 1072.062
761.3489, 1082.763
761.8311, 1082.178
762.3132, 1067.533
762.7953, 1061.575
763.2774, 1074.037
763.7595, 1083.158
764.2416, 1083.344
764.7238, 1079.163
765.2059, 1074.832
765.6880, 1070.574
766.1701, 1063.915
766.6522, 1049.891
767.1343, 1037.485
767.6165, 1039.980
768.0986, 1051.422
768.5807, 1054.828
769.0628, 1047.411
769.5449, 1041.353
770.0270, 1047.034
770.5092, 1059.287
770.9913, 1058.119
771.4734, 1032.736
771.9555, 1020.700
772.4376, 1041.012
772.9197, 1056.482
773.4019, 1043.832
773.8840, 1017.793
774.3661, 1003.382
774.8482, 1006.691
775.3303, 1012.565
775.8124, 1014.310
776.2946, 1014.168
776.7767, 1015.105
777.2588, 1016.160
777.7409, 1013.558
778.2230, 1006.128
778.7051, 998.1163
779.1873, 995.1772
779.6694, 996.6157
780.1515, 993.2898
780.6336, 983.4886
781.1157, 974.2362
781.5978, 966.8116
782.0800, 961.1555
782.5621, 956.8917
783.0442, 954.1595
783.5263, 953.8495
784.0084, 959.3562
784.4905, 963.1375
784.9727, 959.4601
785.4548, 954.9816
785.9369, 958.4361
786.4190, 967.6517
786.9011, 973.2881
787.3832, 970.3400
787.8654, 962.3023
788.3475, 952.1078
788.8296, 940.6074
789.3117, 936.8905
789.7938, 942.9951
790.2759, 946.6689
790.7581, 941.1100
791.2402, 930.8676
791.7223, 923.5031
792.2044, 919.4753
792.6865, 916.7231
793.1686, 918.2746
793.6508, 917.4016
794.1328, 909.8016
794.6149, 900.1251
795.0970, 893.2464
795.5792, 889.5521
796.0613, 886.4503
796.5434, 882.5716
797.0255, 878.3990
797.5076, 873.9253
797.9897, 869.6548
798.4719, 866.7626
798.9540, 865.5063
799.4361, 867.5830
799.9182, 875.3971
800.4003, 884.5032
800.8824, 880.8057
801.3646, 856.9881
801.8467, 841.4106
802.3288, 838.9440
802.8109, 839.2894
803.2930, 839.6233
803.7751, 839.3871
804.2573, 837.5190
804.7394, 833.7968
805.2215, 830.5484
805.7036, 830.0257
806.1857, 828.9517
806.6678, 824.1533
807.1500, 817.2738
807.6321, 810.1761
808.1142, 803.8907
808.5963, 801.6533
809.0784, 807.7955
809.5605, 817.0948
810.0427, 812.2952
810.5248, 792.4005
811.0069, 781.7336
811.4890, 786.7331
811.9711, 794.2137
812.4532, 795.6441
812.9354, 792.5289
813.4175, 789.4710
813.8996, 786.6035
814.3817, 783.4173
814.8638, 778.2330
815.3459, 774.4794
815.8281, 777.8701
816.3102, 781.8873
816.7923, 774.6703
817.2744, 754.8652
817.7565, 737.9992
818.2386, 737.7872
818.7208, 745.1102
819.2029, 747.1721
819.6850, 745.5250
820.1671, 745.4182
820.6492, 748.0845
821.1313, 751.8143
821.6135, 755.0763
822.0956, 758.4203
822.5777, 764.8088
823.0598, 776.9454
823.5419, 783.4042
824.0240, 782.5936
824.5062, 776.7963
824.9883, 763.3373
825.4704, 747.2609
825.9525, 736.3724
826.4346, 731.8358
826.9167, 729.0741
827.3989, 726.8746
827.8810, 725.9468
828.3631, 727.4754
828.8452, 730.2806
829.3273, 733.1320
829.8094, 735.4333
830.2916, 735.9736
830.7737, 733.1057
831.2558, 728.9575
831.7379, 728.4222
832.2200, 730.9474
832.7021, 731.2957
833.1843, 728.2282
833.6664, 726.7060
834.1485, 730.6791
834.6306, 737.8396
835.1127, 742.0325
835.5948, 743.0461
836.0770, 741.6849
836.5591, 734.1447
837.0412, 728.6339
837.5233, 731.3607
838.0054, 735.2249
838.4875, 730.3117
838.9697, 716.4124
839.4518, 706.2913
839.9339, 707.1950
840.4160, 711.4709
840.8981, 716.2077
841.3802, 719.6777
841.8624, 719.2463
842.3445, 714.8108
842.8266, 707.1847
843.3087, 696.3096
843.7908, 686.0304
844.2729, 684.7488
844.7551, 691.6840
845.2372, 695.6057
845.7193, 695.7942
846.2014, 692.7257
846.6835, 685.4778
847.1656, 676.9227
847.6478, 671.0085
848.1299, 667.6716
848.6120, 667.6973
849.0941, 678.7881
849.5762, 682.9216
850.0583, 670.7502
850.5405, 655.3655
851.0226, 646.3130
851.5047, 643.3715
851.9868, 642.9940
852.4689, 645.4899
852.9510, 646.2283
853.4332, 640.9431
853.9153, 632.9269
854.3974, 625.2138
854.8795, 618.5927
855.3616, 615.2215
855.8438, 615.6919
856.3259, 614.9569
856.8080, 604.9187
857.2901, 588.6394
857.7722, 583.3257
858.2543, 589.9369
858.7365, 596.7322
859.2186, 602.0884
859.7007, 602.8029
860.1828, 593.6184
860.6649, 577.6500
861.1470, 571.3459
861.6292, 586.7999
862.1113, 592.5212
862.5934, 579.4243
863.0755, 566.7316
863.5576, 564.7960
864.0397, 568.1356
864.5219, 568.7341
865.0040, 565.1718
865.4861, 560.4064
865.9682, 554.7097
866.4503, 549.5508
866.9324, 545.7748
867.4146, 543.5184
867.8967, 544.2485
868.3788, 547.1810
868.8609, 547.1689
869.3430, 540.1625
869.8251, 531.5287
870.3073, 532.9724
870.7894, 543.0225
871.2715, 547.0033
871.7536, 543.6027
872.2357, 535.8453
872.7178, 523.2353
873.2000, 511.4438
873.6821, 509.4915
874.1642, 518.2723
874.6463, 524.0900
875.1284, 527.7007
875.6105, 527.0652
876.0927, 516.4736
876.5747, 506.7053
877.0568, 507.3842
877.5389, 514.6311
878.0211, 517.4216
878.5032, 512.3699
878.9853, 505.9797
879.4674, 499.4007
879.9495, 494.0754
880.4316, 492.4210
880.9138, 492.5269
881.3959, 489.5894
881.8780, 483.0643
882.3601, 479.3645
882.8422, 486.1399
883.3243, 496.4231
883.8065, 494.7275
884.2886, 483.9836
884.7707, 478.4056
885.2528, 480.3656
885.7349, 486.9870
886.2170, 497.8547
886.6992, 507.5385
887.1813, 502.4021
887.6634, 478.0105
888.1455, 466.6304
888.6276, 474.4542
889.1097, 482.9606
889.5919, 487.9742
890.0740, 489.3081
890.5561, 485.7540
891.0382, 477.9241
891.5203, 470.2536
892.0024, 459.9290
892.4846, 454.2765
892.9667, 457.0200
893.4488, 462.8271
893.9309, 470.8400
894.4130, 478.0563
894.8951, 479.0815
895.3773, 472.4667
895.8594, 464.7181
896.3415, 459.2255
896.8236, 456.0061
897.3057, 455.5614
897.7878, 457.2638
898.2700, 460.6775
898.7521, 465.1408
899.2342, 467.3280
899.7163, 464.6248
900.1984, 459.5953
900.6805, 456.9847
901.1627, 456.7957
901.6448, 460.3105
902.1269, 468.4398
902.6090, 473.6937
903.0911, 472.0791
903.5732, 468.0576
904.0554, 467.7426
904.5375, 471.1335
905.0196, 471.2179
905.5017, 463.0852
905.9838, 459.9152
906.4659, 470.7456
906.9481, 479.4341
907.4302, 473.1939
907.9123, 459.5199
908.3944, 453.9709
908.8765, 459.9330
909.3586, 466.5183
909.8408, 471.9898
910.3229, 475.5426
910.8050, 475.6862
911.2871, 474.2222
911.7692, 473.6933
912.2513, 474.0909
912.7335, 472.8419
913.2156, 467.2425
913.6977, 463.1481
914.1798, 468.6723
914.6619, 479.7085
915.1440, 490.4745
915.6262, 499.0964
916.1083, 497.7953
916.5904, 483.8118
917.0725, 471.8743
917.5546, 481.5621
918.0367, 506.3786
918.5189, 513.2126
919.0010, 500.5727
919.4831, 491.8199
919.9652, 491.9522
920.4473, 493.0364
920.9294, 489.5198
921.4116, 483.6577
921.8937, 480.7401
922.3758, 481.4972
922.8579, 482.4593
923.3400, 484.0575
923.8221, 485.2448
924.3043, 485.6707
924.7864, 485.6672
925.2685, 484.8651
925.7506, 483.7625
926.2327, 484.3952
926.7148, 487.4633
927.1970, 491.5753
927.6791, 499.1636
928.1612, 504.8455
928.6433, 502.1240
929.1254, 496.0507
929.6075, 495.5074
930.0897, 501.9150
930.5718, 508.2043
931.0539, 508.0648
931.5360, 507.9156
932.0181, 517.4402
932.5002, 530.5166
932.9824, 535.5475
933.4645, 532.4141
933.9466, 527.0136
934.4287, 522.2125
934.9108, 520.2716
935.3929, 525.2673
935.8751, 535.6801
936.3572, 545.6802
936.8393, 555.2216
937.3214, 560.5663
937.8035, 560.3608
938.2856, 560.2311
938.7678, 564.8460
939.2499, 572.3571
939.7320, 576.6005
940.2141, 575.0381
940.6962, 580.7038
941.1783, 596.1735
941.6605, 613.3188
942.1426, 628.8611
942.6247, 645.0231
943.1068, 664.3615
943.5889, 686.7618
944.0710, 709.7958
944.5532, 729.8890
945.0353, 755.8320
945.5174, 790.2347
945.9995, 828.7042
946.4816, 867.3948
946.9637, 909.5172
947.4459, 957.3874
947.9280, 1011.712
948.4101, 1082.576
948.8922, 1184.567
949.3743, 1292.060
949.8564, 1399.154
950.3386, 1498.430
950.8207, 1580.153
951.3028, 1646.525
951.7849, 1702.734
952.2670, 1750.492
952.7491, 1800.981
953.2313, 1860.948
953.7134, 1931.709
954.1955, 2013.777
954.6776, 2108.103
955.1597, 2217.514
955.6418, 2342.231
956.1240, 2478.333
956.6061, 2623.246
957.0882, 2783.208
957.5703, 2965.380
958.0524, 3171.648
958.5345, 3409.646
959.0166, 3679.522
959.4987, 4004.186
959.9808, 4389.475
960.4630, 4847.049
960.9451, 5392.228
961.4272, 6017.898
961.9093, 6728.899
962.3914, 7596.923
962.8735, 8253.581
963.3557, 8730.590
963.8378, 8880.354
964.3199, 8598.146
964.8020, 7998.523
965.2841, 7163.456
965.7662, 6097.414
966.2484, 5123.219
966.7305, 4210.183
967.2126, 3440.936
967.6947, 2845.777
968.1768, 2369.383
968.6589, 2007.174
969.1411, 1733.239
969.6232, 1514.874
970.1053, 1349.249
970.5874, 1209.532
971.0695, 1089.922
971.5516, 992.0760
972.0338, 923.0743
972.5159, 869.8949
972.9980, 822.8642
973.4801, 781.3004
973.9622, 749.1931
974.4443, 727.9861
974.9265, 708.1020
975.4086, 681.0826
975.8907, 655.2076
976.3728, 639.6240
976.8549, 629.2941
977.3370, 614.1403
977.8192, 595.5335
978.3013, 585.4774
978.7834, 590.5542
979.2655, 598.9111
979.7476, 597.4405
980.2297, 590.0103
980.7119, 582.8387
981.1940, 576.4606
981.6761, 572.0931
982.1582, 569.8284
982.6403, 567.9025
983.1224, 565.1015
983.6046, 561.6102
984.0867, 556.4938
984.5688, 550.5706
985.0509, 551.0759
985.5330, 558.2021
986.0151, 564.1213
986.4973, 566.4757
986.9794, 565.5215
987.4615, 560.7310
987.9436, 554.0645
988.4257, 553.1556
988.9078, 559.2256
989.3900, 562.0804
989.8721, 559.6020
990.3542, 560.1885
990.8363, 568.9669
991.3184, 578.5539
991.8005, 579.8915
992.2827, 574.2383
992.7648, 572.7205
993.2469, 578.9335
993.7290, 581.3871
994.2111, 577.7697
994.6932, 572.8663
995.1754, 568.1544
995.6575, 563.6308
996.1396, 557.5016
996.6217, 550.0403
997.1038, 550.6987
997.5859, 570.1389
998.0681, 582.4695
998.5502, 579.1621
999.0323, 573.7556
999.5144, 572.5081
999.9965, 574.3340
1000.479, 577.6313
1000.961, 582.1493
1001.443, 586.6765
1001.925, 591.8427
1002.407, 595.7089
1002.889, 597.2632
1003.371, 597.5225
1003.853, 594.8881
1004.336, 592.4824
1004.818, 597.4925
1005.300, 610.9221
1005.782, 620.5012
1006.264, 617.7594
1006.746, 611.5823
1007.228, 604.7353
1007.710, 600.0818
1008.193, 601.7588
1008.675, 608.3410
1009.157, 616.8023
1009.639, 625.8997
1010.121, 631.9811
1010.603, 627.7740
1011.085, 623.4486
1011.567, 634.9436
1012.049, 652.2047
1012.532, 655.9919
1013.014, 647.8204
1013.496, 642.1021
1013.978, 644.7778
1014.460, 649.1634
1014.942, 646.7375
1015.424, 642.7684
1015.906, 647.9023
1016.388, 659.5137
1016.871, 671.2722
1017.353, 681.7379
1017.835, 689.4865
1018.317, 693.8044
1018.799, 696.5207
1019.281, 699.6807
1019.763, 703.2252
1020.245, 706.1955
1020.728, 709.0981
1021.210, 716.6348
1021.692, 729.2714
1022.174, 738.2005
1022.656, 737.8780
1023.138, 737.7390
1023.620, 753.5591
1024.102, 782.3132
1024.584, 802.7076
1025.067, 814.5609
1025.549, 825.2252
1026.031, 835.4746
1026.513, 850.1901
1026.995, 872.9037
1027.477, 899.7332
1027.959, 924.5534
1028.441, 947.3161
1028.923, 965.1477
1029.406, 976.1935
1029.888, 994.0015
1030.370, 1023.868
1030.852, 1051.321
1031.334, 1069.172
1031.816, 1076.827
1032.298, 1073.326
1032.780, 1058.634
1033.263, 1032.305
1033.745, 987.1201
1034.227, 952.2424
1034.709, 935.8181
1035.191, 924.5566
1035.673, 911.8406
1036.155, 897.6494
1036.637, 880.9321
1037.120, 860.7645
1037.602, 848.2555
1038.084, 844.7905
1038.566, 846.4423
1039.048, 855.7137
1039.530, 865.6691
1040.012, 872.0987
1040.494, 876.6384
1040.976, 882.3892
1041.458, 889.6971
1041.941, 895.4240
1042.423, 903.0291
1042.905, 903.7844
1043.387, 885.6207
1043.869, 872.0105
1044.351, 880.5181
1044.833, 899.4395
1045.315, 909.7177
1045.798, 910.4022
1046.280, 910.9822
1046.762, 907.4254
1047.244, 910.3480
1047.726, 927.7124
1048.208, 945.2400
1048.690, 952.4406
1049.172, 955.7141
1049.655, 966.7908
1050.137, 986.4904
1050.619, 999.2092
1051.101, 992.7053
1051.583, 993.5046
1052.065, 1013.213
1052.547, 1035.057
1053.029, 1049.908
1053.511, 1060.056
1053.994, 1067.119
1054.476, 1071.917
1054.958, 1083.648
1055.440, 1109.103
1055.922, 1134.731
1056.404, 1156.743
1056.886, 1178.381
1057.368, 1206.250
1057.850, 1232.445
1058.333, 1247.165
1058.815, 1249.324
1059.297, 1241.089
1059.779, 1219.074
1060.261, 1193.282
1060.743, 1159.557
1061.225, 1131.023
1061.707, 1121.329
1062.190, 1118.505
1062.672, 1104.716
1063.154, 1080.757
1063.636, 1063.162
1064.118, 1057.262
1064.600, 1057.456
1065.082, 1068.051
1065.564, 1077.156
1066.047, 1074.432
1066.529, 1067.631
1067.011, 1067.777
1067.493, 1073.891
1067.975, 1075.343
1068.457, 1065.925
1068.939, 1060.875
1069.421, 1070.845
1069.903, 1082.265
1070.385, 1084.042
1070.868, 1084.252
1071.350, 1094.303
1071.832, 1111.901
1072.314, 1126.130
1072.796, 1133.784
1073.278, 1137.571
1073.760, 1130.695
1074.242, 1129.541
1074.725, 1148.294
1075.207, 1174.702
1075.689, 1197.867
1076.171, 1216.361
1076.653, 1230.132
1077.135, 1238.655
1077.617, 1247.839
1078.099, 1262.197
1078.582, 1275.703
1079.064, 1286.563
1079.546, 1293.667
1080.028, 1296.593
1080.510, 1294.898
1080.992, 1285.835
1081.474, 1268.919
1081.956, 1255.923
1082.438, 1253.930
1082.921, 1254.845
1083.403, 1254.491
1083.885, 1255.361
1084.367, 1261.751
1084.849, 1270.118
1085.331, 1272.260
1085.813, 1267.752
1086.295, 1269.053
1086.777, 1287.000
1087.260, 1302.789
1087.742, 1305.246
1088.224, 1304.903
1088.706, 1307.972
1089.188, 1314.564
1089.670, 1326.210
1090.152, 1341.266
1090.634, 1351.173
1091.116, 1351.510
1091.599, 1349.750
1092.081, 1344.898
1092.563, 1343.485
1093.045, 1349.421
1093.527, 1361.339
1094.009, 1380.037
1094.491, 1403.028
1094.973, 1423.563
1095.456, 1441.796
1095.938, 1450.659
1096.420, 1435.469
1096.902, 1425.027
1097.384, 1444.384
1097.866, 1467.081
1098.348, 1462.477
1098.830, 1440.129
1099.313, 1429.596
1099.795, 1437.978
1100.277, 1446.734
1100.759, 1448.821
1101.241, 1452.483
1101.723, 1461.996
1102.205, 1473.165
1102.687, 1482.765
1103.169, 1491.668
1103.651, 1501.116
1104.134, 1511.303
1104.616, 1524.875
1105.098, 1547.337
1105.580, 1566.101
1106.062, 1579.522
1106.544, 1586.900
1107.026, 1581.295
1107.508, 1573.571
1107.991, 1579.997
1108.473, 1599.302
1108.955, 1612.444
1109.437, 1610.282
1109.919, 1614.393
1110.401, 1633.138
1110.883, 1651.640
1111.365, 1666.690
1111.848, 1676.773
1112.330, 1677.304
1112.812, 1671.700
1113.294, 1673.133
1113.776, 1687.462
1114.258, 1693.079
1114.740, 1670.972
1115.222, 1665.336
1115.704, 1703.037
1116.187, 1742.693
1116.669, 1752.623
1117.151, 1747.395
1117.633, 1757.329
1118.115, 1785.281
1118.597, 1802.438
1119.079, 1797.784
1119.561, 1803.071
1120.043, 1824.674
1120.526, 1853.274
1121.008, 1892.350
1121.490, 1926.814
1121.972, 1932.664
1122.454, 1913.795
1122.936, 1913.062
1123.418, 1938.109
1123.900, 1959.005
1124.383, 1972.042
1124.865, 1988.146
1125.347, 2013.254
1125.829, 2037.627
1126.311, 2050.135
1126.793, 2057.514
1127.275, 2082.249
1127.757, 2128.209
1128.240, 2160.953
1128.722, 2176.509
1129.204, 2199.225
1129.686, 2235.636
1130.168, 2276.510
1130.650, 2317.875
1131.132, 2353.058
1131.614, 2366.763
1132.096, 2363.171
1132.578, 2384.631
1133.061, 2432.135
1133.543, 2467.513
1134.025, 2485.229
1134.507, 2507.988
1134.989, 2546.012
1135.471, 2587.367
1135.953, 2619.606
1136.435, 2646.585
1136.918, 2681.924
1137.400, 2722.866
1137.882, 2749.956
1138.364, 2763.406
1138.846, 2773.455
1139.328, 2783.268
1139.810, 2795.696
1140.292, 2813.071
1140.775, 2830.831
1141.257, 2843.967
1141.739, 2851.443
1142.221, 2848.465
1142.703, 2837.979
1143.185, 2830.402
1143.667, 2825.395
1144.149, 2812.573
1144.631, 2787.759
1145.114, 2758.351
1145.596, 2726.354
1146.078, 2700.671
1146.560, 2697.710
1147.042, 2706.385
1147.524, 2711.879
1148.006, 2712.484
1148.488, 2705.932
1148.970, 2693.919
1149.453, 2687.497
1149.935, 2693.948
1150.417, 2702.932
1150.899, 2703.059
1151.381, 2705.150
1151.863, 2727.079
1152.345, 2752.242
1152.827, 2751.552
1153.310, 2733.343
1153.792, 2733.311
1154.274, 2762.922
1154.756, 2784.521
1155.238, 2765.321
1155.720, 2754.317
1156.202, 2782.749
1156.684, 2820.896
1157.167, 2850.146
1157.649, 2870.675
1158.131, 2882.966
1158.613, 2888.576
1159.095, 2898.418
1159.577, 2913.997
1160.059, 2935.043
1160.541, 2968.999
1161.023, 2998.934
1161.505, 3015.599
1161.988, 3027.906
1162.470, 3043.264
1162.952, 3060.638
1163.434, 3076.888
1163.916, 3091.526
1164.398, 3107.397
1164.880, 3121.125
1165.362, 3143.816
1165.844, 3183.678
1166.327, 3220.293
1166.809, 3243.330
1167.291, 3256.951
1167.773, 3264.283
1168.255, 3267.574
1168.737, 3281.346
1169.219, 3307.297
1169.701, 3332.312
1170.184, 3355.283
1170.666, 3381.677
1171.148, 3413.868
1171.630, 3443.921
1172.112, 3465.624
1172.594, 3482.428
1173.076, 3498.170
1173.558, 3514.655
1174.041, 3545.823
1174.523, 3588.653
1175.005, 3621.753
1175.487, 3642.669
1175.969, 3654.220
1176.451, 3658.555
1176.933, 3676.119
1177.415, 3730.382
1177.897, 3795.352
1178.380, 3828.202
1178.862, 3843.547
1179.344, 3868.532
1179.826, 3901.364
1180.308, 3936.082
1180.790, 3969.264
1181.272, 3991.991
1181.754, 3999.151
1182.236, 4011.046
1182.719, 4052.726
1183.201, 4095.346
1183.683, 4106.810
1184.165, 4112.369
1184.647, 4137.902
1185.129, 4180.654
1185.611, 4237.855
1186.093, 4304.218
1186.576, 4347.938
1187.058, 4343.354
1187.540, 4346.833
1188.022, 4384.545
1188.504, 4424.713
1188.986, 4454.779
1189.468, 4477.728
1189.950, 4486.173
1190.432, 4492.471
1190.915, 4531.885
1191.397, 4614.478
1191.879, 4678.229
1192.361, 4717.617
1192.843, 4748.946
1193.325, 4768.186
1193.807, 4790.055
1194.289, 4820.184
1194.771, 4857.318
1195.254, 4901.797
1195.736, 4950.494
1196.218, 4989.141
1196.700, 5014.736
1197.182, 5065.651
1197.664, 5146.205
1198.146, 5197.805
1198.628, 5206.987
1199.111, 5213.475
1199.593, 5239.054
1200.075, 5276.126
1200.557, 5316.834
1201.039, 5359.055
1201.521, 5392.520
1202.003, 5423.610
1202.485, 5477.662
1202.968, 5549.224
1203.450, 5613.882
1203.932, 5665.170
1204.414, 5709.361
1204.896, 5749.682
1205.378, 5786.990
1205.860, 5815.686
1206.342, 5848.464
1206.824, 5903.953
1207.307, 5968.071
1207.789, 6025.072
1208.271, 6073.788
1208.753, 6110.601
1209.235, 6137.771
1209.717, 6180.797
1210.199, 6260.244
1210.681, 6333.600
1211.163, 6380.816
1211.646, 6424.690
1212.128, 6475.229
1212.610, 6528.312
1213.092, 6578.465
1213.574, 6628.652
1214.056, 6688.945
1214.538, 6761.101
1215.020, 6824.102
1215.503, 6868.749
1215.985, 6927.615
1216.467, 7013.491
1216.949, 7086.974
1217.431, 7125.567
1217.913, 7167.339
1218.395, 7253.074
##END=



