##NAMES=Fluor-buergerite
##RRUFFID=R060132
##IDEAL CHEMISTRY=NaFe^3+^_3_Al_6_(Si_6_O_18_)(BO_3_)_3_O_3_F
##LOCALITY=20 km. south of San Luis Potasi, Mexico
##OWNER=RRUFF
##SOURCE=University of Arizona Mineral Museum
##DESCRIPTION=Brown short prismatic
##STATUS=The identification of this mineral has been confirmed by X-ray diffraction and chemical analysis
##URL=rruff.info/R060132
##MEASURED CHEMISTRY=(Na_0.87_Ca_0.03_[box]_0.10_)(Fe^3+^_0.82_Al_0.12_Mg_0.04_Ti_0.02_)_3_Al_6_(BO_3_)_3_(Si_0.98_Al_0.02_)_6_O_18_(O_0.66_F_0.19_(OH)_0.15_)_4_
90.26367, 11.65083
90.74579, 11.58992
91.22791, 11.57080
91.71002, 11.59763
92.19214, 11.71298
92.67426, 12.17528
93.15637, 12.78378
93.63850, 12.97753
94.12061, 12.29990
94.60273, 11.15712
95.08485, 10.50273
95.56696, 10.37581
96.04908, 10.51281
96.53120, 10.65284
97.01331, 10.79459
97.49543, 10.96201
97.97755, 11.21832
98.45966, 11.54923
98.94178, 11.70525
99.42390, 11.64288
99.90602, 11.46594
100.3881, 11.39093
100.8703, 11.45913
101.3524, 11.47965
101.8345, 11.26045
102.3166, 10.65501
102.7987, 10.51507
103.2808, 11.18027
103.7630, 12.34656
104.2451, 12.54758
104.7272, 11.16064
105.2093, 9.633665
105.6914, 8.950388
106.1735, 9.741336
106.6557, 10.30663
107.1378, 10.40089
107.6199, 10.01097
108.1020, 9.594204
108.5841, 8.908884
109.0662, 8.321790
109.5484, 8.152746
110.0305, 8.754780
110.5126, 9.421542
110.9947, 10.10376
111.4768, 10.86930
111.9590, 11.35399
112.4411, 11.27980
112.9232, 10.96804
113.4053, 10.83418
113.8874, 11.08458
114.3695, 11.41559
114.8517, 11.72508
115.3338, 12.01122
115.8159, 12.24659
116.2980, 12.30362
116.7801, 12.30084
117.2622, 12.49301
117.7444, 13.25262
118.2265, 14.07581
118.7086, 14.60812
119.1907, 14.62736
119.6728, 14.57724
120.1549, 14.62494
120.6371, 14.78348
121.1192, 15.10717
121.6013, 15.68490
122.0834, 16.42241
122.5655, 17.21836
123.0477, 18.09409
123.5298, 18.97066
124.0119, 19.68689
124.4940, 20.26412
124.9761, 21.00687
125.4582, 22.21789
125.9404, 23.76096
126.4225, 25.36115
126.9046, 26.93498
127.3867, 28.49355
127.8688, 30.13983
128.3509, 31.90173
128.8331, 33.47900
129.3152, 34.33654
129.7973, 34.62846
130.2794, 35.10436
130.7615, 36.04418
131.2436, 37.43074
131.7258, 39.26364
132.2079, 41.60257
132.6900, 44.21284
133.1721, 46.83617
133.6542, 49.46243
134.1364, 51.93156
134.6185, 54.04369
135.1006, 55.83147
135.5827, 57.87938
136.0648, 60.22523
136.5469, 62.87595
137.0291, 66.01450
137.5112, 69.77364
137.9933, 73.38468
138.4754, 76.41296
138.9575, 78.79610
139.4396, 80.80399
139.9218, 82.38480
140.4039, 83.60485
140.8860, 84.59546
141.3681, 84.97591
141.8502, 85.79991
142.3323, 88.13257
142.8145, 92.95164
143.2966, 96.80612
143.7787, 98.84333
144.2608, 99.11777
144.7429, 99.94836
145.2251, 101.4373
145.7072, 103.4040
146.1893, 105.7270
146.6714, 108.7212
147.1535, 111.5868
147.6356, 114.0032
148.1178, 115.7994
148.5999, 118.2586
149.0820, 121.9832
149.5641, 126.1099
150.0462, 129.5922
150.5283, 132.2355
151.0105, 134.3855
151.4926, 134.8043
151.9747, 134.3690
152.4568, 134.0109
152.9389, 134.2320
153.4210, 134.4430
153.9032, 133.8058
154.3853, 131.8586
154.8674, 129.4383
155.3495, 126.7824
155.8316, 123.8045
156.3138, 120.7819
156.7959, 117.5975
157.2780, 114.3980
157.7601, 111.4778
158.2422, 108.9419
158.7243, 106.6230
159.2065, 104.4047
159.6886, 102.2217
160.1707, 100.2086
160.6528, 98.44215
161.1349, 96.87298
161.6170, 95.37739
162.0992, 93.79419
162.5813, 92.33401
163.0634, 91.15303
163.5455, 90.47073
164.0276, 89.81348
164.5097, 88.93774
164.9919, 87.89843
165.4740, 86.90910
165.9561, 85.89732
166.4382, 85.06200
166.9203, 84.57561
167.4025, 84.61790
167.8846, 84.88412
168.3667, 85.30082
168.8488, 85.83329
169.3309, 86.25223
169.8130, 86.50840
170.2952, 86.54820
170.7773, 86.29562
171.2594, 85.39610
171.7415, 84.44434
172.2236, 83.91550
172.7057, 83.79471
173.1879, 83.90298
173.6700, 84.17081
174.1521, 84.56980
174.6342, 85.05161
175.1163, 85.72855
175.5984, 86.41883
176.0806, 86.89555
176.5627, 87.16111
177.0448, 87.31609
177.5269, 87.41882
178.0090, 87.47649
178.4911, 87.50881
178.9733, 87.42482
179.4554, 87.35039
179.9375, 87.52982
180.4196, 87.98310
180.9017, 88.49988
181.3839, 88.88977
181.8660, 89.16553
182.3481, 89.38329
182.8302, 89.49664
183.3123, 89.57671
183.7944, 89.80920
184.2766, 90.22143
184.7587, 90.68224
185.2408, 90.99306
185.7229, 91.18660
186.2050, 91.48019
186.6871, 91.92735
187.1693, 92.55340
187.6514, 93.51184
188.1335, 94.91021
188.6156, 96.34170
189.0977, 97.14488
189.5798, 97.34722
190.0620, 97.56778
190.5441, 98.15333
191.0262, 99.05492
191.5083, 99.94078
191.9904, 100.8026
192.4725, 101.6522
192.9547, 102.5587
193.4368, 103.5360
193.9189, 104.3944
194.4010, 104.9084
194.8831, 105.1161
195.3652, 105.6040
195.8474, 106.4068
196.3295, 107.5109
196.8116, 109.0265
197.2937, 111.0022
197.7758, 112.8821
198.2579, 114.2658
198.7401, 115.1415
199.2222, 116.0498
199.7043, 116.9699
200.1864, 117.9864
200.6685, 119.3723
201.1507, 121.1878
201.6328, 123.0509
202.1149, 124.7109
202.5970, 126.1401
203.0791, 127.5982
203.5612, 128.9669
204.0434, 130.4620
204.5255, 132.8661
205.0076, 136.4804
205.4897, 139.9699
205.9718, 142.2915
206.4539, 143.1392
206.9361, 144.6956
207.4182, 147.3102
207.9003, 150.6801
208.3824, 153.8882
208.8645, 156.8257
209.3466, 159.9117
209.8288, 163.4743
210.3109, 167.6140
210.7930, 171.8034
211.2751, 176.0498
211.7572, 180.2876
212.2393, 184.4144
212.7215, 188.3230
213.2036, 192.2598
213.6857, 196.3073
214.1678, 200.3837
214.6499, 204.9183
215.1321, 210.0971
215.6142, 215.7928
216.0963, 221.3227
216.5784, 226.5673
217.0605, 231.8243
217.5426, 237.3847
218.0248, 243.4663
218.5069, 248.9881
218.9890, 253.5757
219.4711, 257.5153
219.9532, 262.2943
220.4353, 268.3015
220.9175, 274.5773
221.3996, 280.6464
221.8817, 286.4672
222.3638, 292.0323
222.8459, 297.1342
223.3280, 301.9809
223.8102, 307.2054
224.2923, 312.9632
224.7744, 318.9883
225.2565, 325.1476
225.7386, 331.6423
226.2208, 337.7342
226.7029, 343.2440
227.1850, 348.2820
227.6671, 353.2067
228.1492, 358.2545
228.6313, 362.8535
229.1135, 366.6337
229.5956, 369.4893
230.0777, 371.8817
230.5598, 374.1175
231.0419, 375.9691
231.5240, 376.3279
232.0062, 374.8940
232.4883, 372.3942
232.9704, 369.1998
233.4525, 365.1642
233.9346, 360.7965
234.4167, 356.1949
234.8989, 351.3149
235.3810, 345.9225
235.8631, 339.6636
236.3452, 333.2573
236.8273, 327.0579
237.3095, 321.2387
237.7916, 315.2467
238.2737, 308.8675
238.7558, 302.2530
239.2379, 295.9275
239.7200, 289.8859
240.2022, 284.1271
240.6843, 278.6408
241.1664, 273.6223
241.6485, 268.4218
242.1306, 262.8173
242.6127, 256.9927
243.0949, 251.8502
243.5770, 247.5470
244.0591, 243.6991
244.5412, 240.2425
245.0233, 237.5304
245.5054, 234.3610
245.9876, 230.4756
246.4697, 226.1542
246.9518, 222.1098
247.4339, 218.2056
247.9160, 214.7649
248.3981, 212.0571
248.8803, 210.4591
249.3624, 208.6269
249.8445, 206.3979
250.3266, 203.9504
250.8087, 201.7834
251.2909, 200.0480
251.7730, 198.3704
252.2551, 196.5874
252.7372, 194.5823
253.2193, 192.7382
253.7014, 191.1264
254.1836, 189.6572
254.6657, 188.1485
255.1478, 186.5891
255.6299, 185.0073
256.1120, 183.4216
256.5941, 181.9073
257.0763, 180.1523
257.5584, 177.9797
258.0405, 175.6608
258.5226, 173.8228
259.0047, 172.7120
259.4868, 171.5461
259.9690, 170.0386
260.4511, 168.1409
260.9332, 166.1209
261.4153, 163.9216
261.8974, 161.6245
262.3795, 159.3662
262.8617, 157.0554
263.3438, 154.9615
263.8259, 153.2505
264.3080, 152.0342
264.7901, 150.3992
265.2722, 148.1635
265.7544, 145.7253
266.2365, 143.6868
266.7186, 142.1175
267.2007, 140.7553
267.6829, 139.6150
268.1650, 138.7070
268.6471, 137.5471
269.1292, 136.0248
269.6113, 134.3930
270.0934, 132.9361
270.5756, 131.6381
271.0577, 130.5399
271.5398, 129.7484
272.0219, 129.2407
272.5040, 128.3464
272.9861, 126.9060
273.4683, 125.4477
273.9504, 124.5472
274.4325, 124.2869
274.9146, 124.1720
275.3967, 124.1695
275.8788, 124.2355
276.3610, 123.9278
276.8431, 123.1163
277.3252, 122.3356
277.8073, 122.1559
278.2894, 122.6347
278.7715, 123.0563
279.2537, 123.2625
279.7358, 123.3109
280.2179, 123.4511
280.7000, 123.7016
281.1821, 123.9698
281.6642, 124.1647
282.1464, 124.2860
282.6285, 124.4504
283.1106, 124.6293
283.5927, 124.9018
284.0748, 125.5705
284.5569, 126.6808
285.0391, 127.7906
285.5212, 128.5614
286.0033, 129.0215
286.4854, 129.5311
286.9675, 130.1501
287.4496, 130.8117
287.9318, 131.2930
288.4139, 131.5934
288.8960, 132.0958
289.3781, 133.1389
289.8602, 134.6240
290.3424, 136.0792
290.8245, 137.4903
291.3066, 138.8042
291.7887, 139.9610
292.2708, 140.9589
292.7530, 141.7135
293.2351, 141.9868
293.7172, 141.9663
294.1993, 142.2148
294.6814, 142.7731
295.1635, 143.5417
295.6457, 144.5609
296.1278, 145.7398
296.6099, 146.6756
297.0920, 147.2726
297.5741, 147.4701
298.0562, 146.9940
298.5384, 145.8078
299.0205, 144.4300
299.5026, 143.4407
299.9847, 142.6819
300.4668, 141.6987
300.9489, 140.3732
301.4311, 138.7117
301.9132, 136.6785
302.3953, 134.2675
302.8774, 131.7428
303.3595, 129.2035
303.8416, 126.6978
304.3238, 124.2374
304.8059, 121.8500
305.2880, 119.5516
305.7701, 117.3838
306.2522, 115.3355
306.7343, 113.4709
307.2165, 111.8122
307.6986, 110.3440
308.1807, 109.0307
308.6628, 107.7962
309.1449, 106.7939
309.6270, 106.1871
310.1092, 105.9051
310.5913, 105.7425
311.0734, 105.5845
311.5555, 105.4937
312.0376, 105.5476
312.5197, 105.8082
313.0019, 106.0808
313.4840, 106.1274
313.9661, 106.1114
314.4482, 106.3655
314.9304, 107.2988
315.4125, 108.3567
315.8946, 109.1697
316.3767, 109.6463
316.8588, 110.1464
317.3409, 110.9773
317.8231, 111.8842
318.3052, 112.5280
318.7873, 112.3034
319.2694, 112.2437
319.7515, 112.8799
320.2336, 114.2897
320.7158, 115.6528
321.1979, 116.7898
321.6800, 117.7435
322.1621, 118.5467
322.6442, 118.9455
323.1263, 119.4611
323.6085, 120.2456
324.0906, 121.2867
324.5727, 122.3638
325.0548, 123.4104
325.5369, 124.4961
326.0190, 125.6609
326.5012, 127.0089
326.9833, 128.3260
327.4654, 129.6835
327.9475, 131.0198
328.4296, 132.0657
328.9117, 132.5975
329.3939, 133.0338
329.8760, 133.5327
330.3581, 134.0421
330.8402, 134.7086
331.3223, 135.5469
331.8044, 136.5374
332.2866, 137.6678
332.7687, 139.0816
333.2508, 140.4003
333.7329, 141.4880
334.2150, 142.2901
334.6971, 143.1202
335.1793, 143.9580
335.6614, 144.8532
336.1435, 145.8792
336.6256, 147.1072
337.1077, 148.2938
337.5899, 149.2627
338.0720, 150.0608
338.5541, 151.4159
339.0362, 153.5232
339.5183, 155.7868
340.0005, 157.5780
340.4826, 158.8227
340.9647, 160.2677
341.4468, 162.0944
341.9289, 164.1735
342.4110, 166.0835
342.8932, 167.7675
343.3753, 169.5419
343.8574, 171.6917
344.3395, 174.1974
344.8216, 176.4584
345.3037, 178.3374
345.7859, 180.0960
346.2680, 182.1817
346.7501, 184.5967
347.2322, 187.1051
347.7143, 189.5706
348.1964, 192.0446
348.6786, 194.8008
349.1607, 197.9375
349.6428, 201.0325
350.1249, 203.3842
350.6070, 205.2816
351.0891, 207.7039
351.5713, 211.5185
352.0534, 215.8269
352.5355, 219.1839
353.0176, 221.5894
353.4997, 224.1226
353.9818, 227.8688
354.4640, 232.2184
354.9461, 236.2726
355.4282, 239.5749
355.9103, 242.6988
356.3924, 246.0430
356.8745, 249.6258
357.3567, 253.4279
357.8388, 257.7766
358.3209, 262.1780
358.8030, 266.2217
359.2851, 269.7052
359.7672, 273.1005
360.2494, 276.4887
360.7315, 279.9938
361.2136, 283.7857
361.6957, 288.5569
362.1779, 293.1583
362.6600, 296.8246
363.1421, 299.3430
363.6242, 302.1594
364.1063, 305.9713
364.5884, 310.1978
365.0706, 314.2123
365.5527, 317.7443
366.0348, 321.1856
366.5169, 324.6670
366.9990, 328.1725
367.4811, 331.4388
367.9633, 334.5648
368.4454, 337.3669
368.9275, 339.7281
369.4096, 341.9189
369.8917, 343.2952
370.3738, 343.6407
370.8560, 343.1701
371.3381, 342.4851
371.8202, 341.6528
372.3023, 340.5166
372.7844, 339.1714
373.2665, 337.9175
373.7487, 335.1889
374.2308, 330.4370
374.7129, 324.7666
375.1950, 319.6473
375.6771, 315.3337
376.1592, 310.7241
376.6414, 305.4798
377.1235, 299.6531
377.6056, 293.4649
378.0877, 286.7325
378.5698, 280.0724
379.0519, 274.0316
379.5341, 268.6661
380.0162, 263.0571
380.4983, 256.9931
380.9804, 250.7163
381.4625, 244.9829
381.9446, 239.7155
382.4268, 234.8908
382.9089, 230.5457
383.3910, 226.6157
383.8731, 222.7312
384.3553, 218.8691
384.8374, 215.1345
385.3195, 211.6168
385.8016, 208.3347
386.2837, 205.2780
386.7658, 202.5752
387.2480, 200.0741
387.7301, 197.5934
388.2122, 195.1389
388.6943, 192.6209
389.1764, 189.6372
389.6585, 186.6761
390.1407, 184.4720
390.6228, 183.6437
391.1049, 183.0206
391.5870, 181.9028
392.0691, 180.3878
392.5512, 178.7686
393.0334, 176.9469
393.5155, 175.2261
393.9976, 173.8747
394.4797, 173.0801
394.9618, 172.1262
395.4439, 170.3713
395.9261, 168.4418
396.4082, 167.1761
396.8903, 167.6313
397.3724, 167.8812
397.8545, 167.3669
398.3366, 166.0517
398.8188, 164.5473
399.3009, 162.6309
399.7830, 160.7117
400.2651, 159.0413
400.7472, 157.5700
401.2293, 156.4396
401.7115, 155.8699
402.1936, 155.6195
402.6757, 154.9307
403.1578, 153.5861
403.6399, 152.1694
404.1220, 150.9397
404.6042, 149.9284
405.0863, 148.9053
405.5684, 147.9408
406.0505, 146.8703
406.5326, 145.4064
407.0147, 143.4783
407.4969, 141.6506
407.9790, 140.0410
408.4611, 138.6433
408.9432, 137.4961
409.4254, 136.6293
409.9075, 135.7693
410.3896, 134.6824
410.8717, 133.4091
411.3538, 132.0945
411.8359, 130.7325
412.3181, 129.4407
412.8002, 128.4775
413.2823, 127.7754
413.7644, 126.9906
414.2465, 125.9007
414.7286, 124.6478
415.2108, 123.3309
415.6929, 121.9601
416.1750, 120.7298
416.6571, 119.9019
417.1392, 119.2817
417.6213, 118.5754
418.1035, 117.6311
418.5856, 116.6441
419.0677, 115.7347
419.5498, 114.8796
420.0319, 114.0272
420.5140, 113.0494
420.9962, 112.1324
421.4783, 111.4068
421.9604, 110.9671
422.4425, 110.5162
422.9246, 109.8507
423.4067, 109.1822
423.8889, 108.7938
424.3710, 109.0837
424.8531, 109.2803
425.3352, 109.1816
425.8173, 108.7875
426.2994, 108.4629
426.7816, 108.3089
427.2637, 108.1245
427.7458, 107.7550
428.2279, 107.0558
428.7100, 106.5310
429.1921, 106.3068
429.6743, 106.2174
430.1564, 105.8370
430.6385, 105.0714
431.1206, 104.3806
431.6028, 104.0046
432.0849, 103.9223
432.5670, 103.6697
433.0491, 103.2025
433.5312, 102.7451
434.0133, 102.5811
434.4955, 102.6652
434.9776, 102.6751
435.4597, 102.4848
435.9418, 102.2402
436.4239, 102.2613
436.9060, 102.5028
437.3882, 102.6727
437.8703, 102.4384
438.3524, 102.0702
438.8345, 101.9951
439.3166, 102.2930
439.7987, 102.6385
440.2809, 102.8490
440.7630, 102.9226
441.2451, 102.8556
441.7272, 102.5418
442.2093, 102.1807
442.6914, 101.7548
443.1736, 101.3154
443.6557, 101.1860
444.1378, 101.8584
444.6199, 102.6267
445.1020, 103.0282
445.5841, 102.7951
446.0663, 102.5919
446.5484, 102.4745
447.0305, 102.4472
447.5126, 102.5205
447.9947, 102.7848
448.4768, 103.0361
448.9590, 103.2194
449.4411, 103.3312
449.9232, 103.5078
450.4053, 103.8659
450.8874, 104.1202
451.3695, 103.9540
451.8517, 103.1729
452.3338, 102.8655
452.8159, 103.2682
453.2980, 104.0306
453.7801, 104.4708
454.2622, 104.5733
454.7444, 104.5207
455.2265, 104.2660
455.7086, 103.9069
456.1907, 104.0172
456.6729, 104.6465
457.1550, 105.1212
457.6371, 104.5207
458.1192, 103.2980
458.6013, 102.5973
459.0834, 102.9084
459.5656, 103.4569
460.0477, 103.3365
460.5298, 102.7509
461.0119, 102.3099
461.4940, 102.5359
461.9761, 102.8843
462.4583, 102.8942
462.9404, 102.5054
463.4225, 102.1201
463.9046, 101.8020
464.3867, 101.6297
464.8688, 101.6842
465.3510, 102.4588
465.8331, 102.9277
466.3152, 102.6900
466.7973, 101.9438
467.2794, 101.4060
467.7615, 101.2483
468.2437, 101.1756
468.7258, 101.1216
469.2079, 101.1231
469.6900, 100.9683
470.1721, 100.5821
470.6542, 100.1214
471.1364, 99.68204
471.6185, 99.16903
472.1006, 99.11410
472.5827, 99.81820
473.0648, 100.9124
473.5469, 101.1707
474.0291, 100.5293
474.5112, 99.81048
474.9933, 99.58472
475.4754, 99.69920
475.9575, 99.39735
476.4396, 98.59789
476.9218, 97.80799
477.4039, 97.67394
477.8860, 97.96629
478.3681, 98.16279
478.8503, 98.11863
479.3324, 97.88356
479.8145, 97.32069
480.2966, 96.55222
480.7787, 96.05013
481.2608, 96.26319
481.7430, 96.67030
482.2251, 96.95121
482.7072, 97.07788
483.1893, 97.01965
483.6714, 96.55943
484.1535, 95.99987
484.6357, 95.64619
485.1178, 95.65892
485.5999, 95.75002
486.0820, 95.90410
486.5641, 96.11008
487.0462, 96.34941
487.5284, 96.77348
488.0105, 97.02544
488.4926, 96.86767
488.9747, 96.16652
489.4568, 95.97669
489.9389, 96.46004
490.4211, 97.16684
490.9032, 97.65191
491.3853, 97.91955
491.8674, 97.89320
492.3495, 97.42480
492.8316, 96.80861
493.3138, 96.68846
493.7959, 97.03809
494.2780, 97.59373
494.7601, 98.38432
495.2422, 99.22704
495.7243, 99.70463
496.2065, 99.79234
496.6886, 99.81420
497.1707, 99.99228
497.6528, 100.2824
498.1349, 100.6242
498.6170, 101.0078
499.0992, 101.4326
499.5813, 102.0556
500.0634, 102.7287
500.5455, 103.0971
501.0276, 102.5151
501.5097, 102.0794
501.9919, 102.3293
502.4740, 103.4177
502.9561, 104.3454
503.4382, 104.9849
503.9203, 105.4870
504.4025, 105.9357
504.8846, 106.2141
505.3667, 106.6950
505.8488, 107.5433
506.3309, 108.5138
506.8130, 108.9585
507.2952, 108.6946
507.7773, 108.7343
508.2594, 109.6338
508.7415, 111.1755
509.2236, 112.0583
509.7057, 112.2338
510.1879, 112.3679
510.6700, 113.0546
511.1521, 114.1450
511.6342, 115.2422
512.1163, 116.3070
512.5984, 117.2490
513.0806, 117.7991
513.5627, 118.1574
514.0448, 118.7425
514.5269, 120.1836
515.0090, 121.5456
515.4911, 122.0573
515.9733, 121.8391
516.4554, 121.7301
516.9375, 122.0883
517.4196, 122.6293
517.9017, 123.2194
518.3839, 123.9293
518.8660, 124.4709
519.3481, 124.7407
519.8302, 124.8560
520.3123, 124.9435
520.7944, 125.1063
521.2766, 125.0476
521.7587, 124.6497
522.2408, 124.0108
522.7229, 123.4914
523.2050, 123.1092
523.6871, 122.7902
524.1693, 122.4886
524.6514, 122.2150
525.1335, 122.0740
525.6156, 122.0934
526.0977, 122.0644
526.5798, 121.7698
527.0620, 121.2520
527.5441, 120.6150
528.0262, 119.8157
528.5083, 119.0444
528.9904, 118.4777
529.4725, 118.1021
529.9547, 117.8939
530.4368, 118.1760
530.9189, 118.3559
531.4010, 117.8953
531.8831, 116.7909
532.3652, 115.9384
532.8474, 115.7304
533.3295, 115.7837
533.8116, 115.8657
534.2937, 116.0292
534.7758, 116.0932
535.2579, 116.1291
535.7401, 116.0286
536.2222, 115.5971
536.7043, 114.6232
537.1865, 113.8014
537.6686, 113.2872
538.1507, 113.0373
538.6328, 112.9563
539.1149, 113.1007
539.5970, 113.0635
540.0792, 112.3469
540.5613, 111.1753
541.0434, 110.8087
541.5255, 111.3696
542.0076, 111.9611
542.4897, 111.4121
542.9719, 110.2826
543.4540, 109.7521
543.9361, 110.4594
544.4182, 111.3041
544.9003, 111.3585
545.3824, 110.8947
545.8646, 110.5190
546.3467, 110.5891
546.8288, 110.6991
547.3109, 110.6245
547.7930, 110.3518
548.2751, 110.2049
548.7573, 110.4680
549.2394, 110.6856
549.7215, 110.6036
550.2036, 110.0742
550.6857, 109.5649
551.1678, 109.0170
551.6500, 108.5503
552.1321, 108.3872
552.6142, 108.5844
553.0963, 108.7143
553.5784, 108.6752
554.0605, 108.5100
554.5427, 108.2773
555.0248, 107.9855
555.5069, 107.7781
555.9890, 107.8630
556.4711, 108.0514
556.9532, 107.9540
557.4354, 107.5571
557.9175, 107.1799
558.3996, 106.9970
558.8817, 106.9930
559.3638, 107.1843
559.8459, 107.6965
560.3281, 108.1487
560.8102, 108.3656
561.2923, 108.4279
561.7744, 108.4595
562.2565, 108.4386
562.7386, 108.4386
563.2208, 108.4702
563.7029, 108.5341
564.1850, 108.6213
564.6671, 108.6720
565.1492, 108.8516
565.6313, 109.2664
566.1135, 109.9292
566.5956, 110.6868
567.0777, 111.6191
567.5598, 112.3451
568.0419, 112.1810
568.5240, 111.3615
569.0062, 111.1841
569.4883, 112.0953
569.9704, 113.2737
570.4525, 113.5619
570.9346, 113.2729
571.4167, 113.2007
571.8989, 113.9350
572.3810, 114.8272
572.8631, 115.3941
573.3452, 115.6851
573.8273, 116.1112
574.3094, 117.0904
574.7916, 118.0346
575.2737, 118.5550
575.7558, 118.3695
576.2379, 118.5659
576.7200, 119.4589
577.2021, 120.4954
577.6843, 121.1753
578.1664, 121.3500
578.6485, 121.5993
579.1306, 122.0121
579.6127, 122.4981
580.0948, 122.8211
580.5770, 122.9780
581.0591, 123.3418
581.5412, 124.1179
582.0233, 125.1618
582.5054, 126.3227
582.9875, 127.5365
583.4697, 128.4252
583.9518, 128.2837
584.4340, 127.9060
584.9161, 128.2728
585.3982, 129.5776
585.8803, 130.7727
586.3624, 131.3216
586.8445, 131.5187
587.3267, 131.6307
587.8088, 131.3975
588.2909, 131.4855
588.7730, 132.1988
589.2551, 133.2187
589.7372, 134.0058
590.2194, 134.4218
590.7015, 134.8839
591.1836, 135.5225
591.6657, 136.2840
592.1478, 136.7880
592.6299, 136.9650
593.1121, 137.3577
593.5942, 138.5225
594.0763, 140.1880
594.5584, 141.3114
595.0405, 141.8368
595.5226, 142.2045
596.0048, 142.7744
596.4869, 143.4368
596.9690, 144.0066
597.4511, 144.3469
597.9332, 144.8437
598.4153, 145.8291
598.8975, 147.0819
599.3796, 148.2996
599.8617, 149.8357
600.3438, 150.8634
600.8259, 150.7797
601.3080, 149.9411
601.7902, 149.7556
602.2723, 150.5159
602.7544, 151.4512
603.2365, 152.3768
603.7186, 153.2780
604.2007, 153.7148
604.6829, 153.5602
605.1650, 153.5119
605.6471, 154.3394
606.1292, 155.7971
606.6113, 156.8315
607.0934, 157.2535
607.5756, 157.5815
608.0577, 158.4276
608.5398, 159.5206
609.0219, 160.3766
609.5040, 160.7401
609.9861, 160.9923
610.4683, 161.2283
610.9504, 161.5165
611.4325, 162.0091
611.9146, 163.0203
612.3967, 163.9576
612.8788, 164.4590
613.3610, 164.6015
613.8431, 165.4576
614.3252, 167.4041
614.8073, 169.4221
615.2894, 170.9217
615.7715, 171.8378
616.2537, 173.4064
616.7358, 175.7038
617.2179, 178.2492
617.7000, 180.4967
618.1821, 182.5681
618.6642, 184.7939
619.1464, 187.2169
619.6285, 189.9766
620.1106, 193.4333
620.5927, 197.2923
621.0748, 201.0337
621.5569, 204.1870
622.0391, 207.5057
622.5212, 211.6054
623.0033, 216.1935
623.4854, 220.3714
623.9675, 223.2250
624.4496, 226.4522
624.9318, 230.6833
625.4139, 235.8960
625.8960, 240.7046
626.3781, 244.8535
626.8602, 249.0909
627.3423, 254.0384
627.8245, 259.6625
628.3066, 264.6037
628.7887, 268.7276
629.2708, 272.8141
629.7529, 278.0490
630.2350, 283.8081
630.7172, 288.7017
631.1993, 292.2033
631.6815, 295.3805
632.1636, 299.2792
632.6457, 303.3761
633.1278, 306.9062
633.6099, 309.7606
634.0920, 311.8380
634.5742, 313.0198
635.0563, 313.3804
635.5384, 313.3158
636.0205, 313.1339
636.5026, 312.1199
636.9847, 309.8589
637.4669, 306.4471
637.9490, 303.3572
638.4311, 300.7149
638.9132, 297.7335
639.3953, 293.6626
639.8774, 288.7191
640.3596, 283.9604
640.8417, 279.4116
641.3238, 274.9963
641.8059, 270.7462
642.2880, 266.6223
642.7701, 262.7008
643.2523, 259.0110
643.7344, 255.3713
644.2165, 251.7616
644.6986, 248.0716
645.1807, 244.1894
645.6628, 239.8291
646.1450, 235.5883
646.6271, 231.5342
647.1092, 227.6406
647.5913, 223.9923
648.0734, 220.6595
648.5555, 217.2764
649.0377, 213.5925
649.5198, 209.7476
650.0019, 206.4457
650.4840, 203.6421
650.9661, 201.0057
651.4482, 198.3132
651.9304, 195.6168
652.4125, 193.0214
652.8946, 190.5279
653.3767, 187.9806
653.8588, 185.0381
654.3409, 182.1541
654.8231, 179.7715
655.3052, 178.2672
655.7873, 176.4319
656.2694, 173.6800
656.7515, 170.6532
657.2336, 167.9666
657.7158, 165.7304
658.1979, 163.6171
658.6800, 161.6885
659.1621, 159.7707
659.6442, 157.5018
660.1263, 154.8851
660.6085, 152.3072
661.0906, 149.8715
661.5727, 147.5869
662.0548, 145.4539
662.5369, 143.4538
663.0190, 141.5150
663.5012, 139.7245
663.9833, 137.8861
664.4654, 135.7007
664.9475, 133.2588
665.4296, 131.1264
665.9117, 129.8506
666.3939, 128.6274
666.8760, 127.0009
667.3581, 124.8631
667.8402, 122.9983
668.3223, 121.4720
668.8044, 120.0895
669.2866, 118.7471
669.7687, 117.4405
670.2508, 116.1333
670.7329, 114.8280
671.2150, 113.4747
671.6971, 111.8559
672.1793, 110.1246
672.6614, 108.7276
673.1435, 107.8149
673.6256, 107.0915
674.1077, 106.4158
674.5898, 105.7367
675.0720, 104.9863
675.5541, 104.1135
676.0362, 103.1898
676.5183, 102.1618
677.0004, 101.1075
677.4825, 100.2402
677.9647, 99.72875
678.4468, 99.08649
678.9290, 98.09615
679.4111, 96.88347
679.8932, 95.96348
680.3753, 95.33987
680.8574, 95.04997
681.3395, 95.33793
681.8217, 95.91283
682.3038, 96.14795
682.7859, 96.05539
683.2680, 95.87139
683.7501, 95.61501
684.2322, 95.42644
684.7144, 95.44336
685.1965, 95.71226
685.6786, 95.99113
686.1607, 96.03255
686.6428, 96.19294
687.1249, 96.74688
687.6071, 97.93922
688.0892, 98.95310
688.5713, 99.73792
689.0534, 100.4273
689.5355, 101.1534
690.0176, 101.9245
690.4998, 102.7721
690.9819, 103.7013
691.4640, 104.7126
691.9461, 105.8466
692.4282, 107.0401
692.9103, 108.1327
693.3925, 108.8488
693.8746, 109.6991
694.3567, 111.1012
694.8388, 112.8484
695.3209, 114.4565
695.8030, 115.6898
696.2852, 116.9087
696.7673, 118.2002
697.2494, 119.5558
697.7315, 120.8991
698.2136, 122.2671
698.6957, 123.5002
699.1779, 124.5444
699.6600, 125.3999
700.1421, 125.8898
700.6242, 126.0462
701.1063, 126.4503
701.5884, 127.9105
702.0706, 129.6382
702.5527, 130.6075
703.0348, 130.7473
703.5169, 130.7562
703.9990, 130.8768
704.4811, 131.0617
704.9633, 131.3603
705.4454, 132.0441
705.9275, 132.0222
706.4096, 131.0106
706.8917, 129.6097
707.3738, 128.2381
707.8560, 126.8951
708.3381, 125.8933
708.8202, 125.3663
709.3023, 124.8022
709.7844, 123.4033
710.2665, 121.4458
710.7487, 119.6881
711.2308, 118.4141
711.7129, 117.1821
712.1950, 115.5248
712.6771, 113.7024
713.1592, 112.1017
713.6414, 111.2057
714.1235, 110.1372
714.6056, 108.6470
715.0877, 106.8664
715.5698, 105.0253
716.0519, 102.9916
716.5341, 101.2681
717.0162, 100.0614
717.4983, 99.19742
717.9804, 98.12929
718.4625, 96.88428
718.9446, 95.98101
719.4268, 96.10053
719.9089, 96.41429
720.3910, 95.81245
720.8731, 94.43028
721.3552, 92.81605
721.8373, 90.42660
722.3195, 88.61369
722.8016, 88.61279
723.2837, 90.48192
723.7658, 91.09997
724.2479, 89.54367
724.7300, 87.82615
725.2122, 86.88682
725.6943, 86.73797
726.1765, 86.44978
726.6586, 86.00448
727.1407, 85.50652
727.6228, 85.04294
728.1049, 84.58041
728.5870, 83.98351
729.0692, 83.23381
729.5513, 82.64962
730.0334, 82.50845
730.5155, 82.60997
730.9976, 82.85648
731.4797, 83.42365
731.9619, 83.53458
732.4440, 82.58835
732.9261, 81.46708
733.4082, 80.84782
733.8903, 80.91057
734.3724, 80.86993
734.8546, 80.64418
735.3367, 80.41923
735.8188, 80.55984
736.3009, 80.94418
736.7830, 80.95705
737.2651, 80.37900
737.7473, 79.70545
738.2294, 79.44095
738.7115, 79.40224
739.1936, 79.32036
739.6757, 79.09583
740.1578, 78.83413
740.6400, 78.58627
741.1221, 78.30972
741.6042, 77.90606
742.0863, 77.21123
742.5684, 76.77090
743.0505, 76.74807
743.5327, 76.94414
744.0148, 76.87001
744.4969, 76.55422
744.9790, 76.37684
745.4611, 76.57348
745.9432, 76.86044
746.4254, 76.84541
746.9075, 76.62106
747.3896, 76.42561
747.8717, 76.40080
748.3538, 76.39317
748.8359, 76.34747
749.3181, 76.26506
749.8002, 76.16703
750.2823, 76.09771
750.7644, 75.92915
751.2465, 75.54238
751.7286, 75.03431
752.2108, 74.96077
752.6929, 75.32968
753.1750, 75.67246
753.6571, 75.76572
754.1392, 75.64510
754.6213, 75.25647
755.1035, 74.65612
755.5856, 74.18621
756.0677, 74.17587
756.5498, 74.22057
757.0319, 74.05896
757.5140, 73.66928
757.9962, 73.37241
758.4783, 73.31158
758.9604, 73.16268
759.4425, 72.69660
759.9246, 71.93240
760.4067, 71.57934
760.8889, 71.67738
761.3710, 71.83933
761.8531, 71.86887
762.3352, 71.73476
762.8173, 71.28555
763.2994, 70.53100
763.7816, 69.85497
764.2637, 69.48922
764.7458, 69.30477
765.2279, 69.24894
765.7100, 69.35426
766.1921, 69.38264
766.6743, 69.31200
767.1564, 69.17715
767.6385, 69.00723
768.1206, 68.80712
768.6027, 68.44555
769.0848, 67.87277
769.5670, 67.42120
770.0491, 67.53699
770.5312, 67.95346
771.0133, 68.11570
771.4954, 67.93781
771.9775, 67.73574
772.4597, 67.75621
772.9418, 67.80994
773.4240, 67.71817
773.9061, 67.34653
774.3882, 67.10754
774.8703, 67.02454
775.3524, 67.06583
775.8345, 67.28221
776.3167, 67.71248
776.7988, 67.81849
777.2809, 67.53567
777.7630, 67.09336
778.2451, 66.58989
778.7272, 66.13869
779.2094, 66.02269
779.6915, 66.37572
780.1736, 66.70467
780.6557, 66.66550
781.1378, 66.48197
781.6199, 66.36967
782.1021, 66.41692
782.5842, 66.45495
783.0663, 66.53255
783.5484, 66.54417
784.0305, 66.26488
784.5126, 65.67010
784.9948, 65.59425
785.4769, 66.24735
785.9590, 66.91071
786.4411, 66.55585
786.9232, 65.66115
787.4053, 65.10852
787.8875, 65.21456
788.3696, 65.39943
788.8517, 65.46843
789.3338, 65.42092
789.8159, 65.24596
790.2980, 64.83251
790.7802, 64.49185
791.2623, 64.22253
791.7444, 64.04355
792.2265, 64.03879
792.7086, 64.19279
793.1907, 64.19715
793.6729, 63.95054
794.1550, 63.74943
794.6371, 64.04654
795.1192, 64.58107
795.6013, 64.93705
796.0834, 64.99256
796.5656, 64.87386
797.0477, 64.50845
797.5298, 64.04552
798.0119, 63.66111
798.4940, 63.34021
798.9761, 63.12761
799.4583, 63.02041
799.9404, 63.03240
800.4225, 63.12437
800.9046, 63.33083
801.3867, 63.19042
801.8688, 64.06000
802.3510, 64.53233
802.8331, 64.62878
803.3152, 63.22352
803.7973, 63.75741
804.2794, 63.51417
804.7615, 63.23907
805.2437, 64.04588
805.7258, 62.85904
806.2079, 63.64870
806.6900, 63.64938
807.1721, 64.01115
807.6542, 63.59100
808.1364, 63.41236
808.6185, 64.01589
809.1006, 64.18634
809.5827, 63.67618
810.0648, 64.06091
810.5469, 62.84675
811.0291, 63.03563
811.5112, 63.42627
811.9933, 63.55260
812.4754, 63.54005
812.9575, 63.47351
813.4396, 63.33869
813.9218, 63.17250
814.4039, 62.99268
814.8860, 62.79010
815.3681, 62.72118
815.8502, 62.82012
816.3323, 62.97795
816.8145, 63.12596
817.2966, 63.22706
817.7787, 63.19035
818.2608, 62.93905
818.7429, 62.74204
819.2251, 62.82549
819.7072, 62.97122
820.1893, 62.94682
820.6714, 62.58047
821.1536, 62.42414
821.6357, 62.57214
822.1178, 62.76005
822.5999, 62.69244
823.0820, 62.39974
823.5641, 62.05299
824.0463, 61.65427
824.5284, 61.33604
825.0105, 61.21419
825.4926, 61.24693
825.9747, 61.43423
826.4568, 61.86964
826.9390, 62.13214
827.4211, 61.98358
827.9032, 61.73990
828.3853, 61.59678
828.8674, 61.56612
829.3495, 61.59359
829.8317, 61.68751
830.3138, 61.80145
830.7959, 61.95254
831.2780, 62.07540
831.7601, 61.95945
832.2422, 61.57082
832.7244, 61.28200
833.2065, 61.47651
833.6886, 61.76130
834.1707, 61.81971
834.6528, 61.54028
835.1349, 61.35944
835.6171, 61.31518
836.0992, 61.30623
836.5813, 61.26922
837.0634, 61.20654
837.5455, 61.16094
838.0276, 61.13203
838.5098, 61.09308
838.9919, 60.90191
839.4740, 60.76363
839.9561, 60.99591
840.4382, 61.60841
840.9203, 62.05058
841.4025, 62.07553
841.8846, 61.93967
842.3667, 61.70438
842.8488, 61.37527
843.3309, 61.28443
843.8130, 61.47560
844.2952, 61.66326
844.7773, 61.70758
845.2594, 61.62136
845.7415, 61.34571
846.2236, 60.93077
846.7057, 60.65174
847.1879, 60.64898
847.6700, 60.83789
848.1521, 61.38234
848.6342, 62.17500
849.1163, 62.33865
849.5984, 61.35212
850.0806, 60.78924
850.5627, 61.40245
851.0448, 62.67783
851.5269, 62.75266
852.0090, 61.77361
852.4911, 60.95262
852.9733, 61.05857
853.4554, 61.41980
853.9375, 61.45782
854.4196, 61.26775
854.9017, 61.08434
855.3839, 60.93820
855.8660, 60.85738
856.3481, 60.86707
856.8302, 60.93232
857.3123, 61.01180
857.7944, 61.11920
858.2766, 61.03043
858.7587, 60.59775
859.2408, 60.14385
859.7229, 60.15227
860.2050, 60.49205
860.6871, 60.91887
861.1693, 61.54564
861.6514, 61.93549
862.1335, 61.77165
862.6156, 61.33767
863.0977, 61.01714
863.5798, 60.81825
864.0620, 60.70469
864.5441, 60.67627
865.0262, 60.72206
865.5083, 60.94939
865.9904, 61.23994
866.4726, 61.15785
866.9547, 60.55030
867.4368, 60.00499
867.9189, 59.96129
868.4011, 60.15763
868.8832, 60.37665
869.3653, 60.68522
869.8474, 60.72144
870.3295, 60.31275
870.8116, 59.91040
871.2938, 59.93084
871.7759, 60.32637
872.2580, 60.49795
872.7401, 60.42804
873.2222, 60.40491
873.7043, 60.82528
874.1865, 61.29450
874.6686, 61.41853
875.1507, 61.16374
875.6328, 60.79302
876.1149, 59.98880
876.5970, 59.51696
877.0792, 59.82190
877.5613, 60.78773
878.0434, 61.18715
878.5255, 61.00292
879.0076, 60.69861
879.4897, 60.46997
879.9719, 60.32331
880.4540, 60.26246
880.9361, 60.29189
881.4182, 60.42646
881.9003, 60.92698
882.3824, 61.25074
882.8646, 61.03051
883.3467, 60.52692
883.8288, 60.43923
884.3109, 60.85510
884.7930, 61.17829
885.2751, 61.21260
885.7573, 61.15002
886.2394, 61.34279
886.7215, 61.69348
887.2036, 61.96405
887.6857, 62.07571
888.1678, 62.08623
888.6500, 61.92976
889.1321, 61.72637
889.6142, 61.63673
890.0963, 61.70499
890.5784, 61.79564
891.0605, 61.93621
891.5427, 62.01236
892.0248, 61.78970
892.5069, 61.39978
892.9890, 61.23151
893.4711, 61.34764
893.9532, 61.62467
894.4354, 62.28628
894.9175, 62.85875
895.3996, 62.87642
895.8817, 62.10624
896.3638, 61.64551
896.8459, 61.53471
897.3281, 61.65767
897.8102, 62.10312
898.2923, 62.75427
898.7744, 62.86199
899.2565, 62.47119
899.7386, 62.07506
900.2208, 61.89074
900.7029, 61.90141
901.1850, 62.26725
901.6671, 62.89189
902.1492, 63.10840
902.6313, 62.63357
903.1135, 62.11909
903.5956, 61.65877
904.0777, 61.32377
904.5598, 61.40324
905.0419, 61.84085
905.5240, 62.17237
906.0062, 62.14097
906.4883, 62.07746
906.9704, 62.36429
907.4525, 62.79669
907.9346, 63.04676
908.4167, 62.84811
908.8989, 62.71340
909.3810, 62.68256
909.8631, 62.71946
910.3452, 62.83781
910.8273, 63.02008
911.3094, 62.92846
911.7916, 62.47754
912.2737, 62.12317
912.7558, 62.50673
913.2380, 63.08838
913.7201, 63.19706
914.2022, 62.58873
914.6843, 62.35194
915.1664, 62.98754
915.6486, 63.60187
916.1307, 63.68377
916.6128, 63.27151
917.0949, 62.95854
917.5770, 62.74553
918.0591, 62.76398
918.5413, 63.30553
919.0234, 63.96655
919.5055, 64.37739
919.9876, 64.53834
920.4697, 64.51695
920.9518, 64.15219
921.4340, 63.81701
921.9161, 63.57188
922.3982, 63.41750
922.8803, 63.35722
923.3624, 63.39085
923.8445, 63.51427
924.3267, 63.73298
924.8088, 64.02634
925.2909, 64.50191
925.7730, 64.99434
926.2551, 65.25294
926.7372, 65.00586
927.2194, 64.90018
927.7015, 65.08845
928.1836, 65.35282
928.6657, 65.49290
929.1478, 65.50930
929.6299, 65.56472
930.1121, 65.67201
930.5942, 65.73404
931.0763, 65.48122
931.5584, 65.25742
932.0405, 65.56451
932.5226, 66.43022
933.0048, 67.00559
933.4869, 66.91785
933.9690, 66.71142
934.4511, 66.52272
934.9332, 66.36583
935.4153, 66.32549
935.8975, 66.39898
936.3796, 66.55425
936.8617, 66.83695
937.3438, 67.12236
937.8259, 67.24583
938.3080, 67.28374
938.7902, 67.38616
939.2723, 67.64043
939.7544, 67.89468
940.2365, 68.08400
940.7186, 68.31730
941.2007, 68.84012
941.6829, 69.60699
942.1650, 70.05318
942.6471, 70.08879
943.1292, 69.94740
943.6113, 69.63163
944.0934, 69.37955
944.5756, 69.50245
945.0577, 70.14944
945.5398, 70.49317
946.0219, 70.25253
946.5040, 70.07643
946.9861, 70.37533
947.4683, 71.03484
947.9504, 71.32303
948.4325, 71.27562
948.9146, 71.18136
949.3967, 71.15641
949.8788, 71.19514
950.3610, 71.34192
950.8431, 71.55089
951.3252, 71.67537
951.8073, 71.59717
952.2894, 71.66080
952.7715, 71.98911
953.2537, 72.36687
953.7358, 72.30994
954.2179, 71.97215
954.7000, 72.05949
955.1821, 72.82850
955.6642, 73.47855
956.1464, 73.26192
956.6285, 72.78972
957.1106, 72.62184
957.5927, 72.87019
958.0748, 73.10482
958.5569, 73.32472
959.0391, 73.53350
959.5212, 73.68311
960.0033, 73.83083
960.4855, 74.27219
960.9676, 74.92406
961.4497, 75.31107
961.9318, 74.83357
962.4139, 74.38809
962.8961, 74.51374
963.3782, 75.00964
963.8603, 75.31857
964.3424, 75.41242
964.8245, 75.40561
965.3066, 75.27365
965.7888, 75.17522
966.2709, 75.39477
966.7530, 75.80131
967.2351, 76.14433
967.7172, 76.36699
968.1993, 76.53745
968.6815, 76.71856
969.1636, 76.82206
969.6457, 76.75512
970.1278, 76.49210
970.6099, 76.40252
971.0920, 76.49461
971.5742, 76.63455
972.0563, 76.72881
972.5384, 76.81613
973.0205, 76.91981
973.5026, 77.05539
973.9847, 77.28188
974.4669, 77.75504
974.9490, 78.14779
975.4311, 78.40146
975.9132, 78.53458
976.3953, 78.57285
976.8774, 78.52035
977.3596, 78.41013
977.8417, 78.23271
978.3238, 78.08044
978.8059, 77.96562
979.2880, 77.96223
979.7701, 78.20911
980.2523, 78.90024
980.7344, 79.19040
981.2165, 78.80527
981.6986, 78.49496
982.1807, 78.82583
982.6628, 79.61456
983.1450, 80.03974
983.6271, 80.14266
984.1092, 80.18482
984.5913, 80.16273
985.0734, 80.27599
985.5555, 80.80863
986.0377, 81.54045
986.5198, 81.84010
987.0019, 81.45826
987.4840, 81.52305
987.9661, 82.30904
988.4482, 83.30378
988.9304, 83.86073
989.4125, 84.10146
989.8946, 84.21072
990.3767, 84.19789
990.8588, 84.22708
991.3409, 84.33292
991.8231, 84.53877
992.3052, 84.86083
992.7873, 85.29208
993.2694, 85.79867
993.7515, 86.38294
994.2336, 86.96867
994.7158, 87.51212
995.1979, 88.03474
995.6800, 88.57121
996.1621, 89.11277
996.6442, 89.63351
997.1263, 90.05498
997.6085, 90.56786
998.0906, 91.27718
998.5727, 91.96659
999.0548, 92.30080
999.5369, 92.34882
1000.019, 92.57938
1000.501, 93.06027
1000.983, 93.46948
1001.465, 93.53646
1001.948, 93.47306
1002.430, 93.41684
1002.912, 93.37991
1003.394, 93.37024
1003.876, 93.38187
1004.358, 93.44521
1004.840, 93.58171
1005.322, 93.76675
1005.804, 94.12961
1006.287, 94.49319
1006.769, 94.40955
1007.251, 93.35315
1007.733, 92.38261
1008.215, 91.75308
1008.697, 91.40069
1009.179, 91.37230
1009.661, 91.72478
1010.144, 91.72489
1010.626, 91.33736
1011.108, 90.73244
1011.590, 89.77164
1012.072, 88.86295
1012.554, 88.51595
1013.036, 88.67032
1013.518, 88.66689
1014.000, 88.38331
1014.483, 87.95427
1014.965, 87.33728
1015.447, 86.68386
1015.929, 86.34953
1016.411, 86.24452
1016.893, 86.03948
1017.375, 85.63758
1017.857, 85.16302
1018.340, 84.60910
1018.822, 84.07505
1019.304, 83.65137
1019.786, 83.35390
1020.268, 83.02507
1020.750, 82.65830
1021.232, 82.29656
1021.714, 82.05737
1022.196, 81.78299
1022.679, 81.05728
1023.161, 80.08529
1023.643, 79.46593
1024.125, 79.84927
1024.607, 80.00254
1025.089, 79.64500
1025.571, 79.07057
1026.053, 78.71336
1026.536, 78.53842
1027.018, 78.14933
1027.500, 77.48158
1027.982, 76.94435
1028.464, 77.01946
1028.946, 77.21877
1029.428, 77.12714
1029.910, 76.72546
1030.392, 76.52938
1030.875, 76.64746
1031.357, 76.52227
1031.839, 75.77335
1032.321, 74.94430
1032.803, 75.20597
1033.285, 76.10257
1033.767, 76.66627
1034.249, 76.47482
1034.732, 76.16850
1035.214, 75.71388
1035.696, 75.38237
1036.178, 75.42032
1036.660, 75.82346
1037.142, 76.21913
1037.624, 76.59444
1038.106, 76.81658
1038.589, 76.74340
1039.071, 76.52850
1039.553, 76.15124
1040.035, 75.72598
1040.517, 75.61952
1040.999, 75.96258
1041.481, 76.26949
1041.963, 76.43566
1042.445, 76.64581
1042.927, 77.36180
1043.410, 78.23778
1043.892, 78.47148
1044.374, 77.87283
1044.856, 77.56037
1045.338, 78.21626
1045.820, 78.99018
1046.302, 79.58345
1046.784, 79.97862
1047.267, 79.95256
1047.749, 79.55570
1048.231, 79.39162
1048.713, 79.75550
1049.195, 80.33857
1049.677, 81.03376
1050.159, 81.74612
1050.641, 82.35017
1051.124, 82.85410
1051.606, 83.20144
1052.088, 83.35872
1052.570, 83.48809
1053.052, 83.72665
1053.534, 84.02506
1054.016, 84.33556
1054.498, 84.63348
1054.980, 84.81680
1055.463, 84.61782
1055.945, 84.61278
1056.427, 85.06587
1056.909, 85.63931
1057.391, 85.75185
1057.873, 85.45028
1058.355, 85.05386
1058.837, 84.58601
1059.319, 84.30309
1059.802, 84.69677
1060.284, 85.12105
1060.766, 85.07730
1061.248, 84.56631
1061.730, 83.88789
1062.212, 82.99488
1062.694, 82.18589
1063.176, 81.60557
1063.659, 81.11667
1064.141, 80.49867
1064.623, 79.83074
1065.105, 79.22563
1065.587, 78.60593
1066.069, 78.36504
1066.551, 78.87679
1067.033, 79.21415
1067.516, 78.48689
1067.998, 76.98082
1068.480, 76.36055
1068.962, 76.47299
1069.444, 76.48158
1069.926, 75.69519
1070.408, 74.95559
1070.890, 74.79773
1071.372, 74.88008
1071.854, 74.67858
1072.337, 74.16100
1072.819, 73.72059
1073.301, 73.41062
1073.783, 73.08552
1074.265, 72.62463
1074.747, 72.07688
1075.229, 71.29211
1075.711, 70.34136
1076.194, 70.21340
1076.676, 71.43990
1077.158, 72.23965
1077.640, 72.03287
1078.122, 71.36132
1078.604, 71.08374
1079.086, 71.07687
1079.568, 71.14304
1080.051, 71.32381
1080.533, 71.20522
1081.015, 70.19207
1081.497, 69.31210
1081.979, 69.13297
1082.461, 69.54140
1082.943, 69.90656
1083.425, 70.20368
1083.907, 70.20966
1084.390, 69.63171
1084.872, 68.99764
1085.354, 68.57995
1085.836, 68.33849
1086.318, 68.20322
1086.800, 68.18569
1087.282, 68.22562
1087.764, 68.32859
1088.247, 68.43135
1088.729, 68.45773
1089.211, 68.47446
1089.693, 68.63937
1090.175, 68.87611
1090.657, 68.86902
1091.139, 68.33523
1091.621, 67.96366
1092.104, 67.80054
1092.586, 67.92211
1093.068, 68.73373
1093.550, 69.83694
1094.032, 70.27124
1094.514, 69.92239
1094.996, 69.42398
1095.478, 68.89554
1095.960, 68.44572
1096.443, 68.04533
1096.925, 67.78597
1097.407, 68.08609
1097.889, 68.84464
1098.371, 69.28451
1098.853, 69.12842
1099.335, 68.87791
1099.817, 68.71165
1100.299, 67.70720
1100.782, 68.58035
1101.264, 69.05634
1101.746, 69.15646
1102.228, 67.75484
1102.710, 68.29239
1103.192, 68.05280
1103.674, 67.78136
1104.156, 68.59182
1104.639, 67.40855
1105.121, 68.20187
1105.603, 68.20619
1106.085, 68.57162
1106.567, 68.15512
1107.049, 68.23032
1107.531, 68.09633
1108.013, 67.97353
1108.495, 68.05454
1108.978, 68.27864
1109.460, 68.39820
1109.942, 68.17850
1110.424, 68.05271
1110.906, 68.16484
1111.388, 68.30431
1111.870, 68.13866
1112.352, 67.75265
1112.834, 67.50479
1113.317, 67.42341
1113.799, 67.42829
1114.281, 67.51978
1114.763, 67.63946
1115.245, 67.82157
1115.727, 67.98633
1116.209, 67.87874
1116.691, 67.50874
1117.174, 67.22749
1117.656, 67.12798
1118.138, 67.03094
1118.620, 66.72977
1119.102, 66.40488
1119.584, 66.19347
1120.066, 66.10317
1120.548, 66.22979
1121.031, 66.63930
1121.513, 66.78946
1121.995, 66.41598
1122.477, 65.82327
1122.959, 65.13259
1123.441, 64.56521
1123.923, 64.50388
1124.405, 65.35533
1124.887, 65.64589
1125.370, 65.18424
1125.852, 64.64259
1126.334, 64.40804
1126.816, 64.36279
1127.298, 64.26612
1127.780, 64.15369
1128.262, 64.11146
1128.744, 64.19234
1129.227, 64.33306
1129.709, 64.62580
1130.191, 64.81660
1130.673, 64.54008
1131.155, 63.98183
1131.637, 63.94175
1132.119, 64.34767
1132.601, 64.68954
1133.083, 64.79888
1133.566, 64.67355
1134.048, 64.15332
1134.530, 63.55003
1135.012, 63.32050
1135.494, 63.42649
1135.976, 63.42622
1136.458, 63.28288
1136.940, 63.12346
1137.422, 62.95808
1137.905, 62.88085
1138.387, 63.00045
1138.869, 63.24279
1139.351, 63.46969
1139.833, 63.69006
1140.315, 63.69196
1140.797, 63.41301
1141.279, 63.08975
1141.762, 62.82636
1142.244, 62.69332
1142.726, 62.84440
1143.208, 63.24558
1143.690, 63.38281
1144.172, 63.22352
1144.654, 62.95752
1145.136, 62.59717
1145.619, 62.28755
1146.101, 62.25739
1146.583, 62.36097
1147.065, 62.38872
1147.547, 62.25648
1148.029, 62.45754
1148.511, 63.18863
1148.993, 63.59107
1149.475, 63.12068
1149.958, 62.35472
1150.440, 62.24202
1150.922, 62.53121
1151.404, 62.77552
1151.886, 62.88625
1152.368, 62.86739
1152.850, 62.64891
1153.332, 62.47795
1153.814, 62.60552
1154.297, 62.83962
1154.779, 61.73111
1155.261, 62.63140
1155.743, 63.13446
1156.225, 63.26163
1156.707, 61.88708
1157.189, 62.45170
1157.671, 62.23918
1158.154, 61.99479
1158.636, 62.83232
1159.118, 61.67620
1159.600, 62.49659
1160.082, 62.52798
1160.564, 62.92048
1161.046, 62.11158
1161.528, 62.10199
1162.010, 62.29424
1162.493, 62.48156
1162.975, 62.65658
1163.457, 62.76356
1163.939, 62.80477
1164.421, 62.83571
1164.903, 62.99824
1165.385, 63.02281
1165.867, 62.58607
1166.349, 62.07156
1166.832, 62.23265
1167.314, 62.99896
1167.796, 63.45383
1168.278, 63.49859
1168.760, 63.23993
1169.242, 62.24465
1169.724, 61.46974
1170.206, 61.70702
1170.689, 62.55542
1171.171, 63.11473
1171.653, 63.38926
1172.135, 63.38296
1172.617, 63.06878
1173.099, 62.70534
1173.581, 62.31759
1174.063, 62.12830
1174.546, 62.54259
1175.028, 63.34584
1175.510, 63.46417
1175.992, 62.86731
1176.474, 62.31149
1176.956, 61.98411
1177.438, 61.75877
1177.920, 61.36401
1178.402, 61.12549
1178.885, 61.51620
1179.367, 62.49859
1179.849, 62.95240
1180.331, 62.83436
1180.813, 62.69835
1181.295, 62.75634
1181.777, 62.81666
1182.259, 62.61135
1182.742, 62.34056
1183.224, 62.24286
1183.706, 62.35468
1184.188, 62.40745
1184.670, 62.37648
1185.152, 62.48793
1185.634, 62.93722
1186.116, 63.40448
1186.599, 63.50823
1187.081, 63.40742
1187.563, 63.30846
1188.045, 63.24792
1188.527, 63.12791
1189.009, 62.93567
1189.491, 62.76057
1189.973, 62.64597
1190.455, 62.58081
1190.938, 62.64010
1191.420, 62.70830
1191.902, 62.57360
1192.384, 62.08886
1192.866, 61.71914
1193.348, 61.43830
1193.830, 61.40387
1194.312, 61.86497
1194.794, 62.50752
1195.277, 63.06196
1195.759, 63.46016
1196.241, 63.52029
1196.723, 62.92895
1197.205, 62.69921
1197.687, 62.87870
1198.169, 63.25777
1198.651, 63.87791
1199.134, 64.45119
1199.616, 64.46323
1200.098, 64.12393
1200.580, 63.98167
1201.062, 64.33171
1201.544, 64.33832
1202.026, 63.89094
1202.508, 63.40591
1202.990, 63.19042
1203.473, 63.19271
1203.955, 63.43554
1204.437, 63.83883
1204.919, 64.16262
1205.401, 64.40417
1205.883, 64.47291
1206.365, 64.32334
1206.847, 64.16138
1207.329, 64.21159
1207.812, 64.34702
1208.294, 64.41788
1208.776, 64.42848
1209.258, 64.42703
1209.740, 64.44082
1210.222, 64.35147
1210.704, 64.08463
1211.186, 63.96315
1211.669, 64.55588
1212.151, 65.31922
1212.633, 65.52843
1213.115, 65.24165
1213.597, 64.97539
1214.079, 64.73918
1214.561, 64.66292
1215.043, 64.78196
1215.526, 64.98624
1216.008, 65.28416
1216.490, 65.51523
1216.972, 65.32088
1217.454, 64.80497
1217.936, 64.82899
1218.418, 65.61525
1218.900, 66.30118
1219.382, 66.75588
1219.865, 67.04903
1220.347, 67.26698
1220.829, 67.36362
1221.311, 67.20760
1221.793, 66.83968
1222.275, 66.65849
1222.757, 66.72913
1223.239, 66.75713
1223.722, 66.66151
1224.204, 66.62856
1224.686, 67.01253
1225.168, 67.45551
1225.650, 67.53703
1226.132, 67.26515
1226.614, 67.14732
1227.096, 67.20104
1227.578, 67.35595
1228.061, 67.62286
1228.543, 67.85947
1229.025, 67.79678
1229.507, 67.71734
1229.989, 67.90152
1230.471, 68.35432
1230.953, 68.89910
1231.435, 69.56921
1231.917, 70.05606
1232.400, 70.28561
1232.882, 70.33343
1233.364, 70.11369
1233.846, 69.87569
1234.328, 69.88394
1234.810, 70.09624
1235.292, 70.17837
1235.774, 70.12009
1236.257, 70.17366
1236.739, 70.41362
1237.221, 70.70535
1237.703, 71.00240
1238.185, 71.24941
1238.667, 71.30534
1239.149, 71.26458
1239.631, 71.68656
1240.114, 72.53434
1240.596, 72.89025
1241.078, 72.44714
1241.560, 71.94431
1242.042, 71.82319
1242.524, 71.95297
1243.006, 72.30996
1243.488, 72.81382
1243.970, 73.24390
1244.453, 73.58389
1244.935, 73.62391
1245.417, 73.25546
1245.899, 72.94132
1246.381, 72.94339
1246.863, 73.12100
1247.345, 73.43086
1247.827, 73.80917
1248.309, 74.03850
1248.792, 74.13722
1249.274, 74.15854
1249.756, 74.09052
1250.238, 74.10679
1250.720, 74.34266
1251.202, 74.63921
1251.684, 74.99342
1252.166, 75.30235
1252.649, 75.16177
1253.131, 74.76293
1253.613, 74.72287
1254.095, 75.23804
1254.577, 75.64359
1255.059, 75.55930
1255.541, 75.60147
1256.023, 76.05833
1256.505, 76.66720
1256.988, 76.86182
1257.470, 76.79729
1257.952, 76.80949
1258.434, 76.98222
1258.916, 77.03895
1259.398, 76.85066
1259.880, 76.73973
1260.362, 76.77941
1260.844, 77.02074
1261.327, 77.87171
1261.809, 78.82609
1262.291, 79.03529
1262.773, 78.28970
1263.255, 77.68033
1263.737, 77.23879
1264.219, 77.05892
1264.701, 77.23447
1265.184, 77.50756
1265.666, 77.47021
1266.148, 77.39470
1266.630, 77.65085
1267.112, 78.28440
1267.594, 78.76896
1268.076, 79.10085
1268.558, 79.31467
1269.041, 79.39879
1269.523, 79.44432
1270.005, 79.35804
1270.487, 79.41761
1270.969, 80.13284
1271.451, 81.29359
1271.933, 81.58194
1272.415, 81.01080
1272.897, 80.52469
1273.380, 80.35256
1273.862, 80.31774
1274.344, 80.07079
1274.826, 80.17846
1275.308, 81.25339
1275.790, 82.83194
1276.272, 83.31540
1276.754, 82.89217
1277.237, 82.55782
1277.719, 82.52088
1278.201, 82.56788
1278.683, 82.37838
1279.165, 82.55999
1279.647, 83.53658
1280.129, 84.80276
1280.611, 85.23314
1281.094, 85.10079
1281.576, 85.13466
1282.058, 85.45745
1282.540, 85.84566
1283.022, 86.30383
1283.504, 86.70508
1283.986, 87.02637
1284.468, 87.25425
1284.950, 87.17787
1285.432, 87.08648
1285.915, 87.57287
1286.397, 88.67552
1286.879, 89.44743
1287.361, 89.77711
1287.843, 89.88513
1288.325, 89.80259
1288.807, 89.56931
1289.289, 89.04634
1289.772, 88.53444
1290.254, 88.40093
1290.736, 88.61803
1291.218, 88.80803
1291.700, 88.99948
1292.182, 88.82735
1292.664, 88.20108
1293.146, 87.51123
1293.629, 86.92237
1294.111, 86.54835
1294.593, 86.74472
1295.075, 87.10252
1295.557, 86.65768
1296.039, 85.50350
1296.521, 84.64296
1297.003, 84.20165
1297.485, 83.96815
1297.968, 83.80917
1298.450, 83.87127
1298.932, 84.41054
1299.414, 84.90794
1299.896, 84.26550
1300.378, 82.97316
1300.860, 82.62712
1301.342, 83.24439
1301.824, 83.76128
1302.307, 83.83321
##END=



