##NAMES=Fluorophlogopite
##RRUFFID=R040039
##IDEAL CHEMISTRY=KMg_3_(Si_3_Al)O_10_F_2_
##LOCALITY=Franklin, Sussex County, New Jersey, USA
##OWNER=RRUFF
##SOURCE=University of Arizona Mineral Museum
##DESCRIPTION=Brown hexagonal sheets
##STATUS=The identification of this mineral has been confirmed by X-ray diffraction and chemical analysis
##URL=rruff.info/R040039
##MEASURED CHEMISTRY=(K_0.92_Na_0.06_[box]_0.02_)_Σ=1_(Mg_2.94_Fe_0.04_Ti_0.02_)_Σ=3_(Si_2.98_Al_1.02_)O_10_(F_1.24_(OH)_0.76_)_Σ=2_; OH estimated by charge balance
164.9127, 10459.96
165.3948, 10505.43
165.8769, 10556.46
166.3591, 10625.79
166.8412, 10693.17
167.3233, 10740.33
167.8054, 10767.42
168.2875, 10803.64
168.7696, 10873.59
169.2518, 10963.25
169.7339, 11051.71
170.2160, 11123.81
170.6981, 11194.48
171.1802, 11280.53
171.6623, 11384.47
172.1445, 11488.97
172.6266, 11564.54
173.1087, 11628.47
173.5908, 11720.93
174.0729, 11887.30
174.5550, 12084.96
175.0372, 12251.27
175.5193, 12367.86
176.0014, 12487.22
176.4835, 12666.86
176.9656, 12897.95
177.4477, 13146.97
177.9299, 13385.11
178.4120, 13626.93
178.8941, 13890.67
179.3762, 14171.25
179.8583, 14487.99
180.3405, 14866.01
180.8226, 15303.73
181.3047, 15778.15
181.7868, 16255.45
182.2689, 16753.27
182.7510, 17307.51
183.2332, 17929.61
183.7153, 18608.19
184.1974, 19328.26
184.6795, 20083.18
185.1616, 20902.57
185.6437, 21801.94
186.1259, 22785.03
186.6080, 23826.91
187.0901, 24947.49
187.5722, 26115.13
188.0543, 27307.74
188.5364, 28518.26
189.0186, 29756.26
189.5007, 31061.31
189.9828, 32417.74
190.4649, 33787.84
190.9470, 35179.02
191.4291, 36558.48
191.9113, 37882.17
192.3934, 39158.48
192.8755, 40323.28
193.3576, 41349.88
193.8397, 42236.01
194.3218, 42851.32
194.8040, 43162.61
195.2861, 43169.11
195.7682, 42800.92
196.2503, 42038.93
196.7324, 40940.88
197.2145, 39562.88
197.6967, 37874.86
198.1788, 36053.80
198.6609, 34136.55
199.1430, 32108.72
199.6251, 30162.38
200.1072, 28273.86
200.5894, 26494.62
201.0715, 24923.47
201.5536, 23584.20
202.0357, 22387.42
202.5178, 21278.25
202.9999, 20247.75
203.4821, 19353.40
203.9642, 18609.42
204.4463, 17993.28
204.9284, 17437.07
205.4105, 16945.03
205.8926, 16500.45
206.3748, 16092.46
206.8569, 15720.78
207.3390, 15388.65
207.8211, 15104.04
208.3032, 14860.58
208.7854, 14639.91
209.2675, 14443.94
209.7496, 14264.96
210.2317, 14095.47
210.7138, 13932.82
211.1959, 13791.50
211.6781, 13678.04
212.1602, 13591.01
212.6423, 13511.33
213.1244, 13440.69
213.6065, 13374.36
214.0886, 13305.22
214.5708, 13227.97
215.0529, 13164.71
215.5350, 13125.01
216.0171, 13108.83
216.4992, 13075.43
216.9813, 13016.27
217.4635, 12949.05
217.9456, 12897.19
218.4277, 12871.07
218.9098, 12833.33
219.3919, 12771.50
219.8740, 12683.25
220.3562, 12601.94
220.8383, 12526.09
221.3204, 12458.32
221.8025, 12404.05
222.2846, 12368.11
222.7667, 12335.67
223.2489, 12300.54
223.7310, 12260.97
224.2131, 12235.84
224.6952, 12231.17
225.1773, 12236.55
225.6594, 12235.61
226.1416, 12223.46
226.6237, 12213.53
227.1058, 12210.92
227.5879, 12218.57
228.0700, 12220.63
228.5521, 12214.81
229.0343, 12204.38
229.5164, 12193.65
229.9985, 12177.14
230.4806, 12169.65
230.9627, 12180.58
231.4448, 12222.78
231.9270, 12243.63
232.4091, 12236.01
232.8912, 12210.40
233.3733, 12186.86
233.8554, 12161.48
234.3376, 12144.23
234.8197, 12139.94
235.3018, 12153.22
235.7839, 12169.72
236.2660, 12197.31
236.7481, 12225.70
237.2303, 12226.28
237.7124, 12178.25
238.1945, 12133.90
238.6766, 12118.02
239.1587, 12148.12
239.6408, 12168.21
240.1230, 12172.45
240.6051, 12167.77
241.0872, 12174.25
241.5693, 12200.38
242.0514, 12225.08
242.5335, 12237.09
243.0157, 12226.40
243.4978, 12223.78
243.9799, 12231.75
244.4620, 12247.39
244.9441, 12262.03
245.4262, 12273.08
245.9084, 12285.76
246.3905, 12304.95
246.8726, 12341.40
247.3547, 12358.25
247.8368, 12344.66
248.3189, 12311.24
248.8011, 12296.02
249.2832, 12311.87
249.7653, 12328.17
250.2474, 12324.97
250.7295, 12283.26
251.2116, 12270.90
251.6938, 12306.93
252.1759, 12374.96
252.6580, 12410.46
253.1401, 12395.91
253.6222, 12376.55
254.1043, 12377.70
254.5865, 12405.17
255.0686, 12440.24
255.5507, 12485.50
256.0328, 12537.38
256.5149, 12577.27
256.9970, 12595.29
257.4792, 12616.42
257.9613, 12656.58
258.4434, 12722.08
258.9255, 12786.68
259.4076, 12846.30
259.8897, 12903.11
260.3719, 12969.49
260.8540, 13050.00
261.3361, 13130.90
261.8182, 13198.50
262.3003, 13241.68
262.7824, 13307.89
263.2646, 13405.60
263.7467, 13528.90
264.2288, 13651.61
264.7109, 13776.44
265.1930, 13894.85
265.6751, 13994.52
266.1573, 14059.23
266.6394, 14166.83
267.1215, 14339.81
267.6036, 14557.18
268.0857, 14742.69
268.5678, 14877.41
269.0500, 15018.44
269.5321, 15207.61
270.0142, 15453.15
270.4963, 15701.99
270.9784, 15949.96
271.4605, 16196.11
271.9427, 16436.63
272.4248, 16671.05
272.9069, 16901.81
273.3890, 17131.70
273.8711, 17364.65
274.3532, 17584.02
274.8354, 17787.65
275.3175, 17976.76
275.7996, 18165.77
276.2817, 18369.59
276.7639, 18524.26
277.2460, 18594.59
277.7281, 18579.54
278.2102, 18485.96
278.6923, 18307.43
279.1744, 18056.42
279.6566, 17755.60
280.1387, 17394.31
280.6208, 17034.68
281.1029, 16718.49
281.5850, 16445.85
282.0671, 16156.32
282.5493, 15832.81
283.0314, 15503.48
283.5135, 15230.40
283.9956, 15015.66
284.4777, 14835.60
284.9598, 14689.97
285.4420, 14574.84
285.9241, 14445.27
286.4062, 14287.12
286.8883, 14129.55
287.3704, 14037.57
287.8525, 14011.84
288.3347, 13994.39
288.8168, 13951.90
289.2989, 13887.87
289.7810, 13818.75
290.2631, 13742.04
290.7452, 13669.25
291.2274, 13620.39
291.7095, 13594.82
292.1916, 13579.18
292.6737, 13576.30
293.1558, 13578.87
293.6379, 13556.25
294.1201, 13499.04
294.6022, 13440.14
295.0843, 13429.33
295.5664, 13460.72
296.0485, 13498.26
296.5306, 13520.39
297.0128, 13535.21
297.4949, 13555.93
297.9770, 13579.96
298.4591, 13626.86
298.9412, 13745.38
299.4233, 13914.88
299.9055, 14056.71
300.3876, 14089.87
300.8697, 14081.36
301.3518, 14151.97
301.8339, 14318.36
302.3160, 14488.75
302.7982, 14558.61
303.2803, 14559.81
303.7624, 14568.74
304.2445, 14620.63
304.7266, 14699.11
305.2087, 14787.46
305.6909, 14883.85
306.1730, 14994.43
306.6551, 15086.21
307.1372, 15197.81
307.6193, 15289.25
308.1014, 15491.64
308.5836, 15658.57
309.0657, 15791.90
309.5478, 15791.07
310.0299, 15963.48
310.5120, 16066.46
310.9941, 16207.04
311.4763, 16294.46
311.9584, 16371.57
312.4405, 16430.20
312.9226, 16452.00
313.4047, 16439.64
313.8868, 16445.15
314.3690, 16519.29
314.8511, 16614.75
315.3332, 16685.73
315.8153, 16705.86
316.2974, 16708.42
316.7795, 16702.10
317.2617, 16688.32
317.7438, 16676.29
318.2259, 16675.09
318.7080, 16674.25
319.1901, 16665.91
319.6722, 16645.39
320.1544, 16619.72
320.6365, 16595.07
321.1186, 16568.29
321.6007, 16525.27
322.0828, 16442.54
322.5649, 16355.21
323.0471, 16284.08
323.5292, 16257.16
324.0113, 16214.32
324.4934, 16147.78
324.9755, 16059.18
325.4576, 15952.59
325.9398, 15801.45
326.4219, 15653.21
326.9040, 15528.29
327.3861, 15448.61
327.8682, 15361.88
328.3503, 15272.38
328.8325, 15175.72
329.3146, 15058.33
329.7967, 14883.09
330.2788, 14726.75
330.7610, 14618.31
331.2431, 14583.10
331.7252, 14529.22
332.2073, 14443.77
332.6894, 14346.29
333.1715, 14265.70
333.6537, 14209.70
334.1358, 14157.94
334.6179, 14103.66
335.1000, 14044.45
335.5821, 13997.09
336.0642, 13966.68
336.5464, 13942.50
337.0285, 13910.91
337.5106, 13869.04
337.9927, 13827.64
338.4748, 13789.59
338.9569, 13754.51
339.4391, 13721.03
339.9212, 13690.32
340.4033, 13659.04
340.8854, 13622.15
341.3675, 13577.84
341.8496, 13542.61
342.3318, 13518.55
342.8139, 13507.06
343.2960, 13520.04
343.7781, 13562.44
344.2602, 13600.17
344.7423, 13597.64
345.2245, 13559.09
345.7066, 13526.74
346.1887, 13507.59
346.6708, 13499.13
347.1529, 13494.01
347.6350, 13492.30
348.1172, 13504.21
348.5993, 13551.63
349.0814, 13618.92
349.5635, 13657.19
350.0456, 13652.89
350.5277, 13633.96
351.0099, 13635.19
351.4920, 13653.17
351.9741, 13673.55
352.4562, 13685.58
352.9383, 13695.92
353.4204, 13715.66
353.9026, 13747.65
354.3847, 13781.25
354.8668, 13811.42
355.3489, 13836.88
355.8310, 13853.86
356.3131, 13843.48
356.7953, 13835.36
357.2774, 13862.92
357.7595, 13929.68
358.2416, 13988.35
358.7237, 13996.07
359.2058, 13983.49
359.6880, 13988.16
360.1701, 14039.48
360.6522, 14097.10
361.1343, 14152.80
361.6164, 14203.84
362.0985, 14224.32
362.5807, 14167.78
363.0628, 14096.09
363.5449, 14056.81
364.0270, 14095.18
364.5091, 14130.40
364.9912, 14144.14
365.4734, 14140.17
365.9555, 14132.83
366.4376, 14114.79
366.9197, 14101.66
367.4018, 14101.88
367.8839, 14132.60
368.3661, 14151.98
368.8482, 14158.20
369.3303, 14152.35
369.8124, 14135.41
370.2945, 14090.92
370.7766, 14053.95
371.2588, 14039.36
371.7409, 14059.05
372.2230, 14055.69
372.7051, 14014.92
373.1872, 13961.67
373.6693, 13931.24
374.1515, 13932.86
374.6336, 13935.68
375.1157, 13933.92
375.5978, 13927.44
376.0799, 13907.00
376.5620, 13864.78
377.0442, 13825.06
377.5263, 13816.46
378.0084, 13843.87
378.4905, 13858.27
378.9726, 13848.86
379.4547, 13821.01
379.9369, 13785.59
380.4190, 13741.35
380.9011, 13706.67
381.3832, 13698.58
381.8653, 13713.61
382.3474, 13731.31
382.8296, 13749.73
383.3117, 13768.21
383.7938, 13784.61
384.2759, 13799.35
384.7580, 13816.53
385.2402, 13845.32
385.7223, 13876.12
386.2044, 13888.58
386.6865, 13878.53
387.1686, 13864.91
387.6508, 13868.53
388.1329, 13881.85
388.6150, 13888.77
389.0971, 13873.62
389.5792, 13855.01
390.0613, 13853.56
390.5435, 13869.11
391.0256, 13878.51
391.5077, 13856.76
391.9898, 13827.10
392.4719, 13814.10
392.9540, 13840.56
393.4362, 13870.19
393.9183, 13892.49
394.4004, 13906.98
394.8825, 13911.10
395.3646, 13888.90
395.8467, 13866.52
396.3289, 13859.51
396.8110, 13879.65
397.2931, 13897.97
397.7752, 13910.47
398.2573, 13917.95
398.7394, 13922.30
399.2216, 13911.42
399.7037, 13908.94
400.1858, 13925.39
400.6679, 13968.50
401.1500, 13996.91
401.6321, 14003.31
402.1143, 14000.69
402.5964, 14004.88
403.0785, 14024.73
403.5606, 14031.89
404.0427, 14012.71
404.5248, 13972.19
405.0070, 13965.80
405.4891, 14004.00
405.9712, 14050.48
406.4533, 14076.62
406.9354, 14080.43
407.4175, 14084.70
407.8997, 14092.38
408.3818, 14101.65
408.8639, 14105.29
409.3460, 14103.09
409.8281, 14108.75
410.3102, 14135.75
410.7924, 14178.20
411.2745, 14212.22
411.7566, 14236.30
412.2387, 14254.60
412.7208, 14268.16
413.2029, 14278.95
413.6851, 14293.30
414.1672, 14322.49
414.6493, 14351.87
415.1314, 14354.48
415.6135, 14332.36
416.0956, 14322.52
416.5778, 14373.14
417.0599, 14442.78
417.5420, 14481.25
418.0241, 14453.83
418.5062, 14420.29
418.9883, 14422.39
419.4705, 14447.56
419.9526, 14457.49
420.4347, 14402.44
420.9168, 14353.87
421.3989, 14360.07
421.8810, 14454.60
422.3632, 14526.06
422.8453, 14526.47
423.3274, 14496.45
423.8095, 14491.88
424.2916, 14557.03
424.7737, 14609.32
425.2559, 14626.87
425.7380, 14607.07
426.2201, 14595.18
426.7022, 14596.53
427.1843, 14600.47
427.6664, 14596.54
428.1486, 14572.46
428.6307, 14569.25
429.1128, 14596.28
429.5949, 14644.58
430.0770, 14689.30
430.5591, 14732.83
431.0413, 14763.63
431.5234, 14769.32
432.0055, 14749.51
432.4876, 14744.17
432.9697, 14757.60
433.4518, 14777.13
433.9340, 14781.77
434.4161, 14773.94
434.8982, 14775.72
435.3803, 14803.76
435.8624, 14843.50
436.3445, 14858.02
436.8267, 14847.89
437.3088, 14843.87
437.7909, 14878.88
438.2730, 14935.12
438.7551, 14982.48
439.2372, 15012.76
439.7194, 15033.28
440.2015, 15047.04
440.6836, 15055.36
441.1657, 15061.81
441.6479, 15052.79
442.1300, 15053.15
442.6121, 15087.00
443.0942, 15165.36
443.5763, 15231.51
444.0584, 15261.56
444.5406, 15269.75
445.0227, 15272.92
445.5048, 15262.63
445.9869, 15260.61
446.4690, 15280.04
446.9511, 15319.12
447.4333, 15338.90
447.9154, 15317.20
448.3975, 15295.17
448.8796, 15294.63
449.3617, 15326.52
449.8438, 15357.56
450.3260, 15388.50
450.8081, 15417.24
451.2902, 15439.92
451.7723, 15457.36
452.2544, 15465.45
452.7365, 15456.17
453.2187, 15431.28
453.7008, 15434.34
454.1829, 15471.85
454.6650, 15510.07
455.1471, 15504.10
455.6292, 15461.13
456.1114, 15441.26
456.5935, 15468.76
457.0756, 15512.53
457.5577, 15516.90
458.0398, 15487.32
458.5219, 15457.15
459.0041, 15446.48
459.4862, 15448.84
459.9683, 15457.16
460.4504, 15471.68
460.9325, 15486.47
461.4146, 15501.79
461.8968, 15513.66
462.3789, 15515.81
462.8610, 15486.81
463.3431, 15464.64
463.8252, 15474.11
464.3073, 15512.11
464.7895, 15544.07
465.2716, 15550.53
465.7537, 15553.86
466.2358, 15568.29
466.7179, 15616.36
467.2000, 15644.21
467.6822, 15630.34
468.1643, 15597.78
468.6464, 15590.05
469.1285, 15621.24
469.6106, 15655.48
470.0927, 15685.76
470.5749, 15712.27
471.0570, 15722.62
471.5391, 15711.91
472.0212, 15694.07
472.5033, 15680.38
472.9854, 15670.70
473.4676, 15667.83
473.9497, 15673.52
474.4318, 15685.48
474.9139, 15703.42
475.3960, 15727.05
475.8781, 15741.41
476.3603, 15728.93
476.8424, 15702.98
477.3245, 15696.29
477.8066, 15712.47
478.2887, 15729.25
478.7708, 15715.61
479.2530, 15689.89
479.7351, 15684.37
480.2172, 15724.84
480.6993, 15773.48
481.1814, 15806.98
481.6635, 15826.94
482.1457, 15841.54
482.6278, 15840.06
483.1099, 15843.17
483.5920, 15866.35
484.0741, 15921.98
484.5562, 15967.07
485.0384, 15986.60
485.5205, 15993.67
486.0026, 16006.03
486.4847, 16036.52
486.9668, 16057.26
487.4489, 16065.14
487.9311, 16060.52
488.4132, 16039.07
488.8953, 15985.85
489.3774, 15944.25
489.8595, 15947.05
490.3416, 16002.90
490.8238, 16045.68
491.3059, 16071.13
491.7880, 16085.62
492.2701, 16103.12
492.7522, 16122.62
493.2343, 16121.92
493.7165, 16073.73
494.1986, 16005.96
494.6807, 15988.31
495.1628, 16018.92
495.6450, 16061.26
496.1271, 16093.28
496.6092, 16117.83
497.0913, 16138.92
497.5734, 16155.64
498.0555, 16173.49
498.5377, 16204.69
499.0198, 16239.43
499.5019, 16259.23
499.9840, 16239.31
500.4661, 16219.19
500.9482, 16216.84
501.4304, 16233.75
501.9125, 16253.04
502.3946, 16274.00
502.8767, 16294.37
503.3588, 16312.17
503.8409, 16319.76
504.3231, 16335.89
504.8052, 16363.47
505.2873, 16398.28
505.7694, 16433.79
506.2515, 16475.78
506.7336, 16501.70
507.2158, 16496.34
507.6979, 16463.38
508.1800, 16456.42
508.6621, 16479.47
509.1442, 16509.65
509.6263, 16526.21
510.1085, 16531.86
510.5906, 16539.72
511.0727, 16552.98
511.5548, 16568.29
512.0369, 16584.50
512.5190, 16599.83
513.0012, 16608.32
513.4833, 16595.14
513.9654, 16580.89
514.4475, 16586.81
514.9296, 16613.38
515.4117, 16641.81
515.8939, 16672.99
516.3760, 16695.80
516.8581, 16699.24
517.3402, 16651.88
517.8223, 16625.66
518.3044, 16661.40
518.7866, 16727.60
519.2687, 16749.25
519.7508, 16668.55
520.2329, 16612.73
520.7150, 16629.44
521.1971, 16724.04
521.6793, 16760.31
522.1614, 16713.74
522.6435, 16653.40
523.1256, 16638.01
523.6077, 16672.43
524.0898, 16697.68
524.5720, 16707.19
525.0541, 16705.72
525.5362, 16696.66
526.0183, 16681.50
526.5004, 16672.69
526.9825, 16681.00
527.4647, 16697.31
527.9468, 16705.55
528.4289, 16706.26
528.9110, 16708.11
529.3931, 16727.89
529.8752, 16747.42
530.3574, 16741.92
530.8395, 16689.84
531.3216, 16650.86
531.8037, 16663.76
532.2858, 16705.15
532.7679, 16736.62
533.2501, 16742.76
533.7322, 16744.31
534.2143, 16748.15
534.6964, 16754.44
535.1785, 16753.03
535.6606, 16739.42
536.1428, 16723.77
536.6249, 16711.91
537.1070, 16705.58
537.5891, 16694.29
538.0712, 16670.19
538.5533, 16652.25
539.0355, 16679.75
539.5176, 16753.14
539.9997, 16808.78
540.4818, 16820.59
540.9639, 16805.56
541.4460, 16797.90
541.9282, 16797.72
542.4103, 16808.11
542.8924, 16847.30
543.3745, 16891.36
543.8566, 16903.95
544.3387, 16876.29
544.8209, 16846.34
545.3030, 16842.20
545.7851, 16849.16
546.2672, 16849.01
546.7493, 16812.97
547.2314, 16794.34
547.7136, 16827.63
548.1957, 16896.96
548.6778, 16931.54
549.1599, 16886.80
549.6420, 16847.71
550.1241, 16847.00
550.6063, 16893.75
551.0884, 16926.21
551.5705, 16945.98
552.0526, 16949.33
552.5347, 16922.97
553.0168, 16863.25
553.4990, 16829.07
553.9811, 16835.38
554.4632, 16862.23
554.9453, 16878.95
555.4274, 16885.01
555.9095, 16875.54
556.3917, 16828.85
556.8738, 16774.26
557.3559, 16754.88
557.8380, 16770.57
558.3201, 16799.88
558.8022, 16847.38
559.2844, 16891.83
559.7665, 16910.36
560.2486, 16883.45
560.7307, 16861.91
561.2128, 16859.21
561.6949, 16872.07
562.1771, 16895.78
562.6592, 16946.61
563.1413, 16988.08
563.6234, 17016.48
564.1055, 17030.89
564.5876, 17022.59
565.0698, 16977.69
565.5519, 16938.09
566.0340, 16928.19
566.5161, 16949.56
566.9982, 16972.41
567.4803, 16995.92
567.9625, 17023.28
568.4446, 17069.41
568.9267, 17125.68
569.4088, 17153.25
569.8909, 17136.27
570.3730, 17095.34
570.8552, 17036.08
571.3373, 16969.99
571.8194, 16929.90
572.3015, 16964.35
572.7836, 17006.91
573.2657, 17006.15
573.7479, 16957.52
574.2300, 16922.12
574.7121, 16933.94
575.1942, 16955.37
575.6763, 16960.26
576.1584, 16934.52
576.6406, 16910.82
577.1227, 16879.83
577.6049, 16856.91
578.0870, 16876.88
578.5691, 16960.08
579.0512, 17011.01
579.5333, 16991.23
580.0154, 16925.63
580.4976, 16914.17
580.9797, 16958.05
581.4618, 17006.37
581.9439, 17023.68
582.4260, 17020.72
582.9081, 17020.26
583.3903, 17023.57
583.8724, 17029.46
584.3545, 17038.44
584.8366, 17048.66
585.3187, 17058.22
585.8008, 17070.86
586.2830, 17076.31
586.7651, 17062.63
587.2472, 17039.36
587.7293, 17026.68
588.2114, 17035.29
588.6935, 17048.45
589.1757, 17064.84
589.6578, 17084.42
590.1399, 17092.10
590.6220, 17079.82
591.1041, 17070.71
591.5862, 17085.12
592.0684, 17125.62
592.5505, 17146.15
593.0326, 17142.14
593.5147, 17127.51
593.9968, 17114.29
594.4789, 17104.46
594.9611, 17107.45
595.4432, 17133.29
595.9253, 17163.03
596.4074, 17169.56
596.8895, 17161.09
597.3716, 17161.19
597.8538, 17192.29
598.3359, 17226.92
598.8180, 17245.47
599.3001, 17246.33
599.7822, 17254.48
600.2643, 17284.69
600.7465, 17316.98
601.2286, 17338.76
601.7107, 17341.71
602.1928, 17350.65
602.6749, 17366.81
603.1570, 17387.77
603.6392, 17408.17
604.1213, 17426.70
604.6034, 17457.20
605.0855, 17509.17
605.5676, 17568.94
606.0497, 17601.16
606.5319, 17609.37
607.0140, 17619.84
607.4961, 17651.71
607.9782, 17692.35
608.4603, 17725.53
608.9424, 17750.60
609.4246, 17776.39
609.9067, 17812.96
610.3888, 17849.65
610.8709, 17876.26
611.3530, 17884.95
611.8351, 17897.47
612.3173, 17918.24
612.7994, 17945.77
613.2815, 17977.53
613.7636, 18016.93
614.2457, 18055.16
614.7278, 18090.79
615.2100, 18124.28
615.6921, 18151.78
616.1742, 18169.67
616.6563, 18208.04
617.1384, 18305.49
617.6205, 18434.95
618.1027, 18492.72
618.5848, 18479.59
619.0669, 18464.57
619.5490, 18507.31
620.0311, 18579.64
620.5132, 18643.83
620.9954, 18688.97
621.4775, 18738.28
621.9596, 18809.63
622.4417, 18890.01
622.9238, 18963.94
623.4059, 19025.26
623.8881, 19082.77
624.3702, 19135.79
624.8523, 19186.04
625.3344, 19236.17
625.8165, 19274.67
626.2986, 19341.01
626.7808, 19465.36
627.2629, 19635.24
627.7450, 19738.87
628.2271, 19771.57
628.7092, 19786.72
629.1913, 19824.69
629.6735, 19875.99
630.1556, 19915.88
630.6377, 19941.18
631.1198, 19962.58
631.6019, 19995.73
632.0840, 20028.66
632.5662, 20043.41
633.0483, 20017.00
633.5304, 19998.11
634.0125, 20021.40
634.4946, 20062.15
634.9767, 20067.13
635.4589, 20006.18
635.9410, 19940.62
636.4231, 19880.46
636.9052, 19825.81
637.3873, 19772.82
637.8694, 19722.92
638.3516, 19668.69
638.8337, 19603.60
639.3158, 19529.63
639.7979, 19463.74
640.2800, 19407.36
640.7621, 19350.63
641.2443, 19286.17
641.7264, 19215.48
642.2085, 19136.55
642.6906, 19041.86
643.1727, 18964.37
643.6548, 18937.78
644.1370, 18938.47
644.6191, 18933.38
645.1012, 18918.74
645.5833, 18891.86
646.0654, 18835.13
646.5475, 18764.59
647.0297, 18729.15
647.5118, 18745.57
647.9939, 18761.15
648.4760, 18752.20
648.9581, 18723.22
649.4402, 18724.34
649.9224, 18758.15
650.4045, 18789.46
650.8866, 18781.12
651.3687, 18751.89
651.8508, 18755.12
652.3329, 18799.76
652.8151, 18830.05
653.2972, 18768.02
653.7793, 18682.12
654.2614, 18656.06
654.7435, 18758.15
655.2256, 18845.04
655.7078, 18847.92
656.1899, 18814.38
656.6720, 18828.93
657.1541, 18937.08
657.6362, 19023.94
658.1183, 19063.79
658.6005, 19068.82
659.0826, 19078.94
659.5647, 19091.65
660.0468, 19126.27
660.5289, 19205.93
661.0110, 19314.61
661.4932, 19393.28
661.9753, 19444.08
662.4574, 19505.37
662.9395, 19614.75
663.4216, 19746.34
663.9037, 19870.50
664.3859, 19980.11
664.8680, 20100.73
665.3501, 20236.35
665.8322, 20391.34
666.3143, 20569.62
666.7964, 20801.92
667.2786, 21014.54
667.7607, 21179.89
668.2428, 21336.31
668.7249, 21551.59
669.2070, 21838.97
669.6891, 22110.50
670.1713, 22337.09
670.6534, 22541.52
671.1355, 22772.01
671.6176, 23026.82
672.0997, 23300.46
672.5818, 23601.52
673.0640, 23913.34
673.5461, 24223.77
674.0282, 24533.32
674.5103, 24843.84
674.9924, 25153.35
675.4745, 25464.17
675.9567, 25783.23
676.4388, 26112.90
676.9209, 26435.07
677.4030, 26760.89
677.8851, 27066.96
678.3672, 27337.78
678.8494, 27571.31
679.3315, 27784.17
679.8136, 27987.57
680.2957, 28150.32
680.7778, 28230.65
681.2599, 28232.79
681.7421, 28179.71
682.2242, 28065.50
682.7063, 27918.96
683.1884, 27792.44
683.6705, 27657.00
684.1526, 27450.46
684.6348, 27092.17
685.1169, 26710.46
685.5990, 26347.02
686.0811, 26005.00
686.5632, 25679.41
687.0454, 25402.29
687.5275, 25098.43
688.0096, 24727.02
688.4918, 24284.32
688.9739, 23908.84
689.4560, 23614.52
689.9381, 23323.99
690.4202, 22966.36
690.9023, 22566.06
691.3845, 22196.31
691.8666, 21861.08
692.3487, 21539.52
692.8308, 21196.15
693.3129, 20862.69
693.7950, 20579.91
694.2772, 20394.92
694.7593, 20192.13
695.2414, 19903.92
695.7235, 19584.85
696.2056, 19312.33
696.6877, 19114.23
697.1699, 18918.67
697.6520, 18714.07
698.1341, 18510.19
698.6162, 18334.11
699.0983, 18185.84
699.5804, 18055.47
700.0626, 17945.29
700.5447, 17846.12
701.0268, 17736.88
701.5089, 17620.35
701.9910, 17510.71
702.4731, 17415.96
702.9553, 17332.82
703.4374, 17262.25
703.9195, 17203.49
704.4016, 17144.32
704.8837, 17070.52
705.3658, 17003.92
705.8480, 16959.51
706.3301, 16947.44
706.8122, 16911.15
707.2943, 16842.60
707.7764, 16765.93
708.2585, 16695.23
708.7407, 16632.03
709.2228, 16598.88
709.7049, 16603.16
710.1870, 16615.72
710.6691, 16599.47
711.1512, 16569.53
711.6334, 16554.43
712.1155, 16571.13
712.5976, 16588.65
713.0797, 16590.01
713.5618, 16581.52
714.0439, 16573.99
714.5261, 16569.59
715.0082, 16565.00
715.4903, 16556.74
715.9724, 16548.44
716.4545, 16555.81
716.9366, 16584.10
717.4188, 16598.75
717.9009, 16583.04
718.3830, 16545.92
718.8651, 16496.95
719.3472, 16441.19
719.8293, 16417.73
720.3115, 16479.97
720.7936, 16565.38
721.2757, 16622.78
721.7578, 16648.16
722.2399, 16652.22
722.7220, 16616.06
723.2042, 16577.42
723.6863, 16557.15
724.1684, 16558.56
724.6505, 16563.76
725.1326, 16573.56
725.6147, 16585.58
726.0969, 16600.85
726.5790, 16618.82
727.0611, 16628.25
727.5432, 16629.25
728.0253, 16616.75
728.5074, 16562.92
728.9896, 16497.39
729.4717, 16474.72
729.9538, 16526.46
730.4359, 16582.41
730.9180, 16604.68
731.4001, 16609.75
731.8823, 16620.63
732.3644, 16655.17
732.8465, 16675.00
733.3286, 16665.65
733.8107, 16645.55
734.2928, 16658.13
734.7750, 16707.52
735.2571, 16756.95
735.7392, 16800.51
736.2213, 16831.88
736.7034, 16828.80
737.1855, 16799.44
737.6677, 16775.66
738.1498, 16779.79
738.6319, 16791.88
739.1140, 16793.89
739.5961, 16789.30
740.0782, 16798.60
740.5604, 16849.46
741.0425, 16893.26
741.5246, 16908.53
742.0067, 16895.30
742.4888, 16896.46
742.9709, 16914.98
743.4531, 16936.17
743.9352, 16945.72
744.4173, 16947.98
744.8994, 16962.73
745.3815, 17000.15
745.8636, 17092.15
746.3458, 17148.66
746.8279, 17171.58
747.3100, 17060.36
747.7921, 17122.37
748.2742, 17114.95
748.7563, 17104.69
749.2385, 17191.08
749.7206, 17099.37
750.2027, 17184.22
750.6848, 17198.60
751.1669, 17245.23
751.6490, 17097.89
752.1312, 17073.92
752.6133, 17050.60
753.0954, 17056.62
753.5775, 17102.11
754.0596, 17157.22
754.5417, 17189.33
755.0239, 17205.61
755.5060, 17217.47
755.9881, 17220.22
756.4702, 17229.95
756.9523, 17262.90
757.4344, 17304.30
757.9166, 17327.97
758.3987, 17328.05
758.8808, 17319.51
759.3629, 17299.87
759.8450, 17277.81
760.3271, 17274.03
760.8093, 17288.90
761.2914, 17313.87
761.7735, 17354.45
762.2556, 17395.48
762.7377, 17410.82
763.2198, 17406.65
763.7020, 17401.95
764.1841, 17389.82
764.6662, 17393.99
765.1483, 17439.96
765.6304, 17519.35
766.1125, 17567.13
766.5947, 17550.12
767.0768, 17546.45
767.5589, 17588.37
768.0410, 17667.52
768.5231, 17720.30
769.0052, 17745.58
769.4874, 17758.51
769.9695, 17759.33
770.4516, 17757.79
770.9337, 17779.82
771.4158, 17822.30
771.8979, 17847.23
772.3801, 17801.89
772.8622, 17757.59
773.3443, 17768.94
773.8264, 17852.82
774.3085, 17905.15
774.7906, 17902.86
775.2728, 17896.44
775.7549, 17919.29
776.2370, 17974.07
776.7191, 18010.20
777.2012, 18026.83
777.6833, 18031.68
778.1655, 18021.08
778.6476, 18006.18
779.1297, 18008.44
779.6118, 18030.98
780.0939, 18060.40
780.5760, 18085.42
781.0582, 18115.82
781.5403, 18160.68
782.0224, 18231.66
782.5045, 18296.68
782.9866, 18363.91
783.4688, 18413.97
783.9509, 18418.17
784.4330, 18375.19
784.9151, 18358.62
785.3972, 18377.22
785.8793, 18417.93
786.3615, 18482.79
786.8436, 18554.88
787.3257, 18603.16
787.8078, 18611.98
788.2899, 18615.97
788.7720, 18623.12
789.2542, 18638.03
789.7363, 18667.27
790.2184, 18718.93
790.7005, 18771.20
791.1826, 18827.64
791.6647, 18877.58
792.1469, 18896.74
792.6290, 18886.67
793.1111, 18893.14
793.5932, 18931.15
794.0753, 18975.28
794.5574, 18991.45
795.0396, 18993.02
795.5217, 19005.29
796.0038, 19053.63
796.4859, 19093.50
796.9681, 19101.18
797.4502, 19092.67
797.9323, 19098.79
798.4144, 19134.77
798.8965, 19149.08
799.3787, 19121.49
799.8608, 19082.90
800.3429, 19109.99
800.8250, 19192.74
801.3071, 19243.30
801.7892, 19209.95
802.2714, 19164.53
802.7535, 19196.08
803.2356, 19271.46
803.7177, 19320.22
804.1998, 19287.95
804.6819, 19258.38
805.1641, 19251.94
805.6462, 19265.28
806.1283, 19296.28
806.6104, 19353.03
807.0925, 19398.79
807.5746, 19416.70
808.0568, 19426.21
808.5389, 19478.32
809.0210, 19564.72
809.5031, 19644.01
809.9852, 19689.65
810.4673, 19728.51
810.9495, 19797.11
811.4316, 19876.08
811.9137, 19912.81
812.3958, 19822.70
812.8779, 19773.43
813.3600, 19819.23
813.8422, 19929.19
814.3243, 20001.37
814.8064, 20030.72
815.2885, 20061.70
815.7706, 20108.50
816.2527, 20169.55
816.7349, 20251.02
817.2170, 20345.21
817.6991, 20426.78
818.1812, 20474.91
818.6633, 20515.48
819.1454, 20563.77
819.6276, 20616.93
820.1097, 20659.63
820.5918, 20685.68
821.0739, 20709.95
821.5560, 20734.82
822.0381, 20761.26
822.5203, 20795.65
823.0024, 20837.70
823.4845, 20876.99
823.9666, 20903.50
824.4487, 20928.45
824.9308, 20977.16
825.4130, 21038.15
825.8951, 21073.09
826.3772, 21033.76
826.8593, 20999.17
827.3414, 21009.87
827.8235, 21051.08
828.3057, 21066.40
828.7878, 21048.83
829.2699, 21028.95
829.7520, 21020.35
830.2341, 21015.12
830.7162, 20983.34
831.1984, 20932.49
831.6805, 20897.75
832.1626, 20917.24
832.6447, 20944.12
833.1268, 20941.70
833.6089, 20917.81
834.0911, 20901.23
834.5732, 20907.18
835.0553, 20909.30
835.5374, 20892.57
836.0195, 20869.63
836.5016, 20900.86
836.9838, 20989.33
837.4659, 21055.95
837.9480, 21061.21
838.4301, 21033.41
838.9122, 21014.34
839.3943, 20999.68
839.8765, 20976.44
840.3586, 20910.53
840.8407, 20864.12
841.3228, 20884.64
841.8049, 20947.99
842.2870, 20962.95
842.7692, 20907.52
843.2513, 20858.76
843.7334, 20837.83
844.2155, 20836.01
844.6976, 20837.10
845.1797, 20839.21
845.6619, 20833.46
846.1440, 20816.30
846.6261, 20789.11
847.1082, 20742.37
847.5903, 20687.02
848.0724, 20648.34
848.5546, 20655.03
849.0367, 20650.52
849.5188, 20616.93
850.0009, 20571.08
850.4830, 20561.59
850.9651, 20591.05
851.4473, 20601.22
851.9294, 20566.86
852.4115, 20519.36
852.8936, 20501.00
853.3757, 20504.76
853.8578, 20514.50
854.3400, 20534.91
854.8221, 20547.86
855.3042, 20532.27
855.7863, 20509.03
856.2684, 20517.61
856.7505, 20570.19
857.2327, 20617.76
857.7148, 20654.48
858.1969, 20677.61
858.6790, 20681.21
859.1611, 20667.11
859.6432, 20640.86
860.1254, 20595.72
860.6075, 20555.56
861.0896, 20538.25
861.5717, 20535.58
862.0538, 20536.19
862.5359, 20550.00
863.0181, 20548.70
863.5002, 20524.71
863.9823, 20493.09
864.4644, 20469.77
864.9465, 20455.48
865.4286, 20465.49
865.9108, 20510.43
866.3929, 20547.86
866.8750, 20517.00
867.3571, 20458.85
867.8392, 20432.41
868.3214, 20475.09
868.8035, 20497.78
869.2856, 20452.51
869.7677, 20397.77
870.2498, 20386.88
870.7319, 20430.75
871.2141, 20452.02
871.6962, 20443.67
872.1783, 20426.71
872.6604, 20416.57
873.1425, 20414.74
873.6246, 20427.58
874.1068, 20457.51
874.5889, 20483.40
875.0710, 20493.50
875.5531, 20495.61
876.0352, 20496.01
876.5173, 20496.58
876.9995, 20486.47
877.4816, 20460.84
877.9637, 20437.46
878.4458, 20431.21
878.9279, 20438.33
879.4100, 20445.92
879.8922, 20453.68
880.3743, 20461.55
880.8564, 20475.45
881.3385, 20485.20
881.8206, 20478.87
882.3027, 20454.20
882.7849, 20440.06
883.2670, 20433.59
883.7491, 20445.03
884.2312, 20490.24
884.7133, 20558.83
885.1954, 20582.21
885.6776, 20562.06
886.1597, 20528.77
886.6418, 20485.80
887.1239, 20450.38
887.6060, 20440.11
888.0881, 20452.54
888.5703, 20473.79
889.0524, 20511.55
889.5345, 20544.37
890.0166, 20566.63
890.4987, 20580.05
890.9808, 20587.45
891.4630, 20588.05
891.9451, 20597.71
892.4272, 20628.63
892.9093, 20662.50
893.3914, 20676.33
893.8735, 20674.21
894.3557, 20666.21
894.8378, 20641.20
895.3199, 20628.23
895.8020, 20650.05
896.2841, 20682.36
896.7662, 20682.94
897.2484, 20646.85
897.7305, 20615.15
898.2126, 20596.70
898.6947, 20582.54
899.1768, 20560.77
899.6589, 20534.25
900.1411, 20506.20
900.6232, 20474.55
901.1053, 20451.33
901.5874, 20452.25
902.0695, 20458.08
902.5516, 20445.53
903.0338, 20398.33
903.5159, 20388.96
903.9980, 20429.80
904.4801, 20473.86
904.9622, 20463.14
905.4443, 20421.13
905.9265, 20409.68
906.4086, 20437.42
906.8907, 20459.67
907.3729, 20430.48
907.8550, 20400.52
908.3371, 20415.54
908.8192, 20485.88
909.3013, 20524.21
909.7834, 20527.88
910.2656, 20507.31
910.7477, 20451.07
911.2298, 20375.92
911.7119, 20347.66
912.1940, 20361.38
912.6761, 20385.04
913.1583, 20418.09
913.6404, 20437.79
914.1225, 20423.41
914.6046, 20379.14
915.0867, 20343.18
915.5688, 20315.24
916.0510, 20301.27
916.5331, 20305.80
917.0152, 20323.90
917.4973, 20348.91
917.9794, 20377.66
918.4615, 20393.49
918.9437, 20376.94
919.4258, 20361.86
919.9079, 20370.80
920.3900, 20396.13
920.8721, 20425.19
921.3542, 20469.19
921.8364, 20488.37
922.3185, 20467.10
922.8006, 20436.16
923.2827, 20449.73
923.7648, 20495.40
924.2469, 20512.86
924.7291, 20484.55
925.2112, 20458.01
925.6933, 20485.84
926.1754, 20525.55
926.6575, 20530.96
927.1396, 20472.41
927.6218, 20444.97
928.1039, 20459.30
928.5860, 20488.20
929.0681, 20524.55
929.5502, 20562.40
930.0323, 20546.70
930.5145, 20479.16
930.9966, 20421.76
931.4787, 20443.29
931.9608, 20470.92
932.4429, 20430.26
932.9250, 20323.12
933.4072, 20277.29
933.8893, 20325.39
934.3714, 20387.67
934.8535, 20446.89
935.3356, 20496.41
935.8177, 20510.35
936.2999, 20493.59
936.7820, 20475.83
937.2641, 20471.84
937.7462, 20470.71
938.2283, 20471.05
938.7104, 20467.54
939.1926, 20447.60
939.6747, 20385.09
940.1568, 20355.51
940.6389, 20381.24
941.1210, 20419.20
941.6031, 20389.42
942.0853, 20312.86
942.5674, 20285.07
943.0495, 20331.05
943.5316, 20389.47
944.0137, 20424.25
944.4958, 20443.38
944.9780, 20452.89
945.4601, 20451.75
945.9422, 20447.49
946.4243, 20442.36
946.9064, 20429.92
947.3885, 20393.73
947.8707, 20345.21
948.3528, 20344.95
948.8349, 20388.90
949.3170, 20422.11
949.7991, 20388.39
950.2813, 20352.49
950.7634, 20356.81
951.2455, 20398.94
951.7276, 20442.40
952.2097, 20493.72
952.6918, 20527.18
953.1740, 20534.00
953.6561, 20519.14
954.1382, 20475.17
954.6203, 20416.81
955.1024, 20394.22
955.5845, 20452.48
956.0667, 20510.53
956.5488, 20515.34
957.0309, 20498.97
957.5130, 20509.47
957.9951, 20568.39
958.4772, 20588.96
958.9594, 20556.15
959.4415, 20516.27
959.9236, 20526.40
960.4057, 20565.04
960.8878, 20584.57
961.3699, 20578.30
961.8521, 20569.52
962.3342, 20560.25
962.8163, 20560.90
963.2984, 20583.93
963.7805, 20628.87
964.2626, 20649.23
964.7448, 20642.27
965.2269, 20630.94
965.7090, 20623.14
966.1911, 20621.92
966.6732, 20644.95
967.1553, 20680.56
967.6375, 20692.80
968.1196, 20614.69
968.6017, 20574.25
969.0838, 20637.05
969.5659, 20743.83
970.0480, 20790.52
970.5302, 20772.66
971.0123, 20757.46
971.4944, 20755.38
971.9765, 20763.61
972.4586, 20790.90
972.9407, 20821.07
973.4229, 20824.92
973.9050, 20780.49
974.3871, 20773.12
974.8692, 20851.19
975.3513, 20931.77
975.8334, 20961.35
976.3156, 20942.23
976.7977, 20915.76
977.2798, 20882.50
977.7619, 20879.02
978.2440, 20970.02
978.7261, 21068.33
979.2083, 21086.29
979.6904, 21039.77
980.1725, 21015.09
980.6546, 21037.07
981.1367, 21057.81
981.6188, 21065.81
982.1010, 21070.55
982.5831, 21101.77
983.0652, 21149.86
983.5473, 21169.14
984.0294, 21141.71
984.5115, 21100.51
984.9937, 21042.08
985.4758, 20995.63
985.9579, 20998.14
986.4400, 21066.02
986.9221, 21133.27
987.4042, 21206.23
987.8864, 21258.69
988.3685, 21253.92
988.8506, 21217.24
989.3327, 21207.44
989.8148, 21224.45
990.2969, 21245.79
990.7791, 21269.22
991.2612, 21285.01
991.7433, 21276.40
992.2254, 21257.59
992.7075, 21285.51
993.1896, 21367.76
993.6718, 21423.61
994.1539, 21421.36
994.6360, 21399.58
995.1181, 21398.22
995.6002, 21416.65
996.0823, 21457.20
996.5645, 21546.03
997.0466, 21604.23
997.5287, 21603.06
998.0108, 21588.66
998.4929, 21596.14
998.9750, 21624.78
999.4572, 21664.45
999.9393, 21714.41
1000.421, 21768.31
1000.904, 21835.16
1001.386, 21891.95
1001.868, 21906.46
1002.350, 21884.72
1002.832, 21895.60
1003.314, 21963.77
1003.796, 22016.41
1004.278, 22030.20
1004.760, 22021.58
1005.243, 22012.22
1005.725, 22009.21
1006.207, 22036.84
1006.689, 22118.35
1007.171, 22197.80
1007.653, 22251.38
1008.135, 22286.42
1008.617, 22310.68
1009.099, 22323.14
1009.582, 22325.70
1010.064, 22315.81
1010.546, 22311.32
1011.028, 22324.27
1011.510, 22352.53
1011.992, 22397.65
1012.474, 22457.60
1012.956, 22515.80
1013.439, 22570.14
1013.921, 22618.02
1014.403, 22659.56
1014.885, 22694.47
1015.367, 22720.50
1015.849, 22738.75
1016.331, 22755.91
1016.813, 22770.88
1017.296, 22794.98
1017.778, 22829.53
1018.260, 22883.01
1018.742, 22971.96
1019.224, 23126.75
1019.706, 23224.14
1020.188, 23238.12
1020.670, 23264.86
1021.152, 23387.74
1021.635, 23574.34
1022.117, 23742.27
1022.599, 23894.52
1023.081, 24059.52
1023.563, 24254.79
1024.045, 24461.12
1024.527, 24677.28
1025.009, 24897.67
1025.491, 25107.52
1025.974, 25305.79
1026.456, 25517.09
1026.938, 25746.07
1027.420, 25999.06
1027.902, 26297.91
1028.384, 26622.46
1028.866, 26949.16
1029.348, 27284.40
1029.831, 27589.17
1030.313, 27858.22
1030.795, 28106.94
1031.277, 28336.91
1031.759, 28552.86
1032.241, 28808.32
1032.723, 29081.67
1033.205, 29267.31
1033.688, 29245.39
1034.170, 29187.16
1034.652, 29211.80
1035.134, 29244.22
1035.616, 29131.13
1036.098, 28839.65
1036.580, 28563.18
1037.062, 28325.74
1037.544, 28090.16
1038.026, 27796.25
1038.509, 27483.97
1038.991, 27211.21
1039.473, 26990.11
1039.955, 26761.18
1040.437, 26503.90
1040.919, 26253.89
1041.401, 26031.04
1041.883, 25827.02
1042.366, 25614.56
1042.848, 25396.21
1043.330, 25181.54
1043.812, 24956.11
1044.294, 24763.57
1044.776, 24643.58
1045.258, 24570.19
1045.740, 24506.67
1046.223, 24459.44
1046.705, 24391.78
1047.187, 24298.29
1047.669, 24205.96
1048.151, 24148.96
1048.633, 24104.68
1049.115, 24025.66
1049.597, 23916.39
1050.079, 23853.01
1050.562, 23916.73
1051.044, 23955.52
1051.526, 23921.51
1052.008, 23848.87
1052.490, 23828.01
1052.972, 23846.96
1053.454, 23835.67
1053.936, 23761.02
1054.418, 23697.75
1054.901, 23711.35
1055.383, 23750.43
1055.865, 23768.28
1056.347, 23762.84
1056.829, 23734.54
1057.311, 23677.95
1057.793, 23630.92
1058.275, 23629.47
1058.758, 23645.03
1059.240, 23639.81
1059.722, 23617.04
1060.204, 23585.38
1060.686, 23538.08
1061.168, 23495.95
1061.650, 23460.59
1062.132, 23432.93
1062.615, 23413.35
1063.097, 23402.44
1063.579, 23405.61
1064.061, 23424.23
1064.543, 23440.04
1065.025, 23437.64
1065.507, 23431.70
1065.989, 23434.15
1066.471, 23442.82
1066.953, 23436.97
1067.436, 23414.56
1067.918, 23398.77
1068.400, 23401.88
1068.882, 23408.21
1069.364, 23395.25
1069.846, 23373.28
1070.328, 23357.14
1070.811, 23346.32
1071.293, 23351.68
1071.775, 23382.45
1072.257, 23409.37
1072.739, 23400.71
1073.221, 23370.91
1073.703, 23373.80
1074.185, 23404.90
1074.667, 23431.17
1075.150, 23438.46
1075.632, 23435.51
1076.114, 23414.97
1076.596, 23393.69
1077.078, 23410.45
1077.560, 23466.60
1078.042, 23478.58
1078.524, 23427.52
1079.006, 23378.16
1079.489, 23399.41
1079.971, 23444.47
1080.453, 23471.91
1080.935, 23475.64
1081.417, 23475.34
1081.899, 23461.89
1082.381, 23473.06
1082.863, 23531.61
1083.346, 23611.14
1083.828, 23676.33
1084.310, 23723.30
1084.792, 23741.09
1085.274, 23689.62
1085.756, 23680.97
1086.238, 23766.84
1086.720, 23857.98
1087.203, 23877.13
1087.685, 23835.21
1088.167, 23813.18
1088.649, 23810.93
1089.131, 23814.21
1089.613, 23805.87
1090.095, 23810.60
1090.577, 23855.41
1091.059, 23919.59
1091.542, 23962.96
1092.024, 23985.58
1092.506, 23975.51
1092.988, 23922.39
1093.470, 23885.78
1093.952, 23950.87
1094.434, 24048.55
1094.916, 24101.78
1095.398, 24099.70
1095.881, 24114.11
1096.363, 24159.09
1096.845, 24195.28
1097.327, 24209.65
1097.809, 24206.78
1098.291, 24184.43
1098.773, 24154.27
1099.255, 24143.38
1099.738, 24170.75
1100.220, 24192.62
1100.702, 24193.62
1101.184, 24191.15
1101.666, 24193.73
1102.148, 24201.94
1102.630, 24229.03
1103.112, 24271.10
1103.594, 24301.80
1104.077, 24301.96
1104.559, 24290.45
1105.041, 24269.18
1105.523, 24245.76
1106.005, 24229.69
1106.487, 24219.55
1106.969, 24240.60
1107.451, 24301.29
1107.933, 24337.16
1108.416, 24251.31
1108.898, 24139.38
1109.380, 24100.77
1109.862, 24135.60
1110.344, 24156.66
1110.826, 24147.94
1111.308, 24160.42
1111.790, 24216.01
1112.273, 24277.80
1112.755, 24279.86
1113.237, 24247.22
1113.719, 24221.81
1114.201, 24211.34
1114.683, 24210.43
1115.165, 24217.24
1115.647, 24233.50
1116.130, 24266.32
1116.612, 24306.67
1117.094, 24323.42
1117.576, 24318.13
1118.058, 24296.37
1118.540, 24250.00
1119.022, 24204.57
1119.504, 24154.99
1119.986, 24125.21
1120.469, 24148.88
1120.951, 24229.54
1121.433, 24265.30
1121.915, 24256.03
1122.397, 24250.66
1122.879, 24294.99
1123.361, 24344.33
1123.843, 24360.75
1124.325, 24356.41
1124.808, 24370.00
1125.290, 24407.52
1125.772, 24433.12
1126.254, 24440.37
1126.736, 24441.33
1127.218, 24435.98
1127.700, 24438.68
1128.182, 24473.07
1128.665, 24539.33
1129.147, 24588.50
1129.629, 24617.10
1130.111, 24624.80
1130.593, 24603.96
1131.075, 24575.68
1131.557, 24587.74
1132.039, 24616.49
1132.521, 24613.33
1133.004, 24558.04
1133.486, 24513.34
1133.968, 24496.04
1134.450, 24488.58
1134.932, 24481.37
1135.414, 24478.99
1135.896, 24503.50
1136.378, 24548.12
1136.860, 24585.99
1137.343, 24616.34
1137.825, 24622.20
1138.307, 24567.54
1138.789, 24507.60
1139.271, 24485.94
1139.753, 24501.25
1140.235, 24541.49
1140.717, 24603.48
1141.200, 24646.05
1141.682, 24628.37
1142.164, 24599.69
1142.646, 24590.44
1143.128, 24589.76
1143.610, 24577.68
1144.092, 24555.25
1144.574, 24512.13
1145.057, 24443.65
1145.539, 24403.50
1146.021, 24456.76
1146.503, 24543.54
1146.985, 24634.16
1147.467, 24714.86
1147.949, 24720.45
1148.431, 24625.47
1148.913, 24553.79
1149.396, 24530.20
1149.878, 24544.74
1150.360, 24614.81
1150.842, 24698.28
1151.324, 24734.55
1151.806, 24707.24
1152.288, 24702.84
1152.770, 24734.59
1153.252, 24766.62
1153.735, 24785.07
1154.217, 24796.78
1154.699, 24814.86
1155.181, 24835.84
1155.663, 24856.04
1156.145, 24887.70
1156.627, 24879.55
1157.109, 24804.56
1157.592, 24734.62
1158.074, 24713.78
1158.556, 24731.77
1159.038, 24771.10
1159.520, 24822.03
1160.002, 24853.09
1160.484, 24848.05
1160.966, 24821.81
1161.448, 24760.62
1161.931, 24700.68
1162.413, 24676.98
1162.895, 24685.11
1163.377, 24708.25
1163.859, 24743.25
1164.341, 24769.79
1164.823, 24784.92
1165.305, 24780.54
1165.787, 24745.59
1166.270, 24697.32
1166.752, 24648.90
1167.234, 24603.74
1167.716, 24615.22
1168.198, 24688.23
1168.680, 24755.87
1169.162, 24769.14
1169.644, 24765.18
1170.127, 24760.22
1170.609, 24755.24
1171.091, 24747.26
1171.573, 24736.03
1172.055, 24753.70
1172.537, 24810.88
1173.019, 24866.05
1173.501, 24880.24
1173.984, 24880.83
1174.466, 24893.07
1174.948, 24914.49
1175.430, 24914.32
1175.912, 24892.03
1176.394, 24866.83
1176.876, 24843.00
1177.358, 24823.98
1177.840, 24814.34
1178.323, 24810.39
1178.805, 24804.47
1179.287, 24793.84
1179.769, 24818.20
1180.251, 24883.48
1180.733, 24933.49
1181.215, 24935.70
1181.697, 24919.30
1182.180, 24915.44
1182.662, 24914.88
1183.144, 24902.68
1183.626, 24870.48
1184.108, 24850.23
1184.590, 24843.72
1185.072, 24839.29
1185.554, 24822.23
1186.036, 24808.81
1186.519, 24832.84
1187.001, 24873.73
1187.483, 24885.63
1187.965, 24840.88
1188.447, 24817.85
1188.929, 24824.48
1189.411, 24833.35
1189.893, 24823.98
1190.375, 24800.77
1190.858, 24763.26
1191.340, 24716.35
1191.822, 24675.54
1192.304, 24627.09
1192.786, 24625.83
1193.268, 24691.96
1193.750, 24760.05
1194.232, 24755.99
1194.715, 24710.81
1195.197, 24663.11
1195.679, 24617.55
1196.161, 24585.25
1196.643, 24563.03
1197.125, 24566.16
1197.607, 24604.08
1198.089, 24651.96
1198.572, 24681.82
1199.054, 24695.40
1199.536, 24691.01
1200.018, 24668.75
1200.500, 24649.81
1200.982, 24642.91
1201.464, 24628.11
1201.946, 24593.90
1202.428, 24561.26
1202.911, 24564.44
1203.393, 24593.78
1203.875, 24640.95
1204.357, 24709.60
1204.839, 24740.26
1205.321, 24709.54
1205.803, 24668.02
1206.285, 24624.71
1206.767, 24594.08
1207.250, 24614.55
1207.732, 24666.38
1208.214, 24714.31
1208.696, 24754.59
1209.178, 24769.20
1209.660, 24747.98
1210.142, 24719.66
1210.624, 24695.93
1211.107, 24675.84
1211.589, 24658.76
1212.071, 24644.18
1212.553, 24630.88
1213.035, 24613.79
1213.517, 24610.73
1213.999, 24627.57
1214.481, 24648.90
1214.964, 24674.53
1215.446, 24692.22
1215.928, 24659.56
1216.410, 24596.51
1216.892, 24552.63
1217.374, 24553.69
1217.856, 24561.48
1218.338, 24578.45
1218.820, 24589.29
1219.302, 24576.87
1219.785, 24552.46
1220.267, 24545.36
1220.749, 24549.91
1221.231, 24549.50
1221.713, 24525.03
1222.195, 24515.52
1222.677, 24524.79
1223.159, 24545.59
1223.642, 24582.27
1224.124, 24620.85
1224.606, 24631.58
1225.088, 24617.36
1225.570, 24592.18
1226.052, 24541.78
1226.534, 24512.11
1227.016, 24514.13
1227.499, 24519.42
1227.981, 24483.56
1228.463, 24438.15
1228.945, 24453.16
1229.427, 24518.12
1229.909, 24564.23
1230.391, 24573.34
1230.873, 24559.03
1231.355, 24511.11
1231.838, 24472.77
1232.320, 24515.38
1232.802, 24589.83
1233.284, 24600.04
1233.766, 24553.77
1234.248, 24558.20
1234.730, 24682.79
1235.212, 24729.08
1235.694, 24646.69
1236.177, 24533.36
1236.659, 24507.68
1237.141, 24526.86
1237.623, 24542.33
1238.105, 24548.19
1238.587, 24527.60
1239.069, 24461.17
1239.551, 24430.00
1240.034, 24456.58
1240.516, 24507.41
1240.998, 24564.38
1241.480, 24606.24
1241.962, 24594.97
1242.444, 24530.25
1242.926, 24483.89
1243.408, 24455.42
1243.891, 24460.10
1244.373, 24510.63
1244.855, 24559.43
1245.337, 24534.10
1245.819, 24487.84
1246.301, 24483.47
1246.783, 24525.90
1247.265, 24544.55
1247.747, 24534.79
1248.229, 24530.96
1248.712, 24543.84
1249.194, 24562.41
1249.676, 24601.89
1250.158, 24623.24
1250.640, 24560.35
1251.122, 24421.97
1251.604, 24395.65
1252.086, 24487.92
1252.569, 24549.14
1253.051, 24526.37
1253.533, 24479.39
1254.015, 24439.53
1254.497, 24416.48
1254.979, 24425.68
1255.461, 24460.99
1255.943, 24478.33
1256.426, 24477.76
1256.908, 24476.43
1257.390, 24474.90
1257.872, 24487.91
1258.354, 24563.41
1258.836, 24621.75
1259.318, 24592.54
1259.800, 24494.23
1260.282, 24460.55
1260.765, 24482.85
1261.247, 24498.41
1261.729, 24490.59
1262.211, 24461.81
1262.693, 24389.98
1263.175, 24322.63
1263.657, 24287.90
1264.139, 24282.69
1264.621, 24302.24
1265.104, 24337.35
1265.586, 24344.60
1266.068, 24282.76
1266.550, 24261.21
1267.032, 24349.57
1267.514, 24445.01
1267.996, 24491.14
1268.478, 24502.56
1268.961, 24523.97
1269.443, 24551.45
1269.925, 24575.75
1270.407, 24589.95
1270.889, 24609.07
1271.371, 24639.84
1271.853, 24664.23
1272.335, 24667.78
1272.818, 24661.34
1273.300, 24670.20
1273.782, 24687.99
1274.264, 24703.16
1274.746, 24722.72
1275.228, 24712.52
1275.710, 24664.47
1276.192, 24615.96
1276.674, 24586.97
1277.156, 24573.28
1277.639, 24571.62
1278.121, 24579.73
1278.603, 24596.77
1279.085, 24631.30
1279.567, 24636.06
1280.049, 24606.53
1280.531, 24577.61
1281.013, 24557.28
1281.496, 24560.32
1281.978, 24638.80
1282.460, 24728.77
1282.942, 24726.55
1283.424, 24608.63
1283.906, 24613.34
1284.388, 24738.60
1284.870, 24837.61
1285.353, 24823.10
1285.835, 24775.50
1286.317, 24717.40
1286.799, 24678.64
1287.281, 24694.33
1287.763, 24761.54
1288.245, 24804.62
1288.727, 24825.61
1289.209, 24836.61
1289.692, 24843.22
1290.174, 24842.16
1290.656, 24815.86
1291.138, 24792.60
1291.620, 24803.67
1292.102, 24843.10
1292.584, 24865.03
1293.066, 24871.70
1293.549, 24872.13
1294.031, 24869.98
1294.513, 24860.48
##END=



