##NAMES=Fluor-liddicoatite
##RRUFFID=R060969
##IDEAL CHEMISTRY=Ca(Li_2_Al)Al_6_(Si_6_O_18_)(BO_3_)_3_(OH)_3_F
##LOCALITY=Antandro Komby mine, Manandona River, Antsirabe, Madagascar
##OWNER=RRUFF
##SOURCE=Michael Scott
##DESCRIPTION=Red and green prismatic striated crystal, we studied the red part.
##STATUS=The identification of this mineral has been confirmed only by single crystal X-ray diffraction.
##URL=rruff.info/R060969
158.1689, 758.7161
158.6510, 760.6386
159.1331, 767.5876
159.6152, 775.4783
160.0974, 787.2215
160.5795, 796.8503
161.0616, 800.3318
161.5437, 799.6010
162.0258, 800.2222
162.5079, 806.7512
162.9901, 819.0010
163.4722, 825.7267
163.9543, 821.4006
164.4364, 818.0124
164.9185, 821.4408
165.4007, 830.5462
165.8828, 840.5627
166.3649, 848.1622
166.8470, 853.3471
167.3291, 859.2198
167.8112, 866.8434
168.2934, 874.0825
168.7755, 880.8690
169.2576, 886.6675
169.7397, 889.3470
170.2218, 886.5167
170.7039, 878.5252
171.1861, 874.4864
171.6682, 876.7371
172.1503, 880.4449
172.6324, 883.0226
173.1145, 884.5723
173.5966, 886.6428
174.0788, 890.7223
174.5609, 896.4947
175.0430, 900.0846
175.5251, 902.7520
176.0072, 902.3904
176.4893, 894.9760
176.9714, 881.7813
177.4536, 871.1818
177.9357, 869.8727
178.4178, 876.9825
178.8999, 880.8240
179.3820, 882.0656
179.8641, 879.6254
180.3463, 869.8517
180.8284, 853.7845
181.3105, 840.3167
181.7926, 835.6934
182.2747, 839.3101
182.7568, 842.9102
183.2390, 845.7539
183.7211, 849.1581
184.2032, 855.3864
184.6853, 863.9888
185.1674, 870.2516
185.6495, 870.5585
186.1317, 865.8294
186.6138, 861.9672
187.0959, 858.9281
187.5780, 856.8576
188.0601, 855.5660
188.5422, 855.1329
189.0244, 856.7406
189.5065, 862.9451
189.9886, 871.2757
190.4707, 873.9561
190.9528, 864.6922
191.4349, 855.4535
191.9171, 856.9605
192.3992, 868.1515
192.8813, 877.4397
193.3634, 876.6517
193.8455, 870.1476
194.3276, 869.7172
194.8098, 876.7828
195.2919, 888.6809
195.7740, 908.4506
196.2561, 934.5822
196.7382, 951.7007
197.2203, 948.6436
197.7025, 932.5513
198.1846, 921.8596
198.6667, 917.9630
199.1488, 917.8448
199.6309, 920.0687
200.1130, 924.5452
200.5951, 930.7983
201.0773, 940.5317
201.5594, 950.5824
202.0415, 954.9274
202.5236, 950.6472
203.0057, 946.1146
203.4878, 947.1894
203.9700, 953.1185
204.4521, 959.1193
204.9342, 962.7948
205.4163, 966.0912
205.8984, 972.5355
206.3805, 983.5471
206.8627, 993.9581
207.3448, 1000.424
207.8269, 1003.511
208.3090, 1005.671
208.7911, 1007.052
209.2732, 1008.603
209.7554, 1011.523
210.2375, 1015.762
210.7196, 1021.327
211.2017, 1027.872
211.6838, 1035.655
212.1659, 1045.859
212.6481, 1059.475
213.1302, 1074.738
213.6123, 1088.358
214.0944, 1099.857
214.5765, 1113.579
215.0586, 1134.336
215.5408, 1159.047
216.0229, 1178.507
216.5050, 1187.937
216.9871, 1196.277
217.4692, 1216.177
217.9513, 1247.510
218.4335, 1276.911
218.9156, 1298.996
219.3977, 1315.421
219.8798, 1328.612
220.3619, 1337.807
220.8440, 1347.006
221.3262, 1363.045
221.8083, 1385.074
222.2904, 1402.512
222.7725, 1409.641
223.2546, 1410.850
223.7367, 1414.231
224.2189, 1422.042
224.7010, 1427.150
225.1831, 1420.855
225.6652, 1404.866
226.1473, 1387.045
226.6294, 1367.466
227.1115, 1347.622
227.5937, 1328.404
228.0758, 1309.608
228.5579, 1294.738
229.0400, 1289.861
229.5221, 1292.698
230.0042, 1290.413
230.4864, 1278.069
230.9685, 1261.875
231.4506, 1245.714
231.9327, 1229.898
232.4148, 1218.564
232.8969, 1215.763
233.3791, 1220.596
233.8612, 1225.830
234.3433, 1235.236
234.8254, 1241.780
235.3075, 1238.456
235.7896, 1226.323
236.2718, 1214.034
236.7539, 1206.337
237.2360, 1202.436
237.7181, 1198.137
238.2002, 1191.150
238.6823, 1186.219
239.1645, 1187.790
239.6466, 1193.970
240.1287, 1198.004
240.6108, 1196.135
241.0929, 1190.694
241.5750, 1188.687
242.0572, 1194.463
242.5393, 1196.313
243.0214, 1186.168
243.5035, 1169.280
243.9856, 1157.433
244.4677, 1156.043
244.9499, 1159.096
245.4320, 1152.819
245.9141, 1131.973
246.3962, 1116.225
246.8783, 1114.173
247.3604, 1118.214
247.8426, 1117.854
248.3247, 1110.010
248.8068, 1098.380
249.2889, 1088.160
249.7710, 1079.988
250.2531, 1071.395
250.7352, 1060.657
251.2174, 1050.229
251.6995, 1043.205
252.1816, 1039.930
252.6637, 1037.220
253.1458, 1031.138
253.6279, 1019.980
254.1101, 1013.376
254.5922, 1015.046
255.0743, 1018.127
255.5564, 1019.394
256.0385, 1018.094
256.5207, 1012.953
257.0028, 1001.733
257.4849, 983.6073
257.9670, 974.3876
258.4491, 980.0789
258.9312, 986.9379
259.4134, 991.3052
259.8955, 992.2205
260.3776, 987.5367
260.8597, 974.6910
261.3418, 955.7030
261.8239, 947.6416
262.3060, 965.1719
262.7881, 976.6478
263.2703, 970.9066
263.7524, 956.0721
264.2345, 944.4255
264.7166, 942.0814
265.1987, 945.9888
265.6808, 946.9445
266.1630, 942.8815
266.6451, 938.2463
267.1272, 928.9682
267.6093, 921.3309
268.0914, 923.7928
268.5735, 938.4829
269.0557, 956.9439
269.5378, 964.4043
270.0199, 953.9262
270.5020, 946.0779
270.9841, 940.2159
271.4662, 937.2804
271.9484, 940.7758
272.4305, 949.5479
272.9126, 956.1925
273.3947, 950.6345
273.8768, 929.0707
274.3589, 914.3840
274.8411, 909.8427
275.3232, 909.5654
275.8053, 914.4927
276.2874, 922.3538
276.7695, 927.8180
277.2516, 925.6920
277.7338, 916.7397
278.2159, 911.9500
278.6980, 912.8935
279.1801, 916.4797
279.6622, 924.4324
280.1443, 933.6368
280.6265, 938.9474
281.1086, 937.0203
281.5907, 930.3181
282.0728, 925.6851
282.5549, 925.0398
283.0370, 921.7521
283.5192, 907.4998
284.0013, 892.3782
284.4834, 888.5112
284.9655, 901.4626
285.4476, 918.0818
285.9297, 920.7067
286.4119, 907.8207
286.8940, 895.3275
287.3761, 887.3301
287.8582, 881.5610
288.3403, 875.5298
288.8224, 868.9630
289.3046, 864.5844
289.7867, 866.0262
290.2688, 872.0298
290.7509, 875.9865
291.2330, 876.6572
291.7151, 875.1689
292.1973, 871.9473
292.6794, 867.2871
293.1615, 863.2370
293.6436, 861.5623
294.1257, 860.7159
294.6078, 857.8338
295.0900, 852.4286
295.5721, 846.4170
296.0542, 840.7154
296.5363, 835.5323
297.0184, 831.9758
297.5005, 830.8391
297.9827, 830.8497
298.4648, 831.5062
298.9469, 832.6221
299.4290, 832.9518
299.9111, 831.2994
300.3932, 828.6047
300.8754, 828.1556
301.3575, 829.7823
301.8396, 833.4890
302.3217, 842.1889
302.8038, 852.6360
303.2859, 857.4056
303.7681, 853.0854
304.2502, 845.6060
304.7323, 846.4872
305.2144, 861.0804
305.6965, 873.1628
306.1786, 882.1606
306.6608, 887.9651
307.1429, 888.7299
307.6250, 884.8370
308.1071, 881.3861
308.5892, 884.9622
309.0714, 898.8246
309.5535, 903.2775
310.0356, 889.0513
310.5177, 875.8425
310.9998, 873.6853
311.4819, 880.7192
311.9640, 889.8982
312.4461, 896.5870
312.9283, 900.8898
313.4104, 904.0616
313.8925, 905.9785
314.3746, 906.7581
314.8567, 905.5932
315.3388, 903.6184
315.8210, 901.9573
316.3031, 901.0701
316.7852, 901.1995
317.2673, 902.8147
317.7494, 905.9872
318.2315, 910.6252
318.7137, 921.0616
319.1958, 929.8206
319.6779, 930.4962
320.1600, 922.7255
320.6421, 912.9214
321.1242, 906.6459
321.6064, 903.8752
322.0885, 904.4007
322.5706, 909.4136
323.0527, 916.5802
323.5348, 926.3367
324.0169, 937.2278
324.4991, 945.0030
324.9812, 944.7576
325.4633, 940.6213
325.9454, 942.5346
326.4275, 952.1761
326.9096, 961.3632
327.3918, 964.3153
327.8739, 964.2375
328.3560, 966.2432
328.8381, 972.6960
329.3202, 979.0053
329.8023, 981.7733
330.2845, 981.1840
330.7666, 977.8271
331.2487, 970.6687
331.7308, 962.4202
332.2129, 957.8158
332.6950, 957.3866
333.1772, 957.2200
333.6593, 954.8501
334.1414, 952.5327
334.6235, 954.8344
335.1056, 962.6652
335.5877, 969.5430
336.0699, 967.7195
336.5520, 955.1623
337.0341, 949.7122
337.5162, 959.0391
337.9983, 968.4050
338.4804, 967.2714
338.9626, 958.4724
339.4447, 952.2699
339.9268, 955.5228
340.4089, 966.2809
340.8910, 973.7200
341.3731, 977.4200
341.8553, 977.9889
342.3374, 970.1561
342.8195, 961.4617
343.3016, 960.8160
343.7837, 970.9146
344.2658, 986.8344
344.7480, 1001.894
345.2301, 1018.359
345.7122, 1027.373
346.1943, 1023.661
346.6764, 1017.178
347.1585, 1011.718
347.6407, 1007.980
348.1228, 1005.857
348.6049, 1005.823
349.0870, 1007.498
349.5691, 1007.683
350.0512, 1004.853
350.5334, 1003.120
351.0155, 1005.896
351.4976, 1010.219
351.9797, 1011.247
352.4618, 1005.649
352.9439, 999.5010
353.4261, 1002.040
353.9082, 1013.536
354.3903, 1023.419
354.8724, 1027.800
355.3545, 1029.354
355.8366, 1031.818
356.3188, 1035.396
356.8009, 1038.298
357.2830, 1038.392
357.7651, 1037.507
358.2472, 1039.378
358.7293, 1044.809
359.2115, 1051.191
359.6936, 1054.990
360.1757, 1056.496
360.6578, 1064.664
361.1399, 1086.976
361.6220, 1109.684
362.1041, 1122.315
362.5862, 1127.813
363.0684, 1136.354
363.5505, 1153.746
364.0326, 1177.313
364.5147, 1198.083
364.9968, 1210.579
365.4789, 1227.311
365.9611, 1250.571
366.4432, 1277.483
366.9253, 1305.427
367.4074, 1333.668
367.8895, 1363.219
368.3716, 1395.350
368.8538, 1430.470
369.3359, 1466.507
369.8180, 1503.762
370.3001, 1541.617
370.7822, 1581.380
371.2643, 1621.435
371.7465, 1659.195
372.2286, 1693.027
372.7107, 1723.270
373.1928, 1750.646
373.6749, 1774.860
374.1570, 1797.242
374.6392, 1820.808
375.1213, 1841.288
375.6034, 1856.175
376.0855, 1865.330
376.5676, 1864.336
377.0497, 1845.120
377.5319, 1811.209
378.0140, 1779.720
378.4961, 1754.114
378.9782, 1730.138
379.4603, 1705.668
379.9424, 1680.300
380.4246, 1649.177
380.9067, 1604.655
381.3888, 1558.605
381.8709, 1523.133
382.3530, 1497.141
382.8351, 1470.478
383.3173, 1437.367
383.7994, 1399.373
384.2815, 1362.506
384.7636, 1323.438
385.2457, 1289.718
385.7278, 1264.566
386.2100, 1244.496
386.6921, 1225.759
387.1742, 1207.461
387.6563, 1191.201
388.1384, 1179.115
388.6205, 1171.973
389.1027, 1165.646
389.5848, 1163.508
390.0669, 1158.770
390.5490, 1144.918
391.0311, 1126.787
391.5132, 1114.137
391.9954, 1113.051
392.4775, 1119.839
392.9596, 1125.824
393.4417, 1133.198
393.9238, 1133.791
394.4059, 1119.022
394.8881, 1100.737
395.3702, 1086.788
395.8523, 1078.425
396.3344, 1074.648
396.8165, 1076.308
397.2986, 1082.180
397.7808, 1088.180
398.2629, 1094.662
398.7450, 1098.980
399.2271, 1095.269
399.7092, 1087.119
400.1913, 1086.737
400.6735, 1104.638
401.1556, 1123.414
401.6377, 1130.278
402.1198, 1127.633
402.6019, 1123.131
403.0840, 1119.636
403.5662, 1117.134
404.0483, 1115.560
404.5304, 1114.183
405.0125, 1115.399
405.4946, 1120.177
405.9767, 1127.026
406.4589, 1136.771
406.9410, 1148.134
407.4231, 1156.682
407.9052, 1158.596
408.3873, 1154.090
408.8694, 1147.263
409.3516, 1133.860
409.8336, 1123.559
410.3158, 1121.192
410.7979, 1121.654
411.2800, 1118.480
411.7621, 1109.424
412.2442, 1099.096
412.7263, 1096.056
413.2085, 1101.225
413.6906, 1094.642
414.1727, 1062.868
414.6548, 1031.737
415.1369, 1023.281
415.6190, 1032.222
416.1012, 1036.670
416.5833, 1023.739
417.0654, 1003.899
417.5475, 990.1559
418.0296, 982.3414
418.5117, 975.6702
418.9939, 968.0829
419.4760, 959.9031
419.9581, 952.1337
420.4402, 945.3078
420.9223, 937.6900
421.4044, 928.2142
421.8866, 918.0745
422.3687, 907.8081
422.8508, 897.8665
423.3329, 890.2084
423.8150, 887.2557
424.2971, 889.3381
424.7793, 889.2485
425.2614, 884.8112
425.7435, 880.6368
426.2256, 879.8872
426.7077, 879.3569
427.1898, 873.4995
427.6720, 860.0854
428.1541, 844.9241
428.6362, 837.3011
429.1183, 838.2330
429.6004, 840.2925
430.0826, 842.9780
430.5647, 846.3032
431.0468, 851.8245
431.5289, 858.3920
432.0110, 861.6202
432.4931, 856.7031
432.9753, 848.6268
433.4574, 844.7620
433.9395, 845.0542
434.4216, 846.0001
434.9037, 846.2543
435.3858, 845.9329
435.8680, 845.3616
436.3501, 844.7854
436.8322, 843.4511
437.3143, 840.0234
437.7964, 836.3753
438.2785, 834.4676
438.7607, 834.5690
439.2428, 836.0335
439.7249, 838.5597
440.2070, 842.1073
440.6891, 844.1318
441.1712, 843.7139
441.6534, 842.7654
442.1355, 840.2700
442.6176, 838.0066
443.0997, 838.4582
443.5818, 842.3269
444.0639, 847.1666
444.5461, 850.4916
445.0282, 852.4039
445.5103, 850.4727
445.9924, 840.5721
446.4745, 832.0065
446.9566, 831.3087
447.4388, 836.1693
447.9209, 840.6920
448.4030, 842.7563
448.8851, 843.7394
449.3672, 844.9703
449.8493, 846.3933
450.3315, 847.9844
450.8136, 850.3481
451.2957, 851.6464
451.7778, 848.0211
452.2599, 837.6368
452.7420, 829.6118
453.2242, 826.0585
453.7063, 824.2278
454.1884, 821.9826
454.6705, 819.5173
455.1526, 818.2220
455.6347, 819.0250
456.1169, 821.6672
456.5990, 825.3138
457.0811, 832.0917
457.5632, 836.1985
458.0453, 834.5547
458.5274, 831.9772
459.0095, 833.1627
459.4916, 838.0731
459.9738, 841.7139
460.4559, 837.0677
460.9380, 827.1476
461.4201, 826.7100
461.9022, 839.1957
462.3843, 850.0801
462.8665, 850.1779
463.3486, 843.7956
463.8307, 838.3699
464.3128, 833.7765
464.7949, 831.7217
465.2770, 834.3284
465.7592, 839.7507
466.2413, 845.7212
466.7234, 851.6961
467.2055, 855.5220
467.6876, 854.3693
468.1697, 847.6775
468.6519, 845.3399
469.1340, 851.6575
469.6161, 856.7798
470.0982, 856.9003
470.5803, 854.5545
471.0624, 853.3627
471.5446, 854.5748
472.0267, 856.6414
472.5088, 857.8350
472.9909, 858.2881
473.4730, 856.2940
473.9551, 848.8527
474.4373, 842.6680
474.9194, 841.3598
475.4015, 843.8289
475.8836, 847.8495
476.3657, 854.1709
476.8478, 859.7310
477.3300, 860.4490
477.8121, 857.4468
478.2942, 856.2729
478.7763, 859.2382
479.2584, 862.6483
479.7405, 861.3500
480.2227, 854.0164
480.7048, 847.8423
481.1869, 840.8281
481.6690, 837.0515
482.1511, 842.4984
482.6332, 852.7385
483.1154, 857.3480
483.5975, 850.8120
484.0796, 838.9887
484.5617, 834.4810
485.0438, 838.6978
485.5259, 846.1644
486.0081, 863.6135
486.4902, 878.0360
486.9723, 879.9084
487.4544, 872.4412
487.9365, 867.1995
488.4186, 872.6793
488.9008, 881.5459
489.3829, 880.6860
489.8650, 870.5834
490.3471, 864.9119
490.8292, 870.0220
491.3113, 880.0284
491.7935, 885.3423
492.2756, 885.3047
492.7577, 885.7657
493.2398, 886.3461
493.7219, 888.7406
494.2040, 896.8553
494.6862, 908.2906
495.1683, 915.5085
495.6504, 913.9975
496.1325, 906.2724
496.6146, 898.7488
497.0967, 888.3206
497.5789, 884.9636
498.0610, 896.3499
498.5431, 908.8668
499.0252, 913.8338
499.5073, 912.0980
499.9894, 910.1230
500.4716, 911.6979
500.9537, 915.4965
501.4358, 919.6295
501.9179, 924.1328
502.4000, 927.2019
502.8821, 927.1955
503.3643, 926.4449
503.8464, 929.6176
504.3285, 937.8103
504.8106, 943.0997
505.2927, 940.5419
505.7748, 937.1610
506.2570, 939.3168
506.7391, 946.0319
507.2212, 952.8654
507.7033, 957.4805
508.1854, 959.5112
508.6675, 956.9043
509.1496, 943.6549
509.6317, 938.7300
510.1139, 951.2761
510.5960, 965.5832
511.0781, 973.8844
511.5602, 975.7587
512.0424, 973.2484
512.5245, 965.8997
513.0066, 956.1284
513.4887, 947.3160
513.9708, 939.4464
514.4529, 934.2004
514.9351, 932.9933
515.4172, 933.5797
515.8993, 932.0886
516.3814, 927.8220
516.8635, 926.1025
517.3456, 929.4708
517.8278, 934.0178
518.3099, 937.8676
518.7920, 940.6061
519.2741, 942.2592
519.7562, 942.9570
520.2383, 941.5093
520.7205, 933.7621
521.2026, 914.7461
521.6847, 904.0981
522.1668, 912.0266
522.6489, 921.1147
523.1310, 922.9901
523.6132, 919.1620
524.0953, 914.8685
524.5774, 911.3996
525.0595, 909.8246
525.5416, 913.2504
526.0237, 920.4814
526.5059, 924.8510
526.9880, 924.7147
527.4701, 919.9379
527.9522, 908.4373
528.4343, 887.8994
528.9164, 876.6570
529.3986, 881.0497
529.8807, 888.0139
530.3628, 892.8763
530.8449, 895.8572
531.3270, 897.5524
531.8091, 898.2578
532.2913, 899.0394
532.7734, 902.5917
533.2554, 909.7684
533.7375, 910.8325
534.2197, 899.2173
534.7018, 890.5959
535.1839, 897.8051
535.6660, 912.5062
536.1481, 919.0623
536.6302, 910.4615
537.1124, 900.3367
537.5945, 897.7114
538.0766, 900.4722
538.5587, 905.7139
539.0408, 912.7761
539.5229, 917.4277
540.0051, 915.2613
540.4872, 906.5416
540.9693, 899.5881
541.4514, 894.1608
541.9335, 890.8362
542.4156, 892.3273
542.8978, 894.4753
543.3799, 892.1613
543.8620, 885.1912
544.3441, 879.1059
544.8262, 881.1631
545.3083, 888.3889
545.7905, 887.0739
546.2726, 875.2086
546.7547, 864.6040
547.2368, 860.5216
547.7189, 860.7960
548.2010, 861.5117
548.6832, 862.8086
549.1653, 863.9372
549.6474, 865.2141
550.1295, 865.8571
550.6116, 864.4144
551.0938, 861.5367
551.5759, 859.9928
552.0580, 861.6283
552.5401, 864.4470
553.0222, 862.6385
553.5043, 853.2992
553.9865, 846.8505
554.4686, 846.5679
554.9507, 847.3533
555.4328, 847.6013
555.9149, 846.9067
556.3970, 844.2789
556.8792, 837.0377
557.3613, 830.7621
557.8434, 834.0127
558.3255, 843.9380
558.8076, 848.8157
559.2897, 845.0537
559.7719, 838.5311
560.2540, 836.0112
560.7361, 838.2102
561.2182, 836.2372
561.7003, 826.2687
562.1824, 817.2281
562.6646, 811.3224
563.1467, 807.8740
563.6288, 806.4691
564.1109, 806.7561
564.5930, 807.1060
565.0751, 806.7396
565.5573, 805.2669
566.0394, 798.5480
566.5215, 784.0262
567.0036, 773.9844
567.4857, 777.8162
567.9678, 787.9730
568.4500, 789.0740
568.9321, 777.1910
569.4142, 769.7881
569.8963, 776.5679
570.3784, 786.4589
570.8605, 789.6799
571.3427, 786.4384
571.8248, 780.6238
572.3069, 774.1453
572.7890, 768.4219
573.2711, 767.5848
573.7532, 773.7781
574.2354, 777.9654
574.7175, 777.8374
575.1996, 777.0013
575.6817, 776.8828
576.1638, 777.6045
576.6459, 779.5339
577.1281, 784.2400
577.6102, 787.9424
578.0923, 785.0358
578.5744, 778.8356
579.0565, 778.9277
579.5386, 787.5137
580.0208, 796.2579
580.5029, 796.9378
580.9850, 789.7303
581.4671, 783.8282
581.9492, 777.5644
582.4313, 774.8744
582.9135, 780.4531
583.3956, 787.1025
583.8777, 786.3709
584.3598, 778.4133
584.8419, 772.8122
585.3240, 778.8825
585.8062, 791.3205
586.2883, 799.4449
586.7704, 803.2275
587.2525, 802.2656
587.7346, 794.8619
588.2167, 785.3421
588.6989, 780.4403
589.1810, 781.1799
589.6631, 782.7968
590.1452, 790.3115
590.6273, 793.4518
591.1094, 780.3672
591.5916, 761.3109
592.0737, 755.3080
592.5558, 768.9915
593.0379, 787.3027
593.5200, 790.9509
594.0021, 780.7790
594.4843, 770.6740
594.9664, 759.6495
595.4485, 753.3585
595.9306, 758.7070
596.4127, 769.6192
596.8948, 772.0387
597.3770, 760.8362
597.8591, 754.2963
598.3412, 764.3011
598.8233, 776.4647
599.3054, 776.1970
599.7875, 765.2638
600.2697, 754.0064
600.7518, 748.2099
601.2339, 746.9542
601.7160, 749.5183
602.1981, 757.6629
602.6802, 760.9469
603.1624, 754.9347
603.6445, 748.0232
604.1266, 744.2781
604.6087, 743.7002
605.0908, 746.8101
605.5729, 756.4030
606.0551, 765.1965
606.5372, 769.8087
607.0193, 770.5618
607.5014, 766.8508
607.9835, 759.1559
608.4656, 750.5616
608.9478, 743.1066
609.4299, 737.2783
609.9120, 736.0258
610.3941, 742.6219
610.8762, 746.8105
611.3583, 744.7794
611.8405, 741.6345
612.3226, 742.2321
612.8047, 745.0409
613.2868, 742.7736
613.7689, 725.3881
614.2510, 709.2213
614.7332, 712.0607
615.2153, 727.8660
615.6974, 743.3155
616.1795, 754.9951
616.6616, 759.3747
617.1437, 750.8773
617.6259, 730.1367
618.1080, 721.7351
618.5901, 736.0193
619.0722, 748.0306
619.5543, 755.8372
620.0364, 758.1336
620.5186, 750.0760
621.0007, 733.3909
621.4828, 721.5042
621.9649, 726.9065
622.4470, 738.1196
622.9291, 740.1422
623.4113, 734.6570
623.8934, 729.2212
624.3755, 726.3107
624.8576, 724.5840
625.3397, 722.1883
625.8218, 718.7874
626.3040, 718.0698
626.7861, 722.7857
627.2682, 726.9872
627.7503, 730.5124
628.2324, 732.3482
628.7145, 730.8599
629.1967, 726.0732
629.6788, 721.0466
630.1609, 716.2162
630.6430, 713.3083
631.1251, 717.7664
631.6072, 728.2930
632.0893, 732.9744
632.5714, 725.8989
633.0535, 716.4230
633.5356, 719.0818
634.0178, 737.8619
634.4999, 748.6121
634.9820, 744.2443
635.4641, 740.5557
635.9462, 742.7682
636.4283, 747.6926
636.9105, 751.6654
637.3926, 753.8248
637.8747, 754.6664
638.3568, 754.1220
638.8389, 752.6785
639.3210, 751.1392
639.8032, 749.5463
640.2853, 748.0159
640.7674, 746.5787
641.2495, 745.3456
641.7316, 744.7303
642.2137, 745.4011
642.6959, 743.9051
643.1780, 739.5944
643.6601, 734.0446
644.1422, 726.9695
644.6243, 719.3277
645.1064, 711.2764
645.5886, 703.0508
646.0707, 698.0424
646.5528, 701.0931
647.0349, 708.3251
647.5170, 713.1902
647.9991, 715.4026
648.4813, 714.0452
648.9634, 707.9463
649.4455, 700.9250
649.9276, 699.7216
650.4097, 706.7972
650.8918, 709.3686
651.3740, 702.6489
651.8561, 697.0930
652.3382, 697.0002
652.8203, 699.2361
653.3024, 700.0524
653.7845, 698.6131
654.2667, 695.8262
654.7488, 691.1783
655.2309, 686.1529
655.7130, 682.8841
656.1951, 681.4698
656.6772, 682.1818
657.1594, 685.3196
657.6415, 689.7065
658.1236, 693.7985
658.6057, 697.9559
659.0878, 699.8406
659.5699, 696.7920
660.0521, 694.5778
660.5342, 696.3094
661.0163, 698.7294
661.4984, 697.1758
661.9805, 691.0475
662.4626, 686.7538
662.9448, 690.9309
663.4269, 697.1987
663.9090, 697.5406
664.3911, 692.6678
664.8732, 686.0215
665.3553, 678.7876
665.8375, 672.0945
666.3196, 667.5487
666.8017, 665.3075
667.2838, 663.5220
667.7659, 663.3762
668.2480, 661.8446
668.7302, 654.4418
669.2123, 647.6802
669.6944, 649.3273
670.1765, 659.6873
670.6586, 668.7421
671.1407, 673.2043
671.6229, 673.6392
672.1050, 667.8984
672.5871, 658.8489
673.0692, 653.7099
673.5513, 654.4156
674.0334, 656.0444
674.5156, 652.4632
674.9977, 644.3770
675.4798, 642.7800
675.9619, 651.7271
676.4440, 656.8614
676.9261, 650.3492
677.4083, 641.4558
677.8904, 639.1363
678.3725, 642.9934
678.8546, 646.7825
679.3367, 651.5693
679.8188, 653.1394
680.3010, 646.3925
680.7831, 636.1083
681.2652, 628.0240
681.7473, 623.8470
682.2294, 624.3605
682.7115, 631.3458
683.1937, 642.3231
683.6758, 650.1603
684.1579, 655.3738
684.6400, 652.1196
685.1221, 634.0592
685.6042, 615.6249
686.0864, 611.4451
686.5685, 619.9901
687.0506, 624.9256
687.5327, 622.9534
688.0148, 621.1445
688.4969, 623.1114
688.9791, 624.7534
689.4612, 620.2202
689.9433, 611.2584
690.4254, 605.9138
690.9075, 609.6900
691.3896, 617.5381
691.8718, 621.9824
692.3539, 623.3859
692.8360, 623.9697
693.3181, 623.8329
693.8002, 624.8588
694.2823, 629.0883
694.7645, 635.2529
695.2466, 638.1750
695.7287, 632.9645
696.2108, 631.9717
696.6929, 637.4966
697.1750, 644.9356
697.6572, 653.8414
698.1393, 662.2463
698.6214, 665.8891
699.1035, 662.0818
699.5856, 659.3853
700.0677, 666.9286
700.5499, 679.4027
701.0320, 687.4063
701.5141, 690.6405
701.9962, 693.0702
702.4783, 696.7303
702.9604, 700.8868
703.4426, 703.5093
703.9247, 703.0568
704.4068, 708.6987
704.8889, 725.4012
705.3710, 740.8813
705.8531, 747.0530
706.3353, 751.0366
706.8174, 762.7394
707.2995, 784.0236
707.7816, 802.4951
708.2637, 812.5571
708.7458, 819.4589
709.2280, 826.1606
709.7101, 832.8763
710.1922, 838.3472
710.6743, 842.6872
711.1564, 850.3195
711.6385, 867.9645
712.1207, 892.6397
712.6028, 907.6852
713.0849, 911.2831
713.5670, 920.9382
714.0491, 945.0781
714.5313, 971.6844
715.0134, 987.2953
715.4955, 991.5048
715.9776, 998.0417
716.4597, 1007.183
716.9418, 1018.202
717.4240, 1030.142
717.9061, 1044.448
718.3882, 1065.169
718.8703, 1090.005
719.3524, 1109.764
719.8345, 1118.333
720.3167, 1122.093
720.7988, 1127.843
721.2809, 1134.943
721.7630, 1141.066
722.2451, 1145.928
722.7272, 1153.534
723.2094, 1167.974
723.6915, 1184.420
724.1736, 1187.161
724.6557, 1170.184
725.1378, 1156.193
725.6199, 1149.563
726.1021, 1141.947
726.5842, 1128.466
727.0663, 1111.738
727.5484, 1095.817
728.0305, 1081.256
728.5126, 1067.844
728.9948, 1058.572
729.4769, 1047.811
729.9590, 1028.429
730.4411, 1004.056
730.9232, 983.4009
731.4053, 969.4160
731.8874, 956.9812
732.3695, 940.8060
732.8516, 921.0875
733.3337, 895.9807
733.8159, 864.2035
734.2980, 841.8502
734.7801, 836.5963
735.2622, 838.3312
735.7443, 835.6307
736.2264, 828.2610
736.7086, 819.5811
737.1907, 807.5544
737.6728, 796.9250
738.1549, 791.0673
738.6370, 784.9526
739.1191, 771.5747
739.6013, 753.3683
740.0834, 741.9730
740.5655, 746.8508
741.0476, 752.9754
741.5297, 744.3688
742.0118, 728.9083
742.4940, 722.6046
742.9761, 726.0680
743.4582, 727.5048
743.9403, 719.2009
744.4224, 705.2825
744.9045, 693.5849
745.3867, 683.5792
745.8688, 681.6260
746.3509, 693.0332
746.8330, 701.1647
747.3151, 695.0701
747.7972, 681.2164
748.2794, 672.4111
748.7615, 669.8632
749.2436, 667.0427
749.7257, 663.0974
750.2078, 658.8377
750.6899, 654.0681
751.1721, 649.5011
751.6542, 646.4283
752.1363, 644.9390
752.6184, 643.2971
753.1005, 639.1492
753.5826, 634.8315
754.0648, 634.7106
754.5469, 637.6078
755.0290, 639.6215
755.5111, 639.7538
755.9932, 637.4001
756.4753, 631.5543
756.9575, 623.1847
757.4396, 617.3473
757.9217, 615.0600
758.4038, 611.9839
758.8859, 606.8109
759.3680, 601.6698
759.8502, 597.7961
760.3323, 595.0234
760.8144, 593.1462
761.2965, 592.8297
761.7786, 591.8152
762.2607, 590.6973
762.7429, 587.6204
763.2250, 580.4603
763.7071, 570.5422
764.1892, 559.7469
764.6713, 548.7919
765.1534, 539.5565
765.6356, 533.6014
766.1177, 530.6119
766.5998, 530.4523
767.0819, 532.8156
767.5640, 536.2818
768.0461, 540.4772
768.5283, 544.3390
769.0104, 546.8711
769.4925, 548.0007
769.9746, 546.0539
770.4567, 537.3160
770.9388, 535.3031
771.4210, 549.2808
771.9031, 563.4634
772.3852, 564.9091
772.8673, 556.8326
773.3494, 549.3062
773.8315, 542.7910
774.3137, 537.9788
774.7958, 537.6347
775.2779, 536.8165
775.7600, 528.2692
776.2421, 516.7213
776.7242, 514.0916
777.2064, 524.9777
777.6885, 537.9202
778.1706, 543.0435
778.6527, 542.1434
779.1348, 537.2693
779.6169, 529.4072
780.0991, 522.5876
780.5812, 518.1918
781.0633, 517.4767
781.5454, 522.9883
782.0275, 533.9091
782.5096, 539.0894
782.9918, 536.5017
783.4739, 534.2402
783.9560, 535.0961
784.4381, 535.4258
784.9202, 529.5656
785.4023, 520.0868
785.8845, 518.4423
786.3666, 533.1657
786.8487, 543.1907
787.3308, 541.5497
787.8129, 536.8515
788.2950, 533.9079
788.7772, 532.8443
789.2593, 533.3140
789.7414, 535.3597
790.2235, 536.0340
790.7056, 531.5294
791.1877, 525.0995
791.6699, 521.0051
792.1520, 519.3137
792.6341, 520.3517
793.1162, 524.0470
793.5983, 526.7064
794.0804, 523.8402
794.5626, 516.8839
795.0447, 513.9318
795.5268, 515.9656
796.0089, 514.6195
796.4910, 506.5423
796.9731, 498.6362
797.4553, 496.9688
797.9374, 499.9931
798.4195, 500.6142
798.9016, 497.4809
799.3837, 493.9773
799.8658, 488.6044
800.3480, 484.4413
800.8301, 482.7004
801.3122, 483.3025
801.7943, 486.7027
802.2764, 493.1555
802.7585, 498.6342
803.2407, 501.0516
803.7228, 501.6618
804.2049, 501.4789
804.6870, 500.3097
805.1691, 496.3536
805.6512, 490.0966
806.1334, 486.7998
806.6155, 491.8998
807.0976, 500.5035
807.5797, 500.1797
808.0618, 492.8981
808.5439, 495.0515
809.0261, 509.8560
809.5082, 523.1309
809.9903, 525.7869
810.4724, 520.4597
810.9545, 512.6161
811.4366, 499.7787
811.9188, 493.6493
812.4009, 497.8372
812.8830, 502.9081
813.3651, 506.6733
813.8472, 508.4794
814.3293, 506.7281
814.8115, 501.3019
815.2936, 497.4324
815.7757, 494.9888
816.2578, 495.3454
816.7399, 502.8808
817.2220, 510.6171
817.7042, 510.8461
818.1863, 504.7542
818.6684, 499.0932
819.1505, 496.9486
819.6326, 496.0212
820.1147, 493.8763
820.5969, 491.8158
821.0790, 492.7922
821.5611, 496.0166
822.0432, 497.4112
822.5253, 495.2781
823.0074, 492.5169
823.4896, 493.7031
823.9717, 497.6309
824.4538, 496.1479
824.9359, 488.7649
825.4180, 483.1900
825.9001, 481.1749
826.3823, 483.0070
826.8644, 489.9593
827.3465, 500.8802
827.8286, 508.2139
828.3107, 511.7675
828.7928, 512.0156
829.2749, 504.6286
829.7570, 498.7853
830.2391, 500.9186
830.7213, 506.8127
831.2034, 509.0323
831.6855, 506.0340
832.1676, 504.2723
832.6497, 507.8353
833.1318, 510.2524
833.6140, 506.9547
834.0961, 501.1213
834.5782, 495.0863
835.0603, 490.3402
835.5424, 490.9742
836.0245, 502.8596
836.5067, 515.0481
836.9888, 515.6439
837.4709, 508.9749
837.9530, 501.9228
838.4351, 495.7841
838.9172, 490.5570
839.3994, 486.1725
839.8815, 484.3884
840.3636, 489.5565
840.8457, 500.3773
841.3278, 507.3328
841.8099, 510.2828
842.2921, 509.9180
842.7742, 505.9155
843.2563, 500.7143
843.7384, 496.6278
844.2205, 493.6895
844.7026, 492.2526
845.1848, 493.2766
845.6669, 493.5605
846.1490, 492.4377
846.6311, 490.8785
847.1132, 489.5242
847.5953, 488.1083
848.0775, 486.0805
848.5596, 483.3151
849.0417, 480.3005
849.5238, 474.1105
850.0059, 471.1016
850.4880, 477.7260
850.9702, 486.8902
851.4523, 488.7505
851.9344, 483.6228
852.4165, 482.2138
852.8986, 492.6112
853.3807, 503.7672
853.8629, 508.7922
854.3450, 508.9363
854.8271, 503.9602
855.3092, 495.6628
855.7913, 488.4755
856.2734, 484.3250
856.7556, 482.6567
857.2377, 482.9652
857.7198, 485.1779
858.2019, 490.6655
858.6840, 498.4619
859.1661, 501.7359
859.6483, 498.4473
860.1304, 494.1973
860.6125, 494.3673
861.0946, 497.4796
861.5767, 497.8386
862.0588, 495.0092
862.5410, 492.5288
863.0231, 490.4142
863.5052, 490.0388
863.9873, 493.3825
864.4694, 497.4974
864.9515, 495.8927
865.4337, 485.8557
865.9158, 483.6476
866.3979, 502.5458
866.8800, 510.4850
867.3621, 488.3470
867.8442, 462.5215
868.3264, 455.3130
868.8085, 463.8531
869.2906, 472.0408
869.7727, 476.8768
870.2548, 482.0597
870.7369, 491.5409
871.2191, 498.7839
871.7012, 498.1197
872.1833, 492.4301
872.6654, 485.5858
873.1475, 478.7697
873.6296, 476.2743
874.1118, 485.6160
874.5939, 495.6494
875.0760, 494.5373
875.5581, 488.2682
876.0402, 486.9587
876.5223, 491.1558
877.0045, 494.9462
877.4866, 494.9903
877.9687, 492.8837
878.4508, 490.5377
878.9329, 487.7307
879.4150, 483.0854
879.8972, 477.1002
880.3793, 473.3395
880.8614, 473.0772
881.3435, 474.1543
881.8256, 473.8401
882.3077, 473.2456
882.7899, 478.5724
883.2720, 490.4604
883.7541, 497.1273
884.2362, 495.8085
884.7183, 493.9804
885.2004, 497.0002
885.6826, 501.4093
886.1647, 499.1726
886.6468, 488.3781
887.1289, 480.5208
887.6110, 475.6036
888.0931, 473.7031
888.5753, 476.2151
889.0574, 480.4167
889.5395, 484.8458
890.0216, 489.0385
890.5037, 489.5439
890.9858, 481.7720
891.4680, 477.1488
891.9501, 477.7560
892.4322, 480.4147
892.9143, 485.9335
893.3964, 491.3189
893.8785, 491.5412
894.3607, 485.8130
894.8428, 480.8315
895.3249, 478.8584
895.8070, 477.9829
896.2891, 477.5277
896.7712, 477.4643
897.2534, 478.1761
897.7355, 479.2782
898.2176, 479.6716
898.6997, 478.8775
899.1818, 477.5381
899.6639, 476.4683
900.1461, 474.8415
900.6282, 470.2752
901.1103, 464.7791
901.5924, 462.7122
902.0745, 464.9444
902.5566, 469.5187
903.0388, 476.1310
903.5209, 481.8436
904.0030, 480.5879
904.4851, 475.0345
904.9672, 472.0401
905.4493, 472.3213
905.9315, 475.8208
906.4136, 482.6042
906.8957, 488.0641
907.3778, 484.8930
907.8599, 475.5527
908.3420, 472.5515
908.8242, 475.7352
909.3063, 479.4907
909.7884, 482.9995
910.2705, 482.0434
910.7526, 472.0529
911.2347, 459.1144
911.7169, 460.1720
912.1990, 478.5011
912.6811, 487.2187
913.1632, 483.8793
913.6453, 478.6240
914.1274, 474.1551
914.6096, 470.4065
915.0917, 467.0667
915.5738, 464.3452
916.0559, 464.3085
916.5380, 467.9643
917.0201, 472.2979
917.5023, 479.7095
917.9844, 484.2274
918.4665, 480.9813
918.9486, 474.1119
919.4307, 469.5582
919.9128, 467.2763
920.3950, 467.7677
920.8771, 474.2133
921.3592, 479.1060
921.8413, 478.8879
922.3234, 478.4836
922.8055, 483.1912
923.2877, 490.2652
923.7698, 491.9956
924.2519, 485.3141
924.7340, 480.8882
925.2161, 482.5480
925.6982, 486.2179
926.1804, 491.7820
926.6625, 496.8494
927.1446, 498.1269
927.6267, 496.1702
928.1088, 495.0717
928.5909, 496.8836
929.0730, 498.6765
929.5551, 499.0907
930.0372, 498.4394
930.5193, 496.6108
931.0015, 494.0832
931.4836, 491.4853
931.9657, 489.0310
932.4478, 486.8107
932.9299, 484.0752
933.4120, 482.7016
933.8942, 485.2170
934.3763, 489.8900
934.8584, 495.1353
935.3405, 499.9720
935.8226, 501.8832
936.3047, 499.9792
936.7869, 497.9784
937.2690, 499.8498
937.7511, 503.8758
938.2332, 508.7160
938.7153, 512.9796
939.1974, 511.6312
939.6796, 504.8658
940.1617, 499.4032
940.6438, 499.3052
941.1259, 501.1024
941.6080, 498.8607
942.0901, 494.4439
942.5723, 495.0966
943.0544, 500.1190
943.5365, 503.5089
944.0186, 503.6821
944.5007, 503.3156
944.9828, 504.7749
945.4650, 506.5755
945.9471, 504.2349
946.4292, 498.3033
946.9113, 496.5461
947.3934, 499.5004
947.8755, 501.4341
948.3577, 499.8649
948.8398, 499.3859
949.3219, 506.0314
949.8040, 517.1007
950.2861, 518.8286
950.7682, 510.0557
951.2504, 503.8211
951.7325, 501.5819
952.2146, 501.6748
952.6967, 503.6876
953.1788, 506.4878
953.6609, 508.1439
954.1431, 508.7415
954.6252, 512.5926
955.1073, 521.7053
955.5894, 525.4545
956.0715, 518.9347
956.5536, 515.1290
957.0358, 524.6426
957.5179, 539.1224
958.0000, 540.3826
958.4821, 525.3354
958.9642, 518.8065
959.4464, 524.5658
959.9285, 530.7492
960.4106, 536.9110
960.8927, 539.3683
961.3748, 532.0837
961.8569, 520.0313
962.3391, 518.8102
962.8212, 534.2164
963.3033, 543.4109
963.7854, 543.5446
964.2675, 541.6752
964.7496, 538.0075
965.2318, 534.7431
965.7139, 535.1984
966.1960, 538.1066
966.6781, 536.6866
967.1602, 526.7061
967.6423, 520.2794
968.1245, 518.6699
968.6066, 519.3322
969.0887, 521.9041
969.5708, 525.9093
970.0529, 532.5096
970.5350, 540.9456
971.0172, 544.4000
971.4993, 536.8077
971.9814, 532.5829
972.4635, 535.4635
972.9456, 539.5119
973.4277, 542.0190
973.9099, 543.8835
974.3920, 547.3113
974.8741, 552.2198
975.3562, 553.3510
975.8383, 545.7711
976.3204, 540.1787
976.8026, 539.4309
977.2847, 540.7100
977.7668, 544.2152
978.2489, 547.6417
978.7310, 546.6939
979.2131, 540.8008
979.6953, 537.0863
980.1774, 537.2008
980.6595, 539.8558
981.1416, 547.5293
981.6237, 554.8576
982.1058, 557.9996
982.5880, 557.7243
983.0701, 555.3156
983.5522, 550.7851
984.0343, 547.9602
984.5164, 550.1343
984.9985, 551.5768
985.4807, 548.8254
985.9628, 545.1835
986.4449, 543.8536
986.9270, 543.9601
987.4091, 542.5391
987.8912, 538.5754
988.3734, 536.2692
988.8555, 537.8585
989.3376, 540.6617
989.8197, 546.4072
990.3018, 550.2256
990.7839, 545.2698
991.2661, 534.5352
991.7482, 526.5583
992.2303, 523.4301
992.7124, 524.1155
993.1945, 530.9946
993.6766, 538.3162
994.1588, 544.1588
994.6409, 547.6486
995.1230, 546.2991
995.6051, 541.9327
996.0872, 540.6786
996.5693, 545.5510
997.0515, 548.1965
997.5336, 541.6078
998.0157, 535.2407
998.4978, 536.3379
998.9799, 540.1137
999.4620, 540.0664
999.9442, 536.9993
1000.426, 536.5961
1000.908, 541.0792
1001.391, 546.8847
1001.873, 554.5037
1002.355, 560.5170
1002.837, 561.0451
1003.319, 559.6900
1003.801, 560.6534
1004.283, 564.1633
1004.765, 568.8624
1005.247, 575.4188
1005.730, 579.5584
1006.212, 578.6910
1006.694, 575.4118
1007.176, 569.8750
1007.658, 564.0156
1008.140, 559.8654
1008.622, 557.6340
1009.104, 556.8936
1009.586, 557.8070
1010.069, 559.2877
1010.551, 561.5768
1011.033, 563.4711
1011.515, 561.9119
1011.997, 560.9039
1012.479, 567.3965
1012.961, 579.9210
1013.443, 588.5898
1013.926, 589.6423
1014.408, 588.0329
1014.890, 585.2576
1015.372, 581.1047
1015.854, 572.3358
1016.336, 564.1210
1016.818, 565.1271
1017.300, 573.5698
1017.782, 576.3730
1018.265, 563.9980
1018.747, 559.5443
1019.229, 585.8533
1019.711, 606.8615
1020.193, 591.4308
1020.675, 564.3856
1021.157, 557.2207
1021.639, 569.1810
1022.122, 579.1044
1022.604, 580.9609
1023.086, 581.4474
1023.568, 581.2128
1024.050, 581.8218
1024.532, 584.2121
1025.014, 587.8512
1025.496, 593.4793
1025.978, 599.9926
1026.461, 602.6325
1026.943, 598.5525
1027.425, 594.8738
1027.907, 591.0487
1028.389, 590.6406
1028.871, 598.2633
1029.353, 607.9969
1029.835, 613.8909
1030.318, 616.0615
1030.800, 617.1458
1031.282, 617.7629
1031.764, 616.7770
1032.246, 610.8950
1032.728, 607.2305
1033.210, 609.6420
1033.692, 614.7585
1034.174, 619.7543
1034.656, 624.5242
1035.139, 629.4410
1035.621, 635.5714
1036.103, 639.3365
1036.585, 638.4062
1037.067, 637.7092
1037.549, 639.9498
1038.031, 642.0775
1038.513, 639.8330
1038.996, 635.1451
1039.478, 635.5227
1039.960, 643.1365
1040.442, 650.1612
1040.924, 658.7536
1041.406, 663.3876
1041.888, 659.1353
1042.370, 654.4205
1042.853, 655.3137
1043.335, 661.0065
1043.817, 669.8572
1044.299, 684.1945
1044.781, 692.1871
1045.263, 691.1352
1045.745, 689.2078
1046.227, 686.8506
1046.709, 686.7621
1047.192, 692.3146
1047.674, 700.1801
1048.156, 701.8458
1048.638, 695.8630
1049.120, 695.7435
1049.602, 703.5937
1050.084, 710.0683
1050.566, 712.9902
1051.048, 715.0077
1051.531, 717.4355
1052.013, 720.8347
1052.495, 726.7915
1052.977, 735.2976
1053.459, 739.5586
1053.941, 738.7490
1054.423, 739.6208
1054.905, 743.0567
1055.388, 750.6068
1055.870, 764.0022
1056.352, 777.9780
1056.834, 783.9516
1057.316, 783.4150
1057.798, 786.0911
1058.280, 791.8674
1058.762, 796.1421
1059.245, 798.3370
1059.727, 804.2988
1060.209, 817.1401
1060.691, 829.5029
1061.173, 831.8627
1061.655, 827.8696
1062.137, 827.6643
1062.619, 830.7709
1063.101, 835.4211
1063.583, 841.1392
1064.066, 846.6012
1064.548, 851.2802
1065.030, 853.8106
1065.512, 851.8222
1065.994, 849.2823
1066.476, 853.7679
1066.958, 862.7910
1067.440, 872.6074
1067.923, 881.3317
1068.405, 883.3284
1068.887, 877.9197
1069.369, 872.0179
1069.851, 870.0006
1070.333, 870.8278
1070.815, 874.2742
1071.297, 879.1577
1071.780, 885.4843
1072.262, 891.2928
1072.744, 891.5444
1073.226, 886.8703
1073.708, 884.5825
1074.190, 888.6511
1074.672, 894.4377
1075.154, 901.8434
1075.636, 906.2623
1076.119, 897.5849
1076.601, 887.5358
1077.083, 895.1197
1077.565, 916.3739
1078.047, 930.3596
1078.529, 929.0934
1079.011, 929.8298
1079.493, 943.2665
1079.975, 956.0518
1080.458, 958.8076
1080.940, 960.2938
1081.422, 970.2413
1081.904, 984.9253
1082.386, 992.9894
1082.868, 991.0457
1083.350, 997.5126
1083.832, 1024.219
1084.314, 1046.995
1084.797, 1060.094
1085.279, 1068.313
1085.761, 1068.425
1086.243, 1068.865
1086.725, 1084.988
1087.207, 1117.167
1087.689, 1142.003
1088.171, 1157.857
1088.654, 1169.217
1089.136, 1170.618
1089.618, 1179.409
1090.100, 1205.811
1090.582, 1238.332
1091.064, 1263.669
1091.546, 1283.665
1092.028, 1308.683
1092.510, 1340.796
1092.993, 1364.255
1093.475, 1376.820
1093.957, 1390.462
1094.439, 1408.777
1094.921, 1429.276
1095.403, 1449.629
1095.885, 1470.873
1096.367, 1496.200
1096.849, 1524.656
1097.332, 1549.636
1097.814, 1571.105
1098.296, 1588.053
1098.778, 1601.322
1099.260, 1624.199
1099.742, 1665.153
1100.224, 1707.188
1100.706, 1726.711
1101.189, 1732.784
1101.671, 1743.395
1102.153, 1755.721
1102.635, 1759.500
1103.117, 1758.275
1103.599, 1771.602
1104.081, 1805.286
1104.563, 1833.455
1105.046, 1828.016
1105.528, 1819.945
1106.010, 1842.653
1106.492, 1874.493
1106.974, 1889.273
1107.456, 1894.318
1107.938, 1908.775
1108.420, 1934.096
1108.902, 1952.814
1109.385, 1953.141
1109.867, 1956.124
1110.349, 1974.617
1110.831, 1993.356
1111.313, 2002.734
1111.795, 2008.163
1112.277, 2015.456
1112.759, 2024.683
1113.241, 2034.232
1113.724, 2044.487
1114.206, 2053.560
1114.688, 2063.405
1115.170, 2068.954
1115.652, 2066.393
1116.134, 2063.013
1116.616, 2063.156
1117.098, 2065.777
1117.581, 2069.024
1118.063, 2072.910
1118.545, 2077.751
1119.027, 2083.606
1119.509, 2090.509
1119.991, 2098.883
1120.473, 2106.726
1120.955, 2113.726
1121.438, 2116.163
1121.920, 2108.238
1122.402, 2095.736
1122.884, 2098.381
1123.366, 2113.513
1123.848, 2119.660
1124.330, 2118.014
1124.812, 2130.635
1125.294, 2160.903
1125.776, 2179.224
1126.259, 2164.762
1126.741, 2139.225
1127.223, 2128.493
1127.705, 2125.822
1128.187, 2122.758
1128.669, 2118.257
1129.151, 2109.650
1129.633, 2098.335
1130.116, 2088.518
1130.598, 2081.709
1131.080, 2080.386
1131.562, 2092.741
1132.044, 2102.589
1132.526, 2100.864
1133.008, 2091.446
1133.490, 2072.025
1133.973, 2050.304
1134.455, 2039.871
1134.937, 2040.469
1135.419, 2034.032
1135.901, 2011.391
1136.383, 1992.122
1136.865, 1981.408
1137.347, 1970.481
1137.829, 1956.540
1138.312, 1941.192
1138.794, 1926.835
1139.276, 1911.372
1139.758, 1888.061
1140.240, 1854.838
1140.722, 1834.599
1141.204, 1833.635
1141.686, 1811.599
1142.168, 1757.318
1142.651, 1707.738
1143.133, 1682.616
1143.615, 1665.746
1144.097, 1636.166
1144.579, 1599.021
1145.061, 1571.706
1145.543, 1550.950
1146.025, 1520.916
1146.508, 1483.026
1146.990, 1451.642
1147.472, 1429.789
1147.954, 1406.196
1148.436, 1372.245
1148.918, 1340.493
1149.400, 1328.521
1149.882, 1321.853
1150.365, 1304.504
1150.847, 1280.745
1151.329, 1256.033
1151.811, 1231.804
1152.293, 1208.707
1152.775, 1186.642
1153.257, 1167.962
1153.739, 1155.243
1154.221, 1143.535
1154.703, 1133.501
1155.186, 1121.245
1155.668, 1100.952
1156.150, 1079.146
1156.632, 1065.058
1157.114, 1057.826
1157.596, 1051.170
1158.078, 1044.361
1158.560, 1040.621
1159.043, 1042.286
1159.525, 1039.686
1160.007, 1029.255
1160.489, 1017.192
1160.971, 1007.205
1161.453, 1000.287
1161.935, 999.4955
1162.417, 1003.033
1162.900, 998.7258
1163.382, 988.8406
1163.864, 990.3888
1164.346, 1002.750
1164.828, 1007.659
1165.310, 999.4880
1165.792, 993.8198
1166.274, 1004.347
1166.756, 1018.250
1167.239, 1022.070
1167.721, 1019.625
1168.203, 1010.210
1168.685, 1001.054
1169.167, 1005.400
1169.649, 1020.439
1170.131, 1032.124
1170.613, 1036.800
1171.095, 1034.740
1171.578, 1014.738
1172.060, 1003.800
1172.542, 1017.588
1173.024, 1036.063
1173.506, 1050.005
1173.988, 1058.443
1174.470, 1056.703
1174.952, 1047.568
1175.434, 1053.636
1175.917, 1079.491
1176.399, 1103.057
1176.881, 1123.879
1177.363, 1141.361
1177.845, 1154.805
1178.327, 1169.070
1178.809, 1187.803
1179.291, 1206.658
1179.774, 1217.576
1180.256, 1223.888
1180.738, 1235.830
1181.220, 1252.127
1181.702, 1269.948
1182.184, 1288.394
1182.666, 1306.445
1183.148, 1323.735
1183.630, 1340.130
1184.113, 1353.153
1184.595, 1372.123
1185.077, 1409.818
1185.559, 1449.902
1186.041, 1480.365
1186.523, 1505.429
1187.005, 1528.232
1187.487, 1550.892
1187.969, 1576.473
1188.452, 1604.863
1188.934, 1640.107
1189.416, 1687.880
1189.898, 1732.253
1190.380, 1768.657
1190.862, 1807.859
1191.344, 1858.171
1191.826, 1903.625
1192.309, 1925.201
1192.791, 1934.824
1193.273, 1964.950
1193.755, 2015.502
1194.237, 2095.824
1194.719, 2199.843
1195.201, 2264.742
1195.683, 2286.776
1196.166, 2325.293
1196.648, 2407.292
1197.130, 2505.905
1197.612, 2600.803
1198.094, 2693.493
1198.576, 2786.644
1199.058, 2877.436
1199.540, 2952.107
1200.022, 3027.010
1200.505, 3133.750
1200.987, 3266.925
1201.469, 3387.083
1201.951, 3483.533
1202.433, 3573.695
1202.915, 3646.205
1203.397, 3734.725
1203.879, 3857.058
1204.361, 3981.174
1204.844, 4092.932
1205.326, 4194.695
1205.808, 4290.487
1206.290, 4378.958
1206.772, 4448.750
1207.254, 4500.174
1207.736, 4583.183
1208.218, 4696.679
1208.701, 4787.568
1209.183, 4845.471
1209.665, 4899.287
1210.147, 4964.503
1210.629, 5032.740
1211.111, 5097.292
1211.593, 5157.357
1212.075, 5207.849
1212.557, 5256.008
1213.040, 5317.919
1213.522, 5380.560
1214.004, 5412.706
1214.486, 5418.485
1214.968, 5444.853
1215.450, 5513.484
1215.932, 5571.946
1216.414, 5599.766
1216.896, 5634.351
1217.379, 5696.654
1217.861, 5746.916
1218.343, 5756.899
1218.825, 5754.091
1219.307, 5777.535
1219.789, 5818.477
1220.271, 5833.636
1220.753, 5825.040
1221.236, 5825.726
1221.718, 5836.200
1222.200, 5846.523
1222.682, 5855.224
1223.164, 5869.815
1223.646, 5894.162
1224.128, 5923.458
1224.610, 5960.472
1225.093, 5991.858
1225.575, 5999.739
1226.057, 6000.760
1226.539, 6010.474
1227.021, 6026.056
1227.503, 6044.745
1227.985, 6063.524
1228.467, 6069.886
1228.949, 6055.737
1229.432, 6049.309
1229.914, 6060.938
1230.396, 6059.785
1230.878, 6036.672
1231.360, 6010.882
1231.842, 5992.028
1232.324, 5975.922
1232.806, 5959.396
1233.288, 5938.239
1233.771, 5898.932
1234.253, 5845.268
1234.735, 5792.996
1235.217, 5739.354
1235.699, 5664.568
1236.181, 5575.520
1236.663, 5515.775
1237.145, 5501.545
1237.628, 5482.042
1238.110, 5424.879
1238.592, 5354.904
1239.074, 5273.774
1239.556, 5197.254
1240.038, 5142.570
1240.520, 5092.527
1241.002, 5028.197
1241.484, 4952.418
1241.967, 4872.672
1242.449, 4788.146
1242.931, 4708.191
1243.413, 4634.882
1243.895, 4550.164
1244.377, 4451.451
1244.859, 4357.447
1245.341, 4275.115
1245.823, 4195.876
1246.306, 4113.039
1246.788, 4028.034
1247.270, 3940.726
1247.752, 3855.601
1248.234, 3784.098
1248.716, 3716.163
1249.198, 3636.730
1249.680, 3548.642
1250.163, 3461.059
1250.645, 3375.888
1251.127, 3293.226
1251.609, 3211.080
1252.091, 3134.814
1252.573, 3065.792
1253.055, 3001.052
1253.537, 2939.661
1254.020, 2883.938
1254.502, 2837.382
1254.984, 2792.080
1255.466, 2736.859
1255.948, 2674.577
1256.430, 2609.196
1256.912, 2545.776
1257.394, 2509.358
1257.876, 2490.870
1258.359, 2455.914
1258.841, 2401.572
1259.323, 2347.204
1259.805, 2300.190
1260.287, 2257.722
1260.769, 2223.228
1261.251, 2185.282
1261.733, 2126.886
1262.215, 2077.479
1262.698, 2065.448
1263.180, 2061.389
1263.662, 2035.371
1264.144, 1994.799
1264.626, 1956.769
1265.108, 1921.126
1265.590, 1897.551
1266.072, 1886.020
1266.555, 1865.381
1267.037, 1834.520
1267.519, 1808.924
1268.001, 1792.795
1268.483, 1773.657
1268.965, 1742.006
1269.447, 1714.347
1269.929, 1713.703
1270.411, 1715.826
1270.894, 1696.787
1271.376, 1672.802
1271.858, 1656.069
##END=



