##NAMES=Fluor-liddicoatite
##RRUFFID=R060969
##IDEAL CHEMISTRY=Ca(Li_2_Al)Al_6_(Si_6_O_18_)(BO_3_)_3_(OH)_3_F
##LOCALITY=Antandro Komby mine, Manandona River, Antsirabe, Madagascar
##OWNER=RRUFF
##SOURCE=Michael Scott
##DESCRIPTION=Red and green prismatic striated crystal, we studied the red part.
##STATUS=The identification of this mineral has been confirmed only by single crystal X-ray diffraction.
##URL=rruff.info/R060969
146.5922, 1075.892
147.0743, 1081.067
147.5564, 1086.933
148.0385, 1094.534
148.5207, 1104.084
149.0028, 1109.708
149.4849, 1107.774
149.9670, 1103.675
150.4491, 1102.606
150.9312, 1111.847
151.4134, 1117.121
151.8955, 1112.962
152.3776, 1093.694
152.8597, 1085.224
153.3418, 1100.773
153.8239, 1125.907
154.3060, 1138.971
154.7882, 1127.261
155.2703, 1111.324
155.7524, 1098.422
156.2345, 1090.461
156.7166, 1083.522
157.1987, 1076.657
157.6809, 1070.234
158.1630, 1065.324
158.6451, 1065.552
159.1272, 1065.274
159.6093, 1061.039
160.0914, 1045.547
160.5736, 1032.679
161.0557, 1027.012
161.5378, 1028.011
162.0199, 1031.707
162.5020, 1041.109
162.9841, 1050.610
163.4663, 1055.143
163.9484, 1049.560
164.4305, 1041.445
164.9126, 1033.743
165.3947, 1026.560
165.8768, 1020.968
166.3590, 1018.736
166.8411, 1018.316
167.3232, 1017.426
167.8053, 1010.214
168.2874, 1005.199
168.7695, 1011.407
169.2517, 1032.547
169.7338, 1052.055
170.2159, 1054.798
170.6980, 1046.466
171.1801, 1040.581
171.6622, 1046.752
172.1444, 1058.060
172.6265, 1067.212
173.1086, 1073.000
173.5907, 1076.295
174.0728, 1075.950
174.5549, 1073.003
175.0371, 1072.142
175.5192, 1078.759
176.0013, 1089.058
176.4834, 1096.910
176.9655, 1099.731
177.4476, 1100.405
177.9298, 1102.974
178.4119, 1107.288
178.8940, 1110.339
179.3761, 1108.328
179.8582, 1103.118
180.3403, 1099.350
180.8224, 1100.448
181.3046, 1103.263
181.7867, 1101.683
182.2688, 1095.491
182.7509, 1087.616
183.2330, 1078.370
183.7151, 1069.145
184.1973, 1065.264
184.6794, 1074.409
185.1615, 1091.005
185.6436, 1097.073
186.1257, 1090.591
186.6078, 1080.248
187.0900, 1076.374
187.5721, 1078.808
188.0542, 1085.796
188.5363, 1099.791
189.0184, 1118.673
189.5005, 1131.435
189.9827, 1135.297
190.4648, 1136.384
190.9469, 1148.043
191.4290, 1170.493
191.9111, 1190.277
192.3932, 1195.646
192.8754, 1188.074
193.3575, 1187.079
193.8396, 1196.781
194.3217, 1213.004
194.8038, 1224.502
195.2859, 1230.792
195.7681, 1235.925
196.2502, 1242.696
196.7323, 1251.100
197.2144, 1261.004
197.6965, 1272.198
198.1786, 1284.869
198.6608, 1301.871
199.1429, 1325.108
199.6250, 1346.206
200.1071, 1354.521
200.5892, 1348.156
201.0714, 1346.836
201.5535, 1356.664
202.0356, 1376.583
202.5177, 1395.472
202.9998, 1413.303
203.4819, 1429.988
203.9641, 1444.785
204.4462, 1457.534
204.9283, 1469.150
205.4104, 1477.890
205.8925, 1483.271
206.3746, 1498.901
206.8568, 1528.076
207.3389, 1563.066
207.8210, 1590.089
208.3031, 1605.860
208.7852, 1625.694
209.2673, 1658.267
209.7494, 1707.671
210.2316, 1745.174
210.7137, 1765.057
211.1958, 1778.134
211.6779, 1807.282
212.1600, 1857.832
212.6421, 1911.324
213.1243, 1958.293
213.6064, 1994.345
214.0885, 2039.493
214.5706, 2098.011
215.0527, 2164.579
215.5348, 2221.414
216.0170, 2261.725
216.4991, 2305.136
216.9812, 2363.918
217.4633, 2443.428
217.9454, 2520.792
218.4275, 2596.587
218.9097, 2668.669
219.3918, 2730.283
219.8739, 2777.066
220.3560, 2819.398
220.8381, 2866.997
221.3202, 2928.821
221.8024, 2971.684
222.2845, 2987.084
222.7666, 2978.781
223.2487, 2974.639
223.7308, 2980.145
224.2129, 2982.840
224.6951, 2973.202
225.1772, 2948.656
225.6593, 2916.819
226.1414, 2875.910
226.6235, 2826.504
227.1056, 2781.433
227.5878, 2741.251
228.0699, 2704.198
228.5520, 2667.664
229.0341, 2631.480
229.5162, 2596.713
229.9983, 2563.662
230.4805, 2532.739
230.9626, 2500.120
231.4447, 2462.188
231.9268, 2426.041
232.4089, 2400.450
232.8910, 2390.154
233.3732, 2380.977
233.8553, 2369.824
234.3374, 2356.220
234.8195, 2343.705
235.3016, 2332.045
235.7837, 2321.707
236.2658, 2313.054
236.7480, 2305.081
237.2301, 2300.565
237.7122, 2300.247
238.1943, 2304.269
238.6764, 2312.549
239.1585, 2329.867
239.6407, 2348.558
240.1228, 2356.440
240.6049, 2347.514
241.0870, 2337.911
241.5691, 2333.844
242.0512, 2339.318
242.5334, 2334.418
243.0155, 2314.473
243.4976, 2286.552
243.9797, 2263.013
244.4618, 2247.607
244.9439, 2230.708
245.4261, 2208.575
245.9082, 2178.997
246.3903, 2150.673
246.8724, 2123.300
247.3545, 2097.289
247.8366, 2074.576
248.3188, 2061.230
248.8009, 2041.903
249.2830, 2008.053
249.7651, 1950.010
250.2472, 1906.484
250.7293, 1883.987
251.2115, 1873.562
251.6936, 1854.490
252.1757, 1821.989
252.6578, 1788.547
253.1399, 1758.993
253.6220, 1735.160
254.1042, 1710.278
254.5863, 1682.873
255.0684, 1655.089
255.5505, 1633.165
256.0326, 1619.610
256.5147, 1607.583
256.9969, 1593.269
257.4790, 1574.267
257.9611, 1559.199
258.4432, 1548.771
258.9253, 1542.055
259.4074, 1536.620
259.8896, 1532.408
260.3717, 1529.392
260.8538, 1528.242
261.3359, 1530.912
261.8180, 1529.169
262.3001, 1521.058
262.7823, 1508.792
263.2644, 1498.342
263.7465, 1488.958
264.2286, 1483.075
264.7107, 1483.679
265.1928, 1494.044
265.6750, 1498.489
266.1571, 1493.164
266.6392, 1482.487
267.1213, 1480.650
267.6034, 1490.470
268.0855, 1502.845
268.5677, 1514.284
269.0498, 1526.488
269.5319, 1528.665
270.0140, 1514.474
270.4961, 1492.245
270.9782, 1491.977
271.4604, 1522.467
271.9425, 1550.717
272.4246, 1553.519
272.9067, 1525.562
273.3888, 1504.162
273.8709, 1493.446
274.3531, 1490.793
274.8352, 1488.638
275.3173, 1486.799
275.7994, 1486.055
276.2815, 1486.479
276.7636, 1487.858
277.2457, 1493.162
277.7278, 1505.069
278.2100, 1519.239
278.6921, 1521.688
279.1742, 1510.050
279.6563, 1498.135
280.1384, 1495.492
280.6205, 1502.315
281.1027, 1510.214
281.5848, 1520.408
282.0669, 1528.994
282.5490, 1522.859
283.0311, 1499.938
283.5132, 1478.444
283.9954, 1472.719
284.4775, 1482.083
284.9596, 1487.395
285.4417, 1485.421
285.9238, 1479.690
286.4059, 1479.342
286.8881, 1484.766
287.3702, 1487.601
287.8523, 1479.061
288.3344, 1461.160
288.8165, 1450.780
289.2986, 1452.140
289.7808, 1457.981
290.2629, 1456.512
290.7450, 1447.738
291.2271, 1431.217
291.7092, 1398.276
292.1913, 1355.085
292.6735, 1329.689
293.1556, 1330.163
293.6377, 1341.214
294.1198, 1339.336
294.6019, 1325.543
295.0840, 1310.136
295.5662, 1298.274
296.0483, 1289.623
296.5304, 1284.091
297.0125, 1282.644
297.4946, 1281.858
297.9767, 1275.544
298.4589, 1265.001
298.9410, 1256.873
299.4231, 1257.656
299.9052, 1263.264
300.3873, 1265.111
300.8694, 1260.857
301.3516, 1256.650
301.8337, 1261.510
302.3158, 1272.829
302.7979, 1281.346
303.2800, 1276.460
303.7621, 1267.466
304.2443, 1267.621
304.7264, 1279.548
305.2085, 1296.468
305.6906, 1316.900
306.1727, 1338.079
306.6548, 1353.749
307.1370, 1356.676
307.6191, 1354.308
308.1012, 1353.779
308.5833, 1355.890
309.0654, 1359.738
309.5475, 1364.228
310.0297, 1369.985
310.5118, 1378.260
310.9939, 1394.408
311.4760, 1410.127
311.9581, 1417.075
312.4402, 1412.601
312.9224, 1411.415
313.4045, 1424.668
313.8866, 1446.031
314.3687, 1465.895
314.8508, 1483.609
315.3329, 1496.347
315.8151, 1501.446
316.2972, 1498.241
316.7793, 1493.006
317.2614, 1482.641
317.7435, 1473.499
318.2256, 1473.132
318.7078, 1492.768
319.1899, 1513.733
319.6720, 1528.752
320.1541, 1537.111
320.6362, 1544.408
321.1183, 1548.340
321.6005, 1553.373
322.0826, 1563.771
322.5647, 1588.536
323.0468, 1610.708
323.5289, 1624.842
324.0110, 1630.589
324.4932, 1636.602
324.9753, 1643.969
325.4574, 1652.033
325.9395, 1660.255
326.4216, 1669.694
326.9037, 1678.056
327.3859, 1683.556
327.8680, 1686.403
328.3501, 1693.174
328.8322, 1707.107
329.3143, 1722.604
329.7964, 1736.552
330.2786, 1751.810
330.7607, 1761.334
331.2428, 1761.459
331.7249, 1754.276
332.2070, 1752.934
332.6891, 1762.065
333.1712, 1771.843
333.6534, 1776.120
334.1355, 1770.371
334.6176, 1769.401
335.0997, 1775.082
335.5818, 1785.902
336.0639, 1797.153
336.5461, 1808.524
337.0282, 1820.937
337.5103, 1835.856
337.9924, 1854.378
338.4745, 1869.570
338.9566, 1880.437
339.4388, 1888.436
339.9209, 1895.889
340.4030, 1901.766
340.8851, 1911.296
341.3672, 1929.810
341.8493, 1958.076
342.3315, 1976.010
342.8136, 1981.070
343.2957, 1981.038
343.7778, 1988.555
344.2599, 2003.780
344.7420, 2019.403
345.2242, 2030.357
345.7063, 2038.312
346.1884, 2054.096
346.6705, 2079.450
347.1526, 2103.457
347.6347, 2111.075
348.1169, 2104.456
348.5990, 2095.532
349.0811, 2086.991
349.5632, 2079.850
350.0453, 2077.086
350.5274, 2078.781
351.0096, 2081.478
351.4917, 2083.236
351.9738, 2083.646
352.4559, 2081.591
352.9380, 2074.613
353.4201, 2066.876
353.9023, 2062.123
354.3844, 2060.603
354.8665, 2064.141
355.3486, 2080.191
355.8307, 2100.155
356.3128, 2112.238
356.7950, 2106.544
357.2771, 2101.125
357.7592, 2107.838
358.2413, 2125.586
358.7234, 2150.353
359.2055, 2182.498
359.6877, 2219.387
360.1698, 2259.233
360.6519, 2302.687
361.1340, 2347.113
361.6161, 2390.294
362.0982, 2433.847
362.5804, 2481.296
363.0625, 2533.486
363.5446, 2590.063
364.0267, 2652.004
364.5088, 2722.163
364.9909, 2789.871
365.4731, 2847.913
365.9552, 2903.896
366.4373, 2968.639
366.9194, 3044.232
367.4015, 3128.401
367.8836, 3222.012
368.3658, 3326.289
368.8479, 3434.954
369.3300, 3554.175
369.8121, 3674.025
370.2942, 3782.292
370.7763, 3863.794
371.2585, 3956.620
371.7406, 4073.030
372.2227, 4210.968
372.7048, 4335.256
373.1869, 4444.543
373.6690, 4539.860
374.1512, 4622.646
374.6333, 4693.174
375.1154, 4751.782
375.5975, 4804.234
376.0796, 4844.057
376.5617, 4842.597
377.0439, 4794.112
377.5260, 4724.132
378.0081, 4648.658
378.4902, 4567.588
378.9723, 4472.235
379.4544, 4359.916
379.9366, 4235.387
380.4187, 4098.811
380.9008, 3950.472
381.3829, 3810.343
381.8650, 3694.148
382.3471, 3595.275
382.8293, 3488.558
383.3114, 3370.118
383.7935, 3253.873
384.2756, 3155.776
384.7577, 3072.732
385.2398, 2993.345
385.7219, 2909.736
386.2040, 2826.458
386.6862, 2748.532
387.1683, 2675.301
387.6504, 2611.115
388.1325, 2565.089
388.6146, 2528.754
389.0967, 2489.772
389.5789, 2437.598
390.0610, 2387.932
390.5431, 2357.542
391.0252, 2342.708
391.5073, 2325.523
391.9894, 2287.958
392.4716, 2248.480
392.9537, 2223.943
393.4358, 2225.240
393.9179, 2227.573
394.4000, 2219.715
394.8821, 2205.998
395.3643, 2196.165
395.8464, 2192.843
396.3285, 2194.117
396.8106, 2200.578
397.2927, 2215.395
397.7748, 2225.558
398.2570, 2226.190
398.7391, 2222.273
399.2212, 2220.302
399.7033, 2219.973
400.1854, 2222.169
400.6675, 2227.658
401.1497, 2236.596
401.6318, 2245.528
402.1139, 2254.026
402.5960, 2263.010
403.0781, 2272.965
403.5602, 2283.092
404.0424, 2296.819
404.5245, 2317.456
405.0066, 2341.736
405.4887, 2356.437
405.9708, 2360.788
406.4529, 2357.791
406.9351, 2345.731
407.4172, 2323.827
407.8993, 2311.415
408.3814, 2312.495
408.8635, 2319.044
409.3456, 2318.879
409.8278, 2312.003
410.3099, 2297.190
410.7920, 2268.491
411.2741, 2231.240
411.7562, 2205.417
412.2383, 2192.959
412.7205, 2178.183
413.2026, 2138.370
413.6847, 2082.553
414.1668, 2035.108
414.6489, 2011.724
415.1310, 1995.314
415.6132, 1966.525
416.0953, 1925.983
416.5774, 1882.561
417.0595, 1835.592
417.5416, 1790.751
418.0237, 1753.744
418.5059, 1729.434
418.9880, 1708.009
419.4701, 1687.725
419.9522, 1666.827
420.4343, 1641.355
420.9164, 1605.313
421.3986, 1568.113
421.8807, 1532.277
422.3628, 1495.780
422.8449, 1469.821
423.3270, 1466.428
423.8091, 1471.803
424.2913, 1468.507
424.7734, 1446.120
425.2555, 1424.424
425.7376, 1406.975
426.2197, 1393.828
426.7018, 1381.275
427.1840, 1367.073
427.6661, 1355.614
428.1482, 1351.103
428.6303, 1357.804
429.1124, 1360.179
429.5945, 1356.236
430.0767, 1347.281
430.5588, 1335.885
431.0409, 1320.909
431.5230, 1308.121
432.0051, 1300.934
432.4872, 1299.271
432.9694, 1299.318
433.4515, 1301.161
433.9336, 1304.112
434.4157, 1308.955
434.8978, 1315.009
435.3799, 1316.873
435.8621, 1307.358
436.3442, 1294.169
436.8263, 1295.542
437.3084, 1310.931
437.7905, 1326.622
438.2726, 1332.592
438.7548, 1331.373
439.2369, 1326.636
439.7190, 1318.110
440.2011, 1308.175
440.6832, 1296.911
441.1653, 1285.504
441.6474, 1277.506
442.1295, 1274.976
442.6117, 1276.184
443.0938, 1279.988
443.5759, 1286.096
444.0580, 1295.457
444.5401, 1315.508
445.0222, 1336.588
445.5044, 1346.635
445.9865, 1337.100
446.4686, 1322.881
446.9507, 1303.753
447.4328, 1279.505
447.9149, 1265.289
448.3971, 1269.345
448.8792, 1276.122
449.3613, 1275.213
449.8434, 1259.434
450.3255, 1252.295
450.8076, 1259.257
451.2898, 1273.696
451.7719, 1277.039
452.2540, 1265.341
452.7361, 1255.813
453.2182, 1259.376
453.7003, 1275.601
454.1825, 1278.399
454.6646, 1265.462
455.1467, 1247.582
455.6288, 1236.747
456.1109, 1232.285
456.5930, 1230.433
457.0752, 1231.594
457.5573, 1233.462
458.0394, 1231.486
458.5215, 1226.038
459.0036, 1220.312
459.4857, 1215.780
459.9679, 1212.572
460.4500, 1211.254
460.9321, 1212.358
461.4142, 1213.871
461.8963, 1214.161
462.3784, 1213.879
462.8606, 1214.243
463.3427, 1215.409
463.8248, 1217.639
464.3069, 1221.827
464.7890, 1228.215
465.2711, 1232.855
465.7533, 1233.417
466.2354, 1232.579
466.7175, 1232.380
467.1996, 1233.744
467.6817, 1234.898
468.1638, 1236.252
468.6460, 1237.328
469.1281, 1236.283
469.6102, 1230.876
470.0923, 1226.722
470.5744, 1226.820
471.0565, 1232.591
471.5387, 1234.818
472.0208, 1232.646
472.5029, 1228.353
472.9850, 1224.539
473.4671, 1221.234
473.9492, 1218.072
474.4314, 1214.659
474.9135, 1211.541
475.3956, 1210.497
475.8777, 1211.531
476.3598, 1213.190
476.8419, 1214.340
477.3241, 1215.357
477.8062, 1216.986
478.2883, 1219.328
478.7704, 1222.339
479.2525, 1228.386
479.7346, 1235.043
480.2168, 1237.089
480.6989, 1223.478
481.1810, 1211.166
481.6631, 1214.290
482.1452, 1232.857
482.6273, 1248.530
483.1095, 1251.266
483.5916, 1249.271
484.0737, 1248.735
484.5558, 1250.708
485.0379, 1254.242
485.5201, 1260.249
486.0022, 1267.765
486.4843, 1274.376
486.9664, 1283.127
487.4485, 1287.180
487.9306, 1282.367
488.4128, 1266.491
488.8949, 1259.507
489.3770, 1264.883
489.8591, 1273.573
490.3412, 1274.359
490.8233, 1265.378
491.3055, 1265.091
491.7876, 1279.289
492.2697, 1301.900
492.7518, 1320.153
493.2339, 1333.866
493.7160, 1342.134
494.1982, 1340.888
494.6803, 1334.021
495.1624, 1330.188
495.6445, 1329.846
496.1266, 1333.004
496.6087, 1342.444
497.0908, 1354.931
497.5729, 1365.078
498.0551, 1367.478
498.5372, 1369.880
499.0193, 1378.778
499.5014, 1392.599
499.9835, 1403.938
500.4656, 1407.670
500.9478, 1409.654
501.4299, 1413.256
501.9120, 1419.562
502.3941, 1425.828
502.8762, 1431.492
503.3583, 1436.932
503.8405, 1442.537
504.3226, 1447.310
504.8047, 1453.872
505.2868, 1464.221
505.7689, 1477.337
506.2510, 1483.851
506.7332, 1480.506
507.2153, 1478.196
507.6974, 1487.855
508.1795, 1509.901
508.6616, 1517.214
509.1437, 1504.771
509.6259, 1485.569
510.1080, 1478.968
510.5901, 1483.116
511.0722, 1487.038
511.5543, 1486.528
512.0364, 1483.128
512.5186, 1478.320
513.0007, 1472.254
513.4828, 1466.625
513.9649, 1462.691
514.4470, 1459.706
514.9291, 1457.600
515.4113, 1458.032
515.8934, 1454.805
516.3755, 1439.500
516.8576, 1419.727
517.3397, 1407.325
517.8218, 1414.628
518.3040, 1420.367
518.7861, 1419.085
519.2682, 1410.358
519.7503, 1396.507
520.2324, 1372.576
520.7145, 1348.483
521.1967, 1330.112
521.6788, 1318.493
522.1609, 1309.465
522.6430, 1303.203
523.1251, 1299.162
523.6072, 1296.935
524.0894, 1296.692
524.5715, 1296.297
525.0536, 1295.288
525.5357, 1293.491
526.0178, 1289.486
526.4999, 1283.270
526.9821, 1278.066
527.4642, 1276.041
527.9463, 1276.808
528.4284, 1280.859
528.9105, 1289.812
529.3926, 1296.646
529.8748, 1292.073
530.3569, 1281.865
530.8390, 1276.019
531.3211, 1286.815
531.8032, 1295.114
532.2853, 1287.594
532.7675, 1265.803
533.2496, 1254.453
533.7317, 1270.179
534.2138, 1289.034
534.6959, 1297.639
535.1780, 1288.676
535.6602, 1283.875
536.1423, 1286.798
536.6244, 1291.232
537.1065, 1286.008
537.5886, 1266.372
538.0707, 1254.147
538.5529, 1257.650
539.0350, 1272.321
539.5171, 1276.865
539.9992, 1270.521
540.4813, 1264.556
540.9634, 1268.107
541.4456, 1278.290
541.9277, 1287.423
542.4098, 1295.041
542.8919, 1299.733
543.3740, 1298.601
543.8561, 1293.608
544.3383, 1288.232
544.8204, 1285.264
545.3025, 1280.982
545.7846, 1270.393
546.2667, 1255.763
546.7488, 1246.552
547.2310, 1252.994
547.7131, 1260.104
548.1952, 1259.828
548.6773, 1247.458
549.1594, 1239.748
549.6415, 1239.647
550.1237, 1242.576
550.6058, 1243.806
551.0879, 1241.678
551.5700, 1242.583
552.0521, 1249.181
552.5342, 1258.391
553.0164, 1261.395
553.4985, 1257.956
553.9806, 1250.573
554.4627, 1236.863
554.9448, 1219.777
555.4269, 1212.687
555.9091, 1216.094
556.3912, 1220.995
556.8733, 1217.500
557.3554, 1210.291
557.8375, 1207.531
558.3196, 1213.571
558.8018, 1220.299
559.2839, 1223.999
559.7660, 1224.267
560.2481, 1220.368
560.7302, 1205.623
561.2123, 1192.583
561.6945, 1186.604
562.1766, 1188.270
562.6587, 1191.182
563.1408, 1198.096
563.6229, 1203.170
564.1050, 1202.831
564.5872, 1194.893
565.0693, 1186.465
565.5514, 1175.837
566.0335, 1166.946
566.5156, 1168.940
566.9977, 1182.679
567.4799, 1191.244
567.9620, 1186.873
568.4441, 1175.349
568.9262, 1170.840
569.4083, 1172.878
569.8904, 1176.767
570.3726, 1180.867
570.8547, 1184.255
571.3368, 1185.148
571.8189, 1182.938
572.3010, 1181.630
572.7831, 1183.937
573.2653, 1188.441
573.7474, 1193.523
574.2295, 1201.057
574.7116, 1206.618
575.1937, 1207.929
575.6758, 1206.387
576.1580, 1206.495
576.6401, 1209.450
577.1222, 1212.721
577.6042, 1215.591
578.0864, 1218.091
578.5685, 1220.057
579.0506, 1220.547
579.5327, 1222.997
580.0148, 1231.034
580.4969, 1244.357
580.9791, 1258.273
581.4612, 1272.593
581.9433, 1286.111
582.4254, 1298.960
582.9075, 1309.628
583.3896, 1313.310
583.8718, 1299.018
584.3539, 1283.794
584.8360, 1285.560
585.3181, 1301.081
585.8002, 1313.958
586.2823, 1316.353
586.7645, 1313.676
587.2466, 1307.608
587.7287, 1295.969
588.2108, 1289.590
588.6929, 1290.286
589.1750, 1296.501
589.6572, 1308.167
590.1393, 1330.965
590.6214, 1346.417
591.1035, 1351.020
591.5856, 1348.589
592.0677, 1348.343
592.5499, 1350.601
593.0320, 1351.790
593.5141, 1350.101
593.9962, 1346.216
594.4783, 1341.651
594.9604, 1336.435
595.4426, 1332.352
595.9247, 1332.212
596.4068, 1333.395
596.8889, 1331.324
597.3710, 1323.603
597.8531, 1319.298
598.3353, 1327.925
598.8174, 1341.260
599.2995, 1349.134
599.7816, 1341.542
600.2637, 1336.418
600.7458, 1340.042
601.2280, 1349.491
601.7101, 1353.718
602.1922, 1350.446
602.6743, 1345.754
603.1564, 1341.960
603.6385, 1339.024
604.1207, 1333.737
604.6028, 1325.140
605.0849, 1318.115
605.5670, 1318.965
606.0491, 1325.664
606.5313, 1329.613
607.0134, 1329.953
607.4955, 1326.234
607.9776, 1314.127
608.4597, 1297.982
608.9418, 1286.041
609.4240, 1280.947
609.9061, 1281.838
610.3882, 1294.983
610.8703, 1315.508
611.3524, 1324.271
611.8345, 1303.367
612.3167, 1281.268
612.7988, 1270.516
613.2809, 1272.926
613.7630, 1274.816
614.2451, 1277.865
614.7272, 1278.137
615.2094, 1270.899
615.6915, 1254.859
616.1736, 1242.453
616.6557, 1234.384
617.1378, 1231.412
617.6199, 1239.110
618.1021, 1254.540
618.5842, 1262.899
619.0663, 1254.023
619.5484, 1240.162
620.0305, 1235.546
620.5126, 1238.438
620.9948, 1241.883
621.4769, 1242.774
621.9590, 1242.598
622.4411, 1241.754
622.9232, 1240.070
623.4053, 1239.721
623.8875, 1246.926
624.3696, 1251.396
624.8517, 1245.130
625.3338, 1218.579
625.8159, 1203.691
626.2980, 1204.704
626.7802, 1213.145
627.2623, 1216.756
627.7444, 1215.380
628.2265, 1212.459
628.7086, 1207.608
629.1907, 1203.223
629.6729, 1206.086
630.1550, 1214.662
630.6371, 1221.205
631.1192, 1221.834
631.6013, 1217.889
632.0834, 1206.893
632.5656, 1189.102
633.0477, 1179.126
633.5298, 1192.273
634.0119, 1209.595
634.4940, 1217.359
634.9761, 1207.272
635.4583, 1200.885
635.9404, 1199.816
636.4225, 1202.040
636.9046, 1205.726
637.3867, 1211.550
637.8688, 1216.475
638.3510, 1220.605
638.8331, 1222.831
639.3152, 1218.791
639.7973, 1209.036
640.2794, 1201.000
640.7615, 1197.710
641.2437, 1198.748
641.7258, 1206.446
642.2079, 1219.606
642.6900, 1228.948
643.1721, 1225.282
643.6542, 1217.815
644.1364, 1213.715
644.6185, 1214.800
645.1006, 1215.880
645.5827, 1216.905
646.0648, 1216.684
646.5469, 1214.118
647.0291, 1207.593
647.5112, 1201.532
647.9933, 1195.588
648.4754, 1190.697
648.9575, 1189.635
649.4396, 1192.635
649.9218, 1194.254
650.4039, 1191.659
650.8860, 1187.576
651.3681, 1187.796
651.8502, 1191.890
652.3323, 1197.380
652.8145, 1206.252
653.2966, 1213.550
653.7787, 1211.858
654.2608, 1200.845
654.7429, 1195.791
655.2250, 1210.931
655.7072, 1228.625
656.1893, 1236.515
656.6714, 1227.636
657.1535, 1220.339
657.6356, 1212.574
658.1177, 1208.260
658.5999, 1214.573
659.0820, 1234.703
659.5641, 1245.617
660.0462, 1240.432
660.5283, 1229.062
661.0104, 1231.042
661.4926, 1244.203
661.9747, 1257.003
662.4568, 1267.351
662.9389, 1272.593
663.4210, 1263.159
663.9031, 1243.407
664.3853, 1233.920
664.8674, 1259.361
665.3495, 1286.012
665.8316, 1292.332
666.3137, 1271.725
666.7958, 1261.053
667.2780, 1270.475
667.7601, 1282.280
668.2422, 1284.175
668.7243, 1273.081
669.2064, 1265.100
669.6885, 1261.793
670.1707, 1259.142
670.6528, 1250.760
671.1349, 1237.824
671.6170, 1227.371
672.0991, 1222.035
672.5812, 1218.526
673.0634, 1212.775
673.5455, 1205.894
674.0276, 1200.383
674.5097, 1193.494
674.9918, 1192.059
675.4739, 1204.156
675.9561, 1227.001
676.4382, 1241.857
676.9203, 1241.899
677.4024, 1238.219
677.8845, 1234.534
678.3666, 1230.990
678.8488, 1222.025
679.3309, 1204.718
679.8130, 1190.350
680.2951, 1190.622
680.7772, 1202.331
681.2593, 1208.243
681.7415, 1206.691
682.2236, 1200.230
682.7057, 1186.239
683.1878, 1170.478
683.6699, 1162.789
684.1520, 1173.264
684.6342, 1178.864
685.1163, 1165.095
685.5984, 1140.523
686.0805, 1119.452
686.5626, 1102.146
687.0447, 1091.873
687.5268, 1092.961
688.0089, 1101.080
688.4910, 1099.463
688.9731, 1085.674
689.4553, 1072.822
689.9374, 1066.379
690.4195, 1065.175
690.9016, 1066.061
691.3837, 1068.915
691.8658, 1072.107
692.3480, 1075.321
692.8301, 1077.807
693.3122, 1077.519
693.7943, 1073.879
694.2764, 1073.375
694.7585, 1080.448
695.2407, 1090.840
695.7228, 1101.285
696.2049, 1110.786
696.6870, 1121.642
697.1691, 1134.089
697.6512, 1147.719
698.1334, 1161.459
698.6155, 1174.963
699.0976, 1192.867
699.5797, 1217.643
700.0618, 1244.434
700.5439, 1263.843
701.0261, 1277.993
701.5082, 1294.715
701.9903, 1317.926
702.4724, 1344.327
702.9545, 1372.410
703.4366, 1401.421
703.9188, 1428.650
704.4009, 1445.904
704.8830, 1468.092
705.3651, 1505.102
705.8472, 1556.251
706.3293, 1597.607
706.8115, 1623.813
707.2936, 1649.003
707.7757, 1680.655
708.2578, 1718.648
708.7399, 1756.549
709.2220, 1793.824
709.7042, 1833.401
710.1863, 1878.046
710.6684, 1926.491
711.1505, 1976.351
711.6326, 2028.267
712.1147, 2077.798
712.5969, 2116.954
713.0790, 2154.085
713.5611, 2198.006
714.0432, 2256.796
714.5253, 2313.569
715.0074, 2366.942
715.4896, 2417.944
715.9717, 2469.052
716.4538, 2519.766
716.9359, 2570.638
717.4180, 2622.024
717.9001, 2673.503
718.3823, 2724.628
718.8644, 2775.227
719.3465, 2825.910
719.8286, 2881.260
720.3107, 2933.147
720.7928, 2970.279
721.2750, 2995.155
721.7571, 3018.516
722.2392, 3046.599
722.7213, 3072.073
723.2034, 3092.556
723.6855, 3107.870
724.1677, 3113.619
724.6498, 3108.734
725.1319, 3095.843
725.6140, 3074.611
726.0961, 3045.180
726.5782, 3016.661
727.0604, 2989.474
727.5425, 2957.910
728.0246, 2919.644
728.5067, 2872.777
728.9888, 2809.680
729.4709, 2727.467
729.9531, 2644.925
730.4352, 2575.711
730.9173, 2511.899
731.3994, 2444.632
731.8815, 2369.055
732.3636, 2295.033
732.8458, 2220.808
733.3279, 2149.571
733.8100, 2086.840
734.2921, 2033.346
734.7742, 1983.596
735.2563, 1938.091
735.7385, 1893.536
736.2206, 1840.490
736.7027, 1782.222
737.1848, 1734.895
737.6669, 1709.521
738.1490, 1692.503
738.6312, 1676.452
739.1133, 1659.534
739.5954, 1636.647
740.0775, 1597.945
740.5596, 1561.211
741.0417, 1532.461
741.5239, 1511.212
742.0060, 1494.408
742.4881, 1484.377
742.9702, 1472.877
743.4523, 1454.142
743.9344, 1430.234
744.4166, 1416.298
744.8987, 1412.232
745.3808, 1408.417
745.8629, 1398.970
746.3450, 1385.046
746.8271, 1366.291
747.3093, 1342.477
747.7914, 1321.538
748.2735, 1310.716
748.7556, 1301.453
749.2377, 1287.351
749.7198, 1265.707
750.2020, 1246.437
750.6841, 1232.800
751.1662, 1217.325
751.6483, 1187.144
752.1304, 1142.230
752.6125, 1123.101
753.0947, 1137.703
753.5768, 1161.079
754.0589, 1166.060
754.5410, 1158.760
755.0231, 1150.859
755.5052, 1146.937
755.9874, 1139.317
756.4695, 1119.437
756.9516, 1094.859
757.4337, 1075.945
757.9158, 1069.095
758.3979, 1061.501
758.8801, 1051.722
759.3622, 1041.098
759.8443, 1032.350
760.3264, 1025.768
760.8085, 1018.874
761.2906, 1012.136
761.7728, 1003.203
762.2549, 984.1611
762.7370, 958.7543
763.2191, 938.8698
763.7012, 935.8320
764.1833, 934.8524
764.6655, 927.4905
765.1476, 914.7587
765.6297, 901.4935
766.1118, 886.0783
766.5939, 872.8188
767.0760, 863.1101
767.5582, 856.5479
768.0403, 850.8204
768.5224, 846.1974
769.0045, 840.7419
769.4866, 833.8400
769.9688, 825.2791
770.4509, 814.0381
770.9330, 800.3478
771.4151, 786.0782
771.8972, 769.8483
772.3793, 755.6628
772.8615, 747.3912
773.3436, 745.7759
773.8257, 743.3743
774.3078, 736.1913
774.7899, 731.1407
775.2720, 732.9240
775.7542, 742.6530
776.2363, 746.2316
776.7184, 742.6801
777.2005, 737.9730
777.6826, 737.9183
778.1647, 740.5065
778.6469, 740.3680
779.1290, 736.7498
779.6111, 733.7166
780.0932, 734.3797
780.5753, 736.7236
781.0574, 738.8659
781.5396, 740.0370
782.0217, 742.2468
782.5038, 746.3970
782.9859, 750.9011
783.4680, 754.8376
783.9501, 758.5262
784.4323, 759.1567
784.9144, 756.0967
785.3965, 751.5837
785.8786, 746.0894
786.3607, 741.4687
786.8428, 743.1926
787.3250, 755.2341
787.8071, 765.5414
788.2892, 764.9808
788.7713, 758.8614
789.2534, 753.6268
789.7355, 748.5277
790.2177, 747.6328
790.6998, 754.4459
791.1819, 762.7423
791.6640, 762.7554
792.1461, 753.7465
792.6282, 745.7407
793.1104, 740.4678
793.5925, 737.3620
794.0746, 738.3176
794.5567, 740.5876
795.0388, 737.4904
795.5209, 720.2404
796.0031, 705.6801
796.4852, 706.5823
796.9672, 715.1663
797.4493, 715.8636
797.9315, 699.5308
798.4136, 687.3132
798.8957, 682.9393
799.3778, 683.9709
799.8599, 686.1115
800.3420, 689.3142
800.8242, 690.5501
801.3063, 688.5838
801.7884, 684.3478
802.2705, 676.0549
802.7526, 666.5702
803.2347, 662.8831
803.7169, 676.2556
804.1990, 687.5007
804.6811, 685.6760
805.1632, 675.1642
805.6453, 671.9368
806.1274, 678.5056
806.6096, 687.6017
807.0917, 699.2896
807.5738, 711.1342
808.0559, 715.1443
808.5380, 711.8619
809.0201, 706.7409
809.5023, 700.6519
809.9844, 695.4656
810.4665, 693.9033
810.9486, 694.9929
811.4307, 695.5072
811.9128, 696.5851
812.3950, 694.2828
812.8771, 683.6382
813.3592, 667.8549
813.8413, 663.0013
814.3234, 672.0620
814.8055, 680.9161
815.2877, 684.3494
815.7698, 683.4180
816.2519, 679.5499
816.7340, 673.4416
817.2161, 668.9783
817.6982, 667.0428
818.1804, 668.7961
818.6625, 680.4261
819.1446, 698.7037
819.6267, 705.0967
820.1088, 681.1066
820.5909, 661.1765
821.0731, 655.8634
821.5552, 662.9917
822.0373, 668.5233
822.5194, 672.2422
823.0015, 676.9323
823.4836, 686.5555
823.9658, 697.0333
824.4479, 698.1554
824.9300, 692.1002
825.4121, 689.8861
825.8942, 703.2311
826.3763, 716.2423
826.8585, 718.3461
827.3406, 710.0735
827.8227, 709.9492
828.3048, 722.5947
828.7869, 734.3891
829.2690, 738.4591
829.7512, 737.3307
830.2333, 744.6591
830.7154, 759.7537
831.1975, 771.2842
831.6796, 768.3713
832.1617, 761.2880
832.6439, 762.0962
833.1260, 769.3536
833.6081, 772.5499
834.0902, 758.0714
834.5723, 749.8234
835.0544, 761.7946
835.5366, 790.0815
836.0187, 796.4870
836.5008, 776.1902
836.9829, 757.1346
837.4650, 754.8821
837.9471, 762.6106
838.4293, 765.4982
838.9114, 763.9054
839.3935, 759.9901
839.8756, 752.3525
840.3577, 745.1334
840.8398, 743.8417
841.3220, 747.0089
841.8041, 739.6614
842.2862, 712.8577
842.7683, 689.4852
843.2504, 677.9696
843.7325, 675.9138
844.2147, 673.0137
844.6968, 669.2624
845.1789, 664.0710
845.6610, 653.0740
846.1431, 643.2401
846.6252, 645.1221
847.1074, 655.8284
847.5895, 663.5969
848.0716, 659.5252
848.5537, 656.6122
849.0358, 661.7868
849.5179, 672.0493
850.0001, 672.4763
850.4822, 660.7826
850.9643, 650.4050
851.4464, 646.0858
851.9285, 646.9564
852.4106, 654.8536
852.8928, 667.0671
853.3749, 673.4847
853.8570, 663.5248
854.3391, 651.5528
854.8212, 645.1818
855.3033, 643.4438
855.7855, 642.1440
856.2676, 641.0618
856.7497, 639.8095
857.2318, 636.6622
857.7139, 634.4319
858.1960, 644.8102
858.6782, 666.0770
859.1603, 679.6854
859.6424, 674.8314
860.1245, 663.3839
860.6066, 654.4046
861.0887, 648.1438
861.5709, 645.3790
862.0530, 649.7919
862.5351, 653.6025
863.0172, 656.7589
863.4993, 657.7321
863.9814, 651.1131
864.4636, 635.5315
864.9457, 627.2446
865.4278, 632.4731
865.9099, 642.9321
866.3920, 646.9517
866.8741, 646.3915
867.3563, 645.3124
867.8384, 644.5901
868.3205, 644.4392
868.8026, 646.3935
869.2847, 648.4577
869.7668, 647.2133
870.2490, 640.6309
870.7311, 636.3226
871.2132, 635.6619
871.6953, 636.6947
872.1774, 636.1012
872.6595, 634.6714
873.1417, 635.8132
873.6238, 641.8127
874.1059, 646.0657
874.5880, 640.7729
875.0701, 632.2980
875.5522, 627.9501
876.0344, 634.8619
876.5165, 636.5429
876.9986, 630.1694
877.4807, 622.3234
877.9628, 619.8347
878.4449, 622.5114
878.9271, 629.1247
879.4092, 640.2621
879.8913, 649.6194
880.3734, 649.9617
880.8555, 645.9172
881.3376, 642.9469
881.8198, 642.7786
882.3019, 640.5770
882.7840, 632.7044
883.2661, 625.0546
883.7482, 621.9135
884.2303, 624.0722
884.7125, 623.0501
885.1946, 618.4636
885.6767, 613.8139
886.1588, 613.1771
886.6409, 613.9313
887.1230, 611.4059
887.6052, 605.2980
888.0873, 601.0435
888.5694, 601.6175
889.0515, 604.2089
889.5336, 607.6403
890.0157, 611.8610
890.4979, 616.3172
890.9800, 621.8010
891.4621, 623.6051
891.9442, 617.1600
892.4263, 605.5305
892.9084, 592.7098
893.3906, 580.0364
893.8727, 574.8065
894.3548, 590.3608
894.8369, 605.2916
895.3190, 605.7123
895.8011, 594.0686
896.2833, 590.0065
896.7654, 597.5052
897.2475, 601.7890
897.7296, 597.0223
898.2117, 587.0105
898.6938, 579.3509
899.1760, 574.4565
899.6581, 574.3660
900.1402, 584.5387
900.6223, 594.8911
901.1044, 600.2249
901.5865, 601.0666
902.0687, 597.7551
902.5508, 586.6405
903.0329, 579.0168
903.5150, 577.8866
903.9971, 578.7092
904.4792, 570.3268
904.9614, 555.6394
905.4435, 552.8489
905.9256, 570.6613
906.4077, 587.5101
906.8898, 581.7115
907.3719, 566.2147
907.8540, 556.6038
908.3361, 557.9428
908.8182, 562.8884
909.3004, 574.7208
909.7825, 585.1826
910.2646, 584.3630
910.7467, 573.4583
911.2288, 566.6453
911.7109, 565.1302
912.1931, 566.6715
912.6752, 571.1182
913.1573, 576.4918
913.6394, 581.3393
914.1215, 585.7627
914.6036, 587.0888
915.0858, 581.8115
915.5679, 577.4161
916.0500, 577.8298
916.5321, 582.7530
917.0142, 589.4815
917.4963, 597.9783
917.9785, 602.7138
918.4606, 595.2382
918.9427, 585.5418
919.4248, 584.6149
919.9069, 591.5065
920.3890, 599.1890
920.8712, 605.9811
921.3533, 613.1187
921.8354, 622.1747
922.3175, 631.3555
922.7996, 633.8845
923.2817, 629.7268
923.7639, 625.8082
924.2460, 622.7735
924.7281, 623.9948
925.2102, 637.6230
925.6923, 657.6476
926.1744, 672.8725
926.6566, 677.6912
927.1387, 679.3788
927.6208, 676.1220
928.1029, 672.8901
928.5850, 677.7723
929.0671, 691.2720
929.5493, 699.9000
930.0314, 701.5679
930.5135, 700.0690
930.9956, 695.7275
931.4777, 692.4622
931.9598, 696.2974
932.4420, 710.2021
932.9241, 723.4839
933.4062, 736.7509
933.8883, 745.7137
934.3704, 745.8420
934.8525, 736.3650
935.3347, 734.5822
935.8168, 740.6943
936.2989, 749.4774
936.7810, 760.2225
937.2631, 769.4241
937.7452, 770.7900
938.2274, 765.2896
938.7095, 762.5423
939.1916, 767.4443
939.6737, 773.6260
940.1558, 780.4323
940.6379, 786.7451
941.1201, 786.3140
941.6022, 779.1284
942.0843, 775.8472
942.5664, 783.4604
943.0485, 792.8732
943.5306, 790.6768
944.0128, 782.9372
944.4949, 781.3361
944.9770, 794.6381
945.4591, 807.7245
945.9412, 820.6741
946.4233, 830.6330
946.9055, 832.9642
947.3876, 827.8524
947.8697, 821.9429
948.3518, 815.6383
948.8339, 811.8104
949.3160, 816.7827
949.7982, 824.0094
950.2803, 825.0858
950.7624, 816.3764
951.2445, 812.1345
951.7266, 816.4474
952.2087, 822.3849
952.6909, 826.4053
953.1730, 828.5740
953.6551, 829.8513
954.1372, 830.2236
954.6193, 829.5495
955.1014, 823.2124
955.5836, 819.4619
956.0657, 829.9330
956.5478, 850.9442
957.0299, 862.4070
957.5120, 854.0302
957.9941, 847.3546
958.4763, 847.3002
958.9584, 851.5797
959.4405, 853.8386
959.9226, 855.1019
960.4047, 862.8764
960.8868, 884.5948
961.3690, 902.2143
961.8511, 891.5479
962.3332, 872.8846
962.8153, 873.3530
963.2974, 921.3231
963.7795, 941.4142
964.2617, 923.7451
964.7438, 898.4828
965.2259, 897.5226
965.7080, 914.0285
966.1901, 923.4832
966.6722, 924.0580
967.1544, 923.9833
967.6365, 930.4164
968.1186, 936.6976
968.6007, 936.2141
969.0828, 929.1196
969.5649, 930.3063
970.0471, 944.0543
970.5292, 951.7239
971.0113, 941.1688
971.4934, 923.3766
971.9755, 924.1969
972.4576, 939.0971
972.9398, 953.4445
973.4219, 963.8456
973.9040, 969.0825
974.3861, 965.6073
974.8682, 957.8405
975.3503, 952.2111
975.8325, 948.3447
976.3146, 949.2983
976.7967, 956.7151
977.2788, 963.5023
977.7609, 959.6516
978.2430, 950.4064
978.7252, 944.0489
979.2073, 942.0520
979.6894, 941.8058
980.1715, 943.7723
980.6536, 946.0020
981.1357, 946.9457
981.6179, 946.8082
982.1000, 951.6498
982.5821, 961.6608
983.0642, 968.9324
983.5463, 967.0767
984.0284, 961.3178
984.5106, 955.9500
984.9927, 951.2408
985.4748, 947.8411
985.9569, 947.8845
986.4390, 946.5229
986.9211, 942.3934
987.4033, 937.2960
987.8854, 934.5275
988.3675, 933.6854
988.8496, 931.8504
989.3317, 928.0353
989.8138, 925.0571
990.2960, 926.7162
990.7781, 929.4473
991.2602, 929.2006
991.7423, 924.1619
992.2244, 922.6740
992.7065, 927.0792
993.1887, 929.1440
993.6708, 920.8018
994.1529, 906.2490
994.6350, 897.7064
995.1171, 894.8799
995.5992, 896.4115
996.0814, 904.5919
996.5635, 913.7906
997.0456, 921.5539
997.5277, 928.4008
998.0098, 935.5092
998.4919, 942.9299
998.9741, 951.3105
999.4562, 961.8726
999.9383, 970.0737
1000.420, 965.3620
1000.903, 955.7150
1001.385, 955.6328
1001.867, 973.6074
1002.349, 983.7802
1002.831, 973.3325
1003.313, 960.3221
1003.795, 955.9351
1004.277, 959.8571
1004.759, 961.1802
1005.242, 959.9795
1005.724, 958.8215
1006.206, 955.0179
1006.688, 955.6895
1007.170, 972.4642
1007.652, 1000.064
1008.134, 1015.491
1008.616, 1009.559
1009.099, 1006.021
1009.581, 1008.486
1010.063, 1016.404
1010.545, 1032.792
1011.027, 1053.970
1011.509, 1067.936
1011.991, 1071.239
1012.473, 1069.966
1012.955, 1061.741
1013.438, 1054.704
1013.920, 1057.003
1014.402, 1070.711
1014.884, 1074.098
1015.366, 1065.604
1015.848, 1057.832
1016.330, 1056.758
1016.812, 1062.897
1017.294, 1082.331
1017.777, 1110.447
1018.259, 1130.806
1018.741, 1130.863
1019.223, 1131.913
1019.705, 1139.721
1020.187, 1149.496
1020.669, 1152.641
1021.151, 1149.604
1021.633, 1142.955
1022.116, 1131.576
1022.598, 1125.771
1023.080, 1140.662
1023.562, 1160.908
1024.044, 1171.286
1024.526, 1167.659
1025.008, 1168.619
1025.490, 1176.141
1025.973, 1181.878
1026.455, 1177.311
1026.937, 1169.785
1027.419, 1181.049
1027.901, 1205.597
1028.383, 1223.291
1028.865, 1221.139
1029.347, 1216.331
1029.829, 1211.969
1030.312, 1209.342
1030.794, 1212.014
1031.276, 1220.531
1031.758, 1220.915
1032.240, 1210.458
1032.722, 1199.559
1033.204, 1195.753
1033.686, 1198.070
1034.169, 1206.731
1034.651, 1222.306
1035.133, 1237.721
1035.615, 1255.609
1036.097, 1266.371
1036.579, 1262.118
1037.061, 1251.234
1037.543, 1260.509
1038.026, 1284.357
1038.508, 1302.772
1038.990, 1302.095
1039.472, 1302.343
1039.954, 1313.909
1040.436, 1329.891
1040.918, 1343.385
1041.400, 1354.834
1041.882, 1357.964
1042.365, 1351.108
1042.847, 1349.003
1043.329, 1372.063
1043.811, 1401.990
1044.293, 1416.893
1044.775, 1417.038
1045.257, 1419.841
1045.739, 1427.983
1046.221, 1439.999
1046.704, 1457.619
1047.186, 1476.448
1047.668, 1482.682
1048.150, 1481.603
1048.632, 1493.238
1049.114, 1528.697
1049.596, 1562.356
1050.078, 1580.350
1050.561, 1589.950
1051.043, 1594.964
1051.525, 1592.474
1052.007, 1614.027
1052.489, 1662.136
1052.971, 1706.286
1053.453, 1720.583
1053.935, 1723.310
1054.417, 1732.386
1054.900, 1747.842
1055.382, 1769.131
1055.864, 1804.522
1056.346, 1831.730
1056.828, 1843.774
1057.310, 1853.078
1057.792, 1884.141
1058.274, 1927.952
1058.756, 1952.512
1059.239, 1951.120
1059.721, 1953.874
1060.203, 1985.446
1060.685, 2019.721
1061.167, 2040.664
1061.649, 2049.339
1062.131, 2056.015
1062.613, 2060.634
1063.096, 2067.103
1063.578, 2080.726
1064.060, 2091.532
1064.542, 2082.552
1065.024, 2064.732
1065.506, 2055.866
1065.988, 2067.884
1066.470, 2076.500
1066.953, 2082.738
1067.435, 2083.484
1067.917, 2076.415
1068.399, 2061.491
1068.881, 2035.796
1069.363, 2000.789
1069.845, 1967.245
1070.327, 1941.541
1070.809, 1917.807
1071.292, 1895.584
1071.774, 1872.888
1072.256, 1843.778
1072.738, 1808.460
1073.220, 1773.492
1073.702, 1740.484
1074.184, 1707.565
1074.666, 1675.792
1075.148, 1641.969
1075.630, 1601.232
1076.113, 1550.080
1076.595, 1512.474
1077.077, 1492.482
1077.559, 1470.635
1078.041, 1434.630
1078.523, 1393.585
1079.005, 1361.836
1079.487, 1338.519
1079.970, 1321.145
1080.452, 1317.835
1080.934, 1307.645
1081.416, 1286.868
1081.898, 1260.077
1082.380, 1229.219
1082.862, 1195.708
1083.344, 1170.540
1083.827, 1154.298
1084.309, 1141.677
1084.791, 1131.867
1085.273, 1122.396
1085.755, 1111.031
1086.237, 1098.857
1086.719, 1089.307
1087.201, 1082.495
1087.683, 1078.222
1088.166, 1077.365
1088.648, 1076.046
1089.130, 1067.681
1089.612, 1057.517
1090.094, 1052.899
1090.576, 1056.842
1091.058, 1055.016
1091.540, 1044.126
1092.022, 1033.767
1092.505, 1029.120
1092.987, 1027.782
1093.469, 1023.231
1093.951, 1016.926
1094.433, 1012.948
1094.915, 1015.798
1095.397, 1017.008
1095.879, 1012.648
1096.362, 1007.671
1096.844, 1007.707
1097.326, 1012.220
1097.808, 1011.573
1098.290, 1005.555
1098.772, 997.8978
1099.254, 989.6022
1099.736, 981.9032
1100.219, 975.2589
1100.701, 969.8599
1101.183, 965.7434
1101.665, 962.4880
1102.147, 964.0332
1102.629, 972.4120
1103.111, 979.6193
1103.593, 972.3467
1104.075, 961.2976
1104.557, 962.3411
1105.040, 979.5674
1105.522, 980.4737
1106.004, 953.2989
1106.486, 932.6415
1106.968, 933.7501
1107.450, 946.7174
1107.932, 952.4791
1108.414, 952.8196
1108.897, 951.8828
1109.379, 949.7140
1109.861, 949.1878
1110.343, 952.6450
1110.825, 956.1717
1111.307, 957.3570
1111.789, 956.2424
1112.271, 952.9302
1112.754, 947.5297
1113.236, 941.2855
1113.718, 932.4579
1114.200, 925.4378
1114.682, 921.7194
1115.164, 921.7899
1115.646, 927.1884
1116.128, 938.6519
1116.610, 949.3908
1117.093, 959.3109
1117.575, 964.2556
1118.057, 952.6328
1118.539, 940.5582
1119.021, 945.6241
1119.503, 966.9664
1119.985, 982.7703
1120.467, 992.3063
1120.949, 995.4592
1121.432, 990.2359
1121.914, 983.7858
1122.396, 988.5906
1122.878, 998.3206
1123.360, 1001.681
1123.842, 994.0394
1124.324, 993.2626
1124.806, 1004.068
1125.289, 1017.515
1125.771, 1031.941
1126.253, 1044.350
1126.735, 1041.199
1127.217, 1028.174
1127.699, 1023.642
1128.181, 1043.271
1128.663, 1057.869
1129.146, 1051.344
1129.628, 1042.856
1130.110, 1050.543
1130.592, 1072.769
1131.074, 1079.192
1131.556, 1070.490
1132.038, 1058.742
1132.520, 1048.211
1133.002, 1040.062
1133.484, 1036.445
1133.967, 1035.089
1134.449, 1031.901
1134.931, 1026.719
1135.413, 1022.095
1135.895, 1018.490
1136.377, 1013.769
1136.859, 1009.083
1137.341, 999.9359
1137.824, 977.8777
1138.306, 945.1772
1138.788, 926.3129
1139.270, 925.4670
1139.752, 921.9291
1140.234, 910.6947
1140.716, 895.1561
1141.198, 878.5887
1141.681, 861.1981
1142.163, 843.0361
1142.645, 823.4332
1143.127, 806.9232
1143.609, 794.1330
1144.091, 782.8840
1144.573, 772.6417
1145.055, 762.9249
1145.537, 752.8309
1146.020, 742.5911
1146.502, 733.2264
1146.984, 726.1674
1147.466, 717.3883
1147.948, 706.9866
1148.430, 693.9516
1148.912, 675.5210
1149.394, 653.7917
1149.876, 636.4186
1150.359, 623.8268
1150.841, 616.9488
1151.323, 621.9160
1151.805, 625.7051
1152.287, 623.7773
1152.769, 619.4454
1153.251, 615.7830
1153.733, 612.7681
1154.216, 610.8214
1154.698, 609.7764
1155.180, 606.7023
1155.662, 598.1531
1156.144, 588.7631
1156.626, 579.3214
1157.108, 571.4310
1157.590, 569.7963
1158.073, 574.4680
1158.555, 573.6808
1159.037, 565.1832
1159.519, 557.4238
1160.001, 558.7406
1160.483, 562.4447
1160.965, 565.0378
1161.447, 565.5672
1161.929, 558.0367
1162.411, 541.0922
1162.894, 531.6298
1163.376, 536.4914
1163.858, 542.3937
1164.340, 531.5077
1164.822, 516.5516
1165.304, 511.9753
1165.786, 520.4114
1166.268, 525.0505
1166.751, 524.8774
1167.233, 526.6083
1167.715, 535.4250
1168.197, 543.8498
1168.679, 538.3868
1169.161, 526.9755
1169.643, 522.1152
1170.125, 531.1173
1170.608, 533.2617
1171.090, 526.5226
1171.572, 519.5643
1172.054, 517.8600
1172.536, 519.6328
1173.018, 523.5695
1173.500, 528.3379
1173.982, 530.8302
1174.464, 526.8215
1174.947, 525.8465
1175.429, 529.2949
1175.911, 533.3426
1176.393, 534.5289
1176.875, 533.9162
1177.357, 532.1363
1177.839, 530.2562
1178.321, 532.4979
1178.803, 548.1393
1179.286, 555.8008
1179.768, 548.3295
1180.250, 539.5149
1180.732, 554.4472
1181.214, 579.2915
1181.696, 572.4902
1182.178, 533.9788
1182.660, 506.2232
1183.142, 516.2363
1183.625, 528.2065
1184.107, 535.2172
1184.589, 537.0593
1185.071, 529.9290
1185.553, 517.4993
1186.035, 512.2455
1186.517, 516.4274
1186.999, 520.7325
1187.482, 521.5063
1187.964, 520.9487
1188.446, 519.7363
1188.928, 517.9562
1189.410, 514.3753
1189.892, 510.2516
1190.374, 511.9313
1190.856, 522.9306
1191.339, 529.7090
1191.821, 518.7004
1192.303, 509.4201
1192.785, 513.4342
1193.267, 526.7049
1193.749, 531.5258
1194.231, 529.3129
1194.713, 526.9143
1195.195, 526.5977
1195.677, 526.5554
1196.160, 524.8071
1196.642, 524.1812
1197.124, 527.8401
1197.606, 534.7504
1198.088, 534.6614
1198.570, 528.5201
1199.052, 521.7640
1199.534, 513.8648
1200.017, 510.5802
1200.499, 519.4919
1200.981, 530.4880
1201.463, 534.5282
1201.945, 531.7488
1202.427, 529.2362
1202.909, 526.9611
1203.391, 524.7494
1203.874, 519.2753
1204.356, 517.6029
1204.838, 528.3561
1205.320, 541.3234
1205.802, 544.7147
1206.284, 538.6990
1206.766, 532.7102
1207.248, 527.3094
1207.730, 526.3152
1208.213, 540.5117
1208.695, 550.5356
1209.177, 541.4312
1209.659, 524.5869
1210.141, 514.1135
1210.623, 510.0886
1211.105, 514.9678
1211.587, 528.7418
1212.069, 541.2180
1212.552, 547.1185
1213.034, 547.4299
1213.516, 538.6377
1213.998, 526.3782
1214.480, 519.3171
1214.962, 517.4832
1215.444, 526.0663
1215.926, 546.0764
1216.409, 558.9956
1216.891, 543.0251
1217.373, 525.0449
1217.855, 522.2524
1218.337, 528.2189
1218.819, 525.6810
1219.301, 515.6807
1219.783, 512.5780
1220.266, 519.2805
1220.748, 528.0045
1221.230, 535.2539
1221.712, 540.7897
1222.194, 542.2027
1222.676, 542.5640
1223.158, 557.4904
1223.640, 583.7841
1224.122, 590.0364
1224.604, 565.0845
1225.087, 541.2765
1225.569, 544.0177
1226.051, 550.3144
1226.533, 544.1822
1227.015, 530.0178
1227.497, 528.3355
1227.979, 536.9733
1228.461, 541.1932
1228.944, 535.5690
1229.426, 529.5121
1229.908, 526.8423
1230.390, 527.2454
1230.872, 530.7663
1231.354, 536.8672
1231.836, 544.8833
1232.318, 553.5762
1232.801, 555.1433
1233.283, 543.1683
1233.765, 534.2832
1234.247, 541.9805
1234.729, 550.1581
1235.211, 548.0167
1235.693, 538.1420
1236.175, 533.2410
1236.657, 532.9372
1237.140, 535.9077
1237.622, 544.3198
1238.104, 550.2618
1238.586, 548.9691
1239.068, 546.3014
1239.550, 545.3965
1240.032, 546.1386
1240.514, 548.6885
1240.996, 552.5040
1241.479, 555.3356
1241.961, 554.1294
1242.443, 555.9609
1242.925, 566.1812
1243.407, 574.6186
1243.889, 572.3684
1244.371, 562.5009
1244.853, 555.2996
1245.336, 551.1576
1245.818, 551.4919
1246.300, 562.2793
1246.782, 569.1304
1247.264, 568.6162
1247.746, 567.1190
1248.228, 570.3298
1248.710, 576.3544
1249.193, 581.7617
1249.675, 585.4512
1250.157, 583.8909
1250.639, 566.2990
1251.121, 559.5444
1251.603, 569.4771
1252.085, 580.6969
1252.567, 578.6214
1253.049, 569.4972
1253.531, 561.3410
1254.014, 556.0601
1254.496, 559.0601
1254.978, 579.6656
1255.460, 594.0078
1255.942, 599.8578
1256.424, 602.6213
1256.906, 608.3991
1257.388, 612.8960
1257.871, 607.4805
1258.353, 595.5635
1258.835, 588.2965
1259.317, 587.3380
1259.799, 591.2592
1260.281, 601.3953
1260.763, 608.3559
1261.245, 600.2906
1261.728, 587.8414
1262.210, 581.3824
1262.692, 580.1958
1263.174, 580.3652
1263.656, 580.9659
1264.138, 587.3489
1264.620, 600.5872
1265.102, 611.7743
1265.584, 613.2916
1266.067, 609.9493
1266.549, 602.7635
1267.031, 594.5072
1267.513, 590.5290
1267.995, 590.8304
1268.477, 596.7273
1268.959, 608.4044
1269.441, 619.3406
1269.923, 627.4601
1270.406, 630.3686
1270.888, 621.5846
1271.370, 609.1139
1271.852, 605.8921
1272.334, 611.4141
1272.816, 621.0527
1273.298, 634.0505
1273.780, 641.0063
1274.263, 629.7590
1274.745, 618.6028
1275.227, 614.8837
1275.709, 615.2629
1276.191, 614.3782
1276.673, 613.2364
1277.155, 617.5775
1277.637, 627.2542
1278.120, 634.2895
1278.602, 636.6274
1279.084, 632.3942
1279.566, 617.1399
1280.048, 602.4259
1280.530, 607.1898
1281.012, 623.6435
1281.494, 636.1268
1281.976, 643.1527
1282.458, 644.5991
##END=



