##NAMES=Fluorapatite
##RRUFFID=R050529
##IDEAL CHEMISTRY=Ca_5_(PO_4_)_3_F
##LOCALITY=Limburg de an Lahn, Germany
##OWNER=RRUFF
##SOURCE=University of Arizona Mineral Museum
##DESCRIPTION=Botryoidal aggregate
##STATUS=The identification of this mineral has been confirmed by X-ray diffraction and chemical analysis
##URL=rruff.info/R050529
##MEASURED CHEMISTRY=(Ca_4.68_[box]_0.32_)_Σ=5_((PO_4_)_2.36_(CO_3_)_0.64_)_Σ=3_F_1.00_
92.37695, 220.7881
92.85907, 217.1365
93.34119, 218.0798
93.82330, 222.0962
94.30542, 224.9638
94.78754, 225.3197
95.26965, 223.8014
95.75177, 221.5623
96.23389, 218.8028
96.71600, 215.8296
97.19812, 213.0440
97.68024, 210.5342
98.16235, 208.2558
98.64447, 206.1397
99.12659, 204.1745
99.60870, 201.9279
100.0908, 199.9451
100.5729, 198.1644
101.0551, 196.4326
101.5372, 194.6218
102.0193, 192.7590
102.5014, 191.1527
102.9835, 189.9468
103.4656, 188.8102
103.9478, 187.6974
104.4299, 186.5902
104.9120, 185.4926
105.3941, 184.4134
105.8762, 183.3411
106.3583, 182.1958
106.8405, 181.0485
107.3226, 179.7370
107.8047, 178.1134
108.2868, 176.1839
108.7689, 174.1172
109.2510, 172.0250
109.7332, 169.8808
110.2153, 168.0912
110.6974, 166.8954
111.1795, 166.0376
111.6616, 165.0906
112.1437, 163.8921
112.6259, 162.7802
113.1080, 162.1279
113.5901, 161.9000
114.0722, 161.8155
114.5543, 161.8310
115.0364, 161.9299
115.5185, 161.7495
116.0007, 160.7556
116.4828, 159.7982
116.9649, 159.4334
117.4470, 159.7392
117.9291, 160.3495
118.4112, 160.7800
118.8934, 160.9070
119.3755, 161.1501
119.8576, 161.5524
120.3397, 162.0693
120.8218, 162.7266
121.3039, 163.5291
121.7861, 164.3726
122.2682, 164.9612
122.7503, 164.7988
123.2324, 164.9034
123.7145, 165.5605
124.1966, 166.4940
124.6788, 167.2657
125.1609, 167.5989
125.6430, 167.5783
126.1251, 167.9570
126.6072, 168.8677
127.0893, 169.9297
127.5715, 171.0046
128.0536, 172.0989
128.5357, 173.2657
129.0178, 174.5684
129.4999, 175.9958
129.9821, 177.4179
130.4642, 178.8466
130.9463, 180.2713
131.4284, 181.6860
131.9105, 183.0897
132.3926, 184.4882
132.8748, 185.8160
133.3569, 187.1443
133.8390, 188.6032
134.3211, 190.4643
134.8032, 192.5314
135.2853, 194.1085
135.7674, 194.8549
136.2496, 195.5399
136.7317, 196.7974
137.2138, 198.3574
137.6959, 199.5356
138.1780, 199.7900
138.6601, 199.0725
139.1423, 197.9369
139.6244, 196.3036
140.1065, 194.2961
140.5886, 191.7337
141.0707, 188.7389
141.5528, 185.6747
142.0350, 182.9926
142.5171, 180.8924
142.9992, 178.6641
143.4813, 176.2175
143.9634, 173.7391
144.4455, 171.2843
144.9277, 168.8942
145.4098, 166.6082
145.8919, 164.4902
146.3740, 162.5357
146.8561, 160.8006
147.3382, 159.3269
147.8204, 158.0558
148.3025, 156.9524
148.7846, 156.0259
149.2667, 155.1787
149.7488, 154.1562
150.2309, 152.8538
150.7131, 151.7174
151.1952, 150.9145
151.6773, 150.4084
152.1594, 150.1343
152.6415, 150.1997
153.1236, 150.3624
153.6058, 150.2465
154.0879, 149.7932
154.5700, 149.2448
155.0521, 148.7024
155.5342, 148.1554
156.0163, 147.8671
156.4985, 148.2200
156.9806, 148.7471
157.4627, 149.0794
157.9448, 149.1175
158.4269, 148.9986
158.9090, 148.9593
159.3912, 149.1200
159.8733, 149.0352
160.3554, 148.3060
160.8375, 147.4485
161.3196, 146.9432
161.8017, 147.0159
162.2839, 147.4736
162.7660, 147.7431
163.2481, 147.6934
163.7302, 147.6101
164.2123, 147.4964
164.6944, 147.3873
165.1766, 147.3462
165.6587, 147.4185
166.1408, 147.5639
166.6229, 147.5077
167.1050, 147.0371
167.5871, 146.5989
168.0693, 146.2524
168.5514, 146.0050
169.0335, 145.8817
169.5156, 145.9282
169.9977, 146.1170
170.4798, 146.0293
170.9620, 145.4769
171.4441, 144.8918
171.9262, 144.4937
172.4083, 144.2516
172.8904, 143.9616
173.3725, 143.4114
173.8547, 142.6718
174.3368, 142.2725
174.8189, 142.5620
175.3010, 142.9465
175.7831, 142.8834
176.2652, 142.3401
176.7474, 141.7856
177.2295, 141.5784
177.7116, 141.6266
178.1937, 141.7237
178.6758, 141.9551
179.1579, 142.1659
179.6401, 142.1301
180.1222, 141.8266
180.6043, 141.3235
181.0864, 140.4778
181.5685, 139.4872
182.0506, 138.7001
182.5328, 138.4009
183.0149, 138.4075
183.4970, 138.1469
183.9791, 137.5359
184.4612, 136.7529
184.9433, 135.8510
185.4255, 134.8681
185.9076, 133.8505
186.3897, 132.7957
186.8718, 131.7202
187.3539, 130.8270
187.8360, 130.2350
188.3182, 129.7198
188.8003, 129.2857
189.2824, 128.8788
189.7645, 128.3994
190.2466, 127.7487
190.7287, 126.9108
191.2109, 126.2344
191.6930, 125.7174
192.1751, 125.3550
192.6572, 125.2150
193.1393, 125.2453
193.6214, 125.3462
194.1036, 125.4578
194.5857, 125.6189
195.0678, 125.4399
195.5499, 124.4261
196.0320, 123.5915
196.5141, 123.5309
196.9963, 124.1602
197.4784, 124.9522
197.9605, 125.4319
198.4426, 125.5490
198.9247, 125.6307
199.4068, 125.5782
199.8890, 125.5665
200.3711, 125.7028
200.8532, 125.9975
201.3353, 126.4164
201.8174, 126.9760
202.2995, 127.6837
202.7817, 128.2465
203.2638, 128.5678
203.7459, 128.7896
204.2280, 129.0150
204.7101, 129.2533
205.1922, 129.5452
205.6744, 129.9513
206.1565, 130.4548
206.6386, 130.9751
207.1207, 131.6790
207.6028, 132.3233
208.0849, 132.4535
208.5671, 131.8913
209.0492, 131.3707
209.5313, 131.6974
210.0134, 132.5233
210.4955, 133.1103
210.9776, 133.0445
211.4598, 132.5745
211.9419, 132.2425
212.4240, 132.0826
212.9061, 132.0136
213.3882, 132.0634
213.8703, 132.1576
214.3525, 132.1495
214.8346, 131.9077
215.3167, 131.5053
215.7988, 131.2311
216.2809, 131.2017
216.7630, 131.1169
217.2451, 130.7214
217.7273, 130.1994
218.2094, 129.8785
218.6915, 130.0029
219.1736, 130.4934
219.6557, 130.8728
220.1378, 131.0452
220.6200, 131.2134
221.1021, 131.4217
221.5842, 131.6698
222.0663, 131.9625
222.5484, 132.3161
223.0305, 132.7162
223.5127, 133.0185
223.9948, 132.9452
224.4769, 133.0733
224.9590, 133.6631
225.4411, 134.5273
225.9232, 135.3512
226.4054, 135.9311
226.8875, 136.2811
227.3696, 136.5983
227.8517, 136.7891
228.3338, 137.0439
228.8159, 137.4501
229.2981, 137.9470
229.7802, 138.4299
230.2623, 138.8369
230.7444, 139.1691
231.2265, 139.4248
231.7086, 139.6145
232.1908, 139.7249
232.6729, 139.6892
233.1550, 139.5721
233.6371, 139.5185
234.1192, 139.6363
234.6013, 139.8751
235.0835, 139.8393
235.5656, 139.3180
236.0477, 138.8102
236.5298, 138.4384
237.0119, 138.1904
237.4940, 138.0489
237.9762, 138.0330
238.4583, 138.0871
238.9404, 137.9454
239.4225, 137.5376
239.9046, 137.0593
240.3867, 136.5531
240.8689, 136.0249
241.3510, 135.4765
241.8331, 134.8847
242.3152, 134.3019
242.7973, 133.8822
243.2794, 133.7255
243.7616, 133.5458
244.2437, 133.1206
244.7258, 132.5591
245.2079, 132.2275
245.6900, 132.3681
246.1721, 132.7173
246.6543, 132.7382
247.1364, 132.3670
247.6185, 131.8968
248.1006, 131.3413
248.5827, 130.7755
249.0648, 130.4792
249.5470, 130.6104
250.0291, 130.9953
250.5112, 131.3921
250.9933, 131.8261
251.4754, 132.1442
251.9576, 132.1412
252.4397, 131.9123
252.9218, 131.9130
253.4039, 132.4026
253.8860, 132.9818
254.3681, 133.1543
254.8503, 132.9218
255.3324, 132.7576
255.8145, 133.0494
256.2966, 133.6947
256.7787, 134.1335
257.2608, 134.0722
257.7430, 134.0507
258.2251, 134.5967
258.7072, 135.6260
259.1893, 136.5792
259.6714, 136.9982
260.1535, 136.9954
260.6357, 137.2157
261.1178, 137.8249
261.5999, 138.5338
262.0820, 139.2140
262.5641, 139.8454
263.0462, 140.3699
263.5284, 140.7141
264.0105, 140.9041
264.4926, 141.0909
264.9747, 141.2119
265.4568, 141.4278
265.9389, 141.8560
266.4211, 142.4207
266.9032, 142.9656
267.3853, 143.3894
267.8674, 143.7194
268.3495, 144.0945
268.8316, 144.6166
269.3138, 145.0171
269.7959, 145.1359
270.2780, 145.1016
270.7601, 145.1208
271.2422, 145.3341
271.7243, 145.6438
272.2065, 145.6917
272.6886, 145.2495
273.1707, 144.9310
273.6528, 144.9450
274.1349, 145.1374
274.6170, 145.3717
275.0992, 145.6056
275.5813, 145.7681
276.0634, 145.6697
276.5455, 145.2085
277.0276, 144.6568
277.5097, 143.9034
277.9919, 143.1811
278.4740, 142.7607
278.9561, 142.7342
279.4382, 142.8732
279.9203, 142.7151
280.4024, 142.0242
280.8846, 141.5428
281.3667, 141.5548
281.8488, 141.6366
282.3309, 141.4449
282.8130, 140.9080
283.2951, 140.2403
283.7773, 139.7538
284.2594, 139.5059
284.7415, 139.3080
285.2236, 139.3332
285.7057, 139.2669
286.1878, 138.8657
286.6700, 138.1359
287.1521, 137.2988
287.6342, 136.6120
288.1163, 136.1425
288.5984, 135.5749
289.0805, 134.7355
289.5627, 133.9605
290.0448, 133.4593
290.5269, 133.1838
291.0090, 132.9215
291.4911, 132.4642
291.9732, 131.7879
292.4554, 131.2348
292.9375, 131.0233
293.4196, 130.7141
293.9017, 130.1367
294.3838, 129.3455
294.8659, 128.4715
295.3481, 127.6003
295.8302, 126.7316
296.3123, 125.9097
296.7944, 124.9997
297.2765, 124.2894
297.7586, 123.9312
298.2408, 123.7934
298.7229, 123.7003
299.2050, 123.5588
299.6871, 123.3743
300.1692, 123.1695
300.6513, 123.0239
301.1335, 122.7515
301.6156, 122.2533
302.0977, 121.6592
302.5798, 121.0828
303.0619, 120.5740
303.5440, 120.1468
304.0262, 119.8306
304.5083, 119.7177
304.9904, 119.5898
305.4725, 119.4132
305.9546, 119.2401
306.4367, 119.1474
306.9189, 119.1378
307.4010, 119.1019
307.8831, 118.8624
308.3652, 118.2523
308.8473, 117.8843
309.3294, 118.0050
309.8116, 118.1256
310.2937, 117.9075
310.7758, 117.3645
311.2579, 116.7590
311.7400, 116.3634
312.2221, 116.2196
312.7043, 115.9626
313.1864, 115.6023
313.6685, 115.1389
314.1506, 114.5051
314.6327, 113.7611
315.1148, 113.0427
315.5970, 112.4574
316.0791, 111.9917
316.5612, 111.4534
317.0433, 110.9776
317.5254, 110.2753
318.0075, 109.1214
318.4897, 107.7356
318.9718, 106.4181
319.4539, 105.3203
319.9360, 104.4245
320.4181, 103.6726
320.9002, 103.4129
321.3824, 102.8560
321.8645, 101.7586
322.3466, 100.4520
322.8287, 99.21878
323.3108, 98.17020
323.7929, 97.27247
324.2751, 96.49955
324.7572, 96.01601
325.2393, 95.32539
325.7214, 94.19756
326.2035, 93.05637
326.6856, 92.20877
327.1678, 91.67573
327.6499, 91.24308
328.1320, 90.65939
328.6141, 89.85027
329.0962, 89.26404
329.5783, 89.12675
330.0605, 88.96548
330.5426, 88.58179
331.0247, 88.00058
331.5068, 87.33112
331.9889, 86.63974
332.4710, 85.93427
332.9532, 85.34623
333.4353, 85.01357
333.9174, 84.64944
334.3995, 84.08357
334.8816, 83.48242
335.3637, 83.12634
335.8459, 83.16705
336.3280, 83.43671
336.8101, 83.43399
337.2922, 83.00172
337.7743, 82.50443
338.2564, 81.85146
338.7386, 81.21709
339.2206, 80.78036
339.7028, 80.57885
340.1849, 80.48896
340.6670, 80.33763
341.1491, 80.14067
341.6312, 79.83571
342.1133, 79.26943
342.5955, 78.73758
343.0776, 78.43635
343.5597, 78.34477
344.0418, 78.28725
344.5239, 78.07665
345.0060, 77.69358
345.4882, 77.49897
345.9703, 77.77596
346.4524, 77.97339
346.9345, 77.91028
347.4166, 77.66350
347.8987, 77.38160
348.3809, 77.15105
348.8630, 76.96198
349.3451, 76.77832
349.8272, 76.58910
350.3093, 76.42117
350.7914, 76.26782
351.2736, 76.13972
351.7557, 76.04739
352.2378, 75.99391
352.7199, 75.97786
353.2020, 76.02831
353.6841, 76.21866
354.1663, 76.24527
354.6484, 75.88203
355.1305, 75.49736
355.6126, 75.30964
356.0947, 75.33114
356.5768, 75.43156
357.0590, 75.51992
357.5411, 75.59965
358.0232, 75.57905
358.5053, 75.40071
358.9874, 75.17722
359.4695, 74.94286
359.9517, 74.70286
360.4338, 74.45523
360.9159, 74.17495
361.3980, 73.90256
361.8801, 73.78887
362.3622, 73.94301
362.8444, 74.01442
363.3265, 73.75982
363.8086, 73.41821
364.2907, 73.26025
364.7728, 73.38673
365.2549, 73.59657
365.7371, 73.59184
366.2192, 73.33529
366.7013, 73.20985
367.1834, 73.40900
367.6655, 73.68974
368.1476, 73.91074
368.6298, 74.05781
369.1119, 74.10325
369.5940, 73.98197
370.0761, 73.72921
370.5582, 73.50001
371.0403, 73.27412
371.5225, 73.13847
372.0046, 73.21130
372.4867, 73.41323
372.9688, 73.56422
373.4509, 73.59753
373.9330, 73.54141
374.4152, 73.35635
374.8973, 73.00380
375.3794, 72.86549
375.8615, 73.31504
376.3436, 74.01627
376.8257, 74.45214
377.3079, 74.51258
377.7900, 74.46635
378.2721, 74.46535
378.7542, 74.51047
379.2363, 74.61922
379.7184, 74.82742
380.2006, 75.05035
380.6827, 75.18215
381.1648, 75.22761
381.6469, 75.23401
382.1290, 75.08447
382.6111, 74.95818
383.0933, 75.20171
383.5754, 75.87583
384.0575, 76.49999
384.5396, 76.67091
385.0217, 76.42451
385.5038, 76.22154
385.9860, 76.01305
386.4681, 75.90781
386.9502, 76.06913
387.4323, 76.41148
387.9144, 76.62684
388.3965, 76.53992
388.8787, 76.28092
389.3608, 76.18473
389.8429, 76.23592
390.3250, 76.43220
390.8071, 76.94852
391.2892, 77.53420
391.7714, 77.83231
392.2535, 77.77260
392.7356, 77.64953
393.2177, 77.82703
393.6998, 78.40474
394.1819, 78.79039
394.6641, 78.83082
395.1462, 78.83632
395.6283, 79.02101
396.1104, 79.32772
396.5925, 79.53323
397.0746, 79.47578
397.5568, 79.22289
398.0389, 79.15383
398.5210, 79.39224
399.0031, 79.67386
399.4852, 79.97816
399.9673, 80.30888
400.4495, 80.71455
400.9316, 81.19694
401.4137, 81.64423
401.8958, 81.84692
402.3779, 81.60421
402.8600, 81.67252
403.3422, 82.14655
403.8243, 82.79955
404.3064, 83.60863
404.7885, 84.50793
405.2706, 85.36739
405.7527, 86.06795
406.2349, 86.64161
406.7170, 87.31081
407.1991, 88.07738
407.6812, 88.94482
408.1633, 89.87355
408.6454, 90.90662
409.1276, 92.13099
409.6097, 93.57932
410.0918, 95.10271
410.5739, 96.42956
411.0560, 97.46761
411.5381, 98.77956
412.0203, 100.6347
412.5024, 102.6442
412.9845, 104.6224
413.4666, 106.5510
413.9487, 108.4594
414.4308, 110.3107
414.9130, 112.1446
415.3951, 114.0925
415.8772, 116.1247
416.3593, 118.3473
416.8414, 120.9091
417.3235, 123.6708
417.8057, 126.4499
418.2878, 129.1618
418.7699, 131.9676
419.2520, 134.9529
419.7341, 138.1393
420.2162, 141.7809
420.6984, 146.0555
421.1805, 150.6767
421.6626, 155.1047
422.1447, 159.3452
422.6268, 164.1272
423.1089, 170.0049
423.5911, 176.4407
424.0732, 182.7149
424.5553, 188.7221
425.0374, 194.8714
425.5195, 201.4669
426.0016, 208.4675
426.4838, 215.4573
426.9659, 222.8449
427.4480, 229.7917
427.9301, 236.0755
428.4122, 241.6167
428.8943, 246.1537
429.3765, 249.5807
429.8586, 252.1788
430.3407, 254.4953
430.8228, 257.0458
431.3049, 257.9316
431.7870, 256.5580
432.2692, 253.9523
432.7513, 250.6550
433.2334, 246.8173
433.7155, 242.4451
434.1976, 237.4979
434.6797, 232.0380
435.1619, 226.8408
435.6440, 221.9303
436.1261, 217.2513
436.6082, 212.7315
437.0903, 208.4718
437.5724, 204.5652
438.0546, 201.0567
438.5367, 197.8969
439.0188, 195.0293
439.5009, 192.4913
439.9830, 190.1333
440.4651, 187.6921
440.9473, 185.6498
441.4294, 184.3382
441.9115, 183.6411
442.3936, 183.2287
442.8757, 182.9415
443.3578, 182.7440
443.8400, 182.5611
444.3221, 182.4791
444.8042, 182.1908
445.2863, 181.5806
445.7684, 180.7191
446.2505, 179.6266
446.7327, 178.3020
447.2148, 176.8467
447.6969, 175.3876
448.1790, 173.8969
448.6611, 172.1814
449.1432, 170.1780
449.6254, 168.0201
450.1075, 165.8338
450.5896, 163.5990
451.0717, 161.1911
451.5538, 158.4456
452.0359, 155.6113
452.5181, 153.0452
453.0002, 150.6768
453.4823, 148.0012
453.9644, 144.6827
454.4465, 141.0481
454.9286, 137.8498
455.4108, 135.2075
455.8929, 132.5685
456.3750, 129.6661
456.8571, 126.7846
457.3392, 124.2665
457.8214, 122.1425
458.3035, 120.1169
458.7856, 117.9133
459.2677, 115.5241
459.7498, 113.2890
460.2319, 111.1910
460.7141, 109.2352
461.1962, 107.4681
461.6783, 105.8276
462.1604, 104.2795
462.6425, 102.8033
463.1246, 101.3160
463.6068, 99.61367
464.0889, 97.44276
464.5710, 95.76934
465.0531, 95.07957
465.5352, 94.40726
466.0173, 93.19645
466.4995, 91.60371
466.9816, 90.12521
467.4637, 89.08407
467.9458, 88.38451
468.4279, 87.75591
468.9100, 87.27757
469.3922, 86.65627
469.8743, 85.56567
470.3564, 84.43887
470.8385, 83.72811
471.3206, 83.48927
471.8027, 83.16605
472.2849, 82.16018
472.7670, 80.68793
473.2491, 79.62751
473.7312, 79.15440
474.2133, 78.81066
474.6954, 78.30211
475.1776, 77.67448
475.6597, 77.02063
476.1418, 76.24146
476.6239, 75.58328
477.1060, 75.33974
477.5881, 75.36970
478.0703, 75.23621
478.5524, 74.78279
479.0345, 74.16611
479.5166, 73.60564
479.9987, 73.11565
480.4808, 72.60965
480.9630, 71.97303
481.4451, 71.41342
481.9272, 71.16222
482.4093, 71.13124
482.8914, 71.00060
483.3735, 70.55876
483.8557, 69.93037
484.3378, 69.56612
484.8199, 69.80049
485.3020, 69.82454
485.7841, 69.37822
486.2662, 68.87973
486.7484, 68.69089
487.2305, 68.81973
487.7126, 69.00378
488.1947, 69.02544
488.6768, 68.88652
489.1589, 68.61677
489.6411, 68.10117
490.1232, 67.63478
490.6053, 67.30395
491.0874, 67.06582
491.5695, 66.87095
492.0516, 66.70451
492.5338, 66.59667
493.0159, 66.63345
493.4980, 66.78897
493.9801, 66.82236
494.4622, 66.67738
494.9443, 66.44724
495.4265, 66.15853
495.9086, 65.84095
496.3907, 65.58843
496.8728, 65.45368
497.3549, 65.36519
497.8370, 65.24148
498.3192, 65.10828
498.8013, 65.09264
499.2834, 65.27644
499.7655, 65.50172
500.2476, 65.48810
500.7297, 65.13667
501.2119, 64.90163
501.6940, 64.95852
502.1761, 65.01826
502.6582, 64.81572
503.1403, 64.42137
503.6224, 64.10551
504.1045, 64.04001
504.5866, 64.16558
505.0688, 64.27599
505.5509, 64.45361
506.0330, 64.47546
506.5151, 64.19074
506.9972, 63.86406
507.4793, 63.66773
507.9615, 63.62507
508.4436, 63.69193
508.9257, 63.87899
509.4078, 64.14619
509.8899, 64.22451
510.3720, 64.03049
510.8542, 63.82904
511.3363, 63.74274
511.8184, 63.68576
512.3005, 63.55021
512.7827, 63.30577
513.2648, 63.10645
513.7469, 63.15505
514.2290, 63.33877
514.7111, 63.29181
515.1932, 62.92673
515.6754, 62.52726
516.1575, 62.29295
516.6396, 62.20821
517.1217, 62.16335
517.6038, 62.12548
518.0859, 62.16238
518.5681, 62.43719
519.0502, 62.77393
519.5323, 62.81187
520.0144, 62.45543
520.4965, 62.02238
520.9786, 61.91254
521.4608, 62.19905
521.9429, 62.36660
522.4250, 62.27740
522.9071, 62.24032
523.3892, 62.40386
523.8713, 62.67959
524.3535, 62.96841
524.8356, 63.22516
525.3177, 63.36480
525.7998, 63.16626
526.2819, 62.50959
526.7640, 62.12103
527.2462, 62.24966
527.7283, 62.44982
528.2104, 62.56330
528.6925, 62.57867
529.1746, 62.47748
529.6567, 62.19606
530.1389, 61.88444
530.6210, 61.75043
531.1031, 61.78633
531.5852, 61.86309
532.0673, 61.96290
532.5494, 62.06081
533.0316, 62.12423
533.5137, 62.15552
533.9958, 62.17831
534.4779, 62.17034
534.9600, 62.17767
535.4421, 62.29651
535.9243, 62.47141
536.4064, 62.49464
536.8885, 62.25034
537.3706, 61.88568
537.8527, 61.71883
538.3348, 61.89318
538.8170, 61.98206
539.2991, 61.86329
539.7812, 61.77494
540.2633, 61.90782
540.7454, 62.19178
541.2275, 62.40370
541.7097, 62.39220
542.1918, 62.27314
542.6739, 62.36895
543.1560, 62.75880
543.6381, 63.11315
544.1202, 63.38501
544.6024, 63.58455
545.0845, 63.69415
545.5666, 63.72765
546.0487, 63.74560
546.5308, 63.75282
547.0129, 63.77833
547.4951, 63.89595
547.9772, 64.10242
548.4593, 64.25381
548.9414, 64.26993
549.4235, 64.22274
549.9056, 64.21805
550.3878, 64.23149
550.8699, 64.37740
551.3520, 64.79320
551.8341, 65.26058
552.3162, 65.62037
552.7983, 65.86725
553.2805, 66.02142
553.7626, 66.08079
554.2447, 66.11575
554.7268, 66.34697
555.2089, 66.98808
555.6910, 67.44197
556.1732, 67.46405
556.6553, 67.51627
557.1374, 67.92839
557.6195, 68.63523
558.1016, 69.34493
558.5837, 69.86562
559.0659, 70.28931
559.5480, 70.80102
560.0301, 71.38086
560.5122, 72.17011
560.9943, 73.35548
561.4764, 74.62630
561.9586, 75.68350
562.4407, 76.53294
562.9228, 77.32505
563.4049, 77.94389
563.8870, 78.65122
564.3691, 79.75694
564.8513, 81.22121
565.3334, 82.83366
565.8155, 84.53856
566.2976, 86.22170
566.7797, 87.65711
567.2618, 88.64677
567.7440, 89.84364
568.2261, 91.37756
568.7082, 92.98768
569.1903, 94.48433
569.6724, 95.93594
570.1545, 97.52824
570.6367, 99.34595
571.1188, 101.4036
571.6009, 103.6857
572.0830, 106.1749
572.5651, 109.0378
573.0472, 112.5010
573.5294, 116.1504
574.0115, 119.7222
574.4936, 123.3049
574.9757, 127.1293
575.4578, 131.2803
575.9399, 135.7301
576.4221, 140.4722
576.9042, 145.4846
577.3863, 150.7688
577.8684, 156.3833
578.3505, 162.0768
578.8326, 167.7408
579.3148, 173.4095
579.7969, 177.8393
580.2790, 181.0269
580.7611, 182.9164
581.2432, 183.5454
581.7253, 182.8584
582.2075, 180.4782
582.6896, 176.3569
583.1717, 171.3838
583.6538, 166.6355
584.1359, 161.9925
584.6180, 158.4352
585.1002, 156.1181
585.5823, 154.7655
586.0643, 154.5263
586.5464, 155.0601
587.0286, 155.9106
587.5107, 156.9382
587.9928, 158.4304
588.4749, 161.1042
588.9570, 164.5350
589.4391, 167.1046
589.9213, 168.6540
590.4034, 169.3418
590.8855, 169.3372
591.3676, 168.4863
591.8497, 166.5298
592.3318, 163.2154
592.8140, 159.2408
593.2961, 154.1152
593.7782, 148.8485
594.2603, 145.1962
594.7424, 142.9697
595.2245, 139.7181
595.7067, 133.2591
596.1888, 124.3892
596.6709, 117.6976
597.1530, 114.0151
597.6351, 111.1344
598.1172, 108.9541
598.5994, 107.2140
599.0815, 105.7468
599.5636, 104.5397
600.0457, 103.6375
600.5278, 103.0674
601.0099, 102.4765
601.4921, 102.0683
601.9742, 101.4655
602.4563, 100.6782
602.9384, 98.50439
603.4205, 98.04809
603.9026, 97.26701
604.3848, 96.17942
604.8669, 93.81516
605.3490, 93.14104
605.8311, 91.81469
606.3132, 90.47896
606.7953, 90.09409
607.2775, 88.00757
607.7596, 87.64396
608.2417, 86.61775
608.7238, 85.92092
609.2059, 84.56784
609.6880, 83.44087
610.1702, 83.00616
610.6523, 82.21629
611.1344, 80.85729
611.6165, 80.28802
612.0986, 78.35793
612.5807, 77.65567
613.0629, 77.49321
613.5450, 76.25803
614.0271, 75.79088
614.5092, 75.05598
614.9913, 73.04070
615.4734, 73.30139
615.9556, 72.60329
616.4377, 70.92073
616.9198, 71.15793
617.4019, 69.64943
617.8840, 68.78849
618.3661, 68.41917
618.8483, 67.57378
619.3304, 67.52525
619.8125, 66.74447
620.2946, 65.91463
620.7767, 65.39529
621.2589, 64.06491
621.7410, 64.29021
622.2231, 63.48325
622.7052, 63.21625
623.1873, 63.08555
623.6694, 62.06677
624.1516, 62.02504
624.6337, 60.51379
625.1158, 60.26529
625.5979, 59.90065
626.0800, 60.34958
626.5621, 59.36837
627.0443, 58.80463
627.5264, 58.46637
628.0085, 58.42083
628.4906, 58.47166
628.9727, 58.45518
629.4548, 58.37098
629.9370, 58.12907
630.4191, 57.45984
630.9012, 56.99716
631.3833, 57.05631
631.8654, 57.28354
632.3475, 57.30153
632.8297, 57.06522
633.3118, 56.77954
633.7939, 56.60582
634.2760, 56.53288
634.7581, 56.54744
635.2402, 56.69288
635.7224, 56.74076
636.2045, 56.42667
636.6866, 56.16313
637.1687, 56.48980
637.6508, 57.36675
638.1329, 58.00918
638.6151, 58.07015
639.0972, 57.89161
639.5793, 57.68573
640.0614, 57.47422
640.5435, 57.29758
641.0256, 57.17131
641.5078, 57.03748
641.9899, 56.81895
642.4720, 56.50850
642.9541, 56.17130
643.4362, 55.73020
643.9183, 55.35399
644.4005, 55.11370
644.8826, 54.94106
645.3647, 54.72427
645.8468, 54.45370
646.3289, 54.29717
646.8110, 54.47214
647.2932, 54.84884
647.7753, 55.11316
648.2574, 55.25493
648.7395, 55.33302
649.2216, 55.37461
649.7037, 55.36434
650.1859, 55.25899
650.6680, 55.03167
651.1501, 54.83549
651.6322, 54.67500
652.1143, 54.55445
652.5964, 54.53766
653.0786, 54.54864
653.5607, 54.44115
654.0428, 54.16397
654.5249, 53.81467
655.0070, 53.45752
655.4891, 53.08007
655.9713, 53.09898
656.4534, 53.79369
656.9355, 54.34188
657.4176, 54.14787
657.8997, 53.68341
658.3818, 53.49693
658.8640, 53.66891
659.3461, 53.91203
659.8282, 54.20117
660.3103, 54.42685
660.7924, 54.42155
661.2745, 54.22464
661.7567, 54.01623
662.2388, 53.87793
662.7209, 53.82093
663.2030, 53.88961
663.6851, 54.18138
664.1672, 54.27907
664.6494, 53.94295
665.1315, 53.67071
665.6136, 53.63000
666.0957, 53.75373
666.5778, 53.97469
667.0599, 54.28085
667.5421, 54.53757
668.0242, 53.17299
668.5063, 53.63019
668.9884, 53.89247
669.4705, 53.97028
669.9526, 53.31117
670.4348, 53.60365
670.9169, 53.51476
671.3990, 53.41024
671.8811, 53.79651
672.3632, 53.41897
672.8453, 53.50256
673.3275, 53.69311
673.8096, 53.81223
674.2917, 53.89746
674.7738, 54.07800
675.2559, 54.39973
675.7380, 54.69255
676.2202, 54.70301
676.7023, 54.46318
677.1844, 54.27907
677.6665, 54.13743
678.1486, 54.14288
678.6307, 54.44849
679.1129, 54.88068
679.5950, 55.12059
680.0771, 55.15681
680.5592, 55.07320
681.0413, 54.66402
681.5234, 54.33787
682.0056, 54.47220
682.4877, 54.94362
682.9698, 55.43065
683.4519, 55.79421
683.9340, 56.10036
684.4161, 56.46471
684.8983, 56.90027
685.3804, 57.19948
685.8625, 57.20772
686.3446, 57.34992
686.8267, 58.05122
687.3088, 58.85864
687.7910, 59.19074
688.2731, 58.94170
688.7552, 58.77633
689.2373, 59.14331
689.7194, 59.62355
690.2015, 59.77507
690.6837, 59.64130
691.1658, 59.43294
691.6479, 59.23555
692.1300, 59.04731
692.6121, 58.89739
693.0942, 58.83881
693.5764, 58.42423
694.0585, 57.18536
694.5406, 56.22667
695.0227, 56.06471
695.5048, 56.19714
695.9869, 56.09234
696.4691, 55.67421
696.9512, 55.21244
697.4333, 54.80702
697.9154, 54.48267
698.3975, 54.28105
698.8796, 54.19262
699.3618, 54.16957
699.8439, 54.19653
700.3260, 54.27103
700.8081, 54.40747
701.2902, 54.62622
701.7723, 54.71312
702.2545, 54.51567
702.7366, 54.36987
703.2187, 54.35452
703.7008, 54.41005
704.1829, 54.49171
704.6650, 54.58580
705.1472, 54.67537
705.6293, 54.73818
706.1114, 54.79702
706.5935, 54.87827
707.0756, 54.98445
707.5577, 55.16104
708.0399, 55.44387
708.5220, 55.67492
709.0041, 55.63180
709.4862, 55.31279
709.9683, 55.32738
710.4504, 56.08296
710.9326, 56.61897
711.4147, 56.60401
711.8968, 56.43513
712.3789, 56.47328
712.8610, 56.70825
713.3431, 56.89128
713.8253, 56.84187
714.3074, 56.71069
714.7895, 56.78291
715.2716, 57.01506
715.7537, 57.07737
716.2358, 56.88365
716.7180, 56.59871
717.2001, 56.33703
717.6822, 56.10307
718.1643, 55.92287
718.6464, 55.85350
719.1285, 55.75448
719.6107, 55.59613
720.0928, 55.41765
720.5749, 55.24201
721.0570, 55.07066
721.5391, 54.89547
722.0212, 54.71101
722.5034, 54.52887
722.9855, 54.37385
723.4676, 54.23761
723.9497, 54.08206
724.4318, 53.90619
724.9139, 53.67545
725.3961, 53.32210
725.8782, 52.93135
726.3603, 52.76077
726.8424, 52.91952
727.3245, 53.03869
727.8066, 53.05803
728.2888, 53.07442
728.7709, 53.21149
729.2530, 53.36455
729.7351, 53.31697
730.2172, 52.99998
730.6993, 52.63395
731.1815, 52.45169
731.6636, 52.41673
732.1457, 52.39665
732.6278, 52.38721
733.1099, 52.40800
733.5920, 52.49024
734.0742, 52.56871
734.5563, 52.52936
735.0384, 52.33427
735.5205, 52.21351
736.0026, 52.26565
736.4847, 52.27558
736.9669, 52.13591
737.4490, 51.93022
737.9311, 51.74941
738.4132, 51.61243
738.8953, 51.48384
739.3774, 51.29005
739.8596, 51.12550
740.3417, 51.28872
740.8238, 51.74659
741.3059, 51.90891
741.7880, 51.55212
742.2701, 51.12270
742.7523, 51.08512
743.2344, 51.40002
743.7165, 51.46331
744.1986, 50.90885
744.6807, 50.62840
745.1628, 51.02379
745.6450, 51.49031
746.1271, 51.51556
746.6092, 51.19763
747.0913, 50.94219
747.5734, 50.94344
748.0555, 51.09132
748.5377, 51.33919
749.0198, 51.62743
749.5019, 51.68891
749.9840, 51.48302
750.4661, 51.26183
750.9482, 51.16256
751.4304, 51.16941
751.9125, 51.25934
752.3946, 51.55596
752.8767, 51.63625
753.3588, 51.36663
753.8409, 51.04660
754.3231, 50.64257
754.8052, 50.33345
755.2873, 50.45305
755.7694, 51.05870
756.2515, 51.58618
756.7336, 51.54868
757.2158, 51.19238
757.6979, 50.84378
758.1800, 50.53719
758.6621, 50.45460
759.1442, 50.67866
759.6263, 50.96375
760.1085, 50.99971
760.5906, 50.78529
761.0727, 50.77220
761.5548, 51.18760
762.0369, 51.46700
762.5190, 51.48906
763.0012, 51.38483
763.4833, 51.19061
763.9654, 50.95025
764.4475, 50.78090
764.9296, 50.73842
765.4117, 50.76385
765.8939, 50.89448
766.3760, 51.02991
766.8581, 50.89837
767.3402, 50.51429
767.8223, 50.27706
768.3044, 50.45763
768.7866, 50.87888
769.2687, 51.09544
769.7508, 51.05709
770.2329, 50.99554
770.7150, 50.87734
771.1971, 50.79054
771.6793, 50.78813
772.1614, 50.83283
772.6435, 50.88551
773.1256, 50.94534
773.6077, 50.97677
774.0898, 50.91761
774.5720, 50.86812
775.0541, 50.96709
775.5362, 51.12577
776.0183, 51.12927
776.5004, 50.93098
776.9825, 50.72713
777.4647, 50.73159
777.9468, 50.89392
778.4289, 50.94680
778.9110, 50.86008
779.3931, 50.82872
779.8752, 50.91331
780.3574, 51.04618
780.8395, 51.22417
781.3216, 51.41227
781.8037, 51.42168
782.2858, 51.06527
782.7679, 50.79115
783.2501, 50.73063
783.7322, 50.77513
784.2143, 50.87772
784.6964, 51.00331
785.1785, 51.09468
785.6606, 51.12469
786.1428, 51.13734
786.6249, 51.18684
787.1070, 51.26562
787.5891, 51.34993
788.0712, 51.43901
788.5533, 51.51511
789.0355, 51.58771
789.5176, 51.59873
789.9997, 51.42962
790.4818, 51.02202
790.9639, 50.80017
791.4460, 50.85632
791.9282, 50.97208
792.4103, 51.19479
792.8924, 51.38781
793.3745, 51.35455
793.8566, 51.14682
794.3387, 51.08849
794.8209, 51.41557
795.3030, 51.83588
795.7851, 52.07116
796.2672, 52.18501
796.7493, 52.31034
797.2314, 52.46714
797.7136, 52.62370
798.1957, 52.76431
798.6778, 52.87274
799.1599, 52.88781
799.6420, 52.76045
800.1241, 52.75246
800.6063, 52.97965
801.0884, 53.15273
801.5705, 53.01228
802.0526, 52.80558
802.5347, 52.85660
803.0168, 53.20222
803.4990, 53.55416
803.9811, 53.87759
804.4632, 54.13459
804.9453, 54.28556
805.4274, 54.36059
805.9095, 54.40208
806.3917, 54.41939
806.8738, 54.39852
807.3559, 54.32085
807.8380, 54.21181
808.3201, 54.08814
808.8022, 53.95662
809.2844, 54.06994
809.7665, 54.56037
810.2486, 54.87685
810.7307, 54.56984
811.2128, 53.84797
811.6949, 53.35291
812.1771, 53.16654
812.6592, 53.05434
813.1413, 53.00904
813.6234, 53.04406
814.1055, 53.28033
814.5876, 53.54561
815.0698, 53.56840
815.5519, 53.31140
816.0340, 53.08295
816.5161, 53.12058
816.9982, 53.25171
817.4803, 53.21849
817.9625, 53.11896
818.4446, 53.27474
818.9267, 53.73901
819.4088, 54.18266
819.8909, 54.31586
820.3730, 54.22630
820.8552, 54.24421
821.3373, 54.42799
821.8194, 54.44254
822.3015, 54.13284
822.7836, 53.84838
823.2657, 53.83324
823.7479, 53.97688
824.2300, 54.06549
824.7121, 54.08405
825.1942, 54.08656
825.6763, 54.06317
826.1584, 54.04883
826.6406, 54.12111
827.1227, 54.18951
827.6048, 54.09304
828.0869, 53.82245
828.5690, 53.55460
829.0511, 53.43634
829.5333, 53.39110
830.0154, 53.22496
830.4975, 52.99662
830.9796, 53.04769
831.4617, 53.45208
831.9438, 53.87809
832.4260, 54.09023
832.9081, 54.13514
833.3902, 54.15893
833.8723, 54.19064
834.3544, 54.11766
834.8365, 53.80424
835.3187, 53.55905
835.8008, 53.47951
836.2829, 53.54198
836.7650, 53.78957
837.2471, 54.22974
837.7292, 54.49274
838.2114, 54.35621
838.6935, 54.11747
839.1756, 53.87697
839.6577, 53.69625
840.1398, 53.72416
840.6219, 53.91927
841.1041, 53.98871
841.5862, 53.69778
842.0683, 53.31258
842.5504, 53.36478
843.0325, 53.77662
843.5146, 54.01484
843.9968, 54.01265
844.4789, 53.95079
844.9610, 53.92545
845.4431, 53.89589
845.9252, 53.78750
846.4073, 53.59094
846.8895, 53.35751
847.3716, 52.95051
847.8537, 52.69245
848.3358, 52.71252
848.8179, 52.85882
849.3000, 53.03276
849.7822, 53.21423
850.2643, 53.35833
850.7464, 53.38079
851.2285, 53.47677
851.7106, 53.94138
852.1927, 54.41709
852.6749, 54.39539
853.1570, 53.98883
853.6391, 53.67875
854.1212, 53.68738
854.6033, 53.84088
855.0854, 53.93971
855.5676, 53.99208
856.0497, 54.05032
856.5318, 54.11716
857.0139, 54.08039
857.4960, 53.87143
857.9781, 53.66655
858.4603, 53.65411
858.9424, 53.82148
859.4245, 54.02422
859.9066, 54.34219
860.3887, 54.55611
860.8708, 54.59222
861.3530, 54.58323
861.8351, 54.51662
862.3172, 54.47803
862.7993, 54.63948
863.2814, 55.06404
863.7635, 55.48319
864.2457, 55.75674
864.7278, 56.00970
865.2099, 56.45140
865.6920, 56.90125
866.1741, 57.01344
866.6563, 56.74279
867.1384, 56.32183
867.6205, 55.88188
868.1026, 55.49494
868.5847, 55.34467
869.0668, 55.39191
869.5490, 55.38166
870.0311, 55.27722
870.5132, 55.16828
870.9953, 55.13534
871.4774, 55.04878
871.9595, 54.58905
872.4417, 53.59528
872.9238, 53.12006
873.4059, 53.56860
873.8880, 53.89003
874.3701, 53.57558
874.8522, 53.15979
875.3344, 53.12165
875.8165, 53.40597
876.2986, 53.62055
876.7807, 53.65107
877.2628, 53.65894
877.7449, 53.71495
878.2271, 53.75965
878.7092, 53.74416
879.1913, 53.67302
879.6734, 53.55685
880.1555, 53.40145
880.6376, 53.24969
881.1198, 53.09027
881.6019, 52.98907
882.0840, 53.11189
882.5661, 53.41206
883.0482, 53.71696
883.5303, 53.97780
884.0125, 54.10478
884.4946, 53.99363
884.9767, 53.74961
885.4588, 53.76488
885.9409, 54.12593
886.4230, 54.24468
886.9052, 53.98748
887.3873, 53.69407
887.8694, 53.50761
888.3515, 53.39743
888.8336, 53.29658
889.3157, 53.18748
889.7979, 53.22393
890.2800, 53.61736
890.7621, 53.88699
891.2442, 53.80036
891.7263, 53.62269
892.2084, 53.61383
892.6906, 53.71865
893.1727, 53.67192
893.6548, 53.30445
894.1369, 53.05386
894.6190, 53.38125
895.1011, 53.86351
895.5833, 53.92010
896.0654, 53.71032
896.5475, 53.51390
897.0296, 52.87840
897.5117, 53.40017
897.9938, 53.72699
898.4760, 53.86939
898.9581, 53.27484
899.4402, 53.63187
899.9223, 53.60756
900.4044, 53.56761
900.8865, 54.05857
901.3687, 53.57124
901.8508, 54.05379
902.3329, 54.14916
902.8150, 54.42174
903.2971, 54.31061
903.7792, 54.31799
904.2614, 54.70923
904.7435, 54.12482
905.2256, 53.74503
905.7077, 53.86432
906.1898, 54.37698
906.6719, 54.69264
907.1541, 54.60982
907.6362, 54.53152
908.1183, 54.53598
908.6004, 54.59669
909.0825, 54.75616
909.5646, 54.93539
910.0468, 54.96074
910.5289, 54.80227
911.0110, 54.74015
911.4931, 55.05682
911.9752, 55.48326
912.4573, 55.74424
912.9395, 55.88917
913.4216, 56.01357
913.9037, 56.13750
914.3858, 56.27180
914.8679, 56.42920
915.3500, 56.54177
915.8321, 56.42187
916.3142, 56.12274
916.7963, 56.07473
917.2784, 56.29880
917.7606, 56.64661
918.2427, 57.11091
918.7248, 57.49958
919.2069, 57.59011
919.6890, 57.42367
920.1711, 57.31103
920.6533, 57.23307
921.1354, 57.26435
921.6175, 57.54020
922.0996, 57.75537
922.5817, 57.65626
923.0638, 57.44139
923.5460, 57.39501
924.0281, 57.53346
924.5102, 57.76176
924.9923, 58.11505
925.4744, 58.49625
925.9565, 58.92860
926.4387, 59.32860
926.9208, 59.56579
927.4029, 59.70522
927.8850, 59.94728
928.3671, 60.37912
928.8492, 60.84428
929.3314, 61.24699
929.8135, 61.61726
930.2956, 61.90462
930.7777, 62.21081
931.2598, 62.78576
931.7419, 63.66284
932.2241, 64.60141
932.7062, 65.43641
933.1883, 66.17113
933.6704, 66.74282
934.1525, 67.21013
934.6346, 67.80949
935.1168, 68.56960
935.5989, 69.57571
936.0810, 70.87015
936.5631, 72.37576
937.0452, 74.02188
937.5273, 75.79617
938.0095, 77.44199
938.4916, 78.86713
938.9737, 80.56810
939.4558, 82.68691
939.9379, 85.03084
940.4200, 87.50397
940.9022, 90.10205
941.3843, 92.76631
941.8664, 95.26453
942.3485, 98.57390
942.8306, 103.1057
943.3127, 107.8675
943.7949, 112.4090
944.2770, 117.2212
944.7591, 122.5807
945.2412, 128.5714
945.7233, 135.3863
946.2054, 143.0614
946.6876, 151.5783
947.1697, 160.9179
947.6518, 171.1264
948.1339, 182.1906
948.6160, 194.0981
949.0981, 206.7506
949.5803, 220.1707
950.0624, 234.9088
950.5445, 251.4773
951.0266, 269.3124
951.5087, 288.2970
951.9908, 308.1705
952.4730, 328.4572
952.9551, 349.2846
953.4372, 371.0570
953.9193, 393.9390
954.4014, 418.6063
954.8835, 445.5302
955.3657, 474.8054
955.8478, 506.7090
956.3299, 541.1599
956.8120, 577.8892
957.2941, 616.8274
957.7762, 659.2069
958.2584, 706.0410
958.7405, 756.6981
959.2226, 810.1368
959.7047, 866.5251
960.1868, 925.0959
960.6689, 987.3884
961.1511, 1045.969
961.6332, 1097.011
962.1153, 1148.318
962.5974, 1209.523
963.0795, 1276.034
963.5616, 1328.162
964.0438, 1369.220
964.5259, 1389.262
965.0080, 1388.776
965.4901, 1366.271
965.9722, 1316.837
966.4543, 1249.107
966.9365, 1168.391
967.4186, 1076.045
967.9007, 982.8548
968.3828, 885.7346
968.8649, 794.0001
969.3470, 709.5182
969.8292, 631.9734
970.3113, 562.0025
970.7934, 498.9267
971.2755, 442.0786
971.7576, 391.4912
972.2397, 346.4379
972.7219, 307.5310
973.2040, 273.3354
973.6861, 243.3306
974.1682, 217.0625
974.6503, 194.2201
975.1324, 174.5387
975.6146, 157.8215
976.0967, 143.8950
976.5788, 132.0121
977.0609, 121.7149
977.5430, 112.9167
978.0251, 105.6340
978.5073, 99.68563
978.9894, 94.70845
979.4715, 90.53706
979.9536, 86.83199
980.4357, 83.39034
980.9178, 80.34278
981.4000, 78.00769
981.8821, 76.22179
982.3642, 74.37569
982.8463, 72.50096
983.3284, 70.87563
983.8105, 69.57803
984.2927, 68.47810
984.7748, 67.50321
985.2569, 66.57796
985.7390, 65.47086
986.2211, 64.16190
986.7032, 63.16346
987.1854, 62.53441
987.6675, 61.89750
988.1496, 61.09408
988.6317, 60.34375
989.1138, 59.83759
989.5959, 59.56514
990.0781, 59.53095
990.5602, 59.93997
991.0423, 59.98132
991.5244, 59.52697
992.0065, 58.89904
992.4886, 57.99770
992.9708, 57.19277
993.4529, 56.96540
993.9350, 57.26335
994.4171, 57.46515
994.8992, 57.55892
995.3813, 57.57447
995.8635, 57.35960
996.3456, 57.24118
996.8277, 57.56483
997.3098, 57.94272
997.7919, 57.74456
998.2740, 57.00366
998.7562, 56.71680
999.2383, 57.50239
999.7204, 58.16510
1000.203, 58.39034
1000.685, 58.39752
1001.167, 58.26413
1001.649, 58.04913
1002.131, 57.75992
1002.613, 57.41709
1003.095, 57.27575
1003.577, 57.52972
1004.059, 57.91141
1004.542, 58.38145
1005.024, 58.81816
1005.506, 59.01062
1005.988, 59.09095
1006.470, 59.41086
1006.952, 60.05006
1007.434, 60.63010
1007.916, 60.96331
1008.398, 61.04508
1008.881, 60.61779
1009.363, 60.08315
1009.845, 60.11220
1010.327, 60.60724
1010.809, 61.01435
1011.291, 61.11946
1011.773, 61.19639
1012.255, 61.50885
1012.738, 61.94499
1013.220, 62.37189
1013.702, 62.77298
1014.184, 63.12532
1014.666, 63.41465
1015.148, 63.57471
1015.630, 63.57258
1016.112, 63.55925
1016.594, 63.67635
1017.077, 63.94234
1017.559, 64.45525
1018.041, 65.17379
1018.523, 65.90703
1019.005, 66.61831
1019.487, 67.33208
1019.969, 68.06391
1020.451, 68.82887
1020.934, 69.66157
1021.416, 70.55250
1021.898, 71.44422
1022.380, 72.34202
1022.862, 73.38950
1023.344, 74.62718
1023.826, 75.87351
1024.308, 77.01675
1024.791, 78.12505
1025.273, 79.30134
1025.755, 80.55281
1026.237, 82.01664
1026.719, 83.72586
1027.201, 85.37350
1027.683, 86.87022
1028.165, 88.39661
1028.647, 90.05335
1029.130, 91.86180
1029.612, 93.86880
1030.094, 96.10750
1030.576, 98.20513
1031.058, 100.1757
1031.540, 101.9679
1032.022, 103.5576
1032.504, 104.9860
1032.986, 106.2335
1033.469, 107.3982
1033.951, 108.7325
1034.433, 110.2814
1034.915, 111.7042
1035.397, 112.9913
1035.879, 114.1920
1036.361, 115.4051
1036.843, 116.4083
1037.326, 116.9406
1037.808, 117.2040
1038.290, 117.6855
1038.772, 118.4805
1039.254, 119.0711
1039.736, 119.2422
1040.218, 119.5534
1040.700, 120.3392
1041.182, 121.0540
1041.665, 121.2438
1042.147, 121.1038
1042.629, 121.1131
1043.111, 121.3641
1043.593, 121.3563
1044.075, 120.8692
1044.557, 120.4119
1045.039, 120.0188
1045.521, 119.7531
1046.004, 119.5108
1046.486, 119.4677
1046.968, 120.0779
1047.450, 121.5115
1047.932, 122.7690
1048.414, 123.4022
1048.896, 124.3235
1049.378, 125.7736
1049.861, 127.5916
1050.343, 130.0307
1050.825, 132.6370
1051.307, 134.5093
1051.789, 135.4746
1052.271, 136.2979
1052.753, 137.3017
1053.235, 137.9384
1053.718, 138.0036
1054.200, 137.6604
1054.682, 136.9236
1055.164, 135.9096
1055.646, 134.8029
1056.128, 133.6348
1056.610, 132.3173
1057.092, 130.4023
1057.574, 128.9069
1058.057, 128.3858
1058.539, 128.2214
1059.021, 127.9484
1059.503, 127.6787
1059.985, 127.6912
1060.467, 128.0303
1060.949, 128.4706
1061.431, 128.8634
1061.913, 129.4479
1062.396, 130.2879
1062.878, 131.3870
1063.360, 132.6401
1063.842, 134.1999
1064.324, 136.3362
1064.806, 139.0721
1065.288, 142.1243
1065.770, 145.4148
1066.253, 148.9519
1066.735, 152.3792
1067.217, 156.4009
1067.699, 161.8121
1068.181, 168.0847
1068.663, 174.6334
1069.145, 181.2177
1069.627, 187.2214
1070.109, 192.6020
1070.592, 197.0882
1071.074, 200.5427
1071.556, 203.1054
1072.038, 205.1638
1072.520, 206.2757
1073.002, 205.7549
1073.484, 203.5958
1073.966, 200.4059
1074.448, 196.2188
1074.931, 191.4366
1075.413, 186.0417
1075.895, 180.3545
1076.377, 174.4089
1076.859, 168.4326
1077.341, 162.6756
1077.823, 157.1848
1078.305, 152.0467
1078.788, 147.4025
1079.270, 142.7099
1079.752, 137.6623
1080.234, 132.5651
1080.716, 127.5997
1081.198, 122.7038
1081.680, 117.6045
1082.162, 112.4556
1082.644, 107.6969
1083.127, 103.4968
1083.609, 99.61610
1084.091, 95.78266
1084.573, 92.37468
1085.055, 89.77493
1085.537, 87.59004
1086.019, 85.50887
1086.501, 83.44762
1086.984, 81.33044
1087.466, 79.11950
1087.948, 77.05000
1088.430, 75.21444
1088.912, 73.55254
1089.394, 72.01718
1089.876, 70.65236
1090.358, 69.57345
1090.840, 68.67949
1091.323, 67.64783
1091.805, 66.41472
1092.287, 65.79351
1092.769, 67.01900
1093.251, 67.66559
1093.733, 66.21687
1094.215, 64.28500
1094.697, 62.96724
1095.179, 62.13537
1095.662, 61.50428
1096.144, 60.99764
1096.626, 60.39347
1097.108, 59.39642
1097.590, 58.64604
1098.072, 58.59401
1098.554, 58.58916
1099.036, 58.16188
1099.519, 57.57450
1100.001, 57.15782
1100.483, 56.94276
1100.965, 56.86639
1101.447, 57.10107
1101.929, 57.06002
1102.411, 56.21918
1102.893, 55.52048
1103.375, 55.48756
1103.858, 55.75449
1104.340, 56.04054
1104.822, 56.27485
1105.304, 56.31542
1105.786, 56.07398
1106.268, 55.88210
1106.750, 55.78416
1107.232, 55.76288
1107.714, 55.89565
1108.197, 56.02459
1108.679, 56.02888
1109.161, 55.93498
1109.643, 55.79519
1110.125, 55.59654
1110.607, 55.46833
1111.089, 55.47702
1111.571, 55.47879
1112.054, 55.52994
1112.536, 55.47795
1113.018, 55.10947
1113.500, 54.64787
1113.982, 54.45954
1114.464, 54.55325
1114.946, 54.59577
1115.428, 54.67754
1115.911, 54.55381
1116.393, 54.07891
1116.875, 53.58084
1117.357, 53.13947
1117.839, 52.78230
1118.321, 52.52868
1118.803, 52.38224
1119.285, 52.37987
1119.767, 52.67219
1120.250, 52.71543
1120.732, 52.33832
1121.214, 52.06999
1121.696, 52.12614
1122.178, 52.23530
1122.660, 52.19887
1123.142, 52.03418
1123.624, 51.75696
1124.106, 51.32270
1124.589, 51.10892
1125.071, 51.10307
1125.553, 51.43657
1126.035, 52.32372
1126.517, 52.94464
1126.999, 52.74546
1127.481, 52.16205
1127.963, 51.88902
1128.446, 51.88825
1128.928, 51.69639
1129.410, 51.28267
1129.892, 50.92820
1130.374, 50.64705
1130.856, 50.61663
1131.338, 50.95740
1131.820, 51.27826
1132.302, 51.13228
1132.785, 50.70070
1133.267, 50.55456
1133.749, 50.67618
1134.231, 50.80636
1134.713, 50.92986
1135.195, 50.93469
1135.677, 50.79092
1136.159, 50.65065
1136.641, 50.63105
1137.124, 50.62354
1137.606, 50.40355
1138.088, 50.04467
1138.570, 49.76227
1139.052, 49.59049
1139.534, 49.78969
1140.016, 50.32545
1140.498, 50.68151
1140.981, 50.61911
1141.463, 50.45074
1141.945, 50.52676
1142.427, 50.68270
1142.909, 50.54456
1143.391, 50.30306
1143.873, 50.46883
1144.355, 50.91698
1144.838, 51.03876
1145.320, 50.73623
1145.802, 50.67380
1146.284, 51.43052
1146.766, 52.16012
1147.248, 51.88430
1147.730, 51.20092
1148.212, 50.68670
1148.694, 50.37671
1149.177, 50.28468
1149.659, 50.37089
1150.141, 50.54112
1150.623, 50.77466
1151.105, 50.93545
1151.587, 50.88974
1152.069, 50.80253
1152.551, 50.78334
1153.033, 50.78332
1153.516, 50.75505
1153.998, 50.70263
1154.480, 50.63969
1154.962, 50.57035
1155.444, 50.51131
1155.926, 50.44009
1156.408, 50.42216
1156.890, 50.50010
1157.373, 50.61045
1157.855, 50.77898
1158.337, 50.91602
1158.819, 50.85725
1159.301, 50.66463
1159.783, 50.66827
1160.265, 51.03524
1160.747, 51.22404
1161.229, 51.03010
1161.712, 50.89912
1162.194, 50.99951
1162.676, 51.10896
1163.158, 51.09896
1163.640, 50.99072
1164.122, 50.80003
1164.604, 50.52049
1165.086, 50.34595
1165.568, 50.28590
1166.051, 50.30396
1166.533, 50.40043
1167.015, 50.59362
1167.497, 50.96779
1167.979, 51.20845
1168.461, 50.93487
1168.943, 50.35391
1169.425, 50.14735
1169.908, 50.32786
1170.390, 50.45630
1170.872, 50.52386
1171.354, 50.52544
1171.836, 50.45660
1172.318, 50.56039
1172.800, 51.01084
1173.282, 51.42366
1173.765, 51.17166
1174.247, 50.53228
1174.729, 50.33907
1175.211, 50.47736
1175.693, 50.56413
1176.175, 50.56374
1176.657, 50.55762
1177.139, 50.56598
1177.621, 50.49776
1178.104, 50.25350
1178.586, 50.01619
1179.068, 50.03362
1179.550, 50.16969
1180.032, 50.21550
1180.514, 50.24860
1180.996, 50.51067
1181.478, 50.92076
1181.960, 51.06050
1182.443, 50.76552
1182.925, 50.54692
1183.407, 50.80735
1183.889, 51.10790
1184.371, 51.15331
1184.853, 51.15028
1185.335, 51.33453
1185.817, 51.57039
1186.300, 51.59897
1186.782, 51.41721
1187.264, 51.26973
1187.746, 51.21622
1188.228, 51.17887
1188.710, 51.24062
1189.192, 51.19116
1189.674, 50.84575
1190.156, 50.46403
1190.639, 50.22419
1191.121, 50.10506
1191.603, 50.05731
1192.085, 50.07558
1192.567, 50.26719
1193.049, 50.82522
1193.531, 50.94738
1194.013, 50.37019
1194.495, 49.90454
1194.978, 49.91511
1195.460, 50.10089
1195.942, 50.16491
1196.424, 50.14610
1196.906, 50.17797
1197.388, 50.25301
1197.870, 50.14704
1198.352, 49.87521
1198.835, 49.74559
1199.317, 49.82038
1199.799, 50.08625
1200.281, 50.54135
1200.763, 50.85838
1201.245, 50.55682
1201.727, 50.01536
1202.209, 49.94714
1202.692, 50.14479
1203.174, 50.19891
1203.656, 50.12169
1204.138, 50.01214
1204.620, 49.92433
1205.102, 49.98149
1205.584, 50.27354
1206.066, 50.57463
1206.548, 50.79744
1207.031, 50.87793
1207.513, 50.59848
1207.995, 50.29066
1208.477, 50.33343
1208.959, 50.61769
1209.441, 50.74501
1209.923, 50.34857
1210.405, 50.91442
1210.887, 51.28531
1211.370, 51.47202
1211.852, 50.92155
1212.334, 51.32265
1212.816, 51.34242
1213.298, 51.34653
1213.780, 51.88158
1214.262, 51.43828
1214.744, 51.96492
1215.227, 51.66869
1215.709, 51.76281
1216.191, 52.31685
1216.673, 52.51027
1217.155, 52.13601
1217.637, 51.93709
1218.119, 52.25719
1218.601, 52.75532
1219.083, 53.11768
1219.566, 53.31195
1220.048, 53.15018
1220.530, 52.74912
1221.012, 52.71457
1221.494, 52.96379
1221.976, 53.02229
1222.458, 52.83688
1222.940, 52.64277
1223.422, 52.54702
1223.905, 52.48447
1224.387, 52.37416
1224.869, 52.30699
1225.351, 52.45024
1225.833, 52.63350
1226.315, 52.63923
1226.797, 52.53987
1227.279, 52.44648
1227.762, 52.39344
1228.244, 52.43455
1228.726, 52.61803
1229.208, 52.71061
1229.690, 52.64946
1230.172, 52.46096
1230.654, 51.92415
1231.136, 51.51084
1231.619, 51.62060
1232.101, 51.97594
1232.583, 52.28357
1233.065, 52.50496
1233.547, 52.35992
1234.029, 51.66129
1234.511, 51.21751
1234.993, 51.02220
1235.475, 51.15262
1235.958, 51.70265
1236.440, 52.21984
1236.922, 52.44687
1237.404, 52.48861
1237.886, 52.49280
1238.368, 52.41293
1238.850, 51.96133
1239.332, 51.30714
1239.814, 51.26054
1240.297, 51.68737
1240.779, 51.71499
1241.261, 51.25218
1241.743, 51.07037
1242.225, 51.58954
1242.707, 52.12771
1243.189, 52.02568
1243.671, 51.73336
1244.154, 51.64550
1244.636, 51.59478
1245.118, 51.35397
1245.600, 51.03586
1246.082, 50.81712
1246.564, 50.73385
1247.046, 50.83900
1247.528, 51.27660
1248.010, 51.51147
1248.493, 51.26381
1248.975, 51.07955
1249.457, 51.17835
1249.939, 51.25698
1250.421, 51.10841
1250.903, 50.89594
1251.385, 50.83796
1251.867, 50.91066
1252.349, 50.98466
1252.832, 51.06184
1253.314, 51.12518
1253.796, 51.17515
1254.278, 51.16050
1254.760, 51.07316
1255.242, 51.05526
1255.724, 51.18597
1256.206, 51.34168
1256.689, 51.38946
1257.171, 51.36690
1257.653, 51.28067
1258.135, 51.20312
1258.617, 51.31159
1259.099, 51.50681
1259.581, 51.57660
1260.063, 51.50515
1260.546, 51.38557
1261.028, 51.24173
1261.510, 51.14158
1261.992, 51.09247
1262.474, 51.12464
1262.956, 51.37592
1263.438, 51.56997
1263.920, 51.41305
1264.402, 51.19820
1264.885, 51.37076
1265.367, 51.76890
1265.849, 51.77486
1266.331, 51.28839
1266.813, 51.06460
1267.295, 51.14380
1267.777, 51.31519
1268.259, 51.56474
1268.741, 51.78084
1269.224, 51.91866
1269.706, 51.96478
1270.188, 51.89636
1270.670, 51.76618
1271.152, 51.69604
1271.634, 51.62691
1272.116, 51.27657
1272.598, 50.86861
1273.081, 51.05698
1273.563, 51.68347
1274.045, 52.01607
1274.527, 51.87024
1275.009, 51.75613
1275.491, 52.03036
1275.973, 52.16000
1276.455, 51.56715
1276.938, 51.15583
1277.420, 51.66726
1277.902, 52.35684
1278.384, 52.44783
1278.866, 52.26563
1279.348, 52.48983
1279.830, 53.10859
1280.312, 53.90657
1280.794, 55.20857
1281.276, 55.24311
1281.759, 53.64245
1282.241, 52.47645
1282.723, 52.29940
1283.205, 52.48914
1283.687, 52.69114
1284.169, 52.80912
1284.651, 52.67886
1285.133, 52.44758
1285.616, 52.36019
1286.098, 52.41245
##END=



