##NAMES=Fluorcalciomicrolite
##RRUFFID=R050625
##IDEAL CHEMISTRY=(Ca,Na)_2_Ta^5+^_2_O_6_F
##LOCALITY=Urubu mine, Itinga, Minas Gerais, Brazil
##OWNER=RRUFF
##SOURCE=Gemological Center
##DESCRIPTION=Yellow fragment
##STATUS=The identification of this mineral has been confirmed by X-ray diffraction and chemical analysis
##URL=rruff.info/R050625
##MEASURED CHEMISTRY=(Ca_0.98_Na_0.92_)_∑=1.90_(Ta_1.88_Nb_0.11_Sn_0.01_)_∑=2_O_6_[F_0.86_(OH)_0.01_]_∑=0.87_
91.11523, 202.3327
91.59735, 200.8057
92.07947, 202.0959
92.56158, 205.3687
93.04370, 207.9985
93.52582, 207.7086
94.00793, 205.7725
94.49006, 205.0847
94.97218, 206.2172
95.45429, 208.0300
95.93641, 208.9025
96.41853, 208.8429
96.90064, 208.1983
97.38276, 206.3012
97.86488, 203.4344
98.34699, 202.7393
98.82911, 204.7250
99.31123, 209.1940
99.79334, 216.8136
100.2755, 228.7705
100.7576, 239.5307
101.2397, 243.4158
101.7218, 239.1521
102.2039, 234.0196
102.6861, 228.5194
103.1682, 222.6574
103.6503, 221.8533
104.1324, 228.5697
104.6145, 237.6103
105.0966, 242.5282
105.5788, 240.4775
106.0609, 239.1513
106.5430, 240.5938
107.0251, 245.5105
107.5072, 250.6971
107.9893, 255.5329
108.4715, 260.8299
108.9536, 267.9973
109.4357, 275.3278
109.9178, 286.1383
110.3999, 301.9648
110.8820, 326.0503
111.3642, 349.5664
111.8463, 369.8363
112.3284, 389.0994
112.8105, 413.6354
113.2926, 445.8484
113.7747, 482.8413
114.2569, 522.8098
114.7390, 564.1462
115.2211, 610.2681
115.7032, 661.2745
116.1853, 717.2986
116.6674, 778.7415
117.1496, 842.0990
117.6317, 913.5267
118.1138, 997.3962
118.5959, 1096.534
119.0780, 1207.815
119.5602, 1329.871
120.0423, 1463.659
120.5244, 1607.483
121.0065, 1762.731
121.4886, 1927.179
121.9707, 2098.638
122.4529, 2280.578
122.9350, 2464.652
123.4171, 2643.656
123.8992, 2817.183
124.3813, 2986.948
124.8634, 3159.273
125.3456, 3329.346
125.8277, 3486.884
126.3098, 3616.945
126.7919, 3732.855
127.2740, 3850.917
127.7561, 3971.210
128.2383, 4098.670
128.7204, 4237.113
129.2025, 4386.981
129.6846, 4550.604
130.1667, 4730.626
130.6488, 4923.976
131.1310, 5133.039
131.6131, 5359.265
132.0952, 5598.817
132.5773, 5846.333
133.0594, 6102.960
133.5415, 6364.370
134.0237, 6633.646
134.5058, 6911.150
134.9879, 7182.743
135.4700, 7449.997
135.9521, 7709.540
136.4343, 7959.245
136.9164, 8200.048
137.3985, 8430.255
137.8806, 8653.362
138.3627, 8872.637
138.8448, 9072.518
139.3270, 9253.912
139.8091, 9416.958
140.2912, 9554.003
140.7733, 9661.449
141.2554, 9751.483
141.7375, 9832.512
142.2197, 9900.345
142.7018, 9972.350
143.1839, 10051.11
143.6660, 10135.91
144.1481, 10232.69
144.6302, 10341.82
145.1124, 10462.01
145.5945, 10589.69
146.0766, 10727.20
146.5587, 10870.95
147.0408, 11019.88
147.5230, 11172.56
148.0051, 11330.78
148.4872, 11443.42
148.9693, 11494.00
149.4514, 11552.12
149.9335, 11626.65
150.4157, 11700.59
150.8978, 11768.06
151.3799, 11827.83
151.8620, 11887.75
152.3441, 11953.14
152.8262, 12019.11
153.3084, 12074.59
153.7905, 12122.67
154.2726, 12157.91
154.7547, 12178.38
155.2368, 12178.59
155.7189, 12172.52
156.2011, 12158.47
156.6832, 12138.80
157.1653, 12119.87
157.6474, 12104.58
158.1295, 12088.66
158.6116, 12070.41
159.0938, 12054.96
159.5759, 12029.30
160.0580, 11980.28
160.5401, 11915.78
161.0222, 11863.18
161.5044, 11842.71
161.9865, 11830.25
162.4686, 11809.27
162.9507, 11767.72
163.4328, 11725.98
163.9149, 11691.95
164.3971, 11664.26
164.8792, 11637.98
165.3613, 11606.00
165.8434, 11576.40
166.3255, 11556.53
166.8076, 11554.36
167.2898, 11557.82
167.7719, 11558.83
168.2540, 11558.30
168.7361, 11563.94
169.2182, 11581.11
169.7003, 11606.74
170.1825, 11637.16
170.6646, 11674.84
171.1467, 11714.11
171.6288, 11751.31
172.1109, 11786.08
172.5931, 11819.34
173.0752, 11851.22
173.5573, 11881.81
174.0394, 11911.49
174.5215, 11942.28
175.0036, 11970.88
175.4858, 11991.84
175.9679, 12005.13
176.4500, 12016.63
176.9321, 12034.14
177.4142, 12054.08
177.8963, 12068.04
178.3785, 12069.54
178.8606, 12064.04
179.3427, 12060.03
179.8248, 12057.87
180.3069, 12055.12
180.7890, 12047.29
181.2712, 12036.33
181.7533, 12028.54
182.2354, 12029.00
182.7175, 12034.42
183.1996, 12037.85
183.6818, 12038.93
184.1639, 12038.84
184.6460, 12038.53
185.1281, 12038.07
185.6102, 12037.97
186.0923, 12037.16
186.5745, 12036.81
187.0566, 12041.46
187.5387, 12052.26
188.0208, 12065.18
188.5029, 12074.78
188.9850, 12081.43
189.4672, 12089.09
189.9493, 12100.38
190.4314, 12114.70
190.9135, 12129.21
191.3956, 12143.76
191.8777, 12158.60
192.3599, 12173.95
192.8420, 12189.71
193.3241, 12207.80
193.8062, 12230.68
194.2883, 12257.78
194.7704, 12281.48
195.2526, 12300.89
195.7347, 12317.02
196.2168, 12332.18
196.6989, 12346.37
197.1810, 12357.04
197.6632, 12361.67
198.1453, 12360.18
198.6274, 12358.97
199.1095, 12358.96
199.5916, 12358.49
200.0737, 12355.46
200.5559, 12350.59
201.0380, 12339.69
201.5201, 12318.63
202.0022, 12286.52
202.4843, 12257.51
202.9664, 12233.70
203.4486, 12212.60
203.9307, 12188.28
204.4128, 12160.83
204.8949, 12131.46
205.3770, 12099.57
205.8591, 12064.21
206.3413, 12033.41
206.8234, 12008.95
207.3055, 11987.90
207.7876, 11965.22
208.2697, 11944.04
208.7519, 11911.46
209.2340, 11857.89
209.7161, 11779.24
210.1982, 11699.64
210.6803, 11621.40
211.1624, 11542.37
211.6446, 11454.86
212.1267, 11355.71
212.6088, 11257.88
213.0909, 11166.22
213.5730, 11079.60
214.0551, 11004.50
214.5373, 10941.95
215.0194, 10891.26
215.5015, 10848.65
215.9836, 10814.05
216.4657, 10787.73
216.9478, 10770.53
217.4300, 10765.44
217.9121, 10759.38
218.3942, 10750.88
218.8763, 10741.11
219.3584, 10733.64
219.8405, 10727.99
220.3227, 10724.93
220.8048, 10725.00
221.2869, 10728.88
221.7690, 10733.52
222.2511, 10739.31
222.7333, 10745.62
223.2154, 10750.15
223.6975, 10751.85
224.1796, 10754.03
224.6617, 10758.63
225.1438, 10767.08
225.6260, 10774.57
226.1081, 10779.07
226.5902, 10783.43
227.0723, 10796.23
227.5544, 10823.29
228.0365, 10850.18
228.5187, 10869.65
229.0008, 10877.47
229.4829, 10887.67
229.9650, 10899.71
230.4471, 10914.18
230.9292, 10933.31
231.4114, 10959.29
231.8935, 10986.29
232.3756, 11011.20
232.8577, 11032.70
233.3398, 11055.10
233.8220, 11076.86
234.3041, 11099.86
234.7862, 11128.60
235.2683, 11165.41
235.7504, 11204.39
236.2325, 11244.56
236.7147, 11287.86
237.1968, 11326.36
237.6789, 11358.35
238.1610, 11386.84
238.6431, 11418.25
239.1252, 11455.57
239.6074, 11492.51
240.0895, 11526.03
240.5716, 11552.39
241.0537, 11586.18
241.5358, 11631.72
242.0179, 11682.58
242.5001, 11725.85
242.9822, 11757.89
243.4643, 11787.73
243.9464, 11819.09
244.4285, 11854.53
244.9106, 11881.34
245.3928, 11894.94
245.8749, 11902.26
246.3570, 11916.02
246.8391, 11940.48
247.3212, 11963.69
247.8034, 11982.97
248.2855, 11999.81
248.7676, 12005.79
249.2497, 11996.20
249.7318, 11979.57
250.2139, 11969.39
250.6961, 11970.87
251.1782, 11969.98
251.6603, 11963.69
252.1424, 11952.52
252.6245, 11932.35
253.1066, 11896.74
253.5888, 11858.04
254.0709, 11832.57
254.5530, 11826.10
255.0351, 11821.08
255.5172, 11813.30
255.9993, 11802.50
256.4815, 11790.68
256.9636, 11777.23
257.4457, 11763.40
257.9278, 11749.48
258.4099, 11732.21
258.8921, 11722.45
259.3742, 11725.03
259.8563, 11740.21
260.3384, 11748.99
260.8205, 11747.21
261.3026, 11744.55
261.7848, 11750.90
262.2669, 11768.41
262.7490, 11788.74
263.2311, 11808.94
263.7132, 11829.59
264.1953, 11859.69
264.6775, 11901.80
265.1596, 11948.86
265.6417, 11995.50
266.1238, 12042.09
266.6059, 12085.56
267.0880, 12121.22
267.5702, 12152.39
268.0523, 12201.52
268.5344, 12275.82
269.0165, 12354.65
269.4986, 12421.33
269.9807, 12472.18
270.4629, 12529.85
270.9450, 12596.64
271.4271, 12672.76
271.9092, 12757.07
272.3913, 12850.52
272.8734, 12949.33
273.3556, 13052.02
273.8377, 13159.16
274.3198, 13265.21
274.8019, 13370.09
275.2840, 13474.30
275.7661, 13580.37
276.2483, 13687.78
276.7304, 13798.01
277.2125, 13911.38
277.6946, 14028.98
278.1768, 14140.42
278.6589, 14242.43
279.1410, 14341.75
279.6231, 14454.74
280.1052, 14585.19
280.5873, 14712.04
281.0695, 14821.69
281.5516, 14914.93
282.0337, 15009.64
282.5158, 15106.16
282.9979, 15204.52
283.4800, 15306.36
283.9622, 15411.88
284.4443, 15514.08
284.9264, 15609.94
285.4085, 15698.90
285.8906, 15783.40
286.3727, 15862.20
286.8549, 15940.16
287.3370, 16024.55
287.8191, 16114.92
288.3012, 16204.62
288.7833, 16290.78
289.2654, 16373.54
289.7476, 16456.13
290.2297, 16539.11
290.7118, 16618.38
291.1939, 16686.00
291.6760, 16744.06
292.1581, 16808.63
292.6403, 16888.40
293.1224, 16975.83
293.6045, 17056.05
294.0866, 17128.48
294.5687, 17196.46
295.0508, 17261.79
295.5330, 17324.90
296.0151, 17386.08
296.4972, 17446.85
296.9793, 17505.29
297.4614, 17555.52
297.9435, 17598.53
298.4257, 17638.87
298.9078, 17683.62
299.3899, 17727.67
299.8720, 17758.65
300.3541, 17773.54
300.8362, 17777.30
301.3184, 17774.54
301.8005, 17765.55
302.2826, 17751.66
302.7647, 17738.25
303.2469, 17718.96
303.7290, 17682.00
304.2111, 17623.93
304.6932, 17557.36
305.1753, 17504.36
305.6574, 17453.78
306.1396, 17381.35
306.6217, 17259.49
307.1038, 17116.60
307.5859, 16983.58
308.0680, 16862.52
308.5501, 16737.84
309.0323, 16598.07
309.5144, 16446.52
309.9965, 16289.19
310.4786, 16122.92
310.9607, 15953.98
311.4428, 15784.59
311.9250, 15615.82
312.4071, 15450.22
312.8892, 15294.50
313.3713, 15144.90
313.8534, 14996.16
314.3355, 14843.48
314.8177, 14695.85
315.2998, 14556.27
315.7819, 14425.56
316.2640, 14304.15
316.7461, 14191.19
317.2282, 14089.66
317.7104, 14001.01
318.1925, 13929.93
318.6746, 13865.19
319.1567, 13796.93
319.6388, 13730.96
320.1209, 13684.85
320.6031, 13668.02
321.0852, 13669.40
321.5673, 13683.34
322.0494, 13708.77
322.5315, 13747.65
323.0136, 13801.11
323.4958, 13868.32
323.9779, 13947.84
324.4600, 14043.17
324.9421, 14148.18
325.4242, 14258.06
325.9064, 14370.25
326.3885, 14500.92
326.8706, 14661.64
327.3527, 14837.14
327.8348, 15013.29
328.3170, 15175.07
328.7991, 15354.04
329.2812, 15556.81
329.7633, 15784.66
330.2454, 16014.21
330.7275, 16237.98
331.2097, 16466.30
331.6918, 16705.62
332.1739, 16957.08
332.6560, 17219.40
333.1381, 17492.16
333.6202, 17773.60
334.1024, 18045.93
334.5845, 18301.76
335.0666, 18554.35
335.5487, 18813.86
336.0308, 19087.79
336.5129, 19340.43
336.9951, 19574.15
337.4772, 19783.98
337.9593, 19971.27
338.4414, 20140.80
338.9235, 20277.31
339.4056, 20379.65
339.8878, 20448.55
340.3699, 20469.49
340.8520, 20442.19
341.3341, 20367.50
341.8162, 20240.97
342.2983, 20062.01
342.7805, 19848.04
343.2626, 19607.08
343.7447, 19335.11
344.2268, 19020.05
344.7089, 18655.21
345.1910, 18265.32
345.6732, 17873.03
346.1553, 17473.88
346.6374, 17076.79
347.1195, 16679.44
347.6016, 16283.29
348.0837, 15885.12
348.5659, 15482.67
349.0480, 15091.00
349.5301, 14726.98
350.0122, 14381.93
350.4944, 14046.34
350.9765, 13719.45
351.4586, 13403.90
351.9407, 13109.26
352.4228, 12833.37
352.9049, 12568.92
353.3871, 12306.34
353.8692, 12055.48
354.3513, 11831.30
354.8334, 11634.93
355.3155, 11453.94
355.7976, 11281.92
356.2798, 11116.29
356.7619, 10951.10
357.2440, 10776.95
357.7261, 10609.72
358.2082, 10463.14
358.6903, 10335.41
359.1725, 10214.82
359.6546, 10096.46
360.1367, 9981.283
360.6188, 9871.208
361.1009, 9768.387
361.5830, 9670.021
362.0652, 9574.931
362.5473, 9483.630
363.0294, 9397.328
363.5115, 9319.847
363.9936, 9244.713
364.4757, 9168.794
364.9579, 9089.156
365.4400, 9015.373
365.9221, 8949.824
366.4042, 8890.665
366.8863, 8835.533
367.3684, 8786.246
367.8506, 8739.011
368.3327, 8693.582
368.8148, 8650.448
369.2969, 8606.403
369.7790, 8556.903
370.2611, 8509.368
370.7433, 8468.691
371.2254, 8436.309
371.7075, 8409.245
372.1896, 8389.544
372.6717, 8375.036
373.1538, 8357.261
373.6360, 8334.884
374.1181, 8311.215
374.6002, 8287.073
375.0823, 8260.373
375.5645, 8240.304
376.0466, 8228.727
376.5287, 8221.935
377.0108, 8214.525
377.4929, 8206.893
377.9750, 8197.590
378.4572, 8185.534
378.9393, 8171.212
379.4214, 8159.298
379.9035, 8150.226
380.3856, 8142.440
380.8677, 8134.327
381.3499, 8126.000
381.8320, 8118.976
382.3141, 8113.243
382.7962, 8109.164
383.2783, 8109.484
383.7604, 8113.678
384.2426, 8114.551
384.7247, 8104.218
385.2068, 8087.231
385.6889, 8073.179
386.1710, 8062.961
386.6531, 8056.821
387.1353, 8058.214
387.6174, 8064.221
388.0995, 8067.253
388.5816, 8063.443
389.0637, 8055.281
389.5458, 8043.667
390.0280, 8028.796
390.5101, 8015.724
390.9922, 8007.377
391.4743, 8002.884
391.9564, 8001.569
392.4385, 8007.731
392.9207, 8011.542
393.4028, 8005.373
393.8849, 7992.315
394.3670, 7981.626
394.8491, 7976.977
395.3312, 7975.529
395.8134, 7975.976
396.2955, 7978.625
396.7776, 7981.654
397.2597, 7987.166
397.7418, 7992.072
398.2239, 7992.335
398.7061, 7982.372
399.1882, 7972.907
399.6703, 7967.805
400.1524, 7967.500
400.6346, 7962.097
401.1167, 7946.386
401.5988, 7930.216
402.0809, 7920.856
402.5630, 7924.795
403.0451, 7922.252
403.5273, 7908.716
404.0094, 7888.701
404.4915, 7875.700
404.9736, 7871.932
405.4557, 7869.439
405.9378, 7864.813
406.4200, 7857.833
406.9021, 7851.255
407.3842, 7845.944
407.8663, 7839.303
408.3484, 7827.587
408.8305, 7810.753
409.3127, 7792.661
409.7948, 7772.768
410.2769, 7753.539
410.7590, 7743.016
411.2411, 7741.328
411.7232, 7742.073
412.2054, 7741.918
412.6875, 7740.481
413.1696, 7736.057
413.6517, 7727.568
414.1338, 7718.559
414.6159, 7713.541
415.0981, 7711.329
415.5802, 7708.889
416.0623, 7703.728
416.5444, 7697.900
417.0265, 7693.909
417.5086, 7691.662
417.9908, 7688.922
418.4729, 7681.196
418.9550, 7673.380
419.4371, 7670.972
419.9192, 7679.076
420.4013, 7688.463
420.8835, 7696.381
421.3656, 7702.735
421.8477, 7707.298
422.3298, 7709.321
422.8119, 7710.176
423.2940, 7710.146
423.7762, 7708.511
424.2583, 7708.586
424.7404, 7711.717
425.2225, 7716.457
425.7047, 7721.124
426.1868, 7723.850
426.6689, 7729.059
427.1510, 7738.685
427.6331, 7752.153
428.1152, 7763.220
428.5974, 7771.668
429.0795, 7778.210
429.5616, 7783.526
430.0437, 7787.964
430.5258, 7789.040
431.0079, 7785.341
431.4901, 7779.703
431.9722, 7777.129
432.4543, 7777.743
432.9364, 7779.612
433.4185, 7781.607
433.9006, 7784.165
434.3828, 7790.508
434.8649, 7801.001
435.3470, 7810.961
435.8291, 7815.813
436.3112, 7816.725
436.7933, 7816.947
437.2755, 7816.675
437.7576, 7817.253
438.2397, 7821.340
438.7218, 7828.043
439.2039, 7834.150
439.6860, 7838.677
440.1682, 7841.358
440.6503, 7840.871
441.1324, 7836.953
441.6145, 7833.648
442.0966, 7833.537
442.5787, 7835.012
443.0609, 7836.353
443.5430, 7837.499
444.0251, 7837.563
444.5072, 7836.556
444.9893, 7834.144
445.4714, 7829.415
445.9536, 7818.602
446.4357, 7808.434
446.9178, 7803.415
447.3999, 7809.308
447.8820, 7805.391
448.3641, 7783.294
448.8463, 7756.153
449.3284, 7738.039
449.8105, 7734.767
450.2926, 7730.767
450.7747, 7723.847
451.2569, 7714.135
451.7390, 7702.360
452.2211, 7687.569
452.7032, 7672.430
453.1853, 7659.059
453.6674, 7647.460
454.1496, 7632.539
454.6317, 7613.287
455.1138, 7591.933
455.5959, 7570.222
456.0780, 7548.361
456.5602, 7531.861
457.0423, 7526.889
457.5244, 7525.893
458.0065, 7511.521
458.4886, 7485.067
458.9707, 7458.489
459.4529, 7442.049
459.9350, 7430.974
460.4171, 7418.330
460.8992, 7402.260
461.3813, 7386.994
461.8634, 7376.810
462.3456, 7369.464
462.8277, 7361.357
463.3098, 7347.104
463.7919, 7334.965
464.2740, 7330.103
464.7561, 7332.101
465.2383, 7334.334
465.7204, 7337.360
466.2025, 7338.052
466.6846, 7333.945
467.1667, 7318.704
467.6488, 7308.250
468.1310, 7304.593
468.6131, 7305.757
469.0952, 7308.978
469.5773, 7316.962
470.0594, 7322.465
470.5415, 7322.218
471.0237, 7316.634
471.5058, 7317.490
471.9879, 7326.996
472.4700, 7338.182
472.9521, 7345.671
473.4342, 7349.345
473.9164, 7352.829
474.3985, 7355.738
474.8806, 7360.270
475.3627, 7371.547
475.8448, 7388.910
476.3270, 7405.503
476.8091, 7417.235
477.2912, 7426.564
477.7733, 7436.691
478.2554, 7447.835
478.7375, 7463.401
479.2197, 7489.885
479.7018, 7521.122
480.1839, 7547.373
480.6660, 7564.067
481.1481, 7582.833
481.6302, 7611.278
482.1124, 7646.892
482.5945, 7685.432
483.0766, 7726.524
483.5587, 7769.294
484.0408, 7812.826
484.5229, 7856.972
485.0051, 7903.446
485.4872, 7949.612
485.9693, 8000.438
486.4514, 8058.291
486.9335, 8122.380
487.4156, 8195.078
487.8978, 8277.423
488.3799, 8367.622
488.8620, 8465.818
489.3441, 8572.762
489.8262, 8686.470
490.3083, 8805.577
490.7905, 8931.905
491.2726, 9072.981
491.7547, 9229.361
492.2368, 9402.469
492.7189, 9588.810
493.2010, 9790.933
493.6832, 10008.93
494.1653, 10244.47
494.6474, 10496.76
495.1295, 10764.72
495.6116, 11050.91
496.0938, 11366.58
496.5759, 11719.11
497.0580, 12100.71
497.5401, 12495.99
498.0222, 12909.71
498.5044, 13346.42
498.9865, 13811.43
499.4686, 14304.93
499.9507, 14830.71
500.4328, 15392.75
500.9149, 15971.22
501.3971, 16555.06
501.8792, 17158.44
502.3613, 17797.64
502.8434, 18489.01
503.3255, 19209.90
503.8076, 19955.20
504.2898, 20726.42
504.7719, 21535.15
505.2540, 22383.87
505.7361, 23262.03
506.2182, 24176.38
506.7003, 25125.44
507.1825, 26092.69
507.6646, 27080.90
508.1467, 28081.05
508.6288, 29092.44
509.1109, 30115.13
509.5930, 31116.50
510.0752, 32099.27
510.5573, 33044.85
511.0394, 33931.65
511.5215, 34755.89
512.0037, 35491.17
512.4858, 36147.43
512.9679, 36695.79
513.4500, 37096.89
513.9321, 37349.42
514.4142, 37462.29
514.8964, 37452.85
515.3785, 37300.81
515.8606, 36979.27
516.3427, 36437.05
516.8248, 35802.08
517.3069, 35108.37
517.7891, 34357.39
518.2712, 33548.70
518.7533, 32642.21
519.2354, 31725.67
519.7175, 30824.70
520.1996, 29936.13
520.6818, 29070.93
521.1639, 28219.33
521.6460, 27400.09
522.1281, 26631.91
522.6102, 25912.50
523.0923, 25237.15
523.5745, 24604.37
524.0566, 24013.98
524.5387, 23463.50
525.0208, 22950.43
525.5029, 22478.96
525.9850, 22051.91
526.4672, 21666.07
526.9493, 21309.27
527.4314, 20977.91
527.9135, 20669.70
528.3956, 20375.52
528.8777, 20098.25
529.3599, 19845.26
529.8420, 19614.88
530.3241, 19408.68
530.8062, 19232.88
531.2883, 19075.93
531.7704, 18928.88
532.2526, 18779.63
532.7347, 18648.43
533.2168, 18547.71
533.6989, 18469.09
534.1810, 18389.98
534.6631, 18301.65
535.1453, 18218.90
535.6274, 18145.13
536.1095, 18079.25
536.5916, 18031.83
537.0737, 18011.85
537.5558, 17995.70
538.0380, 17966.16
538.5201, 17920.19
539.0022, 17878.66
539.4843, 17842.87
539.9664, 17812.24
540.4485, 17788.38
540.9307, 17770.60
541.4128, 17753.47
541.8949, 17736.91
542.3770, 17718.17
542.8591, 17693.14
543.3412, 17661.87
543.8234, 17623.93
544.3055, 17577.03
544.7876, 17524.25
545.2697, 17468.75
545.7518, 17410.75
546.2339, 17350.33
546.7161, 17290.57
547.1982, 17227.39
547.6803, 17155.82
548.1624, 17074.72
548.6445, 16986.78
549.1266, 16892.05
549.6088, 16791.28
550.0909, 16686.12
550.5730, 16578.23
551.0551, 16463.72
551.5372, 16341.06
552.0193, 16211.04
552.5015, 16084.48
552.9836, 15961.31
553.4657, 15841.92
553.9478, 15729.43
554.4299, 15622.45
554.9120, 15505.12
555.3942, 15375.55
555.8763, 15245.21
556.3584, 15129.22
556.8405, 15022.94
557.3226, 14914.13
557.8047, 14794.32
558.2869, 14676.84
558.7690, 14578.43
559.2511, 14492.09
559.7332, 14401.28
560.2154, 14290.92
560.6975, 14181.02
561.1796, 14082.26
561.6617, 13995.57
562.1439, 13908.67
562.6260, 13815.69
563.1081, 13725.03
563.5902, 13639.67
564.0723, 13560.01
564.5544, 13484.68
565.0366, 13413.13
565.5187, 13345.38
566.0008, 13282.18
566.4829, 13222.73
566.9650, 13169.06
567.4471, 13124.02
567.9293, 13082.25
568.4114, 13029.12
568.8935, 12965.31
569.3756, 12904.78
569.8577, 12857.63
570.3398, 12818.21
570.8220, 12779.39
571.3041, 12740.44
571.7862, 12701.22
572.2683, 12660.01
572.7504, 12619.07
573.2325, 12580.04
573.7147, 12543.90
574.1968, 12509.18
574.6789, 12477.36
575.1610, 12446.30
575.6431, 12412.76
576.1252, 12373.24
576.6074, 12335.61
577.0895, 12301.20
577.5716, 12269.48
578.0537, 12237.42
578.5358, 12204.06
579.0179, 12172.65
579.5001, 12144.23
579.9822, 12118.59
580.4643, 12098.76
580.9464, 12085.91
581.4285, 12070.36
581.9106, 12039.90
582.3928, 11999.36
582.8749, 11965.63
583.3570, 11941.46
583.8391, 11920.55
584.3212, 11894.98
584.8033, 11868.51
585.2855, 11847.37
585.7676, 11836.11
586.2497, 11828.29
586.7318, 11824.51
587.2139, 11821.94
587.6960, 11812.42
588.1782, 11786.87
588.6603, 11760.74
589.1424, 11738.83
589.6245, 11720.94
590.1066, 11705.68
590.5887, 11695.15
591.0709, 11684.04
591.5530, 11668.35
592.0351, 11647.13
592.5172, 11627.06
592.9993, 11607.55
593.4814, 11591.50
593.9636, 11585.81
594.4457, 11588.20
594.9278, 11585.33
595.4099, 11572.38
595.8920, 11555.90
596.3741, 11541.89
596.8563, 11531.18
597.3384, 11525.80
597.8205, 11530.97
598.3026, 11538.67
598.7847, 11543.69
599.2668, 11546.34
599.7490, 11550.21
600.2311, 11557.82
600.7132, 11565.49
601.1953, 11570.80
601.6774, 11572.10
602.1595, 11575.77
602.6417, 11582.84
603.1238, 11590.55
603.6059, 11596.42
604.0880, 11600.26
604.5701, 11602.26
605.0522, 11601.75
605.5344, 11600.57
606.0165, 11602.50
606.4986, 11607.07
606.9807, 11610.93
607.4628, 11612.39
607.9449, 11613.22
608.4271, 11615.71
608.9092, 11619.83
609.3913, 11624.93
609.8735, 11635.45
610.3556, 11643.39
610.8377, 11640.29
611.3198, 11625.17
611.8019, 11616.51
612.2841, 11626.81
612.7662, 11639.51
613.2483, 11643.36
613.7304, 11631.87
614.2125, 11625.76
614.6946, 11627.23
615.1768, 11631.26
615.6589, 11631.24
616.1410, 11626.12
616.6231, 11624.01
617.1052, 11626.99
617.5873, 11632.63
618.0695, 11636.96
618.5516, 11639.99
619.0337, 11641.31
619.5158, 11641.23
619.9979, 11639.29
620.4800, 11633.65
620.9622, 11625.17
621.4443, 11618.15
621.9264, 11617.62
622.4085, 11617.12
622.8906, 11610.33
623.3727, 11594.71
623.8549, 11587.08
624.3370, 11599.05
624.8191, 11613.61
625.3012, 11619.11
625.7833, 11609.84
626.2654, 11605.06
626.7476, 11607.88
627.2297, 11610.92
627.7118, 11601.40
628.1939, 11578.87
628.6760, 11563.56
629.1581, 11562.95
629.6403, 11567.33
630.1224, 11560.21
630.6045, 11543.74
631.0866, 11525.42
631.5687, 11502.88
632.0508, 11484.93
632.5330, 11483.16
633.0151, 11494.90
633.4972, 11505.33
633.9793, 11506.13
634.4614, 11505.83
634.9435, 11508.43
635.4257, 11514.22
635.9078, 11522.75
636.3899, 11533.95
636.8720, 11547.65
637.3541, 11563.75
637.8362, 11582.87
638.3184, 11602.29
638.8005, 11622.78
639.2826, 11640.69
639.7647, 11646.62
640.2468, 11643.39
640.7289, 11652.56
641.2111, 11684.87
641.6932, 11719.92
642.1753, 11729.53
642.6574, 11722.31
643.1395, 11718.98
643.6216, 11726.28
644.1038, 11742.51
644.5859, 11770.54
645.0680, 11807.78
645.5501, 11843.29
646.0322, 11873.60
646.5143, 11902.41
646.9965, 11930.39
647.4786, 11957.75
647.9607, 11986.14
648.4428, 12017.78
648.9249, 12046.64
649.4070, 12067.28
649.8892, 12079.92
650.3713, 12097.72
650.8534, 12121.44
651.3355, 12150.31
651.8176, 12185.79
652.2997, 12225.64
652.7819, 12265.79
653.2640, 12306.58
653.7461, 12343.60
654.2282, 12372.89
654.7103, 12396.00
655.1924, 12415.23
655.6746, 12424.76
656.1567, 12438.14
656.6388, 12461.52
657.1209, 12491.46
657.6030, 12517.90
658.0851, 12539.92
658.5673, 12560.75
659.0494, 12581.45
659.5316, 12601.83
660.0137, 12621.26
660.4958, 12639.76
660.9779, 12655.44
661.4600, 12666.16
661.9421, 12673.35
662.4243, 12680.71
662.9064, 12688.29
663.3885, 12695.40
663.8706, 12699.08
664.3527, 12703.26
664.8348, 12714.46
665.3170, 12737.48
665.7991, 12750.64
666.2812, 12737.51
666.7633, 12716.04
667.2454, 12703.38
667.7275, 12707.23
668.2097, 12707.91
668.6918, 12705.13
669.1739, 12698.76
669.6560, 12688.27
670.1381, 12673.55
670.6202, 12655.96
671.1024, 12635.12
671.5845, 12613.01
672.0666, 12593.92
672.5487, 12577.17
673.0308, 12560.47
673.5129, 12545.36
673.9951, 12527.97
674.4772, 12503.30
674.9593, 12472.82
675.4414, 12443.58
675.9235, 12421.06
676.4056, 12397.81
676.8878, 12370.66
677.3699, 12339.12
677.8520, 12306.47
678.3341, 12272.05
678.8162, 12237.86
679.2983, 12205.97
679.7805, 12176.86
680.2626, 12143.96
680.7447, 12106.86
681.2268, 12069.36
681.7089, 12038.47
682.1910, 12010.07
682.6732, 11973.18
683.1553, 11924.92
683.6374, 11874.66
684.1195, 11829.07
684.6016, 11785.89
685.0837, 11741.58
685.5659, 11697.58
686.0480, 11649.86
686.5301, 11592.98
687.0122, 11532.82
687.4943, 11479.14
687.9764, 11434.88
688.4586, 11391.74
688.9407, 11348.75
689.4228, 11305.28
689.9049, 11260.21
690.3870, 11213.17
690.8691, 11160.65
691.3513, 11098.47
691.8334, 11032.59
692.3155, 10975.30
692.7976, 10924.44
693.2797, 10869.02
693.7618, 10797.70
694.2440, 10723.86
694.7261, 10654.24
695.2082, 10590.35
695.6903, 10532.68
696.1724, 10491.81
696.6545, 10448.06
697.1367, 10391.93
697.6188, 10321.89
698.1009, 10252.03
698.5830, 10180.89
699.0651, 10114.23
699.5472, 10059.16
700.0294, 10013.72
700.5115, 9960.009
700.9936, 9895.806
701.4757, 9829.735
701.9578, 9771.354
702.4399, 9716.519
702.9221, 9656.985
703.4042, 9588.093
703.8863, 9521.401
704.3684, 9468.952
704.8505, 9419.875
705.3326, 9361.653
705.8148, 9281.167
706.2969, 9205.882
706.7790, 9140.038
707.2611, 9079.189
707.7432, 9016.832
708.2253, 8952.365
708.7075, 8889.533
709.1896, 8829.585
709.6718, 8771.501
710.1539, 8714.600
710.6360, 8658.822
711.1181, 8602.396
711.6002, 8544.717
712.0823, 8486.131
712.5645, 8425.608
713.0466, 8363.460
713.5287, 8302.167
714.0108, 8241.211
714.4929, 8181.552
714.9750, 8122.605
715.4572, 8064.039
715.9393, 8012.003
716.4214, 7969.630
716.9035, 7925.958
717.3856, 7874.309
717.8677, 7815.267
718.3499, 7764.625
718.8320, 7721.935
719.3141, 7680.679
719.7962, 7635.804
720.2783, 7588.772
720.7604, 7539.867
721.2426, 7489.280
721.7247, 7441.116
722.2068, 7397.423
722.6889, 7357.576
723.1710, 7321.337
723.6531, 7291.513
724.1353, 7258.726
724.6174, 7220.888
725.0995, 7182.242
725.5816, 7145.507
726.0637, 7111.128
726.5458, 7078.643
727.0280, 7047.319
727.5101, 7018.973
727.9922, 6998.525
728.4743, 6982.869
728.9564, 6962.045
729.4385, 6932.397
729.9207, 6901.597
730.4028, 6874.492
730.8849, 6850.458
731.3670, 6829.086
731.8491, 6813.890
732.3312, 6796.920
732.8134, 6775.138
733.2955, 6751.166
733.7776, 6729.163
734.2597, 6708.891
734.7418, 6692.172
735.2239, 6682.130
735.7061, 6673.070
736.1882, 6647.821
736.6703, 6609.077
737.1524, 6577.994
737.6345, 6566.383
738.1166, 6563.018
738.5988, 6557.655
739.0809, 6550.461
739.5630, 6541.893
740.0451, 6536.593
740.5272, 6525.342
741.0093, 6498.413
741.4915, 6459.747
741.9736, 6435.864
742.4557, 6434.503
742.9378, 6432.831
743.4199, 6422.278
743.9020, 6404.431
744.3842, 6388.500
744.8663, 6374.336
745.3484, 6362.233
745.8305, 6353.868
746.3126, 6346.792
746.7947, 6336.694
747.2769, 6323.986
747.7590, 6312.851
748.2411, 6307.938
748.7232, 6303.474
749.2053, 6295.749
749.6874, 6284.084
750.1696, 6272.216
750.6517, 6257.422
751.1338, 6246.271
751.6159, 6244.656
752.0980, 6253.212
752.5801, 6252.295
753.0623, 6240.947
753.5444, 6227.360
754.0265, 6217.279
754.5086, 6209.955
754.9907, 6205.104
755.4728, 6202.785
755.9550, 6198.828
756.4371, 6188.655
756.9192, 6177.000
757.4013, 6167.792
757.8835, 6162.884
758.3656, 6157.163
758.8477, 6149.762
759.3298, 6142.216
759.8120, 6136.291
760.2941, 6132.693
760.7762, 6125.147
761.2583, 6112.509
761.7404, 6099.597
762.2225, 6091.636
762.7047, 6087.517
763.1868, 6085.463
763.6689, 6085.864
764.1510, 6085.248
764.6331, 6080.750
765.1152, 6074.271
765.5974, 6067.665
766.0795, 6057.781
766.5616, 6053.567
767.0437, 6059.272
767.5258, 6067.250
768.0079, 6067.571
768.4901, 6058.751
768.9722, 6053.657
769.4543, 6054.249
769.9364, 6057.693
770.4185, 6062.227
770.9006, 6066.407
771.3828, 6065.900
771.8649, 6056.784
772.3470, 6048.854
772.8291, 6052.166
773.3112, 6059.599
773.7933, 6061.304
774.2755, 6050.795
774.7576, 6040.317
775.2397, 6029.802
775.7218, 6020.917
776.2039, 6016.373
776.6860, 6016.546
777.1682, 6018.756
777.6503, 6023.181
778.1324, 6027.869
778.6145, 6028.676
779.0966, 6027.173
779.5787, 6027.798
780.0609, 6034.146
780.5430, 6039.931
781.0251, 6040.344
781.5072, 6037.751
781.9893, 6036.511
782.4714, 6038.851
782.9536, 6040.713
783.4357, 6040.900
783.9178, 6040.943
784.3999, 6043.714
784.8820, 6049.281
785.3641, 6058.251
785.8463, 6072.390
786.3284, 6087.492
786.8105, 6095.346
787.2926, 6098.408
787.7747, 6102.585
788.2568, 6109.667
788.7390, 6119.055
789.2211, 6130.960
789.7032, 6144.747
790.1853, 6159.450
790.6674, 6176.376
791.1495, 6191.096
791.6317, 6200.479
792.1138, 6208.850
792.5959, 6230.352
793.0780, 6265.102
793.5601, 6289.951
794.0422, 6292.310
794.5244, 6288.116
795.0065, 6301.452
795.4886, 6326.340
795.9707, 6347.962
796.4528, 6358.425
796.9349, 6366.592
797.4171, 6372.759
797.8992, 6379.587
798.3813, 6393.732
798.8634, 6418.238
799.3455, 6443.544
799.8276, 6467.907
800.3098, 6491.190
800.7919, 6513.278
801.2740, 6534.203
801.7561, 6553.073
802.2382, 6569.095
802.7203, 6583.112
803.2025, 6594.755
803.6846, 6605.214
804.1667, 6617.312
804.6488, 6635.416
805.1309, 6651.607
805.6130, 6662.369
806.0952, 6669.774
806.5773, 6678.387
807.0594, 6688.709
807.5416, 6698.622
808.0237, 6707.757
808.5058, 6716.021
808.9879, 6725.284
809.4700, 6734.072
809.9521, 6735.563
810.4343, 6721.560
810.9164, 6706.016
811.3985, 6700.438
811.8806, 6701.109
812.3627, 6700.244
812.8448, 6693.556
813.3270, 6688.017
813.8091, 6685.039
814.2912, 6683.762
814.7733, 6682.444
815.2554, 6681.017
815.7375, 6680.255
816.2197, 6680.755
816.7018, 6681.322
817.1839, 6680.215
817.6660, 6677.650
818.1481, 6674.038
818.6302, 6667.826
819.1124, 6662.855
819.5945, 6661.905
820.0766, 6663.263
820.5587, 6663.834
821.0408, 6665.781
821.5229, 6662.256
822.0051, 6650.304
822.4872, 6634.962
822.9693, 6626.535
823.4514, 6624.029
823.9335, 6616.916
824.4156, 6600.390
824.8978, 6582.510
825.3799, 6572.101
825.8620, 6565.729
826.3441, 6557.946
826.8262, 6545.405
827.3083, 6533.071
827.7905, 6521.991
828.2726, 6511.519
828.7547, 6500.310
829.2368, 6487.725
829.7189, 6478.733
830.2010, 6475.602
830.6832, 6472.351
831.1653, 6457.974
831.6474, 6436.733
832.1295, 6420.327
832.6116, 6413.577
833.0938, 6407.568
833.5759, 6395.023
834.0580, 6380.778
834.5401, 6370.304
835.0222, 6370.411
835.5043, 6365.090
835.9865, 6352.591
836.4686, 6336.992
836.9507, 6321.796
837.4328, 6307.091
837.9149, 6295.309
838.3970, 6286.788
838.8792, 6280.007
839.3613, 6274.767
839.8434, 6269.604
840.3255, 6262.462
840.8076, 6252.562
841.2897, 6242.006
841.7719, 6230.328
842.2540, 6219.054
842.7361, 6209.782
843.2182, 6203.887
843.7003, 6193.292
844.1824, 6176.729
844.6646, 6160.420
845.1467, 6151.592
845.6288, 6147.221
846.1109, 6139.196
846.5930, 6126.825
847.0751, 6113.825
847.5573, 6103.357
848.0394, 6092.751
848.5215, 6078.661
849.0036, 6059.384
849.4857, 6046.720
849.9678, 6043.994
850.4500, 6042.878
850.9321, 6038.716
851.4142, 6031.871
851.8963, 6027.003
852.3784, 6024.055
852.8605, 6020.033
853.3427, 6011.732
853.8248, 6002.139
854.3069, 5993.381
854.7890, 5985.862
855.2711, 5981.568
855.7532, 5982.291
856.2354, 5985.421
856.7175, 5990.676
857.1996, 5997.539
857.6818, 6002.865
858.1639, 6006.458
858.6460, 6009.287
859.1281, 6009.982
859.6102, 6011.492
860.0923, 6021.360
860.5745, 6037.264
861.0566, 6050.995
861.5387, 6056.222
862.0208, 6061.181
862.5029, 6069.817
862.9850, 6081.332
863.4672, 6092.505
863.9493, 6103.548
864.4314, 6114.181
864.9135, 6124.090
865.3956, 6134.244
865.8777, 6147.556
866.3599, 6163.265
866.8420, 6176.836
867.3241, 6184.707
867.8062, 6193.989
868.2883, 6210.500
868.7704, 6231.633
869.2526, 6253.314
869.7347, 6275.430
870.2168, 6297.226
870.6989, 6320.328
871.1810, 6340.335
871.6631, 6347.741
872.1453, 6343.686
872.6274, 6351.762
873.1095, 6377.115
873.5916, 6405.425
874.0737, 6420.998
874.5558, 6431.090
875.0380, 6445.375
875.5201, 6467.442
876.0022, 6488.114
876.4843, 6504.037
876.9664, 6518.913
877.4485, 6535.665
877.9307, 6555.257
878.4128, 6569.819
878.8949, 6578.903
879.3770, 6587.415
879.8591, 6597.068
880.3412, 6609.851
880.8234, 6632.144
881.3055, 6663.758
881.7876, 6689.576
882.2697, 6695.199
882.7518, 6700.417
883.2339, 6717.777
883.7161, 6746.276
884.1982, 6765.628
884.6803, 6773.763
885.1624, 6780.947
885.6445, 6792.287
886.1266, 6806.094
886.6088, 6818.356
887.0909, 6829.695
887.5730, 6842.296
888.0551, 6857.998
888.5372, 6874.763
889.0193, 6895.048
889.5015, 6915.595
889.9836, 6925.871
890.4657, 6918.893
890.9478, 6919.633
891.4299, 6936.518
891.9120, 6958.808
892.3942, 6964.930
892.8763, 6958.276
893.3584, 6952.365
893.8405, 6949.714
894.3226, 6951.923
894.8047, 6965.396
895.2869, 6982.079
895.7690, 6991.915
896.2511, 6987.172
896.7332, 6984.824
897.2153, 6985.299
897.6974, 6987.611
898.1796, 6991.181
898.6617, 6995.875
899.1438, 7000.958
899.6259, 7006.583
900.1080, 7010.417
900.5901, 7012.056
901.0723, 7010.122
901.5544, 7001.402
902.0365, 6984.095
902.5186, 6972.907
903.0007, 6973.607
903.4828, 6974.388
903.9650, 6968.693
904.4471, 6957.584
904.9292, 6951.390
905.4113, 6949.845
905.8935, 6948.924
906.3756, 6946.760
906.8577, 6943.470
907.3398, 6938.253
907.8220, 6931.771
908.3041, 6926.770
908.7862, 6925.384
909.2683, 6923.583
909.7504, 6920.614
910.2325, 6916.558
910.7147, 6911.537
911.1968, 6905.485
911.6789, 6899.021
912.1610, 6892.296
912.6431, 6885.329
913.1252, 6877.522
913.6074, 6869.692
914.0895, 6863.340
914.5716, 6862.338
915.0537, 6856.845
915.5358, 6843.509
916.0179, 6827.052
916.5001, 6811.725
916.9822, 6797.721
917.4643, 6780.707
917.9464, 6760.022
918.4285, 6740.343
918.9106, 6729.511
919.3928, 6720.591
919.8749, 6703.626
920.3570, 6677.404
920.8391, 6653.853
921.3212, 6640.908
921.8033, 6626.850
922.2855, 6605.514
922.7676, 6578.058
923.2497, 6557.516
923.7318, 6544.076
924.2139, 6533.276
924.6960, 6525.803
925.1782, 6517.183
925.6603, 6499.795
926.1424, 6476.489
926.6245, 6455.006
927.1066, 6438.805
927.5887, 6424.088
928.0709, 6410.673
928.5530, 6397.347
929.0351, 6382.164
929.5172, 6364.978
929.9993, 6346.896
930.4814, 6328.225
930.9636, 6308.740
931.4457, 6288.267
931.9278, 6266.864
932.4099, 6244.077
932.8920, 6218.681
933.3741, 6196.469
933.8563, 6182.956
934.3384, 6169.277
934.8205, 6149.753
935.3026, 6123.839
935.7847, 6100.350
936.2668, 6079.234
936.7490, 6057.198
937.2311, 6030.005
937.7132, 6001.461
938.1953, 5977.344
938.6774, 5956.738
939.1595, 5935.156
939.6417, 5912.155
940.1238, 5886.539
940.6059, 5856.791
941.0880, 5825.120
941.5701, 5798.154
942.0522, 5775.795
942.5344, 5752.834
943.0165, 5726.924
943.4986, 5700.405
943.9807, 5674.522
944.4628, 5650.100
944.9449, 5628.481
945.4271, 5611.333
945.9092, 5594.736
946.3913, 5579.442
946.8734, 5563.154
947.3555, 5543.416
947.8376, 5520.501
948.3198, 5496.370
948.8019, 5471.146
949.2840, 5447.579
949.7661, 5430.672
950.2482, 5414.799
950.7303, 5393.311
951.2125, 5365.951
951.6946, 5344.265
952.1767, 5331.401
952.6588, 5320.955
953.1409, 5311.699
953.6230, 5302.774
954.1052, 5290.585
954.5873, 5275.570
955.0695, 5260.599
955.5516, 5247.151
956.0337, 5233.667
956.5158, 5219.328
956.9979, 5204.190
957.4800, 5188.043
957.9622, 5168.853
958.4443, 5152.558
958.9264, 5139.936
959.4085, 5129.148
959.8906, 5118.228
960.3727, 5107.226
960.8549, 5096.841
961.3370, 5087.071
961.8191, 5076.708
962.3012, 5066.625
962.7833, 5054.141
963.2654, 5034.509
963.7476, 5007.595
964.2297, 4993.091
964.7118, 4995.377
965.1939, 4996.336
965.6760, 4988.642
966.1581, 4974.304
966.6403, 4953.509
967.1224, 4929.454
967.6045, 4910.891
968.0866, 4905.870
968.5687, 4902.563
969.0508, 4897.791
969.5330, 4891.726
970.0151, 4884.115
970.4972, 4874.292
970.9793, 4866.897
971.4614, 4862.898
971.9435, 4858.682
972.4257, 4849.215
972.9078, 4837.482
973.3899, 4828.034
973.8720, 4821.494
974.3541, 4814.863
974.8362, 4805.994
975.3184, 4797.747
975.8005, 4791.626
976.2826, 4787.198
976.7647, 4782.279
977.2468, 4776.891
977.7289, 4770.856
978.2111, 4763.182
978.6932, 4756.150
979.1753, 4754.990
979.6574, 4755.845
980.1395, 4751.353
980.6216, 4732.615
981.1038, 4718.558
981.5859, 4710.997
982.0680, 4707.775
982.5501, 4709.162
983.0322, 4713.712
983.5143, 4708.845
983.9965, 4693.075
984.4786, 4680.329
984.9607, 4684.598
985.4428, 4693.208
985.9249, 4696.733
986.4070, 4694.166
986.8892, 4690.925
987.3713, 4685.609
987.8534, 4683.780
988.3355, 4689.734
988.8176, 4698.146
989.2997, 4694.088
989.7819, 4682.151
990.2640, 4676.288
990.7461, 4688.753
991.2282, 4698.153
991.7103, 4691.649
992.1924, 4679.830
992.6746, 4675.522
993.1567, 4680.756
993.6388, 4682.600
994.1209, 4680.094
994.6030, 4677.265
995.0851, 4677.230
995.5673, 4679.460
996.0494, 4685.531
996.5315, 4694.773
997.0136, 4698.159
997.4957, 4686.115
997.9778, 4675.769
998.4600, 4672.690
998.9421, 4674.586
999.4242, 4673.785
999.9063, 4670.898
1000.388, 4672.948
1000.871, 4684.189
1001.353, 4696.110
1001.835, 4701.904
1002.317, 4703.679
1002.799, 4703.635
1003.281, 4699.940
1003.763, 4700.360
1004.245, 4707.101
1004.728, 4712.830
1005.210, 4709.913
1005.692, 4701.830
1006.174, 4699.917
1006.656, 4703.575
1007.138, 4706.730
1007.620, 4704.505
1008.102, 4702.927
1008.584, 4704.588
1009.067, 4709.078
1009.549, 4716.015
1010.031, 4725.889
1010.513, 4735.040
1010.995, 4743.070
1011.477, 4748.636
1011.959, 4747.313
1012.441, 4743.563
1012.924, 4743.822
1013.406, 4750.025
1013.888, 4756.493
1014.370, 4763.240
1014.852, 4768.606
1015.334, 4771.610
1015.816, 4772.501
1016.298, 4773.224
1016.780, 4773.573
1017.263, 4771.915
1017.745, 4764.977
1018.227, 4758.235
1018.709, 4756.144
1019.191, 4751.693
1019.673, 4748.699
1020.155, 4748.738
1020.637, 4748.561
1021.120, 4748.742
1021.602, 4753.417
1022.084, 4758.828
1022.566, 4764.291
1023.048, 4769.532
1023.530, 4774.467
1024.012, 4775.011
1024.494, 4763.239
1024.976, 4753.719
1025.458, 4753.046
1025.941, 4758.966
1026.423, 4761.399
1026.905, 4760.678
1027.387, 4763.587
1027.869, 4774.511
1028.351, 4785.375
1028.833, 4788.854
1029.316, 4787.565
1029.798, 4784.454
1030.280, 4777.078
1030.762, 4775.144
1031.244, 4780.267
1031.726, 4786.670
1032.208, 4790.103
1032.690, 4791.487
1033.172, 4792.563
1033.655, 4793.696
1034.137, 4796.489
1034.619, 4804.863
1035.101, 4811.520
1035.583, 4812.613
1036.065, 4810.765
1036.547, 4810.493
1037.029, 4811.888
1037.511, 4813.148
1037.994, 4814.165
1038.476, 4813.938
1038.958, 4810.795
1039.440, 4806.343
1039.922, 4801.722
1040.404, 4796.843
1040.886, 4795.212
1041.368, 4799.590
1041.851, 4801.217
1042.333, 4795.250
1042.815, 4784.938
1043.297, 4778.514
1043.779, 4775.004
1044.261, 4771.891
1044.743, 4769.422
1045.225, 4765.208
1045.708, 4754.968
1046.190, 4744.898
1046.672, 4742.149
1047.154, 4747.943
1047.636, 4746.271
1048.118, 4736.396
1048.600, 4726.189
1049.082, 4721.857
1049.564, 4719.912
1050.047, 4717.016
1050.529, 4713.423
1051.011, 4711.376
1051.493, 4712.063
1051.975, 4712.276
1052.457, 4711.936
1052.939, 4709.947
1053.421, 4703.718
1053.903, 4694.759
1054.386, 4685.774
1054.868, 4677.058
1055.350, 4670.712
1055.832, 4669.344
1056.314, 4669.215
1056.796, 4668.408
1057.278, 4667.050
1057.760, 4667.319
1058.243, 4669.002
1058.725, 4665.337
1059.207, 4649.350
1059.689, 4633.257
1060.171, 4630.179
1060.653, 4632.922
1061.135, 4630.618
1061.617, 4616.503
1062.099, 4610.921
1062.582, 4616.153
1063.064, 4622.578
1063.546, 4622.048
1064.028, 4617.307
1064.510, 4614.263
1064.992, 4612.387
1065.474, 4608.028
1065.956, 4596.956
1066.438, 4586.650
1066.921, 4578.698
1067.403, 4572.747
1067.885, 4568.139
1068.367, 4564.862
1068.849, 4563.484
1069.331, 4564.302
1069.813, 4564.323
1070.295, 4560.679
1070.778, 4555.881
1071.260, 4552.854
1071.742, 4551.246
1072.224, 4543.536
1072.706, 4528.180
1073.188, 4515.967
1073.670, 4510.809
1074.152, 4510.330
1074.635, 4514.875
1075.117, 4520.479
1075.599, 4520.431
1076.081, 4509.610
1076.563, 4501.001
1077.045, 4495.577
1077.527, 4492.458
1078.009, 4492.461
1078.491, 4494.224
1078.974, 4492.205
1079.456, 4486.831
1079.938, 4480.452
1080.420, 4473.595
1080.902, 4466.556
1081.384, 4458.127
1081.866, 4450.397
1082.348, 4446.515
1082.831, 4446.700
1083.313, 4446.495
1083.795, 4445.629
1084.277, 4443.083
1084.759, 4437.282
1085.241, 4430.054
1085.723, 4422.703
1086.205, 4415.333
1086.688, 4407.810
1087.170, 4399.990
1087.652, 4392.572
1088.134, 4385.706
1088.616, 4379.390
1089.098, 4374.268
1089.580, 4369.447
1090.062, 4362.812
1090.544, 4353.103
1091.026, 4346.624
1091.509, 4346.249
1091.991, 4346.767
1092.473, 4346.810
1092.955, 4345.573
1093.437, 4339.225
1093.919, 4328.729
1094.401, 4318.026
1094.883, 4305.954
1095.366, 4298.430
1095.848, 4302.635
1096.330, 4309.357
1096.812, 4309.825
1097.294, 4303.315
1097.776, 4297.799
1098.258, 4293.299
1098.740, 4288.323
1099.223, 4279.246
1099.705, 4271.511
1100.187, 4271.506
1100.669, 4276.217
1101.151, 4277.667
1101.633, 4274.887
1102.115, 4270.137
1102.597, 4263.096
1103.079, 4256.136
1103.562, 4251.314
1104.044, 4248.551
1104.526, 4248.140
1105.008, 4250.012
1105.490, 4252.923
1105.972, 4257.624
1106.454, 4261.812
1106.936, 4265.124
1107.418, 4267.484
1107.901, 4266.705
1108.383, 4264.932
1108.865, 4268.905
1109.347, 4280.877
1109.829, 4293.010
1110.311, 4303.139
1110.793, 4311.101
1111.275, 4317.295
1111.758, 4321.356
1112.240, 4319.470
1112.722, 4312.545
1113.204, 4310.511
1113.686, 4321.718
1114.168, 4329.618
1114.650, 4320.046
1115.132, 4302.589
1115.615, 4287.664
1116.097, 4276.462
1116.579, 4262.219
1117.061, 4244.910
1117.543, 4227.446
1118.025, 4210.126
1118.507, 4195.237
1118.989, 4187.067
1119.471, 4182.837
1119.953, 4176.470
1120.436, 4165.866
1120.918, 4155.964
1121.400, 4146.829
1121.882, 4138.982
1122.364, 4134.607
1122.846, 4131.030
1123.328, 4123.269
1123.810, 4111.685
1124.293, 4100.163
1124.775, 4088.328
1125.257, 4078.488
1125.739, 4070.628
1126.221, 4065.735
1126.703, 4068.224
1127.185, 4074.758
1127.667, 4074.209
1128.150, 4065.006
1128.632, 4056.578
1129.114, 4054.395
1129.596, 4052.891
1130.078, 4049.367
1130.560, 4044.936
1131.042, 4043.833
1131.524, 4045.375
1132.006, 4044.847
1132.489, 4040.614
1132.971, 4035.962
1133.453, 4031.233
1133.935, 4028.672
1134.417, 4031.214
1134.899, 4038.362
1135.381, 4039.226
1135.863, 4033.805
1136.346, 4031.172
1136.828, 4037.235
1137.310, 4043.773
1137.792, 4042.871
1138.274, 4038.143
1138.756, 4034.677
1139.238, 4034.059
1139.720, 4027.647
1140.203, 4014.005
1140.685, 4003.726
1141.167, 4005.569
1141.649, 4012.801
1142.131, 4019.474
1142.613, 4024.562
1143.095, 4025.869
1143.577, 4020.100
1144.059, 4016.328
1144.542, 4015.155
1145.024, 4015.080
1145.506, 4015.133
1145.988, 4015.135
1146.470, 4015.449
1146.952, 4015.543
1147.434, 4013.347
1147.916, 4003.290
1148.398, 3998.210
1148.881, 4001.047
1149.363, 4006.874
1149.845, 4009.819
1150.327, 4010.622
1150.809, 4011.185
1151.291, 4011.647
1151.773, 4010.987
1152.255, 4007.435
1152.738, 4004.610
1153.220, 4004.346
1153.702, 4004.632
1154.184, 3999.991
1154.666, 3992.239
1155.148, 3989.448
1155.630, 3993.337
1156.112, 3996.616
1156.594, 3994.634
1157.077, 3991.433
1157.559, 3987.489
1158.041, 3984.445
1158.523, 3990.531
1159.005, 4004.226
1159.487, 4014.135
1159.969, 4017.175
1160.451, 4015.931
1160.933, 4007.834
1161.416, 3999.964
1161.898, 3997.920
1162.380, 4001.221
1162.862, 4004.347
1163.344, 4007.321
1163.826, 4009.233
1164.308, 4009.172
1164.790, 4009.159
1165.273, 4011.927
1165.755, 4014.799
1166.237, 4014.655
1166.719, 4011.085
1167.201, 4007.793
1167.683, 4004.649
1168.165, 4002.752
1168.647, 4002.336
1169.130, 4003.643
1169.612, 4007.700
1170.094, 4013.249
1170.576, 4018.788
1171.058, 4025.477
1171.540, 4026.718
1172.022, 4021.753
1172.504, 4017.202
1172.986, 4018.650
1173.469, 4022.206
1173.951, 4023.182
1174.433, 4023.015
1174.915, 4025.507
1175.397, 4032.883
1175.879, 4036.990
1176.361, 4036.750
1176.843, 4036.685
1177.326, 4040.476
1177.808, 4046.914
1178.290, 4056.160
1178.772, 4066.932
1179.254, 4074.102
1179.736, 4073.995
1180.218, 4078.524
1180.700, 4090.074
1181.182, 4102.669
1181.665, 4110.696
1182.147, 4115.278
1182.629, 4115.680
1183.111, 4113.170
1183.593, 4116.069
1184.075, 4128.813
1184.557, 4140.999
1185.039, 4151.856
1185.521, 4159.118
1186.004, 4155.745
1186.486, 4148.343
1186.968, 4149.229
1187.450, 4159.117
1187.932, 4164.300
1188.414, 4160.290
1188.896, 4154.557
1189.378, 4148.212
1189.861, 4142.061
1190.343, 4137.854
1190.825, 4134.690
1191.307, 4130.647
1191.789, 4125.288
1192.271, 4121.850
1192.753, 4123.678
1193.235, 4122.322
1193.718, 4113.987
1194.200, 4103.006
1194.682, 4096.647
1195.164, 4094.105
1195.646, 4094.505
1196.128, 4098.474
1196.610, 4100.262
1197.092, 4096.899
1197.574, 4094.190
1198.057, 4094.383
1198.539, 4096.587
1199.021, 4099.160
1199.503, 4102.086
1199.985, 4105.485
1200.467, 4109.678
1200.949, 4113.274
1201.431, 4116.416
1201.913, 4118.241
1202.396, 4117.365
1202.878, 4115.715
1203.360, 4118.887
1203.842, 4125.347
1204.324, 4130.797
1204.806, 4132.737
1205.288, 4137.498
1205.770, 4148.849
1206.253, 4158.275
1206.735, 4159.868
1207.217, 4156.545
1207.699, 4155.869
1208.181, 4157.417
1208.663, 4160.012
1209.145, 4162.971
1209.627, 4167.926
1210.109, 4177.423
1210.592, 4184.526
1211.074, 4181.462
1211.556, 4173.540
1212.038, 4178.056
1212.520, 4191.693
1213.002, 4205.018
1213.484, 4216.666
1213.966, 4224.113
1214.448, 4225.554
1214.931, 4226.262
1215.413, 4231.264
1215.895, 4232.542
1216.377, 4240.589
1216.859, 4239.547
1217.341, 4240.641
1217.823, 4247.461
1218.305, 4254.248
1218.788, 4260.229
1219.270, 4266.212
1219.752, 4274.084
1220.234, 4282.147
1220.716, 4284.967
1221.198, 4283.909
1221.680, 4283.914
1222.162, 4288.296
1222.645, 4291.146
1223.127, 4290.663
1223.609, 4291.412
1224.091, 4299.894
1224.573, 4311.908
1225.055, 4318.897
1225.537, 4321.196
1226.019, 4321.178
1226.501, 4316.621
1226.984, 4314.474
1227.466, 4315.784
1227.948, 4318.301
1228.430, 4319.522
1228.912, 4320.461
1229.394, 4323.701
1229.876, 4325.092
1230.358, 4326.776
1230.841, 4330.056
1231.323, 4330.430
1231.805, 4333.930
1232.287, 4337.017
1232.769, 4335.320
1233.251, 4331.231
1233.733, 4329.050
1234.215, 4328.199
1234.698, 4324.749
1235.180, 4315.885
1235.662, 4310.121
1236.144, 4308.763
1236.626, 4309.229
1237.108, 4309.859
1237.590, 4310.020
1238.072, 4308.814
1238.554, 4306.331
1239.036, 4302.955
1239.519, 4297.209
1240.001, 4295.938
1240.483, 4300.762
1240.965, 4305.964
1241.447, 4305.448
1241.929, 4302.446
1242.411, 4297.986
1242.893, 4293.926
1243.376, 4298.701
1243.858, 4316.046
1244.340, 4324.846
1244.822, 4321.378
1245.304, 4315.587
1245.786, 4316.189
1246.268, 4319.274
1246.750, 4322.204
1247.233, 4324.487
1247.715, 4325.093
1248.197, 4323.929
1248.679, 4321.729
1249.161, 4318.471
1249.643, 4315.795
1250.125, 4313.306
1250.607, 4313.640
1251.089, 4321.648
1251.572, 4333.608
1252.054, 4339.058
1252.536, 4338.000
1253.018, 4335.869
1253.500, 4333.348
1253.982, 4330.259
1254.464, 4324.869
1254.946, 4320.481
1255.428, 4319.646
1255.911, 4320.926
1256.393, 4322.115
1256.875, 4323.052
1257.357, 4321.718
1257.839, 4317.833
1258.321, 4314.616
1258.803, 4315.395
1259.285, 4315.921
1259.768, 4315.004
1260.250, 4312.458
1260.732, 4305.671
1261.214, 4296.771
1261.696, 4296.097
1262.178, 4304.823
1262.660, 4310.938
1263.142, 4305.909
1263.625, 4301.046
1264.107, 4299.008
1264.589, 4299.542
1265.071, 4303.272
1265.553, 4308.921
1266.035, 4314.408
1266.517, 4319.238
1266.999, 4319.400
1267.481, 4308.921
1267.964, 4301.521
1268.446, 4300.669
1268.928, 4302.238
1269.410, 4301.062
1269.892, 4298.076
1270.374, 4293.797
1270.856, 4288.656
1271.338, 4286.639
1271.820, 4288.882
1272.303, 4292.693
1272.785, 4298.677
1273.267, 4302.101
1273.749, 4292.513
1274.231, 4280.673
1274.713, 4281.297
1275.195, 4292.787
1275.677, 4296.035
1276.160, 4288.267
1276.642, 4285.564
1277.124, 4291.200
1277.606, 4297.456
1278.088, 4297.146
1278.570, 4294.301
1279.052, 4290.684
1279.534, 4287.581
1280.016, 4289.179
1280.499, 4295.700
1280.981, 4298.095
1281.463, 4295.030
1281.945, 4292.252
1282.427, 4294.648
1282.909, 4297.789
1283.391, 4299.196
1283.873, 4299.577
1284.356, 4300.635
1284.838, 4301.966
1285.320, 4300.071
1285.802, 4294.810
1286.284, 4292.127
1286.766, 4296.394
1287.248, 4302.873
1287.730, 4312.145
1288.213, 4319.611
1288.695, 4316.432
1289.177, 4306.792
1289.659, 4300.855
1290.141, 4299.543
1290.623, 4302.445
1291.105, 4316.204
1291.587, 4322.365
1292.069, 4315.930
1292.552, 4308.120
1293.034, 4314.063
1293.516, 4325.653
1293.998, 4331.349
1294.480, 4331.351
1294.962, 4330.550
1295.444, 4330.055
1295.926, 4326.607
1296.408, 4319.206
1296.891, 4313.297
1297.373, 4315.779
1297.855, 4320.189
1298.337, 4320.956
1298.819, 4319.060
1299.301, 4316.955
1299.783, 4314.525
1300.265, 4313.825
1300.748, 4315.067
1301.230, 4314.602
1301.712, 4306.713
1302.194, 4300.304
1302.676, 4300.473
##END=



