##NAMES=Fluoro-richterite
##RRUFFID=R040019
##IDEAL CHEMISTRY=Na(NaCa)Mg_5_Si_8_O_22_F_2_
##LOCALITY=Wilberforce, Ontario, Canada
##OWNER=RRUFF
##SOURCE=University of Arizona Mineral Museum
##DESCRIPTION=Brown prismatic crystals
##STATUS=The identification of this mineral has been confirmed by X-ray diffraction and chemical analysis
##URL=rruff.info/R040019
##MEASURED CHEMISTRY=(Na_0.59_K_0.27_[box]_0.14_)_Σ=1_(Ca_1.30_Na_0.70_)_Σ=2_(Mg_4.67_Fe_0.17_Fe^3+^_0.10_Ti_0.03_Mn_0.02_Al_0.01_)_Σ=5_(Si_7.67_Al_0.33_)_Σ=8_(F_1.12_(OH)_0.88_)_Σ=2_; OH estimated by charge balance
190.7938, 417.6345
191.2759, 414.8340
191.7580, 413.8340
192.2401, 415.8201
192.7223, 419.6903
193.2044, 422.0837
193.6865, 422.8582
194.1686, 423.4368
194.6507, 425.0643
195.1328, 427.6974
195.6150, 430.7082
196.0971, 434.0665
196.5792, 437.6412
197.0613, 440.7637
197.5434, 443.2748
198.0255, 446.0250
198.5077, 449.7899
198.9898, 454.6026
199.4719, 459.8758
199.9540, 465.7055
200.4361, 471.8759
200.9182, 477.1790
201.4004, 481.3129
201.8825, 485.4182
202.3646, 490.7767
202.8467, 497.4834
203.3288, 504.2721
203.8109, 510.8809
204.2931, 517.3207
204.7752, 523.5709
205.2573, 529.4962
205.7394, 535.5601
206.2215, 542.4833
206.7036, 550.4605
207.1858, 557.9159
207.6679, 564.3295
208.1500, 569.7780
208.6321, 575.3743
209.1142, 581.0358
209.5963, 586.9968
210.0785, 593.5824
210.5606, 600.8646
211.0427, 608.3623
211.5248, 616.1003
212.0069, 624.0698
212.4890, 631.6941
212.9712, 638.7559
213.4533, 645.8499
213.9354, 653.3290
214.4175, 660.9311
214.8996, 669.9650
215.3817, 681.2137
215.8639, 694.5851
216.3460, 707.3359
216.8281, 719.1336
217.3102, 730.7980
217.7923, 743.0206
218.2744, 755.8378
218.7565, 769.3892
219.2387, 783.3904
219.7208, 797.9429
220.2029, 813.4966
220.6850, 830.0814
221.1671, 847.4694
221.6492, 865.1676
222.1314, 883.3738
222.6135, 901.7840
223.0956, 919.6152
223.5777, 936.9975
224.0598, 956.5173
224.5419, 979.2365
225.0241, 1003.101
225.5062, 1026.411
225.9883, 1048.887
226.4704, 1071.109
226.9525, 1093.121
227.4346, 1115.298
227.9168, 1135.196
228.3989, 1152.920
228.8810, 1168.264
229.3631, 1180.833
229.8452, 1191.021
230.3273, 1198.002
230.8095, 1202.312
231.2916, 1204.105
231.7737, 1198.955
232.2558, 1185.551
232.7379, 1166.606
233.2200, 1144.769
233.7022, 1119.657
234.1843, 1092.482
234.6664, 1063.118
235.1485, 1031.791
235.6306, 1000.460
236.1127, 968.8353
236.5949, 937.0873
237.0770, 904.9479
237.5591, 871.0996
238.0412, 839.5292
238.5233, 811.3262
239.0054, 786.3863
239.4876, 762.9542
239.9697, 740.7048
240.4518, 720.0928
240.9339, 701.5677
241.4160, 685.5385
241.8981, 670.8810
242.3803, 657.7521
242.8624, 646.0674
243.3445, 634.7014
243.8266, 623.2930
244.3087, 612.4946
244.7908, 603.0285
245.2730, 595.9227
245.7551, 588.0531
246.2372, 578.7684
246.7193, 568.1769
247.2014, 557.8576
247.6835, 548.3726
248.1657, 538.5739
248.6478, 527.4951
249.1299, 513.8134
249.6120, 501.5745
250.0941, 491.3634
250.5762, 483.0558
251.0584, 475.7573
251.5405, 470.0961
252.0226, 464.6982
252.5047, 458.6465
252.9868, 451.4952
253.4689, 444.6507
253.9511, 438.1497
254.4332, 432.0323
254.9153, 426.6481
255.3974, 421.9814
255.8795, 418.0888
256.3616, 415.3806
256.8438, 414.8954
257.3259, 412.6965
257.8080, 407.5612
258.2901, 400.5703
258.7722, 395.9883
259.2543, 394.9959
259.7365, 394.3984
260.2186, 392.4044
260.7007, 388.6973
261.1828, 384.5212
261.6649, 379.6650
262.1470, 374.4699
262.6292, 369.8747
263.1113, 366.1735
263.5934, 362.5196
264.0755, 358.3454
264.5576, 353.2088
265.0397, 349.1094
265.5219, 346.4918
266.0040, 344.6558
266.4861, 341.7386
266.9682, 337.2289
267.4503, 332.9781
267.9324, 330.0361
268.4146, 328.6938
268.8967, 327.0703
269.3788, 324.9606
269.8609, 322.7823
270.3430, 321.4817
270.8251, 321.3410
271.3073, 321.1431
271.7894, 320.2925
272.2715, 318.6882
272.7536, 317.5381
273.2357, 316.9597
273.7178, 316.6716
274.2000, 316.2325
274.6821, 315.5925
275.1642, 315.0130
275.6463, 314.5737
276.1284, 314.2727
276.6105, 314.0349
277.0927, 313.7880
277.5748, 313.7587
278.0569, 314.3872
278.5390, 315.7753
279.0211, 316.9786
279.5032, 317.6940
279.9854, 317.9562
280.4675, 318.0570
280.9496, 317.9586
281.4317, 317.8366
281.9138, 317.6904
282.3959, 317.4945
282.8781, 318.0529
283.3602, 319.8285
283.8423, 322.4925
284.3244, 324.5468
284.8065, 325.9334
285.2886, 327.1465
285.7708, 328.6535
286.2529, 330.4323
286.7350, 332.0510
287.2171, 333.2551
287.6992, 334.3568
288.1813, 336.2870
288.6635, 339.0820
289.1456, 342.0973
289.6277, 344.9284
290.1098, 347.5822
290.5919, 349.9545
291.0740, 351.9024
291.5562, 353.7886
292.0383, 356.4151
292.5204, 359.7679
293.0025, 363.0797
293.4846, 365.7662
293.9667, 368.0160
294.4489, 370.4346
294.9310, 373.0144
295.4131, 375.9333
295.8952, 379.8599
296.3773, 384.5771
296.8594, 388.7632
297.3416, 391.3521
297.8237, 392.9499
298.3058, 394.7896
298.7879, 396.9358
299.2700, 399.5229
299.7521, 402.9156
300.2343, 406.9172
300.7164, 410.7323
301.1985, 413.8038
301.6806, 416.5551
302.1627, 419.5198
302.6448, 422.7289
303.1270, 426.2677
303.6091, 430.5481
304.0912, 435.2072
304.5733, 439.6978
305.0554, 443.7098
305.5375, 447.4398
306.0197, 450.9953
306.5018, 454.3668
306.9839, 457.6856
307.4660, 460.9539
307.9481, 464.2170
308.4302, 467.5473
308.9124, 471.2891
309.3945, 474.8358
309.8766, 477.9000
310.3587, 480.4499
310.8408, 482.1507
311.3229, 482.3457
311.8051, 481.8071
312.2872, 481.3402
312.7693, 481.3483
313.2514, 481.1100
313.7335, 480.2485
314.2156, 478.8079
314.6978, 476.9166
315.1799, 474.8880
315.6620, 472.2570
316.1441, 468.4570
316.6262, 462.6943
317.1083, 457.6111
317.5905, 455.2105
318.0726, 454.1574
318.5547, 452.0862
319.0368, 446.7980
319.5189, 441.3845
320.0010, 437.5870
320.4832, 435.8880
320.9653, 433.9684
321.4474, 430.8414
321.9295, 427.2633
322.4116, 424.1197
322.8937, 421.9223
323.3759, 419.8867
323.8580, 417.7176
324.3401, 415.4059
324.8222, 413.4344
325.3043, 411.8372
325.7864, 410.6303
326.2686, 409.8256
326.7507, 409.7462
327.2328, 409.7111
327.7149, 409.6446
328.1970, 409.5473
328.6791, 409.4471
329.1613, 409.0526
329.6434, 408.8767
330.1255, 409.1949
330.6076, 410.5784
331.0897, 411.6087
331.5718, 411.8971
332.0540, 411.8256
332.5361, 412.5448
333.0182, 414.7342
333.5003, 416.8344
333.9824, 418.1798
334.4645, 418.5190
334.9467, 418.8590
335.4288, 418.9831
335.9109, 419.2644
336.3930, 420.3418
336.8751, 422.4406
337.3572, 424.8439
337.8394, 427.4475
338.3215, 430.2450
338.8036, 432.9002
339.2857, 435.4630
339.7678, 437.8036
340.2499, 439.6598
340.7320, 440.8383
341.2141, 442.5206
341.6963, 445.0932
342.1784, 448.3472
342.6605, 451.3977
343.1426, 454.2781
343.6247, 456.6643
344.1068, 457.9547
344.5890, 458.1967
345.0711, 458.9605
345.5532, 460.5421
346.0353, 462.6504
346.5174, 464.8582
346.9995, 467.1750
347.4817, 469.0705
347.9638, 470.0496
348.4459, 470.3222
348.9280, 470.5854
349.4101, 470.8550
349.8922, 471.2679
350.3744, 471.9760
350.8565, 472.9652
351.3386, 474.2042
351.8207, 475.9032
352.3028, 477.7586
352.7849, 479.1343
353.2671, 480.0271
353.7492, 481.1452
354.2313, 483.2052
354.7134, 485.8950
355.1955, 488.6874
355.6776, 491.1619
356.1598, 493.8782
356.6419, 497.6839
357.1240, 502.3760
357.6061, 506.8525
358.0882, 509.8099
358.5703, 512.5326
359.0525, 516.2667
359.5346, 521.4833
360.0167, 527.3682
360.4988, 533.8216
360.9809, 540.5659
361.4630, 546.9337
361.9452, 552.6176
362.4273, 557.8557
362.9094, 562.8157
363.3915, 567.5655
363.8736, 571.7782
364.3557, 575.3735
364.8379, 578.3221
365.3200, 580.5682
365.8021, 581.7337
366.2842, 582.5573
366.7663, 583.0599
367.2484, 583.2521
367.7306, 583.7579
368.2127, 585.4376
368.6948, 586.9801
369.1769, 587.5317
369.6590, 586.1273
370.1411, 584.8922
370.6233, 583.6642
371.1054, 582.6334
371.5875, 582.6141
372.0696, 584.7278
372.5517, 586.4861
373.0338, 586.7101
373.5160, 584.5852
373.9981, 583.2499
374.4802, 582.8672
374.9623, 583.1251
375.4444, 583.6017
375.9265, 584.4216
376.4087, 585.1219
376.8908, 585.5754
377.3729, 585.7863
377.8550, 585.7225
378.3371, 585.2392
378.8192, 584.8677
379.3014, 585.0970
379.7835, 585.9363
380.2656, 587.3573
380.7477, 589.6998
381.2298, 592.2949
381.7119, 593.4140
382.1941, 593.0275
382.6762, 592.0115
383.1583, 590.5933
383.6404, 588.9509
384.1225, 587.9261
384.6046, 587.6971
385.0868, 587.7297
385.5689, 587.5923
386.0510, 587.2042
386.5331, 586.2738
387.0152, 584.1346
387.4973, 581.5890
387.9795, 579.7630
388.4616, 578.6775
388.9437, 577.9863
389.4258, 577.9177
389.9079, 577.9576
390.3900, 577.3380
390.8722, 575.4701
391.3543, 573.3057
391.8364, 571.2382
392.3185, 569.3903
392.8006, 568.1378
393.2827, 568.6245
393.7649, 569.1486
394.2470, 568.4387
394.7291, 565.9475
395.2112, 563.1523
395.6933, 560.3730
396.1754, 557.6400
396.6576, 555.0035
397.1397, 552.5103
397.6218, 550.0709
398.1039, 547.8512
398.5860, 545.9281
399.0681, 543.2873
399.5503, 539.6638
400.0324, 535.3700
400.5145, 530.6618
400.9966, 524.8044
401.4787, 519.5750
401.9608, 515.6818
402.4430, 512.5706
402.9251, 507.9448
403.4072, 500.7933
403.8893, 493.6452
404.3714, 487.8238
404.8535, 483.7626
405.3357, 478.8947
405.8178, 472.7145
406.2999, 466.4642
406.7820, 462.3955
407.2641, 461.0343
407.7462, 458.7520
408.2284, 454.0677
408.7105, 447.6182
409.1926, 442.2461
409.6747, 438.0604
410.1568, 434.1577
410.6389, 429.5226
411.1211, 424.4161
411.6032, 420.0435
412.0853, 416.5366
412.5674, 413.9744
413.0495, 412.7648
413.5316, 412.6743
414.0138, 412.5334
414.4959, 411.7517
414.9780, 410.4907
415.4601, 408.6924
415.9422, 406.2707
416.4243, 404.4364
416.9065, 404.5084
417.3886, 405.7150
417.8707, 406.9195
418.3528, 407.8983
418.8349, 408.5838
419.3170, 408.6491
419.7992, 408.2770
420.2813, 408.3199
420.7634, 409.4026
421.2455, 410.8568
421.7276, 412.2325
422.2097, 413.3918
422.6919, 414.6576
423.1740, 416.5771
423.6561, 418.5530
424.1382, 419.7136
424.6203, 419.1887
425.1024, 418.5431
425.5846, 418.0841
426.0667, 417.8177
426.5488, 417.7674
427.0309, 418.3206
427.5130, 418.7477
427.9951, 418.5014
428.4773, 417.2094
428.9594, 416.0983
429.4415, 415.4723
429.9236, 414.9849
430.4057, 413.6157
430.8878, 411.0969
431.3700, 408.5674
431.8521, 406.7803
432.3342, 405.7390
432.8163, 403.3453
433.2984, 399.3629
433.7805, 394.8646
434.2627, 391.0139
434.7448, 387.7591
435.2269, 384.6130
435.7090, 381.4890
436.1911, 378.2975
436.6732, 374.9818
437.1554, 371.5010
437.6375, 367.6414
438.1196, 362.6575
438.6017, 357.3676
439.0838, 353.3175
439.5659, 350.8694
440.0480, 348.5502
440.5302, 344.8649
441.0123, 340.4620
441.4944, 336.4315
441.9765, 333.2711
442.4586, 330.5801
442.9407, 328.1645
443.4229, 326.0364
443.9050, 324.1343
444.3871, 322.5898
444.8692, 321.1904
445.3513, 319.8229
445.8334, 318.5750
446.3156, 317.1624
446.7977, 315.2426
447.2798, 313.1800
447.7619, 311.6314
448.2440, 311.3204
448.7261, 310.7930
449.2083, 309.6327
449.6904, 307.7881
450.1725, 306.1381
450.6546, 304.1557
451.1367, 303.0410
451.6188, 304.2580
452.1010, 309.2047
452.5831, 311.4038
453.0652, 309.2129
453.5473, 305.0390
454.0294, 304.9549
454.5115, 309.5765
454.9937, 313.2881
455.4758, 312.9405
455.9579, 309.3423
456.4400, 307.0499
456.9221, 306.1078
457.4042, 305.8513
457.8864, 305.7116
458.3685, 305.7265
458.8506, 306.0281
459.3327, 306.7125
459.8148, 307.5836
460.2969, 308.7055
460.7791, 309.8940
461.2612, 310.5049
461.7433, 309.4667
462.2254, 308.1455
462.7075, 307.8581
463.1896, 308.8011
463.6718, 309.7768
464.1539, 310.1643
464.6360, 310.2736
465.1181, 310.4044
465.6002, 310.3490
466.0823, 310.6403
466.5645, 311.7840
467.0466, 313.4748
467.5287, 314.5407
468.0108, 314.4307
468.4929, 314.0418
468.9750, 313.6320
469.4572, 313.1334
469.9393, 312.8811
470.4214, 313.0890
470.9035, 313.3425
471.3856, 313.1182
471.8677, 312.1724
472.3499, 311.5338
472.8320, 311.4776
473.3141, 311.8025
473.7962, 311.7894
474.2783, 311.4027
474.7604, 310.9553
475.2426, 310.7242
475.7247, 310.6305
476.2068, 310.1970
476.6889, 309.3994
477.1710, 308.3268
477.6531, 306.4660
478.1353, 304.3571
478.6174, 303.5869
479.0995, 305.4138
479.5816, 307.9572
480.0637, 309.0956
480.5458, 309.1167
481.0280, 309.0731
481.5101, 309.5991
481.9922, 310.2653
482.4743, 310.6246
482.9564, 310.5173
483.4385, 310.7330
483.9207, 311.7631
484.4028, 313.2024
484.8849, 314.6302
485.3670, 316.7600
485.8491, 317.9658
486.3312, 317.2773
486.8134, 315.1830
487.2955, 314.1916
487.7776, 315.0998
488.2597, 316.1909
488.7418, 316.7979
489.2239, 316.8101
489.7061, 316.8786
490.1882, 317.0552
490.6703, 317.2153
491.1524, 317.0855
491.6345, 316.5616
492.1166, 316.5648
492.5988, 317.3245
493.0809, 318.6568
493.5630, 320.2899
494.0451, 322.2143
494.5272, 323.8187
495.0093, 324.3136
495.4915, 324.3022
495.9736, 325.3659
496.4557, 327.6254
496.9378, 329.9185
497.4199, 331.0206
497.9020, 331.5234
498.3842, 332.2731
498.8663, 333.3724
499.3484, 335.0272
499.8305, 337.9489
500.3126, 341.5728
500.7947, 344.4481
501.2769, 344.9072
501.7590, 345.5138
502.2411, 347.6642
502.7232, 351.7370
503.2053, 355.4409
503.6874, 358.0654
504.1696, 360.4401
504.6517, 363.1299
505.1338, 366.3805
505.6159, 369.4825
506.0980, 372.2578
506.5801, 374.8962
507.0623, 377.9172
507.5444, 381.5665
508.0265, 384.8875
508.5086, 387.2968
508.9907, 388.9990
509.4728, 391.7693
509.9550, 395.6669
510.4371, 400.0622
510.9192, 404.7328
511.4013, 409.4901
511.8834, 413.3307
512.3655, 415.8856
512.8477, 418.3177
513.3298, 422.3490
513.8119, 427.3351
514.2940, 431.7358
514.7761, 434.2780
515.2582, 436.4136
515.7404, 439.5483
516.2225, 443.4926
516.7046, 446.7459
517.1867, 448.1538
517.6688, 448.9846
518.1509, 450.1289
518.6331, 452.1108
519.1152, 453.4118
519.5973, 453.3079
520.0794, 452.5488
520.5615, 452.1134
521.0436, 452.4922
521.5258, 452.3639
522.0079, 451.1689
522.4900, 449.2632
522.9721, 448.7968
523.4542, 450.6148
523.9363, 451.4142
524.4185, 448.8626
524.9006, 442.9778
525.3827, 438.7892
525.8648, 436.5540
526.3469, 434.6353
526.8290, 430.7325
527.3112, 425.5252
527.7933, 421.6967
528.2754, 420.3388
528.7575, 419.7294
529.2396, 417.6421
529.7217, 414.5454
530.2039, 411.8534
530.6860, 410.5580
531.1681, 409.7057
531.6502, 408.6257
532.1323, 407.2766
532.6144, 405.8650
533.0966, 404.4710
533.5787, 403.0226
534.0608, 401.4317
534.5429, 399.4842
535.0250, 397.7293
535.5071, 396.4009
535.9893, 395.2314
536.4714, 393.8303
536.9535, 391.9198
537.4356, 390.3459
537.9177, 389.4457
538.3998, 389.0648
538.8820, 388.2045
539.3641, 386.7614
539.8462, 385.3781
540.3283, 384.6564
540.8104, 384.4530
541.2925, 383.6055
541.7747, 381.9932
542.2568, 380.2501
542.7389, 378.9678
543.2210, 378.0811
543.7031, 377.4782
544.1852, 377.2991
544.6674, 377.1177
545.1495, 376.2830
545.6316, 375.1285
546.1137, 374.4859
546.5958, 375.4654
547.0779, 376.4343
547.5601, 376.4310
548.0422, 375.3815
548.5243, 374.3826
549.0064, 373.1710
549.4885, 372.4360
549.9706, 372.6754
550.4528, 374.8149
550.9349, 376.1506
551.4170, 376.4740
551.8991, 376.1746
552.3812, 375.7759
552.8633, 375.2456
553.3455, 374.7135
553.8276, 374.1230
554.3097, 373.5999
554.7918, 373.6840
555.2739, 374.3748
555.7560, 375.0293
556.2382, 375.2906
556.7203, 375.2337
557.2024, 375.0245
557.6845, 374.6749
558.1666, 374.1205
558.6487, 372.8086
559.1309, 371.4483
559.6130, 371.0827
560.0951, 372.5556
560.5772, 373.8893
561.0593, 374.1645
561.5414, 373.6557
562.0236, 372.8504
562.5057, 371.2275
562.9878, 369.9746
563.4699, 369.5441
563.9520, 369.8565
564.4341, 370.0792
564.9163, 370.0077
565.3984, 370.1360
565.8805, 370.9626
566.3626, 372.8271
566.8447, 372.9879
567.3268, 370.9364
567.8090, 368.6035
568.2911, 368.3478
568.7732, 369.9542
569.2553, 371.6168
569.7374, 373.1720
570.2195, 374.2284
570.7017, 373.6454
571.1838, 372.0224
571.6659, 371.2614
572.1480, 373.5292
572.6301, 376.1445
573.1122, 376.4033
573.5944, 374.5962
574.0765, 373.5086
574.5586, 375.4384
575.0407, 377.6781
575.5228, 378.3978
576.0049, 376.4722
576.4871, 375.5947
576.9692, 376.9297
577.4513, 378.8796
577.9334, 379.9672
578.4155, 379.8020
578.8976, 379.6601
579.3798, 379.7119
579.8619, 379.8579
580.3440, 379.7631
580.8261, 379.3876
581.3082, 379.3161
581.7903, 380.0704
582.2725, 381.2343
582.7546, 381.5150
583.2367, 380.9633
583.7188, 380.1857
584.2009, 379.6596
584.6830, 379.1602
585.1652, 378.3759
585.6473, 377.2374
586.1294, 375.9705
586.6115, 374.7468
587.0936, 373.4278
587.5757, 371.8823
588.0578, 369.7933
588.5399, 367.7998
589.0220, 366.3442
589.5042, 365.0252
589.9863, 362.8919
590.4684, 359.3647
590.9505, 355.9872
591.4326, 353.1114
591.9147, 350.7198
592.3969, 348.7234
592.8790, 347.1964
593.3611, 345.7593
593.8432, 344.1695
594.3253, 342.4776
594.8074, 340.7914
595.2896, 339.1192
595.7717, 337.4506
596.2538, 335.5569
596.7359, 333.7052
597.2180, 332.4046
597.7001, 331.9634
598.1823, 331.7776
598.6644, 331.5739
599.1465, 331.3355
599.6286, 331.0313
600.1107, 330.4230
600.5928, 329.9853
601.0750, 329.8779
601.5571, 330.0887
602.0392, 330.4468
602.5213, 331.1841
603.0034, 331.7412
603.4855, 331.7612
603.9677, 331.1644
604.4498, 331.2006
604.9319, 331.9982
605.4140, 333.0161
605.8961, 333.7723
606.3782, 334.3026
606.8604, 334.8292
607.3425, 335.4277
607.8246, 335.8404
608.3067, 335.2903
608.7888, 334.3442
609.2709, 334.2603
609.7531, 335.9898
610.2352, 338.1320
610.7173, 340.1743
611.1994, 341.9436
611.6815, 342.9939
612.1636, 342.4966
612.6458, 341.9331
613.1279, 341.7413
613.6100, 341.9547
614.0921, 342.7767
614.5742, 344.8336
615.0563, 346.6915
615.5385, 347.2644
616.0206, 346.0743
616.5027, 346.7242
616.9848, 349.6743
617.4669, 353.0759
617.9490, 354.5341
618.4312, 354.4421
618.9133, 354.8100
619.3954, 356.1458
619.8775, 357.8110
620.3596, 359.1350
620.8417, 360.2062
621.3239, 361.1979
621.8060, 362.1239
622.2881, 363.0703
622.7702, 364.1430
623.2523, 365.2924
623.7344, 366.3213
624.2166, 366.6514
624.6987, 367.3537
625.1808, 368.9964
625.6629, 371.6667
626.1450, 373.9537
626.6271, 375.9034
627.1093, 377.4204
627.5914, 378.2902
628.0735, 378.4462
628.5556, 378.9196
629.0377, 379.7786
629.5198, 380.8664
630.0020, 382.0787
630.4841, 383.3859
630.9662, 384.7068
631.4483, 386.0682
631.9304, 387.3543
632.4125, 388.1231
632.8947, 388.7647
633.3768, 390.0810
633.8589, 393.2450
634.3410, 396.3013
634.8231, 398.0190
635.3052, 398.7348
635.7874, 400.5414
636.2695, 404.8426
636.7516, 408.9179
637.2337, 411.6960
637.7158, 413.1189
638.1979, 414.9443
638.6801, 417.2708
639.1622, 419.7055
639.6443, 421.8736
640.1264, 423.8076
640.6085, 426.0411
641.0906, 428.6119
641.5728, 431.3756
642.0549, 434.2615
642.5370, 437.2288
643.0191, 440.2521
643.5012, 443.3036
643.9833, 446.4682
644.4655, 449.8478
644.9476, 453.3844
645.4297, 457.1080
645.9118, 461.2233
646.3939, 465.2802
646.8760, 468.8792
647.3582, 472.2890
647.8403, 476.4147
648.3224, 481.4699
648.8045, 486.9362
649.2866, 492.6361
649.7687, 498.6346
650.2509, 505.1510
650.7330, 512.2805
651.2151, 519.5032
651.6972, 526.4267
652.1793, 533.2247
652.6614, 539.8307
653.1436, 546.2098
653.6257, 553.1975
654.1078, 561.1176
654.5899, 570.0378
655.0720, 580.2524
655.5541, 592.2742
656.0363, 604.5518
656.5184, 616.0646
657.0005, 627.6276
657.4826, 640.4415
657.9647, 654.7715
658.4468, 669.7253
658.9290, 684.9540
659.4111, 700.8805
659.8932, 718.4529
660.3753, 737.6622
660.8574, 758.5265
661.3395, 780.8401
661.8217, 804.9346
662.3038, 832.1521
662.7859, 862.2003
663.2680, 893.1176
663.7501, 923.3024
664.2322, 953.9484
664.7144, 986.2811
665.1965, 1020.391
665.6786, 1056.776
666.1607, 1096.535
666.6428, 1137.982
667.1249, 1179.895
667.6071, 1221.545
668.0892, 1265.957
668.5713, 1314.064
669.0534, 1364.477
669.5355, 1415.402
670.0176, 1466.957
670.4998, 1519.794
670.9819, 1573.788
671.4640, 1629.605
671.9461, 1689.189
672.4282, 1751.068
672.9103, 1813.828
673.3925, 1877.301
673.8746, 1941.010
674.3567, 2004.093
674.8388, 2066.553
675.3209, 2128.100
675.8030, 2192.471
676.2852, 2251.082
676.7673, 2301.714
677.2494, 2344.258
677.7315, 2378.216
678.2136, 2405.249
678.6957, 2422.442
679.1779, 2429.291
679.6600, 2425.649
680.1421, 2408.302
680.6242, 2376.637
681.1063, 2334.067
681.5884, 2281.723
682.0706, 2219.875
682.5527, 2149.606
683.0348, 2069.982
683.5169, 1986.273
683.9990, 1897.672
684.4811, 1807.986
684.9633, 1719.540
685.4454, 1632.741
685.9275, 1549.713
686.4096, 1470.092
686.8917, 1394.389
687.3738, 1322.699
687.8560, 1253.391
688.3381, 1190.853
688.8202, 1135.528
689.3023, 1086.125
689.7844, 1040.675
690.2665, 998.8703
690.7487, 959.8126
691.2308, 923.0826
691.7129, 889.1964
692.1950, 857.7241
692.6771, 828.9102
693.1592, 803.1340
693.6414, 782.1378
694.1235, 762.9428
694.6056, 743.1551
695.0877, 723.4065
695.5698, 705.6533
696.0519, 691.6906
696.5341, 678.8253
697.0162, 665.6624
697.4983, 652.2640
697.9804, 640.7372
698.4625, 631.4096
698.9446, 623.2813
699.4268, 616.1689
699.9089, 609.9901
700.3910, 603.4824
700.8731, 596.5922
701.3552, 590.0588
701.8373, 584.3525
702.3195, 579.4726
702.8016, 575.7539
703.2837, 573.3821
703.7658, 570.8730
704.2479, 567.0524
704.7300, 562.7878
705.2122, 558.8600
705.6943, 555.0090
706.1764, 552.2231
706.6585, 551.1117
707.1406, 550.6431
707.6227, 549.4745
708.1049, 547.2727
708.5870, 545.8453
709.0691, 545.7228
709.5512, 546.0288
710.0333, 544.9924
710.5154, 542.8973
710.9976, 541.2819
711.4797, 540.7819
711.9618, 540.8583
712.4439, 541.0715
712.9260, 541.4290
713.4081, 541.9543
713.8903, 543.0876
714.3724, 543.9550
714.8545, 543.8265
715.3366, 542.9925
715.8187, 543.3233
716.3008, 545.7678
716.7830, 547.7452
717.2651, 548.1495
717.7472, 547.2603
718.2293, 547.3715
718.7114, 548.5276
719.1935, 549.9728
719.6757, 551.2389
720.1578, 552.4588
720.6399, 554.1022
721.1220, 556.1166
721.6041, 557.7368
722.0862, 557.8461
722.5684, 557.7512
723.0505, 558.4791
723.5326, 560.3128
724.0147, 562.1005
724.4968, 563.7204
724.9789, 565.1738
725.4611, 566.4617
725.9432, 567.5540
726.4253, 568.5640
726.9074, 569.4855
727.3895, 570.4161
727.8716, 571.5975
728.3538, 572.9217
728.8359, 573.8723
729.3180, 574.3522
729.8001, 574.5723
730.2822, 574.4172
730.7643, 574.2429
731.2465, 574.5434
731.7286, 575.7448
732.2107, 576.9791
732.6928, 578.5751
733.1749, 579.8379
733.6570, 579.6417
734.1392, 577.0598
734.6213, 575.0924
735.1034, 574.3231
735.5855, 574.1411
736.0676, 573.1252
736.5497, 571.3602
737.0319, 570.3336
737.5140, 571.1982
737.9961, 572.1364
738.4782, 570.5884
738.9603, 567.1797
739.4424, 563.5123
739.9246, 559.7090
740.4067, 556.4197
740.8888, 554.1594
741.3709, 552.7542
741.8530, 551.2712
742.3351, 549.9540
742.8173, 548.0629
743.2994, 545.0681
743.7815, 541.3102
744.2636, 538.7914
744.7457, 537.5895
745.2278, 536.4946
745.7100, 534.6031
746.1921, 532.4580
746.6742, 531.4237
747.1563, 531.3002
747.6384, 530.7445
748.1205, 528.2891
748.6027, 525.6516
749.0848, 524.0737
749.5669, 523.6763
750.0490, 523.2654
750.5311, 523.0355
751.0132, 522.3672
751.4954, 520.7101
751.9775, 517.9107
752.4596, 516.3470
752.9417, 516.1331
753.4238, 516.5269
753.9059, 517.4766
754.3881, 518.5128
754.8702, 518.1350
755.3523, 516.2144
755.8344, 514.4391
756.3165, 514.4147
756.7986, 514.8954
757.2808, 514.7069
757.7629, 513.4208
758.2450, 512.4456
758.7271, 512.2717
759.2092, 512.2652
759.6913, 511.9366
760.1735, 511.1032
760.6556, 510.8350
761.1377, 511.3525
761.6198, 511.7925
762.1019, 510.9487
762.5840, 509.2169
763.0662, 507.7948
763.5483, 506.8058
764.0304, 506.5104
764.5125, 507.8809
764.9946, 509.7432
765.4767, 510.7503
765.9589, 510.4642
766.4410, 509.5410
766.9231, 507.2231
767.4052, 504.8678
767.8873, 503.9698
768.3694, 504.9189
768.8516, 506.0011
769.3337, 507.2321
769.8158, 508.0971
770.2979, 507.6690
770.7800, 506.2005
771.2621, 504.4913
771.7443, 502.5045
772.2264, 500.9513
772.7085, 500.5107
773.1906, 500.8747
773.6727, 501.5836
774.1548, 503.5112
774.6370, 504.5165
775.1191, 503.6685
775.6012, 501.9777
776.0833, 500.9193
776.5654, 500.4650
777.0475, 500.8910
777.5297, 502.5795
778.0118, 504.5822
778.4939, 504.9078
778.9760, 504.0033
779.4581, 503.5678
779.9402, 504.4503
780.4224, 505.6653
780.9045, 506.4604
781.3866, 507.0019
781.8687, 507.6031
782.3508, 508.1349
782.8329, 508.9947
783.3151, 510.4161
783.7972, 512.1158
784.2793, 513.5681
784.7614, 514.8061
785.2435, 515.5138
785.7256, 515.4902
786.2077, 515.0508
786.6898, 514.7799
787.1719, 514.6435
787.6541, 514.5089
788.1362, 513.9981
788.6183, 513.7968
789.1004, 514.8073
789.5825, 516.4973
790.0646, 517.4924
790.5468, 516.7826
791.0289, 516.2112
791.5110, 516.0459
791.9931, 516.2885
792.4752, 517.0883
792.9573, 518.5303
793.4395, 519.7644
793.9216, 520.4015
794.4037, 520.7543
794.8858, 521.4554
795.3679, 522.3873
795.8500, 523.1613
796.3322, 523.3856
796.8143, 523.5937
797.2964, 524.1238
797.7785, 524.8882
798.2606, 525.5725
798.7427, 526.5355
799.2249, 526.7469
799.7070, 525.4337
800.1891, 523.4163
800.6712, 526.4178
801.1533, 527.7374
801.6354, 528.7449
802.1176, 529.4575
802.5997, 528.9907
803.0818, 530.0466
803.5639, 530.4924
804.0460, 530.9130
804.5281, 532.1832
805.0103, 531.8881
805.4924, 533.1448
805.9745, 533.7820
806.4566, 534.7028
806.9387, 535.0096
807.4208, 531.7146
807.9030, 532.1765
808.3851, 532.9036
808.8672, 533.4880
809.3493, 533.9533
809.8314, 534.5670
810.3135, 535.9633
810.7957, 537.0897
811.2778, 536.2751
811.7599, 534.2599
812.2420, 533.1232
812.7241, 534.3323
813.2062, 535.7277
813.6884, 536.7576
814.1705, 537.4739
814.6526, 538.0706
815.1347, 538.6448
815.6168, 538.6484
816.0989, 537.5584
816.5811, 536.1865
817.0632, 536.5551
817.5453, 538.3159
818.0274, 540.0291
818.5095, 541.3586
818.9916, 542.0670
819.4738, 541.5135
819.9559, 540.2018
820.4380, 539.4797
820.9201, 540.1523
821.4022, 540.7198
821.8843, 540.7499
822.3665, 540.6003
822.8486, 541.2897
823.3307, 542.8343
823.8128, 544.5141
824.2949, 546.2860
824.7770, 547.7773
825.2592, 548.3891
825.7413, 548.2975
826.2234, 547.9569
826.7055, 546.8564
827.1876, 546.3019
827.6697, 547.3123
828.1519, 549.1385
828.6340, 550.0204
829.1161, 549.4023
829.5982, 549.1204
830.0803, 549.5338
830.5624, 550.4132
831.0446, 551.5922
831.5267, 552.9296
832.0088, 553.6124
832.4909, 552.8616
832.9730, 552.3284
833.4551, 554.0926
833.9373, 556.9310
834.4194, 558.8623
834.9015, 558.5493
835.3836, 558.3529
835.8657, 558.6195
836.3478, 559.1183
836.8300, 559.5568
837.3121, 559.9477
837.7942, 559.9511
838.2763, 559.3071
838.7584, 558.8412
839.2405, 560.0139
839.7227, 562.1463
840.2048, 563.8024
840.6869, 564.2872
841.1690, 564.9362
841.6511, 566.9998
842.1332, 569.2904
842.6154, 570.2695
843.0975, 568.8200
843.5796, 568.5858
844.0617, 570.2029
844.5438, 572.1439
845.0259, 572.0515
845.5081, 570.4969
845.9902, 570.5247
846.4723, 572.7840
846.9544, 575.4020
847.4365, 577.0248
847.9186, 577.9976
848.4008, 578.6641
848.8829, 579.0866
849.3650, 579.2133
849.8471, 578.4548
850.3292, 578.0170
850.8113, 579.0167
851.2935, 581.6731
851.7756, 583.6284
852.2577, 584.7841
852.7398, 585.4459
853.2219, 585.4827
853.7040, 585.3798
854.1862, 586.0392
854.6683, 587.5851
855.1504, 589.0107
855.6325, 589.2938
856.1146, 589.7479
856.5967, 591.5405
857.0789, 594.9695
857.5610, 596.6711
858.0431, 596.1223
858.5252, 595.3620
859.0073, 595.7391
859.4894, 596.9769
859.9716, 598.1081
860.4537, 599.1513
860.9358, 600.3089
861.4179, 602.0211
861.9000, 603.6557
862.3821, 604.6261
862.8643, 604.9590
863.3464, 605.7578
863.8285, 607.3466
864.3106, 608.9974
864.7927, 610.5099
865.2748, 611.8793
865.7570, 612.9312
866.2391, 613.6953
866.7212, 614.4667
867.2033, 615.3740
867.6854, 616.3976
868.1675, 617.5586
868.6497, 618.8298
869.1318, 620.1053
869.6139, 621.2798
870.0960, 622.5385
870.5781, 623.8992
871.0602, 625.3652
871.5424, 627.1070
872.0245, 629.2089
872.5066, 630.6913
872.9887, 631.2301
873.4708, 631.1827
873.9529, 630.6683
874.4351, 630.0427
874.9172, 630.0970
875.3993, 631.4750
875.8814, 633.0176
876.3635, 634.2428
876.8456, 635.4290
877.3278, 636.7913
877.8099, 637.8525
878.2920, 640.9777
878.7741, 647.2171
879.2562, 653.4389
879.7383, 655.4174
880.2205, 654.2293
880.7026, 652.5642
881.1847, 650.6698
881.6668, 649.6672
882.1489, 650.5914
882.6310, 652.5656
883.1132, 654.9755
883.5953, 658.1740
884.0774, 660.3613
884.5595, 661.1257
885.0416, 661.6295
885.5237, 662.7966
886.0059, 664.4913
886.4880, 665.7334
886.9701, 666.5029
887.4522, 667.5920
887.9343, 669.9407
888.4164, 672.6083
888.8986, 674.8927
889.3807, 676.7526
889.8628, 678.0668
890.3449, 677.8182
890.8270, 678.5263
891.3091, 681.4211
891.7913, 686.0328
892.2734, 689.9218
892.7555, 693.0721
893.2376, 695.7242
893.7197, 698.0260
894.2018, 699.8528
894.6840, 700.7780
895.1661, 701.1514
895.6482, 701.9346
896.1303, 703.2980
896.6124, 705.3047
897.0945, 708.2111
897.5767, 711.6046
898.0588, 714.8203
898.5409, 717.9406
899.0230, 719.3536
899.5051, 718.0889
899.9872, 716.6432
900.4694, 718.5887
900.9515, 722.4076
901.4336, 725.5734
901.9157, 727.1956
902.3978, 728.4908
902.8799, 728.9416
903.3621, 729.7814
903.8442, 732.4437
904.3263, 737.4868
904.8084, 740.7999
905.2905, 742.0344
905.7726, 742.7278
906.2548, 744.4271
906.7369, 746.5944
907.2190, 748.1935
907.7011, 749.0910
908.1832, 750.3558
908.6653, 752.6249
909.1475, 755.2568
909.6296, 758.0438
910.1117, 760.9631
910.5938, 763.3107
911.0759, 764.9557
911.5580, 766.6862
912.0402, 769.0662
912.5223, 771.7699
913.0044, 774.0621
913.4865, 776.0710
913.9686, 778.1506
914.4507, 780.5277
914.9329, 782.9557
915.4150, 785.2439
915.8971, 787.5186
916.3792, 790.1169
916.8613, 793.0732
917.3434, 796.1232
917.8256, 799.2532
918.3077, 802.3370
918.7898, 804.9503
919.2719, 807.3746
919.7540, 810.2858
920.2361, 813.9465
920.7183, 817.9747
921.2004, 822.8800
921.6825, 827.6719
922.1646, 831.4233
922.6467, 833.9318
923.1288, 835.7418
923.6110, 836.4752
924.0931, 837.8432
924.5752, 842.2607
925.0573, 848.2961
925.5394, 852.8526
926.0215, 855.7091
926.5037, 857.4122
926.9858, 857.2506
927.4679, 856.9581
927.9500, 857.4113
928.4321, 858.6165
928.9142, 860.9839
929.3964, 864.8839
929.8785, 868.6451
930.3606, 871.9924
930.8427, 874.3947
931.3248, 873.9674
931.8069, 871.4425
932.2891, 869.2295
932.7712, 868.4037
933.2533, 868.1188
933.7354, 868.4980
934.2175, 869.0410
934.6996, 868.7772
935.1818, 867.4502
935.6639, 866.1893
936.1460, 865.1204
936.6281, 864.2020
937.1102, 863.3934
937.5923, 862.6913
938.0745, 862.0760
938.5566, 861.5218
939.0387, 861.1776
939.5208, 860.9100
940.0029, 861.0623
940.4850, 862.0176
940.9672, 863.9200
941.4493, 865.4095
941.9314, 866.5993
942.4135, 866.6898
942.8956, 863.2551
943.3777, 859.0740
943.8599, 860.8369
944.3420, 867.3558
944.8241, 872.3652
945.3062, 871.7337
945.7883, 870.1396
946.2704, 868.8698
946.7526, 868.1981
947.2347, 869.2177
947.7168, 872.3467
948.1989, 874.5280
948.6810, 874.8977
949.1631, 874.2092
949.6453, 873.1732
950.1274, 871.9498
950.6095, 870.7904
951.0916, 869.5006
951.5737, 868.8159
952.0558, 869.6630
952.5380, 870.6445
953.0201, 870.6226
953.5022, 869.4443
953.9843, 868.4217
954.4664, 867.6290
954.9485, 866.4696
955.4307, 864.2269
955.9128, 861.4706
956.3949, 858.4742
956.8770, 855.4189
957.3591, 853.7676
957.8412, 856.6612
958.3234, 857.8867
958.8055, 854.5689
959.2876, 848.4183
959.7697, 846.3128
960.2518, 848.1619
960.7339, 849.4775
961.2161, 848.1158
961.6982, 846.5092
962.1803, 847.8892
962.6624, 850.5847
963.1445, 851.9839
963.6266, 849.8046
964.1088, 848.6533
964.5909, 848.8057
965.0730, 849.9525
965.5551, 852.3708
966.0372, 855.7635
966.5193, 857.1545
967.0015, 856.3002
967.4836, 855.4745
967.9657, 856.9745
968.4478, 858.8676
968.9299, 859.2600
969.4120, 858.0602
969.8942, 857.9457
970.3763, 859.2941
970.8584, 861.2402
971.3405, 863.8627
971.8226, 866.5820
972.3047, 867.6274
972.7869, 867.3419
973.2690, 867.1146
973.7511, 867.1699
974.2332, 867.9429
974.7153, 870.7360
975.1974, 873.9439
975.6796, 875.2532
976.1617, 873.9188
976.6438, 872.5613
977.1259, 871.2018
977.6080, 870.1963
978.0901, 869.6564
978.5723, 869.8329
979.0544, 871.6127
979.5365, 875.0370
980.0186, 878.2630
980.5007, 880.6434
980.9828, 882.2629
981.4650, 883.1669
981.9471, 883.3821
982.4291, 882.7698
982.9113, 881.1957
983.3934, 880.3446
983.8755, 881.1257
984.3576, 882.6036
984.8397, 883.8010
985.3218, 884.7314
985.8040, 885.3891
986.2861, 885.4008
986.7682, 885.6730
987.2503, 886.2357
987.7324, 887.1610
988.2145, 888.7020
988.6967, 890.8134
989.1788, 892.3957
989.6609, 893.3770
990.1430, 894.1934
990.6251, 895.2032
991.1072, 896.2194
991.5894, 896.9259
992.0715, 897.3485
992.5536, 898.4906
993.0357, 901.1395
993.5178, 902.8605
993.9999, 902.4012
994.4821, 900.9940
994.9642, 901.3793
995.4463, 903.3619
995.9284, 906.4936
996.4105, 911.6660
996.8926, 915.8365
997.3748, 916.2311
997.8569, 915.4043
998.3390, 916.4047
998.8211, 920.1336
999.3032, 922.4899
999.7853, 923.1957
1000.267, 923.6005
1000.750, 924.7523
1001.232, 926.3948
1001.714, 928.0067
1002.196, 929.6425
1002.678, 931.9568
1003.160, 936.1104
1003.642, 939.8800
1004.124, 942.4943
1004.607, 944.3112
1005.089, 946.1061
1005.571, 947.9024
1006.053, 949.9673
1006.535, 952.4518
1007.017, 955.0287
1007.499, 957.7783
1007.981, 960.2802
1008.463, 961.9557
1008.946, 961.9324
1009.428, 963.1191
1009.910, 966.1072
1010.392, 969.1370
1010.874, 970.7268
1011.356, 971.3805
1011.838, 972.8779
1012.320, 975.1063
1012.802, 977.3946
1013.285, 979.4188
1013.767, 981.3828
1014.249, 983.4826
1014.731, 985.5818
1015.213, 987.2474
1015.695, 988.3914
1016.177, 989.7032
1016.659, 991.2987
1017.142, 993.0719
1017.624, 994.9183
1018.106, 996.8127
1018.588, 998.7884
1019.070, 1000.881
1019.552, 1002.768
1020.034, 1004.132
1020.516, 1005.616
1020.998, 1007.752
1021.481, 1010.240
1021.963, 1010.994
1022.445, 1010.324
1022.927, 1010.390
1023.409, 1012.627
1023.891, 1015.518
1024.373, 1018.455
1024.855, 1021.251
1025.338, 1023.557
1025.820, 1025.163
1026.302, 1026.805
1026.784, 1028.500
1027.266, 1030.328
1027.748, 1032.375
1028.230, 1034.616
1028.712, 1036.935
1029.194, 1039.339
1029.677, 1042.327
1030.159, 1046.657
1030.641, 1051.027
1031.123, 1055.178
1031.605, 1058.972
1032.087, 1061.514
1032.569, 1062.898
1033.051, 1065.468
1033.534, 1070.456
1034.016, 1075.511
1034.498, 1078.470
1034.980, 1080.346
1035.462, 1082.105
1035.944, 1083.176
1036.426, 1086.792
1036.908, 1094.090
1037.391, 1100.779
1037.873, 1102.950
1038.355, 1102.429
1038.837, 1103.739
1039.319, 1106.591
1039.801, 1109.498
1040.283, 1111.845
1040.765, 1114.033
1041.247, 1116.280
1041.729, 1118.403
1042.212, 1120.043
1042.694, 1121.176
1043.176, 1122.563
1043.658, 1124.363
1044.140, 1126.057
1044.622, 1126.863
1045.104, 1127.584
1045.586, 1128.801
1046.069, 1130.592
1046.551, 1133.859
1047.033, 1139.444
1047.515, 1144.394
1047.997, 1147.544
1048.479, 1149.408
1048.961, 1150.523
1049.443, 1151.298
1049.926, 1152.785
1050.408, 1155.363
1050.890, 1158.674
1051.372, 1163.498
1051.854, 1168.308
1052.336, 1171.316
1052.818, 1172.299
1053.300, 1177.568
1053.782, 1187.211
1054.265, 1195.701
1054.747, 1198.682
1055.229, 1199.163
1055.711, 1198.277
1056.193, 1196.964
1056.675, 1198.373
1057.157, 1203.354
1057.639, 1209.242
1058.121, 1216.028
1058.604, 1222.527
1059.086, 1226.964
1059.568, 1229.925
1060.050, 1232.561
1060.532, 1235.024
1061.014, 1237.420
1061.496, 1239.823
1061.978, 1242.068
1062.461, 1243.844
1062.943, 1245.442
1063.425, 1248.475
1063.907, 1252.856
1064.389, 1257.548
1064.871, 1262.745
1065.353, 1267.152
1065.835, 1269.454
1066.318, 1270.541
1066.800, 1271.667
1067.282, 1273.262
1067.764, 1273.646
1068.246, 1272.576
1068.728, 1271.386
1069.210, 1271.477
1069.692, 1271.858
1070.174, 1271.140
1070.656, 1269.311
1071.139, 1266.503
1071.621, 1261.043
1072.103, 1257.009
1072.585, 1255.725
1073.067, 1255.205
1073.549, 1252.421
1074.031, 1247.746
1074.513, 1242.303
1074.996, 1236.244
1075.478, 1230.537
1075.960, 1226.075
1076.442, 1222.009
1076.924, 1217.849
1077.406, 1213.610
1077.888, 1209.734
1078.370, 1206.218
1078.853, 1203.304
1079.335, 1201.553
1079.817, 1199.425
1080.299, 1194.582
1080.781, 1188.524
1081.263, 1183.322
1081.745, 1179.555
1082.227, 1175.867
1082.709, 1172.037
1083.192, 1168.860
1083.674, 1167.375
1084.156, 1166.704
1084.638, 1164.504
1085.120, 1161.120
1085.602, 1157.680
1086.084, 1154.715
1086.566, 1151.603
1087.048, 1148.073
1087.531, 1144.447
1088.013, 1141.063
1088.495, 1137.908
1088.977, 1134.918
1089.459, 1132.076
1089.941, 1129.670
1090.423, 1128.778
1090.905, 1127.580
1091.387, 1124.358
1091.870, 1119.713
1092.352, 1116.318
1092.834, 1114.268
1093.316, 1112.817
1093.798, 1111.998
1094.280, 1111.021
1094.762, 1108.252
1095.244, 1105.151
1095.727, 1103.958
1096.209, 1105.591
1096.691, 1104.986
1097.173, 1100.890
1097.655, 1096.889
1098.137, 1094.524
1098.619, 1093.376
1099.101, 1092.910
1099.583, 1092.837
1100.066, 1092.306
1100.548, 1090.116
1101.030, 1089.154
1101.512, 1091.641
1101.994, 1094.098
1102.476, 1093.456
1102.958, 1090.003
1103.440, 1087.764
1103.922, 1086.779
1104.405, 1087.069
1104.887, 1090.657
1105.369, 1093.386
1105.851, 1091.783
1106.333, 1088.083
1106.815, 1086.620
1107.297, 1087.646
1107.779, 1089.292
1108.262, 1091.519
1108.744, 1093.195
1109.226, 1092.812
1109.708, 1091.721
1110.190, 1091.093
1110.672, 1091.033
1111.154, 1091.454
1111.636, 1092.397
1112.119, 1093.686
1112.601, 1095.506
1113.083, 1097.146
1113.565, 1097.219
1114.047, 1096.488
1114.529, 1096.283
1115.011, 1096.866
1115.493, 1097.894
1115.975, 1100.383
1116.458, 1101.616
1116.940, 1099.954
1117.422, 1096.498
1117.904, 1094.419
1118.386, 1093.638
1118.868, 1093.865
1119.350, 1095.432
1119.832, 1097.142
1120.314, 1098.416
1120.797, 1099.705
1121.279, 1101.466
1121.761, 1103.679
1122.243, 1105.409
1122.725, 1106.616
1123.207, 1106.835
1123.689, 1103.938
1124.171, 1101.868
1124.654, 1104.581
1125.136, 1109.339
1125.618, 1111.063
1126.100, 1109.005
1126.582, 1107.604
1127.064, 1107.131
1127.546, 1107.254
1128.028, 1107.624
1128.510, 1108.500
1128.993, 1110.736
1129.475, 1113.869
1129.957, 1115.491
1130.439, 1114.620
1130.921, 1114.762
1131.403, 1116.751
1131.885, 1119.177
1132.367, 1120.539
1132.849, 1120.971
1133.332, 1120.425
1133.814, 1118.880
1134.296, 1117.880
1134.778, 1117.955
1135.260, 1118.256
1135.742, 1118.564
1136.224, 1118.900
1136.706, 1119.043
1137.189, 1119.282
1137.671, 1120.650
1138.153, 1123.900
1138.635, 1126.102
1139.117, 1124.583
1139.599, 1123.408
1140.081, 1125.070
1140.563, 1128.613
1141.046, 1129.014
1141.528, 1126.931
1142.010, 1125.814
1142.492, 1127.754
1142.974, 1129.735
1143.456, 1129.721
1143.938, 1129.430
1144.420, 1130.459
1144.902, 1132.870
1145.385, 1135.088
1145.867, 1137.096
1146.349, 1138.857
1146.831, 1140.064
1147.313, 1141.271
1147.795, 1143.240
1148.277, 1145.245
1148.759, 1145.901
1149.241, 1144.641
1149.724, 1145.048
1150.206, 1147.348
1150.688, 1150.528
1151.170, 1155.435
1151.652, 1159.367
1152.134, 1158.656
1152.616, 1154.677
1153.098, 1152.998
1153.581, 1154.756
1154.063, 1155.889
1154.545, 1155.840
1155.027, 1155.197
1155.509, 1154.670
1155.991, 1153.905
1156.473, 1152.127
1156.955, 1149.407
1157.438, 1147.574
1157.920, 1146.601
1158.402, 1147.020
1158.884, 1149.371
1159.366, 1152.173
1159.848, 1152.731
1160.330, 1152.383
1160.812, 1153.781
1161.294, 1157.615
1161.776, 1159.970
1162.259, 1158.951
1162.741, 1158.522
1163.223, 1160.357
1163.705, 1163.260
1164.187, 1164.492
1164.669, 1164.665
1165.151, 1165.498
1165.633, 1167.997
1166.116, 1168.921
1166.598, 1165.298
1167.080, 1162.844
1167.562, 1165.174
1168.044, 1170.488
1168.526, 1172.453
1169.008, 1171.711
1169.490, 1170.489
1169.973, 1169.162
1170.455, 1168.370
1170.937, 1168.595
1171.419, 1169.250
1171.901, 1170.036
1172.383, 1170.947
1172.865, 1171.984
1173.347, 1173.095
1173.829, 1174.055
1174.312, 1174.247
1174.794, 1174.851
1175.276, 1177.032
1175.758, 1179.315
1176.240, 1179.934
1176.722, 1178.965
1177.204, 1179.777
1177.686, 1182.307
1178.168, 1185.033
1178.651, 1187.625
1179.133, 1189.449
1179.615, 1189.646
1180.097, 1189.143
1180.579, 1189.127
1181.061, 1189.596
1181.543, 1191.107
1182.025, 1193.704
1182.508, 1195.618
1182.990, 1194.709
1183.472, 1193.537
1183.954, 1193.857
1184.436, 1195.141
1184.918, 1196.164
1185.400, 1196.901
1185.882, 1197.885
1186.365, 1199.210
1186.847, 1200.574
1187.329, 1202.165
1187.811, 1203.350
1188.293, 1203.019
1188.775, 1201.855
1189.257, 1202.631
1189.739, 1205.555
1190.221, 1207.717
1190.703, 1208.533
1191.186, 1208.684
1191.668, 1207.917
1192.150, 1207.474
1192.632, 1208.808
1193.114, 1211.693
1193.596, 1213.812
1194.078, 1215.078
1194.560, 1216.216
1195.043, 1217.298
1195.525, 1218.681
1196.007, 1221.602
1196.489, 1224.387
1196.971, 1224.838
1197.453, 1222.872
1197.935, 1222.937
1198.417, 1225.332
1198.900, 1227.193
1199.382, 1227.224
1199.864, 1227.055
1200.346, 1228.624
1200.828, 1230.854
1201.310, 1232.545
1201.792, 1233.592
1202.274, 1234.278
1202.756, 1234.584
1203.239, 1234.700
1203.721, 1234.531
1204.203, 1234.497
1204.685, 1234.945
1205.167, 1235.849
1205.649, 1237.273
1206.131, 1239.358
1206.613, 1240.983
1207.095, 1242.075
1207.578, 1243.379
1208.060, 1245.803
1208.542, 1247.965
1209.024, 1247.658
1209.506, 1246.341
1209.988, 1246.476
1210.470, 1248.861
1210.952, 1249.931
1211.435, 1249.510
1211.917, 1249.425
1212.399, 1251.527
1212.881, 1253.903
1213.363, 1254.143
1213.845, 1253.386
1214.327, 1253.717
1214.809, 1255.270
1215.292, 1258.031
1215.774, 1262.164
1216.256, 1265.744
1216.738, 1266.795
1217.220, 1267.028
1217.702, 1267.814
1218.184, 1269.099
1218.666, 1270.897
1219.148, 1273.657
1219.630, 1274.658
1220.113, 1273.577
1220.595, 1272.760
1221.077, 1274.590
1221.559, 1277.048
1222.041, 1278.258
1222.523, 1278.736
1223.005, 1280.083
1223.487, 1282.955
1223.970, 1283.380
1224.452, 1280.855
1224.934, 1278.682
1225.416, 1280.118
1225.898, 1282.487
1226.380, 1283.542
1226.862, 1283.691
1227.344, 1284.319
1227.827, 1285.460
1228.309, 1286.840
1228.791, 1288.431
1229.273, 1290.303
1229.755, 1293.137
1230.237, 1295.698
1230.719, 1297.054
1231.201, 1297.302
1231.683, 1296.713
1232.166, 1295.147
1232.648, 1294.433
1233.130, 1294.786
1233.612, 1295.695
1234.094, 1297.535
1234.576, 1299.033
1235.058, 1298.550
1235.540, 1297.157
1236.022, 1297.663
1236.505, 1300.113
1236.987, 1302.142
1237.469, 1303.460
1237.951, 1304.266
1238.433, 1303.419
1238.915, 1303.430
1239.397, 1307.796
1239.879, 1313.609
1240.362, 1313.102
1240.844, 1306.885
1241.326, 1304.395
1241.808, 1307.257
1242.290, 1311.094
1242.772, 1313.392
1243.254, 1315.219
1243.736, 1316.789
1244.219, 1318.485
1244.701, 1321.882
1245.183, 1326.470
1245.665, 1328.624
1246.147, 1327.486
1246.629, 1327.399
1247.111, 1333.807
1247.593, 1338.128
1248.075, 1335.755
1248.557, 1329.941
1249.040, 1328.328
1249.522, 1329.909
1250.004, 1330.538
1250.486, 1329.444
1250.968, 1329.004
1251.450, 1330.763
1251.932, 1333.008
1252.414, 1335.445
1252.897, 1337.684
1253.379, 1338.782
1253.861, 1338.957
1254.343, 1338.443
1254.825, 1337.174
1255.307, 1337.095
1255.789, 1340.293
1256.271, 1342.392
1256.754, 1341.505
1257.236, 1339.791
1257.718, 1341.705
1258.200, 1345.593
1258.682, 1348.238
1259.164, 1349.012
1259.646, 1350.111
1260.128, 1351.915
1260.610, 1354.068
1261.093, 1356.823
1261.575, 1359.006
1262.057, 1358.043
1262.539, 1355.730
1263.021, 1354.587
1263.503, 1355.050
1263.985, 1356.261
1264.467, 1358.466
1264.949, 1360.263
1265.432, 1361.172
1265.914, 1361.779
1266.396, 1363.051
1266.878, 1364.290
1267.360, 1364.497
1267.842, 1363.562
1268.324, 1362.883
1268.806, 1362.256
1269.289, 1363.749
1269.771, 1368.571
1270.253, 1373.362
1270.735, 1374.726
1271.217, 1374.603
1271.699, 1374.305
1272.181, 1374.098
1272.663, 1375.581
1273.146, 1378.701
1273.628, 1380.820
1274.110, 1381.141
1274.592, 1380.849
1275.074, 1380.608
1275.556, 1380.297
1276.038, 1379.570
1276.520, 1378.795
1277.002, 1379.495
1277.484, 1381.487
1277.967, 1383.847
1278.449, 1386.510
1278.931, 1388.498
1279.413, 1388.667
1279.895, 1388.695
1280.377, 1389.278
1280.859, 1390.260
##END=



