##NAMES=Fluocerite-(Ce)
##RRUFFID=R110058
##IDEAL CHEMISTRY=Ce^3+^F_3_
##LOCALITY=Little Patsy pegmatite, South Platte Pegmatite District, Jefferson County, Colorado, USA
##OWNER=RRUFF
##SOURCE=Rudy Bolona and Don Doell
##DESCRIPTION=Tan colored massive
##STATUS=The identification of this mineral has been confirmed only by single crystal X-ray diffraction.
##URL=rruff.info/R110058
182.5765, 1214.582
183.0586, 1217.384
183.5407, 1218.164
184.0228, 1219.255
184.5049, 1220.604
184.9871, 1222.740
185.4692, 1227.227
185.9513, 1233.516
186.4334, 1238.440
186.9155, 1239.033
187.3976, 1236.930
187.8798, 1238.078
188.3619, 1243.134
188.8440, 1249.500
189.3261, 1253.095
189.8082, 1254.187
190.2903, 1255.974
190.7725, 1260.933
191.2546, 1268.384
191.7367, 1273.696
192.2188, 1276.256
192.7009, 1277.790
193.1830, 1281.245
193.6652, 1286.607
194.1473, 1291.935
194.6294, 1295.878
195.1115, 1298.579
195.5936, 1301.944
196.0757, 1306.171
196.5579, 1310.926
197.0400, 1315.755
197.5221, 1320.698
198.0042, 1325.279
198.4863, 1329.372
198.9684, 1332.968
199.4506, 1335.803
199.9327, 1337.719
200.4148, 1339.038
200.8969, 1340.361
201.3790, 1341.706
201.8611, 1343.086
202.3433, 1344.269
202.8254, 1345.148
203.3075, 1347.248
203.7896, 1350.990
204.2717, 1355.702
204.7538, 1359.883
205.2360, 1363.669
205.7181, 1366.373
206.2002, 1366.858
206.6823, 1364.429
207.1644, 1364.419
207.6465, 1368.230
208.1287, 1374.147
208.6108, 1376.724
209.0929, 1374.807
209.5750, 1372.713
210.0571, 1373.364
210.5392, 1377.484
211.0214, 1380.766
211.5035, 1382.268
211.9856, 1382.889
212.4677, 1386.298
212.9498, 1393.927
213.4319, 1401.252
213.9140, 1405.168
214.3962, 1404.406
214.8783, 1404.991
215.3604, 1407.840
215.8425, 1412.369
216.3246, 1416.108
216.8067, 1418.884
217.2889, 1421.252
217.7710, 1423.561
218.2531, 1425.850
218.7352, 1427.835
219.2173, 1429.139
219.6994, 1430.100
220.1816, 1432.451
220.6637, 1436.936
221.1458, 1441.510
221.6279, 1444.742
222.1100, 1446.031
222.5921, 1447.670
223.0743, 1450.199
223.5564, 1453.248
224.0385, 1455.008
224.5206, 1454.718
225.0027, 1454.348
225.4848, 1455.343
225.9670, 1458.852
226.4491, 1460.876
226.9312, 1460.224
227.4133, 1457.795
227.8954, 1458.112
228.3775, 1462.681
228.8597, 1467.804
229.3418, 1471.096
229.8239, 1471.517
230.3060, 1472.448
230.7881, 1473.994
231.2702, 1476.189
231.7524, 1479.481
232.2345, 1485.045
232.7166, 1489.907
233.1987, 1492.009
233.6808, 1489.655
234.1629, 1488.253
234.6451, 1488.577
235.1272, 1490.108
235.6093, 1490.535
236.0914, 1489.132
236.5735, 1487.623
237.0556, 1486.914
237.5378, 1487.030
238.0199, 1488.026
238.5020, 1490.501
238.9841, 1493.927
239.4662, 1495.842
239.9483, 1495.030
240.4305, 1494.464
240.9126, 1496.043
241.3947, 1501.786
241.8768, 1505.229
242.3589, 1505.248
242.8410, 1502.849
243.3232, 1501.569
243.8053, 1501.987
244.2874, 1502.722
244.7695, 1502.916
245.2516, 1501.634
245.7337, 1501.882
246.2159, 1504.380
246.6980, 1508.344
247.1801, 1511.309
247.6622, 1513.185
248.1443, 1514.187
248.6264, 1514.131
249.1086, 1511.881
249.5907, 1511.410
250.0728, 1513.771
250.5549, 1517.682
251.0370, 1519.563
251.5191, 1518.263
252.0013, 1516.819
252.4834, 1516.653
252.9655, 1518.467
253.4476, 1519.816
253.9297, 1520.670
254.4118, 1521.098
254.8940, 1521.167
255.3761, 1520.526
255.8582, 1520.139
256.3403, 1520.536
256.8224, 1522.142
257.3046, 1522.977
257.7867, 1522.682
258.2688, 1521.790
258.7509, 1521.372
259.2330, 1521.636
259.7151, 1521.896
260.1973, 1521.887
260.6794, 1521.557
261.1615, 1521.226
261.6436, 1521.162
262.1257, 1520.891
262.6078, 1519.399
263.0900, 1516.075
263.5721, 1513.114
264.0542, 1511.398
264.5363, 1511.127
265.0184, 1510.930
265.5005, 1510.989
265.9827, 1510.974
266.4648, 1510.126
266.9469, 1507.845
267.4290, 1506.578
267.9111, 1507.650
268.3932, 1511.315
268.8754, 1512.489
269.3575, 1510.302
269.8396, 1506.903
270.3217, 1505.051
270.8038, 1505.061
271.2859, 1505.262
271.7681, 1505.146
272.2502, 1504.717
272.7323, 1504.811
273.2144, 1505.760
273.6965, 1506.529
274.1786, 1505.757
274.6608, 1503.085
275.1429, 1500.820
275.6250, 1499.613
276.1071, 1499.330
276.5892, 1498.831
277.0714, 1498.000
277.5535, 1497.310
278.0356, 1497.646
278.5177, 1499.236
278.9998, 1499.245
279.4819, 1496.518
279.9641, 1491.866
280.4462, 1489.006
280.9283, 1488.171
281.4104, 1488.071
281.8925, 1488.064
282.3746, 1488.173
282.8568, 1487.130
283.3389, 1484.548
283.8210, 1480.890
284.3031, 1477.000
284.7852, 1472.764
285.2673, 1469.502
285.7495, 1468.736
286.2316, 1470.253
286.7137, 1470.884
287.1958, 1470.048
287.6779, 1468.449
288.1600, 1467.314
288.6422, 1466.633
289.1243, 1466.537
289.6064, 1467.594
290.0885, 1469.459
290.5706, 1470.193
291.0527, 1469.347
291.5349, 1467.892
292.0170, 1467.347
292.4991, 1467.635
292.9812, 1468.095
293.4633, 1468.226
293.9454, 1468.221
294.4276, 1468.932
294.9097, 1470.576
295.3918, 1472.158
295.8739, 1472.196
296.3560, 1470.970
296.8381, 1469.790
297.3203, 1469.620
297.8024, 1469.880
298.2845, 1469.255
298.7666, 1467.661
299.2487, 1465.825
299.7308, 1463.761
300.2130, 1461.922
300.6951, 1461.647
301.1772, 1464.611
301.6593, 1468.865
302.1414, 1471.933
302.6235, 1473.785
303.1057, 1474.497
303.5878, 1473.104
304.0699, 1470.692
304.5520, 1469.322
305.0341, 1470.193
305.5162, 1471.912
305.9984, 1473.544
306.4805, 1474.961
306.9626, 1475.376
307.4447, 1473.223
307.9268, 1470.050
308.4089, 1467.956
308.8911, 1467.949
309.3732, 1468.434
309.8553, 1467.981
310.3374, 1466.909
310.8195, 1466.284
311.3016, 1466.826
311.7838, 1468.024
312.2659, 1469.440
312.7480, 1470.975
313.2301, 1472.730
313.7122, 1475.606
314.1943, 1478.776
314.6765, 1480.432
315.1586, 1477.598
315.6407, 1474.524
316.1228, 1474.035
316.6049, 1476.948
317.0870, 1480.534
317.5692, 1484.620
318.0513, 1488.406
318.5334, 1490.737
319.0155, 1490.120
319.4976, 1488.943
319.9797, 1487.892
320.4619, 1486.953
320.9440, 1487.010
321.4261, 1489.057
321.9082, 1491.884
322.3903, 1494.341
322.8724, 1496.053
323.3546, 1497.464
323.8367, 1498.717
324.3188, 1499.802
324.8009, 1500.489
325.2830, 1499.778
325.7651, 1499.266
326.2473, 1499.997
326.7294, 1504.570
327.2115, 1507.568
327.6936, 1506.885
328.1757, 1503.677
328.6578, 1503.594
329.1400, 1510.414
329.6221, 1517.319
330.1042, 1521.505
330.5863, 1521.946
331.0684, 1521.275
331.5505, 1517.996
332.0327, 1513.854
332.5148, 1512.878
332.9969, 1516.909
333.4790, 1521.580
333.9611, 1525.740
334.4432, 1529.646
334.9254, 1531.569
335.4075, 1530.348
335.8896, 1528.020
336.3717, 1527.509
336.8538, 1529.542
337.3359, 1531.605
337.8180, 1533.044
338.3001, 1533.871
338.7823, 1534.637
339.2644, 1535.396
339.7465, 1536.054
340.2286, 1536.798
340.7107, 1537.892
341.1928, 1537.551
341.6750, 1535.010
342.1571, 1530.963
342.6392, 1528.022
343.1213, 1526.167
343.6034, 1525.459
344.0855, 1526.683
344.5677, 1529.703
345.0498, 1531.128
345.5319, 1530.264
346.0140, 1528.098
346.4961, 1526.355
346.9782, 1525.029
347.4604, 1523.836
347.9425, 1522.319
348.4246, 1520.760
348.9067, 1520.525
349.3888, 1521.900
349.8709, 1523.517
350.3531, 1523.310
350.8352, 1521.808
351.3173, 1520.977
351.7994, 1522.578
352.2815, 1525.053
352.7636, 1525.472
353.2458, 1523.822
353.7279, 1522.084
354.2100, 1521.385
354.6921, 1521.797
355.1742, 1523.596
355.6563, 1528.153
356.1385, 1532.751
356.6206, 1533.959
357.1027, 1532.531
357.5848, 1532.200
358.0669, 1536.278
358.5490, 1541.978
359.0312, 1546.716
359.5133, 1549.994
359.9954, 1552.378
360.4775, 1554.218
360.9596, 1555.441
361.4417, 1555.850
361.9239, 1553.015
362.4060, 1551.189
362.8881, 1553.406
363.3702, 1560.859
363.8523, 1567.609
364.3344, 1571.379
364.8166, 1573.558
365.2987, 1575.750
365.7808, 1578.155
366.2629, 1580.726
366.7450, 1583.182
367.2271, 1585.532
367.7093, 1588.895
368.1914, 1594.810
368.6735, 1600.870
369.1556, 1605.528
369.6377, 1606.698
370.1198, 1608.848
370.6020, 1612.460
371.0841, 1617.192
371.5662, 1621.877
372.0483, 1626.385
372.5304, 1630.901
373.0125, 1635.491
373.4947, 1640.091
373.9768, 1644.864
374.4589, 1650.043
374.9410, 1655.259
375.4231, 1659.848
375.9052, 1663.746
376.3874, 1667.367
376.8695, 1670.791
377.3516, 1674.089
377.8337, 1677.086
378.3158, 1679.503
378.7979, 1682.597
379.2801, 1687.976
379.7622, 1695.828
380.2443, 1703.201
380.7264, 1709.506
381.2085, 1715.089
381.6906, 1720.952
382.1728, 1727.061
382.6549, 1733.080
383.1370, 1738.421
383.6191, 1743.351
384.1012, 1748.647
384.5833, 1754.295
385.0655, 1760.703
385.5476, 1769.078
386.0297, 1778.880
386.5118, 1787.753
386.9939, 1794.458
387.4760, 1799.702
387.9582, 1804.135
388.4403, 1807.820
388.9224, 1811.881
389.4045, 1817.762
389.8866, 1824.439
390.3687, 1830.498
390.8509, 1835.127
391.3330, 1839.332
391.8151, 1843.634
392.2972, 1848.091
392.7793, 1852.963
393.2614, 1860.094
393.7436, 1866.571
394.2257, 1869.825
394.7078, 1867.317
395.1899, 1866.615
395.6720, 1872.786
396.1541, 1882.015
396.6363, 1888.179
397.1184, 1886.062
397.6005, 1884.093
398.0826, 1885.587
398.5647, 1891.244
399.0468, 1895.683
399.5290, 1898.335
400.0111, 1899.592
400.4932, 1899.721
400.9753, 1896.667
401.4574, 1895.338
401.9395, 1897.296
402.4217, 1901.568
402.9038, 1903.307
403.3859, 1900.871
403.8680, 1898.327
404.3501, 1897.756
404.8322, 1899.875
405.3144, 1901.540
405.7965, 1902.780
406.2786, 1903.503
406.7607, 1903.355
407.2428, 1902.142
407.7249, 1901.035
408.2071, 1900.075
408.6892, 1899.469
409.1713, 1901.182
409.6534, 1905.611
410.1355, 1910.027
410.6176, 1911.336
411.0998, 1910.147
411.5819, 1909.971
412.0640, 1911.434
412.5461, 1914.287
413.0282, 1918.571
413.5103, 1924.097
413.9925, 1929.857
414.4746, 1935.274
414.9567, 1940.602
415.4388, 1946.289
415.9209, 1952.490
416.4030, 1958.436
416.8852, 1963.835
417.3673, 1968.569
417.8494, 1972.467
418.3315, 1974.329
418.8136, 1976.350
419.2957, 1979.937
419.7779, 1984.982
420.2600, 1990.846
420.7421, 1997.309
421.2242, 2004.472
421.7063, 2012.340
422.1884, 2021.596
422.6706, 2030.558
423.1527, 2038.270
423.6348, 2045.545
424.1169, 2053.926
424.5990, 2064.469
425.0811, 2075.433
425.5633, 2086.450
426.0454, 2097.568
426.5275, 2108.115
427.0096, 2117.042
427.4917, 2126.271
427.9738, 2137.655
428.4560, 2152.847
428.9381, 2166.580
429.4202, 2178.062
429.9023, 2187.534
430.3844, 2195.914
430.8665, 2202.296
431.3487, 2210.039
431.8308, 2221.454
432.3129, 2236.727
432.7950, 2251.140
433.2771, 2264.767
433.7592, 2277.136
434.2414, 2286.615
434.7235, 2293.618
435.2056, 2303.168
435.6877, 2318.136
436.1698, 2335.734
436.6519, 2350.117
437.1341, 2361.435
437.6162, 2372.173
438.0983, 2383.795
438.5804, 2396.307
439.0625, 2409.698
439.5446, 2423.954
440.0268, 2439.161
440.5089, 2455.792
440.9910, 2473.484
441.4731, 2491.211
441.9552, 2509.015
442.4373, 2526.463
442.9195, 2543.571
443.4016, 2560.298
443.8837, 2576.199
444.3658, 2589.987
444.8479, 2603.487
445.3300, 2617.969
445.8122, 2634.400
446.2943, 2651.000
446.7764, 2668.570
447.2585, 2686.194
447.7406, 2701.523
448.2227, 2712.049
448.7049, 2722.638
449.1870, 2735.266
449.6691, 2750.571
450.1512, 2763.638
450.6333, 2774.352
451.1154, 2782.878
451.5976, 2788.968
452.0797, 2791.809
452.5618, 2795.125
453.0439, 2800.279
453.5260, 2805.911
454.0081, 2807.922
454.4903, 2806.079
454.9724, 2802.219
455.4545, 2796.353
455.9366, 2788.948
456.4187, 2783.847
456.9008, 2781.787
457.3830, 2778.667
457.8651, 2769.196
458.3472, 2754.608
458.8293, 2739.393
459.3114, 2725.067
459.7935, 2710.523
460.2757, 2694.250
460.7578, 2676.336
461.2399, 2657.047
461.7220, 2636.604
462.2041, 2614.800
462.6862, 2591.386
463.1684, 2566.094
463.6505, 2540.709
464.1326, 2516.024
464.6147, 2492.206
465.0968, 2469.373
465.5789, 2447.474
466.0611, 2426.295
466.5432, 2406.260
467.0253, 2387.048
467.5074, 2364.249
467.9895, 2332.116
468.4716, 2300.524
468.9538, 2274.608
469.4359, 2258.200
469.9180, 2239.526
470.4001, 2216.757
470.8822, 2192.741
471.3643, 2171.938
471.8465, 2155.624
472.3286, 2138.673
472.8107, 2119.422
473.2928, 2098.553
473.7749, 2078.237
474.2570, 2058.467
474.7392, 2039.769
475.2213, 2023.076
475.7034, 2008.056
476.1855, 1992.187
476.6676, 1974.932
477.1497, 1957.737
477.6319, 1943.292
478.1140, 1930.801
478.5961, 1917.832
479.0782, 1902.874
479.5603, 1887.182
480.0424, 1871.915
480.5246, 1857.043
481.0067, 1842.906
481.4888, 1829.683
481.9709, 1817.270
482.4530, 1805.642
482.9352, 1794.818
483.4173, 1784.673
483.8994, 1775.918
484.3815, 1767.582
484.8636, 1758.285
485.3457, 1746.653
485.8279, 1735.138
486.3100, 1724.315
486.7921, 1714.187
487.2742, 1704.597
487.7563, 1695.925
488.2384, 1687.350
488.7206, 1678.336
489.2027, 1668.260
489.6848, 1659.658
490.1669, 1652.854
490.6490, 1647.246
491.1311, 1641.834
491.6133, 1636.681
492.0954, 1631.592
492.5775, 1626.315
493.0596, 1621.092
493.5417, 1616.870
494.0238, 1613.655
494.5060, 1610.747
494.9881, 1607.865
495.4702, 1604.864
495.9523, 1601.235
496.4344, 1596.809
496.9165, 1592.197
497.3987, 1587.681
497.8808, 1583.426
498.3629, 1579.849
498.8450, 1577.658
499.3271, 1575.752
499.8092, 1573.559
500.2914, 1571.081
500.7735, 1568.486
501.2556, 1565.333
501.7377, 1562.437
502.2198, 1560.356
502.7019, 1559.471
503.1841, 1558.582
503.6662, 1557.608
504.1483, 1556.549
504.6304, 1555.439
505.1125, 1554.608
505.5946, 1553.139
506.0768, 1550.239
506.5589, 1546.507
507.0410, 1545.227
507.5231, 1547.201
508.0052, 1549.318
508.4873, 1549.794
508.9695, 1548.593
509.4516, 1547.836
509.9337, 1547.519
510.4158, 1547.645
510.8979, 1548.568
511.3800, 1550.043
511.8622, 1550.927
512.3443, 1550.727
512.8264, 1550.075
513.3085, 1549.828
513.7906, 1549.867
514.2728, 1549.757
514.7549, 1548.999
515.2370, 1548.170
515.7191, 1547.768
516.2012, 1547.853
516.6833, 1548.178
517.1655, 1548.865
517.6476, 1549.643
518.1297, 1550.279
518.6118, 1550.516
519.0939, 1550.892
519.5760, 1551.327
520.0582, 1551.970
520.5403, 1553.230
521.0224, 1556.086
521.5045, 1558.124
521.9866, 1558.294
522.4688, 1556.591
522.9509, 1556.145
523.4330, 1557.091
523.9151, 1558.904
524.3972, 1561.329
524.8793, 1564.354
525.3615, 1567.573
525.8436, 1571.051
526.3257, 1574.445
526.8078, 1577.295
527.2899, 1579.607
527.7720, 1581.371
528.2542, 1582.472
528.7363, 1583.075
529.2184, 1582.916
529.7005, 1582.243
530.1826, 1582.409
530.6647, 1585.387
531.1469, 1588.888
531.6290, 1590.905
532.1111, 1590.929
532.5932, 1590.626
533.0753, 1590.264
533.5574, 1590.107
534.0396, 1590.433
534.5217, 1592.492
535.0038, 1593.656
535.4859, 1592.648
535.9680, 1590.446
536.4501, 1590.261
536.9323, 1593.306
537.4144, 1596.301
537.8965, 1597.865
538.3786, 1597.932
538.8607, 1598.932
539.3428, 1601.038
539.8250, 1603.458
540.3071, 1605.649
540.7892, 1607.538
541.2713, 1608.726
541.7534, 1609.044
542.2355, 1608.874
542.7177, 1608.486
543.1998, 1608.004
543.6819, 1607.847
544.1640, 1608.464
544.6461, 1609.313
545.1282, 1610.053
545.6104, 1610.644
546.0925, 1610.859
546.5746, 1610.226
547.0567, 1609.440
547.5388, 1608.854
548.0209, 1608.380
548.5031, 1608.621
548.9852, 1610.458
549.4673, 1612.707
549.9494, 1614.119
550.4315, 1614.312
550.9136, 1614.203
551.3958, 1613.828
551.8779, 1613.199
552.3600, 1612.308
552.8421, 1611.005
553.3242, 1609.932
553.8063, 1609.635
554.2885, 1609.908
554.7706, 1608.912
555.2527, 1606.547
555.7348, 1604.011
556.2169, 1602.247
556.6990, 1601.143
557.1812, 1600.427
557.6633, 1600.133
558.1454, 1599.975
558.6275, 1600.098
559.1096, 1600.119
559.5917, 1599.351
560.0739, 1596.144
560.5560, 1593.407
561.0381, 1593.107
561.5202, 1594.683
562.0023, 1595.618
562.4844, 1594.880
562.9666, 1593.677
563.4487, 1592.329
563.9308, 1590.638
564.4129, 1589.912
564.8950, 1591.120
565.3771, 1592.206
565.8593, 1591.095
566.3414, 1586.904
566.8235, 1584.386
567.3056, 1584.401
567.7877, 1585.626
568.2698, 1585.734
568.7520, 1584.781
569.2341, 1583.586
569.7162, 1582.320
570.1983, 1581.133
570.6804, 1580.288
571.1625, 1579.786
571.6447, 1579.480
572.1268, 1579.593
572.6089, 1579.703
573.0910, 1579.052
573.5731, 1577.335
574.0552, 1576.708
574.5374, 1579.603
575.0195, 1583.320
575.5016, 1585.342
575.9837, 1583.143
576.4658, 1581.710
576.9479, 1581.986
577.4301, 1583.132
577.9122, 1583.399
578.3943, 1581.815
578.8764, 1581.255
579.3585, 1582.955
579.8406, 1586.411
580.3228, 1587.953
580.8049, 1587.313
581.2870, 1586.450
581.7691, 1586.925
582.2512, 1588.337
582.7333, 1589.046
583.2155, 1588.968
583.6975, 1588.377
584.1796, 1586.949
584.6617, 1585.353
585.1439, 1584.741
585.6260, 1585.872
586.1081, 1587.307
586.5902, 1588.581
587.0723, 1589.505
587.5544, 1589.687
588.0366, 1587.809
588.5187, 1586.375
589.0008, 1586.408
589.4829, 1587.817
589.9650, 1588.763
590.4471, 1588.868
590.9293, 1588.915
591.4114, 1589.356
591.8935, 1590.313
592.3756, 1590.511
592.8577, 1589.707
593.3398, 1588.773
593.8220, 1589.028
594.3041, 1590.212
594.7862, 1589.907
595.2683, 1587.152
595.7504, 1584.223
596.2325, 1584.711
596.7147, 1587.441
597.1968, 1589.315
597.6789, 1588.527
598.1610, 1586.811
598.6431, 1585.052
599.1252, 1583.350
599.6074, 1582.043
600.0895, 1581.474
600.5716, 1581.117
601.0537, 1580.959
601.5358, 1581.268
602.0179, 1580.233
602.5001, 1576.301
602.9822, 1572.545
603.4643, 1571.625
603.9464, 1574.699
604.4285, 1575.871
604.9106, 1574.348
605.3928, 1571.650
605.8749, 1569.834
606.3570, 1568.878
606.8391, 1568.615
607.3212, 1569.227
607.8033, 1570.187
608.2855, 1571.032
608.7676, 1571.606
609.2497, 1571.391
609.7318, 1569.160
610.2139, 1566.688
610.6960, 1565.521
611.1782, 1565.680
611.6603, 1565.716
612.1424, 1565.716
612.6245, 1565.000
613.1066, 1562.919
613.5887, 1558.072
614.0709, 1555.123
614.5530, 1555.143
615.0351, 1556.119
615.5172, 1555.983
615.9993, 1554.586
616.4814, 1552.681
616.9636, 1550.088
617.4457, 1547.476
617.9278, 1546.257
618.4099, 1546.314
618.8920, 1546.473
619.3741, 1546.067
619.8563, 1545.574
620.3384, 1546.260
620.8205, 1547.725
621.3026, 1548.032
621.7847, 1544.656
622.2668, 1540.686
622.7490, 1538.853
623.2311, 1539.651
623.7132, 1539.472
624.1953, 1536.070
624.6774, 1532.287
625.1595, 1530.147
625.6417, 1530.616
626.1238, 1531.020
626.6059, 1531.546
627.0880, 1531.861
627.5701, 1531.453
628.0522, 1530.277
628.5344, 1528.846
629.0165, 1527.043
629.4986, 1525.374
629.9807, 1525.098
630.4628, 1525.963
630.9449, 1526.654
631.4271, 1526.094
631.9092, 1525.270
632.3913, 1525.492
632.8734, 1526.539
633.3555, 1527.117
633.8376, 1525.604
634.3198, 1524.152
634.8019, 1524.277
635.2840, 1526.530
635.7661, 1528.171
636.2482, 1528.925
636.7303, 1529.005
637.2125, 1528.428
637.6946, 1526.802
638.1767, 1525.733
638.6588, 1525.408
639.1409, 1525.477
639.6230, 1525.631
640.1052, 1525.851
640.5873, 1525.553
641.0694, 1524.373
641.5515, 1523.021
642.0336, 1522.682
642.5157, 1523.087
642.9979, 1523.437
643.4800, 1523.059
643.9621, 1522.708
644.4442, 1523.213
644.9263, 1524.351
645.4084, 1524.812
645.8906, 1523.586
646.3727, 1522.099
646.8548, 1520.973
647.3369, 1520.247
647.8190, 1519.685
648.3011, 1519.230
648.7833, 1519.038
649.2654, 1519.212
649.7475, 1519.758
650.2296, 1520.909
650.7117, 1522.920
651.1938, 1524.610
651.6760, 1523.808
652.1581, 1521.390
652.6402, 1520.272
653.1223, 1521.830
653.6044, 1523.576
654.0865, 1522.489
654.5687, 1520.065
655.0508, 1519.183
655.5329, 1523.580
656.0150, 1526.955
656.4971, 1526.115
656.9792, 1521.941
657.4614, 1519.269
657.9435, 1519.234
658.4256, 1519.352
658.9077, 1518.476
659.3898, 1516.719
659.8719, 1517.529
660.3541, 1521.519
660.8362, 1525.173
661.3183, 1525.926
661.8004, 1524.279
662.2825, 1521.853
662.7646, 1518.665
663.2468, 1516.047
663.7289, 1515.427
664.2110, 1515.998
664.6931, 1516.892
665.1752, 1518.327
665.6573, 1519.016
666.1395, 1517.679
666.6216, 1515.590
667.1037, 1514.309
667.5858, 1515.047
668.0679, 1515.350
668.5500, 1514.842
669.0322, 1513.878
669.5143, 1513.385
669.9964, 1513.571
670.4785, 1513.018
670.9606, 1510.681
671.4427, 1507.721
671.9249, 1507.845
672.4070, 1510.706
672.8891, 1513.603
673.3712, 1514.882
673.8533, 1515.352
674.3354, 1515.417
674.8176, 1515.246
675.2997, 1516.197
675.7818, 1521.613
676.2639, 1526.343
676.7460, 1526.597
677.2281, 1520.366
677.7103, 1515.982
678.1924, 1514.061
678.6745, 1513.745
679.1566, 1514.846
679.6387, 1518.007
680.1208, 1519.257
680.6030, 1517.943
681.0851, 1515.892
681.5672, 1515.281
682.0493, 1515.890
682.5314, 1516.805
683.0135, 1517.839
683.4957, 1518.982
683.9778, 1520.580
684.4599, 1522.226
684.9420, 1523.102
685.4241, 1522.242
685.9063, 1521.295
686.3884, 1520.739
686.8705, 1520.580
687.3526, 1520.823
687.8347, 1521.996
688.3168, 1522.829
688.7990, 1522.938
689.2811, 1522.431
689.7632, 1521.914
690.2453, 1521.412
690.7274, 1520.821
691.2095, 1519.873
691.6917, 1518.806
692.1738, 1518.148
692.6559, 1517.924
693.1380, 1518.516
693.6201, 1521.813
694.1022, 1525.069
694.5844, 1525.070
695.0665, 1520.807
695.5486, 1517.274
696.0307, 1516.195
696.5128, 1516.500
696.9949, 1517.430
697.4771, 1519.640
697.9592, 1520.945
698.4413, 1521.003
698.9234, 1520.624
699.4055, 1520.943
699.8876, 1522.006
700.3698, 1522.429
700.8519, 1521.900
701.3340, 1520.945
701.8161, 1520.136
702.2982, 1519.503
702.7803, 1519.142
703.2625, 1519.796
703.7446, 1519.883
704.2267, 1516.981
704.7088, 1512.795
705.1909, 1511.115
705.6730, 1516.062
706.1552, 1520.074
706.6373, 1520.641
707.1194, 1518.680
707.6015, 1518.700
708.0836, 1521.367
708.5657, 1523.893
709.0479, 1525.120
709.5300, 1525.274
710.0121, 1525.301
710.4942, 1525.190
710.9763, 1524.935
711.4584, 1524.308
711.9406, 1523.653
712.4227, 1523.481
712.9048, 1523.809
713.3869, 1524.134
713.8690, 1523.956
714.3511, 1523.919
714.8333, 1524.692
715.3154, 1527.037
715.7975, 1527.840
716.2796, 1526.081
716.7617, 1524.090
717.2438, 1523.837
717.7260, 1525.541
718.2081, 1526.814
718.6902, 1527.411
719.1723, 1528.042
719.6544, 1529.910
720.1365, 1532.431
720.6187, 1533.978
721.1008, 1533.877
721.5829, 1533.701
722.0650, 1534.091
722.5471, 1535.284
723.0292, 1537.622
723.5114, 1543.023
723.9935, 1547.238
724.4756, 1549.579
724.9577, 1550.363
725.4398, 1549.624
725.9219, 1546.150
726.4041, 1544.984
726.8862, 1547.723
727.3683, 1552.857
727.8504, 1557.158
728.3325, 1560.613
728.8146, 1563.082
729.2968, 1564.318
729.7789, 1564.649
730.2610, 1563.922
730.7431, 1562.512
731.2252, 1561.663
731.7073, 1562.468
732.1895, 1563.410
732.6716, 1563.628
733.1537, 1563.217
733.6358, 1563.797
734.1179, 1566.455
734.6000, 1568.267
735.0822, 1567.667
735.5643, 1564.987
736.0464, 1563.500
736.5285, 1563.262
737.0106, 1563.290
737.4927, 1562.587
737.9749, 1561.804
738.4570, 1562.540
738.9391, 1564.791
739.4212, 1566.198
739.9033, 1564.670
740.3854, 1562.263
740.8676, 1560.249
741.3497, 1558.614
741.8318, 1558.128
742.3139, 1559.980
742.7960, 1561.629
743.2781, 1561.194
743.7603, 1558.328
744.2424, 1555.587
744.7245, 1552.822
745.2066, 1551.114
745.6887, 1552.848
746.1708, 1556.449
746.6530, 1557.437
747.1351, 1554.638
747.6172, 1551.479
748.0993, 1550.261
748.5814, 1550.183
749.0635, 1550.403
749.5457, 1551.275
750.0278, 1551.530
750.5099, 1550.324
750.9920, 1548.844
751.4741, 1548.582
751.9562, 1549.881
752.4384, 1550.745
752.9205, 1550.753
753.4026, 1550.439
753.8847, 1550.890
754.3668, 1551.799
754.8489, 1551.945
755.3311, 1550.648
755.8132, 1549.027
756.2953, 1547.704
756.7774, 1546.823
757.2595, 1546.670
757.7416, 1548.819
758.2238, 1549.990
758.7059, 1548.826
759.1880, 1546.398
759.6701, 1545.098
760.1522, 1545.681
760.6343, 1544.822
761.1165, 1540.958
761.5986, 1535.892
762.0807, 1534.360
762.5628, 1535.840
763.0449, 1537.242
763.5270, 1536.803
764.0092, 1535.931
764.4913, 1535.948
764.9734, 1536.619
765.4555, 1537.218
765.9376, 1538.203
766.4197, 1538.279
766.9019, 1536.054
767.3840, 1532.312
767.8661, 1531.063
768.3482, 1533.349
768.8303, 1534.979
769.3124, 1533.775
769.7946, 1530.815
770.2767, 1530.106
770.7588, 1531.428
771.2409, 1532.738
771.7230, 1532.751
772.2051, 1532.197
772.6873, 1531.727
773.1694, 1531.347
773.6515, 1530.916
774.1336, 1530.717
774.6157, 1530.131
775.0978, 1528.500
775.5800, 1525.915
776.0621, 1524.940
776.5442, 1526.076
777.0263, 1527.426
777.5084, 1527.900
777.9905, 1527.710
778.4727, 1527.895
778.9548, 1528.426
779.4369, 1528.918
779.9190, 1529.028
780.4011, 1528.984
780.8832, 1528.949
781.3654, 1528.930
781.8475, 1529.057
782.3296, 1530.296
782.8117, 1530.798
783.2938, 1529.176
783.7759, 1525.047
784.2581, 1523.654
784.7402, 1525.777
785.2223, 1528.298
785.7044, 1528.887
786.1865, 1528.104
786.6686, 1528.396
787.1508, 1529.828
787.6329, 1530.801
788.1150, 1529.090
788.5971, 1527.006
789.0792, 1527.231
789.5613, 1530.401
790.0435, 1532.321
790.5256, 1529.847
791.0077, 1527.731
791.4898, 1528.926
791.9719, 1534.221
792.4540, 1536.686
792.9362, 1535.756
793.4183, 1534.059
793.9004, 1533.993
794.3825, 1534.857
794.8646, 1534.406
795.3467, 1532.459
795.8289, 1530.950
796.3110, 1532.524
796.7931, 1534.365
797.2752, 1533.496
797.7573, 1528.352
798.2394, 1526.200
798.7216, 1530.509
799.2037, 1535.097
799.6858, 1535.644
800.1679, 1531.348
800.6500, 1529.708
801.1321, 1531.069
801.6143, 1532.791
802.0964, 1531.925
802.5785, 1529.859
803.0606, 1529.501
803.5427, 1531.277
804.0248, 1532.951
804.5070, 1532.515
804.9891, 1531.900
805.4712, 1532.727
805.9533, 1535.884
806.4354, 1538.149
806.9175, 1539.142
807.3997, 1539.741
807.8818, 1540.560
808.3639, 1541.579
808.8460, 1542.846
809.3281, 1544.466
809.8102, 1545.034
810.2924, 1541.905
810.7745, 1537.584
811.2566, 1535.492
811.7387, 1536.223
812.2208, 1538.016
812.7029, 1541.539
813.1851, 1544.855
813.6672, 1546.494
814.1493, 1546.013
814.6314, 1545.824
815.1135, 1545.939
815.5956, 1546.318
816.0778, 1546.891
816.5599, 1547.678
817.0420, 1549.266
817.5241, 1551.711
818.0062, 1552.946
818.4883, 1549.551
818.9705, 1545.254
819.4526, 1543.992
819.9347, 1546.663
820.4168, 1548.985
820.8989, 1549.753
821.3810, 1550.236
821.8632, 1551.356
822.3453, 1553.386
822.8274, 1553.048
823.3095, 1550.007
823.7916, 1546.862
824.2737, 1545.910
824.7559, 1546.322
825.2380, 1546.729
825.7201, 1547.026
826.2022, 1546.603
826.6843, 1543.573
827.1664, 1540.895
827.6486, 1541.044
828.1307, 1544.831
828.6128, 1546.869
829.0949, 1546.285
829.5770, 1545.416
830.0591, 1545.674
830.5413, 1546.888
831.0234, 1546.925
831.5055, 1545.797
831.9876, 1545.273
832.4697, 1547.940
832.9518, 1551.029
833.4340, 1550.820
833.9161, 1547.419
834.3982, 1545.315
834.8803, 1547.564
835.3624, 1550.005
835.8445, 1550.815
836.3267, 1550.066
836.8088, 1549.457
837.2909, 1549.148
837.7730, 1548.260
838.2551, 1545.273
838.7372, 1541.679
839.2194, 1541.980
839.7015, 1545.538
840.1836, 1548.643
840.6657, 1548.208
841.1478, 1547.492
841.6299, 1548.930
842.1121, 1552.232
842.5942, 1554.132
843.0763, 1554.187
843.5584, 1553.243
844.0405, 1550.976
844.5226, 1548.080
845.0048, 1547.609
845.4869, 1549.418
845.9690, 1551.458
846.4511, 1553.447
846.9332, 1554.502
847.4153, 1552.712
847.8975, 1549.137
848.3796, 1546.770
848.8617, 1547.430
849.3438, 1548.623
849.8259, 1549.868
850.3080, 1551.103
850.7902, 1552.117
851.2723, 1552.861
851.7544, 1553.797
852.2365, 1555.374
852.7186, 1556.724
853.2007, 1555.507
853.6829, 1552.760
854.1650, 1551.326
854.6471, 1553.083
855.1292, 1555.370
855.6113, 1557.106
856.0934, 1558.443
856.5756, 1559.721
857.0577, 1561.144
857.5398, 1562.034
858.0219, 1562.062
858.5040, 1561.925
858.9861, 1562.893
859.4683, 1564.757
859.9504, 1566.360
860.4325, 1567.323
860.9146, 1568.248
861.3967, 1569.872
861.8788, 1571.676
862.3610, 1572.997
862.8431, 1573.068
863.3252, 1573.807
863.8073, 1576.200
864.2894, 1578.474
864.7715, 1578.730
865.2537, 1576.886
865.7358, 1575.114
866.2179, 1573.609
866.7000, 1572.017
867.1821, 1569.435
867.6642, 1566.784
868.1464, 1565.533
868.6285, 1566.031
869.1106, 1567.014
869.5927, 1567.859
870.0748, 1569.165
870.5569, 1571.560
871.0391, 1575.398
871.5212, 1577.429
872.0033, 1577.301
872.4854, 1576.479
872.9675, 1575.560
873.4496, 1574.821
873.9318, 1575.209
874.4139, 1576.641
874.8960, 1578.112
875.3781, 1579.479
875.8602, 1580.302
876.3423, 1579.835
876.8245, 1578.133
877.3066, 1578.006
877.7887, 1580.387
878.2708, 1582.407
878.7529, 1583.028
879.2350, 1582.468
879.7172, 1580.569
880.1993, 1577.752
880.6814, 1576.345
881.1635, 1579.495
881.6456, 1582.861
882.1277, 1582.586
882.6099, 1579.847
883.0920, 1578.236
883.5741, 1578.957
884.0562, 1580.029
884.5383, 1581.145
885.0204, 1582.341
885.5026, 1583.729
885.9847, 1585.278
886.4668, 1586.981
886.9489, 1588.905
887.4310, 1590.770
887.9131, 1592.519
888.3953, 1593.919
888.8774, 1594.628
889.3595, 1594.268
889.8416, 1593.700
890.3237, 1593.354
890.8058, 1592.659
891.2880, 1590.527
891.7701, 1586.724
892.2522, 1585.038
892.7343, 1585.979
893.2164, 1587.767
893.6985, 1589.086
894.1807, 1589.822
894.6628, 1589.520
895.1449, 1587.875
895.6270, 1586.948
896.1091, 1588.319
896.5912, 1589.911
897.0734, 1590.538
897.5555, 1590.158
898.0376, 1589.107
898.5197, 1587.163
899.0018, 1586.089
899.4839, 1588.300
899.9661, 1591.785
900.4482, 1592.241
900.9303, 1590.113
901.4124, 1588.682
901.8945, 1590.560
902.3766, 1592.496
902.8588, 1592.254
903.3409, 1590.567
903.8230, 1591.185
904.3051, 1594.694
904.7872, 1598.192
905.2693, 1601.012
905.7515, 1602.894
906.2336, 1603.212
906.7157, 1602.168
907.1978, 1600.329
907.6799, 1596.360
908.1620, 1593.636
908.6442, 1594.670
909.1263, 1597.626
909.6084, 1599.462
910.0905, 1600.002
910.5726, 1599.577
911.0547, 1597.778
911.5369, 1596.138
912.0190, 1597.156
912.5011, 1599.952
912.9832, 1602.141
913.4653, 1603.354
913.9474, 1603.660
914.4296, 1602.246
914.9117, 1600.498
915.3938, 1599.603
915.8759, 1599.769
916.3580, 1600.126
916.8401, 1600.704
917.3223, 1601.327
917.8044, 1602.143
918.2865, 1602.899
918.7686, 1602.244
919.2507, 1600.379
919.7328, 1599.127
920.2150, 1600.552
920.6971, 1602.148
921.1792, 1602.236
921.6613, 1600.970
922.1434, 1600.025
922.6255, 1599.490
923.1077, 1599.232
923.5898, 1599.312
924.0719, 1599.540
924.5540, 1599.275
925.0361, 1598.702
925.5182, 1598.654
926.0004, 1599.814
926.4825, 1600.889
926.9646, 1600.753
927.4467, 1600.090
927.9288, 1599.949
928.4109, 1600.512
928.8931, 1601.437
929.3752, 1603.026
929.8573, 1604.309
930.3394, 1603.992
930.8215, 1602.453
931.3036, 1600.957
931.7858, 1599.662
932.2679, 1598.502
932.7500, 1597.026
933.2321, 1596.006
933.7142, 1596.379
934.1964, 1598.548
934.6785, 1599.352
935.1606, 1598.499
935.6427, 1597.002
936.1248, 1594.960
936.6069, 1592.799
937.0891, 1592.142
937.5712, 1592.804
938.0533, 1593.941
938.5354, 1595.301
939.0175, 1596.752
939.4996, 1599.005
939.9818, 1601.194
940.4639, 1600.649
940.9460, 1595.491
941.4281, 1592.531
941.9102, 1593.497
942.3923, 1596.115
942.8745, 1596.963
943.3566, 1596.432
943.8387, 1595.540
944.3208, 1594.435
944.8029, 1593.430
945.2850, 1592.098
945.7672, 1591.363
946.2493, 1592.528
946.7314, 1596.700
947.2135, 1598.086
947.6956, 1596.175
948.1777, 1593.296
948.6599, 1590.888
949.1420, 1588.981
949.6241, 1587.748
950.1062, 1587.147
950.5883, 1586.874
951.0704, 1586.235
951.5526, 1586.380
952.0347, 1589.129
952.5168, 1593.259
952.9989, 1593.710
953.4810, 1589.559
953.9631, 1586.144
954.4453, 1585.256
954.9274, 1585.385
955.4095, 1583.623
955.8916, 1581.031
956.3737, 1580.005
956.8558, 1582.569
957.3380, 1584.414
957.8201, 1583.603
958.3022, 1581.736
958.7843, 1580.259
959.2664, 1579.268
959.7485, 1578.139
960.2307, 1576.834
960.7128, 1575.599
961.1949, 1574.460
961.6770, 1573.625
962.1591, 1573.453
962.6412, 1573.937
963.1234, 1574.685
963.6055, 1576.142
964.0876, 1577.100
964.5697, 1576.691
965.0518, 1575.475
965.5339, 1576.476
966.0161, 1579.681
966.4982, 1581.830
966.9803, 1581.216
967.4624, 1579.729
967.9445, 1579.441
968.4266, 1579.762
968.9088, 1579.731
969.3909, 1579.148
969.8730, 1578.119
970.3551, 1576.802
970.8372, 1574.926
971.3193, 1571.267
971.8015, 1566.328
972.2836, 1565.132
972.7657, 1568.185
973.2478, 1571.563
973.7299, 1572.853
974.2120, 1572.709
974.6942, 1570.885
975.1763, 1567.425
975.6584, 1566.454
976.1405, 1569.473
976.6226, 1571.977
977.1047, 1572.088
977.5869, 1570.734
978.0690, 1570.301
978.5511, 1570.634
979.0332, 1571.233
979.5153, 1572.535
979.9974, 1573.093
980.4796, 1571.221
980.9617, 1568.530
981.4438, 1567.346
981.9259, 1568.281
982.4080, 1568.951
982.8901, 1569.205
983.3723, 1569.409
983.8544, 1570.219
984.3365, 1571.156
984.8186, 1570.994
985.3007, 1569.693
985.7828, 1569.028
986.2650, 1570.934
986.7471, 1572.392
987.2292, 1571.673
987.7113, 1569.370
988.1934, 1568.805
988.6755, 1570.036
989.1577, 1571.218
989.6398, 1571.485
990.1219, 1571.576
990.6040, 1572.529
991.0861, 1573.872
991.5682, 1574.837
992.0504, 1575.749
992.5325, 1575.222
993.0146, 1572.117
993.4967, 1569.004
993.9788, 1568.303
994.4609, 1569.828
994.9431, 1572.514
995.4252, 1576.306
995.9073, 1578.772
996.3894, 1576.935
996.8715, 1574.144
997.3536, 1573.154
997.8358, 1573.876
998.3179, 1572.992
998.8000, 1569.218
999.2821, 1567.197
999.7642, 1568.782
1000.246, 1572.137
1000.728, 1574.048
1001.211, 1574.652
1001.693, 1574.001
1002.175, 1571.156
1002.657, 1569.211
1003.139, 1570.142
1003.621, 1572.189
1004.103, 1573.859
1004.585, 1575.218
1005.068, 1575.558
1005.550, 1574.754
1006.032, 1574.052
1006.514, 1574.814
1006.996, 1575.915
1007.478, 1575.858
1007.960, 1574.761
1008.442, 1573.711
1008.924, 1572.050
1009.407, 1571.799
1009.889, 1573.939
1010.371, 1577.161
1010.853, 1578.789
1011.335, 1579.017
1011.817, 1578.979
1012.299, 1579.018
1012.781, 1578.644
1013.263, 1577.302
1013.746, 1575.545
1014.228, 1573.775
1014.710, 1571.914
1015.192, 1570.993
1015.674, 1571.182
1016.156, 1571.862
1016.638, 1572.789
1017.120, 1573.870
1017.603, 1574.935
1018.085, 1575.964
1018.567, 1576.903
1019.049, 1577.693
1019.531, 1578.301
1020.013, 1577.968
1020.495, 1577.850
1020.977, 1580.436
1021.459, 1585.823
1021.942, 1587.965
1022.424, 1585.749
1022.906, 1582.985
1023.388, 1583.678
1023.870, 1585.321
1024.352, 1584.894
1024.834, 1581.866
1025.316, 1581.511
1025.799, 1586.209
1026.281, 1589.258
1026.763, 1587.133
1027.245, 1582.354
1027.727, 1581.652
1028.209, 1583.969
1028.691, 1585.699
1029.173, 1584.862
1029.656, 1584.067
1030.138, 1584.467
1030.620, 1585.529
1031.102, 1586.824
1031.584, 1588.553
1032.066, 1589.047
1032.548, 1588.143
1033.030, 1587.060
1033.512, 1586.678
1033.995, 1586.755
1034.477, 1587.070
1034.959, 1587.589
1035.441, 1588.271
1035.923, 1589.619
1036.405, 1590.322
1036.887, 1590.023
1037.369, 1589.078
1037.851, 1587.991
1038.334, 1586.865
1038.816, 1585.942
1039.298, 1585.239
1039.780, 1584.991
1040.262, 1586.143
1040.744, 1587.205
1041.226, 1586.863
1041.708, 1585.033
1042.191, 1583.408
1042.673, 1581.906
1043.155, 1581.179
1043.637, 1582.035
1044.119, 1583.463
1044.601, 1583.981
1045.083, 1583.986
1045.565, 1584.370
1046.047, 1586.622
1046.530, 1587.347
1047.012, 1585.682
1047.494, 1583.295
1047.976, 1581.669
1048.458, 1580.881
1048.940, 1582.136
1049.422, 1585.417
1049.904, 1587.353
1050.386, 1583.976
1050.869, 1580.329
1051.351, 1579.678
1051.833, 1581.401
1052.315, 1583.093
1052.797, 1584.810
1053.279, 1586.033
1053.761, 1586.665
1054.243, 1586.679
1054.726, 1585.523
1055.208, 1583.955
1055.690, 1583.002
1056.172, 1582.897
1056.654, 1583.534
1057.136, 1585.619
1057.618, 1587.046
1058.100, 1585.873
1058.583, 1583.151
1059.065, 1583.520
1059.547, 1586.316
1060.029, 1588.458
1060.511, 1587.720
1060.993, 1586.702
1061.475, 1586.296
1061.957, 1586.345
1062.439, 1586.730
1062.922, 1587.531
1063.404, 1588.007
1063.886, 1588.092
1064.368, 1587.964
1064.850, 1587.390
1065.332, 1586.965
1065.814, 1587.691
1066.296, 1589.442
1066.778, 1589.885
1067.261, 1588.006
1067.743, 1586.655
1068.225, 1586.559
1068.707, 1587.328
1069.189, 1588.803
1069.671, 1590.488
1070.153, 1591.134
1070.635, 1590.211
1071.118, 1589.051
1071.600, 1586.982
1072.082, 1586.128
1072.564, 1588.437
1073.046, 1593.467
1073.528, 1595.121
1074.010, 1593.664
1074.492, 1592.740
1074.974, 1594.917
1075.457, 1597.658
1075.939, 1598.929
1076.421, 1599.551
1076.903, 1600.921
1077.385, 1603.101
1077.867, 1606.004
1078.349, 1609.735
1078.831, 1613.578
1079.313, 1616.973
1079.796, 1619.970
1080.278, 1622.378
1080.760, 1624.342
1081.242, 1626.785
1081.724, 1631.117
1082.206, 1634.324
1082.688, 1635.232
1083.170, 1635.362
1083.652, 1637.025
1084.135, 1640.301
1084.617, 1646.165
1085.099, 1655.344
1085.581, 1662.965
1086.063, 1664.925
1086.545, 1665.502
1087.027, 1667.430
1087.509, 1670.583
1087.992, 1673.206
1088.474, 1675.287
1088.956, 1678.333
1089.438, 1683.424
1089.920, 1688.922
1090.402, 1693.462
1090.884, 1697.357
1091.366, 1701.108
1091.849, 1705.356
1092.331, 1707.755
1092.813, 1707.893
1093.295, 1707.575
1093.777, 1708.649
1094.259, 1709.897
1094.741, 1709.044
1095.223, 1706.329
1095.705, 1702.700
1096.188, 1697.540
1096.670, 1692.884
1097.152, 1689.597
1097.634, 1686.184
1098.116, 1680.358
1098.598, 1672.570
1099.080, 1664.885
1099.562, 1657.473
1100.044, 1650.906
1100.527, 1646.861
1101.009, 1642.427
1101.491, 1635.881
1101.973, 1627.744
1102.455, 1619.377
1102.937, 1610.752
1103.419, 1603.392
1103.901, 1598.015
1104.384, 1592.950
1104.866, 1585.098
1105.348, 1577.824
1105.830, 1575.229
1106.312, 1578.484
1106.794, 1579.133
1107.276, 1576.474
1107.758, 1573.969
1108.240, 1573.404
1108.723, 1573.592
1109.205, 1572.187
1109.687, 1570.173
1110.169, 1569.530
1110.651, 1572.416
1111.133, 1573.506
1111.615, 1571.523
1112.097, 1569.375
1112.579, 1569.950
1113.062, 1572.111
1113.544, 1571.391
1114.026, 1568.358
1114.508, 1565.964
1114.990, 1566.157
1115.472, 1566.606
1115.954, 1566.710
1116.436, 1566.600
1116.919, 1566.270
1117.401, 1565.793
1117.883, 1566.141
1118.365, 1567.417
1118.847, 1568.773
1119.329, 1570.687
1119.811, 1571.482
1120.293, 1569.174
1120.776, 1564.807
1121.258, 1561.763
1121.740, 1560.067
1122.222, 1559.482
1122.704, 1560.143
1123.186, 1560.966
1123.668, 1560.732
1124.150, 1560.105
1124.632, 1559.872
1125.115, 1560.165
1125.597, 1559.857
1126.079, 1558.705
1126.561, 1557.791
1127.043, 1557.771
1127.525, 1556.361
1128.007, 1556.438
1128.489, 1554.331
1128.971, 1552.843
1129.454, 1551.992
1129.936, 1553.138
1130.418, 1558.196
1130.900, 1561.726
1131.382, 1559.212
1131.864, 1553.194
1132.346, 1551.222
1132.828, 1552.472
1133.311, 1554.237
1133.793, 1556.216
1134.275, 1557.283
1134.757, 1556.269
1135.239, 1555.222
1135.721, 1556.353
1136.203, 1559.307
1136.685, 1561.400
1137.167, 1562.580
1137.650, 1563.344
1138.132, 1563.997
1138.614, 1564.296
1139.096, 1564.153
1139.578, 1563.569
1140.060, 1562.199
1140.542, 1560.016
1141.024, 1559.394
1141.506, 1560.697
1141.989, 1561.847
1142.471, 1561.060
1142.953, 1559.644
1143.435, 1558.140
1143.917, 1556.872
1144.399, 1557.054
1144.881, 1558.920
1145.363, 1560.750
1145.846, 1562.230
1146.328, 1563.113
1146.810, 1562.878
1147.292, 1562.004
1147.774, 1560.766
1148.256, 1559.144
1148.738, 1558.354
1149.220, 1558.623
1149.703, 1558.811
1150.185, 1558.273
1150.667, 1557.932
1151.149, 1559.956
1151.631, 1562.818
1152.113, 1563.952
1152.595, 1562.172
1153.077, 1561.095
1153.559, 1561.620
1154.042, 1561.318
1154.524, 1558.171
1155.006, 1553.994
1155.488, 1553.155
1155.970, 1554.536
1156.452, 1555.472
1156.934, 1555.073
1157.416, 1554.142
1157.898, 1552.295
1158.381, 1550.852
1158.863, 1551.185
1159.345, 1552.739
1159.827, 1553.154
1160.309, 1552.700
1160.791, 1552.480
1161.273, 1553.277
1161.755, 1553.964
1162.238, 1554.199
1162.720, 1554.236
1163.202, 1554.421
1163.684, 1554.660
1164.166, 1554.364
1164.648, 1553.533
1165.130, 1552.519
1165.612, 1550.826
1166.094, 1549.809
1166.577, 1550.428
1167.059, 1551.824
1167.541, 1552.980
1168.023, 1553.857
1168.505, 1553.387
1168.987, 1551.470
1169.469, 1549.613
1169.951, 1548.337
1170.433, 1547.984
1170.916, 1549.494
1171.398, 1551.896
1171.880, 1552.829
1172.362, 1552.308
1172.844, 1551.232
1173.326, 1549.629
1173.808, 1548.498
1174.290, 1549.232
1174.773, 1550.286
1175.255, 1550.514
1175.737, 1549.959
1176.219, 1548.729
1176.701, 1546.759
1177.183, 1545.214
1177.665, 1544.242
1178.147, 1544.383
1178.630, 1547.856
1179.112, 1551.511
1179.594, 1551.757
1180.076, 1548.486
1180.558, 1546.664
1181.040, 1546.458
1181.522, 1545.933
1182.004, 1544.008
1182.486, 1542.209
1182.969, 1542.513
1183.451, 1543.707
1183.933, 1544.150
1184.415, 1543.345
1184.897, 1544.286
1185.379, 1547.409
1185.861, 1549.326
1186.343, 1547.342
1186.825, 1544.546
1187.308, 1544.782
1187.790, 1546.621
1188.272, 1547.999
1188.754, 1549.190
1189.236, 1547.589
1189.718, 1542.480
1190.200, 1538.422
1190.682, 1539.591
1191.165, 1542.489
1191.647, 1542.601
1192.129, 1541.022
1192.611, 1539.982
1193.093, 1540.717
1193.575, 1539.852
1194.057, 1536.816
1194.539, 1534.354
1195.021, 1534.732
1195.504, 1536.850
1195.986, 1540.205
1196.468, 1544.002
1196.950, 1545.907
1197.432, 1544.777
1197.914, 1543.430
1198.396, 1541.939
1198.878, 1540.522
1199.360, 1538.980
1199.843, 1537.919
1200.325, 1538.770
1200.807, 1541.024
1201.289, 1542.450
1201.771, 1542.596
1202.253, 1542.044
1202.735, 1540.640
1203.217, 1539.359
1203.700, 1539.274
1204.182, 1540.011
1204.664, 1541.205
1205.146, 1542.738
1205.628, 1544.227
1206.110, 1546.202
1206.592, 1546.471
1207.074, 1544.099
1207.557, 1541.508
1208.039, 1541.503
1208.521, 1543.307
1209.003, 1546.953
1209.485, 1552.077
1209.967, 1553.435
1210.449, 1548.612
1210.931, 1544.624
1211.413, 1542.841
1211.896, 1542.627
1212.378, 1543.960
1212.860, 1545.829
1213.342, 1546.763
1213.824, 1546.616
1214.306, 1546.031
1214.788, 1544.923
1215.270, 1544.059
1215.752, 1543.814
1216.235, 1543.513
1216.717, 1542.528
1217.199, 1540.685
1217.681, 1536.778
1218.163, 1530.306
1218.645, 1528.516
1219.127, 1533.646
1219.609, 1537.702
1220.092, 1537.993
1220.574, 1536.461
1221.056, 1535.410
1221.538, 1534.706
1222.020, 1534.197
1222.502, 1533.883
1222.984, 1533.453
1223.466, 1532.761
1223.948, 1532.286
1224.431, 1532.126
1224.913, 1532.376
1225.395, 1533.533
1225.877, 1535.010
1226.359, 1536.160
1226.841, 1536.974
1227.323, 1536.245
1227.805, 1533.383
1228.287, 1531.510
1228.770, 1532.439
1229.252, 1534.053
1229.734, 1533.318
1230.216, 1531.511
1230.698, 1530.402
1231.180, 1530.449
1231.662, 1530.097
1232.144, 1529.268
1232.627, 1528.636
1233.109, 1528.984
1233.591, 1528.911
1234.073, 1525.553
1234.555, 1521.354
1235.037, 1519.930
1235.519, 1522.198
1236.001, 1523.252
1236.484, 1522.908
1236.966, 1523.182
1237.448, 1525.806
1237.930, 1528.363
1238.412, 1527.636
1238.894, 1525.736
1239.376, 1525.799
1239.858, 1528.359
1240.340, 1528.977
1240.823, 1527.486
1241.305, 1526.966
1241.787, 1530.117
1242.269, 1533.300
1242.751, 1532.565
1243.233, 1530.502
1243.715, 1530.610
1244.197, 1533.297
1244.679, 1534.188
1245.162, 1533.324
1245.644, 1532.241
1246.126, 1531.223
1246.608, 1531.031
1247.090, 1533.265
1247.572, 1535.937
1248.054, 1536.658
1248.536, 1535.379
1249.019, 1535.053
1249.501, 1535.595
1249.983, 1535.783
1250.465, 1534.143
1250.947, 1533.000
1251.429, 1534.331
1251.911, 1536.092
1252.393, 1536.308
1252.875, 1535.043
1253.358, 1533.674
1253.840, 1532.307
1254.322, 1531.774
1254.804, 1533.775
1255.286, 1534.947
1255.768, 1533.391
1256.250, 1531.298
1256.732, 1530.475
1257.214, 1530.746
1257.697, 1530.950
1258.179, 1531.218
1258.661, 1532.074
1259.143, 1535.755
1259.625, 1537.101
1260.107, 1534.479
1260.589, 1530.703
1261.071, 1527.163
1261.554, 1524.572
1262.036, 1526.211
1262.518, 1530.901
1263.000, 1534.656
1263.482, 1536.023
1263.964, 1536.031
1264.446, 1534.502
1264.928, 1532.340
1265.411, 1529.547
1265.893, 1527.057
1266.375, 1527.109
1266.857, 1528.963
1267.339, 1530.593
1267.821, 1531.541
1268.303, 1532.089
1268.785, 1532.100
1269.267, 1532.415
1269.750, 1534.732
1270.232, 1536.960
1270.714, 1535.683
1271.196, 1532.295
1271.678, 1530.143
1272.160, 1530.004
1272.642, 1529.203
1273.124, 1527.488
1273.606, 1526.578
1274.089, 1528.346
1274.571, 1530.802
1275.053, 1532.726
1275.535, 1533.797
1276.017, 1533.611
1276.499, 1532.054
1276.981, 1529.462
1277.463, 1525.897
1277.946, 1524.191
1278.428, 1528.881
1278.910, 1533.094
1279.392, 1531.756
1279.874, 1528.097
1280.356, 1525.511
1280.838, 1524.056
1281.320, 1524.857
1281.802, 1527.603
1282.285, 1529.541
1282.767, 1527.733
1283.249, 1526.746
1283.731, 1529.012
1284.213, 1531.862
1284.695, 1532.644
1285.177, 1531.974
1285.659, 1533.140
1286.141, 1535.697
1286.624, 1537.735
1287.106, 1537.654
1287.588, 1538.229
1288.070, 1540.209
1288.552, 1542.064
1289.034, 1542.154
1289.516, 1541.363
1289.998, 1541.658
1290.481, 1542.746
1290.963, 1543.859
1291.445, 1545.215
1291.927, 1545.588
1292.409, 1544.621
1292.891, 1544.060
1293.373, 1546.083
1293.855, 1548.473
1294.338, 1547.879
1294.820, 1545.732
1295.302, 1544.873
1295.784, 1546.000
1296.266, 1545.954
1296.748, 1544.622
1297.230, 1544.150
1297.712, 1546.688
1298.194, 1549.590
1298.677, 1551.558
1299.159, 1552.003
1299.641, 1549.778
1300.123, 1544.717
1300.605, 1543.303
1301.087, 1545.071
1301.569, 1545.836
1302.051, 1541.481
1302.533, 1538.506
1303.016, 1539.102
##END=



