##NAMES=Fluor-buergerite
##RRUFFID=R060132
##IDEAL CHEMISTRY=NaFe^3+^_3_Al_6_(Si_6_O_18_)(BO_3_)_3_O_3_F
##LOCALITY=20 km. south of San Luis Potasi, Mexico
##OWNER=RRUFF
##SOURCE=University of Arizona Mineral Museum
##DESCRIPTION=Brown short prismatic
##STATUS=The identification of this mineral has been confirmed by X-ray diffraction and chemical analysis
##URL=rruff.info/R060132
##MEASURED CHEMISTRY=(Na_0.87_Ca_0.03_[box]_0.10_)(Fe^3+^_0.82_Al_0.12_Mg_0.04_Ti_0.02_)_3_Al_6_(BO_3_)_3_(Si_0.98_Al_0.02_)_6_O_18_(O_0.66_F_0.19_(OH)_0.15_)_4_
92.02539, 139.9289
92.50751, 144.0165
92.98962, 146.9634
93.47174, 145.2054
93.95386, 141.7435
94.43597, 138.4158
94.91809, 136.3405
95.40021, 135.1324
95.88232, 132.9951
96.36444, 129.8817
96.84656, 125.9274
97.32867, 120.5721
97.81078, 114.6355
98.29290, 109.4599
98.77502, 106.1824
99.25713, 104.9483
99.73925, 102.6321
100.2214, 98.67568
100.7035, 94.46797
101.1856, 90.33189
101.6677, 86.41364
102.1498, 82.96704
102.6320, 80.31264
103.1141, 78.64503
103.5962, 77.46122
104.0783, 77.16445
104.5604, 77.16772
105.0425, 76.88428
105.5247, 76.16086
106.0068, 75.01162
106.4889, 73.29472
106.9710, 70.90972
107.4531, 68.66234
107.9352, 66.90642
108.4173, 65.59061
108.8995, 64.42202
109.3816, 63.24866
109.8637, 62.24180
110.3458, 61.58977
110.8279, 61.35334
111.3100, 61.30384
111.7922, 61.12481
112.2743, 60.70174
112.7564, 60.53356
113.2385, 61.04050
113.7206, 61.71837
114.2027, 62.11443
114.6849, 62.00580
115.1670, 61.53949
115.6491, 61.23578
116.1312, 61.27515
116.6133, 61.27621
117.0954, 61.21275
117.5776, 61.06539
118.0597, 60.78672
118.5418, 60.31986
119.0239, 59.65734
119.5060, 59.28292
119.9881, 59.30693
120.4703, 59.44507
120.9524, 59.68611
121.4345, 59.97532
121.9166, 60.15030
122.3987, 60.03109
122.8808, 59.55553
123.3630, 59.18788
123.8451, 59.01307
124.3272, 58.90153
124.8093, 58.71929
125.2914, 58.43517
125.7735, 58.13922
126.2557, 57.90238
126.7378, 57.71891
127.2199, 57.65740
127.7020, 57.82341
128.1841, 58.14586
128.6662, 58.41320
129.1483, 58.65717
129.6305, 58.73524
130.1126, 58.50941
130.5947, 58.00702
131.0768, 57.47609
131.5589, 57.10158
132.0410, 56.88672
132.5232, 56.80600
133.0053, 57.06766
133.4874, 57.32141
133.9695, 57.31968
134.4516, 57.03839
134.9337, 56.71052
135.4159, 56.73171
135.8980, 57.44063
136.3801, 57.85537
136.8622, 57.80228
137.3443, 57.55399
137.8264, 57.29881
138.3086, 57.11486
138.7907, 57.00667
139.2728, 56.99263
139.7549, 57.33407
140.2370, 57.46736
140.7191, 57.18487
141.2013, 56.69468
141.6834, 56.31817
142.1655, 56.24046
142.6476, 56.37605
143.1297, 56.34198
143.6118, 55.93554
144.0939, 55.60614
144.5761, 55.57147
145.0582, 55.78724
145.5403, 56.05905
146.0224, 56.32015
146.5045, 56.53286
146.9866, 56.62266
147.4688, 56.48003
147.9509, 56.30065
148.4330, 56.28212
148.9151, 56.44506
149.3972, 56.64022
149.8793, 56.77831
150.3615, 56.89455
150.8436, 57.04265
151.3257, 57.29507
151.8078, 57.56429
152.2899, 57.66007
152.7720, 57.59408
153.2542, 57.29907
153.7363, 56.54856
154.2184, 55.62210
154.7005, 54.96524
155.1826, 54.94719
155.6647, 55.48019
156.1469, 55.65367
156.6290, 55.16467
157.1111, 54.56840
157.5932, 53.88923
158.0753, 53.20894
158.5574, 52.66716
159.0396, 52.40252
159.5217, 52.45750
160.0038, 52.40104
160.4859, 52.22271
160.9680, 51.96222
161.4501, 51.57278
161.9323, 51.09177
162.4144, 50.63506
162.8965, 50.32414
163.3786, 50.18970
163.8607, 50.10379
164.3428, 50.13478
164.8250, 50.16397
165.3071, 50.09767
165.7892, 49.92332
166.2713, 49.70430
166.7534, 49.50515
167.2355, 49.32562
167.7177, 49.18077
168.1998, 49.07907
168.6819, 49.01022
169.1640, 48.95963
169.6461, 48.92234
170.1282, 48.91124
170.6104, 48.95702
171.0925, 49.05216
171.5746, 49.14485
172.0567, 49.26997
172.5388, 49.38336
173.0209, 49.33318
173.5031, 49.00399
173.9852, 48.62217
174.4673, 48.37186
174.9494, 48.24667
175.4315, 48.18845
175.9136, 48.15753
176.3958, 48.15459
176.8779, 48.21169
177.3600, 48.40792
177.8421, 48.60479
178.3242, 48.73888
178.8063, 48.80262
179.2885, 48.79966
179.7706, 48.72781
180.2527, 48.57871
180.7348, 48.39303
181.2169, 48.06048
181.6990, 47.77529
182.1812, 47.68721
182.6633, 47.79854
183.1454, 47.96397
183.6275, 47.96854
184.1096, 47.70023
184.5917, 47.50403
185.0738, 47.38737
185.5560, 47.32392
186.0381, 47.33054
186.5202, 47.39846
187.0023, 47.46013
187.4844, 47.39253
187.9665, 47.01156
188.4487, 46.79902
188.9308, 46.79866
189.4129, 46.93635
189.8950, 47.18613
190.3771, 47.53512
190.8592, 47.91036
191.3414, 48.17376
191.8235, 48.35363
192.3056, 48.36255
192.7877, 48.03792
193.2698, 47.57808
193.7519, 47.22413
194.2341, 47.05198
194.7162, 47.05034
195.1983, 47.27700
195.6804, 47.82947
196.1625, 48.23458
196.6446, 48.22288
197.1268, 47.95955
197.6089, 47.83822
198.0910, 48.03802
198.5731, 48.35916
199.0552, 48.45091
199.5373, 48.26479
200.0195, 48.14186
200.5016, 48.31555
200.9837, 48.73180
201.4658, 49.11715
201.9479, 49.41406
202.4300, 49.61901
202.9122, 49.72959
203.3943, 49.73953
203.8764, 49.72451
204.3585, 49.75113
204.8406, 49.81911
205.3227, 49.85124
205.8048, 49.74147
206.2870, 49.65926
206.7691, 49.74839
207.2512, 50.02256
207.7333, 50.34577
208.2154, 50.55389
208.6975, 50.61386
209.1797, 50.75599
209.6618, 51.21897
210.1439, 51.63942
210.6260, 51.74560
211.1081, 51.51501
211.5902, 51.21166
212.0724, 51.20542
212.5545, 51.63020
213.0366, 51.94599
213.5187, 52.05210
214.0008, 52.09218
214.4829, 52.04088
214.9651, 51.94166
215.4472, 52.00123
215.9293, 52.62368
216.4114, 54.41730
216.8935, 55.47974
217.3756, 55.46590
217.8578, 55.10458
218.3399, 54.75948
218.8220, 54.56904
219.3041, 54.60773
219.7862, 55.02618
220.2683, 56.18842
220.7505, 57.02135
221.2326, 57.35094
221.7147, 57.50294
222.1968, 57.66703
222.6789, 57.90847
223.1610, 58.27408
223.6432, 58.86150
224.1253, 59.95054
224.6074, 60.64595
225.0895, 60.50586
225.5716, 60.22198
226.0537, 60.47274
226.5358, 61.40740
227.0180, 62.60749
227.5001, 63.49670
227.9822, 63.95911
228.4643, 64.44376
228.9464, 64.99357
229.4285, 65.56902
229.9107, 66.15381
230.3928, 66.74769
230.8749, 67.26863
231.3570, 67.56387
231.8391, 67.60855
232.3212, 67.71583
232.8034, 68.05184
233.2855, 68.43075
233.7676, 68.65237
234.2497, 68.69278
234.7318, 68.50734
235.2139, 67.86565
235.6961, 66.83561
236.1782, 66.02323
236.6603, 65.72454
237.1424, 65.69194
237.6245, 65.55167
238.1066, 65.24429
238.5888, 64.87010
239.0709, 64.54649
239.5530, 64.24314
240.0351, 63.82568
240.5172, 63.10614
240.9993, 62.26951
241.4815, 61.68302
241.9636, 61.41124
242.4457, 61.27716
242.9278, 61.22502
243.4099, 61.20997
243.8920, 61.13164
244.3742, 60.89865
244.8563, 60.58142
245.3384, 60.38998
245.8205, 60.45570
246.3026, 60.34084
246.7847, 59.59157
247.2668, 58.54321
247.7490, 57.74681
248.2311, 57.54646
248.7132, 57.71309
249.1953, 57.68198
249.6774, 57.38938
250.1595, 57.01628
250.6417, 56.52887
251.1238, 56.04638
251.6059, 55.76134
252.0880, 55.83035
252.5701, 56.06292
253.0522, 55.92837
253.5344, 55.14812
254.0165, 54.55365
254.4986, 54.60442
254.9807, 54.86572
255.4628, 54.80742
255.9449, 54.15501
256.4271, 53.23164
256.9092, 52.83787
257.3913, 53.35963
257.8734, 53.68791
258.3555, 53.40169
258.8376, 52.94653
259.3198, 52.80175
259.8019, 53.15950
260.2840, 53.70718
260.7661, 53.74329
261.2482, 52.85581
261.7303, 52.23738
262.2125, 52.22390
262.6946, 52.37246
263.1767, 52.28327
263.6588, 51.83809
264.1409, 51.25787
264.6230, 50.94762
265.1052, 51.10679
265.5873, 51.15286
266.0694, 51.13678
266.5515, 50.97140
267.0336, 50.48716
267.5157, 49.69342
267.9979, 48.86104
268.4800, 48.40973
268.9621, 48.54860
269.4442, 48.63931
269.9263, 48.68396
270.4084, 48.69024
270.8906, 48.65066
271.3727, 48.57110
271.8548, 48.47353
272.3369, 48.37382
272.8190, 48.23656
273.3011, 48.23022
273.7833, 48.53498
274.2654, 48.79679
274.7475, 48.77749
275.2296, 48.49743
275.7117, 48.15202
276.1938, 47.92915
276.6760, 47.84187
277.1581, 47.80804
277.6402, 48.03958
278.1223, 48.06054
278.6044, 48.25032
279.0865, 48.37691
279.5686, 48.44370
280.0508, 48.27161
280.5329, 48.40798
281.0150, 48.42074
281.4971, 48.22478
281.9792, 47.95824
282.4613, 47.92507
282.9435, 48.02498
283.4256, 47.94686
283.9077, 47.46020
284.3898, 46.63258
284.8719, 46.10712
285.3540, 46.00836
285.8362, 46.01337
286.3183, 46.14825
286.8004, 46.31892
287.2825, 46.33118
287.7646, 46.06215
288.2467, 45.63547
288.7289, 45.49142
289.2110, 45.96383
289.6931, 46.28505
290.1752, 46.22744
290.6573, 45.97785
291.1394, 45.77973
291.6216, 45.72425
292.1037, 45.78653
292.5858, 45.93093
293.0679, 46.22701
293.5500, 46.46978
294.0321, 46.65525
294.5143, 46.77110
294.9964, 46.76081
295.4785, 46.61065
295.9606, 46.45243
296.4427, 46.48442
296.9248, 46.79687
297.4070, 47.03589
297.8891, 47.15477
298.3712, 47.21631
298.8533, 47.27769
299.3354, 47.34645
299.8175, 47.39705
300.2997, 47.41983
300.7818, 47.41835
301.2639, 47.25903
301.7460, 46.79727
302.2281, 46.29591
302.7102, 45.91142
303.1924, 45.65478
303.6745, 45.48098
304.1566, 45.37667
304.6387, 45.33396
305.1208, 45.21278
305.6029, 44.91895
306.0851, 44.64447
306.5672, 44.57261
307.0493, 44.61934
307.5314, 44.47824
308.0135, 43.91919
308.4956, 43.08616
308.9778, 42.62583
309.4599, 42.74128
309.9420, 42.89835
310.4241, 42.89749
310.9062, 42.82221
311.3883, 42.85094
311.8705, 43.07061
312.3526, 43.38709
312.8347, 43.59406
313.3168, 43.69748
313.7989, 43.70956
314.2810, 43.49273
314.7632, 43.23345
315.2453, 43.21598
315.7274, 43.52625
316.2095, 43.95134
316.6916, 44.20635
317.1737, 44.25356
317.6559, 44.28992
318.1380, 44.24009
318.6201, 44.23955
319.1022, 44.48915
319.5843, 44.99577
320.0664, 45.46279
320.5485, 45.57737
321.0306, 45.30245
321.5128, 45.23759
321.9949, 45.51974
322.4770, 45.88837
322.9591, 46.21473
323.4412, 46.48567
323.9233, 46.69751
324.4055, 46.83009
324.8876, 46.90248
325.3697, 47.04409
325.8518, 47.32213
326.3339, 47.58551
326.8160, 47.76332
327.2982, 47.88543
327.7803, 48.03483
328.2624, 48.26301
328.7445, 48.50887
329.2266, 48.59319
329.7087, 48.41076
330.1909, 48.28172
330.6730, 48.35001
331.1551, 48.47445
331.6372, 48.42921
332.1193, 48.14564
332.6014, 47.82184
333.0836, 47.75794
333.5657, 48.08282
334.0478, 48.29515
334.5299, 48.31007
335.0120, 48.25136
335.4941, 48.23531
335.9763, 48.26815
336.4584, 48.24971
336.9405, 48.06414
337.4226, 47.68774
337.9047, 47.46629
338.3868, 47.46304
338.8690, 47.53229
339.3511, 47.59066
339.8332, 47.65528
340.3153, 47.80461
340.7974, 48.10238
341.2795, 48.51535
341.7617, 48.82365
342.2438, 49.01127
342.7259, 49.13160
343.2080, 49.11262
343.6901, 49.05372
344.1722, 49.11243
344.6544, 49.35508
345.1365, 49.70912
345.6186, 50.02983
346.1007, 50.41957
346.5828, 50.59509
347.0649, 50.33485
347.5471, 49.98643
348.0292, 49.87548
348.5113, 50.05300
348.9934, 50.31869
349.4755, 50.41195
349.9576, 50.22857
350.4398, 50.33123
350.9219, 50.97648
351.4040, 51.62788
351.8861, 51.94678
352.3682, 52.00456
352.8503, 52.11272
353.3325, 52.52657
353.8146, 53.21290
354.2967, 53.65294
354.7788, 53.52226
355.2609, 53.51532
355.7430, 53.92279
356.2252, 54.50376
356.7073, 54.88890
357.1894, 54.89935
357.6715, 54.69582
358.1536, 54.68048
358.6357, 54.93550
359.1179, 55.27734
359.5999, 55.76508
360.0821, 56.28791
360.5642, 56.77467
361.0463, 57.20393
361.5284, 57.56449
362.0105, 57.83101
362.4926, 57.96472
362.9748, 58.15674
363.4569, 58.48285
363.9390, 58.79278
364.4211, 59.01758
364.9032, 59.17025
365.3853, 59.28223
365.8675, 59.35413
366.3496, 59.40810
366.8317, 59.66394
367.3138, 60.27866
367.7959, 60.90995
368.2780, 61.50208
368.7602, 62.05852
369.2423, 62.60973
369.7244, 63.17013
370.2065, 63.67484
370.6886, 63.97598
371.1707, 63.98803
371.6529, 64.00554
372.1350, 64.13593
372.6171, 64.23899
373.0992, 64.21865
373.5813, 64.06379
374.0634, 63.83189
374.5456, 63.56207
375.0277, 63.25204
375.5098, 62.96684
375.9919, 62.72618
376.4740, 62.49169
376.9561, 62.27954
377.4383, 62.05999
377.9204, 61.78102
378.4025, 61.44637
378.8846, 61.01098
379.3667, 60.28705
379.8488, 59.11707
380.3310, 58.06910
380.8131, 57.53472
381.2952, 57.16384
381.7773, 56.56808
382.2594, 55.60697
382.7415, 54.60397
383.2237, 53.91736
383.7058, 53.54393
384.1879, 53.26345
384.6700, 53.10667
385.1521, 52.94210
385.6342, 52.63402
386.1164, 52.19369
386.5985, 51.76172
387.0806, 51.44832
387.5627, 51.19952
388.0448, 50.85951
388.5269, 50.37978
389.0091, 49.93560
389.4912, 49.70518
389.9733, 49.60655
390.4554, 49.45830
390.9375, 49.10767
391.4196, 48.80136
391.9018, 48.87280
392.3839, 49.26832
392.8660, 49.46383
393.3481, 49.12862
393.8302, 48.55656
394.3123, 48.34602
394.7945, 48.59538
395.2766, 48.84089
395.7587, 48.90785
396.2408, 48.85149
396.7229, 48.76120
397.2050, 48.65572
397.6872, 48.51007
398.1693, 48.23711
398.6514, 47.81541
399.1335, 47.68258
399.6156, 48.29225
400.0977, 48.84541
400.5798, 48.64589
401.0620, 47.81996
401.5441, 47.03878
402.0262, 46.72714
402.5083, 46.78167
402.9904, 46.69215
403.4725, 46.34446
403.9547, 46.01743
404.4368, 45.73121
404.9189, 45.50586
405.4010, 45.40978
405.8831, 45.45610
406.3652, 45.51502
406.8474, 45.39294
407.3295, 45.03060
407.8116, 44.64558
408.2937, 44.16174
408.7758, 43.72567
409.2579, 43.43852
409.7401, 43.27655
410.2222, 43.13268
410.7043, 42.91419
411.1864, 42.64822
411.6685, 42.57244
412.1506, 43.07147
412.6328, 43.27965
413.1149, 42.89613
413.5970, 42.24128
414.0791, 41.59797
414.5612, 41.07695
415.0433, 40.74803
415.5255, 40.81762
416.0076, 41.51023
416.4897, 41.82168
416.9718, 41.37412
417.4539, 40.79638
417.9360, 40.29455
418.4182, 39.90660
418.9003, 39.65529
419.3824, 39.59401
419.8645, 39.67643
420.3466, 39.70539
420.8287, 39.70095
421.3109, 39.59536
421.7930, 39.18628
422.2751, 38.74060
422.7572, 38.62097
423.2393, 38.98373
423.7214, 39.41228
424.2036, 39.40081
424.6857, 38.96951
425.1678, 38.65028
425.6499, 38.57474
426.1320, 38.63522
426.6141, 38.79213
427.0963, 39.02100
427.5784, 39.11541
428.0605, 38.82705
428.5426, 38.41704
429.0247, 38.33876
429.5068, 38.63432
429.9890, 38.92467
430.4711, 38.96157
430.9532, 38.81252
431.4353, 38.73089
431.9174, 38.77417
432.3995, 38.80045
432.8817, 38.72840
433.3638, 38.58926
433.8459, 38.42101
434.3280, 38.22327
434.8101, 38.08171
435.2922, 38.13961
435.7744, 38.46710
436.2565, 38.71221
436.7386, 38.85032
437.2207, 38.91275
437.7028, 38.86422
438.1849, 38.74493
438.6671, 38.69159
439.1492, 38.80574
439.6313, 39.05188
440.1134, 39.21864
440.5955, 39.20182
441.0776, 39.23451
441.5598, 39.34894
442.0418, 39.52130
442.5240, 39.79280
443.0061, 40.14462
443.4882, 40.40207
443.9703, 40.28112
444.4524, 39.63575
444.9345, 39.29924
445.4167, 39.47755
445.8988, 39.76793
446.3809, 40.11420
446.8630, 40.45921
447.3451, 40.74205
447.8272, 40.93497
448.3094, 41.01862
448.7915, 40.87901
449.2736, 40.35091
449.7557, 40.07406
450.2378, 40.46205
450.7199, 40.98688
451.2021, 41.32572
451.6842, 41.42968
452.1663, 41.34580
452.6484, 40.93719
453.1305, 40.33104
453.6126, 40.16647
454.0948, 40.65039
454.5769, 41.17414
455.0590, 41.36498
455.5411, 41.30709
456.0232, 40.98729
456.5053, 41.12459
456.9875, 41.19868
457.4696, 41.21299
457.9517, 40.98840
458.4338, 41.07228
458.9159, 41.03255
459.3980, 40.98775
459.8802, 41.11505
460.3623, 40.92521
460.8444, 41.04978
461.3265, 40.93229
461.8086, 40.71814
462.2907, 40.58089
462.7729, 40.51656
463.2550, 40.38331
463.7371, 40.06755
464.2192, 39.61182
464.7013, 39.25292
465.1834, 38.85174
465.6656, 38.71421
466.1477, 39.19349
466.6298, 39.80247
467.1119, 39.97427
467.5940, 39.59996
468.0761, 39.02076
468.5583, 38.62717
469.0404, 38.42846
469.5225, 38.34125
470.0046, 38.52391
470.4867, 38.65477
470.9688, 38.55740
471.4510, 38.35904
471.9331, 38.28575
472.4152, 38.45380
472.8973, 38.73536
473.3794, 38.90322
473.8615, 38.95418
474.3437, 38.90398
474.8258, 38.70742
475.3079, 38.44149
475.7900, 38.10398
476.2721, 37.72304
476.7542, 37.40791
477.2364, 37.22472
477.7185, 37.15648
478.2006, 37.19877
478.6827, 37.37767
479.1648, 37.50959
479.6469, 37.49643
480.1291, 37.37350
480.6112, 37.18839
481.0933, 36.88260
481.5754, 36.68525
482.0575, 36.79698
482.5396, 37.07701
483.0217, 37.27970
483.5038, 37.35772
483.9860, 37.33860
484.4681, 37.23085
484.9502, 37.02993
485.4323, 36.85027
485.9144, 36.64825
486.3965, 36.51159
486.8787, 36.45796
487.3608, 36.49908
487.8429, 36.71844
488.3250, 37.14898
488.8071, 37.57794
489.2892, 37.58742
489.7714, 36.85505
490.2535, 36.50060
490.7356, 36.80957
491.2177, 37.16530
491.6998, 37.21571
492.1819, 37.04889
492.6641, 36.96543
493.1462, 37.17957
493.6283, 37.55050
494.1104, 37.62502
494.5925, 37.24270
495.0746, 37.00010
495.5568, 37.19347
496.0389, 37.46775
496.5210, 37.54331
497.0031, 37.41596
497.4852, 37.33834
497.9673, 37.59437
498.4495, 38.02755
498.9316, 38.14508
499.4137, 37.85232
499.8958, 37.62021
500.3779, 37.82858
500.8600, 38.24044
501.3422, 38.33130
501.8243, 37.88039
502.3064, 37.53388
502.7885, 37.73014
503.2706, 38.21789
503.7527, 38.54625
504.2349, 38.61641
504.7170, 38.58707
505.1991, 38.59733
505.6812, 38.64884
506.1633, 38.75346
506.6454, 39.01326
507.1276, 39.20767
507.6097, 39.16888
508.0918, 39.03731
508.5739, 39.06794
509.0560, 39.34812
509.5381, 39.68202
510.0203, 39.68999
510.5024, 39.12086
510.9845, 39.08999
511.4666, 40.22299
511.9487, 41.27523
512.4308, 41.68097
512.9130, 41.65730
513.3951, 41.71309
513.8772, 42.14013
514.3593, 42.66842
514.8414, 42.73280
515.3235, 42.25021
515.8057, 41.94218
516.2878, 42.04724
516.7699, 42.31069
517.2520, 42.53170
517.7341, 42.71136
518.2162, 42.88089
518.6984, 43.11406
519.1805, 43.31023
519.6626, 43.30017
520.1447, 43.09735
520.6268, 42.91188
521.1089, 42.85058
521.5911, 42.85804
522.0732, 42.78722
522.5553, 42.55377
523.0374, 42.49060
523.5195, 42.84969
524.0016, 43.26484
524.4838, 43.42254
524.9659, 43.31108
525.4480, 43.06043
525.9301, 42.74768
526.4122, 42.39705
526.8943, 42.13003
527.3765, 42.04191
527.8586, 41.90569
528.3407, 41.69817
528.8228, 41.44030
529.3049, 41.08040
529.7870, 40.65757
530.2692, 40.35585
530.7513, 40.36954
531.2334, 40.64735
531.7155, 40.90200
532.1976, 41.15789
532.6797, 41.33121
533.1619, 41.35817
533.6440, 41.29690
534.1261, 41.17878
534.6082, 40.99805
535.0903, 40.84327
535.5724, 40.83324
536.0546, 40.87764
536.5367, 40.75917
537.0188, 40.44169
537.5009, 40.08533
537.9830, 39.75980
538.4651, 39.49824
538.9473, 39.45500
539.4294, 39.91811
539.9115, 40.21667
540.3936, 39.97461
540.8757, 39.55497
541.3578, 39.44603
541.8400, 39.72095
542.3221, 40.06550
542.8042, 40.16573
543.2863, 40.01907
543.7684, 39.78436
544.2505, 39.24320
544.7326, 38.88499
545.2147, 38.89923
545.6968, 39.09395
546.1790, 39.27826
546.6611, 39.39833
547.1432, 39.48232
547.6253, 39.57361
548.1074, 39.66524
548.5895, 39.65171
549.0717, 39.46696
549.5538, 39.31099
550.0359, 39.40068
550.5180, 39.57055
551.0001, 39.54770
551.4822, 39.21209
551.9644, 38.86706
552.4465, 38.66033
552.9286, 38.58646
553.4107, 38.70675
553.8928, 39.03953
554.3749, 39.27618
554.8571, 39.07439
555.3392, 38.45522
555.8213, 38.23540
556.3034, 38.90298
556.7855, 39.31464
557.2676, 38.92091
557.7498, 38.23544
558.2319, 37.88774
558.7140, 38.01272
559.1961, 38.30070
559.6782, 38.42078
560.1603, 38.37060
560.6425, 38.33532
561.1246, 38.37507
561.6067, 38.33736
562.0888, 38.08252
562.5709, 37.78066
563.0530, 37.62972
563.5352, 37.67986
564.0173, 37.80876
564.4994, 37.91777
564.9815, 38.02205
565.4636, 38.20673
565.9457, 38.51307
566.4279, 38.72446
566.9100, 38.66469
567.3921, 38.39444
567.8742, 38.15268
568.3563, 37.86950
568.8384, 37.72913
569.3206, 37.91352
569.8027, 38.21471
570.2848, 38.36130
570.7669, 38.32553
571.2490, 38.27209
571.7311, 38.33506
572.2133, 38.51225
572.6954, 38.78323
573.1775, 39.34776
573.6596, 39.72615
574.1417, 39.78822
574.6238, 39.69663
575.1060, 39.51336
575.5881, 39.29176
576.0702, 39.19257
576.5523, 39.38226
577.0344, 39.79819
577.5165, 40.25575
577.9987, 40.80348
578.4808, 41.17135
578.9629, 41.14080
579.4450, 40.92764
579.9271, 40.84431
580.4092, 40.91412
580.8914, 40.98035
581.3735, 40.92110
581.8556, 40.86769
582.3377, 41.03353
582.8198, 41.37893
583.3019, 41.61274
583.7841, 41.55017
584.2662, 41.30510
584.7483, 41.18911
585.2304, 41.24464
585.7125, 41.37078
586.1946, 41.71788
586.6768, 41.99940
587.1589, 41.99056
587.6410, 41.76262
588.1231, 41.51495
588.6052, 41.34101
589.0873, 41.28026
589.5695, 41.45761
590.0516, 41.91145
590.5337, 42.34819
591.0158, 42.85176
591.4979, 43.14824
591.9800, 42.82874
592.4622, 42.07957
592.9443, 41.67556
593.4264, 42.11027
593.9085, 42.74377
594.3906, 43.11992
594.8727, 43.27419
595.3549, 43.25344
595.8370, 43.05776
596.3191, 42.86452
596.8012, 42.88972
597.2833, 43.15503
597.7654, 43.49953
598.2476, 44.11724
598.7297, 44.57907
599.2118, 44.76806
599.6939, 44.71956
600.1760, 44.35962
600.6581, 43.71335
601.1403, 43.18349
601.6224, 43.34952
602.1045, 44.17107
602.5866, 44.66970
603.0687, 44.74097
603.5508, 44.71238
604.0330, 44.64680
604.5151, 44.61290
604.9972, 44.72012
605.4793, 45.00628
605.9614, 45.30510
606.4435, 45.55735
606.9257, 45.76260
607.4078, 45.90418
607.8899, 45.98775
608.3720, 46.08791
608.8541, 46.28075
609.3362, 46.47370
609.8184, 46.35915
610.3005, 45.41802
610.7826, 44.95898
611.2647, 45.31459
611.7468, 45.84210
612.2289, 46.21193
612.7111, 46.39769
613.1932, 46.43155
613.6753, 46.28829
614.1574, 46.14209
614.6395, 46.38061
615.1216, 47.04237
615.6038, 47.59510
616.0859, 47.94529
616.5680, 48.15850
617.0501, 48.18079
617.5322, 48.09639
618.0143, 48.21214
618.4965, 48.82670
618.9786, 49.39134
619.4607, 49.44865
619.9428, 49.25728
620.4249, 49.28589
620.9070, 49.64877
621.3892, 50.22376
621.8713, 50.93040
622.3534, 51.76588
622.8355, 52.32325
623.3176, 52.22464
623.7997, 52.33415
624.2819, 52.89834
624.7640, 53.64072
625.2461, 54.34954
625.7282, 54.97632
626.2103, 55.53733
626.6924, 56.00906
627.1745, 56.43318
627.6566, 56.91052
628.1387, 57.44447
628.6208, 57.99047
629.1030, 58.50427
629.5851, 59.05779
630.0672, 59.82472
630.5493, 60.82219
631.0314, 61.66951
631.5135, 62.20113
631.9957, 62.67426
632.4778, 63.15049
632.9599, 63.71235
633.4420, 64.43329
633.9241, 65.34917
634.4063, 66.67545
634.8884, 69.11105
635.3705, 72.47961
635.8526, 72.86856
636.3347, 72.91685
636.8168, 72.64284
637.2990, 71.08085
637.7811, 71.18190
638.2632, 73.04634
638.7453, 73.06491
639.2274, 72.40612
639.7095, 71.64902
640.1917, 70.84812
640.6738, 70.11082
641.1559, 69.44190
641.6380, 68.69426
642.1201, 67.73608
642.6022, 66.74594
643.0844, 66.16734
643.5665, 66.50878
644.0486, 66.17834
644.5307, 64.46855
645.0128, 62.77657
645.4949, 61.82502
645.9771, 61.48616
646.4592, 61.44625
646.9413, 61.57865
647.4234, 61.70601
647.9055, 61.50672
648.3876, 60.99076
648.8698, 60.85065
649.3519, 61.67462
649.8340, 61.63422
650.3161, 58.78937
650.7982, 54.50199
651.2803, 51.54831
651.7625, 50.44213
652.2446, 49.82383
652.7267, 49.33474
653.2088, 48.96814
653.6909, 48.81266
654.1730, 48.80292
654.6552, 48.66084
655.1373, 48.20741
655.6194, 47.55902
656.1015, 47.00190
656.5836, 46.53848
657.0657, 46.16480
657.5479, 46.09886
658.0300, 45.91076
658.5121, 45.24397
658.9942, 44.34572
659.4763, 43.75246
659.9584, 43.71975
660.4406, 43.76330
660.9227, 43.42813
661.4048, 42.83570
661.8869, 42.27867
662.3690, 41.80042
662.8511, 41.38376
663.3333, 41.03363
663.8154, 40.72274
664.2975, 40.34031
664.7796, 39.82449
665.2617, 39.32308
665.7438, 38.80266
666.2260, 38.32679
666.7081, 37.95615
667.1902, 37.66606
667.6723, 37.38557
668.1544, 37.07394
668.6365, 36.76512
669.1187, 36.57666
669.6008, 36.49336
670.0829, 36.10972
670.5650, 35.25315
671.0471, 34.40104
671.5292, 33.87668
672.0114, 33.65060
672.4935, 33.58558
672.9756, 33.82846
673.4577, 33.97133
673.9398, 33.86505
674.4219, 33.62357
674.9041, 33.27763
675.3862, 32.89107
675.8683, 32.65794
676.3504, 32.72206
676.8325, 32.88327
677.3146, 32.60117
677.7968, 31.73502
678.2789, 31.11176
678.7610, 30.88262
679.2431, 30.82647
679.7252, 30.84585
680.2073, 30.92349
680.6895, 31.05475
681.1716, 31.32994
681.6537, 31.43341
682.1358, 31.05803
682.6179, 30.46062
683.1000, 29.95008
683.5822, 29.58406
684.0643, 29.40379
684.5464, 29.45599
685.0285, 29.65228
685.5106, 29.72541
685.9927, 29.55623
686.4749, 29.54369
686.9570, 29.89804
687.4391, 30.21631
687.9212, 30.28452
688.4033, 30.20053
688.8854, 30.16605
689.3676, 30.26112
689.8497, 30.34183
690.3318, 30.23509
690.8139, 30.03925
691.2960, 29.96251
691.7781, 30.02603
692.2603, 30.15549
692.7424, 30.29768
693.2245, 30.49244
693.7066, 30.86701
694.1887, 31.67945
694.6708, 32.14083
695.1530, 31.95513
695.6351, 31.74830
696.1172, 31.84438
696.5993, 32.12227
697.0814, 32.33639
697.5635, 32.39851
698.0457, 32.43235
698.5278, 32.59359
699.0099, 32.82666
699.4920, 32.94154
699.9741, 32.91884
700.4562, 32.85795
700.9384, 32.76841
701.4205, 32.72714
701.9026, 32.92105
702.3847, 33.49676
702.8668, 33.91096
703.3489, 34.08269
703.8311, 34.16912
704.3132, 34.30255
704.7953, 34.38343
705.2774, 34.13372
705.7595, 33.50125
706.2416, 32.99348
706.7238, 33.35093
707.2059, 34.32350
707.6880, 34.75112
708.1701, 34.54843
708.6522, 34.32423
709.1343, 34.34320
709.6164, 34.45624
710.0985, 34.42540
710.5806, 34.23001
711.0627, 34.05262
711.5449, 33.89067
712.0270, 33.76370
712.5091, 33.66492
712.9912, 33.61412
713.4733, 33.68987
713.9554, 33.88291
714.4376, 34.00646
714.9197, 33.85513
715.4018, 33.50009
715.8839, 33.17396
716.3660, 32.85463
716.8481, 32.75848
717.3303, 33.05326
717.8124, 33.46346
718.2945, 33.77633
718.7766, 33.98031
719.2587, 33.79252
719.7408, 32.61766
720.2230, 31.72055
720.7051, 31.84822
721.1872, 32.37969
721.6693, 32.56480
722.1514, 32.33007
722.6335, 32.09962
723.1157, 32.21207
723.5978, 32.52222
724.0799, 32.65641
724.5620, 32.60985
725.0441, 32.43983
725.5262, 32.13689
726.0084, 31.74469
726.4905, 31.16393
726.9726, 30.51003
727.4547, 30.25914
727.9368, 30.73352
728.4189, 31.14327
728.9011, 31.28610
729.3832, 31.23885
729.8653, 30.97358
730.3474, 30.57739
730.8295, 30.27205
731.3116, 30.18330
731.7938, 30.22044
732.2759, 30.21325
732.7580, 30.15966
733.2401, 30.26513
733.7222, 30.66559
734.2043, 30.90232
734.6865, 30.58088
735.1686, 29.97093
735.6507, 29.69541
736.1328, 29.88893
736.6149, 29.95200
737.0970, 29.62191
737.5792, 29.25376
738.0613, 29.08556
738.5434, 29.06734
739.0255, 29.07288
739.5076, 29.05618
739.9897, 29.04406
740.4719, 29.09382
740.9540, 29.18498
741.4361, 29.16879
741.9182, 29.03803
742.4003, 28.82464
742.8824, 28.48163
743.3646, 28.12818
743.8467, 27.91185
744.3288, 27.82861
744.8109, 27.85975
745.2930, 28.21593
745.7751, 28.43888
746.2573, 28.19755
746.7394, 27.80361
747.2215, 27.67675
747.7036, 27.83235
748.1857, 27.91397
748.6678, 27.59272
749.1500, 27.12322
749.6321, 27.19184
750.1142, 27.79800
750.5963, 28.05123
751.0784, 27.69946
751.5605, 27.18281
752.0427, 26.78134
752.5248, 26.50950
753.0069, 26.43233
753.4890, 26.72607
753.9711, 26.92287
754.4532, 26.89261
754.9354, 26.80993
755.4175, 26.81900
755.8996, 26.87597
756.3817, 26.83416
756.8638, 26.62379
757.3459, 26.41210
757.8281, 26.42169
758.3102, 26.59755
758.7923, 26.77669
759.2744, 26.95770
759.7565, 26.91383
760.2386, 26.43712
760.7208, 25.85863
761.2029, 25.78267
761.6850, 26.39121
762.1671, 26.76174
762.6492, 26.85612
763.1313, 26.77695
763.6135, 26.37749
764.0956, 25.92829
764.5777, 25.76318
765.0598, 25.89539
765.5419, 26.00077
766.0240, 25.77184
766.5062, 25.48464
766.9883, 25.58468
767.4704, 25.98315
767.9525, 26.34754
768.4346, 26.60413
768.9167, 26.66372
769.3989, 26.40186
769.8810, 25.89545
770.3631, 25.63140
770.8452, 25.74155
771.3273, 25.85593
771.8094, 25.98127
772.2916, 26.07238
772.7737, 26.07592
773.2558, 26.03161
773.7379, 26.03276
774.2200, 26.12427
774.7021, 26.18089
775.1843, 26.07548
775.6664, 25.91273
776.1485, 25.84919
776.6306, 25.86961
777.1127, 25.83727
777.5948, 25.68784
778.0770, 25.56369
778.5591, 25.72805
779.0412, 26.20893
779.5233, 26.36180
780.0054, 26.01977
780.4875, 25.69832
780.9697, 25.54739
781.4518, 25.50573
781.9339, 25.55718
782.4160, 25.68695
782.8981, 25.74097
783.3802, 25.63168
783.8624, 25.49638
784.3445, 25.30438
784.8266, 25.18166
785.3087, 25.37291
785.7908, 25.83102
786.2729, 26.24717
786.7551, 26.43802
787.2372, 26.38292
787.7193, 25.88501
788.2014, 24.95568
788.6835, 24.50782
789.1656, 24.75606
789.6478, 25.08066
790.1299, 25.10383
790.6120, 24.95348
791.0941, 24.94571
791.5762, 25.15311
792.0583, 25.27768
792.5404, 25.28048
793.0225, 25.22260
793.5046, 25.11259
793.9868, 24.96921
794.4689, 24.77950
794.9510, 24.55792
795.4331, 24.41608
795.9152, 24.46780
796.3973, 24.62987
796.8795, 24.79177
797.3616, 24.94634
797.8437, 25.02729
798.3258, 25.01337
798.8079, 25.06107
799.2900, 25.34957
799.7722, 25.79249
800.2543, 25.88079
800.7364, 25.37514
801.2185, 25.00514
801.7006, 24.87501
802.1827, 24.84501
802.6649, 24.89933
803.1470, 24.99890
803.6291, 25.07381
804.1112, 25.10198
804.5933, 25.15002
805.0754, 25.33351
805.5576, 25.48702
806.0397, 25.38333
806.5218, 25.11957
807.0039, 24.94718
807.4860, 24.95111
807.9681, 25.02968
808.4503, 25.09125
808.9324, 25.12522
809.4145, 25.05658
809.8966, 24.86578
810.3787, 24.68741
810.8608, 24.54346
811.3430, 24.43977
811.8251, 24.35505
812.3072, 24.30986
812.7893, 24.42859
813.2714, 25.05764
813.7535, 25.33196
814.2357, 24.77097
814.7178, 24.14706
815.1999, 24.00659
815.6820, 24.21802
816.1641, 24.44916
816.6462, 24.58602
817.1284, 24.65211
817.6105, 24.61041
818.0926, 24.53530
818.5747, 24.65922
819.0568, 24.92413
819.5389, 24.88274
820.0211, 24.36042
820.5032, 23.76705
820.9853, 23.57800
821.4674, 23.76717
821.9495, 23.94058
822.4316, 24.12359
822.9138, 24.23718
823.3959, 24.22931
823.8780, 24.18421
824.3601, 24.09927
824.8422, 24.02446
825.3243, 24.11928
825.8065, 24.54609
826.2886, 24.80794
826.7707, 24.56991
827.2528, 24.20935
827.7349, 23.98385
828.2170, 23.92507
828.6992, 24.12254
829.1813, 24.57864
829.6634, 24.91426
830.1455, 24.59469
830.6276, 23.85560
831.1097, 23.51325
831.5919, 23.56297
832.0740, 23.65355
832.5561, 23.68719
833.0382, 23.74060
833.5203, 23.91481
834.0024, 24.17557
834.4846, 24.26137
834.9667, 23.99079
835.4488, 23.84147
835.9309, 23.90483
836.4130, 24.01594
836.8951, 24.12247
837.3773, 24.20723
837.8594, 24.24265
838.3415, 24.21697
838.8236, 24.19214
839.3057, 24.23080
839.7878, 24.25919
840.2700, 24.15384
840.7521, 23.99368
841.2342, 23.98553
841.7163, 24.16409
842.1984, 24.33370
842.6805, 24.31383
843.1627, 24.15160
843.6448, 23.96256
844.1269, 23.74530
844.6090, 23.58179
845.0911, 23.47895
845.5732, 23.46640
846.0554, 23.59363
846.5375, 23.80834
847.0196, 23.96400
847.5017, 24.06229
847.9838, 24.09155
848.4659, 23.96660
848.9481, 23.87369
849.4302, 23.96309
849.9123, 24.07743
850.3944, 23.99372
850.8765, 23.70263
851.3586, 23.44461
851.8408, 23.35449
852.3229, 23.33062
852.8050, 23.30849
853.2871, 23.28295
853.7692, 23.21673
854.2513, 23.12688
854.7335, 23.11431
855.2156, 23.24588
855.6977, 23.46731
856.1798, 23.74284
856.6619, 24.06318
857.1440, 24.05182
857.6262, 23.61561
858.1083, 23.24043
858.5904, 23.13600
859.0725, 23.20032
859.5546, 23.31478
860.0367, 23.48773
860.5189, 23.61053
861.0010, 23.82392
861.4831, 23.79796
861.9652, 23.22219
862.4473, 22.61203
862.9294, 22.34493
863.4116, 22.37249
863.8937, 22.50222
864.3758, 22.72849
864.8579, 22.86386
865.3400, 22.65638
865.8221, 22.39546
866.3043, 22.43706
866.7864, 22.70945
867.2685, 23.00531
867.7506, 23.23967
868.2327, 23.34383
868.7148, 23.19711
869.1970, 22.89487
869.6791, 22.79816
870.1612, 22.90714
870.6433, 22.83043
871.1254, 22.42600
871.6075, 22.12001
872.0897, 22.28351
872.5718, 22.75347
873.0539, 23.00327
873.5360, 22.96411
874.0181, 22.86221
874.5002, 22.63660
874.9823, 22.41902
875.4644, 22.13447
875.9465, 21.95139
876.4286, 22.18172
876.9108, 22.80752
877.3929, 23.17032
877.8750, 22.76114
878.3571, 22.36278
878.8392, 22.51705
879.3214, 22.85351
879.8035, 22.89162
880.2856, 22.66750
880.7677, 22.52981
881.2498, 22.65928
881.7319, 22.85871
882.2141, 22.90672
882.6962, 22.82355
883.1783, 22.61316
883.6604, 22.29868
884.1425, 22.10916
884.6246, 22.12896
885.1068, 22.29361
885.5889, 22.58216
886.0710, 22.93923
886.5531, 22.86535
887.0352, 22.11784
887.5173, 21.65160
887.9995, 21.67661
888.4816, 21.87850
888.9637, 22.21976
889.4458, 22.55758
889.9279, 22.56603
890.4100, 22.13053
890.8922, 21.81676
891.3743, 21.69926
891.8564, 21.72432
892.3385, 22.02131
892.8206, 22.35084
893.3027, 22.44603
893.7849, 22.29703
894.2670, 22.03129
894.7491, 21.61507
895.2312, 21.31730
895.7133, 21.58612
896.1954, 22.03723
896.6776, 21.95894
897.1597, 21.42542
897.6418, 20.97587
898.1239, 20.84566
898.6060, 20.93859
899.0881, 21.21517
899.5703, 21.60311
900.0524, 21.66133
900.5345, 21.36544
901.0166, 21.25002
901.4987, 21.49390
901.9808, 21.71131
902.4630, 21.53465
902.9451, 21.13395
903.4272, 21.13589
903.9093, 21.86603
904.3914, 22.24132
904.8735, 22.06627
905.3557, 21.77412
905.8378, 21.37775
906.3199, 21.03193
906.8020, 20.95018
907.2841, 21.12451
907.7662, 21.26005
908.2484, 21.27795
908.7305, 21.25574
909.2126, 21.21154
909.6947, 21.15069
910.1768, 21.05803
910.6589, 20.95573
911.1411, 20.87125
911.6232, 20.81295
912.1053, 20.85993
912.5874, 21.17401
913.0695, 21.57757
913.5516, 21.80412
914.0338, 21.87959
914.5159, 21.93348
914.9980, 21.98423
915.4801, 21.85023
915.9622, 21.33408
916.4443, 20.71677
916.9265, 20.77226
917.4086, 21.49775
917.8907, 21.87183
918.3728, 21.76717
918.8549, 21.65091
919.3370, 21.75351
919.8192, 21.89592
920.3013, 21.80756
920.7834, 21.47823
921.2655, 21.32112
921.7476, 21.43793
922.2297, 21.55130
922.7119, 21.62934
923.1940, 21.68807
923.6761, 21.71899
924.1582, 21.74106
924.6403, 21.80693
925.1224, 21.94773
925.6046, 22.01112
926.0867, 21.88823
926.5688, 21.75904
927.0509, 21.74980
927.5330, 21.76767
928.0151, 21.68005
928.4973, 21.49827
928.9794, 21.35318
929.4615, 21.32498
929.9436, 21.30748
930.4257, 21.15037
930.9078, 20.97974
931.3900, 20.99213
931.8721, 21.16338
932.3542, 21.37072
932.8363, 21.57184
933.3184, 21.82504
933.8005, 22.24981
934.2827, 22.69822
934.7648, 22.72310
935.2469, 22.36674
935.7290, 22.00100
936.2111, 21.68082
936.6932, 21.46454
937.1754, 21.39080
937.6575, 21.42784
938.1396, 21.51885
938.6217, 21.66301
939.1038, 21.89214
939.5859, 22.27145
940.0681, 22.56577
940.5502, 22.72970
941.0323, 22.77260
941.5144, 22.65068
941.9965, 22.41304
942.4786, 22.27189
942.9608, 22.29517
943.4429, 22.26906
943.9250, 22.12237
944.4071, 21.99883
944.8892, 21.97998
945.3713, 21.99964
945.8535, 21.97802
946.3356, 21.91442
946.8177, 21.86619
947.2998, 21.82785
947.7819, 21.84478
948.2640, 22.01081
948.7462, 22.18154
949.2283, 22.15506
949.7104, 22.04176
950.1925, 22.12342
950.6746, 22.46919
951.1567, 22.80462
951.6389, 22.91989
952.1210, 22.90765
952.6031, 22.82967
953.0852, 22.73380
953.5673, 22.77272
954.0494, 22.92538
954.5316, 22.95773
955.0137, 22.73940
955.4958, 22.44105
955.9779, 22.31199
956.4600, 22.31884
956.9421, 22.30932
957.4242, 22.28207
957.9063, 22.18172
958.3884, 21.97826
958.8705, 21.88523
959.3527, 22.09539
959.8348, 22.50100
960.3169, 22.78646
960.7990, 22.93643
961.2811, 23.05993
961.7632, 23.18214
962.2454, 23.19897
962.7275, 22.99254
963.2096, 22.78163
963.6917, 22.86664
964.1738, 23.20046
964.6559, 23.24962
965.1381, 22.73028
965.6202, 22.38599
966.1023, 22.27031
966.5844, 22.29227
967.0665, 22.45672
967.5486, 22.71216
968.0308, 23.01666
968.5129, 23.36495
968.9950, 23.66340
969.4771, 23.97926
969.9592, 24.12714
970.4413, 24.01051
970.9235, 23.73101
971.4056, 23.19027
971.8877, 22.60451
972.3698, 22.42019
972.8519, 22.75846
973.3340, 23.11685
973.8162, 23.23600
974.2983, 23.23581
974.7804, 23.16339
975.2625, 23.06144
975.7446, 23.01101
976.2267, 22.98993
976.7089, 22.85418
977.1910, 22.52584
977.6731, 22.27322
978.1552, 22.51524
978.6373, 22.93540
979.1194, 22.90925
979.6016, 22.58344
980.0837, 22.44256
980.5658, 22.58639
981.0479, 22.89341
981.5300, 23.30741
982.0121, 23.66482
982.4943, 23.59251
982.9764, 23.18268
983.4585, 22.96741
983.9406, 22.95912
984.4227, 22.92424
984.9048, 22.78035
985.3870, 22.73586
985.8691, 23.01753
986.3512, 23.47715
986.8333, 23.58586
987.3154, 23.27909
987.7975, 23.17287
988.2797, 23.35092
988.7618, 23.51456
989.2439, 23.53566
989.7260, 23.51680
990.2081, 23.58267
990.6902, 23.71967
991.1724, 23.79871
991.6545, 23.80271
992.1366, 23.78586
992.6187, 23.71947
993.1008, 23.68216
993.5829, 23.74329
994.0651, 23.83005
994.5472, 23.78424
995.0293, 23.59937
995.5114, 23.67968
995.9935, 23.91240
996.4756, 24.22332
996.9578, 24.39520
997.4399, 24.43554
997.9220, 23.95031
998.4041, 24.14374
998.8862, 24.06520
999.3683, 23.97550
999.8505, 24.26445
1000.333, 23.85566
1000.815, 24.13860
1001.297, 24.14542
1001.779, 24.16157
1002.261, 24.28137
1002.743, 24.29239
1003.225, 24.24262
1003.707, 24.14284
1004.190, 24.07393
1004.672, 24.01382
1005.154, 23.94877
1005.636, 24.15173
1006.118, 24.29150
1006.600, 24.37147
1007.082, 24.21255
1007.564, 24.36211
1008.046, 24.38804
1008.529, 24.40903
1009.011, 24.60200
1009.493, 24.47782
1009.975, 24.54200
1010.457, 24.34445
1010.939, 24.36189
1011.421, 24.57329
1011.903, 24.65473
1012.385, 24.44454
1012.868, 24.18590
1013.350, 24.20273
1013.832, 24.31939
1014.314, 24.17878
1014.796, 23.85792
1015.278, 23.56357
1015.760, 23.34849
1016.242, 23.25662
1016.725, 23.31802
1017.207, 23.45447
1017.689, 23.62144
1018.171, 23.76108
1018.653, 23.57052
1019.135, 23.11735
1019.617, 22.89188
1020.099, 22.99778
1020.581, 23.20315
1021.064, 23.36604
1021.546, 23.44065
1022.028, 23.26793
1022.510, 22.88745
1022.992, 22.79894
1023.474, 23.01021
1023.956, 23.26223
1024.438, 23.51616
1024.921, 23.50101
1025.403, 22.95792
1025.885, 22.15970
1026.367, 21.74199
1026.849, 21.72165
1027.331, 21.88074
1027.813, 22.27803
1028.295, 22.49463
1028.777, 22.35937
1029.260, 22.23313
1029.742, 22.45195
1030.224, 22.83651
1030.706, 22.85942
1031.188, 22.44559
1031.670, 22.04676
1032.152, 21.59019
1032.634, 21.37073
1033.116, 21.53899
1033.599, 21.85499
1034.081, 22.21103
1034.563, 22.50626
1035.045, 22.37586
1035.527, 21.57609
1036.009, 21.21566
1036.491, 21.53313
1036.973, 21.84081
1037.456, 22.01373
1037.938, 22.02464
1038.420, 21.70101
1038.902, 21.22347
1039.384, 21.24786
1039.866, 22.08762
1040.348, 22.54461
1040.830, 22.35196
1041.313, 22.15677
1041.795, 22.15243
1042.277, 22.18058
1042.759, 22.05387
1043.241, 21.85900
1043.723, 21.89114
1044.205, 22.28233
1044.687, 22.54050
1045.169, 22.53155
1045.651, 22.53705
1046.134, 22.67541
1046.616, 22.82253
1047.098, 22.84952
1047.580, 22.80364
1048.062, 22.84275
1048.544, 23.02501
1049.026, 23.13429
1049.508, 23.06469
1049.991, 23.01857
1050.473, 22.97329
1050.955, 23.05708
1051.437, 23.54432
1051.919, 24.22176
1052.401, 24.50368
1052.883, 24.21941
1053.365, 23.94086
1053.848, 23.67585
1054.330, 23.58010
1054.812, 23.90802
1055.294, 24.26010
1055.776, 24.18299
1056.258, 23.87283
1056.740, 23.92742
1057.222, 24.55195
1057.704, 24.86596
1058.187, 24.30708
1058.669, 23.79022
1059.151, 23.78523
1059.633, 23.91580
1060.115, 23.80772
1060.597, 23.57097
1061.079, 23.53535
1061.561, 23.78756
1062.043, 23.98450
1062.526, 24.08827
1063.008, 24.01169
1063.490, 23.59365
1063.972, 23.08707
1064.454, 22.61873
1064.936, 22.26802
1065.418, 22.19008
1065.900, 22.41909
1066.383, 22.61602
1066.865, 22.69758
1067.347, 22.65624
1067.829, 22.35367
1068.311, 22.04923
1068.793, 21.96058
1069.275, 22.04282
1069.757, 22.27863
1070.240, 22.63750
1070.722, 22.66088
1071.204, 21.80303
1071.686, 21.03331
1072.168, 20.75351
1072.650, 20.79224
1073.132, 21.22491
1073.614, 21.77233
1074.096, 21.96204
1074.578, 21.74816
1075.061, 21.56649
1075.543, 21.69269
1076.025, 21.73005
1076.507, 21.42032
1076.989, 21.01384
1077.471, 20.67042
1077.953, 20.38215
1078.435, 20.10024
1078.918, 19.82789
1079.400, 19.63766
1079.882, 19.58203
1080.364, 19.55713
1080.846, 19.50303
1081.328, 19.47181
1081.810, 19.53381
1082.292, 19.62255
1082.774, 19.63174
1083.257, 19.57146
1083.739, 19.55239
1084.221, 19.62006
1084.703, 19.70747
1085.185, 19.82368
1085.667, 19.90535
1086.149, 19.95437
1086.631, 19.91464
1087.114, 19.64480
1087.596, 19.22841
1088.078, 18.95018
1088.560, 18.90063
1089.042, 18.94848
1089.524, 19.09766
1090.006, 19.25888
1090.488, 19.45008
1090.970, 19.57215
1091.453, 19.43218
1091.935, 19.15762
1092.417, 19.11764
1092.899, 19.42888
1093.381, 19.62231
1093.863, 19.41107
1094.345, 19.18976
1094.827, 19.13158
1095.309, 19.14784
1095.792, 19.17767
1096.274, 19.21466
1096.756, 19.26924
1097.238, 19.34267
1097.720, 19.39184
1098.202, 19.47423
1098.684, 19.43201
1099.166, 19.02155
1099.649, 18.66410
1100.131, 18.72693
1100.613, 18.99226
1101.095, 19.12632
1101.577, 19.09894
1102.059, 19.05425
1102.541, 18.99539
1103.023, 18.97263
1103.505, 19.04882
1103.988, 19.10516
1104.470, 19.04122
1104.952, 18.94838
1105.434, 18.95634
1105.916, 19.04225
1106.398, 19.04890
1106.880, 18.89881
1107.362, 18.79812
1107.844, 18.75933
1108.327, 18.79934
1108.809, 18.97562
1109.291, 19.19013
1109.773, 19.42182
1110.255, 19.61355
1110.737, 19.59336
1111.219, 19.28835
1111.701, 19.01135
1112.184, 18.75418
1112.666, 18.57045
1113.148, 18.43432
1113.630, 18.41195
1114.112, 18.68772
1114.594, 19.05121
1115.076, 19.07355
1115.558, 18.70576
1116.041, 18.48982
1116.523, 18.53470
1117.005, 18.54191
1117.487, 18.36674
1117.969, 18.32138
1118.451, 18.70975
1118.933, 19.15818
1119.415, 19.13259
1119.897, 18.69036
1120.380, 18.46746
1120.862, 18.49782
1121.344, 18.69766
1121.826, 19.26073
1122.308, 19.55160
1122.790, 19.22914
1123.272, 18.75971
1123.754, 18.57894
1124.236, 18.60633
1124.719, 18.55634
1125.201, 18.38429
1125.683, 18.39695
1126.165, 18.67079
1126.647, 18.83136
1127.129, 18.77280
1127.611, 18.63529
1128.093, 18.50119
1128.576, 18.38076
1129.058, 18.31265
1129.540, 18.28850
1130.022, 18.01557
1130.504, 17.43511
1130.986, 17.42021
1131.468, 18.16858
1131.950, 18.78052
1132.432, 18.82334
1132.915, 18.52287
1133.397, 18.10479
1133.879, 17.63051
1134.361, 17.30410
1134.843, 17.12348
1135.325, 17.10745
1135.807, 17.25175
1136.289, 17.51805
1136.771, 17.88837
1137.254, 18.11865
1137.736, 17.99389
1138.218, 17.69607
1138.700, 17.52393
1139.182, 17.46077
1139.664, 17.47381
1140.146, 17.54496
1140.628, 17.62143
1141.111, 17.68441
1141.593, 17.70725
1142.075, 17.67676
1142.557, 17.39664
1143.039, 17.54640
1143.521, 17.63297
1144.003, 17.65975
1144.485, 17.44763
1144.968, 17.54400
1145.450, 17.51674
1145.932, 17.48441
1146.414, 17.62419
1146.896, 17.44682
1147.378, 17.58387
1147.860, 17.59541
1148.342, 17.66439
1148.824, 17.43740
1149.307, 17.45647
1149.789, 17.58099
1150.271, 17.62069
1150.753, 17.54051
1151.235, 17.34130
1151.717, 16.96691
1152.199, 16.74982
1152.681, 17.06176
1153.163, 17.38046
1153.646, 17.26530
1154.128, 17.05733
1154.610, 17.17797
1155.092, 17.49656
1155.574, 17.65346
1156.056, 17.57928
1156.538, 17.39833
1157.020, 16.91497
1157.503, 16.66278
1157.985, 17.00813
1158.467, 17.39158
1158.949, 17.52534
1159.431, 17.47175
1159.913, 17.27336
1160.395, 16.95950
1160.877, 16.72248
1161.359, 16.47356
1161.842, 16.50533
1162.324, 16.95941
1162.806, 17.27487
1163.288, 17.45131
1163.770, 17.49620
1164.252, 17.01553
1164.734, 17.21351
1165.216, 16.67992
1165.698, 16.86249
1166.181, 16.98194
1166.663, 17.04151
1167.145, 16.86218
1167.627, 17.39789
1168.109, 17.35659
1168.591, 17.23482
1169.073, 17.14483
1169.555, 17.23062
1170.037, 17.43539
1170.520, 17.56799
1171.002, 17.62681
1171.484, 17.49438
1171.966, 17.17605
1172.448, 17.08684
1172.930, 17.33304
1173.412, 17.59072
1173.894, 17.64490
1174.377, 17.57767
1174.859, 17.51221
1175.341, 17.42068
1175.823, 17.14535
1176.305, 16.79317
1176.787, 16.72378
1177.269, 16.91905
1177.751, 17.17401
1178.234, 17.38225
1178.716, 17.57335
1179.198, 17.72325
1179.680, 17.80996
1180.162, 17.83686
1180.644, 17.62488
1181.126, 17.72137
1181.608, 17.69424
1182.090, 17.66204
1182.573, 17.80197
1183.055, 17.62473
1183.537, 17.03392
1184.019, 16.81186
1184.501, 16.77767
1184.983, 16.89528
1185.465, 17.33068
1185.947, 17.73323
1186.429, 17.72479
1186.912, 17.50227
1187.394, 17.49353
1187.876, 17.72525
1188.358, 17.73986
1188.840, 17.13348
1189.322, 16.83572
1189.804, 17.24728
1190.286, 17.57756
1190.769, 17.46589
1191.251, 17.26281
1191.733, 17.27919
1192.215, 17.41854
1192.697, 17.42444
1193.179, 17.27885
1193.661, 17.14397
1194.143, 16.99386
1194.625, 16.96872
1195.108, 17.11993
1195.590, 17.27794
1196.072, 17.37403
1196.554, 17.36878
1197.036, 17.16645
1197.518, 16.91993
1198.000, 17.27242
1198.482, 18.09787
1198.964, 18.14806
1199.447, 17.48156
1199.929, 17.03646
1200.411, 17.01700
1200.893, 17.11180
1201.375, 17.14416
1201.857, 17.15211
1202.339, 17.18330
1202.821, 17.21526
1203.304, 17.18493
1203.786, 17.14393
1204.268, 17.20519
1204.750, 17.33333
1205.232, 17.39023
1205.714, 17.36729
1206.196, 17.46078
1206.678, 17.86419
1207.161, 18.10313
1207.643, 17.72313
1208.125, 17.25806
1208.607, 17.02033
1209.089, 16.93884
1209.571, 16.95654
1210.053, 17.04317
1210.535, 17.19074
1211.017, 17.40812
1211.500, 17.46803
1211.982, 17.21059
1212.464, 16.99016
1212.946, 16.80389
1213.428, 16.73098
1213.910, 16.86482
1214.392, 17.04960
1214.874, 17.14328
1215.356, 17.16750
1215.839, 17.17709
1216.321, 17.16034
1216.803, 17.25711
1217.285, 17.49140
1217.767, 17.67922
1218.249, 17.78764
1218.731, 17.88358
1219.213, 18.00848
1219.696, 18.02005
1220.178, 17.72019
1220.660, 17.29740
1221.142, 17.20506
1221.624, 17.35619
1222.106, 17.46892
1222.588, 17.55331
1223.070, 17.77020
1223.552, 18.08320
1224.035, 18.11304
1224.517, 17.68046
1224.999, 17.33001
1225.481, 17.74560
1225.963, 18.19273
1226.445, 17.79899
1226.927, 17.26852
1227.409, 17.40804
1227.891, 17.92625
1228.374, 18.31660
1228.856, 18.49803
1229.338, 18.55424
1229.820, 18.48570
1230.302, 18.35886
1230.784, 18.10570
1231.266, 17.91117
1231.748, 17.81494
1232.231, 17.81890
1232.713, 17.99473
1233.195, 18.20845
1233.677, 18.27008
1234.159, 18.19152
1234.641, 18.03695
1235.123, 17.71051
1235.605, 17.84382
1236.088, 18.57813
1236.570, 18.98137
1237.052, 18.78391
1237.534, 18.49711
1238.016, 18.43332
1238.498, 18.57496
1238.980, 19.00543
1239.462, 19.50734
1239.944, 19.40744
1240.427, 18.91215
1240.909, 18.56860
1241.391, 18.42196
1241.873, 18.46572
1242.355, 18.65720
1242.837, 18.81433
1243.319, 18.83977
1243.801, 18.82462
1244.283, 18.82945
1244.766, 18.83096
1245.248, 18.73746
1245.730, 18.69943
1246.212, 18.98022
1246.694, 19.36771
1247.176, 19.49702
1247.658, 19.33681
1248.140, 19.05321
1248.622, 18.53114
1249.105, 18.18032
1249.587, 18.00610
1250.069, 18.04259
1250.551, 18.40073
1251.033, 18.78982
1251.515, 19.02094
1251.997, 19.20341
1252.479, 19.52239
1252.962, 19.92821
1253.444, 20.14930
1253.926, 20.18683
1254.408, 20.05813
1254.890, 19.76988
1255.372, 19.29365
1255.854, 18.67244
1256.336, 18.43875
1256.818, 18.91001
1257.301, 19.53741
1257.783, 19.78748
1258.265, 19.76908
1258.747, 19.42302
1259.229, 19.05497
1259.711, 19.19601
1260.193, 19.59732
1260.675, 19.75725
1261.157, 19.62630
1261.640, 19.41434
1262.122, 19.15137
1262.604, 18.97975
1263.086, 19.00976
1263.568, 19.04361
1264.050, 18.94541
1264.532, 18.91869
1265.014, 19.16114
1265.497, 19.46387
1265.979, 19.59167
1266.461, 19.57302
1266.943, 19.51300
1267.425, 19.39697
1267.907, 19.37806
1268.389, 19.47695
1268.871, 19.40375
1269.354, 19.10305
1269.836, 18.89281
1270.318, 18.91733
1270.800, 19.09209
1271.282, 19.37014
1271.764, 19.64027
1272.246, 19.71640
1272.728, 19.66617
1273.210, 19.56372
1273.693, 19.45112
1274.175, 19.36993
1274.657, 19.34492
1275.139, 19.50058
1275.621, 19.84684
1276.103, 19.87320
1276.585, 18.93756
1277.067, 18.36231
1277.549, 18.87623
1278.032, 19.47639
1278.514, 19.79367
1278.996, 19.87615
1279.478, 19.70502
1279.960, 19.38949
1280.442, 19.10002
1280.924, 18.84445
1281.406, 18.93152
1281.889, 19.42597
1282.371, 19.79295
1282.853, 20.00017
1283.335, 19.90663
1283.817, 19.47754
1284.299, 19.19238
1284.781, 19.36751
1285.263, 19.67531
1285.745, 19.77962
1286.228, 19.67959
##END=



