##NAMES=Foitite
##RRUFFID=R050356
##IDEAL CHEMISTRY=[box](Fe^2+^_2_Al)Al_6_(Si_6_O_18_)(BO_3_)_3_(OH)_3_OH
##LOCALITY=Fano mine, Cahuilla Mountain, Riverside County, California, USA
##OWNER=RRUFF
##SOURCE=George Rossman
##DESCRIPTION=Black prismatic, elongated and striated fragment
##STATUS=The identification of this mineral has been confirmed by X-ray diffraction and chemical analysis
##URL=rruff.info/R050356
##MEASURED CHEMISTRY=(Na_0.50_[box]_0.50_)_Σ=1_(Fe^2+^_1.94_Al_0.77_Li_0.15_Mn_0.10_Mg_0.04_)_Σ=3.00_Al_6.00_(BO_3_)_3_(Si_5.88_Al_0.12_)_Σ=6_O_18_(OH)_4_ ; B and Li not measured but estimated by charge balance
92.35352, 18.69016
92.83563, 21.76542
93.31775, 23.07649
93.79987, 21.50311
94.28198, 18.01709
94.76410, 15.42905
95.24622, 14.42470
95.72833, 14.47330
96.21045, 14.55866
96.69257, 14.67244
97.17468, 14.94853
97.65680, 15.56655
98.13892, 16.52199
98.62103, 17.49468
99.10315, 18.40408
99.58527, 19.25768
100.0674, 19.93752
100.5495, 20.27304
101.0316, 20.79853
101.5137, 22.25276
101.9958, 24.87394
102.4780, 27.61085
102.9601, 30.04984
103.4422, 32.07133
103.9243, 34.61434
104.4064, 37.92222
104.8885, 41.60976
105.3707, 45.01885
105.8528, 47.75769
106.3349, 50.72852
106.8170, 54.30046
107.2991, 58.99045
107.7813, 63.29470
108.2634, 66.94659
108.7455, 70.19360
109.2276, 73.72963
109.7097, 78.03108
110.1918, 82.30950
110.6740, 86.24461
111.1561, 89.38036
111.6382, 92.67574
112.1203, 96.17558
112.6024, 99.90401
113.0845, 103.8105
113.5667, 107.5435
114.0488, 111.6237
114.5309, 116.4497
115.0130, 122.9678
115.4951, 129.3869
115.9772, 134.9463
116.4594, 139.7208
116.9415, 145.0007
117.4236, 151.8495
117.9057, 159.2687
118.3878, 166.1598
118.8699, 171.4422
119.3521, 176.6735
119.8342, 183.0262
120.3163, 190.6833
120.7984, 198.2046
121.2805, 204.3938
121.7626, 209.8727
122.2448, 215.7046
122.7269, 223.7581
123.2090, 231.7432
123.6911, 237.1319
124.1732, 239.2853
124.6553, 240.4041
125.1375, 242.1002
125.6196, 244.3351
126.1017, 246.9860
126.5838, 250.0424
127.0659, 253.4622
127.5480, 257.1750
128.0302, 261.1883
128.5123, 265.5025
128.9944, 270.4099
129.4765, 275.8212
129.9586, 280.9031
130.4407, 284.6522
130.9229, 287.4482
131.4050, 290.8943
131.8871, 295.3326
132.3692, 300.4697
132.8513, 305.6320
133.3334, 310.3300
133.8156, 313.6646
134.2977, 315.9205
134.7798, 318.1966
135.2619, 320.6991
135.7440, 323.4406
136.2261, 326.4225
136.7083, 330.0936
137.1904, 334.6933
137.6725, 339.2966
138.1546, 343.1563
138.6367, 346.3511
139.1188, 348.5970
139.6010, 349.7725
140.0831, 349.8840
140.5652, 349.4388
141.0473, 348.0855
141.5294, 346.6488
142.0115, 346.3327
142.4937, 347.6510
142.9758, 348.8266
143.4579, 349.2479
143.9400, 348.6605
144.4221, 348.5304
144.9042, 349.0693
145.3864, 349.9171
145.8685, 350.4442
146.3506, 350.4411
146.8327, 350.3969
147.3148, 350.4630
147.7969, 350.6635
148.2791, 350.9149
148.7612, 351.2287
149.2433, 351.5934
149.7254, 351.9859
150.2075, 352.3316
150.6896, 352.7766
151.1718, 353.3681
151.6539, 354.0743
152.1360, 354.9782
152.6181, 356.1804
153.1002, 357.5972
153.5823, 358.9720
154.0645, 360.9574
154.5466, 362.4299
155.0287, 362.8610
155.5108, 361.4487
155.9929, 359.9003
156.4750, 358.1007
156.9572, 356.2382
157.4393, 355.1537
157.9214, 355.5700
158.4035, 356.4666
158.8856, 357.2066
159.3677, 357.7674
159.8499, 358.0466
160.3320, 357.7606
160.8141, 357.0399
161.2962, 356.6703
161.7783, 357.3732
162.2604, 358.3459
162.7426, 358.9265
163.2247, 358.6522
163.7068, 358.1845
164.1889, 357.6689
164.6710, 357.1343
165.1531, 356.8732
165.6353, 357.3445
166.1174, 358.0561
166.5995, 358.4784
167.0816, 358.1611
167.5637, 357.6822
168.0458, 357.3796
168.5280, 357.2599
169.0101, 357.2217
169.4922, 357.3149
169.9743, 357.4265
170.4564, 357.3982
170.9385, 357.0252
171.4207, 356.5682
171.9028, 356.2833
172.3849, 356.1899
172.8670, 356.0875
173.3491, 355.5779
173.8312, 354.9535
174.3134, 354.7737
174.7955, 356.1338
175.2776, 357.7116
175.7597, 357.7520
176.2418, 356.0413
176.7239, 353.8735
177.2061, 352.2181
177.6882, 351.0040
178.1703, 350.0632
178.6524, 349.3074
179.1345, 348.7598
179.6166, 348.5801
180.0988, 348.8476
180.5809, 349.0925
181.0630, 348.6153
181.5451, 347.5902
182.0272, 346.7378
182.5093, 346.5136
182.9915, 346.7230
183.4736, 346.9868
183.9557, 347.3439
184.4378, 347.5157
184.9199, 346.8135
185.4020, 345.4017
185.8842, 344.3700
186.3663, 344.7197
186.8484, 346.0189
187.3305, 346.6206
187.8126, 346.2873
188.2947, 345.5524
188.7769, 345.1773
189.2590, 345.1563
189.7411, 345.3535
190.2232, 345.6812
190.7053, 346.1558
191.1874, 346.9037
191.6696, 347.9854
192.1517, 349.2679
192.6338, 350.5629
193.1159, 351.8750
193.5980, 353.1122
194.0801, 354.0408
194.5623, 354.7074
195.0444, 355.9957
195.5265, 358.1834
196.0086, 360.7278
196.4907, 362.2559
196.9728, 362.6118
197.4550, 363.2392
197.9371, 365.2852
198.4192, 368.7791
198.9013, 371.7756
199.3834, 374.1605
199.8655, 375.8964
200.3477, 376.5323
200.8298, 375.7203
201.3119, 375.3945
201.7940, 377.1067
202.2761, 381.1072
202.7582, 384.2906
203.2404, 386.2232
203.7225, 387.3022
204.2046, 388.5607
204.6867, 390.0035
205.1688, 391.6269
205.6509, 393.5679
206.1331, 395.9721
206.6152, 397.7701
207.0973, 398.6935
207.5794, 399.0471
208.0615, 399.6899
208.5436, 400.5585
209.0258, 401.8875
209.5079, 403.8860
209.9900, 406.6563
210.4721, 409.5844
210.9542, 412.7161
211.4363, 415.9354
211.9185, 418.7401
212.4006, 420.8281
212.8827, 423.1707
213.3648, 426.3360
213.8469, 430.5120
214.3290, 434.9379
214.8112, 439.6746
215.2933, 444.5748
215.7754, 449.1936
216.2575, 453.2406
216.7396, 457.5654
217.2217, 462.8831
217.7038, 469.8708
218.1860, 475.6269
218.6681, 479.3882
219.1502, 481.8349
219.6323, 485.4989
220.1144, 490.9080
220.5965, 496.5828
221.0787, 501.6162
221.5608, 505.7222
222.0429, 509.9826
222.5250, 514.6057
223.0071, 519.4159
223.4892, 523.5506
223.9714, 526.8416
224.4535, 529.7971
224.9356, 532.7604
225.4177, 535.8945
225.8998, 538.5577
226.3819, 540.4169
226.8641, 541.8279
227.3462, 544.0318
227.8283, 547.5052
228.3104, 551.0297
228.7925, 553.8791
229.2746, 555.6370
229.7568, 557.7490
230.2389, 560.4248
230.7210, 563.4747
231.2031, 566.2308
231.6852, 568.6538
232.1673, 570.8312
232.6495, 572.7564
233.1316, 574.2972
233.6137, 575.9232
234.0958, 577.9220
234.5779, 579.9390
235.0600, 580.9475
235.5422, 580.8224
236.0243, 579.8877
236.5064, 578.3129
236.9885, 576.2764
237.4706, 573.1627
237.9527, 568.6602
238.4349, 563.2026
238.9170, 558.0140
239.3991, 553.8206
239.8812, 548.8080
240.3633, 542.0554
240.8454, 532.7052
241.3276, 523.7338
241.8097, 515.2701
242.2918, 507.2558
242.7739, 499.6702
243.2560, 492.6261
243.7381, 485.8405
244.2203, 479.2468
244.7024, 472.9461
245.1845, 466.4915
245.6666, 459.4256
246.1487, 452.4407
246.6308, 446.8038
247.1130, 443.1086
247.5951, 439.7720
248.0772, 436.2383
248.5593, 432.2878
249.0414, 428.8504
249.5235, 425.8932
250.0057, 423.4709
250.4878, 421.7938
250.9699, 421.6393
251.4520, 420.8100
251.9341, 418.3279
252.4162, 413.6090
252.8984, 410.1453
253.3805, 408.5090
253.8626, 407.6725
254.3447, 406.1364
254.8268, 403.4961
255.3089, 400.9490
255.7911, 398.9637
256.2732, 397.6565
256.7553, 395.8140
257.2374, 393.1935
257.7195, 390.2679
258.2017, 387.6332
258.6838, 385.4166
259.1659, 383.1553
259.6480, 380.7199
260.1301, 378.1302
260.6122, 375.4704
261.0944, 372.8314
261.5765, 369.9950
262.0586, 366.6596
262.5407, 362.6557
263.0228, 358.6527
263.5049, 354.8176
263.9871, 351.1168
264.4692, 347.5259
264.9513, 344.0178
265.4334, 340.6152
265.9155, 337.3103
266.3976, 334.2353
266.8798, 330.9766
267.3619, 327.3339
267.8440, 323.3943
268.3261, 320.2272
268.8082, 318.0958
269.2903, 316.1918
269.7725, 313.9104
270.2546, 311.2389
270.7367, 308.3761
271.2188, 305.3282
271.7009, 302.1411
272.1830, 298.7956
272.6652, 295.0996
273.1473, 291.8383
273.6294, 289.7151
274.1115, 288.9725
274.5936, 287.8882
275.0757, 286.2143
275.5579, 284.1317
276.0400, 282.2651
276.5221, 280.7092
277.0042, 278.9771
277.4863, 276.5413
277.9684, 273.2950
278.4506, 270.9064
278.9327, 269.7194
279.4148, 269.1543
279.8969, 267.9124
280.3790, 265.8880
280.8611, 263.9456
281.3433, 262.6234
281.8254, 261.9120
282.3075, 261.0068
282.7896, 259.8446
283.2717, 258.5636
283.7538, 257.3963
284.2360, 256.3500
284.7181, 255.2578
285.2002, 253.9455
285.6823, 252.4658
286.1644, 251.3207
286.6465, 250.5555
287.1287, 249.9923
287.6108, 249.4724
288.0929, 248.9882
288.5750, 248.4285
289.0571, 247.7009
289.5392, 246.8585
290.0214, 246.1387
290.5035, 245.5534
290.9856, 245.0167
291.4677, 244.2371
291.9498, 243.3280
292.4319, 243.0465
292.9141, 243.9126
293.3962, 245.3914
293.8783, 246.2205
294.3604, 246.3901
294.8425, 246.3582
295.3246, 246.5784
295.8068, 246.9343
296.2889, 246.9451
296.7710, 246.2038
297.2531, 245.4161
297.7352, 245.9832
298.2173, 247.7663
298.6995, 249.6162
299.1816, 250.8140
299.6637, 251.4592
300.1458, 251.5645
300.6279, 250.8275
301.1100, 250.2225
301.5922, 251.4030
302.0743, 253.9354
302.5564, 256.0681
303.0385, 256.2878
303.5206, 255.6297
304.0027, 255.6387
304.4849, 256.6122
304.9670, 257.8257
305.4491, 258.5323
305.9312, 258.9333
306.4133, 259.5118
306.8954, 260.8489
307.3776, 262.3069
307.8597, 263.0698
308.3418, 263.0284
308.8239, 263.1133
309.3060, 264.2964
309.7881, 266.0300
310.2703, 267.4086
310.7524, 267.7397
311.2345, 267.8464
311.7166, 268.3933
312.1987, 269.3698
312.6808, 270.1665
313.1630, 270.5101
313.6451, 270.4699
314.1272, 270.1207
314.6093, 269.3283
315.0914, 268.3797
315.5735, 267.3745
316.0557, 266.3180
316.5378, 265.2474
317.0199, 263.9972
317.5020, 262.8477
317.9841, 262.0256
318.4662, 261.9427
318.9484, 261.6793
319.4305, 260.8606
319.9126, 259.6275
320.3947, 258.3495
320.8768, 256.6722
321.3589, 255.3275
321.8411, 254.7657
322.3232, 255.4006
322.8053, 255.9521
323.2874, 256.0927
323.7695, 256.0177
324.2516, 256.0363
324.7338, 256.3076
325.2159, 256.5747
325.6980, 256.6849
326.1801, 256.5234
326.6622, 256.6985
327.1443, 257.3744
327.6265, 258.3524
328.1086, 259.4430
328.5907, 261.1478
329.0728, 262.3802
329.5549, 262.6833
330.0370, 262.0448
330.5192, 262.1208
331.0013, 263.4016
331.4834, 264.9822
331.9655, 266.2510
332.4476, 266.9966
332.9297, 267.7964
333.4119, 268.7073
333.8940, 269.7051
334.3761, 270.6296
334.8582, 271.2330
335.3403, 272.1136
335.8224, 273.7448
336.3046, 276.6978
336.7867, 278.5764
337.2688, 278.8334
337.7509, 278.3828
338.2330, 279.1829
338.7151, 281.5637
339.1973, 284.1481
339.6794, 286.4186
340.1615, 288.3355
340.6436, 290.5258
341.1257, 293.1310
341.6078, 295.6675
342.0899, 297.2320
342.5721, 297.6816
343.0542, 298.8074
343.5363, 301.2711
344.0184, 304.8031
344.5005, 308.3346
344.9826, 311.8234
345.4648, 315.4214
345.9469, 319.1082
346.4290, 322.9681
346.9111, 327.2899
347.3932, 332.2682
347.8753, 337.5829
348.3575, 342.4344
348.8396, 346.8462
349.3217, 351.4205
349.8038, 356.4176
350.2859, 361.8355
350.7680, 367.7541
351.2502, 374.2518
351.7323, 380.9591
352.2144, 387.3591
352.6965, 393.6312
353.1786, 400.1317
353.6607, 407.1738
354.1429, 414.5004
354.6250, 421.7224
355.1071, 428.8179
355.5892, 436.1829
356.0713, 444.1565
356.5534, 452.5984
357.0356, 461.2984
357.5177, 470.1398
357.9998, 479.2996
358.4819, 488.4511
358.9640, 497.7604
359.4461, 507.9630
359.9283, 520.3767
360.4104, 533.3458
360.8925, 545.4823
361.3746, 556.2535
361.8567, 566.5272
362.3388, 576.6091
362.8210, 586.3994
363.3031, 595.9139
363.7852, 605.9063
364.2673, 615.0009
364.7494, 622.8492
365.2315, 629.8054
365.7137, 634.0691
366.1958, 634.5687
366.6779, 632.3998
367.1600, 628.8512
367.6421, 623.7148
368.1242, 617.5807
368.6064, 610.7640
369.0885, 603.2637
369.5706, 594.0460
370.0527, 581.9907
370.5348, 569.0482
371.0169, 556.2642
371.4991, 543.6322
371.9812, 531.3730
372.4633, 519.1948
372.9454, 507.3699
373.4275, 497.2153
373.9096, 489.3126
374.3918, 481.8777
374.8739, 474.3338
375.3560, 466.6181
375.8381, 458.5951
376.3202, 450.0466
376.8023, 441.5864
377.2845, 434.1270
377.7666, 427.7529
378.2487, 422.2527
378.7308, 417.9233
379.2129, 414.5178
379.6950, 410.6996
380.1772, 406.3266
380.6593, 402.0956
381.1414, 398.8149
381.6235, 396.3821
382.1056, 393.4985
382.5877, 389.7499
383.0699, 385.6607
383.5520, 382.4039
384.0341, 379.8591
384.5162, 377.0980
384.9983, 373.0029
385.4804, 368.3067
385.9626, 364.5788
386.4447, 362.0300
386.9268, 360.1430
387.4089, 358.7683
387.8910, 357.6551
388.3731, 356.2716
388.8553, 353.9181
389.3374, 351.4686
389.8195, 349.9307
390.3016, 349.2769
390.7837, 348.5813
391.2658, 347.1133
391.7480, 345.3875
392.2301, 343.9266
392.7122, 342.8304
393.1943, 342.0912
393.6764, 342.0809
394.1585, 342.4898
394.6407, 342.4357
395.1228, 341.1453
395.6049, 339.6994
396.0870, 338.6266
396.5691, 338.0851
397.0512, 337.6331
397.5334, 336.9597
398.0155, 336.4022
398.4976, 336.3883
398.9797, 338.0201
399.4618, 339.0537
399.9439, 338.8659
400.4261, 337.4605
400.9082, 336.2552
401.3903, 335.4720
401.8724, 334.6679
402.3545, 333.5542
402.8366, 332.0521
403.3188, 330.3928
403.8009, 328.3961
404.2830, 326.3337
404.7651, 325.0648
405.2472, 325.0175
405.7293, 324.5847
406.2115, 323.0629
406.6936, 320.4455
407.1757, 317.4416
407.6578, 313.9080
408.1399, 310.3613
408.6220, 307.3777
409.1042, 304.9487
409.5863, 302.6840
410.0684, 300.6132
410.5505, 298.5424
411.0326, 295.7903
411.5147, 292.3640
411.9969, 288.8843
412.4790, 285.7467
412.9611, 282.8469
413.4432, 279.9955
413.9253, 277.1408
414.4074, 274.3236
414.8896, 271.4899
415.3717, 268.7115
415.8538, 266.1773
416.3359, 264.1948
416.8180, 262.3761
417.3001, 260.4435
417.7823, 258.3621
418.2644, 256.1817
418.7465, 253.5222
419.2286, 250.9091
419.7107, 248.9139
420.1928, 248.1627
420.6750, 247.3576
421.1571, 245.8382
421.6392, 243.8668
422.1213, 242.1663
422.6034, 241.2126
423.0855, 240.3295
423.5677, 239.1732
424.0498, 237.5721
424.5319, 236.2651
425.0140, 235.6838
425.4961, 235.2402
425.9782, 234.3184
426.4604, 232.3862
426.9425, 230.7645
427.4246, 229.6994
427.9067, 229.1188
428.3888, 228.5909
428.8709, 228.1470
429.3531, 227.7039
429.8352, 227.1724
430.3173, 226.5055
430.7994, 226.0576
431.2815, 225.9190
431.7636, 225.8653
432.2458, 225.5190
432.7279, 224.8626
433.2100, 224.1466
433.6921, 223.3337
434.1742, 222.5421
434.6563, 222.3573
435.1385, 222.7952
435.6206, 223.2406
436.1027, 223.0117
436.5848, 222.3738
437.0669, 222.0999
437.5490, 222.4450
438.0312, 222.9250
438.5133, 223.0651
438.9954, 222.9073
439.4775, 222.5626
439.9596, 221.8835
440.4417, 221.1789
440.9239, 220.7266
441.4060, 220.5443
441.8881, 220.4962
442.3702, 220.6266
442.8523, 220.7996
443.3344, 220.8905
443.8166, 221.0480
444.2987, 220.9017
444.7808, 220.1117
445.2629, 218.8979
445.7450, 217.9012
446.2271, 217.1588
446.7093, 216.7559
447.1914, 216.7950
447.6735, 217.4362
448.1556, 218.0018
448.6377, 218.5661
449.1198, 218.9989
449.6020, 219.1424
450.0841, 218.8474
450.5662, 218.5820
451.0483, 218.4661
451.5304, 218.4312
452.0125, 218.0842
452.4947, 217.2527
452.9768, 216.6316
453.4589, 216.8172
453.9410, 217.8414
454.4231, 218.1781
454.9052, 217.7241
455.3874, 216.8200
455.8695, 215.6495
456.3516, 214.2910
456.8337, 213.3893
457.3158, 213.3262
457.7979, 213.6822
458.2801, 213.6708
458.7622, 213.3484
459.2443, 213.1060
459.7264, 213.3100
460.2085, 213.7217
460.6906, 214.0739
461.1728, 214.3637
461.6549, 214.4402
462.1370, 214.0032
462.6191, 213.3243
463.1012, 212.8094
463.5833, 212.4074
464.0655, 212.3865
464.5476, 213.1640
465.0297, 214.6034
465.5118, 215.6167
465.9939, 215.7063
466.4760, 215.4173
466.9582, 215.0151
467.4403, 214.3447
467.9224, 213.8686
468.4045, 213.6411
468.8866, 213.5903
469.3687, 213.6082
469.8509, 213.6361
470.3330, 213.8540
470.8151, 214.3859
471.2972, 215.1860
471.7793, 215.7103
472.2614, 215.8626
472.7436, 216.0213
473.2257, 216.5924
473.7078, 217.5922
474.1899, 217.9965
474.6720, 217.6050
475.1541, 216.9500
475.6363, 216.6627
476.1184, 216.7562
476.6005, 217.3431
477.0826, 218.7848
477.5647, 220.5554
478.0468, 221.8972
478.5290, 222.8134
479.0111, 223.3291
479.4932, 222.9677
479.9753, 222.4288
480.4574, 222.6440
480.9395, 224.0019
481.4217, 225.3836
481.9038, 225.8855
482.3859, 226.0050
482.8680, 226.4668
483.3501, 227.9185
483.8322, 229.3520
484.3144, 230.3959
484.7965, 231.0509
485.2786, 231.6534
485.7607, 232.0722
486.2428, 232.5798
486.7249, 233.3360
487.2071, 234.5352
487.6892, 235.5440
488.1713, 236.3105
488.6534, 236.9249
489.1355, 237.5622
489.6176, 238.3234
490.0998, 238.8135
490.5819, 238.8616
491.0640, 238.5825
491.5461, 238.5430
492.0282, 238.7634
492.5103, 239.0945
492.9925, 239.5609
493.4746, 240.0913
493.9567, 240.2129
494.4388, 239.8349
494.9209, 239.3582
495.4030, 239.1171
495.8852, 239.1248
496.3673, 239.4399
496.8494, 240.4366
497.3315, 241.3999
497.8136, 241.6346
498.2957, 241.2329
498.7779, 240.5745
499.2600, 239.3470
499.7421, 238.2808
500.2242, 238.1671
500.7063, 239.4981
501.1884, 239.9496
501.6706, 237.9413
502.1527, 235.1100
502.6348, 233.1382
503.1169, 232.9959
503.5990, 232.8370
504.0811, 232.6014
504.5633, 232.2271
505.0454, 231.3973
505.5275, 229.7916
506.0096, 228.3027
506.4917, 227.2482
506.9738, 226.6202
507.4560, 226.5833
507.9381, 227.4071
508.4202, 228.0927
508.9023, 227.2945
509.3844, 225.1246
509.8665, 223.5952
510.3487, 223.2083
510.8308, 223.3891
511.3129, 223.3341
511.7950, 223.0458
512.2772, 222.5321
512.7593, 221.7027
513.2414, 220.7023
513.7235, 219.6173
514.2056, 218.4624
514.6877, 217.4407
515.1699, 216.6273
515.6520, 216.0326
516.1341, 215.6997
516.6162, 215.7995
517.0983, 215.8364
517.5804, 215.6083
518.0626, 215.2182
518.5447, 214.8357
519.0268, 214.3755
519.5089, 214.0467
519.9910, 214.0067
520.4731, 214.2194
520.9553, 214.0969
521.4374, 213.4581
521.9195, 212.7607
522.4016, 212.2299
522.8837, 211.8657
523.3658, 211.7786
523.8480, 212.1092
524.3301, 212.4266
524.8122, 211.9800
525.2943, 210.8356
525.7764, 210.0018
526.2585, 209.7596
526.7407, 209.9762
527.2228, 210.7511
527.7049, 211.9271
528.1870, 212.5688
528.6691, 211.5297
529.1512, 209.9521
529.6334, 209.1530
530.1155, 209.2284
530.5976, 209.6783
531.0797, 210.5872
531.5618, 211.5374
532.0439, 212.0896
532.5261, 211.8100
533.0082, 211.5955
533.4903, 211.7863
533.9724, 212.1849
534.4545, 212.3730
534.9366, 212.0841
535.4188, 211.8403
535.9009, 211.7067
536.3830, 211.6889
536.8651, 212.0724
537.3472, 213.1855
537.8293, 214.0634
538.3115, 213.8984
538.7936, 212.5950
539.2757, 211.6711
539.7578, 211.2358
540.2399, 211.1035
540.7220, 211.1640
541.2042, 211.3577
541.6863, 211.3237
542.1684, 210.8018
542.6505, 210.1707
543.1326, 210.1302
543.6147, 210.5008
544.0969, 210.5950
544.5790, 209.4932
545.0611, 208.2879
545.5432, 208.0607
546.0253, 208.9520
546.5074, 209.6163
546.9896, 209.2382
547.4717, 208.5325
547.9538, 208.0762
548.4359, 208.1261
548.9180, 208.2145
549.4001, 208.3128
549.8823, 208.4266
550.3644, 208.5988
550.8465, 209.0343
551.3286, 209.1324
551.8107, 208.6366
552.2928, 207.6478
552.7750, 206.9030
553.2571, 206.4058
553.7392, 206.1133
554.2213, 206.0495
554.7034, 206.1835
555.1855, 206.3793
555.6677, 206.6480
556.1498, 206.8377
556.6319, 206.8329
557.1140, 206.6244
557.5961, 206.1484
558.0782, 205.1979
558.5604, 204.2892
559.0425, 203.8541
559.5246, 203.7814
560.0067, 203.8318
560.4888, 204.1236
560.9709, 204.3210
561.4531, 204.2539
561.9352, 203.9175
562.4173, 203.5042
562.8994, 202.9107
563.3815, 202.3539
563.8636, 201.9582
564.3458, 201.8397
564.8279, 201.5592
565.3100, 201.0176
565.7921, 200.4379
566.2742, 200.1733
566.7563, 200.2722
567.2385, 200.1638
567.7206, 199.6075
568.2027, 198.9277
568.6848, 198.9632
569.1669, 199.6211
569.6490, 200.2061
570.1312, 200.3279
570.6133, 200.1649
571.0954, 199.9033
571.5775, 199.5553
572.0596, 199.2789
572.5417, 199.2777
573.0239, 199.3281
573.5060, 199.2402
573.9881, 198.9659
574.4702, 198.5921
574.9523, 197.9422
575.4344, 197.2776
575.9166, 196.9388
576.3987, 197.2871
576.8808, 197.5003
577.3629, 197.4454
577.8450, 197.1988
578.3271, 196.9879
578.8093, 196.7804
579.2914, 196.6982
579.7735, 196.7927
580.2556, 197.0535
580.7377, 197.5586
581.2198, 198.3459
581.7020, 198.8944
582.1841, 198.5634
582.6662, 197.6836
583.1483, 197.0733
583.6304, 196.8922
584.1125, 196.7419
584.5947, 196.1521
585.0768, 195.4030
585.5589, 194.9099
586.0410, 195.1315
586.5231, 195.2890
587.0052, 194.8073
587.4873, 194.0032
587.9694, 193.7283
588.4515, 194.9157
588.9337, 195.8547
589.4158, 195.9156
589.8979, 195.0922
590.3800, 194.7192
590.8621, 194.9851
591.3442, 195.3646
591.8264, 195.5062
592.3085, 195.3859
592.7906, 195.3917
593.2727, 195.5689
593.7548, 195.7313
594.2369, 195.5304
594.7191, 195.0981
595.2012, 195.0014
595.6833, 195.5287
596.1654, 196.1371
596.6475, 196.2367
597.1296, 195.9539
597.6118, 195.5847
598.0939, 194.8398
598.5760, 194.4267
599.0581, 195.0252
599.5402, 196.4931
600.0223, 197.5492
600.5045, 197.6929
600.9866, 197.5464
601.4687, 197.3477
601.9508, 197.0466
602.4329, 196.9299
602.9150, 197.0028
603.3972, 197.2556
603.8793, 197.7216
604.3614, 198.4250
604.8435, 199.1266
605.3256, 199.8492
605.8077, 200.4202
606.2899, 200.3764
606.7720, 199.8648
607.2541, 199.5830
607.7362, 199.7837
608.2183, 200.3405
608.7004, 201.3980
609.1826, 202.7568
609.6647, 203.6871
610.1468, 203.1521
610.6289, 202.6335
611.1110, 203.0476
611.5931, 204.4718
612.0753, 206.1894
612.5574, 208.7310
613.0395, 211.0146
613.5216, 212.3065
614.0037, 211.8251
614.4858, 212.4435
614.9680, 214.4584
615.4501, 217.1687
615.9322, 219.8873
616.4143, 222.6203
616.8964, 224.9675
617.3785, 226.6986
617.8607, 228.2555
618.3428, 230.4591
618.8249, 233.1829
619.3070, 235.9007
619.7891, 238.2411
620.2712, 240.5491
620.7534, 243.0970
621.2355, 245.9118
621.7176, 249.0063
622.1997, 252.5958
622.6818, 256.3077
623.1639, 259.8067
623.6461, 262.9277
624.1282, 266.8602
624.6103, 272.1050
625.0924, 277.8610
625.5745, 283.6973
626.0566, 289.8589
626.5388, 295.5677
627.0209, 300.7238
627.5030, 305.4575
627.9851, 309.7970
628.4672, 313.7280
628.9493, 317.7772
629.4315, 322.0952
629.9136, 326.5378
630.3957, 331.2225
630.8778, 335.8687
631.3599, 339.5685
631.8420, 341.9709
632.3242, 343.1937
632.8063, 342.9746
633.2884, 341.5168
633.7705, 339.8765
634.2526, 338.5938
634.7347, 337.0745
635.2169, 334.9747
635.6990, 332.2242
636.1811, 329.3162
636.6632, 326.0563
637.1453, 322.8692
637.6274, 320.1647
638.1096, 318.0235
638.5917, 315.6499
639.0738, 312.9831
639.5559, 310.0790
640.0380, 306.6943
640.5201, 303.0101
641.0023, 299.9951
641.4844, 298.1277
641.9665, 296.4683
642.4486, 293.7015
642.9307, 290.3314
643.4128, 287.4977
643.8950, 286.2387
644.3771, 285.0573
644.8592, 283.2082
645.3413, 280.8083
645.8234, 278.4478
646.3055, 275.9939
646.7877, 273.8950
647.2698, 272.4681
647.7519, 271.7381
648.2340, 270.5375
648.7161, 268.7867
649.1982, 266.7903
649.6804, 264.7187
650.1625, 262.5836
650.6446, 260.3494
651.1267, 257.9431
651.6088, 256.0513
652.0909, 256.1518
652.5731, 257.1249
653.0552, 256.8201
653.5373, 254.1613
654.0194, 251.5143
654.5015, 250.4211
654.9836, 250.2222
655.4658, 249.9368
655.9479, 249.1353
656.4300, 248.4387
656.9121, 248.0368
657.3942, 247.8219
657.8763, 247.4659
658.3585, 246.7956
658.8406, 246.3962
659.3227, 246.5649
659.8048, 247.1435
660.2869, 247.2582
660.7690, 246.8867
661.2512, 246.5115
661.7333, 246.3190
662.2154, 246.3693
662.6975, 246.8868
663.1796, 247.8625
663.6617, 248.8707
664.1439, 249.6540
664.6260, 250.3167
665.1081, 250.9057
665.5902, 251.3379
666.0723, 252.0121
666.5544, 253.5018
667.0366, 255.0074
667.5187, 255.7565
668.0008, 255.1502
668.4829, 255.0612
668.9650, 255.6907
669.4471, 256.7712
669.9293, 257.9527
670.4114, 259.2382
670.8935, 260.5389
671.3756, 261.9342
671.8577, 263.1725
672.3398, 263.6340
672.8220, 263.5527
673.3041, 263.7255
673.7862, 264.7627
674.2683, 266.0070
674.7504, 267.1270
675.2325, 268.0813
675.7147, 268.7024
676.1968, 268.8814
676.6789, 268.7711
677.1610, 268.3882
677.6431, 267.7300
678.1252, 266.9898
678.6074, 266.0778
679.0895, 265.2650
679.5716, 264.6996
680.0537, 264.3781
680.5358, 264.4276
681.0179, 264.8902
681.5001, 265.4190
681.9822, 265.5523
682.4643, 265.5194
682.9464, 265.7390
683.4285, 266.2523
683.9106, 267.1721
684.3928, 268.9374
684.8749, 271.0200
685.3570, 272.8038
685.8391, 273.6839
686.3212, 274.8261
686.8033, 276.2941
687.2855, 278.1812
687.7676, 280.7622
688.2497, 284.4893
688.7318, 287.8175
689.2139, 290.2796
689.6960, 292.3173
690.1782, 295.1241
690.6603, 298.6634
691.1424, 302.1862
691.6245, 305.4705
692.1066, 308.5065
692.5887, 311.3317
693.0709, 313.9020
693.5530, 316.0280
694.0351, 317.6981
694.5172, 318.7752
694.9993, 319.1299
695.4814, 318.7466
695.9636, 317.8900
696.4457, 316.4364
696.9278, 314.6693
697.4099, 312.8369
697.8920, 311.0996
698.3741, 308.0601
698.8563, 303.4590
699.3384, 298.3541
699.8205, 294.0265
700.3026, 290.1191
700.7847, 284.4617
701.2668, 276.6400
701.7490, 268.5374
702.2311, 261.7118
702.7132, 255.8122
703.1953, 250.4150
703.6774, 245.6198
704.1595, 240.8521
704.6417, 235.3410
705.1238, 229.8574
705.6059, 225.6053
706.0880, 223.4401
706.5701, 221.0859
707.0522, 218.3214
707.5344, 215.2523
708.0165, 212.0113
708.4986, 208.5758
708.9807, 205.4843
709.4628, 202.8739
709.9449, 200.7331
710.4271, 199.1561
710.9092, 198.0672
711.3913, 197.1267
711.8734, 196.4958
712.3555, 195.6829
712.8376, 194.1547
713.3198, 192.0603
713.8019, 190.1977
714.2840, 188.9825
714.7661, 187.8160
715.2482, 186.3588
715.7303, 184.6391
716.2125, 183.6032
716.6946, 183.4541
717.1767, 183.4125
717.6588, 183.1285
718.1409, 182.5880
718.6230, 181.5123
719.1052, 179.8702
719.5873, 178.4845
720.0694, 178.1498
720.5515, 178.3640
721.0336, 178.5132
721.5157, 178.5189
721.9979, 178.4677
722.4800, 178.4633
722.9621, 178.3769
723.4442, 178.0857
723.9263, 177.4324
724.4084, 176.8754
724.8906, 176.3251
725.3727, 175.9689
725.8548, 176.1093
726.3369, 176.7986
726.8190, 177.2116
727.3011, 177.2577
727.7833, 176.9825
728.2654, 175.9955
728.7475, 174.7561
729.2296, 174.5206
729.7117, 176.2843
730.1938, 177.7788
730.6760, 176.8545
731.1581, 174.8139
731.6402, 173.6507
732.1223, 174.6400
732.6044, 175.5629
733.0865, 176.1834
733.5687, 176.5078
734.0508, 176.4023
734.5329, 175.6328
735.0150, 175.4832
735.4971, 176.5096
735.9792, 178.1089
736.4614, 178.8678
736.9435, 178.9300
737.4256, 179.0334
737.9077, 179.7396
738.3898, 180.5014
738.8719, 180.7125
739.3541, 180.5280
739.8362, 180.4920
740.3183, 180.6639
740.8004, 181.1513
741.2825, 182.3160
741.7646, 183.9983
742.2468, 184.7483
742.7289, 184.1791
743.2110, 183.6390
743.6931, 183.7473
744.1752, 184.4103
744.6573, 185.2924
745.1395, 186.3692
745.6216, 187.0283
746.1037, 186.4670
746.5858, 185.4439
747.0679, 184.9330
747.5500, 184.9622
748.0322, 184.9329
748.5143, 184.6279
748.9964, 184.1365
749.4785, 183.4834
749.9606, 182.6366
750.4427, 181.7610
750.9249, 180.7792
751.4070, 179.8746
751.8891, 179.1773
752.3712, 178.6810
752.8533, 178.3968
753.3354, 178.3510
753.8176, 178.2455
754.2997, 177.6709
754.7818, 176.9029
755.2639, 176.4262
755.7460, 176.3867
756.2281, 176.1973
756.7103, 175.1726
757.1924, 174.0882
757.6745, 173.6723
758.1566, 174.6265
758.6387, 174.9859
759.1208, 174.3947
759.6030, 173.6411
760.0851, 173.6944
760.5672, 174.5965
761.0493, 174.8430
761.5314, 174.1503
762.0135, 173.2707
762.4957, 173.1919
762.9778, 173.5559
763.4599, 173.6366
763.9420, 173.0623
764.4241, 172.6497
764.9063, 173.0556
765.3884, 173.7938
765.8705, 174.2654
766.3526, 174.0371
766.8347, 174.0698
767.3168, 174.5770
767.7990, 175.2080
768.2811, 175.3053
768.7632, 174.8232
769.2453, 174.8600
769.7274, 175.8100
770.2095, 176.9182
770.6917, 176.8678
771.1738, 176.1719
771.6559, 175.9967
772.1380, 177.2237
772.6201, 178.4147
773.1022, 178.7814
773.5844, 178.5975
774.0665, 178.3326
774.5486, 178.0144
775.0307, 177.6772
775.5128, 177.3657
775.9949, 177.0113
776.4771, 176.3708
776.9592, 175.4215
777.4413, 174.7874
777.9234, 174.7848
778.4055, 174.9666
778.8876, 174.6356
779.3698, 173.9312
779.8519, 173.2080
780.3340, 172.5513
780.8161, 171.9983
781.2982, 171.5550
781.7803, 171.2236
782.2625, 171.0419
782.7446, 171.3596
783.2267, 171.2074
783.7088, 170.1552
784.1909, 168.6337
784.6730, 168.0242
785.1552, 168.3127
785.6373, 168.3118
786.1194, 167.2911
786.6015, 166.0281
787.0836, 165.9503
787.5657, 166.6047
788.0479, 166.7336
788.5300, 165.1887
789.0121, 163.5685
789.4942, 162.5232
789.9763, 161.9826
790.4584, 161.6144
790.9406, 161.5885
791.4227, 161.3704
791.9048, 160.7218
792.3869, 159.8313
792.8690, 159.3751
793.3511, 159.3182
793.8333, 159.1743
794.3154, 158.5636
794.7975, 157.8742
795.2796, 157.6099
795.7617, 157.6747
796.2438, 157.7707
796.7260, 158.1155
797.2081, 158.1211
797.6902, 157.2209
798.1723, 155.7450
798.6544, 155.0084
799.1365, 155.2901
799.6187, 155.5669
800.1008, 155.4122
800.5829, 155.0770
801.0650, 155.5382
801.5471, 156.6360
802.0292, 157.3513
802.5114, 156.6209
802.9935, 155.6611
803.4756, 155.7652
803.9577, 156.6080
804.4398, 157.0912
804.9219, 156.6859
805.4041, 156.0666
805.8862, 155.1551
806.3683, 154.1844
806.8504, 154.3325
807.3325, 155.9070
807.8146, 157.0782
808.2968, 157.0034
808.7789, 156.2252
809.2610, 155.8994
809.7431, 155.9444
810.2252, 156.0268
810.7073, 156.0703
811.1895, 156.0062
811.6716, 155.7086
812.1537, 155.2544
812.6358, 154.9261
813.1179, 154.9402
813.6000, 154.8329
814.0822, 154.4066
814.5643, 153.8106
815.0464, 153.6282
815.5285, 153.8660
816.0106, 154.1499
816.4927, 154.3056
816.9749, 154.4442
817.4570, 154.7788
817.9391, 155.2392
818.4212, 155.6335
818.9033, 156.1906
819.3854, 156.3252
819.8676, 155.4041
820.3497, 153.8333
820.8318, 153.0083
821.3139, 153.2156
821.7960, 153.5204
822.2781, 153.7301
822.7603, 153.8612
823.2424, 153.9241
823.7245, 153.9379
824.2066, 154.0511
824.6887, 154.5817
825.1708, 154.9171
825.6530, 154.2715
826.1351, 153.0174
826.6172, 152.0064
827.0993, 151.1758
827.5814, 151.0299
828.0635, 152.1531
828.5457, 153.7693
829.0278, 154.1181
829.5099, 152.9672
829.9920, 152.1068
830.4741, 152.0195
830.9562, 152.3369
831.4384, 152.7078
831.9205, 153.0035
832.4026, 152.8627
832.8847, 151.6513
833.3668, 150.6931
833.8489, 150.9077
834.3311, 151.7525
834.8132, 152.2930
835.2953, 152.2733
835.7774, 152.3335
836.2595, 152.5750
836.7416, 152.8691
837.2238, 153.0446
837.7059, 153.0968
838.1880, 152.9317
838.6701, 152.4513
839.1522, 151.9921
839.6343, 152.0390
840.1165, 152.2781
840.5986, 152.2491
841.0807, 151.6085
841.5628, 151.0549
842.0449, 150.6163
842.5270, 150.4079
843.0092, 150.6237
843.4913, 151.3625
843.9734, 152.0392
844.4555, 152.6734
844.9376, 152.9730
845.4197, 152.2584
845.9019, 151.0149
846.3840, 150.2556
846.8661, 150.2150
847.3482, 150.4567
847.8303, 151.0812
848.3124, 151.6672
848.7946, 151.7614
849.2767, 150.9621
849.7588, 150.7200
850.2409, 151.2586
850.7230, 151.9300
851.2051, 152.1039
851.6873, 151.8705
852.1694, 151.8584
852.6515, 152.1118
853.1336, 152.4158
853.6157, 152.6528
854.0978, 152.8161
854.5800, 152.9029
855.0621, 152.9124
855.5442, 152.8432
856.0263, 152.7071
856.5084, 152.4760
856.9905, 152.0804
857.4727, 151.5227
857.9548, 151.2038
858.4369, 151.1317
858.9190, 151.2287
859.4011, 151.6515
859.8832, 152.1109
860.3654, 152.0809
860.8475, 151.5988
861.3296, 151.0926
861.8117, 150.5885
862.2938, 150.2646
862.7759, 150.3592
863.2581, 150.7793
863.7402, 150.7630
864.2223, 150.1123
864.7044, 149.7214
865.1865, 150.1512
865.6686, 150.9661
866.1508, 150.8372
866.6329, 150.0097
867.1150, 149.5524
867.5971, 150.6479
868.0792, 151.6746
868.5613, 151.4478
869.0435, 150.3626
869.5256, 149.7044
870.0077, 149.9182
870.4898, 149.9113
870.9719, 149.3743
871.4540, 148.6134
871.9362, 148.3552
872.4183, 148.5365
872.9004, 148.6293
873.3825, 148.3900
873.8646, 148.1798
874.3467, 148.3543
874.8289, 148.7879
875.3110, 149.2900
875.7931, 150.1234
876.2752, 150.5736
876.7573, 150.5410
877.2394, 150.1701
877.7216, 149.5128
878.2037, 148.5387
878.6858, 147.8777
879.1679, 147.6153
879.6500, 147.6061
880.1321, 147.7626
880.6143, 148.0382
881.0964, 148.4713
881.5785, 149.2046
882.0606, 149.4492
882.5427, 148.1286
883.0248, 146.8656
883.5070, 146.9294
883.9891, 148.6890
884.4712, 149.4239
884.9533, 148.9804
885.4354, 148.2621
885.9175, 147.8926
886.3997, 147.7818
886.8818, 147.7613
887.3639, 147.8220
887.8460, 147.9860
888.3281, 148.4252
888.8102, 148.8234
889.2924, 148.9575
889.7745, 148.8460
890.2566, 148.8288
890.7387, 148.9257
891.2208, 149.0636
891.7029, 149.2393
892.1851, 149.4198
892.6672, 149.6012
893.1493, 149.7354
893.6314, 149.6131
894.1135, 148.6906
894.5956, 147.9217
895.0778, 148.0526
895.5599, 148.7354
896.0420, 149.0557
896.5241, 148.7870
897.0062, 148.5408
897.4883, 148.4334
897.9705, 148.3694
898.4526, 148.0120
898.9347, 147.5025
899.4168, 147.5931
899.8989, 148.6915
900.3810, 149.7624
900.8632, 149.9233
901.3453, 149.6286
901.8274, 149.4022
902.3095, 149.4422
902.7916, 149.3485
903.2737, 148.9978
903.7559, 148.6873
904.2380, 148.7824
904.7201, 149.2172
905.2022, 149.2413
905.6843, 148.7970
906.1664, 148.5404
906.6486, 149.4077
907.1307, 150.4356
907.6128, 150.6528
908.0949, 149.9173
908.5770, 149.3224
909.0591, 148.8894
909.5413, 148.8238
910.0234, 149.3812
910.5055, 150.3981
910.9876, 150.8300
911.4697, 150.6972
911.9518, 150.3667
912.4340, 149.7761
912.9161, 149.2958
913.3982, 149.4518
913.8803, 150.0360
914.3624, 150.4700
914.8445, 150.5132
915.3267, 150.4846
915.8088, 150.4260
916.2909, 150.3363
916.7730, 150.1242
917.2551, 149.7996
917.7372, 149.8685
918.2194, 150.5492
918.7015, 151.3184
919.1836, 151.6256
919.6657, 151.6577
920.1478, 151.6708
920.6299, 151.7603
921.1121, 151.7444
921.5942, 151.4284
922.0763, 151.1866
922.5584, 151.3998
923.0405, 152.0928
923.5226, 152.4451
924.0048, 152.4133
924.4869, 152.3839
924.9690, 152.7858
925.4511, 153.2900
925.9332, 153.4007
926.4153, 153.1232
926.8975, 153.1737
927.3796, 154.3270
927.8617, 155.1747
928.3438, 155.0899
928.8259, 154.3221
929.3080, 154.2695
929.7902, 154.9162
930.2723, 155.4256
930.7544, 155.2727
931.2365, 154.9798
931.7186, 155.2673
932.2007, 155.8564
932.6829, 156.1727
933.1650, 155.5244
933.6471, 155.3254
934.1292, 156.0085
934.6113, 156.9794
935.0934, 157.3656
935.5756, 157.1767
936.0577, 157.0222
936.5398, 156.9908
937.0219, 156.9803
937.5040, 156.6982
937.9861, 156.4839
938.4683, 156.8724
938.9504, 158.1493
939.4325, 158.9048
939.9146, 158.3028
940.3967, 157.9164
940.8788, 158.7917
941.3610, 160.7705
941.8431, 161.7156
942.3252, 161.6646
942.8073, 161.4926
943.2894, 161.7929
943.7715, 162.2001
944.2537, 162.3362
944.7358, 162.2849
945.2179, 162.3776
945.7000, 162.6017
946.1821, 163.1298
946.6642, 164.1346
947.1464, 165.3441
947.6285, 166.2294
948.1106, 166.8037
948.5927, 167.0595
949.0748, 166.8778
949.5569, 166.7655
950.0391, 167.0723
950.5212, 167.7521
951.0033, 168.8385
951.4854, 170.8950
951.9675, 171.9145
952.4496, 171.3372
952.9318, 170.6627
953.4139, 171.2650
953.8960, 172.8487
954.3781, 173.5226
954.8602, 173.3107
955.3423, 173.2830
955.8245, 174.5288
956.3066, 175.8844
956.7887, 176.3315
957.2708, 176.0197
957.7529, 176.4401
958.2350, 178.0887
958.7172, 179.3992
959.1993, 179.8799
959.6814, 179.8867
960.1635, 180.2272
960.6456, 180.7480
961.1277, 180.9146
961.6099, 180.3550
962.0920, 179.8098
962.5741, 179.4111
963.0562, 179.4146
963.5383, 180.2859
964.0204, 182.9650
964.5026, 183.5417
964.9847, 181.5114
965.4668, 179.0714
965.9489, 178.1868
966.4310, 178.3790
966.9131, 178.7693
967.3953, 179.2713
967.8774, 179.6286
968.3595, 179.5584
968.8416, 179.4603
969.3237, 179.5163
969.8058, 179.7048
970.2880, 179.9898
970.7701, 180.4135
971.2522, 180.5411
971.7343, 180.0437
972.2164, 179.4901
972.6985, 179.7773
973.1807, 180.5952
973.6628, 181.3623
974.1449, 182.2092
974.6270, 182.4715
975.1091, 181.4656
975.5912, 180.3540
976.0734, 180.4294
976.5555, 181.7348
977.0376, 181.8915
977.5197, 180.7300
978.0018, 179.5658
978.4839, 179.5360
978.9661, 179.9871
979.4482, 180.3590
979.9303, 180.6051
980.4124, 180.6967
980.8945, 180.6548
981.3766, 180.3946
981.8588, 179.7020
982.3409, 178.9127
982.8230, 179.1369
983.3051, 180.1889
983.7872, 181.1014
984.2693, 181.4956
984.7515, 181.7108
985.2336, 181.9562
985.7157, 182.1726
986.1978, 182.2536
986.6799, 181.9511
987.1620, 182.1432
987.6442, 182.9995
988.1263, 183.8745
988.6084, 184.1093
989.0905, 183.9315
989.5726, 183.8292
990.0547, 183.8363
990.5369, 183.9933
991.0190, 184.5626
991.5011, 185.0410
991.9832, 185.0116
992.4653, 184.7021
992.9474, 185.0281
993.4296, 186.0854
993.9117, 186.8034
994.3938, 186.7017
994.8759, 186.4908
995.3580, 187.2723
995.8401, 188.5486
996.3223, 189.5230
996.8044, 189.7944
997.2865, 190.1972
997.7686, 190.9008
998.2507, 191.7143
998.7328, 192.5297
999.2150, 193.3374
999.6971, 194.0816
1000.179, 194.7499
1000.661, 195.3380
1001.143, 195.8434
1001.626, 196.2628
1002.108, 196.4502
1002.590, 196.5177
1003.072, 197.0439
1003.554, 198.2746
1004.036, 199.3943
1004.518, 200.2180
1005.000, 200.8743
1005.482, 201.5070
1005.965, 202.1429
1006.447, 202.8302
1006.929, 203.5689
1007.411, 204.4002
1007.893, 205.4968
1008.375, 206.5798
1008.857, 207.5094
1009.339, 208.3145
1009.822, 208.4181
1010.304, 207.7149
1010.786, 207.4599
1011.268, 208.9239
1011.750, 210.9451
1012.232, 212.1715
1012.714, 212.7257
1013.196, 213.0017
1013.678, 212.6559
1014.161, 212.6911
1014.643, 213.3891
1015.125, 214.3444
1015.607, 215.0146
1016.089, 215.4165
1016.571, 215.6881
1017.053, 215.8569
1017.535, 215.7852
1018.018, 215.0051
1018.500, 214.2253
1018.982, 214.1481
1019.464, 214.8311
1019.946, 214.9833
1020.428, 214.4624
1020.910, 213.9717
1021.392, 213.9865
1021.874, 214.0225
1022.357, 212.8136
1022.839, 210.9060
1023.321, 209.5979
1023.803, 209.8221
1024.285, 210.0468
1024.767, 210.1337
1025.249, 209.8624
1025.731, 208.8693
1026.214, 207.1402
1026.696, 205.7104
1027.178, 204.6240
1027.660, 203.7949
1028.142, 203.2882
1028.624, 202.8897
1029.106, 202.3842
1029.588, 201.7961
1030.070, 201.3777
1030.553, 201.2363
1031.035, 201.0304
1031.517, 200.6590
1031.999, 200.2132
1032.481, 199.6970
1032.963, 199.2479
1033.445, 199.2911
1033.927, 200.0989
1034.410, 200.7620
1034.892, 200.6962
1035.374, 200.4826
1035.856, 200.5579
1036.338, 200.9337
1036.820, 200.9407
1037.302, 200.5693
1037.784, 200.3448
1038.266, 200.5116
1038.749, 201.0450
1039.231, 202.0793
1039.713, 203.4503
1040.195, 204.7502
1040.677, 206.0137
1041.159, 206.9246
1041.641, 207.2205
1042.123, 207.6463
1042.605, 209.4337
1043.088, 212.0607
1043.570, 213.9780
1044.052, 215.0230
1044.534, 215.7964
1045.016, 216.3284
1045.498, 216.9582
1045.980, 217.7422
1046.462, 218.7549
1046.945, 220.6362
1047.427, 223.4563
1047.909, 225.4799
1048.391, 225.8402
1048.873, 225.8439
1049.355, 226.9820
1049.837, 228.5910
1050.319, 229.7657
1050.802, 230.0823
1051.284, 230.5740
1051.766, 231.4407
1052.248, 232.0524
1052.730, 231.7286
1053.212, 230.8223
1053.694, 230.5807
1054.176, 230.8277
1054.658, 230.7392
1055.141, 229.7927
1055.623, 228.5622
1056.105, 227.1009
1056.587, 225.5560
1057.069, 224.2106
1057.551, 223.0799
1058.033, 221.4691
1058.515, 219.2185
1058.997, 217.0985
1059.480, 216.2514
1059.962, 215.5160
1060.444, 213.7033
1060.926, 210.7074
1061.408, 207.7396
1061.890, 204.5895
1062.372, 202.2157
1062.854, 201.2054
1063.337, 200.7867
1063.819, 199.6886
1064.301, 198.0323
1064.783, 196.0140
1065.265, 193.4009
1065.747, 191.1386
1066.229, 189.5906
1066.711, 188.4018
1067.193, 187.4984
1067.676, 186.8473
1068.158, 185.5279
1068.640, 183.5769
1069.122, 181.6476
1069.604, 180.0839
1070.086, 178.7072
1070.568, 177.2952
1071.050, 175.9792
1071.532, 175.1057
1072.015, 174.9076
1072.497, 174.2544
1072.979, 172.9447
1073.461, 171.5446
1073.943, 170.8177
1074.425, 170.2934
1074.907, 169.1027
1075.389, 167.2387
1075.872, 165.9659
1076.354, 166.2949
1076.836, 166.2470
1077.318, 165.1457
1077.800, 163.5001
1078.282, 162.3645
1078.764, 161.6528
1079.246, 161.0671
1079.729, 160.5763
1080.211, 160.0021
1080.693, 158.9677
1081.175, 158.0564
1081.657, 157.8483
1082.139, 158.3412
1082.621, 157.9095
1083.103, 156.5287
1083.585, 155.5112
1084.068, 156.0433
1084.550, 156.7510
1085.032, 156.1110
1085.514, 154.7596
1085.996, 153.8557
1086.478, 153.6941
1086.960, 153.7097
1087.442, 154.0215
1087.924, 154.0815
1088.406, 152.9765
1088.889, 151.4396
1089.371, 150.9868
1089.853, 151.4978
1090.335, 151.7529
1090.817, 150.9589
1091.299, 150.3111
1091.781, 150.1927
1092.263, 150.2586
1092.746, 149.7950
1093.228, 148.9333
1093.710, 148.3219
1094.192, 148.0869
1094.674, 147.9563
1095.156, 147.7184
1095.638, 147.5589
1096.120, 147.6537
1096.603, 147.9517
1097.085, 148.1371
1097.567, 148.2104
1098.049, 148.0668
1098.531, 147.5074
1099.013, 147.0533
1099.495, 147.5247
1099.977, 148.2950
1100.459, 148.5365
1100.942, 147.9462
1101.424, 147.3497
1101.906, 146.7060
1102.388, 146.1904
1102.870, 145.9940
1103.352, 145.9552
1103.834, 145.7142
1104.316, 145.3624
1104.798, 145.1622
1105.281, 145.3693
1105.763, 145.4873
1106.245, 145.3443
1106.727, 145.2466
1107.209, 145.8036
1107.691, 146.7231
1108.173, 146.4860
1108.655, 145.1036
1109.138, 144.0111
1109.620, 144.3783
1110.102, 144.8262
1110.584, 144.6290
1111.066, 144.1021
1111.548, 143.9286
1112.030, 144.1001
1112.512, 144.2924
1112.995, 144.4637
1113.477, 144.5384
1113.959, 144.4439
1114.441, 144.2290
1114.923, 143.9477
1115.405, 143.5964
1115.887, 142.9755
1116.369, 141.9742
1116.851, 141.3280
1117.333, 141.3990
1117.816, 141.7290
1118.298, 141.8100
1118.780, 141.7124
1119.262, 141.5175
1119.744, 141.1785
1120.226, 140.9192
1120.708, 140.6794
1121.190, 140.6931
1121.673, 141.2729
1122.155, 142.1034
1122.637, 142.3237
1123.119, 142.1679
1123.601, 142.2809
1124.083, 143.7923
1124.565, 144.2729
1125.047, 142.7759
1125.530, 140.9715
1126.012, 140.6428
1126.494, 141.4166
1126.976, 140.9862
1127.458, 139.4578
1127.940, 138.3455
1128.422, 139.0125
1128.904, 139.7184
1129.386, 139.5514
1129.869, 139.0337
1130.351, 138.9992
1130.833, 139.4372
1131.315, 139.7481
1131.797, 139.8580
1132.279, 139.9295
1132.761, 140.1241
1133.243, 140.3003
1133.725, 140.4634
1134.208, 140.5266
1134.690, 140.0122
1135.172, 138.8004
1135.654, 137.8720
1136.136, 137.4277
1136.618, 137.4224
1137.100, 138.1804
1137.582, 139.1119
1138.065, 139.5249
1138.547, 139.2400
1139.029, 139.1117
1139.511, 139.1816
1139.993, 139.3189
1140.475, 139.5689
1140.957, 139.7032
1141.439, 139.2033
1141.922, 138.3786
1142.404, 137.7516
1142.886, 137.5106
1143.368, 137.3356
1143.850, 137.2232
1144.332, 137.1085
1144.814, 136.7794
1145.296, 136.5105
1145.778, 137.4098
1146.260, 138.9921
1146.743, 139.8651
1147.225, 138.6428
1147.707, 137.8262
1148.189, 138.0025
1148.671, 138.3870
1149.153, 138.2207
1149.635, 137.6530
1150.117, 137.4777
1150.600, 137.6442
1151.082, 137.6680
1151.564, 136.9727
1152.046, 136.4977
1152.528, 136.7958
1153.010, 137.3228
1153.492, 137.2449
1153.974, 136.6453
1154.457, 136.5934
1154.939, 137.1733
1155.421, 137.5722
1155.903, 136.9653
1156.385, 136.2881
1156.867, 136.1325
1157.349, 136.3056
1157.831, 136.3066
1158.313, 136.1264
1158.796, 136.6044
1159.278, 137.9988
1159.760, 139.0684
1160.242, 138.4418
1160.724, 137.3162
1161.206, 136.5809
1161.688, 136.2444
1162.170, 136.0216
1162.652, 135.9029
1163.135, 136.0302
1163.617, 136.5211
1164.099, 137.0105
1164.581, 137.1136
1165.063, 137.0197
1165.545, 136.9313
1166.027, 136.8768
1166.509, 136.6661
1166.992, 136.2495
1167.474, 135.9490
1167.956, 135.9214
1168.438, 136.0226
1168.920, 136.1962
1169.402, 136.3176
1169.884, 136.1387
1170.366, 135.3506
1170.849, 135.2334
1171.331, 135.9574
1171.813, 136.7734
1172.295, 137.3698
1172.777, 137.7060
1173.259, 137.7066
1173.741, 137.4055
1174.223, 136.8580
1174.705, 135.6751
1175.188, 134.9875
1175.670, 134.9189
1176.152, 135.0366
1176.634, 134.9996
1177.116, 134.9263
1177.598, 135.0874
1178.080, 135.4165
1178.562, 135.7094
1179.044, 135.9003
1179.527, 136.0235
1180.009, 135.9978
1180.491, 136.0857
1180.973, 136.8723
1181.455, 137.8528
1181.937, 137.6104
1182.419, 136.3638
1182.901, 135.3950
1183.384, 135.2659
1183.866, 135.4315
1184.348, 135.9524
1184.830, 136.4649
1185.312, 136.4396
1185.794, 136.0587
1186.276, 135.7313
1186.758, 135.5021
1187.240, 135.4853
1187.723, 135.8866
1188.205, 136.3053
1188.687, 136.6382
1189.169, 136.9400
1189.651, 137.4094
1190.133, 137.9139
1190.615, 137.9670
1191.097, 137.5028
1191.579, 137.0414
1192.062, 136.9322
1192.544, 136.6917
1193.026, 136.0723
1193.508, 135.3251
1193.990, 135.0144
1194.472, 135.0498
1194.954, 135.1834
1195.436, 135.4059
1195.919, 135.3866
1196.401, 134.4344
1196.883, 133.8808
1197.365, 134.4624
1197.847, 135.6815
1198.329, 136.1329
1198.811, 135.9427
1199.293, 135.5077
1199.776, 134.7894
1200.258, 134.4735
1200.740, 135.4986
1201.222, 136.3192
1201.704, 135.9904
1202.186, 134.9174
1202.668, 134.8971
1203.150, 135.6196
1203.632, 135.7500
1204.115, 134.5430
1204.597, 133.6429
1205.079, 134.1017
1205.561, 134.8275
1206.043, 135.2132
1206.525, 135.3296
1207.007, 135.5325
1207.489, 135.7820
1207.971, 135.8951
1208.454, 135.7271
1208.936, 135.5556
1209.418, 135.5898
1209.900, 135.5613
1210.382, 135.1840
1210.864, 134.5672
1211.346, 134.6952
1211.828, 135.3723
1212.311, 135.6177
1212.793, 134.3920
1213.275, 133.5872
1213.757, 134.2926
1214.239, 135.3042
1214.721, 135.8405
1215.203, 135.9154
1215.685, 135.3720
1216.167, 134.3766
1216.650, 133.8006
1217.132, 134.5245
1217.614, 135.1505
1218.096, 135.1168
1218.578, 134.9465
1219.060, 135.3105
1219.542, 136.0077
1220.024, 135.2516
1220.506, 133.3606
1220.989, 132.2392
1221.471, 133.6753
1221.953, 134.8992
1222.435, 134.9908
1222.917, 134.7105
1223.399, 134.8616
1223.881, 135.3222
1224.363, 135.4644
1224.846, 135.3073
1225.328, 135.0983
1225.810, 134.8952
1226.292, 134.7318
1226.774, 134.5463
1227.256, 134.4827
1227.738, 134.9014
1228.220, 135.5743
1228.703, 135.4695
1229.185, 134.6917
1229.667, 134.3274
1230.149, 135.6049
1230.631, 136.3072
1231.113, 135.7267
1231.595, 134.7480
1232.077, 134.5687
1232.559, 134.8884
1233.042, 134.7771
1233.524, 134.2515
1234.006, 133.9944
1234.488, 134.6584
1234.970, 135.1015
1235.452, 135.0826
1235.934, 134.8078
1236.416, 134.4100
1236.898, 134.0132
1237.381, 133.9070
1237.863, 134.1026
1238.345, 134.4466
1238.827, 135.2441
1239.309, 135.5990
1239.791, 135.2429
1240.273, 134.6607
1240.755, 134.4978
1241.238, 134.5724
1241.720, 134.5877
1242.202, 134.5122
1242.684, 134.3110
1243.166, 133.6812
1243.648, 133.6184
1244.130, 134.4989
1244.612, 135.4885
1245.094, 135.2853
1245.577, 134.5934
1246.059, 134.5412
1246.541, 135.1720
1247.023, 135.5341
1247.505, 135.3935
1247.987, 135.4285
1248.469, 135.8219
1248.951, 136.2827
1249.433, 136.5279
1249.916, 136.5716
1250.398, 136.2320
1250.880, 135.5818
1251.362, 135.7349
1251.844, 137.0346
1252.326, 137.6697
1252.808, 137.1389
1253.290, 136.2764
1253.773, 135.6233
1254.255, 135.3662
1254.737, 136.0072
1255.219, 137.3848
1255.701, 137.7492
1256.183, 136.9455
1256.665, 136.5777
1257.147, 137.1175
1257.630, 137.5618
1258.112, 136.5592
1258.594, 135.4104
1259.076, 135.3604
1259.558, 136.1638
1260.040, 136.8052
1260.522, 137.2773
1261.004, 137.2149
1261.486, 136.4334
1261.969, 135.8285
1262.451, 136.4260
1262.933, 137.0867
1263.415, 136.9117
1263.897, 136.2415
1264.379, 136.2954
1264.861, 136.9714
1265.343, 137.5744
1265.825, 137.9734
1266.308, 138.1042
1266.790, 137.7634
1267.272, 137.3028
1267.754, 136.8285
1268.236, 136.4265
1268.718, 136.3258
1269.200, 136.4904
1269.682, 136.8317
1270.165, 137.3562
1270.647, 137.8195
1271.129, 138.1924
1271.611, 138.3638
1272.093, 138.2322
1272.575, 137.9709
1273.057, 137.9653
1273.539, 138.0894
1274.021, 138.0002
1274.504, 137.6027
1274.986, 137.5136
1275.468, 138.1479
1275.950, 138.3604
1276.432, 137.5818
1276.914, 136.7208
1277.396, 137.5819
1277.878, 139.1038
1278.360, 139.5807
1278.843, 138.7244
1279.325, 138.1888
1279.807, 138.1325
1280.289, 138.1367
1280.771, 138.0694
1281.253, 138.0754
1281.735, 138.5149
1282.217, 138.9951
1282.700, 139.0309
1283.182, 138.6178
1283.664, 138.3096
1284.146, 138.1070
1284.628, 137.9916
1285.110, 137.9606
1285.592, 137.9938
1286.074, 138.3429
1286.557, 138.4975
1287.039, 137.6541
1287.521, 136.3089
1288.003, 136.6466
1288.485, 138.4744
1288.967, 139.3958
1289.449, 138.7878
1289.931, 138.1285
1290.413, 138.2094
1290.896, 138.6707
1291.378, 139.5610
1291.860, 140.4718
1292.342, 140.0587
1292.824, 138.7812
1293.306, 138.3608
1293.788, 139.1616
1294.270, 139.6925
1294.752, 138.9437
1295.235, 138.4028
1295.717, 138.5261
1296.199, 138.9404
1296.681, 139.2405
1297.163, 139.2714
1297.645, 138.4712
1298.127, 136.7805
1298.609, 136.0023
1299.092, 136.5875
1299.574, 137.2780
1300.056, 137.8089
1300.538, 138.2914
1301.020, 138.8748
1301.502, 139.4948
1301.984, 140.2038
1302.466, 140.9148
1302.948, 140.9841
1303.431, 140.2996
1303.913, 139.7933
1304.395, 139.6376
1304.877, 139.7510
##END=



