##NAMES=Foitite
##RRUFFID=R100088
##IDEAL CHEMISTRY=[box](Fe^2+^_2_Al)Al_6_(Si_6_O_18_)(BO_3_)_3_(OH)_3_OH
##LOCALITY=Oceanview mine, Chief Mountain, Pala District, San Diego County, California, USA
##OWNER=RRUFF
##SOURCE=Mark Mauthner
##DESCRIPTION=Elongated prismatic purple to black to green crystals
##STATUS=The identification of this mineral has been confirmed only by single crystal X-ray diffraction.
##URL=rruff.info/R100088
90.01007, 0.0000000E+00
90.49219, 45.53106
90.97430, 46.33078
91.45642, 46.61669
91.93854, 45.89418
92.42065, 44.80177
92.90277, 44.37984
93.38489, 44.80245
93.86700, 45.38120
94.34912, 45.28579
94.83124, 44.59231
95.31335, 43.73187
95.79547, 42.55217
96.27759, 41.31009
96.75970, 41.21844
97.24182, 42.86076
97.72394, 45.22252
98.20605, 46.19408
98.68817, 45.71349
99.17029, 44.32208
99.65240, 41.78554
100.1345, 37.92062
100.6166, 35.68662
101.0988, 36.20137
101.5809, 39.02982
102.0630, 40.43966
102.5451, 40.14542
103.0272, 38.96497
103.5093, 37.57257
103.9915, 35.61572
104.4736, 34.41803
104.9557, 34.60006
105.4378, 36.54806
105.9199, 37.67228
106.4020, 37.60022
106.8842, 36.89360
107.3663, 36.56070
107.8484, 37.17183
108.3305, 37.49923
108.8126, 37.11665
109.2947, 35.73426
109.7769, 34.11879
110.2590, 31.78959
110.7411, 29.13540
111.2232, 27.42698
111.7053, 27.54537
112.1874, 28.00640
112.6696, 28.14560
113.1517, 27.43226
113.6338, 26.89792
114.1159, 26.53907
114.5980, 26.40156
115.0801, 26.81015
115.5623, 28.92970
116.0444, 31.10233
116.5265, 32.04306
117.0086, 30.04057
117.4907, 27.96564
117.9728, 26.91702
118.4550, 26.95344
118.9371, 27.26075
119.4192, 28.27484
119.9013, 29.17771
120.3834, 28.90652
120.8655, 25.32345
121.3477, 21.48496
121.8298, 19.74163
122.3119, 20.51086
122.7940, 22.00405
123.2761, 23.50314
123.7582, 24.82507
124.2404, 25.56232
124.7225, 25.04754
125.2046, 23.98016
125.6867, 23.21333
126.1688, 22.88711
126.6509, 22.82913
127.1331, 22.84675
127.6152, 22.96228
128.0973, 23.28635
128.5794, 24.16311
129.0615, 25.31253
129.5436, 25.99121
130.0258, 25.78512
130.5079, 25.31240
130.9900, 25.78225
131.4721, 27.18989
131.9542, 28.77042
132.4363, 30.06778
132.9185, 31.04801
133.4006, 31.38266
133.8827, 30.45992
134.3648, 28.91125
134.8469, 29.14003
135.3290, 31.37201
135.8112, 34.40345
136.2933, 36.95400
136.7754, 39.01789
137.2575, 40.88356
137.7396, 42.49629
138.2217, 43.84834
138.7039, 45.78014
139.1860, 48.41175
139.6681, 51.44188
140.1502, 54.27901
140.6323, 56.56733
141.1144, 59.76001
141.5966, 64.85937
142.0787, 72.59348
142.5608, 78.83093
143.0429, 83.31901
143.5250, 86.45193
144.0071, 88.78653
144.4893, 89.26273
144.9714, 90.63291
145.4535, 94.40730
145.9356, 102.7849
146.4177, 109.2054
146.8998, 112.9716
147.3820, 114.6595
147.8641, 116.7394
148.3462, 118.7537
148.8283, 121.5619
149.3104, 125.6852
149.7925, 131.9348
150.2747, 138.4284
150.7568, 144.9646
151.2389, 151.5577
151.7210, 158.4198
152.2031, 165.3048
152.6852, 172.5313
153.1674, 180.3782
153.6495, 191.2996
154.1316, 200.2125
154.6137, 205.7221
155.0958, 207.7560
155.5779, 209.9914
156.0601, 213.5084
156.5422, 217.1204
157.0243, 219.7697
157.5064, 220.1227
157.9885, 220.5618
158.4706, 221.6733
158.9528, 223.5060
159.4349, 225.9063
159.9170, 229.5831
160.3991, 233.5865
160.8812, 236.8185
161.3633, 237.7763
161.8455, 238.8465
162.3276, 241.3275
162.8097, 245.6465
163.2918, 249.6670
163.7739, 252.1846
164.2560, 253.6039
164.7382, 253.4205
165.2203, 253.1751
165.7024, 253.4794
166.1845, 254.4238
166.6666, 256.1285
167.1487, 258.0781
167.6309, 260.3667
168.1130, 262.7299
168.5951, 264.5633
169.0772, 265.1478
169.5593, 265.3522
170.0414, 265.9743
170.5236, 267.3546
171.0057, 268.6921
171.4878, 269.4333
171.9699, 269.6766
172.4520, 269.7010
172.9341, 269.6034
173.4163, 269.4023
173.8984, 269.0921
174.3805, 268.5822
174.8626, 268.1016
175.3447, 268.0318
175.8268, 268.2514
176.3090, 268.1971
176.7911, 267.0380
177.2732, 265.4308
177.7553, 264.4939
178.2374, 264.7765
178.7195, 265.5332
179.2017, 265.7637
179.6838, 265.5262
180.1659, 265.3634
180.6480, 266.0743
181.1301, 267.1878
181.6122, 267.5357
182.0944, 266.2420
182.5765, 264.4043
183.0586, 264.1793
183.5407, 265.5483
184.0228, 266.8629
184.5049, 266.0090
184.9871, 263.6895
185.4692, 262.5410
185.9513, 264.1215
186.4334, 267.1219
186.9155, 268.3990
187.3976, 267.8542
187.8798, 266.6933
188.3619, 266.0461
188.8440, 265.8439
189.3261, 265.6825
189.8082, 265.3173
190.2903, 264.8862
190.7725, 264.8815
191.2546, 265.3195
191.7367, 266.0925
192.2188, 267.4532
192.7009, 269.3475
193.1830, 270.4638
193.6652, 269.9956
194.1473, 268.2231
194.6294, 266.7054
195.1115, 265.2880
195.5936, 264.6122
196.0757, 265.9891
196.5579, 269.4962
197.0400, 272.7357
197.5221, 274.5493
198.0042, 275.0514
198.4863, 276.0909
198.9684, 277.7252
199.4506, 279.7687
199.9327, 282.0406
200.4148, 284.5947
200.8969, 286.9792
201.3790, 288.6899
201.8611, 289.6524
202.3433, 292.1124
202.8254, 296.5058
203.3075, 301.7047
203.7896, 305.4877
204.2717, 307.4977
204.7538, 309.9808
205.2360, 314.3159
205.7181, 320.8513
206.2002, 325.8239
206.6823, 328.7475
207.1644, 330.6940
207.6465, 333.4890
208.1287, 337.0531
208.6108, 341.6198
209.0929, 347.7720
209.5750, 356.1214
210.0571, 362.7323
210.5392, 367.0598
211.0214, 370.2081
211.5035, 374.4598
211.9856, 379.9846
212.4677, 386.0311
212.9498, 392.2687
213.4319, 398.5609
213.9140, 405.3972
214.3962, 412.8621
214.8783, 420.8529
215.3604, 429.1553
215.8425, 438.2250
216.3246, 446.7321
216.8067, 453.9017
217.2889, 458.9688
217.7710, 465.1383
218.2531, 472.9019
218.7352, 481.5337
219.2173, 489.6927
219.6994, 497.8798
220.1816, 504.6666
220.6637, 509.3224
221.1458, 511.0996
221.6279, 513.0703
222.1100, 516.0267
222.5921, 518.9388
223.0743, 518.9734
223.5564, 515.1307
224.0385, 510.1934
224.5206, 505.6724
225.0027, 502.2965
225.4848, 497.2044
225.9670, 489.9318
226.4491, 481.1276
226.9312, 472.1494
227.4133, 462.5802
227.8954, 453.5923
228.3775, 445.9338
228.8597, 439.7396
229.3418, 434.2764
229.8239, 429.9677
230.3060, 426.2361
230.7881, 421.5672
231.2702, 415.3342
231.7524, 408.9811
232.2345, 403.1116
232.7166, 397.3138
233.1987, 392.7937
233.6808, 390.1023
234.1629, 388.5588
234.6451, 386.2212
235.1272, 382.4322
235.6093, 378.8737
236.0914, 376.3817
236.5735, 375.6392
237.0556, 374.4025
237.5378, 372.3818
238.0199, 369.9675
238.5020, 368.1535
238.9841, 367.1391
239.4662, 366.4124
239.9483, 365.8012
240.4305, 365.4638
240.9126, 364.9051
241.3947, 364.2365
241.8768, 363.3053
242.3589, 361.6173
242.8410, 358.5015
243.3232, 355.6447
243.8053, 353.9059
244.2874, 354.0733
244.7695, 353.3971
245.2516, 351.5631
245.7337, 349.0076
246.2159, 346.7372
246.6980, 345.0657
247.1801, 343.1856
247.6622, 340.7108
248.1443, 337.3408
248.6264, 334.1830
249.1086, 331.1259
249.5907, 328.3157
250.0728, 326.0947
250.5549, 324.7096
251.0370, 323.4977
251.5191, 322.2361
252.0013, 320.9601
252.4834, 319.5406
252.9655, 317.9891
253.4476, 316.2931
253.9297, 314.4316
254.4118, 312.4058
254.8940, 310.2393
255.3761, 307.8996
255.8582, 305.2930
256.3403, 302.8283
256.8224, 300.4431
257.3046, 298.2476
257.7867, 296.5589
258.2688, 295.6868
258.7509, 294.6328
259.2330, 292.8521
259.7151, 290.0040
260.1973, 288.5651
260.6794, 289.2791
261.1615, 290.7131
261.6436, 290.6928
262.1257, 288.7039
262.6078, 286.4919
263.0900, 284.3783
263.5721, 282.2409
264.0542, 281.3832
264.5363, 282.4191
265.0184, 283.9815
265.5005, 284.3242
265.9827, 283.1747
266.4648, 281.5384
266.9469, 279.4202
267.4290, 276.7918
267.9111, 275.3505
268.3932, 275.6236
268.8754, 276.2803
269.3575, 275.6618
269.8396, 273.3258
270.3217, 271.3411
270.8038, 270.3577
271.2859, 270.2990
271.7681, 269.7689
272.2502, 268.6664
272.7323, 267.3084
273.2144, 266.0956
273.6965, 265.1054
274.1786, 263.8017
274.6608, 261.9448
275.1429, 259.6436
275.6250, 257.6310
276.1071, 255.9494
276.5892, 254.4421
277.0714, 253.1083
277.5535, 251.9919
278.0356, 250.5424
278.5177, 248.4335
278.9998, 245.9715
279.4819, 244.7123
279.9641, 244.9776
280.4462, 245.0641
280.9283, 243.2798
281.4104, 239.5639
281.8925, 236.4914
282.3746, 234.6018
282.8568, 233.4935
283.3389, 232.0344
283.8210, 230.1835
284.3031, 228.2854
284.7852, 226.5844
285.2673, 225.0799
285.7495, 223.4602
286.2316, 221.5261
286.7137, 219.6814
287.1958, 219.0426
287.6779, 219.6501
288.1600, 220.1216
288.6422, 219.5368
289.1243, 218.0007
289.6064, 216.3162
290.0885, 214.4849
290.5706, 212.6408
291.0527, 210.7406
291.5349, 208.8371
292.0170, 207.6830
292.4991, 208.4400
292.9812, 210.4085
293.4633, 210.7835
293.9454, 209.1722
294.4276, 207.0478
294.9097, 206.3861
295.3918, 206.9709
295.8739, 207.6943
296.3560, 208.1365
296.8381, 208.3201
297.3203, 208.1419
297.8024, 207.5471
298.2845, 207.0719
298.7666, 207.5285
299.2487, 208.6158
299.7308, 209.4204
300.2130, 209.0885
300.6951, 208.4241
301.1772, 208.9373
301.6593, 210.6211
302.1414, 212.3771
302.6235, 213.0936
303.1057, 213.1884
303.5878, 213.4825
304.0699, 214.3598
304.5520, 215.4935
305.0341, 216.6848
305.5162, 217.8885
305.9984, 218.7492
306.4805, 218.3758
306.9626, 217.6554
307.4447, 217.9444
307.9268, 220.3465
308.4089, 222.8810
308.8911, 223.3506
309.3732, 222.2752
309.8553, 221.8015
310.3374, 223.8360
310.8195, 226.7973
311.3016, 229.1356
311.7838, 230.5069
312.2659, 231.2504
312.7480, 230.7695
313.2301, 229.7414
313.7122, 229.8264
314.1943, 233.2166
314.6765, 237.0998
315.1586, 239.3563
315.6407, 239.2820
316.1228, 239.0074
316.6049, 239.5615
317.0870, 240.5735
317.5692, 241.4230
318.0513, 241.6544
318.5334, 241.8639
319.0155, 242.4100
319.4976, 243.3929
319.9797, 244.1940
320.4619, 244.3756
320.9440, 244.3456
321.4261, 244.5582
321.9082, 245.1620
322.3903, 245.9811
322.8724, 246.9508
323.3546, 248.0680
323.8367, 249.4257
324.3188, 251.4657
324.8009, 253.5360
325.2830, 255.1181
325.7651, 255.3098
326.2473, 255.9714
326.7294, 257.6288
327.2115, 260.1420
327.6936, 262.3696
328.1757, 264.3606
328.6578, 265.9501
329.1400, 267.0487
329.6221, 267.0697
330.1042, 267.3718
330.5863, 267.9625
331.0684, 268.8399
331.5505, 269.9907
332.0327, 271.5256
332.5148, 273.2065
332.9969, 275.0299
333.4790, 277.2048
333.9611, 278.8243
334.4432, 279.7264
334.9254, 280.1650
335.4075, 280.5175
335.8896, 280.6688
336.3717, 280.9671
336.8538, 281.4648
337.3359, 282.1449
337.8180, 283.3942
338.3001, 285.5092
338.7823, 287.7429
339.2644, 289.0307
339.7465, 289.0441
340.2286, 289.6657
340.7107, 291.7119
341.1928, 294.8353
341.6750, 296.1522
342.1571, 295.2743
342.6392, 294.1052
343.1213, 294.2097
343.6034, 295.5972
344.0855, 297.4019
344.5677, 299.6704
345.0498, 302.0595
345.5319, 303.5597
346.0140, 304.1441
346.4961, 304.6063
346.9782, 305.5454
347.4604, 306.8394
347.9425, 307.7672
348.4246, 308.1791
348.9067, 308.5088
349.3888, 309.3846
349.8709, 310.7505
350.3531, 312.2817
350.8352, 313.6203
351.3173, 315.0512
351.7994, 317.2110
352.2815, 320.1408
352.7636, 323.4709
353.2458, 326.8998
353.7279, 330.4618
354.2100, 334.2237
354.6921, 337.9438
355.1742, 342.0341
355.6563, 347.4125
356.1385, 353.9076
356.6206, 359.9885
357.1027, 363.6732
357.5848, 366.6808
358.0669, 371.1685
358.5490, 378.3666
359.0312, 386.1457
359.5133, 393.0482
359.9954, 399.4350
360.4775, 406.5160
360.9596, 415.6324
361.4417, 425.1281
361.9239, 433.7985
362.4060, 440.9840
362.8881, 448.7142
363.3702, 457.7706
363.8523, 467.8405
364.3344, 478.4462
364.8166, 488.8689
365.2987, 500.4242
365.7808, 513.6359
366.2629, 528.8127
366.7450, 544.1494
367.2271, 559.9116
367.7093, 575.4537
368.1914, 590.2090
368.6735, 604.2634
369.1556, 617.4965
369.6377, 630.1857
370.1198, 642.2492
370.6020, 651.8215
371.0841, 659.6893
371.5662, 664.3541
372.0483, 664.9564
372.5304, 660.9451
373.0125, 653.8720
373.4947, 643.4515
373.9768, 630.1876
374.4589, 614.8506
374.9410, 596.7332
375.4231, 577.8788
375.9052, 558.4789
376.3874, 538.1383
376.8695, 520.0454
377.3516, 504.5079
377.8337, 490.3959
378.3158, 475.5674
378.7979, 459.6795
379.2801, 445.3247
379.7622, 433.2946
380.2443, 423.2869
380.7264, 413.4702
381.2085, 403.8669
381.6906, 394.6233
382.1728, 385.7247
382.6549, 377.1773
383.1370, 369.5883
383.6191, 363.0261
384.1012, 357.3783
384.5833, 352.5269
385.0655, 348.4088
385.5476, 344.5730
386.0297, 340.6685
386.5118, 336.8317
386.9939, 333.3077
387.4760, 330.1867
387.9582, 327.0428
388.4403, 322.9550
388.9224, 318.5223
389.4045, 315.0077
389.8866, 313.4936
390.3687, 312.6830
390.8509, 311.3712
391.3330, 309.6375
391.8151, 308.4176
392.2972, 308.7160
392.7793, 309.6016
393.2614, 310.2116
393.7436, 310.4506
394.2257, 310.1867
394.7078, 308.7661
395.1899, 306.7392
395.6720, 305.5512
396.1541, 306.4268
396.6363, 307.6382
397.1184, 308.3204
397.6005, 308.1365
398.0826, 308.2127
398.5647, 308.9434
399.0468, 309.9486
399.5290, 310.7675
400.0111, 310.7452
400.4932, 311.2185
400.9753, 312.6208
401.4574, 314.9544
401.9395, 316.9433
402.4217, 318.6645
402.9038, 319.9759
403.3859, 320.6584
403.8680, 320.1660
404.3501, 320.3882
404.8322, 321.7080
405.3144, 323.6956
405.7965, 325.3491
406.2786, 326.8626
406.7607, 327.4278
407.2428, 326.1370
407.7249, 322.8839
408.2071, 321.5441
408.6892, 322.6003
409.1713, 324.1187
409.6534, 323.6849
410.1355, 321.3623
410.6176, 318.4884
411.0998, 315.3694
411.5819, 311.9922
412.0640, 308.1900
412.5461, 304.0109
413.0282, 299.8266
413.5103, 295.7601
413.9925, 291.9687
414.4746, 289.0115
414.9567, 287.3818
415.4388, 285.3785
415.9209, 280.5851
416.4030, 273.9704
416.8852, 267.8014
417.3673, 263.3640
417.8494, 259.8393
418.3315, 256.6010
418.8136, 253.6426
419.2957, 250.8715
419.7779, 248.1117
420.2600, 245.5905
420.7421, 243.5822
421.2242, 242.8851
421.7063, 241.9356
422.1884, 239.9826
422.6706, 237.3062
423.1527, 234.8839
423.6348, 233.1961
424.1169, 231.6403
424.5990, 229.8878
425.0811, 227.6904
425.5633, 225.8493
426.0454, 224.5426
426.5275, 223.5430
427.0096, 222.5615
427.4917, 221.6631
427.9738, 220.6938
428.4560, 219.6122
428.9381, 218.4134
429.4202, 217.1569
429.9023, 215.7065
430.3844, 214.4705
430.8665, 214.0173
431.3487, 214.6313
431.8308, 214.0998
432.3129, 211.8281
432.7950, 208.8481
433.2771, 207.4655
433.7592, 207.7483
434.2414, 208.1451
434.7235, 207.6982
435.2056, 206.7485
435.6877, 206.9516
436.1698, 208.4030
436.6519, 209.7900
437.1341, 209.5000
437.6162, 208.0934
438.0983, 207.0286
438.5804, 206.7616
439.0625, 206.9163
439.5446, 207.2041
440.0268, 207.5857
440.5089, 207.9126
440.9910, 207.9826
441.4731, 208.0305
441.9552, 208.2991
442.4373, 208.8540
442.9195, 209.4095
443.4016, 210.0336
443.8837, 210.5079
444.3658, 210.5660
444.8479, 209.8122
445.3300, 208.9507
445.8122, 208.0280
446.2943, 207.1063
446.7764, 206.5987
447.2585, 206.7009
447.7406, 207.1270
448.2227, 207.8545
448.7049, 209.7309
449.1870, 210.2127
449.6691, 208.5438
450.1512, 205.8520
450.6333, 203.8554
451.1154, 202.4574
451.5976, 201.9778
452.0797, 202.8587
452.5618, 204.9532
453.0439, 205.9709
453.5260, 205.6839
454.0081, 204.9783
454.4903, 204.5301
454.9724, 204.3377
455.4545, 203.9897
455.9366, 203.4021
456.4187, 202.7196
456.9008, 202.2144
457.3830, 201.8589
457.8651, 201.4941
458.3472, 201.1795
458.8293, 200.7587
459.3114, 199.4939
459.7935, 197.4159
460.2757, 196.1663
460.7578, 198.2697
461.2399, 201.6737
461.7220, 203.3781
462.2041, 201.7248
462.6862, 199.7305
463.1684, 199.6830
463.6505, 200.7946
464.1326, 201.2450
464.6147, 199.1482
465.0968, 197.1526
465.5789, 196.9813
466.0611, 199.0809
466.5432, 200.3532
467.0253, 199.3274
467.5074, 197.6688
467.9895, 196.7742
468.4716, 197.3799
468.9538, 197.9122
469.4359, 198.3960
469.9180, 198.7384
470.4001, 198.5449
470.8822, 197.3965
471.3643, 196.4650
471.8465, 196.2316
472.3286, 196.7413
472.8107, 197.7523
473.2928, 199.6589
473.7749, 201.0967
474.2570, 199.7527
474.7392, 195.6604
475.2213, 193.3839
475.7034, 194.4738
476.1855, 197.2580
476.6676, 198.0431
477.1497, 197.0630
477.6319, 196.4988
478.1140, 198.3272
478.5961, 201.2075
479.0782, 202.8632
479.5603, 203.0930
480.0424, 202.7996
480.5246, 202.1689
481.0067, 201.6215
481.4888, 201.7706
481.9709, 203.3714
482.4530, 205.0669
482.9352, 206.2519
483.4173, 206.9834
483.8994, 207.4427
484.3815, 207.2130
484.8636, 207.1168
485.3457, 207.6121
485.8279, 208.9112
486.3100, 210.1185
486.7921, 211.1419
487.2742, 212.0494
487.7563, 212.8901
488.2384, 213.5121
488.7206, 214.3640
489.2027, 215.6655
489.6848, 217.2078
490.1669, 218.2231
490.6490, 218.6382
491.1311, 218.7249
491.6133, 218.3828
492.0954, 217.6279
492.5775, 217.7174
493.0596, 218.7811
493.5417, 220.1507
494.0238, 221.1534
494.5060, 221.8430
494.9881, 222.4887
495.4702, 223.2797
495.9523, 223.8504
496.4344, 223.3394
496.9165, 222.0462
497.3987, 221.0997
497.8808, 221.5481
498.3629, 222.3821
498.8450, 222.4981
499.3271, 221.7748
499.8092, 221.2878
500.2914, 222.3393
500.7735, 223.5435
501.2556, 223.5912
501.7377, 220.7669
502.2198, 218.4304
502.7019, 217.5267
503.1841, 217.6432
503.6662, 217.6385
504.1483, 217.3734
504.6304, 217.0251
505.1125, 216.5853
505.5946, 216.0273
506.0768, 215.7995
506.5589, 216.2368
507.0410, 216.5138
507.5231, 215.7515
508.0052, 213.7027
508.4873, 212.3169
508.9695, 211.9399
509.4516, 212.1495
509.9337, 212.3740
510.4158, 212.5909
510.8979, 212.3598
511.3800, 211.1841
511.8622, 209.5184
512.3443, 208.2774
512.8264, 207.4701
513.3085, 207.0936
513.7906, 207.7844
514.2728, 208.6680
514.7549, 208.5253
515.2370, 206.9138
515.7191, 204.9072
516.2012, 202.5687
516.6833, 200.4082
517.1655, 199.1674
517.6476, 200.2440
518.1297, 201.1337
518.6118, 200.7785
519.0939, 199.2855
519.5760, 198.0916
520.0582, 198.1956
520.5403, 197.9103
521.0224, 196.2365
521.5045, 191.9466
521.9866, 189.9994
522.4688, 191.4931
522.9509, 194.1159
523.4330, 195.0125
523.9151, 193.9115
524.3972, 192.5210
524.8793, 191.0771
525.3615, 189.6909
525.8436, 188.6240
526.3257, 187.8727
526.8078, 187.3875
527.2899, 187.2275
527.7720, 187.2918
528.2542, 187.3509
528.7363, 187.3936
529.2184, 187.4936
529.7005, 187.7166
530.1826, 188.0338
530.6647, 188.4297
531.1469, 189.0229
531.6290, 189.4826
532.1111, 189.7925
532.5932, 189.8218
533.0753, 189.3061
533.5574, 187.3731
534.0396, 185.6437
534.5217, 184.5720
535.0038, 184.1980
535.4859, 184.5458
535.9680, 186.6592
536.4501, 188.4550
536.9323, 188.5505
537.4144, 185.9389
537.8965, 184.5596
538.3786, 184.9462
538.8607, 185.9538
539.3428, 185.6389
539.8250, 183.8596
540.3071, 182.7457
540.7892, 183.2116
541.2713, 184.4954
541.7534, 184.5396
542.2355, 183.4682
542.7177, 182.5887
543.1998, 183.0183
543.6819, 184.0587
544.1640, 184.7323
544.6461, 184.9744
545.1282, 184.7414
545.6104, 183.3749
546.0925, 181.7678
546.5746, 180.9403
547.0567, 181.5890
547.5388, 182.4665
548.0209, 183.4063
548.5031, 184.2642
548.9852, 184.7461
549.4673, 184.5160
549.9494, 184.2060
550.4315, 183.9720
550.9136, 183.8135
551.3958, 183.5248
551.8779, 182.8454
552.3600, 182.4761
552.8421, 183.1316
553.3242, 185.0208
553.8063, 185.7803
554.2885, 185.0485
554.7706, 183.9082
555.2527, 183.8849
555.7348, 184.8119
556.2169, 185.6516
556.6990, 186.0654
557.1812, 186.2646
557.6633, 186.5208
558.1454, 186.8132
558.6275, 187.0648
559.1096, 187.1012
559.5917, 187.1673
560.0739, 187.6029
560.5560, 188.4418
561.0381, 188.9424
561.5202, 188.5925
562.0023, 187.9131
562.4844, 187.2652
562.9666, 186.3994
563.4487, 186.0352
563.9308, 186.3788
564.4129, 187.1519
564.8950, 188.0338
565.3771, 189.3466
565.8593, 189.9747
566.3414, 189.4231
566.8235, 188.0232
567.3056, 187.2469
567.7877, 187.1407
568.2698, 187.3516
568.7520, 187.7792
569.2341, 188.3621
569.7162, 189.0159
570.1983, 189.7619
570.6804, 190.1218
571.1625, 189.2743
571.6447, 187.8332
572.1268, 186.7539
572.6089, 186.2052
573.0910, 186.1769
573.5731, 187.2038
574.0552, 188.6573
574.5374, 189.4595
575.0195, 188.6702
575.5016, 187.7654
575.9837, 187.0625
576.4658, 186.6060
576.9479, 186.6833
577.4301, 187.7939
577.9122, 188.8460
578.3943, 189.3315
578.8764, 189.1128
579.3585, 189.1642
579.8406, 189.6757
580.3228, 190.0333
580.8049, 189.3230
581.2870, 187.6341
581.7691, 186.5146
582.2512, 186.2082
582.7333, 186.6367
583.2155, 188.2323
583.6975, 190.5459
584.1796, 192.2450
584.6617, 192.1947
585.1439, 191.6037
585.6260, 191.7445
586.1081, 192.3997
586.5902, 192.4656
587.0723, 190.4575
587.5544, 188.4731
588.0366, 187.8037
588.5187, 188.9131
589.0008, 189.9299
589.4829, 190.8316
589.9650, 191.4260
590.4471, 191.5213
590.9293, 190.8570
591.4114, 190.2795
591.8935, 189.7897
592.3756, 189.4641
592.8577, 189.5382
593.3398, 190.0426
593.8220, 190.4041
594.3041, 190.3369
594.7862, 190.0837
595.2683, 190.3393
595.7504, 191.0170
596.2325, 191.4964
596.7147, 190.9428
597.1968, 190.2183
597.6789, 190.5121
598.1610, 191.9274
598.6431, 193.1402
599.1252, 193.4189
599.6074, 193.1689
600.0895, 192.6767
600.5716, 191.6607
601.0537, 190.9915
601.5358, 190.9538
602.0179, 191.2788
602.5001, 191.6358
602.9822, 191.9907
603.4643, 192.4780
603.9464, 193.3056
604.4285, 194.2063
604.9106, 194.1136
605.3928, 192.8906
605.8749, 191.9020
606.3570, 191.9225
606.8391, 192.6900
607.3212, 193.4806
607.8033, 194.2808
608.2855, 194.8411
608.7676, 194.5272
609.2497, 194.0413
609.7318, 194.4626
610.2139, 196.1861
610.6960, 197.6517
611.1782, 197.9340
611.6603, 197.5462
612.1424, 197.0336
612.6245, 195.9217
613.1066, 195.4190
613.5887, 195.9255
614.0709, 197.0871
614.5530, 198.3010
615.0351, 199.7391
615.5172, 200.7719
615.9993, 200.9690
616.4814, 200.6279
616.9636, 201.5548
617.4457, 203.8522
617.9278, 206.2059
618.4099, 207.7893
618.8920, 208.7731
619.3741, 209.4496
619.8563, 209.8257
620.3384, 210.5959
620.8205, 212.7970
621.3026, 215.5190
621.7847, 217.5797
622.2668, 218.4848
622.7490, 219.4613
623.2311, 220.8475
623.7132, 222.6965
624.1953, 225.0766
624.6774, 228.6253
625.1595, 231.9291
625.6417, 234.5429
626.1238, 236.8550
626.6059, 240.0303
627.0880, 244.4823
627.5701, 248.6008
628.0522, 251.7390
628.5344, 254.0829
629.0165, 256.4628
629.4986, 258.8759
629.9807, 261.4710
630.4628, 264.9006
630.9449, 268.4226
631.4271, 270.6316
631.9092, 271.3963
632.3913, 271.5169
632.8734, 271.5409
633.3555, 271.2292
633.8376, 270.3155
634.3198, 268.6194
634.8019, 266.5728
635.2840, 263.7807
635.7661, 260.8825
636.2482, 258.7740
636.7303, 258.3115
637.2125, 257.1875
637.6946, 254.7339
638.1767, 251.5690
638.6588, 249.6542
639.1409, 249.2317
639.6230, 248.2566
640.1052, 245.6282
640.5873, 241.9353
641.0694, 238.8232
641.5515, 236.2682
642.0336, 234.2783
642.5157, 232.9907
642.9979, 232.1904
643.4800, 231.9523
643.9621, 232.3251
644.4442, 232.0182
644.9263, 229.4309
645.4084, 226.4698
645.8906, 224.7226
646.3727, 225.2093
646.8548, 225.4983
647.3369, 225.4255
647.8190, 225.1033
648.3011, 224.6265
648.7833, 223.9043
649.2654, 223.3445
649.7475, 223.1379
650.2296, 222.9476
650.7117, 221.7609
651.1938, 219.6914
651.6760, 218.2498
652.1581, 218.3961
652.6402, 219.2432
653.1223, 219.5384
653.6044, 219.3633
654.0865, 219.0709
654.5687, 218.9812
655.0508, 218.7482
655.5329, 218.0003
656.0150, 216.6964
656.4971, 215.6881
656.9792, 215.2320
657.4614, 215.0801
657.9435, 215.1679
658.4256, 215.6897
658.9077, 215.7207
659.3898, 215.0867
659.8719, 214.2644
660.3541, 213.8268
660.8362, 213.7547
661.3183, 213.3460
661.8004, 212.4758
662.2825, 211.3375
662.7646, 210.1667
663.2468, 208.9302
663.7289, 207.5032
664.2110, 205.3778
664.6931, 203.6391
665.1752, 203.5013
665.6573, 204.3323
666.1395, 204.6272
666.6216, 203.6417
667.1037, 202.3594
667.5858, 200.9555
668.0679, 199.4676
668.5500, 198.1659
669.0322, 197.0262
669.5143, 196.0885
669.9964, 195.2580
670.4785, 194.5694
670.9606, 194.8197
671.4427, 196.1067
671.9249, 197.3645
672.4070, 197.7339
672.8891, 197.4564
673.3712, 197.0146
673.8533, 196.4508
674.3354, 195.7689
674.8176, 194.3779
675.2997, 193.1490
675.7818, 193.1347
676.2639, 195.5532
676.7460, 197.3297
677.2281, 197.4909
677.7103, 196.7347
678.1924, 195.7601
678.6745, 193.9135
679.1566, 193.3951
679.6387, 194.8913
680.1208, 197.5024
680.6030, 199.3808
681.0851, 200.4990
681.5672, 201.3235
682.0493, 201.8335
682.5314, 202.3079
683.0135, 203.1868
683.4957, 204.4415
683.9778, 205.9259
684.4599, 207.8264
684.9420, 209.7219
685.4241, 211.0878
685.9063, 211.9973
686.3884, 213.6963
686.8705, 217.4708
687.3526, 221.2066
687.8347, 223.8125
688.3168, 224.9922
688.7990, 227.1997
689.2811, 230.7378
689.7632, 234.7129
690.2453, 238.3993
690.7274, 241.8718
691.2095, 245.6599
691.6917, 249.7775
692.1738, 254.2767
692.6559, 259.2188
693.1380, 264.4768
693.6201, 269.8020
694.1022, 275.0935
694.5844, 280.5174
695.0665, 286.1450
695.5486, 291.9115
696.0307, 297.7587
696.5128, 304.1052
696.9949, 309.8398
697.4771, 314.3399
697.9592, 318.4081
698.4413, 323.7729
698.9234, 330.9635
699.4055, 337.3900
699.8876, 342.5028
700.3698, 346.3208
700.8519, 348.4837
701.3340, 349.1759
701.8161, 349.5302
702.2982, 350.6475
702.7803, 351.3952
703.2625, 350.3376
703.7446, 347.7048
704.2267, 344.7386
704.7088, 341.9704
705.1909, 338.9938
705.6730, 335.8935
706.1552, 332.7091
706.6373, 328.0164
707.1194, 321.1114
707.6015, 313.6465
708.0836, 306.4002
708.5657, 299.3795
709.0479, 293.0699
709.5300, 287.5995
710.0121, 282.0078
710.4942, 274.7775
710.9763, 266.8676
711.4584, 260.6076
711.9406, 256.5258
712.4227, 252.5479
712.9048, 246.5274
713.3869, 240.0802
713.8690, 235.0160
714.3511, 233.1486
714.8333, 230.2081
715.3154, 224.0310
715.7975, 217.1826
716.2796, 212.4325
716.7617, 210.5981
717.2438, 208.6003
717.7260, 206.0882
718.2081, 203.2864
718.6902, 200.5379
719.1723, 197.8443
719.6544, 195.3962
720.1365, 193.2606
720.6187, 191.3823
721.1008, 189.5507
721.5829, 187.9153
722.0650, 186.7815
722.5471, 187.0707
723.0292, 187.1029
723.5114, 185.6721
723.9935, 183.2592
724.4756, 182.0477
724.9577, 183.0853
725.4398, 183.7829
725.9219, 183.2638
726.4041, 181.7734
726.8862, 180.6634
727.3683, 179.9239
727.8504, 179.5718
728.3325, 179.8271
728.8146, 180.4056
729.2968, 180.7631
729.7789, 180.8973
730.2610, 180.8184
730.7431, 180.2220
731.2252, 179.6488
731.7073, 179.5479
732.1895, 179.9948
732.6716, 180.4091
733.1537, 180.3070
733.6358, 180.4966
734.1179, 181.5044
734.6000, 183.5519
735.0822, 185.1071
735.5643, 186.1257
736.0464, 186.8303
736.5285, 187.1445
737.0106, 187.2796
737.4927, 188.0796
737.9749, 189.6573
738.4570, 191.6268
738.9391, 193.9785
739.4212, 196.3642
739.9033, 198.3809
740.3854, 199.9152
740.8676, 201.1626
741.3497, 201.6873
741.8318, 202.2312
742.3139, 203.5588
742.7960, 205.8794
743.2781, 208.4432
743.7603, 211.2389
744.2424, 214.1989
744.7245, 217.2005
745.2066, 220.2395
745.6887, 223.5137
746.1708, 227.0683
746.6530, 230.8906
747.1351, 235.5244
747.6172, 240.3185
748.0993, 244.0893
748.5814, 245.4872
749.0635, 246.8497
749.5457, 249.2662
750.0278, 252.1840
750.5099, 254.3484
750.9920, 255.4365
751.4741, 256.5354
751.9562, 258.3167
752.4384, 259.8635
752.9205, 258.2182
753.4026, 253.4768
753.8847, 249.2196
754.3668, 247.2193
754.8489, 246.0410
755.3311, 243.8399
755.8132, 240.7379
756.2953, 237.1633
756.7774, 232.2889
757.2595, 227.9556
757.7416, 225.6642
758.2238, 224.9277
758.7059, 222.5915
759.1880, 217.1931
759.6701, 212.3585
760.1522, 209.1693
760.6343, 207.4025
761.1165, 205.8456
761.5986, 204.5149
762.0807, 203.1742
762.5628, 201.6751
763.0449, 200.0889
763.5270, 198.6456
764.0092, 197.2811
764.4913, 195.6040
764.9734, 192.6040
765.4555, 189.9167
765.9376, 188.8290
766.4197, 189.3753
766.9019, 189.4004
767.3840, 188.6029
767.8661, 187.5281
768.3482, 186.2709
768.8303, 184.8510
769.3124, 184.1830
769.7946, 184.3481
770.2767, 184.3426
770.7588, 183.1356
771.2409, 181.3978
771.7230, 180.1859
772.2051, 179.5585
772.6873, 179.5843
773.1694, 181.1839
773.6515, 182.7736
774.1336, 183.3182
774.6157, 182.6127
775.0978, 181.3297
775.5800, 179.0578
776.0621, 176.8354
776.5442, 175.2324
777.0263, 174.2551
777.5084, 173.8112
777.9905, 173.9587
778.4727, 174.0522
778.9548, 173.4983
779.4369, 172.5288
779.9190, 171.3919
780.4011, 170.1029
780.8832, 169.2065
781.3654, 169.7853
781.8475, 170.3555
782.3296, 169.5616
782.8117, 166.3421
783.2938, 164.8522
783.7759, 166.0079
784.2581, 167.6240
784.7402, 167.9978
785.2223, 167.1303
785.7044, 166.3866
786.1865, 165.8315
786.6686, 165.3386
787.1508, 164.8397
787.6329, 164.3067
788.1150, 163.5289
788.5971, 162.3478
789.0792, 161.7743
789.5613, 163.2322
790.0435, 164.8680
790.5256, 165.0667
791.0077, 163.0207
791.4898, 161.4941
791.9719, 160.5670
792.4540, 160.0445
792.9362, 159.8932
793.4183, 160.0700
793.9004, 160.0397
794.3825, 159.7349
794.8646, 159.4689
795.3467, 159.7350
795.8289, 160.1432
796.3110, 160.1831
796.7931, 159.7611
797.2752, 159.0127
797.7573, 157.2092
798.2394, 155.6242
798.7216, 155.4014
799.2037, 157.3991
799.6858, 158.4015
800.1679, 158.1368
800.6500, 157.4909
801.1321, 157.2972
801.6143, 157.4873
802.0964, 157.7850
802.5785, 158.1825
803.0606, 158.4353
803.5427, 158.2279
804.0248, 157.8034
804.5070, 157.3637
804.9891, 156.8129
805.4712, 156.6663
805.9533, 157.5768
806.4354, 158.5289
806.9175, 158.7202
807.3997, 157.8943
807.8818, 157.4676
808.3639, 157.5561
808.8460, 157.7530
809.3281, 157.5242
809.8102, 157.0869
810.2924, 157.2014
810.7745, 158.0798
811.2566, 158.4561
811.7387, 156.5671
812.2208, 154.2987
812.7029, 153.4417
813.1851, 154.9493
813.6672, 156.0081
814.1493, 156.2462
814.6314, 156.2878
815.1135, 156.6009
815.5956, 157.1955
816.0778, 158.0399
816.5599, 159.2246
817.0420, 159.9347
817.5241, 158.7015
818.0062, 156.7441
818.4883, 156.0215
818.9705, 156.9099
819.4526, 158.0842
819.9347, 159.3531
820.4168, 160.3584
820.8989, 160.6930
821.3810, 160.0581
821.8632, 160.0480
822.3453, 160.8149
822.8274, 161.8803
823.3095, 162.8669
823.7916, 163.8118
824.2737, 164.8095
824.7559, 165.8666
825.2380, 167.1073
825.7201, 168.5905
826.2022, 170.3236
826.6843, 172.5356
827.1664, 175.3787
827.6486, 177.4028
828.1307, 177.1237
828.6128, 177.0345
829.0949, 178.3385
829.5770, 181.0847
830.0591, 184.6290
830.5413, 189.1976
831.0234, 193.0649
831.5055, 194.5769
831.9876, 194.6031
832.4697, 194.4364
832.9518, 194.2236
833.4340, 194.9559
833.9161, 197.8095
834.3982, 201.2945
834.8803, 204.9068
835.3624, 208.6326
835.8445, 210.6485
836.3267, 210.3649
836.8088, 209.5062
837.2909, 208.7633
837.7730, 208.1376
838.2551, 207.7785
838.7372, 207.6531
839.2194, 207.2072
839.7015, 205.5424
840.1836, 203.7821
840.6657, 203.5310
841.1478, 204.4353
841.6299, 204.2091
842.1121, 201.3107
842.5942, 198.0000
843.0763, 194.8521
843.5584, 191.9033
844.0405, 189.4833
844.5226, 187.6860
845.0048, 185.6923
845.4869, 182.8977
845.9690, 179.8725
846.4511, 177.6235
846.9332, 176.1096
847.4153, 175.2405
847.8975, 176.1263
848.3796, 176.4692
848.8617, 174.7040
849.3438, 171.4536
849.8259, 168.9285
850.3080, 167.3752
850.7902, 166.0869
851.2723, 164.9256
851.7544, 163.9473
852.2365, 163.4836
852.7186, 163.4086
853.2007, 162.9008
853.6829, 161.2661
854.1650, 159.7629
854.6471, 159.8342
855.1292, 160.7092
855.6113, 161.0913
856.0934, 160.0878
856.5756, 159.2716
857.0577, 158.8168
857.5398, 158.6308
858.0219, 158.7861
858.5040, 159.3442
858.9861, 158.8362
859.4683, 156.7324
859.9504, 154.5375
860.4325, 154.5871
860.9146, 155.7184
861.3967, 155.8951
861.8788, 154.2415
862.3610, 152.6287
862.8431, 151.8546
863.3252, 151.3864
863.8073, 150.7300
864.2894, 149.8125
864.7715, 148.8629
865.2537, 147.8106
865.7358, 146.9680
866.2179, 146.9967
866.7000, 147.4441
867.1821, 146.8200
867.6642, 144.9182
868.1464, 143.3547
868.6285, 143.5093
869.1106, 144.1869
869.5927, 144.4104
870.0748, 143.9071
870.5569, 144.0098
871.0391, 145.1358
871.5212, 146.1000
872.0033, 146.2257
872.4854, 145.5650
872.9675, 144.1997
873.4496, 142.1903
873.9318, 140.7839
874.4139, 141.3234
874.8960, 142.4565
875.3781, 143.0897
875.8602, 143.2167
876.3423, 143.1752
876.8245, 143.0293
877.3066, 142.7054
877.7887, 141.9869
878.2708, 141.1093
878.7529, 141.2701
879.2350, 142.4716
879.7172, 143.3593
880.1993, 143.2000
880.6814, 142.5920
881.1635, 142.4214
881.6456, 142.4106
882.1277, 141.9097
882.6099, 139.5637
883.0920, 138.0316
883.5741, 138.6633
884.0562, 140.2450
884.5383, 140.8310
885.0204, 140.2460
885.5026, 139.7570
885.9847, 139.5684
886.4668, 139.6051
886.9489, 139.9247
887.4310, 140.3628
887.9131, 140.5633
888.3953, 140.3651
888.8774, 140.1284
889.3595, 139.9043
889.8416, 139.7824
890.3237, 139.8625
890.8058, 140.2463
891.2880, 140.4638
891.7701, 140.4048
892.2522, 140.5181
892.7343, 141.6529
893.2164, 143.2277
893.6985, 143.4682
894.1807, 142.2494
894.6628, 141.0122
895.1449, 140.9304
895.6270, 140.9528
896.1091, 140.0913
896.5912, 138.1891
897.0734, 137.6729
897.5555, 139.1488
898.0376, 140.5771
898.5197, 140.9439
899.0018, 140.5236
899.4839, 140.2803
899.9661, 140.1546
900.4482, 139.8020
900.9303, 138.2763
901.4124, 137.1682
901.8945, 138.0943
902.3766, 140.3383
902.8588, 141.4433
903.3409, 140.2176
903.8230, 139.6644
904.3051, 140.5322
904.7872, 142.0907
905.2693, 143.0969
905.7515, 143.5358
906.2336, 143.2620
906.7157, 142.0190
907.1978, 140.6530
907.6799, 139.6142
908.1620, 138.9993
908.6442, 138.9466
909.1263, 139.9605
909.6084, 140.6961
910.0905, 140.9466
910.5726, 141.1460
911.0547, 141.9861
911.5369, 143.3243
912.0190, 143.1355
912.5011, 141.2427
912.9832, 139.6671
913.4653, 140.5051
913.9474, 142.1606
914.4296, 143.1374
914.9117, 143.2642
915.3938, 143.4473
915.8759, 144.1031
916.3580, 144.4283
916.8401, 143.9064
917.3223, 142.7721
917.8044, 142.5156
918.2865, 143.0855
918.7686, 143.6190
919.2507, 143.4915
919.7328, 143.2573
920.2150, 143.3123
920.6971, 143.6944
921.1792, 144.4956
921.6613, 146.4307
922.1434, 147.8905
922.6255, 148.6770
923.1077, 148.8771
923.5898, 148.5173
924.0719, 147.6289
924.5540, 146.5238
925.0361, 145.0550
925.5182, 144.2598
926.0004, 146.0738
926.4825, 148.7135
926.9646, 149.8838
927.4467, 148.3803
927.9288, 147.6280
928.4109, 148.3126
928.8931, 149.4290
929.3752, 150.5176
929.8573, 151.5623
930.3394, 151.4268
930.8215, 150.1139
931.3036, 148.9948
931.7858, 149.3867
932.2679, 150.2374
932.7500, 150.4212
933.2321, 150.0174
933.7142, 150.0103
934.1964, 151.0040
934.6785, 151.9092
935.1606, 152.4476
935.6427, 152.7165
936.1248, 152.9543
936.6069, 153.1662
937.0891, 153.3661
937.5712, 153.4644
938.0533, 153.7402
938.5354, 154.8147
939.0175, 156.1262
939.4996, 156.8306
939.9818, 156.0662
940.4639, 155.6495
940.9460, 155.6535
941.4281, 156.0161
941.9102, 157.0027
942.3923, 158.4558
942.8745, 158.6474
943.3566, 157.4159
943.8387, 156.2081
944.3208, 156.1670
944.8029, 156.7059
945.2850, 157.4368
945.7672, 158.3240
946.2493, 159.1341
946.7314, 159.8772
947.2135, 160.4783
947.6956, 160.7883
948.1777, 160.9911
948.6599, 162.0209
949.1420, 163.6644
949.6241, 164.6590
950.1062, 163.8190
950.5883, 162.8416
951.0704, 162.7486
951.5526, 163.3731
952.0347, 164.4569
952.5168, 166.3095
952.9989, 167.9023
953.4810, 169.1923
953.9631, 170.1385
954.4453, 170.5918
954.9274, 170.6534
955.4095, 170.5554
955.8916, 170.2952
956.3737, 170.3903
956.8558, 171.6056
957.3380, 172.9803
957.8201, 173.7483
958.3022, 173.8289
958.7843, 174.1358
959.2664, 174.8106
959.7485, 175.2449
960.2307, 174.9539
960.7128, 174.3408
961.1949, 174.3741
961.6770, 174.9297
962.1591, 175.5638
962.6412, 176.4811
963.1234, 176.9794
963.6055, 176.1965
964.0876, 175.0403
964.5697, 175.1762
965.0518, 177.0465
965.5339, 178.0538
966.0161, 177.7431
966.4982, 177.0323
966.9803, 176.7442
967.4624, 176.9069
967.9445, 177.7310
968.4266, 179.3538
968.9088, 180.7247
969.3909, 181.2702
969.8730, 181.6401
970.3551, 182.2889
970.8372, 183.1550
971.3193, 183.1062
971.8015, 182.1017
972.2836, 181.3290
972.7657, 181.7337
973.2478, 182.4672
973.7299, 182.3907
974.2120, 181.8454
974.6942, 181.6796
975.1763, 183.0213
975.6584, 183.4825
976.1405, 182.1847
976.6226, 180.5186
977.1047, 180.9477
977.5869, 183.1784
978.0690, 183.6205
978.5511, 181.5674
979.0332, 179.6357
979.5153, 180.3527
979.9974, 181.9881
980.4796, 183.0593
980.9617, 183.3530
981.4438, 183.1679
981.9259, 182.1430
982.4080, 181.4697
982.8901, 181.9126
983.3723, 182.9928
983.8544, 183.0608
984.3365, 182.3652
984.8186, 181.9389
985.3007, 182.4583
985.7828, 183.1809
986.2650, 184.0547
986.7471, 184.7796
987.2292, 184.7763
987.7113, 183.6107
988.1934, 183.4233
988.6755, 184.6080
989.1577, 185.9534
989.6398, 186.1212
990.1219, 185.5199
990.6040, 184.7070
991.0861, 183.7440
991.5682, 182.9722
992.0504, 182.4469
992.5325, 182.2632
993.0146, 182.5895
993.4967, 183.2868
993.9788, 183.6319
994.4609, 183.6279
994.9431, 183.2732
995.4252, 182.2771
995.9073, 181.3749
996.3894, 181.2996
996.8715, 181.8818
997.3536, 182.8421
997.8358, 184.9212
998.3179, 186.0896
998.8000, 185.9385
999.2821, 185.4424
999.7642, 185.6024
1000.246, 186.2704
1000.728, 186.4979
1001.211, 186.2672
1001.693, 186.3588
1002.175, 188.1478
1002.657, 189.6606
1003.139, 189.0270
1003.621, 186.6739
1004.103, 186.0338
1004.585, 187.5622
1005.068, 189.1452
1005.550, 190.3433
1006.032, 191.0504
1006.514, 190.7225
1006.996, 189.8721
1007.478, 189.6184
1007.960, 190.7021
1008.442, 191.3024
1008.924, 189.9849
1009.407, 188.7563
1009.889, 189.0802
1010.371, 191.0256
1010.853, 192.5166
1011.335, 193.5667
1011.817, 194.3722
1012.299, 194.9856
1012.781, 195.4995
1013.263, 195.9944
1013.746, 196.4651
1014.228, 196.8721
1014.710, 196.9081
1015.192, 197.5385
1015.674, 199.2546
1016.156, 201.0264
1016.638, 201.0123
1017.120, 199.7754
1017.603, 199.0943
1018.085, 199.3102
1018.567, 199.6807
1019.049, 199.7230
1019.531, 199.8094
1020.013, 200.3568
1020.495, 201.3246
1020.977, 201.4136
1021.459, 200.5093
1021.942, 199.7080
1022.424, 199.3845
1022.906, 199.6042
1023.388, 201.0872
1023.870, 203.0633
1024.352, 204.0238
1024.834, 202.2442
1025.316, 201.2886
1025.799, 202.0082
1026.281, 202.8925
1026.763, 201.9487
1027.245, 199.6256
1027.727, 198.9740
1028.209, 200.1109
1028.691, 201.4958
1029.173, 202.0223
1029.656, 202.4910
1030.138, 203.6037
1030.620, 205.1726
1031.102, 206.0742
1031.584, 206.0539
1032.066, 206.3394
1032.548, 207.1550
1033.030, 208.6075
1033.512, 211.7383
1033.995, 215.3234
1034.477, 216.9634
1034.959, 215.4711
1035.441, 214.5251
1035.923, 215.2426
1036.405, 216.4741
1036.887, 217.6593
1037.369, 218.8240
1037.851, 220.4368
1038.334, 222.4118
1038.816, 224.1670
1039.298, 225.0567
1039.780, 225.9325
1040.262, 227.3037
1040.744, 229.1046
1041.226, 231.2414
1041.708, 233.9792
1042.191, 236.1978
1042.673, 237.7112
1043.155, 239.2284
1043.637, 241.2084
1044.119, 243.8475
1044.601, 248.0543
1045.083, 253.7933
1045.565, 258.3146
1046.047, 259.4435
1046.530, 260.6393
1047.012, 263.0046
1047.494, 266.1386
1047.976, 268.9185
1048.458, 271.4344
1048.940, 274.2025
1049.422, 277.5657
1049.904, 280.6247
1050.386, 282.6780
1050.869, 284.1298
1051.351, 285.2299
1051.833, 285.8428
1052.315, 287.3481
1052.797, 290.0143
1053.279, 292.3483
1053.761, 293.2325
1054.243, 293.4340
1054.726, 294.5027
1055.208, 295.9889
1055.690, 296.7055
1056.172, 295.5969
1056.654, 294.5605
1057.136, 294.0711
1057.618, 293.5036
1058.100, 292.1553
1058.583, 290.0753
1059.065, 287.3736
1059.547, 284.0792
1060.029, 280.9641
1060.511, 278.6991
1060.993, 276.7408
1061.475, 274.8984
1061.957, 273.1030
1062.439, 271.1438
1062.922, 269.0233
1063.404, 266.7199
1063.886, 264.2395
1064.368, 261.5882
1064.850, 258.9362
1065.332, 256.0130
1065.814, 252.2435
1066.296, 247.1886
1066.778, 243.0414
1067.261, 240.4623
1067.743, 237.8682
1068.225, 234.1142
1068.707, 229.8783
1069.189, 228.0625
1069.671, 227.9421
1070.153, 226.8991
1070.635, 222.4406
1071.118, 218.6655
1071.600, 217.8996
1072.082, 218.2660
1072.564, 218.0047
1073.046, 217.0804
1073.528, 215.9032
1074.010, 214.4838
1074.492, 213.1470
1074.974, 211.9504
1075.457, 211.1251
1075.939, 211.0654
1076.421, 211.5876
1076.903, 212.0016
1077.385, 212.5773
1077.867, 211.9879
1078.349, 209.5765
1078.831, 207.1502
1079.313, 207.4743
1079.796, 209.3397
1080.278, 210.6324
1080.760, 211.0492
1081.242, 211.3191
1081.724, 211.8959
1082.206, 212.0566
1082.688, 211.2943
1083.170, 210.0658
1083.652, 210.0293
1084.135, 210.9409
1084.617, 211.6848
1085.099, 212.2514
1085.581, 211.6552
1086.063, 208.0584
1086.545, 203.9115
1087.027, 201.3787
1087.509, 200.6090
1087.992, 200.5414
1088.474, 201.2615
1088.956, 201.4019
1089.438, 199.7107
1089.920, 197.3840
1090.402, 195.4187
1090.884, 193.7974
1091.366, 192.5311
1091.849, 192.1258
1092.331, 190.9534
1092.813, 188.7260
1093.295, 186.2736
1093.777, 184.4445
1094.259, 182.9847
1094.741, 181.0990
1095.223, 178.9073
1095.705, 177.5125
1096.188, 178.4136
1096.670, 178.8460
1097.152, 177.9653
1097.634, 176.4126
1098.116, 175.3494
1098.598, 174.6677
1099.080, 173.7402
1099.562, 172.4353
1100.044, 171.1944
1100.527, 170.1959
1101.009, 169.4711
1101.491, 169.1993
1101.973, 169.2419
1102.455, 168.6801
1102.937, 167.4760
1103.419, 166.8021
1103.901, 167.4337
1104.384, 167.7815
1104.866, 165.5051
1105.348, 162.3679
1105.830, 160.4922
1106.312, 160.4676
1106.794, 160.5847
1107.276, 160.9660
1107.758, 161.0349
1108.240, 160.2336
1108.723, 159.1027
1109.205, 158.5198
1109.687, 158.3573
1110.169, 158.3116
1110.651, 158.5776
1111.133, 158.4982
1111.615, 157.9116
1112.097, 157.1842
1112.579, 156.3642
1113.062, 155.6932
1113.544, 156.5620
1114.026, 158.6869
1114.508, 159.9908
1114.990, 158.6035
1115.472, 157.1607
1115.954, 156.7646
1116.436, 156.7565
1116.919, 156.1287
1117.401, 154.9157
1117.883, 153.5533
1118.365, 152.0580
1118.847, 151.3443
1119.329, 153.2404
1119.811, 155.1255
1120.293, 154.8363
1120.776, 152.9036
1121.258, 151.6292
1121.740, 151.0757
1122.222, 150.5739
1122.704, 149.9403
1123.186, 149.4300
1123.668, 149.4356
1124.150, 149.6201
1124.632, 149.6687
1125.115, 149.5410
1125.597, 149.0580
1126.079, 148.0828
1126.561, 147.2058
1127.043, 146.6223
1127.525, 146.3186
1128.007, 146.3898
1128.489, 146.6802
1128.971, 146.9626
1129.454, 147.3138
1129.936, 147.1760
1130.418, 146.0116
1130.900, 145.3464
1131.382, 146.5999
1131.864, 148.7878
1132.346, 148.6358
1132.828, 146.8833
1133.311, 145.8819
1133.793, 147.7928
1134.275, 148.8574
1134.757, 147.8112
1135.239, 146.1551
1135.721, 145.1549
1136.203, 144.7214
1136.685, 143.9046
1137.167, 142.7757
1137.650, 142.1121
1138.132, 143.0311
1138.614, 143.7647
1139.096, 143.2253
1139.578, 142.1585
1140.060, 141.4763
1140.542, 141.1732
1141.024, 141.5817
1141.506, 142.7458
1141.989, 143.5339
1142.471, 142.3350
1142.953, 141.1699
1143.435, 141.8923
1143.917, 143.8270
1144.399, 144.4347
1144.881, 143.4531
1145.363, 143.2803
1145.846, 144.4961
1146.328, 145.5017
1146.810, 143.9070
1147.292, 141.8739
1147.774, 141.8039
1148.256, 143.8083
1148.738, 144.7105
1149.220, 144.2798
1149.703, 143.3762
1150.185, 142.0296
1150.667, 140.8796
1151.149, 141.0927
1151.631, 141.8608
1152.113, 141.9004
1152.595, 140.8049
1153.077, 140.8171
1153.559, 142.7002
1154.042, 143.9536
1154.524, 143.3698
1155.006, 141.8860
1155.488, 140.8295
1155.970, 140.2649
1156.452, 140.4396
1156.934, 141.7389
1157.416, 142.7890
1157.898, 143.5636
1158.381, 143.8135
1158.863, 143.0746
1159.345, 141.9052
1159.827, 142.4639
1160.309, 143.9350
1160.791, 143.9747
1161.273, 140.2337
1161.755, 137.7573
1162.238, 138.0488
1162.720, 139.1681
1163.202, 139.8594
1163.684, 140.1835
1164.166, 140.3988
1164.648, 140.5382
1165.130, 140.7422
1165.612, 141.2827
1166.094, 141.6277
1166.577, 141.4861
1167.059, 141.1930
1167.541, 141.0305
1168.023, 140.9945
1168.505, 141.1265
1168.987, 141.4049
1169.469, 141.6600
1169.951, 141.7591
1170.433, 141.8493
1170.916, 142.1620
1171.398, 142.3960
1171.880, 141.9597
1172.362, 140.9159
1172.844, 140.8195
1173.326, 141.7564
1173.808, 142.2847
1174.290, 140.5974
1174.773, 139.0385
1175.255, 139.4130
1175.737, 138.7292
1176.219, 138.8793
1176.701, 139.7813
1177.183, 140.0377
1177.665, 142.0294
1178.147, 143.6217
1178.630, 142.8630
1179.112, 141.3503
1179.594, 139.6333
1180.076, 138.1394
1180.558, 138.3617
1181.040, 140.4170
1181.522, 141.8515
1182.004, 142.1339
1182.486, 142.1795
1182.969, 142.9293
1183.451, 143.6792
1183.933, 143.8156
1184.415, 143.3840
1184.897, 142.8642
1185.379, 142.2515
1185.861, 141.4702
1186.343, 140.4061
1186.825, 139.5978
1187.308, 139.7211
1187.790, 140.2552
1188.272, 140.8049
1188.754, 141.3253
1189.236, 141.5879
1189.718, 141.5917
1190.200, 141.2823
1190.682, 140.4731
1191.165, 139.8414
1191.647, 140.5719
1192.129, 141.5726
1192.611, 141.4600
1193.093, 140.0178
1193.575, 139.3857
1194.057, 139.6419
1194.539, 140.1597
1195.021, 140.7881
1195.504, 141.3688
1195.986, 141.8137
1196.468, 142.0542
1196.950, 141.8691
1197.432, 141.0948
1197.914, 141.0511
1198.396, 141.8458
1198.878, 142.6741
1199.360, 143.3306
1199.843, 143.5488
1200.325, 142.3978
1200.807, 140.8870
1201.289, 140.6412
1201.771, 142.3012
1202.253, 142.8848
1202.735, 142.2343
1203.217, 141.5476
1203.700, 141.6386
1204.182, 141.0317
1204.664, 141.3642
1205.146, 140.5536
1205.628, 140.1399
1206.110, 140.2445
1206.592, 140.5708
1207.074, 141.1350
1207.557, 141.8281
1208.039, 142.7128
1208.521, 143.5586
1209.003, 144.3035
1209.485, 144.7744
1209.967, 144.5417
1210.449, 143.1122
1210.931, 142.4462
1211.413, 142.6152
1211.896, 143.0822
1212.378, 144.0310
1212.860, 144.6013
1213.342, 143.0935
1213.824, 140.7051
1214.306, 140.0702
1214.788, 141.9918
1215.270, 143.2975
1215.752, 143.8616
1216.235, 144.2635
1216.717, 145.3540
1217.199, 146.1330
1217.681, 144.9630
1218.163, 142.8563
1218.645, 142.2445
1219.127, 143.7505
1219.609, 144.5714
1220.092, 144.5634
1220.574, 144.1750
1221.056, 143.2411
1221.538, 142.5587
1222.020, 143.1003
1222.502, 144.4224
1222.984, 145.4806
1223.466, 146.2290
1223.948, 146.7293
1224.431, 146.9771
1224.913, 147.0768
1225.395, 147.1507
1225.877, 146.9061
1226.359, 146.6706
1226.841, 146.0459
1227.323, 145.3813
1227.805, 144.5684
1228.287, 144.6703
1228.770, 145.8108
1229.252, 146.8668
1229.734, 146.5227
1230.216, 146.1555
1230.698, 147.3114
1231.180, 149.0378
1231.662, 149.0713
1232.144, 147.2742
1232.627, 145.5583
1233.109, 144.0648
1233.591, 143.1805
1234.073, 143.7078
1234.555, 144.4033
1235.037, 144.2619
1235.519, 143.8002
1236.001, 144.0582
1236.484, 145.0341
1236.966, 146.0330
1237.448, 146.9848
1237.930, 147.4877
1238.412, 146.9631
1238.894, 146.2403
1239.376, 145.7044
1239.858, 145.3231
1240.340, 145.0048
1240.823, 144.7744
1241.305, 144.9749
1241.787, 145.6197
1242.269, 146.1839
1242.751, 146.4192
1243.233, 146.3810
1243.715, 145.9608
1244.197, 145.4181
1244.679, 144.9236
1245.162, 144.6178
1245.644, 145.6602
1246.126, 148.0392
1246.608, 149.7443
1247.090, 149.1878
1247.572, 148.4466
1248.054, 148.2222
1248.536, 148.1502
1249.019, 147.5235
1249.501, 146.6108
1249.983, 146.2612
1250.465, 146.5327
1250.947, 147.1143
1251.429, 148.3100
1251.911, 149.1691
1252.393, 149.3914
1252.875, 149.3964
1253.358, 149.6840
1253.840, 150.2142
1254.322, 151.1202
1254.804, 152.3046
1255.286, 152.8476
1255.768, 151.9225
1256.250, 151.3732
1256.732, 151.6034
1257.214, 151.9691
1257.697, 151.8035
1258.179, 151.1806
1258.661, 149.8352
1259.143, 147.9962
1259.625, 147.2862
1260.107, 148.3794
1260.589, 149.1766
1261.071, 149.3144
1261.554, 149.3849
1262.036, 150.2005
1262.518, 151.1713
1263.000, 151.5261
1263.482, 151.3843
1263.964, 151.5467
1264.446, 152.1378
1264.928, 152.6799
1265.411, 153.1424
1265.893, 153.2842
1266.375, 152.6160
1266.857, 151.7768
1267.339, 151.1797
1267.821, 150.9002
1268.303, 151.0703
1268.785, 151.7315
1269.267, 152.3679
1269.750, 152.9310
1270.232, 153.1852
1270.714, 152.5369
1271.196, 151.9579
1271.678, 152.3374
1272.160, 153.0713
1272.642, 153.1128
1273.124, 152.5285
1273.606, 152.2912
1274.089, 152.4667
1274.571, 152.7370
1275.053, 153.0587
1275.535, 153.2579
1276.017, 153.2874
1276.499, 153.1630
1276.981, 152.9006
1277.463, 152.5002
1277.946, 151.7922
1278.428, 150.8632
1278.910, 150.3234
1279.392, 150.8316
1279.874, 151.2342
1280.356, 151.3457
1280.838, 151.2531
1281.320, 150.6419
1281.802, 150.0774
1282.285, 151.1403
1282.767, 153.4401
1283.249, 155.0125
1283.731, 155.2363
1284.213, 154.7864
1284.695, 153.4991
1285.177, 152.3623
1285.659, 152.2779
1286.141, 152.8708
1286.624, 154.1566
1287.106, 155.6780
1287.588, 156.1431
1288.070, 155.2539
1288.552, 154.2617
1289.034, 153.1896
1289.516, 152.5123
1289.998, 153.1552
1290.481, 153.7776
1290.963, 152.7107
1291.445, 151.1925
1291.927, 151.4406
1292.409, 153.6007
1292.891, 154.9570
1293.373, 155.4674
1293.855, 155.5236
1294.338, 154.9713
1294.820, 154.4884
1295.302, 154.5599
1295.784, 154.7109
1296.266, 154.4512
1296.748, 153.8814
1297.230, 153.6350
1297.712, 153.7112
1298.194, 154.0512
1298.677, 154.7579
1299.159, 155.4661
1299.641, 156.1238
1300.123, 156.7416
1300.605, 157.4918
1301.087, 158.1087
1301.569, 157.7677
1302.051, 156.7718
1302.533, 155.8137
1303.016, 154.9136
##END=



