##NAMES=Foitite
##RRUFFID=R050495
##IDEAL CHEMISTRY=[box](Fe^2+^_2_Al)Al_6_(Si_6_O_18_)(BO_3_)_3_(OH)_3_OH
##LOCALITY=Coahuila Mountain, California, USA
##OWNER=RRUFF
##SOURCE=California Institute of Technology
##DESCRIPTION=Bluish black prismatic fragment
##STATUS=The identification of this mineral has been confirmed by X-ray diffraction and chemical analysis
##URL=rruff.info/R050495
##MEASURED CHEMISTRY=([box]_0.54_Na_0.46_)_Σ=1_(Fe^2+^_1.75_Al_0.85_Mg_0.18_Li_0.14_Mn_0.08_)_Σ=3_Al_6.00_(BO_3_)_3_(Si_5.83_Al_0.17_)_Σ=6_O_18_(OH)_4_ ; B and Li not measured but estimated by charge balance
93.56738, 201.6215
94.04950, 201.0813
94.53162, 202.1879
95.01373, 202.9886
95.49585, 204.4200
95.97797, 205.5148
96.46008, 204.9647
96.94220, 202.7487
97.42432, 200.8829
97.90643, 199.7806
98.38855, 198.8678
98.87067, 197.9160
99.35278, 196.8740
99.83490, 195.7744
100.3170, 194.6019
100.7991, 192.8657
101.2813, 191.1817
101.7634, 189.6729
102.2455, 188.2094
102.7276, 186.5140
103.2097, 184.3777
103.6918, 181.9839
104.1740, 180.5932
104.6561, 180.7102
105.1382, 180.9549
105.6203, 180.8281
106.1024, 180.3578
106.5845, 179.7894
107.0667, 179.2842
107.5488, 178.8020
108.0309, 178.1712
108.5130, 177.1033
108.9951, 175.9944
109.4772, 175.3315
109.9594, 175.2001
110.4415, 175.2669
110.9236, 175.3861
111.4057, 175.5153
111.8878, 175.5665
112.3699, 175.4415
112.8521, 175.1677
113.3342, 174.9688
113.8163, 174.8571
114.2984, 174.8201
114.7805, 174.9009
115.2626, 175.0638
115.7447, 175.2084
116.2269, 175.2390
116.7090, 175.1425
117.1911, 174.9619
117.6732, 174.5191
118.1553, 174.1306
118.6374, 173.9965
119.1196, 174.1450
119.6017, 174.4522
120.0838, 174.7261
120.5659, 175.0538
121.0480, 175.1765
121.5301, 174.8533
122.0123, 174.4147
122.4944, 174.2494
122.9765, 174.5242
123.4586, 175.0654
123.9407, 175.4044
124.4228, 175.4351
124.9050, 175.5219
125.3871, 175.9254
125.8692, 176.5187
126.3513, 176.8597
126.8334, 176.5909
127.3155, 176.0317
127.7977, 175.8572
128.2798, 176.2601
128.7619, 176.7694
129.2440, 176.9056
129.7261, 176.6025
130.2083, 176.3465
130.6904, 176.3971
131.1725, 176.6065
131.6546, 176.8673
132.1367, 177.1576
132.6188, 177.4553
133.1010, 177.7112
133.5831, 177.9344
134.0652, 178.0883
134.5473, 178.1218
135.0294, 178.0994
135.5115, 178.1051
135.9936, 178.1903
136.4758, 178.3523
136.9579, 178.5535
137.4400, 179.0923
137.9221, 179.3803
138.4042, 179.1022
138.8863, 178.4219
139.3685, 177.7096
139.8506, 177.2662
140.3327, 177.1026
140.8148, 177.2554
141.2969, 178.0561
141.7790, 178.8460
142.2612, 179.2353
142.7433, 179.2010
143.2254, 178.9849
143.7075, 178.8319
144.1896, 178.7576
144.6717, 178.6509
145.1539, 178.4037
145.6360, 178.1626
146.1181, 178.1606
146.6002, 178.4935
147.0823, 178.8466
147.5644, 178.7037
148.0466, 178.1371
148.5287, 177.7764
149.0108, 178.1199
149.4929, 178.9088
149.9750, 179.2492
150.4571, 178.7013
150.9393, 177.9949
151.4214, 177.7972
151.9035, 178.0778
152.3856, 178.3909
152.8677, 178.2642
153.3498, 177.6472
153.8320, 177.3822
154.3141, 178.1347
154.7962, 178.9251
155.2783, 179.2337
155.7604, 179.0024
156.2425, 178.5491
156.7247, 178.2957
157.2068, 178.3465
157.6889, 178.3438
158.1710, 178.1530
158.6531, 177.9789
159.1352, 178.0190
159.6174, 178.3150
160.0995, 178.7008
160.5816, 178.8355
161.0637, 178.4903
161.5458, 178.1743
162.0279, 177.7574
162.5101, 177.4252
162.9922, 177.4476
163.4743, 177.9501
163.9564, 178.7146
164.4385, 179.1056
164.9206, 179.0044
165.4028, 178.7236
165.8849, 178.0447
166.3670, 177.2336
166.8491, 176.8270
167.3312, 177.1661
167.8133, 177.9734
168.2955, 178.3759
168.7776, 178.1803
169.2597, 177.9314
169.7418, 177.8513
170.2239, 177.9298
170.7060, 178.1385
171.1882, 178.5994
171.6703, 179.1046
172.1524, 179.2479
172.6345, 178.8067
173.1166, 178.3029
173.5987, 178.2900
174.0809, 178.8288
174.5630, 179.2903
175.0451, 179.2494
175.5272, 179.0148
176.0093, 178.8574
176.4914, 178.8437
176.9736, 178.9514
177.4557, 179.2081
177.9378, 179.7648
178.4199, 180.0804
178.9020, 179.7165
179.3841, 179.1487
179.8663, 178.9043
180.3484, 179.2696
180.8305, 180.0071
181.3126, 180.3583
181.7947, 179.8884
182.2768, 179.6531
182.7590, 180.0201
183.2411, 180.6834
183.7232, 181.2628
184.2053, 181.5378
184.6874, 181.5582
185.1695, 181.6250
185.6517, 181.8377
186.1338, 181.9943
186.6159, 182.0080
187.0980, 181.9486
187.5801, 181.9155
188.0622, 181.9652
188.5444, 182.1024
189.0265, 182.4146
189.5086, 183.1377
189.9907, 183.7645
190.4728, 184.0569
190.9549, 184.1123
191.4371, 184.2027
191.9192, 184.5283
192.4013, 185.0681
192.8834, 185.4969
193.3655, 185.5139
193.8476, 185.7058
194.3298, 186.5808
194.8119, 188.0186
195.2940, 189.2797
195.7761, 189.7941
196.2582, 189.6462
196.7403, 189.7190
197.2225, 190.1697
197.7046, 190.7294
198.1867, 191.1639
198.6688, 191.4689
199.1509, 191.8401
199.6330, 192.4792
200.1152, 193.2746
200.5973, 193.9727
201.0794, 194.4616
201.5615, 194.8772
202.0436, 195.4061
202.5257, 196.0760
203.0079, 196.7195
203.4900, 197.1280
203.9721, 197.4702
204.4542, 197.9934
204.9363, 198.9013
205.4184, 199.9444
205.9006, 200.5702
206.3827, 200.5070
206.8648, 200.6578
207.3469, 201.5286
207.8290, 202.7738
208.3111, 203.9921
208.7933, 205.0044
209.2754, 205.8592
209.7575, 206.7034
210.2396, 207.5464
210.7217, 208.3575
211.2038, 209.1628
211.6860, 209.9280
212.1681, 210.5827
212.6502, 211.0565
213.1323, 211.4334
213.6144, 212.0870
214.0965, 213.2207
214.5787, 214.4127
215.0608, 215.6142
215.5429, 216.8157
216.0250, 218.0252
216.5071, 219.2638
216.9892, 220.4945
217.4713, 221.5335
217.9535, 222.1149
218.4356, 222.7741
218.9177, 223.6240
219.3998, 224.5930
219.8819, 225.6085
220.3640, 226.6496
220.8462, 227.6653
221.3283, 228.2935
221.8104, 228.1574
222.2925, 228.0791
222.7746, 228.2433
223.2567, 228.5804
223.7389, 228.9757
224.2210, 229.3807
224.7031, 229.7697
225.1852, 229.9779
225.6673, 229.7452
226.1494, 229.6588
226.6316, 230.1372
227.1137, 230.8943
227.5958, 231.2543
228.0779, 230.7855
228.5600, 229.7420
229.0421, 229.1409
229.5243, 229.0879
230.0064, 229.2351
230.4885, 229.6891
230.9706, 230.2793
231.4527, 230.4694
231.9348, 229.8846
232.4170, 228.8409
232.8991, 228.1695
233.3812, 227.9876
233.8633, 227.9105
234.3454, 227.8065
234.8275, 227.6634
235.3097, 227.4515
235.7918, 227.2356
236.2739, 226.8461
236.7560, 225.9861
237.2381, 224.4885
237.7202, 223.0384
238.2024, 222.1982
238.6845, 221.8677
239.1666, 221.3692
239.6487, 220.3972
240.1308, 219.2182
240.6129, 218.1560
241.0951, 217.2170
241.5772, 216.3697
242.0593, 215.6524
242.5414, 215.0494
243.0235, 214.3114
243.5056, 213.2244
243.9878, 212.1205
244.4699, 211.2954
244.9520, 210.7554
245.4341, 210.2980
245.9162, 209.7434
246.3983, 209.0927
246.8805, 208.5246
247.3626, 208.2677
247.8447, 207.9132
248.3268, 207.0661
248.8089, 205.7878
249.2910, 204.6115
249.7732, 204.1407
250.2553, 204.4121
250.7374, 204.3932
251.2195, 203.7361
251.7016, 203.0005
252.1837, 202.3982
252.6659, 201.9483
253.1480, 201.6073
253.6301, 201.3716
254.1122, 201.2486
254.5943, 201.1008
255.0764, 200.9870
255.5586, 200.7843
256.0407, 200.4008
256.5228, 199.8786
257.0049, 199.3382
257.4870, 198.8833
257.9691, 198.5165
258.4513, 198.1041
258.9334, 197.8222
259.4155, 197.3066
259.8976, 196.2362
260.3797, 194.8401
260.8618, 193.5888
261.3440, 192.8506
261.8261, 192.6029
262.3082, 192.2964
262.7903, 191.9544
263.2724, 191.5219
263.7545, 190.9793
264.2367, 190.3359
264.7188, 189.5728
265.2009, 188.6566
265.6830, 187.6326
266.1651, 186.9053
266.6472, 186.7003
267.1294, 186.5724
267.6115, 186.5956
268.0936, 186.6250
268.5757, 186.4347
269.0578, 185.8899
269.5399, 185.0874
270.0221, 184.4528
270.5042, 184.1642
270.9863, 183.8574
271.4684, 183.5451
271.9505, 183.1807
272.4326, 182.6668
272.9148, 181.9529
273.3969, 181.1542
273.8790, 180.5934
274.3611, 180.4621
274.8432, 180.3600
275.3253, 180.2769
275.8075, 180.2158
276.2896, 180.2025
276.7717, 180.2444
277.2538, 180.2826
277.7359, 180.2041
278.2180, 179.9165
278.7002, 179.6396
279.1823, 179.4362
279.6644, 179.2131
280.1465, 178.8161
280.6286, 178.2226
281.1107, 177.6403
281.5929, 177.3808
282.0750, 177.6381
282.5571, 177.7662
283.0392, 177.7584
283.5213, 177.6292
284.0034, 177.3535
284.4856, 176.9404
284.9677, 176.4734
285.4498, 176.0104
285.9319, 175.5207
286.4140, 175.3082
286.8961, 175.6492
287.3783, 176.0458
287.8604, 176.0908
288.3425, 175.8014
288.8246, 175.5302
289.3067, 175.5895
289.7888, 175.9933
290.2710, 176.3088
290.7531, 176.4414
291.2352, 176.5789
291.7173, 176.8542
292.1994, 177.2401
292.6815, 177.6031
293.1637, 177.8548
293.6458, 178.0085
294.1279, 178.1665
294.6100, 178.5621
295.0921, 178.7262
295.5742, 178.2098
296.0564, 177.2770
296.5385, 176.6560
297.0206, 176.7463
297.5027, 177.3301
297.9848, 177.7453
298.4669, 177.9307
298.9491, 178.0954
299.4312, 178.3930
299.9133, 178.7089
300.3954, 178.7600
300.8775, 178.3917
301.3596, 177.8889
301.8418, 177.8746
302.3239, 178.5250
302.8060, 178.9001
303.2881, 178.4468
303.7702, 177.6995
304.2523, 177.4370
304.7345, 177.8591
305.2166, 178.6192
305.6987, 179.4009
306.1808, 180.2397
306.6629, 180.6848
307.1451, 180.4240
307.6272, 179.8741
308.1093, 179.4336
308.5914, 179.1544
309.0735, 178.9624
309.5556, 178.8096
310.0378, 178.6967
310.5199, 178.5875
311.0020, 178.5248
311.4841, 178.4336
311.9662, 178.1734
312.4483, 177.7744
312.9305, 177.5535
313.4126, 177.8311
313.8947, 178.4329
314.3768, 178.5566
314.8589, 177.5954
315.3410, 176.8058
315.8232, 177.1257
316.3053, 178.2364
316.7874, 178.9682
317.2695, 178.6792
317.7516, 177.8134
318.2337, 177.4698
318.7159, 177.8021
319.1980, 178.1879
319.6801, 178.4362
320.1622, 178.5728
320.6443, 178.6297
321.1264, 178.5993
321.6086, 178.5452
322.0907, 178.5453
322.5728, 178.5767
323.0549, 178.7502
323.5370, 179.2246
324.0191, 179.8011
324.5013, 180.2341
324.9834, 180.4822
325.4655, 180.5989
325.9476, 180.6042
326.4297, 180.4978
326.9118, 180.4272
327.3940, 180.2207
327.8761, 180.1846
328.3582, 180.8016
328.8403, 182.0070
329.3224, 182.9471
329.8045, 182.8823
330.2867, 182.0070
330.7688, 181.7150
331.2509, 182.4116
331.7330, 183.2603
332.2151, 183.8240
332.6972, 184.1875
333.1794, 184.6617
333.6615, 185.4347
334.1436, 186.3545
334.6257, 187.0124
335.1078, 187.3832
335.5899, 187.6130
336.0721, 187.4343
336.5542, 187.2097
337.0363, 187.6765
337.5184, 189.1335
338.0005, 190.8799
338.4826, 191.8224
338.9648, 191.7428
339.4469, 191.8516
339.9290, 192.3477
340.4111, 193.0566
340.8932, 193.7864
341.3753, 194.5158
341.8574, 195.4066
342.3395, 196.6346
342.8217, 198.2473
343.3038, 199.8091
343.7859, 201.4080
344.2680, 202.8827
344.7501, 203.9584
345.2322, 204.7725
345.7144, 205.8891
346.1965, 207.7556
346.6786, 210.1679
347.1607, 211.8984
347.6428, 212.1968
348.1249, 212.8437
348.6071, 214.6667
349.0892, 217.0978
349.5713, 219.1519
350.0534, 220.4353
350.5355, 221.2835
351.0176, 222.3949
351.4998, 224.0083
351.9819, 225.4216
352.4640, 226.3777
352.9461, 227.2473
353.4282, 228.3920
353.9103, 229.8761
354.3925, 231.5237
354.8746, 233.1815
355.3567, 234.9086
355.8388, 236.2513
356.3209, 236.9853
356.8030, 237.5931
357.2852, 238.2392
357.7673, 238.9726
358.2494, 239.8705
358.7315, 241.0050
359.2136, 242.3430
359.6957, 243.4880
360.1779, 244.4924
360.6600, 245.2566
361.1421, 245.6590
361.6242, 245.8396
362.1063, 246.0120
362.5884, 246.2673
363.0706, 246.4933
363.5527, 246.4386
364.0348, 245.9576
364.5169, 245.3899
364.9990, 244.8246
365.4811, 244.1301
365.9633, 243.1494
366.4454, 241.8919
366.9275, 240.5386
367.4096, 239.2749
367.8917, 238.1092
368.3738, 237.0150
368.8560, 236.3307
369.3381, 235.3840
369.8202, 233.7455
370.3023, 231.6236
370.7844, 229.5030
371.2665, 227.6891
371.7487, 226.1463
372.2308, 224.6683
372.7129, 223.1257
373.1950, 221.8428
373.6771, 220.9762
374.1592, 220.3311
374.6414, 219.7617
375.1235, 219.2066
375.6056, 218.5877
376.0877, 217.7269
376.5698, 216.4549
377.0519, 215.4183
377.5341, 214.7852
378.0162, 214.2941
378.4983, 213.9339
378.9804, 213.6267
379.4625, 213.1308
379.9446, 212.0713
380.4268, 210.4779
380.9089, 209.4812
381.3910, 209.4685
381.8731, 209.6090
382.3552, 209.6728
382.8373, 209.6445
383.3195, 209.5015
383.8016, 209.2087
384.2837, 208.8388
384.7658, 208.5546
385.2479, 208.4024
385.7300, 208.1873
386.2122, 207.7235
386.6943, 207.2427
387.1764, 206.9885
387.6585, 207.0077
388.1406, 206.9926
388.6227, 206.5681
389.1049, 205.7738
389.5870, 205.2019
390.0691, 205.0674
390.5512, 205.0014
391.0333, 204.7516
391.5154, 204.3400
391.9976, 203.8412
392.4797, 203.1676
392.9618, 202.4656
393.4439, 201.9904
393.9260, 201.7460
394.4081, 201.7232
394.8903, 202.1905
395.3724, 202.7894
395.8545, 202.8722
396.3366, 202.1337
396.8187, 201.2970
397.3008, 201.0442
397.7830, 201.2033
398.2651, 200.9190
398.7472, 199.7426
399.2293, 198.3313
399.7114, 197.7489
400.1935, 198.0165
400.6757, 198.1200
401.1578, 197.5762
401.6399, 196.7979
402.1220, 196.3779
402.6041, 196.3824
403.0862, 196.3243
403.5684, 195.7716
404.0505, 194.7636
404.5326, 193.9346
405.0147, 193.3935
405.4968, 192.9199
405.9789, 192.4133
406.4611, 191.8911
406.9432, 191.4186
407.4253, 191.0293
407.9074, 190.6717
408.3895, 190.2324
408.8716, 189.7178
409.3538, 189.1039
409.8359, 188.2261
410.3180, 187.3453
410.8001, 186.7629
411.2822, 186.4867
411.7643, 186.2168
412.2465, 185.6195
412.7286, 184.6257
413.2107, 184.0561
413.6928, 184.4600
414.1749, 184.6340
414.6570, 183.9472
415.1392, 182.7807
415.6213, 181.8129
416.1034, 181.3915
416.5855, 181.3629
417.0676, 181.3418
417.5497, 181.4447
418.0319, 181.3364
418.5140, 180.8262
418.9961, 180.2502
419.4782, 179.8455
419.9603, 179.6447
420.4424, 179.5359
420.9246, 179.4179
421.4067, 179.2901
421.8888, 179.1676
422.3709, 179.0647
422.8530, 178.9509
423.3351, 178.8524
423.8173, 178.7297
424.2994, 178.5070
424.7815, 178.1323
425.2636, 177.6901
425.7457, 177.3152
426.2278, 176.9873
426.7100, 176.8107
427.1921, 176.9014
427.6742, 177.1017
428.1563, 177.3723
428.6384, 177.6943
429.1205, 177.8749
429.6027, 177.7374
430.0848, 177.3420
430.5669, 176.8511
431.0490, 176.1866
431.5311, 175.6579
432.0132, 175.5433
432.4954, 175.7217
432.9775, 176.0214
433.4596, 176.5551
433.9417, 177.0300
434.4238, 177.1579
434.9059, 176.9768
435.3881, 176.7050
435.8702, 176.4020
436.3523, 176.0813
436.8344, 175.7618
437.3165, 175.4412
437.7986, 175.1379
438.2808, 174.9179
438.7629, 174.6862
439.2450, 174.2793
439.7271, 173.6957
440.2092, 173.1756
440.6913, 172.9428
441.1735, 172.9788
441.6556, 172.8619
442.1377, 172.5037
442.6198, 172.1172
443.1019, 171.7939
443.5840, 171.4827
444.0662, 171.0775
444.5483, 170.5340
445.0304, 169.9570
445.5125, 169.5314
445.9946, 169.3700
446.4767, 169.1079
446.9589, 168.5721
447.4410, 168.0956
447.9231, 167.9016
448.4052, 167.9474
448.8873, 168.0626
449.3694, 168.1393
449.8516, 168.1652
450.3337, 168.0533
450.8158, 167.6818
451.2979, 167.3594
451.7800, 167.1521
452.2621, 167.0100
452.7443, 166.8902
453.2264, 166.7807
453.7085, 166.6943
454.1906, 166.7249
454.6727, 166.8851
455.1548, 166.6996
455.6370, 165.8228
456.1191, 164.9960
456.6012, 164.6299
457.0833, 164.6129
457.5654, 164.7160
458.0475, 164.9445
458.5297, 165.1345
459.0118, 165.0463
459.4939, 164.6774
459.9760, 164.1218
460.4581, 163.2140
460.9402, 162.3191
461.4224, 161.9666
461.9045, 162.2141
462.3866, 162.4634
462.8687, 162.4349
463.3508, 162.2722
463.8329, 162.2225
464.3151, 162.3166
464.7972, 162.3400
465.2793, 162.0924
465.7614, 161.6165
466.2435, 161.2958
466.7256, 161.2439
467.2078, 161.2078
467.6899, 161.0494
468.1720, 160.8590
468.6541, 160.8081
469.1362, 160.9528
469.6183, 161.1695
470.1005, 161.2914
470.5826, 161.3309
471.0647, 161.2110
471.5468, 160.7338
472.0289, 160.3087
472.5110, 160.1806
472.9932, 160.2687
473.4753, 160.3579
473.9574, 160.3201
474.4395, 160.1999
474.9216, 160.1592
475.4037, 160.3512
475.8859, 160.3041
476.3680, 159.7661
476.8501, 159.1367
477.3322, 158.6066
477.8143, 158.2400
478.2964, 158.1362
478.7786, 158.5311
479.2607, 159.3140
479.7428, 159.7269
480.2249, 159.6145
480.7070, 159.4677
481.1891, 159.6097
481.6713, 159.8261
482.1534, 159.8165
482.6355, 159.4599
483.1176, 159.0654
483.5997, 158.9192
484.0818, 158.9588
484.5640, 158.9252
485.0461, 158.7437
485.5282, 158.5365
486.0103, 158.3890
486.4924, 158.3084
486.9745, 158.3953
487.4567, 158.9702
487.9388, 159.4483
488.4209, 159.2620
488.9030, 158.6179
489.3851, 158.1553
489.8672, 158.1688
490.3494, 158.5113
490.8315, 158.9066
491.3136, 159.5296
491.7957, 159.8416
492.2778, 159.6024
492.7599, 159.2427
493.2421, 159.1171
493.7242, 159.1697
494.2063, 159.0680
494.6884, 158.5388
495.1705, 157.7007
495.6526, 157.1775
496.1348, 157.0759
496.6169, 157.1440
497.0990, 157.6058
497.5811, 158.0313
498.0632, 157.9805
498.5453, 157.4275
499.0275, 156.8029
499.5096, 156.4984
499.9917, 156.4888
500.4738, 156.5600
500.9559, 156.8230
501.4380, 156.9391
501.9202, 156.6539
502.4023, 156.1484
502.8844, 155.6362
503.3665, 155.1450
503.8486, 154.7159
504.3307, 154.4051
504.8129, 154.1886
505.2950, 153.9797
505.7771, 153.7531
506.2592, 153.5561
506.7413, 153.4201
507.2234, 153.3510
507.7055, 153.3982
508.1877, 153.7617
508.6698, 154.0543
509.1519, 154.0153
509.6340, 153.7344
510.1161, 153.4050
510.5982, 153.0991
511.0804, 152.8392
511.5625, 152.6753
512.0446, 152.7113
512.5267, 152.5702
513.0089, 151.9999
513.4910, 151.5097
513.9731, 151.4790
514.4552, 151.7473
514.9373, 151.8884
515.4194, 151.6392
515.9016, 151.1619
516.3837, 150.8912
516.8658, 150.9054
517.3479, 150.9142
517.8300, 150.9779
518.3121, 150.9355
518.7943, 150.6403
519.2764, 150.1218
519.7585, 149.5612
520.2406, 148.9461
520.7227, 148.4105
521.2048, 148.3190
521.6870, 148.7270
522.1691, 149.1482
522.6512, 149.4593
523.1333, 149.5860
523.6154, 149.4146
524.0975, 148.8859
524.5797, 148.3441
525.0618, 147.8972
525.5439, 147.5177
526.0260, 147.1399
526.5081, 146.7679
526.9902, 146.5387
527.4724, 146.5654
527.9545, 146.8105
528.4366, 147.0489
528.9187, 147.3896
529.4008, 147.5842
529.8829, 147.5560
530.3651, 147.3925
530.8472, 147.1250
531.3293, 146.7892
531.8114, 146.4917
532.2935, 146.3494
532.7756, 146.3518
533.2578, 146.2812
533.7399, 146.1398
534.2220, 145.9126
534.7041, 145.4395
535.1862, 144.9737
535.6683, 144.8565
536.1505, 145.1567
536.6326, 145.4407
537.1147, 145.2200
537.5968, 144.6198
538.0789, 144.2447
538.5610, 144.1849
539.0432, 144.2123
539.5253, 144.2901
540.0074, 144.3247
540.4895, 144.0889
540.9716, 143.4363
541.4537, 142.7393
541.9359, 142.0871
542.4180, 141.5526
542.9001, 141.3264
543.3822, 141.4431
543.8643, 141.6298
544.3464, 141.6252
544.8286, 141.4239
545.3107, 141.2096
545.7928, 140.8300
546.2749, 140.6183
546.7570, 140.8276
547.2391, 141.1734
547.7213, 141.2903
548.2034, 141.0894
548.6855, 140.7926
549.1676, 140.7167
549.6497, 140.8945
550.1318, 140.7045
550.6140, 139.7986
551.0961, 139.0145
551.5782, 138.6853
552.0603, 138.6406
552.5424, 138.6974
553.0245, 138.8243
553.5067, 138.9301
553.9888, 138.9004
554.4709, 138.7764
554.9530, 138.7619
555.4351, 138.9455
555.9172, 138.9873
556.3994, 138.4649
556.8815, 137.5381
557.3636, 137.0717
557.8457, 137.5308
558.3278, 137.9351
558.8099, 137.7689
559.2921, 137.3535
559.7742, 137.2048
560.2563, 137.4249
560.7384, 137.6723
561.2205, 137.5745
561.7026, 137.1149
562.1848, 136.7088
562.6669, 136.2507
563.1490, 135.9753
563.6311, 136.0482
564.1132, 136.2693
564.5953, 136.4679
565.0775, 136.5863
565.5596, 136.5691
566.0417, 136.2587
566.5238, 135.7019
567.0059, 135.4330
567.4880, 135.6092
567.9702, 135.7325
568.4523, 135.3934
568.9344, 134.8847
569.4165, 134.6332
569.8986, 134.7630
570.3807, 134.9022
570.8629, 134.6387
571.3450, 134.3124
571.8271, 134.7327
572.3092, 135.9724
572.7913, 136.9162
573.2734, 136.6490
573.7556, 135.3565
574.2377, 134.3661
574.7198, 133.5655
575.2019, 133.1887
575.6840, 133.6466
576.1661, 134.2956
576.6483, 134.4938
577.1304, 134.2227
577.6125, 133.9526
578.0946, 134.1173
578.5767, 134.6043
579.0588, 134.7657
579.5410, 134.4986
580.0231, 134.1410
580.5052, 133.6216
580.9873, 133.1600
581.4694, 132.9793
581.9515, 133.0824
582.4337, 133.2049
582.9158, 133.1949
583.3979, 133.1142
583.8800, 133.0840
584.3621, 133.1019
584.8442, 132.9981
585.3264, 132.6096
585.8085, 132.1756
586.2906, 132.2599
586.7727, 133.1558
587.2548, 133.6383
587.7369, 133.1909
588.2190, 132.6484
588.7011, 132.6334
589.1832, 133.0132
589.6653, 133.3055
590.1475, 133.2472
590.6296, 133.0044
591.1117, 132.9499
591.5938, 133.1606
592.0759, 133.3154
592.5580, 133.4831
593.0402, 133.4923
593.5223, 133.1211
594.0044, 132.5375
594.4865, 132.1237
594.9686, 132.0460
595.4507, 132.1617
595.9329, 132.3862
596.4150, 132.6864
596.8971, 132.8524
597.3792, 132.8075
597.8613, 132.7327
598.3434, 132.8143
598.8256, 133.0507
599.3077, 133.2134
599.7898, 133.3858
600.2719, 133.3918
600.7540, 133.0015
601.2361, 132.4762
601.7183, 132.1933
602.2004, 132.2259
602.6825, 132.3316
603.1646, 132.2364
603.6467, 131.9510
604.1288, 131.8715
604.6110, 131.9935
605.0931, 132.3439
605.5752, 133.2536
606.0573, 134.1640
606.5394, 134.4551
607.0215, 134.0668
607.5037, 133.6791
607.9858, 133.8714
608.4679, 134.3513
608.9500, 134.4856
609.4321, 134.2517
609.9142, 134.0710
610.3964, 134.1141
610.8785, 134.3651
611.3606, 134.8563
611.8427, 135.7252
612.3248, 136.3503
612.8069, 136.4218
613.2891, 136.4461
613.7712, 136.7618
614.2533, 137.3152
614.7354, 137.9081
615.2175, 138.4404
615.6996, 138.9731
616.1818, 139.7052
616.6639, 140.7916
617.1460, 141.3403
617.6281, 140.6924
618.1102, 140.2224
618.5923, 140.7427
619.0745, 141.8210
619.5566, 142.6667
620.0387, 143.0029
620.5208, 143.2200
621.0029, 143.6082
621.4850, 144.1348
621.9672, 144.7436
622.4493, 145.4327
622.9314, 146.1013
623.4135, 146.6613
623.8956, 147.1359
624.3777, 147.6705
624.8599, 148.4350
625.3420, 149.0277
625.8241, 149.3106
626.3062, 149.4699
626.7883, 149.6195
627.2704, 149.7959
627.7526, 150.0357
628.2347, 150.3870
628.7168, 150.7789
629.1989, 150.9806
629.6810, 150.9280
630.1631, 151.0002
630.6453, 151.4843
631.1274, 151.8902
631.6095, 151.8098
632.0916, 151.3230
632.5737, 150.7585
633.0558, 149.9690
633.5380, 149.3855
634.0201, 149.5930
634.5022, 150.2323
634.9843, 150.4126
635.4664, 149.9001
635.9485, 149.1803
636.4307, 148.7774
636.9128, 148.6968
637.3949, 148.4154
637.8770, 147.7537
638.3591, 147.0992
638.8412, 146.3778
639.3234, 145.7759
639.8055, 145.5644
640.2876, 145.7105
640.7697, 145.8188
641.2518, 145.5965
641.7339, 145.1128
642.2161, 144.4589
642.6982, 143.6051
643.1803, 142.9939
643.6624, 142.8798
644.1445, 142.9426
644.6266, 142.7544
645.1088, 142.3208
645.5909, 141.8685
646.0730, 141.3462
646.5551, 140.8951
647.0372, 140.6423
647.5193, 140.5047
648.0015, 140.3042
648.4836, 139.9949
648.9657, 139.7448
649.4478, 139.8080
649.9299, 140.1922
650.4120, 140.3043
650.8942, 140.0935
651.3763, 139.6836
651.8584, 138.7725
652.3405, 137.8965
652.8226, 137.6863
653.3047, 138.1972
653.7869, 138.6591
654.2690, 138.6103
654.7511, 138.2948
655.2332, 137.9651
655.7153, 137.6492
656.1974, 137.4442
656.6796, 137.3955
657.1617, 137.4513
657.6438, 137.5202
658.1259, 137.5604
658.6080, 137.7982
659.0901, 138.6699
659.5723, 139.2188
660.0544, 138.7996
660.5365, 138.0032
661.0186, 137.6431
661.5007, 137.9223
661.9828, 138.3440
662.4650, 138.3996
662.9471, 138.1856
663.4292, 138.1108
663.9113, 138.2016
664.3934, 138.3055
664.8755, 138.3785
665.3577, 138.4074
665.8398, 138.3245
666.3219, 138.0866
666.8040, 138.0308
667.2861, 138.3860
667.7682, 138.7720
668.2504, 138.9566
668.7325, 138.9866
669.2146, 138.9139
669.6967, 138.7753
670.1788, 138.7807
670.6609, 139.3535
671.1431, 140.5409
671.6252, 140.9544
672.1073, 140.0787
672.5894, 139.4005
673.0715, 139.8393
673.5536, 140.5984
674.0358, 140.8509
674.5179, 140.5034
675.0000, 140.0334
675.4821, 139.4167
675.9642, 138.9508
676.4464, 139.0729
676.9285, 139.6555
677.4106, 140.2281
677.8927, 140.6030
678.3748, 140.8341
678.8569, 140.9882
679.3391, 141.0473
679.8212, 141.1404
680.3033, 141.2825
680.7854, 141.4440
681.2675, 141.6248
681.7496, 141.8193
682.2318, 142.0350
682.7139, 142.2696
683.1960, 142.4709
683.6781, 142.4992
684.1602, 142.5152
684.6423, 142.8459
685.1245, 143.4690
685.6066, 144.1373
686.0887, 144.7823
686.5708, 145.3268
687.0529, 145.6407
687.5350, 145.6818
688.0172, 145.7180
688.4993, 145.7190
688.9814, 145.7509
689.4635, 145.8734
689.9456, 146.0181
690.4277, 146.0928
690.9099, 146.0879
691.3920, 146.0870
691.8741, 146.1799
692.3562, 146.3246
692.8383, 146.4207
693.3204, 146.4710
693.8026, 146.4319
694.2847, 146.3193
694.7668, 146.0583
695.2489, 145.5049
695.7310, 144.6413
696.2131, 143.8627
696.6953, 143.1176
697.1774, 142.5409
697.6595, 142.4659
698.1416, 142.4468
698.6237, 141.8528
699.1058, 140.6415
699.5880, 139.3391
700.0701, 138.3974
700.5522, 137.7227
701.0343, 136.9688
701.5164, 136.0873
701.9985, 135.4154
702.4807, 135.1656
702.9628, 134.9878
703.4449, 134.5002
703.9270, 133.7687
704.4091, 133.1172
704.8912, 132.6441
705.3734, 132.2012
705.8555, 131.7506
706.3376, 131.2824
706.8197, 130.7708
707.3018, 130.2252
707.7839, 129.6987
708.2661, 129.2168
708.7482, 128.8158
709.2303, 128.6814
709.7124, 128.9358
710.1945, 128.8925
710.6766, 128.1920
711.1588, 127.4890
711.6409, 127.2845
712.1230, 127.4231
712.6051, 127.5338
713.0872, 127.6416
713.5693, 127.5403
714.0515, 126.9265
714.5336, 126.1646
715.0157, 125.6897
715.4978, 125.5298
715.9799, 125.5212
716.4620, 125.5731
716.9442, 125.6649
717.4263, 125.7895
717.9084, 126.0233
718.3905, 125.9496
718.8726, 125.3462
719.3547, 124.7081
719.8369, 124.2268
720.3190, 123.8964
720.8011, 123.7118
721.2832, 123.6740
721.7653, 123.7745
722.2474, 124.1211
722.7296, 124.5269
723.2117, 124.8645
723.6938, 125.0767
724.1759, 124.9895
724.6580, 124.5154
725.1401, 123.8973
725.6223, 123.5362
726.1044, 123.4812
726.5865, 123.2334
727.0686, 122.5148
727.5507, 122.0478
728.0328, 122.3435
728.5150, 122.8423
728.9971, 122.9531
729.4792, 122.6281
729.9613, 122.3030
730.4434, 122.1112
730.9255, 122.0398
731.4077, 122.1990
731.8898, 122.4544
732.3719, 122.3902
732.8540, 121.9138
733.3361, 121.5524
733.8182, 121.9512
734.3004, 122.9904
734.7825, 123.2895
735.2646, 122.3991
735.7467, 121.7316
736.2288, 121.9047
736.7109, 122.1308
737.1931, 121.7138
737.6752, 120.8416
738.1573, 120.3577
738.6394, 120.7767
739.1215, 121.2915
739.6036, 121.4453
740.0858, 121.3113
740.5679, 120.8741
741.0500, 120.2105
741.5321, 119.7058
742.0142, 119.6384
742.4963, 119.8633
742.9785, 119.9701
743.4606, 119.9165
743.9427, 119.9026
744.4248, 119.9951
744.9069, 120.0595
745.3890, 119.9717
745.8712, 119.8271
746.3533, 119.8191
746.8354, 120.0368
747.3175, 120.1281
747.7996, 119.7754
748.2817, 119.3378
748.7639, 119.2317
749.2460, 119.3680
749.7281, 119.4192
750.2102, 119.2493
750.6923, 118.9535
751.1744, 118.6110
751.6566, 118.2207
752.1387, 118.1519
752.6208, 118.6160
753.1029, 118.8968
753.5850, 118.6219
754.0671, 118.1430
754.5493, 117.8078
755.0314, 117.6181
755.5135, 117.4851
755.9956, 117.3464
756.4777, 117.3032
756.9598, 117.5664
757.4420, 117.8903
757.9241, 117.8853
758.4062, 117.5201
758.8883, 117.0505
759.3704, 116.6242
759.8525, 116.3381
760.3347, 116.6471
760.8168, 117.6912
761.2989, 117.9799
761.7810, 116.8470
762.2631, 115.7454
762.7452, 115.8318
763.2274, 116.7700
763.7095, 117.5062
764.1916, 118.0734
764.6737, 118.3232
765.1558, 117.9381
765.6379, 117.4697
766.1201, 117.3178
766.6022, 117.4226
767.0843, 117.6162
767.5664, 117.8271
768.0485, 117.9691
768.5306, 117.9412
769.0128, 117.7543
769.4949, 117.3967
769.9770, 116.8289
770.4591, 116.4696
770.9412, 116.5703
771.4233, 116.7939
771.9055, 116.6245
772.3876, 115.9779
772.8697, 115.7462
773.3518, 116.4096
773.8339, 116.8650
774.3160, 116.6294
774.7982, 116.1756
775.2803, 115.9967
775.7624, 116.0778
776.2445, 116.0380
776.7266, 115.5768
777.2087, 115.0588
777.6909, 115.0325
778.1730, 115.3805
778.6551, 115.6922
779.1372, 115.9054
779.6193, 115.9432
780.1014, 115.7017
780.5836, 115.3284
781.0657, 115.2719
781.5478, 115.7944
782.0299, 116.0371
782.5120, 115.8111
782.9941, 115.5230
783.4763, 115.2696
783.9584, 115.0681
784.4405, 114.9244
784.9226, 114.8391
785.4047, 114.8324
785.8868, 115.0512
786.3690, 115.2523
786.8511, 115.1338
787.3332, 114.7677
787.8153, 114.3134
788.2974, 113.8328
788.7795, 113.5116
789.2617, 113.5694
789.7438, 113.9314
790.2259, 114.1182
790.7080, 114.0671
791.1901, 114.0317
791.6722, 114.0937
792.1544, 114.1352
792.6365, 114.0783
793.1186, 113.9377
793.6007, 113.7312
794.0828, 113.3772
794.5649, 113.1473
795.0471, 113.2460
795.5292, 113.4269
796.0113, 113.5126
796.4934, 113.4883
796.9755, 113.3399
797.4576, 113.0674
797.9398, 112.8080
798.4219, 112.7493
798.9040, 112.8576
799.3861, 112.9520
799.8682, 113.0360
800.3503, 113.0717
800.8325, 113.0417
801.3146, 112.9645
801.7967, 112.8517
802.2788, 112.7009
802.7609, 112.5683
803.2430, 112.4856
803.7252, 112.3743
804.2073, 112.0558
804.6894, 111.8396
805.1715, 112.0902
805.6536, 112.6530
806.1357, 113.0550
806.6179, 113.0835
807.1000, 112.9577
807.5821, 112.7990
808.0642, 112.6624
808.5463, 112.6999
809.0284, 112.8961
809.5106, 113.0463
809.9927, 113.0499
810.4748, 113.0134
810.9569, 113.1430
811.4390, 113.4779
811.9211, 113.4430
812.4033, 112.7521
812.8854, 112.2342
813.3675, 112.3731
813.8496, 112.5920
814.3317, 112.2272
814.8138, 111.4115
815.2960, 111.0804
815.7781, 111.9224
816.2602, 112.6854
816.7423, 112.7901
817.2244, 112.5386
817.7065, 112.1316
818.1887, 111.6798
818.6708, 111.3564
819.1529, 111.2508
819.6350, 111.3125
820.1171, 111.5747
820.5992, 111.9725
821.0814, 112.0260
821.5635, 111.6778
822.0456, 111.4146
822.5277, 111.4729
823.0098, 111.6560
823.4919, 111.6840
823.9741, 111.5378
824.4562, 111.4201
824.9383, 111.2624
825.4204, 111.2226
825.9025, 111.4136
826.3846, 111.6628
826.8668, 111.8951
827.3489, 112.0639
827.8310, 112.0477
828.3131, 111.7123
828.7952, 111.3980
829.2773, 111.4067
829.7595, 111.5721
830.2416, 111.7200
830.7237, 111.7945
831.2058, 111.6245
831.6879, 111.1275
832.1700, 110.6162
832.6522, 110.6142
833.1343, 111.0916
833.6164, 111.1799
834.0985, 110.7355
834.5806, 110.4764
835.0627, 110.6932
835.5449, 111.0893
836.0270, 111.4172
836.5091, 111.6649
836.9912, 111.7252
837.4733, 111.4938
837.9554, 111.2165
838.4376, 110.7045
838.9197, 110.3704
839.4018, 110.8039
839.8839, 111.6054
840.3660, 111.7653
840.8481, 110.8778
841.3303, 110.0282
841.8124, 110.3314
842.2945, 111.1769
842.7766, 111.6073
843.2587, 111.6191
843.7408, 111.3319
844.2230, 110.7905
844.7051, 110.2960
845.1872, 110.2086
845.6693, 110.4484
846.1514, 110.4409
846.6335, 110.0617
847.1157, 109.8868
847.5978, 110.1687
848.0799, 110.4461
848.5620, 110.3507
849.0441, 110.0213
849.5262, 109.7898
850.0084, 109.6856
850.4905, 109.6270
850.9726, 109.5756
851.4547, 109.5877
851.9368, 109.7692
852.4189, 110.0012
852.9011, 110.0651
853.3832, 109.9467
853.8653, 109.9257
854.3474, 110.3766
854.8295, 110.8527
855.3116, 110.5545
855.7938, 109.7352
856.2759, 109.1868
856.7580, 109.0462
857.2401, 109.1012
857.7222, 109.2230
858.2043, 109.3914
858.6865, 109.5890
859.1686, 109.8656
859.6507, 109.8946
860.1328, 109.5404
860.6149, 109.2053
861.0970, 109.0592
861.5792, 109.0072
862.0613, 108.9444
862.5434, 108.8703
863.0255, 108.7565
863.5076, 108.5322
863.9897, 108.3542
864.4719, 108.3132
864.9540, 108.3072
865.4361, 108.2655
865.9182, 108.1726
866.4003, 107.9547
866.8824, 107.5264
867.3646, 107.3321
867.8467, 108.1344
868.3288, 109.2928
868.8109, 109.5465
869.2930, 109.0214
869.7751, 108.5976
870.2573, 108.5879
870.7394, 108.6435
871.2215, 108.3551
871.7036, 107.8104
872.1857, 107.5575
872.6678, 107.6831
873.1500, 107.6883
873.6321, 107.4151
874.1142, 107.1561
874.5963, 107.1686
875.0784, 107.3286
875.5605, 107.2509
876.0427, 106.7876
876.5248, 106.5294
877.0069, 106.6402
877.4890, 106.8181
877.9711, 107.0347
878.4532, 107.1866
878.9354, 107.1244
879.4175, 106.8626
879.8996, 106.6023
880.3817, 106.4267
880.8638, 106.3175
881.3459, 106.3158
881.8281, 106.3431
882.3102, 106.2255
882.7923, 105.9947
883.2744, 105.8675
883.7565, 105.9535
884.2386, 106.1428
884.7208, 106.2874
885.2029, 106.3931
885.6850, 106.5505
886.1671, 106.7833
886.6492, 106.7542
887.1313, 106.2721
887.6135, 105.7762
888.0956, 105.7209
888.5777, 106.0275
889.0598, 106.1666
889.5419, 106.0510
890.0240, 105.9195
890.5062, 105.7719
890.9883, 105.6192
891.4704, 105.3750
891.9525, 105.1699
892.4346, 105.2822
892.9167, 105.7609
893.3989, 105.9791
893.8810, 105.4596
894.3631, 104.9142
894.8452, 104.7103
895.3273, 104.7569
895.8094, 104.9983
896.2916, 105.3691
896.7737, 105.7742
897.2558, 106.2085
897.7379, 106.4005
898.2200, 105.6693
898.7021, 104.5325
899.1843, 104.4900
899.6664, 105.4552
900.1485, 106.1412
900.6306, 106.0705
901.1127, 105.6542
901.5948, 105.3149
902.0770, 105.0565
902.5591, 104.9017
903.0412, 104.8511
903.5233, 104.9268
904.0054, 105.2474
904.4875, 105.4620
904.9697, 105.3327
905.4518, 104.9538
905.9339, 104.4922
906.4160, 103.8267
906.8981, 103.5021
907.3802, 103.8131
907.8624, 104.1108
908.3445, 104.1703
908.8266, 104.1392
909.3087, 104.1845
909.7908, 104.2826
910.2729, 104.2625
910.7551, 103.9922
911.2372, 103.7628
911.7193, 103.7179
912.2014, 103.8301
912.6835, 104.2111
913.1656, 104.6948
913.6478, 104.9120
914.1299, 104.7541
914.6120, 104.4538
915.0941, 104.1666
915.5762, 103.9404
916.0583, 103.8410
916.5404, 103.8861
917.0225, 104.3339
917.5046, 105.2073
917.9868, 105.6283
918.4689, 104.9739
918.9510, 103.8576
919.4331, 103.5443
919.9152, 104.1278
920.3973, 104.5081
920.8795, 104.6894
921.3616, 104.6238
921.8437, 104.1027
922.3258, 103.6058
922.8079, 103.7216
923.2900, 104.3179
923.7722, 104.4312
924.2543, 103.5091
924.7364, 103.0056
925.2185, 103.2967
925.7006, 103.6688
926.1827, 103.7760
926.6649, 103.7606
927.1470, 103.8736
927.6291, 104.1343
928.1112, 104.2575
928.5933, 103.9506
929.0754, 103.6844
929.5576, 103.7920
930.0397, 104.0567
930.5218, 104.2950
931.0039, 104.4479
931.4860, 104.4421
931.9681, 104.2452
932.4503, 103.9952
932.9324, 103.8220
933.4145, 103.6929
933.8966, 103.4679
934.3787, 103.2219
934.8608, 103.3350
935.3430, 103.8595
935.8251, 104.2819
936.3072, 104.1940
936.7893, 103.8014
937.2714, 103.5359
937.7535, 103.3955
938.2357, 103.5052
938.7178, 103.9269
939.1999, 104.2878
939.6820, 104.4414
940.1641, 104.4778
940.6462, 104.4780
941.1284, 104.4508
941.6105, 104.5291
942.0926, 104.7952
942.5747, 105.0050
943.0568, 105.1633
943.5389, 105.2321
944.0211, 105.0873
944.5032, 104.8935
944.9853, 104.9636
945.4674, 105.3531
945.9495, 105.4910
946.4316, 104.9309
946.9138, 104.5566
947.3959, 104.8669
947.8780, 105.3411
948.3601, 105.4920
948.8422, 105.4093
949.3243, 105.4828
949.8065, 105.8729
950.2886, 106.1254
950.7707, 105.7279
951.2528, 105.2619
951.7349, 105.3377
952.2170, 105.7343
952.6992, 106.1205
953.1813, 106.3744
953.6634, 106.3434
954.1455, 105.8803
954.6276, 105.3237
955.1097, 105.0528
955.5919, 105.0712
956.0740, 105.5464
956.5561, 106.3804
957.0382, 106.9956
957.5203, 107.1932
958.0024, 107.0348
958.4846, 106.5038
958.9667, 105.7875
959.4488, 105.5479
959.9309, 105.8022
960.4130, 106.1748
960.8951, 106.6857
961.3773, 106.9744
961.8594, 106.7846
962.3415, 106.4698
962.8236, 106.5857
963.3057, 107.1418
963.7878, 107.3640
964.2700, 107.0649
964.7521, 106.8475
965.2342, 106.9011
965.7163, 106.9176
966.1984, 106.5991
966.6805, 106.1517
967.1627, 106.0102
967.6448, 106.2332
968.1269, 106.4570
968.6090, 106.7237
969.0911, 106.9015
969.5732, 106.9727
970.0554, 106.9255
970.5375, 106.6661
971.0196, 106.2902
971.5017, 106.0519
971.9838, 106.0348
972.4659, 106.0425
972.9481, 105.9813
973.4302, 105.9317
973.9123, 106.0270
974.3944, 106.1224
974.8765, 105.9801
975.3586, 105.6281
975.8408, 105.3102
976.3229, 105.1297
976.8050, 105.0740
977.2871, 105.1818
977.7692, 105.3732
978.2513, 105.6164
978.7335, 105.8345
979.2156, 105.7795
979.6977, 105.4444
980.1798, 105.2594
980.6619, 105.6249
981.1440, 106.1174
981.6262, 105.9286
982.1083, 105.2868
982.5904, 104.9175
983.0725, 104.8726
983.5546, 105.0974
984.0367, 105.5686
984.5189, 106.0556
985.0010, 106.3122
985.4831, 106.3749
985.9652, 106.3362
986.4473, 106.1952
986.9294, 106.1718
987.4116, 106.3189
987.8937, 106.3405
988.3758, 106.0409
988.8579, 105.7182
989.3400, 105.8267
989.8221, 106.3371
990.3043, 106.5431
990.7864, 106.3308
991.2685, 106.1878
991.7506, 106.1751
992.2327, 106.2576
992.7148, 106.4643
993.1970, 106.7089
993.6791, 106.8110
994.1612, 106.7259
994.6433, 106.8454
995.1254, 107.4385
995.6075, 107.8261
996.0897, 107.7404
996.5718, 107.5923
997.0539, 107.5398
997.5360, 107.6242
998.0181, 108.0010
998.5002, 108.7855
998.9824, 109.2208
999.4645, 108.8164
999.9466, 108.5442
1000.429, 108.6610
1000.911, 109.0903
1001.393, 110.1005
1001.875, 111.3028
1002.357, 111.7089
1002.839, 110.9611
1003.321, 110.3770
1003.804, 110.6416
1004.286, 111.0189
1004.768, 111.1671
1005.250, 111.1152
1005.732, 110.8443
1006.214, 110.4291
1006.696, 110.0366
1007.178, 109.7211
1007.660, 109.5188
1008.143, 109.5482
1008.625, 109.6156
1009.107, 109.4845
1009.589, 109.2848
1010.071, 109.2754
1010.553, 109.4408
1011.035, 109.5252
1011.517, 109.3779
1012.000, 109.2535
1012.482, 109.4898
1012.964, 109.8595
1013.446, 110.0493
1013.928, 110.0678
1014.410, 109.8932
1014.892, 109.5819
1015.374, 109.4701
1015.856, 109.8064
1016.339, 110.1785
1016.821, 109.8742
1017.303, 109.1818
1017.785, 108.9361
1018.267, 109.0563
1018.749, 108.9659
1019.231, 108.5427
1019.713, 108.2226
1020.195, 108.3488
1020.678, 108.6622
1021.160, 108.6657
1021.642, 108.4068
1022.124, 108.2071
1022.606, 108.0709
1023.088, 107.8115
1023.570, 107.3666
1024.052, 106.9787
1024.535, 106.8493
1025.017, 106.8994
1025.499, 106.9254
1025.981, 106.9247
1026.463, 107.1282
1026.945, 107.5998
1027.427, 107.6777
1027.909, 107.0725
1028.391, 106.4405
1028.874, 106.3868
1029.356, 106.6969
1029.838, 106.6775
1030.320, 106.2401
1030.802, 105.9792
1031.284, 105.9062
1031.766, 106.0266
1032.248, 106.4717
1032.731, 106.7944
1033.213, 106.5197
1033.695, 105.8423
1034.177, 105.4484
1034.659, 105.3469
1035.141, 105.5491
1035.623, 106.3172
1036.105, 106.7878
1036.588, 106.5023
1037.070, 106.1152
1037.552, 106.2518
1038.034, 106.7636
1038.516, 107.0462
1038.998, 106.9230
1039.480, 107.0662
1039.962, 107.8328
1040.444, 108.3007
1040.927, 108.0024
1041.409, 107.5061
1041.891, 107.2940
1042.373, 107.2941
1042.855, 107.2134
1043.337, 106.8777
1043.819, 106.8743
1044.301, 107.6206
1044.783, 108.1507
1045.266, 107.9632
1045.748, 107.6628
1046.230, 107.8032
1046.712, 108.2434
1047.194, 108.5146
1047.676, 108.5738
1048.158, 108.5080
1048.640, 108.1039
1049.123, 107.8647
1049.605, 108.0477
1050.087, 108.3724
1050.569, 108.7188
1051.051, 108.9969
1051.533, 108.9981
1052.015, 108.6709
1052.497, 108.1732
1052.979, 107.2043
1053.462, 106.4942
1053.944, 106.5034
1054.426, 106.7119
1054.908, 106.6875
1055.390, 106.4960
1055.872, 106.3954
1056.354, 106.4554
1056.836, 106.4378
1057.318, 106.2648
1057.801, 106.0248
1058.283, 105.6598
1058.765, 105.3249
1059.247, 105.2077
1059.729, 105.2084
1060.211, 105.0702
1060.693, 104.7297
1061.175, 104.4328
1061.658, 104.2540
1062.140, 104.1363
1062.622, 104.1414
1063.104, 104.1188
1063.586, 103.9485
1064.068, 103.6498
1064.550, 103.2308
1065.032, 102.6891
1065.515, 102.3122
1065.997, 102.2813
1066.479, 102.3395
1066.961, 102.5212
1067.443, 102.6086
1067.925, 102.2835
1068.407, 101.7863
1068.889, 101.6174
1069.371, 101.8468
1069.854, 101.9365
1070.336, 101.5425
1070.818, 101.1312
1071.300, 100.8859
1071.782, 100.7262
1072.264, 100.5865
1072.746, 100.4837
1073.228, 100.4804
1073.710, 100.5695
1074.193, 100.6153
1074.675, 100.6088
1075.157, 100.4726
1075.639, 100.0958
1076.121, 99.65092
1076.603, 99.16481
1077.085, 98.76036
1077.567, 98.62652
1078.050, 98.75233
1078.532, 98.94517
1079.014, 99.21056
1079.496, 99.34769
1079.978, 99.21656
1080.460, 98.97259
1080.942, 98.62557
1081.424, 98.29820
1081.906, 98.12448
1082.389, 98.11224
1082.871, 98.25277
1083.353, 98.65443
1083.835, 98.78951
1084.317, 98.00961
1084.799, 97.34136
1085.281, 97.60295
1085.763, 98.21053
1086.245, 98.55773
1086.728, 98.60151
1087.210, 98.46321
1087.692, 98.15051
1088.174, 97.84084
1088.656, 97.48246
1089.138, 97.30356
1089.620, 97.64085
1090.102, 98.04205
1090.584, 98.02364
1091.067, 97.71304
1091.549, 97.49174
1092.031, 97.44608
1092.513, 97.38795
1092.995, 97.11294
1093.477, 96.98221
1093.959, 97.34676
1094.441, 97.74146
1094.924, 97.78209
1095.406, 97.57931
1095.888, 97.37498
1096.370, 97.20478
1096.852, 96.94320
1097.334, 96.35603
1097.816, 95.94901
1098.298, 96.04092
1098.781, 96.21535
1099.263, 96.19111
1099.745, 96.08182
1100.227, 96.10217
1100.709, 96.23314
1101.191, 96.19268
1101.673, 95.72707
1102.155, 95.47909
1102.637, 95.84585
1103.120, 96.21191
1103.602, 96.34892
1104.084, 96.25710
1104.566, 95.79523
1105.048, 95.11586
1105.530, 94.72636
1106.012, 94.72194
1106.494, 94.95523
1106.976, 95.82747
1107.459, 96.37395
1107.941, 95.92287
1108.423, 95.31557
1108.905, 95.34289
1109.387, 95.70499
1109.869, 95.58987
1110.351, 94.80733
1110.833, 94.42399
1111.316, 94.93748
1111.798, 95.30479
1112.280, 95.23460
1112.762, 95.05187
1113.244, 94.90193
1113.726, 94.78373
1114.208, 94.68934
1114.690, 94.61905
1115.172, 94.56384
1115.655, 94.34481
1116.137, 94.43102
1116.619, 95.22288
1117.101, 95.82382
1117.583, 95.76037
1118.065, 95.45441
1118.547, 95.33371
1119.029, 95.36230
1119.511, 95.33850
1119.994, 95.22103
1120.476, 95.16041
1120.958, 95.21336
1121.440, 95.20950
1121.922, 95.05443
1122.404, 94.90583
1122.886, 94.91640
1123.368, 94.99877
1123.851, 94.93091
1124.333, 94.69111
1124.815, 94.45089
1125.297, 94.13154
1125.779, 94.08198
1126.261, 94.43652
1126.743, 94.89421
1127.225, 95.35670
1127.708, 95.67782
1128.190, 95.60588
1128.672, 95.18594
1129.154, 94.86291
1129.636, 94.62522
1130.118, 94.60461
1130.600, 94.85647
1131.082, 95.06357
1131.564, 95.10670
1132.047, 95.01432
1132.529, 94.78743
1133.011, 94.50298
1133.493, 94.44761
1133.975, 94.60806
1134.457, 94.43851
1134.939, 93.92977
1135.421, 93.77731
1135.903, 94.16291
1136.386, 94.64933
1136.868, 94.96442
1137.350, 95.05897
1137.832, 94.77750
1138.314, 94.22587
1138.796, 93.77198
1139.278, 93.43385
1139.760, 93.33361
1140.243, 93.46813
1140.725, 93.70166
1141.207, 93.97252
1141.689, 94.23889
1142.171, 94.49099
1142.653, 94.65966
1143.135, 94.54802
1143.617, 94.28493
1144.099, 94.18116
1144.582, 94.20618
1145.064, 94.18159
1145.546, 94.06570
1146.028, 93.92583
1146.510, 93.79258
1146.992, 93.70927
1147.474, 93.70531
1147.956, 93.79222
1148.438, 94.09129
1148.921, 94.43551
1149.403, 94.51595
1149.885, 94.36166
1150.367, 94.18507
1150.849, 94.06229
1151.331, 94.07888
1151.813, 94.53606
1152.295, 94.85832
1152.778, 94.42229
1153.260, 93.83652
1153.742, 93.72513
1154.224, 93.92078
1154.706, 94.08164
1155.188, 94.13637
1155.670, 94.09572
1156.152, 93.83987
1156.635, 93.75076
1157.117, 94.24113
1157.599, 94.61038
1158.081, 94.28409
1158.563, 93.79536
1159.045, 93.70061
1159.527, 93.92917
1160.009, 94.15824
1160.491, 94.37614
1160.974, 94.47753
1161.456, 94.24818
1161.938, 94.19566
1162.420, 94.75948
1162.902, 95.14416
1163.384, 94.69996
1163.866, 93.97541
1164.348, 93.78354
1164.830, 94.08331
1165.313, 94.18283
1165.795, 93.99226
1166.277, 93.81525
1166.759, 93.56055
1167.241, 93.62915
1167.723, 94.31835
1168.205, 94.95766
1168.687, 94.94058
1169.170, 94.51716
1169.652, 94.29776
1170.134, 94.28784
1170.616, 94.16302
1171.098, 93.90855
1171.580, 93.82116
1172.062, 93.96851
1172.544, 93.91580
1173.026, 93.41965
1173.509, 92.92947
1173.991, 93.01006
1174.473, 93.42181
1174.955, 93.46662
1175.437, 93.26382
1175.919, 93.35440
1176.401, 93.71286
1176.883, 94.03594
1177.365, 94.23730
1177.848, 94.36295
1178.330, 94.44619
1178.812, 94.41870
1179.294, 94.01804
1179.776, 93.60236
1180.258, 93.84781
1180.740, 94.40014
1181.222, 94.63745
1181.705, 94.56631
1182.187, 94.47363
1182.669, 94.44224
1183.151, 94.32486
1183.633, 93.92104
1184.115, 93.60802
1184.597, 93.82355
1185.079, 94.03994
1185.562, 93.62119
1186.044, 93.05331
1186.526, 93.09985
1187.008, 93.65006
1187.490, 93.97485
1187.972, 93.84501
1188.454, 93.80148
1188.936, 93.99754
1189.418, 94.26354
1189.901, 94.79509
1190.383, 95.11865
1190.865, 94.73706
1191.347, 94.05859
1191.829, 93.69786
1192.311, 93.63951
1192.793, 93.64061
1193.275, 93.77526
1193.757, 93.76599
1194.240, 93.49008
1194.722, 93.38981
1195.204, 93.69565
1195.686, 93.94048
1196.168, 93.72092
1196.650, 93.30717
1197.132, 93.27035
1197.614, 93.57438
1198.097, 93.69907
1198.579, 93.64700
1199.061, 93.57561
1199.543, 93.50827
1200.025, 93.52391
1200.507, 93.65274
1200.989, 93.85146
1201.471, 94.12280
1201.953, 94.28957
1202.436, 93.82275
1202.918, 93.12366
1203.400, 93.18362
1203.882, 93.77327
1204.364, 94.29082
1204.846, 94.59223
1205.328, 94.61471
1205.810, 94.33973
1206.292, 94.05136
1206.775, 93.98837
1207.257, 93.96178
1207.739, 93.79388
1208.221, 93.61272
1208.703, 93.47267
1209.185, 93.44958
1209.667, 93.76585
1210.149, 94.31809
1210.632, 94.53342
1211.114, 94.14011
1211.596, 93.87963
1212.078, 94.11963
1212.560, 94.26310
1213.042, 94.01870
1213.524, 93.72152
1214.006, 93.49881
1214.489, 93.43353
1214.971, 93.76496
1215.453, 94.42651
1215.935, 94.54701
1216.417, 93.85843
1216.899, 93.53725
1217.381, 93.74989
1217.863, 93.81828
1218.345, 93.50759
1218.828, 93.21833
1219.310, 93.24463
1219.792, 93.40412
1220.274, 93.37523
1220.756, 93.22339
1221.238, 93.32826
1221.720, 93.60741
1222.202, 93.49194
1222.684, 93.02560
1223.167, 92.86708
1223.649, 93.17444
1224.131, 93.41109
1224.613, 93.18769
1225.095, 92.89852
1225.577, 93.06027
1226.059, 93.33350
1226.541, 93.25098
1227.024, 93.03406
1227.506, 93.02077
1227.988, 93.17907
1228.470, 93.36040
1228.952, 93.51789
1229.434, 93.58422
1229.916, 93.48656
1230.398, 93.37537
1230.880, 93.26833
1231.363, 93.19981
1231.845, 93.19628
1232.327, 93.23082
1232.809, 93.25132
1233.291, 93.29965
1233.773, 93.50935
1234.255, 93.90539
1234.737, 94.11662
1235.219, 94.11475
1235.702, 93.98257
1236.184, 93.63869
1236.666, 93.48746
1237.148, 93.70816
1237.630, 94.06236
1238.112, 94.38086
1238.594, 94.58638
1239.076, 94.48691
1239.559, 94.13101
1240.041, 93.67476
1240.523, 93.19880
1241.005, 93.18985
1241.487, 93.59358
1241.969, 93.76087
1242.451, 93.50243
1242.933, 93.32226
1243.416, 93.64713
1243.898, 93.94156
1244.380, 93.48684
1244.862, 92.91382
1245.344, 92.86228
1245.826, 93.10418
1246.308, 93.49586
1246.790, 93.83450
1247.272, 93.64111
1247.755, 92.85157
1248.237, 92.38647
1248.719, 92.66546
1249.201, 93.02644
1249.683, 93.50905
1250.165, 93.85275
1250.647, 93.89380
1251.129, 93.83125
1251.611, 93.73904
1252.094, 93.71951
1252.576, 94.02650
1253.058, 94.64547
1253.540, 94.98183
1254.022, 94.99846
1254.504, 95.21441
1254.986, 95.70187
1255.468, 95.55317
1255.951, 94.47717
1256.433, 93.58213
1256.915, 93.69610
1257.397, 94.19248
1257.879, 94.21852
1258.361, 93.96285
1258.843, 93.72651
1259.325, 93.50883
1259.807, 93.27098
1260.290, 93.06033
1260.772, 93.02907
1261.254, 93.17116
1261.736, 93.21615
1262.218, 92.94118
1262.700, 92.95396
1263.182, 94.03464
1263.664, 94.81721
1264.146, 94.31662
1264.629, 93.59378
1265.111, 93.36807
1265.593, 93.52905
1266.075, 94.01971
1266.557, 94.73116
1267.039, 94.76526
1267.521, 93.79715
1268.003, 93.27001
1268.486, 93.24986
1268.968, 93.44425
1269.450, 93.83843
1269.932, 94.07668
1270.414, 93.94965
1270.896, 93.73875
1271.378, 93.75222
1271.860, 93.95866
1272.343, 94.45938
1272.825, 95.02096
1273.307, 94.93722
1273.789, 94.44315
1274.271, 94.27295
1274.753, 94.41891
1275.235, 94.31408
1275.717, 93.76493
1276.199, 93.31068
1276.682, 93.23274
1277.164, 93.36472
1277.646, 93.78661
1278.128, 94.20344
1278.610, 94.53728
1279.092, 94.68359
1279.574, 94.43688
1280.056, 93.94973
1280.538, 93.61832
1281.021, 93.44323
1281.503, 93.38261
1281.985, 93.39626
1282.467, 93.75415
1282.949, 94.59032
1283.431, 95.10414
1283.913, 95.02576
1284.395, 94.68277
1284.878, 94.28523
1285.360, 93.88840
1285.842, 93.56052
1286.324, 93.31202
1286.806, 93.21379
1287.288, 93.29155
##END=



