##NAMES=Foitite
##RRUFFID=R100088
##IDEAL CHEMISTRY=[box](Fe^2+^_2_Al)Al_6_(Si_6_O_18_)(BO_3_)_3_(OH)_3_OH
##LOCALITY=Oceanview mine, Chief Mountain, Pala District, San Diego County, California, USA
##OWNER=RRUFF
##SOURCE=Mark Mauthner
##DESCRIPTION=Elongated prismatic purple to black to green crystals
##STATUS=The identification of this mineral has been confirmed only by single crystal X-ray diffraction.
##URL=rruff.info/R100088
91.53320, 490.6980
92.01532, 502.1185
92.49744, 505.0741
92.97955, 502.8680
93.46167, 493.5890
93.94379, 481.5599
94.42590, 470.9360
94.90802, 460.4188
95.39014, 447.0047
95.87225, 430.0193
96.35437, 413.4161
96.83649, 398.5598
97.31860, 385.1982
97.80072, 373.1883
98.28284, 362.0900
98.76495, 351.5504
99.24707, 342.0046
99.72919, 335.6205
100.2113, 327.7968
100.6934, 315.5780
101.1755, 300.8299
101.6577, 287.5524
102.1398, 279.3228
102.6219, 277.2646
103.1040, 274.2658
103.5861, 269.0219
104.0682, 264.0541
104.5504, 260.6700
105.0325, 259.0752
105.5146, 258.6753
105.9967, 258.8757
106.4788, 260.4254
106.9609, 260.4096
107.4431, 258.0954
107.9252, 254.2675
108.4073, 249.9132
108.8894, 245.2900
109.3715, 240.3412
109.8536, 234.8170
110.3358, 228.4041
110.8179, 222.5310
111.3000, 217.8499
111.7821, 214.3327
112.2642, 211.7976
112.7463, 210.7338
113.2285, 210.3742
113.7106, 209.9696
114.1927, 209.3953
114.6748, 208.7758
115.1569, 208.2319
115.6390, 207.6605
116.1212, 207.4484
116.6033, 208.3661
117.0854, 209.4079
117.5675, 209.4235
118.0496, 207.7132
118.5317, 204.7476
119.0139, 202.8136
119.4960, 203.0532
119.9781, 203.2152
120.4602, 203.1770
120.9423, 202.7623
121.4244, 201.6568
121.9066, 199.5029
122.3887, 196.1460
122.8708, 193.9492
123.3529, 193.3662
123.8350, 193.2134
124.3171, 193.2353
124.7993, 193.2879
125.2814, 193.0166
125.7635, 191.9598
126.2456, 189.8713
126.7277, 188.2612
127.2098, 187.2066
127.6920, 186.6151
128.1741, 186.5134
128.6562, 186.9822
129.1383, 187.5814
129.6204, 187.9935
130.1025, 188.2648
130.5847, 187.7523
131.0668, 185.3985
131.5489, 181.8768
132.0310, 179.6163
132.5131, 179.6625
132.9952, 180.6175
133.4774, 181.5427
133.9595, 182.3902
134.4416, 182.4981
134.9237, 180.7642
135.4058, 176.7664
135.8879, 173.8398
136.3701, 173.4881
136.8522, 173.8666
137.3343, 174.2232
137.8164, 174.3291
138.2985, 174.0292
138.7806, 172.9610
139.2628, 170.4870
139.7449, 168.3869
140.2270, 166.7926
140.7091, 165.5883
141.1912, 164.6560
141.6733, 163.9466
142.1555, 163.5021
142.6376, 163.4899
143.1197, 164.8318
143.6018, 165.5911
144.0839, 165.2792
144.5660, 164.2775
145.0482, 163.0854
145.5303, 161.9118
146.0124, 160.8655
146.4945, 160.7629
146.9766, 162.4906
147.4587, 164.0683
147.9409, 164.4811
148.4230, 163.9256
148.9051, 163.3854
149.3872, 163.5502
149.8693, 164.3371
150.3514, 164.9652
150.8336, 165.1736
151.3157, 165.3723
151.7978, 166.1093
152.2799, 167.5071
152.7620, 168.6597
153.2441, 168.3139
153.7263, 167.2590
154.2084, 166.8709
154.6905, 168.3895
155.1726, 170.7744
155.6547, 171.5656
156.1368, 169.9469
156.6190, 168.1399
157.1011, 167.3029
157.5832, 167.1743
158.0653, 167.2732
158.5474, 167.4566
159.0295, 167.6879
159.5117, 167.4538
159.9938, 166.0945
160.4759, 164.8982
160.9580, 164.4531
161.4401, 164.5866
161.9222, 164.7864
162.4044, 164.5733
162.8865, 163.8514
163.3686, 163.2636
163.8507, 162.9648
164.3328, 162.6535
164.8149, 162.2307
165.2971, 161.6715
165.7792, 160.9823
166.2613, 160.1366
166.7434, 158.9988
167.2255, 158.1371
167.7076, 157.7314
168.1898, 157.4334
168.6719, 156.9296
169.1540, 156.1779
169.6361, 155.4760
170.1182, 155.2810
170.6003, 155.9038
171.0825, 156.2612
171.5646, 156.0923
172.0467, 155.7180
172.5288, 155.5424
173.0109, 155.7023
173.4930, 155.9417
173.9752, 155.7499
174.4573, 155.0501
174.9394, 154.5445
175.4215, 154.5363
175.9036, 154.8671
176.3857, 155.2624
176.8679, 155.8118
177.3500, 156.1137
177.8321, 155.5088
178.3142, 153.9044
178.7963, 152.4761
179.2784, 151.9619
179.7606, 152.2793
180.2427, 152.7973
180.7248, 153.3483
181.2069, 154.0798
181.6890, 155.3094
182.1711, 157.0962
182.6533, 158.6097
183.1354, 158.7215
183.6175, 157.1660
184.0996, 156.3190
184.5817, 157.6019
185.0638, 159.2441
185.5460, 160.1319
186.0281, 160.0434
186.5102, 159.7245
186.9923, 160.2987
187.4744, 162.2029
187.9565, 163.8499
188.4387, 165.1952
188.9208, 166.1668
189.4029, 166.4376
189.8850, 165.9705
190.3671, 165.3751
190.8492, 165.9101
191.3314, 168.7254
191.8135, 170.8130
192.2956, 171.3179
192.7777, 171.4311
193.2598, 172.3843
193.7419, 174.6300
194.2241, 177.4595
194.7062, 179.1607
195.1883, 178.1351
195.6704, 177.7647
196.1525, 178.1544
196.6346, 179.2244
197.1168, 181.0563
197.5989, 183.7186
198.0810, 186.8320
198.5631, 189.2746
199.0452, 190.3880
199.5273, 191.7515
200.0095, 193.7614
200.4916, 196.1576
200.9737, 198.5195
201.4558, 200.6602
201.9379, 202.6815
202.4200, 204.8866
202.9022, 206.9521
203.3843, 209.6124
203.8664, 213.6811
204.3485, 218.6335
204.8306, 222.9223
205.3127, 225.6917
205.7949, 227.6008
206.2770, 230.1164
206.7591, 233.3959
207.2412, 236.8810
207.7233, 240.1619
208.2054, 243.3272
208.6876, 246.8581
209.1697, 251.0552
209.6518, 255.6827
210.1339, 260.3387
210.6160, 265.0318
211.0981, 269.6277
211.5803, 273.6216
212.0624, 276.9985
212.5445, 281.4354
213.0266, 288.0062
213.5087, 295.6600
213.9908, 303.5238
214.4730, 311.4662
214.9551, 319.4416
215.4372, 327.2961
215.9193, 335.0583
216.4014, 342.7182
216.8836, 350.3203
217.3657, 357.8207
217.8478, 365.0085
218.3299, 371.7802
218.8120, 378.8728
219.2941, 387.6124
219.7763, 398.8470
220.2584, 408.8668
220.7405, 417.5187
221.2226, 424.5649
221.7047, 429.5525
222.1868, 432.3970
222.6690, 433.7238
223.1511, 434.6146
223.6332, 435.6308
224.1153, 434.7372
224.5974, 431.7899
225.0795, 427.2391
225.5617, 420.9244
226.0438, 412.9471
226.5259, 404.2359
227.0080, 396.4004
227.4901, 390.0361
227.9722, 383.5889
228.4544, 376.4760
228.9365, 369.5897
229.4186, 363.6388
229.9007, 358.8383
230.3828, 354.9886
230.8649, 351.8854
231.3471, 350.6198
231.8292, 348.2758
232.3113, 344.0868
232.7934, 339.3746
233.2755, 335.0880
233.7576, 331.5385
234.2398, 328.5249
234.7219, 325.7588
235.2040, 323.0792
235.6861, 321.0415
236.1682, 319.9008
236.6503, 319.2398
237.1325, 318.8400
237.6146, 318.6172
238.0967, 318.3239
238.5788, 317.5253
239.0609, 315.7420
239.5430, 314.6231
240.0252, 314.9303
240.5073, 315.5842
240.9894, 315.4016
241.4715, 314.1034
241.9536, 312.4741
242.4357, 311.6422
242.9179, 311.9182
243.4000, 311.5942
243.8821, 310.1041
244.3642, 308.1270
244.8463, 306.4187
245.3284, 305.1317
245.8106, 303.9182
246.2927, 302.3637
246.7748, 300.4599
247.2569, 298.4892
247.7390, 296.3154
248.2211, 294.1634
248.7033, 292.3930
249.1854, 291.1013
249.6675, 289.8270
250.1496, 288.0956
250.6317, 285.9478
251.1138, 283.6434
251.5960, 280.8744
252.0781, 278.1202
252.5602, 276.0034
253.0423, 274.6320
253.5244, 273.6642
254.0065, 273.3648
254.4887, 273.3484
254.9708, 272.3717
255.4529, 269.5214
255.9350, 265.7799
256.4171, 262.4628
256.8992, 259.6383
257.3813, 257.1044
257.8635, 254.7551
258.3456, 252.5938
258.8277, 250.6738
259.3098, 249.2525
259.7919, 247.9543
260.2740, 246.0508
260.7562, 243.3017
261.2383, 240.9844
261.7204, 240.6595
262.2025, 240.9996
262.6846, 240.2727
263.1667, 237.6002
263.6489, 234.1190
264.1310, 231.3228
264.6131, 229.2616
265.0952, 227.6704
265.5773, 226.9002
266.0594, 226.3721
266.5416, 225.5925
267.0237, 224.4699
267.5058, 222.9501
267.9879, 220.6114
268.4700, 217.0918
268.9521, 214.4768
269.4343, 214.7699
269.9164, 215.5958
270.3985, 215.0306
270.8806, 212.5394
271.3627, 209.3805
271.8448, 207.1513
272.3270, 206.0498
272.8091, 204.7901
273.2912, 202.8404
273.7733, 200.7754
274.2554, 199.0444
274.7375, 197.6924
275.2197, 196.2433
275.7018, 193.8882
276.1839, 190.3719
276.6660, 187.6674
277.1481, 186.9362
277.6302, 186.4849
278.1124, 185.5921
278.5945, 184.1718
279.0766, 182.4676
279.5587, 180.6004
280.0408, 178.5142
280.5229, 176.7457
281.0051, 176.1233
281.4872, 175.1270
281.9693, 172.6169
282.4514, 169.0136
282.9335, 165.7949
283.4156, 164.5459
283.8978, 165.3306
284.3799, 165.0276
284.8620, 162.6118
285.3441, 160.0521
285.8262, 157.8516
286.3083, 156.0340
286.7905, 154.5197
287.2726, 153.2688
287.7547, 152.2760
288.2368, 151.5432
288.7189, 151.3940
289.2010, 151.1247
289.6832, 150.6418
290.1653, 149.9079
290.6474, 148.8717
291.1295, 147.4986
291.6116, 145.8239
292.0938, 143.9008
292.5759, 140.8503
293.0580, 138.9244
293.5401, 139.3415
294.0222, 140.6989
294.5043, 141.3268
294.9865, 140.4547
295.4686, 138.8357
295.9507, 138.3816
296.4328, 140.0441
296.9149, 141.1964
297.3970, 141.3447
297.8792, 141.0249
298.3613, 140.5959
298.8434, 140.1931
299.3255, 139.8952
299.8076, 139.8397
300.2897, 140.0882
300.7719, 140.4604
301.2540, 140.9342
301.7361, 141.5134
302.2182, 142.3852
302.7003, 143.4814
303.1824, 144.3720
303.6646, 144.3665
304.1467, 142.9635
304.6288, 142.5102
305.1109, 143.9805
305.5930, 145.4887
306.0751, 146.1808
306.5573, 146.0751
307.0394, 145.5950
307.5215, 144.9572
308.0036, 144.0744
308.4857, 144.3264
308.9678, 147.2712
309.4500, 149.8626
309.9321, 150.9604
310.4142, 151.0341
310.8963, 151.1571
311.3784, 152.0679
311.8605, 153.6612
312.3427, 155.0902
312.8248, 156.4498
313.3069, 157.5103
313.7890, 157.9622
314.2711, 158.1804
314.7532, 158.7454
315.2354, 159.9670
315.7175, 161.4717
316.1996, 162.1396
316.6817, 161.4098
317.1638, 160.6771
317.6459, 160.2382
318.1281, 159.7964
318.6102, 158.9825
319.0923, 157.7093
319.5744, 156.3448
320.0565, 155.5786
320.5386, 155.8850
321.0208, 155.6831
321.5029, 154.6090
321.9850, 153.3210
322.4671, 152.0241
322.9492, 150.8503
323.4313, 150.0575
323.9135, 149.9920
324.3956, 150.8109
324.8777, 151.5707
325.3598, 152.4696
325.8419, 153.1268
326.3240, 153.1613
326.8062, 152.7925
327.2883, 152.5981
327.7704, 153.0455
328.2525, 154.1009
328.7346, 155.1721
329.2167, 156.4149
329.6989, 157.4922
330.1810, 158.3411
330.6631, 158.9762
331.1452, 159.3317
331.6273, 159.3198
332.1094, 159.1855
332.5916, 159.7457
333.0737, 161.5134
333.5558, 163.1219
334.0379, 164.1967
334.5200, 165.1031
335.0021, 166.3230
335.4843, 167.9943
335.9664, 169.5531
336.4485, 169.8326
336.9306, 168.0417
337.4127, 167.3556
337.8948, 169.0253
338.3770, 171.1099
338.8591, 172.4965
339.3412, 173.0972
339.8233, 173.4963
340.3055, 174.3005
340.7876, 175.5560
341.2697, 176.7202
341.7518, 177.8516
342.2339, 178.8074
342.7160, 179.3966
343.1982, 179.7609
343.6803, 180.1824
344.1624, 180.7017
344.6445, 181.4560
345.1266, 183.2856
345.6087, 187.1535
346.0909, 190.5249
346.5730, 192.6147
347.0551, 193.8092
347.5372, 194.4569
348.0193, 194.6115
348.5014, 194.6229
348.9836, 195.0407
349.4657, 195.7777
349.9478, 197.2225
350.4299, 200.1667
350.9120, 203.4428
351.3941, 206.1264
351.8763, 208.0524
352.3584, 209.9169
352.8405, 212.3591
353.3226, 215.3948
353.8047, 218.8257
354.2868, 223.0604
354.7690, 227.2427
355.2511, 230.5879
355.7332, 233.3276
356.2153, 236.4102
356.6974, 240.7232
357.1795, 245.9216
357.6617, 250.6105
358.1438, 254.4999
358.6259, 258.3962
359.1080, 262.6738
359.5901, 267.2430
360.0722, 271.9552
360.5544, 276.4525
361.0365, 281.4107
361.5186, 288.2576
362.0007, 297.2466
362.4828, 305.8415
362.9649, 312.2245
363.4471, 318.1764
363.9292, 325.7071
364.4113, 335.1374
364.8934, 345.7013
365.3755, 357.0556
365.8576, 369.1288
366.3398, 381.4315
366.8219, 393.6553
367.3040, 406.5228
367.7861, 421.3716
368.2682, 437.9606
368.7503, 453.6005
369.2325, 467.7599
369.7146, 480.2124
370.1967, 490.8190
370.6788, 499.7565
371.1609, 505.8896
371.6430, 507.9317
372.1252, 506.2646
372.6073, 502.1997
373.0894, 496.3539
373.5715, 487.7825
374.0536, 474.8411
374.5357, 458.1271
375.0179, 440.6286
375.5000, 423.6009
375.9821, 407.0864
376.4642, 390.8863
376.9463, 374.7396
377.4284, 359.5422
377.9106, 345.8070
378.3927, 333.2540
378.8748, 321.2769
379.3569, 309.6603
379.8390, 299.0599
380.3211, 290.4814
380.8033, 284.2930
381.2854, 278.2328
381.7675, 272.0977
382.2496, 266.1145
382.7317, 260.3287
383.2138, 254.7984
383.6960, 249.7691
384.1781, 245.4226
384.6602, 241.7504
385.1423, 238.3108
385.6244, 234.9660
386.1065, 231.9440
386.5887, 229.5102
387.0708, 227.4283
387.5529, 225.2548
388.0350, 222.7844
388.5171, 220.2323
388.9992, 218.0487
389.4814, 216.1306
389.9635, 214.8421
390.4456, 214.7287
390.9277, 214.8739
391.4098, 214.4168
391.8919, 213.3178
392.3741, 212.2485
392.8562, 211.9245
393.3383, 212.4382
393.8204, 213.0095
394.3025, 213.9022
394.7846, 214.5809
395.2668, 214.9508
395.7489, 214.9639
396.2310, 214.3543
396.7131, 212.8501
397.1952, 211.0407
397.6773, 211.0922
398.1595, 214.5530
398.6416, 217.3606
399.1237, 218.7098
399.6058, 219.4438
400.0879, 220.1858
400.5700, 221.1169
401.0522, 222.1854
401.5343, 223.3437
402.0164, 224.5834
402.4985, 225.9368
402.9806, 227.5621
403.4627, 229.1538
403.9449, 230.5988
404.4270, 231.9024
404.9091, 233.1052
405.3912, 234.2339
405.8733, 235.2797
406.3554, 236.3212
406.8376, 237.6582
407.3197, 238.2367
407.8018, 236.7471
408.2839, 234.7094
408.7660, 233.9138
409.2481, 235.0047
409.7303, 236.1067
410.2124, 235.1952
410.6945, 232.3862
411.1766, 229.4961
411.6587, 227.0077
412.1408, 224.3798
412.6230, 221.0511
413.1051, 217.1093
413.5872, 213.1607
414.0693, 209.3391
414.5514, 205.7073
415.0335, 202.6344
415.5157, 200.2301
415.9978, 197.3399
416.4799, 192.7813
416.9620, 187.2274
417.4441, 182.8113
417.9262, 180.2648
418.4084, 177.9871
418.8905, 174.9268
419.3726, 171.4353
419.8547, 168.4122
420.3368, 166.1533
420.8189, 164.5230
421.3011, 163.5149
421.7832, 163.4283
422.2653, 162.6685
422.7474, 160.3904
423.2295, 157.8281
423.7116, 156.0881
424.1938, 155.1985
424.6759, 154.4667
425.1580, 153.3596
425.6401, 151.9008
426.1222, 150.4868
426.6043, 148.7000
427.0865, 147.4287
427.5686, 147.4061
428.0507, 147.8674
428.5328, 147.6726
429.0149, 146.3956
429.4970, 144.6204
429.9792, 143.3581
430.4613, 142.7890
430.9434, 142.3611
431.4255, 142.4256
431.9076, 142.3045
432.3897, 141.3595
432.8719, 139.8240
433.3540, 138.5259
433.8361, 138.1641
434.3182, 138.5990
434.8003, 138.7947
435.2824, 138.4570
435.7646, 138.3401
436.2467, 139.0541
436.7288, 139.8582
437.2109, 139.8699
437.6930, 138.8068
438.1751, 137.3543
438.6573, 136.2880
439.1394, 135.6180
439.6215, 135.2346
440.1036, 135.2833
440.5857, 135.4530
441.0678, 135.4344
441.5500, 135.3266
442.0321, 135.5084
442.5142, 136.4272
442.9963, 137.6554
443.4784, 138.4722
443.9605, 138.8750
444.4427, 138.8697
444.9248, 138.2677
445.4069, 137.3309
445.8890, 136.5165
446.3711, 135.8297
446.8532, 135.2956
447.3354, 134.8713
447.8175, 134.6181
448.2996, 134.8622
448.7817, 135.7833
449.2638, 136.5047
449.7459, 135.9298
450.2281, 133.9571
450.7102, 132.3837
451.1923, 130.8755
451.6744, 130.1364
452.1565, 131.1735
452.6386, 133.4318
453.1208, 135.2836
453.6029, 135.8833
454.0850, 135.5545
454.5671, 135.1883
455.0492, 134.8049
455.5313, 134.3482
456.0135, 133.6601
456.4956, 133.0043
456.9777, 132.5668
457.4598, 132.3840
457.9419, 132.4260
458.4240, 132.7210
458.9062, 133.2770
459.3883, 133.4828
459.8704, 132.4770
460.3525, 132.1166
460.8346, 133.4253
461.3167, 135.3755
461.7989, 136.6023
462.2810, 136.5818
462.7631, 136.0158
463.2452, 136.1316
463.7273, 137.1681
464.2094, 137.4211
464.6916, 135.7053
465.1737, 134.0702
465.6558, 133.9015
466.1379, 134.8921
466.6200, 135.7674
467.1021, 135.6687
467.5843, 135.0792
468.0664, 135.0519
468.5485, 135.6870
469.0306, 136.1420
469.5127, 135.8741
469.9948, 135.2988
470.4770, 135.0639
470.9591, 135.2377
471.4412, 135.5802
471.9233, 136.0285
472.4054, 136.5524
472.8875, 137.2670
473.3697, 138.2334
473.8518, 138.7152
474.3339, 137.7705
474.8160, 135.4381
475.2981, 134.2578
475.7802, 135.2120
476.2624, 136.2525
476.7445, 136.3223
477.2266, 135.8480
477.7087, 135.6856
478.1908, 136.1754
478.6729, 137.0550
479.1551, 137.8764
479.6372, 138.7344
480.1193, 139.2861
480.6014, 138.9734
481.0835, 138.8948
481.5656, 140.0755
482.0478, 142.0516
482.5299, 143.4769
483.0120, 143.4022
483.4941, 142.2353
483.9762, 141.4631
484.4583, 141.0587
484.9405, 141.1383
485.4226, 142.0440
485.9047, 143.1829
486.3868, 144.1756
486.8689, 144.9459
487.3510, 145.4868
487.8332, 145.5352
488.3153, 145.2797
488.7974, 145.7825
489.2795, 147.4145
489.7616, 148.9805
490.2437, 149.7157
490.7259, 149.9184
491.2080, 149.9242
491.6901, 149.5418
492.1722, 149.4619
492.6543, 150.5088
493.1364, 152.2722
493.6186, 153.4913
494.1007, 153.7780
494.5828, 153.7918
495.0649, 154.3442
495.5470, 155.5121
496.0291, 156.2619
496.5113, 156.3399
496.9934, 156.2012
497.4755, 156.0338
497.9576, 155.8659
498.4397, 155.6755
498.9218, 155.4417
499.4040, 155.2883
499.8861, 155.5409
500.3682, 156.7763
500.8503, 157.3278
501.3324, 156.5982
501.8145, 155.7783
502.2967, 155.6748
502.7788, 156.1636
503.2609, 156.5749
503.7430, 156.3861
504.2251, 155.8302
504.7072, 155.8844
505.1894, 156.9101
505.6715, 157.7175
506.1536, 157.9736
506.6357, 157.9197
507.1178, 157.5221
507.5999, 156.8335
508.0821, 156.4845
508.5642, 157.3201
509.0463, 158.8466
509.5284, 159.5976
510.0105, 159.4222
510.4926, 158.7247
510.9748, 157.2216
511.4569, 155.5195
511.9390, 155.0771
512.4211, 156.6966
512.9032, 158.2542
513.3853, 158.8285
513.8674, 158.6142
514.3495, 157.7951
514.8317, 156.4088
515.3138, 154.8403
515.7959, 153.3844
516.2780, 152.0044
516.7601, 151.3888
517.2422, 152.3800
517.7244, 153.0602
518.2065, 152.5486
518.6886, 151.4026
519.1707, 150.5531
519.6528, 150.3083
520.1349, 150.0692
520.6171, 148.6394
521.0992, 145.3093
521.5813, 143.6958
522.0634, 145.6247
522.5455, 147.5321
523.0276, 148.2331
523.5098, 147.9700
523.9919, 147.2913
524.4740, 146.3799
524.9561, 145.3221
525.4382, 144.0912
525.9203, 142.6839
526.4025, 141.7073
526.8846, 141.3638
527.3667, 141.4343
527.8488, 141.8745
528.3309, 142.6022
528.8130, 143.0691
529.2952, 142.5993
529.7773, 142.1932
530.2594, 143.3161
530.7415, 145.5050
531.2236, 146.5120
531.7057, 145.1908
532.1879, 142.6060
532.6700, 140.7686
533.1521, 139.9522
533.6342, 139.3152
534.1163, 138.6025
534.5984, 138.2750
535.0806, 139.1943
535.5627, 140.8049
536.0448, 141.4553
536.5269, 140.0173
537.0090, 137.3697
537.4911, 136.3130
537.9733, 137.8320
538.4554, 138.7594
538.9375, 138.0975
539.4196, 137.2788
539.9017, 137.3958
540.3839, 138.2590
540.8660, 138.6991
541.3481, 137.4971
541.8302, 135.6273
542.3123, 135.6323
542.7944, 137.8032
543.2766, 139.2802
543.7587, 138.7640
544.2408, 137.0887
544.7229, 135.2576
545.2050, 133.1368
545.6871, 131.9543
546.1693, 132.9218
546.6514, 134.5551
547.1335, 135.2164
547.6156, 134.8910
548.0977, 134.4215
548.5798, 134.3127
549.0620, 134.4372
549.5441, 134.3669
550.0262, 133.9759
550.5083, 133.5408
550.9904, 132.6377
551.4725, 132.0107
551.9547, 132.5893
552.4368, 134.0739
552.9189, 135.1740
553.4010, 134.8251
553.8831, 133.4596
554.3652, 132.9459
554.8474, 133.8665
555.3295, 134.1733
555.8116, 132.4304
556.2937, 130.5176
556.7758, 129.8449
557.2579, 130.4592
557.7401, 131.3685
558.2222, 132.2435
558.7043, 132.9433
559.1864, 133.0920
559.6685, 132.6769
560.1506, 132.4501
560.6328, 132.9610
561.1149, 133.7062
561.5970, 133.4294
562.0791, 131.7219
562.5612, 130.5111
563.0433, 130.2915
563.5255, 130.5977
564.0076, 131.4394
564.4897, 132.5196
564.9718, 132.8980
565.4539, 131.8899
565.9360, 130.0183
566.4182, 129.0565
566.9003, 129.3442
567.3824, 129.9319
567.8645, 131.0954
568.3466, 132.2141
568.8287, 132.9454
569.3109, 133.2793
569.7930, 133.3037
570.2751, 133.0013
570.7572, 132.5039
571.2393, 132.0315
571.7214, 131.5689
572.2036, 131.3514
572.6857, 131.6427
573.1678, 132.0073
573.6499, 131.8194
574.1320, 131.0969
574.6141, 130.6579
575.0963, 131.0121
575.5784, 131.5123
576.0605, 131.6245
576.5426, 131.3944
577.0247, 130.9345
577.5068, 130.2388
577.9890, 129.7310
578.4711, 130.3358
578.9532, 133.0654
579.4353, 134.2846
579.9174, 133.0768
580.3995, 131.4805
580.8817, 129.9406
581.3638, 128.8361
581.8459, 128.9012
582.3280, 130.5906
582.8101, 132.7053
583.2922, 133.0647
583.7744, 131.5037
584.2565, 130.6774
584.7386, 131.5324
585.2207, 132.3129
585.7029, 131.3840
586.1850, 129.4257
586.6671, 128.1945
587.1492, 128.3643
587.6313, 129.0271
588.1135, 129.8607
588.5956, 130.6516
589.0777, 130.7540
589.5598, 129.9881
590.0419, 129.0816
590.5240, 128.8070
591.0062, 129.1934
591.4883, 129.5712
591.9704, 130.2196
592.4525, 130.5282
592.9346, 130.0577
593.4167, 129.3160
593.8989, 128.8278
594.3810, 128.7340
594.8631, 128.9039
595.3452, 129.1726
595.8273, 129.5647
596.3094, 130.5083
596.7916, 132.5030
597.2737, 133.9184
597.7558, 133.5463
598.2379, 132.4787
598.7200, 131.8036
599.2021, 131.6581
599.6843, 131.6703
600.1664, 131.7386
600.6485, 131.8069
601.1306, 131.6817
601.6127, 131.4017
602.0948, 131.5002
602.5770, 132.4304
603.0591, 133.6883
603.5412, 133.8487
604.0233, 131.5662
604.5054, 130.3969
604.9875, 131.2808
605.4697, 132.4304
605.9518, 132.6777
606.4339, 132.2176
606.9160, 131.7384
607.3981, 131.5639
607.8802, 131.8537
608.3624, 133.2702
608.8445, 136.0850
609.3266, 137.7813
609.8087, 137.3603
610.2908, 136.5060
610.7729, 136.3997
611.2551, 136.8711
611.7372, 137.4459
612.2193, 138.2066
612.7014, 138.7823
613.1835, 138.5919
613.6656, 138.0653
614.1478, 138.2107
614.6299, 139.2721
615.1120, 140.6586
615.5941, 141.7478
616.0762, 142.5384
616.5583, 143.7955
617.0405, 146.5974
617.5226, 148.5156
618.0047, 148.3809
618.4868, 147.6602
618.9689, 147.8143
619.4510, 149.0235
619.9332, 150.4503
620.4153, 151.4006
620.8974, 152.0075
621.3795, 152.5586
621.8616, 152.8923
622.3438, 154.1099
622.8259, 157.1980
623.3080, 160.8776
623.7901, 163.2402
624.2722, 164.1983
624.7543, 165.7117
625.2365, 168.7100
625.7186, 172.1387
626.2007, 175.1959
626.6828, 177.9382
627.1649, 180.4986
627.6470, 182.9345
628.1292, 185.6086
628.6113, 189.2774
629.0934, 194.4323
629.5755, 198.5395
630.0576, 201.0741
630.5397, 203.0457
631.0219, 204.5004
631.5040, 205.6438
631.9861, 206.9296
632.4682, 208.5182
632.9503, 209.4023
633.4324, 207.8101
633.9146, 204.7735
634.3967, 204.1275
634.8788, 206.4946
635.3609, 208.1441
635.8430, 206.6565
636.3251, 203.0531
636.8073, 200.2276
637.2894, 198.2301
637.7715, 196.6978
638.2536, 196.1568
638.7357, 195.5785
639.2178, 193.8786
639.7000, 191.4225
640.1821, 189.4432
640.6642, 188.6279
641.1463, 188.4378
641.6284, 187.8289
642.1105, 186.7850
642.5927, 185.3830
643.0748, 183.2764
643.5569, 181.2693
644.0390, 179.9037
644.5211, 178.9220
645.0032, 177.7472
645.4854, 176.0277
645.9675, 174.6129
646.4496, 174.4054
646.9317, 174.7902
647.4138, 174.6229
647.8959, 173.7491
648.3781, 172.5792
648.8602, 171.3325
649.3423, 170.1235
649.8244, 169.5676
650.3065, 170.8384
650.7886, 170.9731
651.2708, 169.0107
651.7529, 166.6764
652.2350, 164.9259
652.7171, 163.8097
653.1992, 163.1012
653.6813, 162.7270
654.1635, 162.5722
654.6456, 162.5337
655.1277, 162.5927
655.6098, 162.5237
656.0919, 162.2856
656.5740, 161.8907
657.0562, 161.1685
657.5383, 160.2496
658.0204, 159.9617
658.5025, 161.2018
658.9846, 161.9520
659.4667, 161.4018
659.9489, 160.2137
660.4310, 159.1064
660.9131, 158.1213
661.3952, 156.7416
661.8773, 154.4360
662.3594, 151.7128
662.8416, 150.3945
663.3237, 150.9642
663.8058, 151.1393
664.2879, 150.2752
664.7700, 149.1444
665.2521, 148.2944
665.7343, 147.6498
666.2164, 146.9347
666.6985, 146.0093
667.1806, 145.0697
667.6627, 144.1573
668.1448, 143.3529
668.6270, 142.8550
669.1091, 142.6902
669.5912, 142.6213
670.0733, 142.4128
670.5554, 142.1319
671.0375, 142.3257
671.5197, 143.8972
672.0018, 144.4240
672.4839, 142.3836
672.9660, 140.3860
673.4481, 140.7306
673.9302, 142.7968
674.4124, 144.0596
674.8945, 142.9809
675.3766, 140.9519
675.8587, 139.3276
676.3408, 138.1976
676.8229, 138.1275
677.3051, 139.3434
677.7872, 140.9912
678.2693, 142.4741
678.7514, 143.7512
679.2335, 144.3127
679.7156, 143.1315
680.1978, 142.6946
680.6799, 143.5828
681.1620, 145.1791
681.6441, 147.3304
682.1262, 149.7399
682.6083, 151.6482
683.0905, 152.4839
683.5726, 152.8122
684.0547, 153.8672
684.5368, 155.6426
685.0189, 156.7104
685.5010, 156.4570
685.9832, 156.2143
686.4653, 157.1026
686.9474, 158.9816
687.4295, 160.9696
687.9116, 163.1502
688.3937, 165.2933
688.8759, 167.2961
689.3580, 169.2559
689.8401, 171.1321
690.3222, 173.0298
690.8043, 175.3024
691.2864, 178.2406
691.7686, 181.5174
692.2507, 184.2719
692.7328, 186.3794
693.2149, 188.7841
693.6970, 191.7309
694.1791, 194.8053
694.6613, 197.3301
695.1434, 199.7964
695.6255, 203.5529
696.1076, 209.7059
696.5897, 215.2816
697.0718, 218.3614
697.5540, 220.4769
698.0361, 223.4844
698.5182, 227.4271
699.0003, 231.4330
699.4824, 235.0132
699.9645, 238.0363
700.4467, 240.0681
700.9288, 240.8771
701.4109, 241.5390
701.8930, 242.3169
702.3751, 242.6822
702.8572, 242.5343
703.3394, 241.7952
703.8215, 240.3039
704.3036, 237.9946
704.7857, 235.1096
705.2678, 231.6667
705.7499, 227.8166
706.2321, 223.6788
706.7142, 219.3250
707.1963, 214.9563
707.6784, 210.6169
708.1605, 206.4485
708.6426, 202.8000
709.1248, 200.0171
709.6069, 196.5057
710.0890, 191.2229
710.5711, 186.4211
711.0532, 183.6053
711.5353, 181.3625
712.0175, 177.4744
712.4996, 171.3933
712.9817, 166.0233
713.4638, 163.7323
713.9459, 162.8454
714.4280, 161.2848
714.9102, 158.9793
715.3923, 156.0061
715.8744, 152.3363
716.3565, 148.6539
716.8386, 145.9590
717.3207, 144.3674
717.8029, 143.0093
718.2850, 141.8954
718.7671, 141.0338
719.2492, 140.9613
719.7313, 140.8031
720.2134, 139.3964
720.6956, 136.7646
721.1777, 134.4694
721.6598, 133.6035
722.1419, 133.4558
722.6240, 133.4117
723.1061, 133.3390
723.5883, 132.4967
724.0704, 130.6030
724.5525, 128.8894
725.0346, 128.7575
725.5167, 130.1514
725.9988, 130.9335
726.4810, 130.8782
726.9631, 130.5070
727.4452, 129.4697
727.9273, 128.4872
728.4094, 128.3770
728.8915, 128.8646
729.3737, 128.7253
729.8558, 126.8592
730.3379, 125.0544
730.8200, 125.6460
731.3021, 127.7886
731.7842, 129.2244
732.2664, 129.5519
732.7485, 129.1375
733.2306, 128.0919
733.7127, 126.7052
734.1948, 126.1544
734.6769, 127.0074
735.1591, 127.6731
735.6412, 128.0654
736.1233, 128.3207
736.6054, 128.4820
737.0875, 128.5605
737.5696, 128.5671
738.0518, 128.5073
738.5339, 128.3627
739.0160, 127.9717
739.4981, 127.5417
739.9802, 127.4321
740.4623, 127.6643
740.9445, 128.2325
741.4266, 129.1900
741.9087, 130.2007
742.3908, 130.5675
742.8729, 129.9512
743.3550, 130.1756
743.8372, 132.4129
744.3193, 134.0835
744.8014, 134.1193
745.2835, 133.4642
745.7656, 133.1128
746.2477, 133.2090
746.7299, 133.3901
747.2120, 133.0854
747.6941, 133.0412
748.1762, 134.8124
748.6583, 137.5993
749.1404, 138.6159
749.6226, 137.0960
750.1047, 134.9970
750.5868, 134.2621
751.0689, 134.8086
751.5510, 135.8328
752.0331, 138.1717
752.5153, 139.3590
752.9974, 137.8333
753.4795, 136.0592
753.9616, 135.8422
754.4437, 136.6919
754.9258, 136.8599
755.4080, 135.6294
755.8901, 133.9555
756.3722, 132.1804
756.8543, 130.5206
757.3364, 129.3719
757.8185, 128.7181
758.3007, 128.1953
758.7828, 127.5904
759.2649, 126.9745
759.7470, 126.5440
760.2291, 126.3837
760.7112, 125.9273
761.1934, 124.6899
761.6755, 123.8926
762.1576, 124.7819
762.6397, 126.1154
763.1218, 126.1158
763.6039, 124.4513
764.0861, 123.2371
764.5682, 123.4430
765.0503, 124.1483
765.5324, 125.1243
766.0145, 125.9324
766.4966, 125.5624
766.9788, 123.8583
767.4609, 122.0900
767.9430, 121.5754
768.4251, 122.0842
768.9072, 122.5036
769.3893, 122.8440
769.8715, 123.0617
770.3536, 123.3054
770.8357, 123.1916
771.3178, 122.1213
771.7999, 120.3093
772.2820, 118.8635
772.7642, 117.7940
773.2463, 117.1674
773.7284, 117.0301
774.2105, 117.3196
774.6926, 118.5102
775.1747, 120.0761
775.6569, 120.4586
776.1390, 118.7758
776.6211, 116.6577
777.1032, 116.6243
777.5853, 118.2381
778.0674, 118.8383
778.5496, 118.1077
779.0317, 117.5717
779.5138, 118.0502
779.9959, 119.0378
780.4780, 119.6881
780.9601, 119.9786
781.4423, 119.9837
781.9244, 119.4116
782.4065, 118.9222
782.8886, 118.9604
783.3707, 119.0426
783.8528, 118.4326
784.3350, 117.1940
784.8171, 116.3372
785.2992, 116.6935
785.7813, 117.5017
786.2634, 117.9393
786.7455, 117.9960
787.2277, 117.3440
787.7098, 115.9484
788.1919, 115.1781
788.6740, 116.2844
789.1561, 118.5808
789.6382, 119.4169
790.1204, 117.7716
790.6025, 117.1424
791.0846, 118.9791
791.5667, 120.4424
792.0488, 120.1511
792.5309, 118.7551
793.0131, 117.0240
793.4952, 114.9152
793.9773, 113.7693
794.4594, 114.9616
794.9415, 116.7591
795.4236, 117.5596
795.9058, 117.6399
796.3879, 117.8850
796.8700, 118.5509
797.3521, 119.2070
797.8342, 119.4680
798.3163, 119.3092
798.7985, 118.3569
799.2806, 116.3036
799.7627, 115.2871
800.2448, 116.1362
800.7269, 117.5848
801.2090, 118.7777
801.6912, 119.6659
802.1733, 120.0976
802.6554, 119.7296
803.1375, 119.4497
803.6196, 119.6852
804.1017, 119.8243
804.5839, 119.1502
805.0660, 118.0857
805.5481, 117.7594
806.0302, 118.5958
806.5123, 119.2130
806.9944, 117.5128
807.4766, 114.7585
807.9587, 114.2329
808.4408, 115.8653
808.9229, 117.6247
809.4050, 118.8125
809.8871, 119.5861
810.3693, 120.0808
810.8514, 120.3011
811.3335, 120.7034
811.8156, 122.0801
812.2977, 122.3004
812.7798, 119.6419
813.2620, 117.0439
813.7441, 116.6317
814.2262, 117.8692
814.7083, 119.0846
815.1904, 120.0658
815.6725, 120.3811
816.1547, 119.0347
816.6368, 117.4144
817.1189, 117.3389
817.6010, 118.4737
818.0831, 119.3536
818.5652, 119.3545
819.0474, 119.0363
819.5295, 119.1537
820.0116, 119.6406
820.4937, 119.8776
820.9758, 119.8329
821.4579, 119.7355
821.9401, 119.6919
822.4222, 119.5550
822.9043, 119.0762
823.3864, 118.2843
823.8685, 117.8356
824.3506, 117.3745
824.8328, 117.7337
825.3149, 120.0837
825.7970, 122.3691
826.2791, 123.2485
826.7612, 122.8313
827.2433, 121.3569
827.7255, 118.6740
828.2076, 116.7994
828.6897, 118.2208
829.1718, 121.1605
829.6539, 122.7194
830.1360, 122.9663
830.6182, 123.0363
831.1003, 123.3558
831.5824, 123.6655
832.0645, 123.6711
832.5466, 123.3774
833.0287, 122.7857
833.5109, 121.7244
833.9930, 120.8472
834.4751, 119.9641
834.9572, 119.6967
835.4393, 121.2348
835.9214, 123.8015
836.4036, 125.0520
836.8857, 124.1458
837.3678, 123.2642
837.8499, 123.1951
838.3320, 123.0907
838.8141, 122.0138
839.2963, 120.5467
839.7784, 119.8631
840.2605, 120.3047
840.7426, 121.0851
841.2247, 121.4969
841.7068, 121.7690
842.1890, 122.4960
842.6711, 123.5513
843.1532, 124.1723
843.6353, 124.1569
844.1174, 123.8613
844.5995, 123.5899
845.0817, 123.3111
845.5638, 122.8289
846.0459, 121.8524
846.5280, 121.5260
847.0101, 122.6583
847.4922, 123.5033
847.9744, 122.7163
848.4565, 121.2756
848.9386, 120.7790
849.4207, 121.5178
849.9028, 121.9546
850.3849, 121.1439
850.8671, 120.4914
851.3492, 120.9624
851.8313, 122.0318
852.3134, 123.2030
852.7955, 124.2200
853.2776, 124.5871
853.7598, 123.7408
854.2419, 122.5786
854.7240, 122.8315
855.2061, 123.9883
855.6882, 123.6622
856.1703, 121.5996
856.6525, 120.1191
857.1346, 120.6520
857.6167, 122.0252
858.0988, 121.8994
858.5809, 119.8960
859.0630, 118.9390
859.5452, 119.5191
860.0273, 120.2822
860.5094, 121.4405
860.9915, 122.1179
861.4736, 121.0393
861.9557, 118.5917
862.4379, 117.1460
862.9200, 117.9577
863.4021, 118.6523
863.8842, 117.9616
864.3663, 117.1845
864.8484, 117.6929
865.3306, 119.0465
865.8127, 120.0933
866.2948, 120.3874
866.7769, 119.9638
867.2590, 118.1647
867.7411, 115.9480
868.2233, 115.5824
868.7054, 116.7910
869.1875, 117.8862
869.6696, 118.3868
870.1517, 118.5715
870.6339, 118.6995
871.1160, 118.7301
871.5981, 118.3492
872.0802, 117.1951
872.5623, 117.0349
873.0444, 118.7811
873.5266, 120.3106
874.0087, 120.4544
874.4908, 119.6062
874.9729, 118.3638
875.4550, 116.5682
875.9371, 115.3086
876.4193, 114.8044
876.9014, 114.7784
877.3835, 115.5722
877.8656, 116.4849
878.3477, 116.6706
878.8298, 116.2126
879.3120, 115.8923
879.7941, 116.1136
880.2762, 116.5567
880.7583, 117.2544
881.2404, 117.8064
881.7225, 117.1648
882.2047, 115.5842
882.6868, 114.5794
883.1689, 114.8035
883.6510, 115.5000
884.1331, 115.6896
884.6152, 115.4762
885.0974, 115.7698
885.5795, 116.7077
886.0616, 117.0819
886.5437, 116.4099
887.0258, 115.6099
887.5079, 115.4215
887.9901, 115.7134
888.4722, 115.9806
888.9543, 116.5783
889.4364, 116.4594
889.9185, 114.8061
890.4006, 113.4029
890.8828, 113.1599
891.3649, 113.4322
891.8470, 113.4117
892.3291, 113.0203
892.8112, 112.6957
893.2933, 112.7654
893.7755, 112.7817
894.2576, 111.9077
894.7397, 111.1684
895.2218, 112.5621
895.7039, 115.4071
896.1860, 116.6991
896.6682, 114.9453
897.1503, 112.4585
897.6324, 112.1647
898.1145, 113.3654
898.5966, 114.0618
899.0787, 114.2326
899.5609, 114.3086
900.0430, 114.4331
900.5251, 114.3004
901.0072, 113.5131
901.4893, 112.3190
901.9714, 112.0494
902.4536, 113.1083
902.9357, 113.5328
903.4178, 112.5935
903.8999, 112.0380
904.3820, 113.3793
904.8641, 115.3370
905.3463, 115.4738
905.8284, 113.4890
906.3105, 112.2855
906.7926, 112.6609
907.2747, 113.0839
907.7568, 113.1171
908.2390, 112.9820
908.7211, 112.8855
909.2032, 112.8104
909.6853, 112.6048
910.1674, 112.1645
910.6495, 111.7996
911.1317, 111.9345
911.6138, 112.0826
912.0959, 111.3784
912.5780, 110.2887
913.0601, 110.0140
913.5422, 110.8270
914.0244, 111.9952
914.5065, 112.9823
914.9886, 113.7508
915.4707, 114.2447
915.9528, 114.4592
916.4349, 114.2820
916.9171, 113.6919
917.3992, 113.1229
917.8813, 112.8006
918.3634, 112.6657
918.8455, 112.6232
919.3276, 112.6744
919.8098, 112.8066
920.2919, 113.0343
920.7740, 113.3192
921.2561, 113.7412
921.7382, 114.1099
922.2203, 114.3223
922.7025, 114.3526
923.1846, 114.0808
923.6667, 113.1371
924.1488, 112.6999
924.6309, 113.4130
925.1130, 114.0454
925.5952, 113.8201
926.0773, 113.3321
926.5594, 113.3805
927.0415, 113.9894
927.5236, 114.4994
928.0057, 114.4382
928.4879, 114.4901
928.9700, 115.4329
929.4521, 116.5002
929.9342, 116.6592
930.4163, 116.1362
930.8984, 115.8091
931.3806, 116.0016
931.8627, 116.2614
932.3448, 115.9852
932.8269, 115.5467
933.3090, 115.9430
933.7911, 116.9053
934.2733, 117.2355
934.7554, 116.7180
935.2375, 115.9171
935.7196, 115.1712
936.2017, 114.5824
936.6838, 114.4006
937.1660, 114.6395
937.6481, 115.0110
938.1302, 115.5404
938.6123, 116.0971
939.0944, 116.6782
939.5765, 117.1758
940.0587, 117.3896
940.5408, 117.4125
941.0229, 117.9614
941.5050, 120.1406
941.9871, 120.8207
942.4692, 118.3532
942.9514, 116.1414
943.4335, 115.4306
943.9156, 115.7859
944.3977, 116.8732
944.8798, 118.6395
945.3619, 120.1875
945.8441, 121.7133
946.3262, 122.4805
946.8083, 121.6488
947.2904, 120.4520
947.7725, 119.6552
948.2546, 119.4106
948.7368, 119.9215
949.2189, 121.2673
949.7010, 122.5686
950.1831, 123.3257
950.6652, 123.7070
951.1473, 124.0161
951.6295, 124.0262
952.1116, 122.8432
952.5937, 120.7752
953.0758, 119.7275
953.5579, 120.8540
954.0400, 122.8476
954.5222, 124.2903
955.0043, 125.1001
955.4864, 124.5400
955.9685, 122.8978
956.4506, 122.5322
956.9327, 124.1424
957.4149, 125.8443
957.8970, 125.9217
958.3791, 124.9293
958.8612, 124.4788
959.3433, 124.5714
959.8254, 125.3756
960.3076, 127.1758
960.7897, 128.3992
961.2718, 128.1590
961.7539, 127.4979
962.2360, 127.8440
962.7181, 129.1195
963.2003, 129.4108
963.6824, 127.7752
964.1645, 127.1350
964.6466, 128.8153
965.1287, 130.2317
965.6108, 129.5327
966.0930, 127.9397
966.5751, 127.2701
967.0572, 127.6413
967.5393, 128.0460
968.0214, 128.3663
968.5035, 128.7290
968.9857, 129.6425
969.4678, 130.1827
969.9499, 129.1670
970.4320, 127.3339
970.9141, 126.3806
971.3962, 126.7678
971.8784, 127.4607
972.3605, 128.3038
972.8426, 128.9552
973.3247, 129.1442
973.8068, 129.0236
974.2889, 128.7994
974.7711, 128.4719
975.2532, 127.7898
975.7353, 126.5324
976.2174, 125.6352
976.6995, 126.4628
977.1816, 127.8019
977.6638, 127.8767
978.1459, 127.0361
978.6280, 126.1454
979.1101, 125.5010
979.5922, 125.4577
980.0743, 126.3612
980.5565, 127.5489
981.0386, 128.0490
981.5207, 127.9149
982.0028, 127.0987
982.4849, 125.7155
982.9670, 124.6148
983.4492, 124.0846
983.9313, 124.2290
984.4134, 125.3176
984.8955, 126.8301
985.3776, 126.9619
985.8597, 125.6631
986.3419, 124.4444
986.8240, 123.2893
987.3061, 123.1871
987.7882, 124.8277
988.2703, 126.9262
988.7524, 127.9360
989.2346, 127.9548
989.7167, 127.9646
990.1988, 127.9630
990.6809, 127.9394
991.1630, 127.7719
991.6451, 127.8284
992.1273, 128.4668
992.6094, 129.2844
993.0915, 129.7050
993.5736, 129.7202
994.0557, 129.5054
994.5378, 128.1629
995.0200, 127.9302
995.5021, 130.6969
995.9842, 132.8389
996.4663, 131.3946
996.9484, 128.4864
997.4305, 127.8979
997.9127, 130.1305
998.3948, 131.6010
998.8769, 131.5196
999.3590, 130.8800
999.8411, 129.4527
1000.323, 128.0718
1000.805, 127.1906
1001.287, 126.9038
1001.770, 127.4514
1002.252, 128.9311
1002.734, 130.3181
1003.216, 131.2498
1003.698, 131.8876
1004.180, 132.4035
1004.662, 132.6122
1005.144, 131.8067
1005.627, 130.5694
1006.109, 130.6722
1006.591, 132.8062
1007.073, 134.6681
1007.555, 134.2537
1008.037, 133.2138
1008.519, 133.1089
1009.001, 133.4805
1009.483, 133.4473
1009.966, 133.0700
1010.448, 133.1849
1010.930, 134.2190
1011.412, 135.0744
1011.894, 134.2216
1012.376, 132.7798
1012.858, 132.3130
1013.340, 132.7393
1013.823, 134.1849
1014.305, 136.3302
1014.787, 137.5541
1015.269, 136.8699
1015.751, 135.6594
1016.233, 136.0716
1016.715, 135.4629
1017.197, 135.2020
1017.679, 135.6658
1018.162, 135.2372
1018.644, 136.2061
1019.126, 137.1798
1019.608, 137.2166
1020.090, 137.8768
1020.572, 137.1651
1021.054, 137.9727
1021.536, 137.8780
1022.018, 136.9202
1022.501, 136.6163
1022.983, 137.3701
1023.465, 138.1225
1023.947, 138.0886
1024.429, 137.5979
1024.911, 137.3183
1025.393, 137.2521
1025.875, 137.4057
1026.358, 137.8876
1026.840, 137.5125
1027.322, 135.7298
1027.804, 134.1889
1028.286, 134.2934
1028.768, 133.4741
1029.250, 133.2906
1029.732, 133.9076
1030.214, 133.6822
1030.697, 134.9759
1031.179, 136.1774
1031.661, 137.0698
1032.143, 137.2693
1032.625, 136.3186
1033.107, 134.5675
1033.589, 132.8663
1034.071, 130.8426
1034.553, 130.6661
1035.036, 133.3019
1035.518, 135.7354
1036.000, 137.4718
1036.482, 138.3600
1036.964, 137.9691
1037.446, 136.7537
1037.928, 136.0705
1038.410, 136.1057
1038.893, 136.0063
1039.375, 135.4935
1039.857, 135.2978
1040.339, 135.8264
1040.821, 136.4850
1041.303, 136.8096
1041.785, 136.9198
1042.267, 137.1349
1042.750, 137.4496
1043.232, 137.8832
1043.714, 138.6965
1044.196, 139.2725
1044.678, 139.3543
1045.160, 139.2568
1045.642, 138.9463
1046.124, 138.6823
1046.606, 139.1947
1047.089, 140.8296
1047.571, 141.9194
1048.053, 142.1245
1048.535, 141.9855
1049.017, 141.1267
1049.499, 140.4604
1049.981, 140.7963
1050.463, 141.8165
1050.945, 142.8846
1051.428, 144.0258
1051.910, 144.5823
1052.392, 143.4740
1052.874, 143.0417
1053.356, 144.5943
1053.838, 146.5737
1054.320, 148.2329
1054.802, 149.2519
1055.285, 148.8769
1055.767, 146.8338
1056.249, 145.6012
1056.731, 146.6612
1057.213, 147.5317
1057.695, 146.9460
1058.177, 146.1719
1058.659, 146.7501
1059.141, 147.6654
1059.624, 146.4176
1060.106, 142.5843
1060.588, 140.3281
1061.070, 142.5661
1061.552, 144.4932
1062.034, 143.8154
1062.516, 142.4911
1062.998, 141.8698
1063.480, 141.7917
1063.963, 141.7923
1064.445, 141.7927
1064.927, 141.9329
1065.409, 142.4728
1065.891, 142.8787
1066.373, 143.2540
1066.855, 143.0954
1067.337, 141.2187
1067.820, 138.9435
1068.302, 138.6232
1068.784, 140.3422
1069.266, 141.4995
1069.748, 140.8105
1070.230, 139.9222
1070.712, 139.6069
1071.194, 139.3125
1071.677, 138.4675
1072.159, 137.4577
1072.641, 136.8110
1073.123, 136.5966
1073.605, 136.7658
1074.087, 137.7255
1074.569, 138.0408
1075.051, 136.1311
1075.533, 134.3017
1076.016, 134.2407
1076.498, 135.2360
1076.980, 136.6695
1077.462, 138.1609
1077.944, 138.8043
1078.426, 138.0559
1078.908, 137.3113
1079.390, 137.0836
1079.873, 137.2255
1080.355, 137.7852
1080.837, 138.5602
1081.319, 139.4251
1081.801, 140.2874
1082.283, 141.0072
1082.765, 141.5728
1083.247, 141.8063
1083.729, 141.2251
1084.212, 140.7688
1084.694, 141.1547
1085.176, 141.8003
1085.658, 142.1439
1086.140, 142.2167
1086.622, 142.2772
1087.104, 142.3940
1087.586, 142.3164
1088.068, 141.8147
1088.551, 141.2515
1089.033, 141.2582
1089.515, 140.8717
1089.997, 138.4931
1090.479, 135.3791
1090.961, 134.1388
1091.443, 135.1386
1091.925, 135.9315
1092.408, 136.0993
1092.890, 135.2072
1093.372, 131.7394
1093.854, 128.5296
1094.336, 128.2269
1094.818, 129.1861
1095.300, 128.7848
1095.782, 126.8562
1096.265, 125.0347
1096.747, 123.6387
1097.229, 122.6979
1097.711, 122.6503
1098.193, 122.5748
1098.675, 121.6304
1099.157, 120.5729
1099.639, 120.3432
1100.121, 120.8602
1100.604, 121.4334
1101.086, 121.9653
1101.568, 122.3980
1102.050, 123.0767
1102.532, 123.1998
1103.014, 121.9212
1103.496, 120.3595
1103.978, 119.6140
1104.460, 119.4030
1104.943, 118.8278
1105.425, 117.7287
1105.907, 116.4935
1106.389, 114.3758
1106.871, 113.2470
1107.353, 114.4843
1107.835, 116.0464
1108.317, 116.7069
1108.800, 116.6535
1109.282, 116.2872
1109.764, 115.6374
1110.246, 114.6017
1110.728, 112.0780
1111.210, 110.8085
1111.692, 112.4516
1112.174, 113.9267
1112.656, 113.4418
1113.139, 112.1940
1113.621, 111.7239
1114.103, 111.9484
1114.585, 111.7220
1115.067, 110.5346
1115.549, 109.8056
1116.031, 109.6984
1116.513, 109.8279
1116.995, 110.2159
1117.478, 110.6433
1117.960, 110.8703
1118.442, 110.9999
1118.924, 111.4327
1119.406, 111.3420
1119.888, 111.1615
1120.370, 111.4585
1120.852, 110.7430
1121.335, 111.1595
1121.817, 111.6208
1122.299, 111.3541
1122.781, 110.7780
1123.263, 110.7487
1123.745, 110.1392
1124.227, 109.4085
1124.709, 109.1679
1125.192, 107.9299
1125.674, 107.5067
1126.156, 107.2856
1126.638, 106.9797
1127.120, 106.7576
1127.602, 106.8044
1128.084, 107.1174
1128.566, 107.8372
1129.048, 109.1068
1129.531, 109.2611
1130.013, 107.9833
1130.495, 107.5395
1130.977, 108.7679
1131.459, 110.1750
1131.941, 110.5703
1132.423, 110.2458
1132.905, 109.7573
1133.387, 109.1149
1133.870, 108.2024
1134.352, 107.0677
1134.834, 107.5845
1135.316, 110.0725
1135.798, 111.5440
1136.280, 110.3133
1136.762, 108.2496
1137.244, 107.7583
1137.727, 108.3181
1138.209, 108.4315
1138.691, 108.1790
1139.173, 107.6620
1139.655, 107.0590
1140.137, 107.5765
1140.619, 109.4911
1141.101, 110.7701
1141.583, 109.5777
1142.066, 107.4461
1142.548, 106.5871
1143.030, 106.5845
1143.512, 106.7202
1143.994, 106.9480
1144.476, 107.3902
1144.958, 107.9701
1145.440, 108.1651
1145.922, 107.6712
1146.405, 107.3843
1146.887, 108.9612
1147.369, 110.4102
1147.851, 108.7919
1148.333, 105.9818
1148.815, 104.7760
1149.297, 104.9564
1149.779, 105.0285
1150.262, 104.6119
1150.744, 104.5992
1151.226, 105.7905
1151.708, 107.0418
1152.190, 107.6510
1152.672, 107.9707
1153.154, 108.3788
1153.636, 108.6528
1154.119, 108.2769
1154.601, 107.3954
1155.083, 106.8492
1155.565, 106.9343
1156.047, 107.1256
1156.529, 107.3573
1157.011, 107.5224
1157.493, 107.6209
1157.975, 107.5896
1158.458, 107.1257
1158.940, 106.5796
1159.422, 106.9202
1159.904, 108.3597
1160.386, 108.6261
1160.868, 105.9667
1161.350, 104.5398
1161.832, 105.9553
1162.314, 107.1270
1162.797, 106.1051
1163.279, 104.9477
1163.761, 106.3373
1164.243, 109.4490
1164.725, 110.2713
1165.207, 107.9985
1165.689, 106.1919
1166.171, 104.7278
1166.654, 104.1715
1167.136, 104.8616
1167.618, 105.9137
1168.100, 106.8290
1168.582, 107.5789
1169.064, 108.1575
1169.546, 108.5225
1170.028, 108.0512
1170.510, 108.1303
1170.993, 108.0129
1171.475, 107.1635
1171.957, 107.3953
1172.439, 106.3359
1172.921, 105.2601
1173.403, 105.3460
1173.885, 106.0631
1174.367, 106.3662
1174.849, 106.4121
1175.332, 106.8148
1175.814, 107.4531
1176.296, 107.6863
1176.778, 107.5099
1177.260, 107.7437
1177.742, 108.7742
1178.224, 109.4026
1178.706, 107.9540
1179.189, 106.0675
1179.671, 105.8395
1180.153, 106.5653
1180.635, 107.6522
1181.117, 108.6610
1181.599, 108.7260
1182.081, 107.8496
1182.563, 107.0665
1183.046, 106.8142
1183.528, 106.9013
1184.010, 107.4853
1184.492, 108.0624
1184.974, 108.4516
1185.456, 108.5244
1185.938, 107.7840
1186.420, 106.7372
1186.902, 106.6566
1187.385, 107.8000
1187.867, 108.6843
1188.349, 108.8686
1188.831, 109.0038
1189.313, 109.5003
1189.795, 109.6276
1190.277, 108.5070
1190.759, 107.2909
1191.241, 107.3506
1191.724, 106.6216
1192.206, 106.3788
1192.688, 106.8186
1193.170, 106.6229
1193.652, 108.1179
1194.134, 109.5338
1194.616, 110.7320
1195.098, 110.9822
1195.581, 109.6214
1196.063, 107.9131
1196.545, 107.6654
1197.027, 108.4798
1197.509, 108.6617
1197.991, 108.2338
1198.473, 107.2769
1198.955, 105.9052
1199.438, 105.5332
1199.920, 106.4994
1200.402, 107.9004
1200.884, 109.1776
1201.366, 110.0862
1201.848, 110.3623
1202.330, 110.0071
1202.812, 108.3848
1203.294, 106.4326
1203.776, 106.2824
1204.259, 107.5855
1204.741, 108.8481
1205.223, 109.5668
1205.705, 109.6803
1206.187, 108.8566
1206.669, 108.2095
1207.151, 108.6937
1207.633, 109.4592
1208.116, 109.8683
1208.598, 110.1582
1209.080, 110.6989
1209.562, 111.3849
1210.044, 111.9191
1210.526, 112.2645
1211.008, 112.2244
1211.490, 111.2794
1211.973, 110.6740
1212.455, 110.6507
1212.937, 111.0129
1213.419, 112.2702
1213.901, 113.2176
1214.383, 112.2333
1214.865, 110.1314
1215.347, 109.8410
1215.829, 111.7928
1216.312, 112.6062
1216.794, 112.1778
1217.276, 110.8690
1217.758, 108.4913
1218.240, 106.9529
1218.722, 107.2513
1219.204, 108.2830
1219.686, 108.8869
1220.168, 109.1360
1220.651, 108.9118
1221.133, 108.5281
1221.615, 109.6289
1222.097, 111.7859
1222.579, 113.1830
1223.061, 113.4201
1223.543, 112.4131
1224.025, 110.1366
1224.508, 108.2391
1224.990, 108.4290
1225.472, 109.3612
1225.954, 109.8719
1226.436, 110.2257
1226.918, 110.9514
1227.400, 111.6162
1227.882, 111.4343
1228.365, 110.4176
1228.847, 108.9343
1229.329, 106.5641
1229.811, 105.9787
1230.293, 110.2456
1230.775, 113.1597
1231.257, 111.5363
1231.739, 109.1993
1232.221, 108.6193
1232.703, 108.7004
1233.186, 107.7596
1233.668, 108.2716
1234.150, 108.8480
1234.632, 108.9155
1235.114, 109.5130
1235.596, 109.6545
1236.078, 110.2263
1236.560, 110.0378
1237.043, 110.0130
1237.525, 110.2487
1238.007, 110.7293
1238.489, 111.5442
1238.971, 112.4247
1239.453, 112.5547
1239.935, 112.1418
1240.417, 111.8699
1240.900, 111.7135
1241.382, 111.5662
1241.864, 111.2692
1242.346, 109.9855
1242.828, 107.2334
1243.310, 105.3112
1243.792, 106.8679
1244.274, 109.0160
1244.756, 109.5041
1245.239, 109.4152
1245.721, 109.9253
1246.203, 110.5202
1246.685, 110.0400
1247.167, 108.6860
1247.649, 108.0588
1248.131, 108.6361
1248.613, 109.2478
1249.095, 109.6958
1249.578, 110.2900
1250.060, 111.5334
1250.542, 112.1610
1251.024, 111.1644
1251.506, 109.8507
1251.988, 109.8822
1252.470, 110.8153
1252.952, 110.8393
1253.435, 109.9221
1253.917, 109.3365
1254.399, 109.1107
1254.881, 109.8508
1255.363, 111.5555
1255.845, 112.5481
1256.327, 112.0738
1256.809, 111.5437
1257.292, 112.4613
1257.774, 113.6349
1258.256, 113.0381
1258.738, 113.7984
1259.220, 112.5561
1259.702, 113.8910
1260.184, 114.5055
1260.666, 114.1984
1261.148, 112.9041
1261.630, 110.5907
1262.113, 109.2590
1262.595, 110.4157
1263.077, 111.4839
1263.559, 111.8817
1264.041, 111.8472
1264.523, 110.9095
1265.005, 110.1598
1265.487, 110.7179
1265.970, 112.0467
1266.452, 112.9834
1266.934, 113.5337
1267.416, 113.4262
1267.898, 112.5688
1268.380, 111.5837
1268.862, 110.4763
1269.344, 110.4842
1269.827, 112.0231
1270.309, 113.3978
1270.791, 113.3809
1271.273, 112.5554
1271.755, 111.1437
1272.237, 109.9311
1272.719, 111.0382
1273.201, 110.2120
1273.683, 112.7940
1274.166, 111.3462
1274.648, 111.7423
1275.130, 114.1271
1275.612, 115.7808
1276.094, 115.6970
1276.576, 114.7988
1277.058, 112.2313
1277.540, 110.6079
1278.022, 111.7946
1278.505, 113.3117
1278.987, 113.8590
1279.469, 113.5430
1279.951, 112.0265
1280.433, 109.8928
1280.915, 109.7190
1281.397, 111.8729
1281.879, 113.2997
1282.362, 113.9646
1282.844, 114.2405
1283.326, 114.1854
1283.808, 113.9023
1284.290, 113.4284
1284.772, 112.9014
1285.254, 112.3754
1285.736, 111.8456
##END=



