##NAMES=Foordite
##RRUFFID=R130012
##IDEAL CHEMISTRY=Sn^2+^Nb^5+^_2_O_6_
##LOCALITY=Manono, Shaba, Congo
##OWNER=RRUFF
##SOURCE=Michael Scott
##DESCRIPTION=Brown massive, strong cleavage, yellowish-brown when thin
##STATUS=The identification of this mineral has been confirmed by single-crystal X-ray diffraction.
##URL=rruff.info/R130012
90.23535, 659.8604
90.71747, 649.3660
91.19958, 643.1012
91.68170, 659.1653
92.16382, 672.3712
92.64594, 676.5043
93.12805, 672.8165
93.61017, 664.3200
94.09229, 651.5905
94.57440, 632.9043
95.05651, 612.9305
95.53863, 591.6461
96.02074, 570.0492
96.50286, 548.6276
96.98498, 527.1584
97.46709, 505.2473
97.94921, 486.4501
98.43133, 470.5376
98.91344, 456.7987
99.39556, 445.0162
99.87768, 435.0131
100.3598, 426.7588
100.8419, 420.3669
101.3240, 415.8135
101.8061, 411.9836
102.2883, 408.5611
102.7704, 405.9439
103.2525, 404.7742
103.7346, 405.2402
104.2167, 405.9907
104.6988, 405.8963
105.1810, 405.3761
105.6631, 405.0892
106.1452, 405.4282
106.6273, 406.2286
107.1094, 406.8360
107.5915, 407.1102
108.0737, 407.3139
108.5558, 407.5918
109.0379, 407.8983
109.5200, 408.1206
110.0021, 408.1801
110.4842, 408.0915
110.9664, 407.7406
111.4485, 406.8863
111.9306, 405.9912
112.4127, 405.3747
112.8948, 405.0266
113.3769, 404.6187
113.8591, 403.6676
114.3412, 401.6837
114.8233, 399.9732
115.3054, 398.6613
115.7875, 397.5372
116.2696, 396.3419
116.7517, 394.9645
117.2339, 393.5919
117.7160, 392.7412
118.1981, 392.5571
118.6802, 392.4202
119.1623, 392.2288
119.6444, 391.9567
120.1266, 391.5508
120.6087, 391.0405
121.0908, 390.2911
121.5729, 389.2334
122.0550, 388.0015
122.5371, 386.2359
123.0193, 383.4986
123.5014, 379.6973
123.9835, 375.6614
124.4656, 371.9401
124.9477, 368.1447
125.4298, 363.8446
125.9120, 358.8841
126.3941, 353.4050
126.8762, 347.8399
127.3583, 342.4834
127.8404, 336.4230
128.3225, 329.0379
128.8047, 320.9626
129.2868, 313.0463
129.7689, 305.8114
130.2510, 299.2217
130.7331, 292.7653
131.2152, 286.3055
131.6974, 280.0791
132.1795, 274.0885
132.6616, 268.3806
133.1437, 263.0940
133.6258, 258.3525
134.1079, 254.2191
134.5901, 250.1900
135.0722, 245.7386
135.5543, 241.7570
136.0364, 238.9701
136.5185, 237.3633
137.0006, 236.1856
137.4828, 234.6138
137.9649, 232.5152
138.4470, 230.6929
138.9291, 229.3829
139.4112, 228.2914
139.8933, 226.9684
140.3755, 225.2315
140.8576, 223.6217
141.3397, 222.8712
141.8218, 222.8731
142.3039, 223.3086
142.7860, 224.2458
143.2681, 225.5610
143.7503, 226.7973
144.2324, 227.7599
144.7145, 228.7298
145.1966, 229.9243
145.6787, 231.3449
146.1608, 232.9330
146.6430, 234.6042
147.1251, 236.3422
147.6072, 238.3489
148.0893, 240.7024
148.5714, 243.3559
149.0535, 246.3317
149.5357, 249.6198
150.0178, 253.2075
150.4999, 257.0749
150.9820, 261.3998
151.4641, 265.7089
151.9462, 269.8755
152.4284, 274.0651
152.9105, 278.6700
153.3926, 283.7743
153.8747, 288.8766
154.3568, 292.7057
154.8389, 294.6271
155.3211, 295.7794
155.8032, 296.4760
156.2853, 296.3864
156.7674, 295.1242
157.2495, 292.4998
157.7316, 288.5635
158.2138, 283.3687
158.6959, 276.2211
159.1780, 268.8068
159.6601, 260.9962
160.1422, 253.1823
160.6243, 246.2678
161.1065, 240.9074
161.5886, 236.8635
162.0707, 232.8678
162.5528, 228.7258
163.0349, 224.8158
163.5170, 221.4099
163.9991, 218.4771
164.4813, 215.7869
164.9634, 213.2141
165.4455, 210.8094
165.9276, 208.6416
166.4097, 206.7182
166.8918, 205.0239
167.3740, 203.5900
167.8561, 202.4522
168.3382, 201.4158
168.8203, 200.2070
169.3024, 199.0689
169.7845, 198.3699
170.2667, 198.4031
170.7488, 198.8730
171.2309, 199.1833
171.7130, 199.5404
172.1951, 199.2840
172.6772, 197.7604
173.1594, 195.6497
173.6415, 193.9166
174.1236, 193.1793
174.6057, 193.2804
175.0878, 193.2952
175.5699, 193.3848
176.0521, 193.1679
176.5342, 192.3459
177.0163, 191.1662
177.4984, 190.0620
177.9805, 189.3592
178.4626, 189.0608
178.9448, 188.6586
179.4269, 188.1028
179.9090, 187.4930
180.3911, 186.7484
180.8732, 185.9556
181.3553, 185.3087
181.8375, 184.9768
182.3196, 184.9854
182.8017, 185.0948
183.2838, 185.4053
183.7659, 185.7021
184.2480, 185.8091
184.7301, 185.7641
185.2123, 185.7881
185.6944, 186.0890
186.1765, 186.7126
186.6586, 187.3635
187.1407, 188.0114
187.6228, 188.6996
188.1050, 189.4743
188.5871, 190.3347
189.0692, 191.2294
189.5513, 192.1247
190.0334, 193.0155
190.5155, 193.8639
190.9977, 194.7337
191.4798, 195.5245
191.9619, 196.1401
192.4440, 196.5740
192.9261, 196.8139
193.4082, 196.7283
193.8904, 196.4094
194.3725, 196.1074
194.8546, 196.1030
195.3367, 196.1338
195.8188, 195.5202
196.3009, 193.8295
196.7831, 192.3438
197.2652, 192.2701
197.7473, 193.1572
198.2294, 193.8859
198.7115, 193.6530
199.1936, 192.7307
199.6758, 192.2993
200.1579, 192.5522
200.6400, 193.1164
201.1221, 193.8113
201.6042, 194.6149
202.0863, 195.4721
202.5685, 196.2858
203.0506, 197.0749
203.5327, 198.1679
204.0148, 199.8175
204.4969, 201.5312
204.9790, 203.2168
205.4612, 204.8152
205.9433, 206.2271
206.4254, 207.2746
206.9075, 207.9189
207.3896, 208.9588
207.8717, 210.6292
208.3539, 212.5115
208.8360, 214.5773
209.3181, 216.7616
209.8002, 218.9318
210.2823, 220.9168
210.7644, 222.6165
211.2466, 224.9430
211.7287, 228.4036
212.2108, 231.9458
212.6929, 235.1501
213.1750, 238.0506
213.6571, 240.9811
214.1393, 244.2876
214.6214, 248.1043
215.1035, 251.3291
215.5856, 253.7411
216.0677, 255.9165
216.5498, 258.2271
217.0320, 260.6152
217.5141, 262.7805
217.9962, 264.4789
218.4783, 265.6823
218.9604, 266.1564
219.4425, 265.7898
219.9247, 264.8932
220.4068, 263.6580
220.8889, 262.0867
221.3710, 260.0566
221.8531, 257.4366
222.3352, 254.1522
222.8174, 250.5798
223.2995, 246.6704
223.7816, 242.5123
224.2637, 237.9424
224.7458, 232.9975
225.2279, 228.3984
225.7100, 224.8133
226.1922, 222.1922
226.6743, 219.6121
227.1564, 216.7688
227.6385, 214.1084
228.1206, 212.1837
228.6027, 211.0403
229.0849, 210.0365
229.5670, 208.5345
230.0491, 206.8371
230.5312, 205.7795
231.0133, 205.7883
231.4954, 206.3449
231.9776, 206.9339
232.4597, 207.5596
232.9418, 208.1877
233.4239, 208.8040
233.9060, 209.4094
234.3881, 209.9729
234.8703, 210.2723
235.3524, 210.7086
235.8345, 212.0544
236.3166, 214.6125
236.7987, 216.8456
237.2808, 217.6496
237.7630, 217.7864
238.2451, 218.0264
238.7272, 218.5908
239.2093, 219.3809
239.6914, 220.2316
240.1735, 221.1210
240.6557, 222.1610
241.1378, 223.2117
241.6199, 224.5000
242.1020, 226.3115
242.5841, 228.7774
243.0662, 231.6830
243.5484, 234.6768
244.0305, 237.7316
244.5126, 240.9500
244.9947, 244.3328
245.4768, 247.8771
245.9589, 251.5690
246.4410, 255.4063
246.9232, 259.4351
247.4053, 263.8460
247.8874, 268.8003
248.3695, 273.7400
248.8516, 278.5599
249.3337, 283.3152
249.8159, 288.2061
250.2980, 293.2745
250.7801, 298.0550
251.2622, 301.8971
251.7443, 304.9270
252.2264, 306.5266
252.7086, 306.7842
253.1907, 305.7969
253.6728, 303.4835
254.1549, 299.8743
254.6370, 295.2664
255.1191, 290.0263
255.6013, 284.0243
256.0834, 277.6336
256.5655, 270.8109
257.0476, 263.7410
257.5297, 256.2498
258.0118, 248.4524
258.4940, 240.8743
258.9761, 234.2513
259.4582, 228.8890
259.9403, 223.7926
260.4224, 218.9917
260.9045, 214.3264
261.3867, 209.6330
261.8688, 204.9230
262.3509, 200.4649
262.8330, 196.5735
263.3151, 193.4456
263.7972, 190.1914
264.2794, 186.5777
264.7615, 183.0654
265.2436, 179.9866
265.7257, 177.3114
266.2078, 174.7206
266.6899, 171.8600
267.1721, 168.6103
267.6542, 165.9743
268.1363, 164.3230
268.6184, 162.8112
269.1005, 160.9527
269.5826, 158.8333
270.0648, 156.8979
270.5469, 155.5363
271.0290, 154.7822
271.5111, 153.8734
271.9932, 152.4974
272.4753, 151.3047
272.9575, 150.5586
273.4396, 150.2257
273.9217, 150.1966
274.4038, 150.4336
274.8859, 150.9098
275.3680, 151.2884
275.8501, 151.3718
276.3322, 151.5925
276.8144, 151.9729
277.2965, 152.5987
277.7786, 153.7451
278.2607, 155.6652
278.7428, 158.0681
279.2249, 159.6716
279.7071, 159.9244
280.1892, 160.2103
280.6713, 160.8631
281.1534, 161.7816
281.6355, 162.7944
282.1176, 163.8300
282.5998, 164.9106
283.0819, 166.0627
283.5640, 167.1674
284.0461, 168.5428
284.5282, 170.3594
285.0103, 172.4597
285.4925, 174.6369
285.9746, 176.8358
286.4567, 179.0418
286.9388, 181.2306
287.4209, 183.3314
287.9030, 185.6165
288.3852, 188.0445
288.8673, 190.7028
289.3494, 193.7452
289.8315, 197.2169
290.3136, 200.8543
290.7957, 204.3448
291.2779, 207.6227
291.7600, 211.2093
292.2421, 215.5423
292.7242, 219.9884
293.2063, 223.9349
293.6884, 227.3187
294.1706, 230.3945
294.6527, 233.4607
295.1348, 236.4770
295.6169, 238.8611
296.0990, 240.9185
296.5811, 242.0999
297.0633, 242.0029
297.5454, 240.6170
298.0275, 238.0619
298.5096, 234.2817
298.9917, 229.2725
299.4738, 223.7799
299.9560, 217.5076
300.4381, 211.0812
300.9202, 204.6460
301.4023, 198.2795
301.8844, 192.2205
302.3665, 186.6004
302.8487, 181.3512
303.3308, 176.1509
303.8129, 170.7177
304.2950, 165.7164
304.7771, 161.4251
305.2592, 157.7864
305.7414, 154.7399
306.2235, 152.3904
306.7056, 150.3990
307.1877, 148.0597
307.6698, 145.1982
308.1519, 142.6895
308.6341, 141.0628
309.1162, 139.9256
309.5983, 138.5728
310.0804, 136.7818
310.5625, 134.9648
311.0446, 133.7285
311.5268, 133.0645
312.0089, 132.4920
312.4910, 131.9123
312.9731, 131.3794
313.4552, 130.9661
313.9373, 130.6862
314.4195, 130.4676
314.9016, 130.2493
315.3837, 130.0334
315.8658, 129.8502
316.3479, 129.7435
316.8300, 129.6408
317.3121, 129.4527
317.7943, 129.1862
318.2764, 128.9644
318.7585, 128.8570
319.2406, 128.8727
319.7227, 128.9808
320.2048, 129.2917
320.6870, 129.5841
321.1691, 129.6284
321.6512, 129.5253
322.1333, 129.6931
322.6154, 130.4396
323.0975, 131.4381
323.5797, 131.8218
324.0618, 131.4001
324.5439, 130.9183
325.0260, 130.4518
325.5081, 130.1284
325.9902, 130.2280
326.4724, 130.8764
326.9545, 131.8388
327.4366, 132.8467
327.9187, 133.9675
328.4008, 134.7887
328.8829, 135.0579
329.3651, 135.0647
329.8472, 135.0587
330.3293, 135.0824
330.8114, 135.3011
331.2935, 135.9944
331.7756, 137.2059
332.2578, 137.9955
332.7399, 137.8598
333.2220, 137.6475
333.7041, 138.0240
334.1862, 138.9610
334.6683, 140.0137
335.1505, 140.9196
335.6326, 141.6679
336.1147, 142.2310
336.5968, 142.5801
337.0789, 142.8084
337.5610, 142.8651
338.0432, 142.8294
338.5253, 142.9051
339.0074, 143.2082
339.4895, 143.6302
339.9716, 143.8763
340.4537, 143.9519
340.9359, 143.8835
341.4180, 143.6165
341.9001, 143.2292
342.3822, 142.7707
342.8643, 142.2560
343.3464, 141.8147
343.8286, 141.6607
344.3107, 141.9756
344.7928, 142.0370
345.2749, 141.7430
345.7570, 141.2617
346.2391, 140.5805
346.7213, 139.7726
347.2034, 139.1531
347.6855, 139.0578
348.1676, 139.5244
348.6497, 139.7152
349.1318, 139.3984
349.6140, 139.0901
350.0961, 139.0605
350.5782, 139.2162
351.0603, 139.2938
351.5424, 139.1230
352.0245, 138.7940
352.5067, 138.6983
352.9888, 138.8279
353.4709, 139.1975
353.9530, 140.0852
354.4351, 141.1056
354.9172, 141.7607
355.3994, 141.8849
355.8815, 141.7813
356.3636, 141.9651
356.8457, 142.5846
357.3278, 143.2162
357.8099, 143.7537
358.2920, 144.3789
358.7741, 145.2475
359.2563, 146.3513
359.7384, 147.5427
360.2205, 148.6938
360.7026, 149.8065
361.1847, 150.8564
361.6668, 151.7028
362.1490, 152.6330
362.6311, 153.7511
363.1132, 155.0282
363.5953, 156.3878
364.0774, 157.7917
364.5595, 159.2278
365.0417, 160.6393
365.5238, 161.9075
366.0059, 163.3233
366.4880, 164.9720
366.9701, 166.7422
367.4522, 168.5722
367.9344, 170.4221
368.4165, 172.2178
368.8986, 173.8397
369.3807, 175.2331
369.8628, 176.5886
370.3449, 178.0182
370.8271, 179.3325
371.3092, 180.5143
371.7913, 181.5092
372.2734, 182.2054
372.7555, 182.4343
373.2376, 182.2124
373.7198, 182.0994
374.2019, 182.5242
374.6840, 182.4930
375.1661, 181.6615
375.6482, 180.2031
376.1303, 178.3733
376.6125, 176.2558
377.0946, 173.9057
377.5767, 171.4205
378.0588, 168.7753
378.5409, 166.0611
379.0230, 163.2399
379.5052, 160.3943
379.9873, 157.6089
380.4694, 154.8981
380.9515, 152.1478
381.4336, 149.1147
381.9157, 145.8066
382.3979, 142.9996
382.8800, 141.1396
383.3621, 139.4063
383.8442, 137.2237
384.3263, 134.6883
384.8084, 132.1057
385.2906, 129.4362
385.7727, 126.8913
386.2548, 125.0391
386.7369, 124.0527
387.2190, 123.1561
387.7011, 121.8430
388.1833, 120.3587
388.6654, 119.0540
389.1475, 118.0427
389.6296, 117.1362
390.1117, 116.1074
390.5938, 114.9938
391.0760, 114.1721
391.5581, 113.9516
392.0402, 113.8434
392.5223, 113.0730
393.0044, 111.5844
393.4865, 110.2885
393.9687, 109.5903
394.4508, 109.2912
394.9329, 109.1871
395.4150, 109.2774
395.8971, 109.2405
396.3792, 108.6970
396.8614, 107.7012
397.3435, 106.9692
397.8256, 106.6656
398.3077, 106.5085
398.7898, 106.2798
399.2719, 106.0290
399.7540, 105.9935
400.2361, 106.3467
400.7183, 106.9024
401.2004, 107.1002
401.6825, 106.7916
402.1646, 106.4517
402.6467, 106.1340
403.1288, 105.8399
403.6110, 105.5300
404.0931, 105.2082
404.5752, 105.0150
405.0573, 105.1703
405.5394, 105.8249
406.0215, 106.0326
406.5037, 105.2746
406.9858, 104.6217
407.4679, 104.7173
407.9500, 105.3622
408.4321, 105.9548
408.9142, 106.1097
409.3964, 105.9522
409.8785, 106.0686
410.3606, 106.7524
410.8427, 107.3415
411.3248, 107.7272
411.8069, 108.0248
412.2891, 108.3166
412.7712, 108.6361
413.2533, 109.0176
413.7354, 109.5325
414.2175, 110.2421
414.6996, 110.8459
415.1818, 111.1454
415.6639, 111.5205
416.1460, 112.1647
416.6281, 113.0106
417.1102, 113.8652
417.5923, 114.6093
418.0745, 115.2753
418.5566, 115.9850
419.0387, 116.7434
419.5208, 117.5287
420.0029, 118.5337
420.4850, 119.4522
420.9672, 119.8803
421.4493, 119.7063
421.9314, 119.4917
422.4135, 119.9490
422.8956, 121.0293
423.3777, 121.6824
423.8599, 121.4585
424.3420, 121.1807
424.8241, 121.6045
425.3062, 122.5343
425.7883, 123.2592
426.2704, 123.2575
426.7526, 122.9833
427.2347, 123.1559
427.7168, 123.8057
428.1989, 124.4321
428.6810, 124.6425
429.1631, 124.7355
429.6453, 125.3863
430.1274, 126.9004
430.6095, 128.2833
431.0916, 128.9406
431.5737, 129.1304
432.0558, 129.3970
432.5380, 129.8904
433.0201, 130.3459
433.5022, 130.4237
433.9843, 130.0601
434.4664, 129.7728
434.9485, 129.6803
435.4307, 129.5808
435.9128, 129.3014
436.3949, 128.8897
436.8770, 128.5590
437.3591, 128.4632
437.8412, 128.4826
438.3234, 128.1580
438.8055, 127.1899
439.2876, 126.2535
439.7697, 125.3180
440.2518, 124.4794
440.7339, 123.8955
441.2160, 123.5673
441.6982, 123.2820
442.1803, 122.7846
442.6624, 122.0280
443.1445, 121.3996
443.6266, 120.7877
444.1087, 120.4283
444.5909, 120.6172
445.0730, 121.0702
445.5551, 121.3083
446.0372, 121.0659
446.5193, 120.5763
447.0014, 120.3644
447.4836, 120.5192
447.9657, 120.6875
448.4478, 120.9830
448.9299, 121.1395
449.4120, 120.8143
449.8941, 120.0722
450.3763, 119.5011
450.8584, 119.7538
451.3405, 120.5900
451.8226, 120.9535
452.3047, 120.7053
452.7868, 120.2800
453.2690, 119.8193
453.7511, 119.3687
454.2332, 119.0022
454.7153, 118.7489
455.1974, 118.5583
455.6795, 118.4270
456.1617, 118.3334
456.6438, 118.1663
457.1259, 117.8684
457.6080, 117.5429
458.0901, 117.3778
458.5722, 117.3798
459.0544, 117.1997
459.5365, 116.6420
460.0186, 115.9751
460.5007, 115.3800
460.9828, 114.8817
461.4649, 114.5425
461.9471, 114.4522
462.4292, 114.4962
462.9113, 114.1831
463.3934, 113.0975
463.8755, 112.2235
464.3576, 111.7709
464.8398, 111.5206
465.3219, 111.2689
465.8040, 110.9660
466.2861, 110.6716
466.7682, 110.4781
467.2503, 110.4197
467.7325, 110.1021
468.2146, 109.1814
468.6967, 108.3647
469.1788, 107.8406
469.6609, 107.5422
470.1430, 107.3790
470.6252, 107.3151
471.1073, 107.3073
471.5894, 107.3040
472.0715, 107.3332
472.5536, 107.2460
473.0357, 106.9525
473.5179, 106.5901
474.0000, 106.2140
474.4821, 105.8356
474.9642, 105.4619
475.4463, 105.0585
475.9284, 104.6793
476.4106, 104.4355
476.8927, 104.3321
477.3748, 104.3497
477.8569, 104.5971
478.3390, 104.8969
478.8211, 104.9810
479.3033, 104.8176
479.7854, 104.5162
480.2675, 103.8859
480.7496, 103.2152
481.2317, 103.1392
481.7138, 103.7913
482.1959, 104.5340
482.6780, 104.8053
483.1602, 104.6002
483.6423, 104.4349
484.1244, 104.4431
484.6065, 104.3451
485.0886, 103.8150
485.5707, 103.1451
486.0529, 102.9123
486.5350, 103.3263
487.0171, 103.9978
487.4992, 104.2743
487.9813, 103.9683
488.4634, 103.7788
488.9456, 103.7627
489.4277, 103.7882
489.9098, 103.8787
490.3919, 103.9566
490.8740, 103.8459
491.3561, 103.4102
491.8383, 102.8058
492.3204, 102.4676
492.8025, 102.4650
493.2846, 102.5391
493.7667, 102.9462
494.2488, 103.1857
494.7310, 102.7108
495.2131, 101.5942
495.6952, 100.6582
496.1773, 100.6277
496.6594, 101.2007
497.1415, 101.5879
497.6237, 101.7707
498.1058, 101.7754
498.5879, 101.5630
499.0700, 101.1898
499.5521, 100.7497
500.0342, 100.1673
500.5164, 99.71130
500.9985, 99.51433
501.4806, 99.53055
501.9627, 99.75981
502.4448, 100.2065
502.9269, 100.5746
503.4091, 100.5485
503.8912, 100.1100
504.3733, 99.83527
504.8554, 99.82981
505.3375, 99.85019
505.8196, 99.85134
506.3018, 99.81044
506.7839, 99.66294
507.2660, 99.39371
507.7481, 99.13040
508.2302, 99.11813
508.7123, 99.52540
509.1945, 99.57185
509.6766, 98.79748
510.1587, 98.12165
510.6408, 97.93991
511.1229, 98.10685
511.6050, 98.31336
512.0872, 98.41174
512.5693, 98.45789
513.0514, 98.55249
513.5335, 98.70190
514.0156, 98.85862
514.4977, 99.05799
514.9799, 99.21278
515.4620, 99.23728
515.9441, 99.14733
516.4262, 99.05173
516.9083, 98.98234
517.3904, 98.93924
517.8726, 98.88386
518.3547, 98.82719
518.8368, 98.93078
519.3189, 99.31986
519.8010, 99.85706
520.2831, 100.2175
520.7653, 100.3560
521.2474, 100.4974
521.7295, 100.7278
522.2116, 100.9411
522.6937, 101.0253
523.1758, 100.9902
523.6580, 100.9129
524.1401, 100.8304
524.6222, 100.7764
525.1043, 100.9387
525.5864, 101.5628
526.0685, 102.0540
526.5507, 102.3117
527.0328, 102.4608
527.5149, 102.5798
527.9970, 102.6912
528.4791, 102.7993
528.9612, 102.8710
529.4434, 102.9362
529.9255, 103.2289
530.4076, 103.8995
530.8897, 104.4459
531.3718, 104.4210
531.8539, 104.2723
532.3361, 104.5152
532.8182, 105.2796
533.3003, 106.0565
533.7824, 106.4839
534.2645, 106.6944
534.7466, 106.9528
535.2288, 107.2892
535.7109, 107.7298
536.1930, 108.3479
536.6751, 109.0915
537.1572, 109.6312
537.6393, 109.7879
538.1215, 109.9810
538.6036, 110.3116
539.0857, 110.7525
539.5678, 111.3057
540.0499, 111.9540
540.5320, 112.6094
541.0142, 113.1785
541.4963, 113.6595
541.9784, 114.0992
542.4604, 114.2757
542.9426, 114.6824
543.4247, 115.6376
543.9068, 116.7656
544.3889, 117.5904
544.8710, 117.9994
545.3531, 118.3600
545.8353, 119.1661
546.3174, 120.3603
546.7995, 121.1707
547.2816, 121.3759
547.7637, 121.5780
548.2458, 122.1736
548.7280, 123.0092
549.2101, 123.8498
549.6922, 124.5882
550.1743, 125.4685
550.6564, 126.8186
551.1385, 128.3937
551.6207, 129.6439
552.1028, 130.4491
552.5849, 131.1633
553.0670, 132.1280
553.5491, 133.3483
554.0313, 134.4087
554.5134, 135.0918
554.9955, 135.9008
555.4776, 137.0687
555.9597, 138.4027
556.4418, 139.6496
556.9240, 140.7511
557.4061, 141.8052
557.8882, 142.9322
558.3703, 144.1280
558.8524, 145.3248
559.3345, 146.4951
559.8167, 147.6920
560.2988, 148.9765
560.7809, 150.2745
561.2630, 151.5336
561.7451, 152.7450
562.2272, 153.8163
562.7094, 154.5924
563.1915, 155.1579
563.6736, 155.7783
564.1557, 156.4773
564.6378, 157.2869
565.1199, 158.2912
565.6021, 159.4279
566.0842, 160.4240
566.5663, 161.2653
567.0484, 161.9905
567.5305, 162.4930
568.0126, 162.9444
568.4948, 163.6997
568.9769, 164.7466
569.4590, 165.5715
569.9411, 165.6407
570.4232, 165.0043
570.9053, 164.6021
571.3875, 164.4268
571.8696, 164.5220
572.3517, 165.2093
572.8338, 165.9605
573.3159, 166.3154
573.7980, 166.1955
574.2802, 165.7799
574.7623, 165.1294
575.2444, 164.3007
575.7265, 163.5237
576.2086, 162.8011
576.6907, 162.1196
577.1729, 161.4673
577.6550, 160.8670
578.1371, 160.3913
578.6192, 160.1031
579.1013, 159.6601
579.5834, 158.8381
580.0656, 157.8504
580.5477, 156.9898
581.0298, 156.2380
581.5119, 155.2512
581.9940, 153.7464
582.4761, 151.9718
582.9583, 150.7799
583.4404, 150.7644
583.9225, 150.4350
584.4046, 149.5378
584.8867, 148.5267
585.3688, 147.6064
585.8510, 146.8368
586.3331, 146.2989
586.8152, 146.1155
587.2973, 146.0591
587.7794, 145.5106
588.2615, 144.3534
588.7437, 143.5127
589.2258, 143.3816
589.7079, 143.4536
590.1900, 143.2176
590.6721, 142.7323
591.1542, 142.3823
591.6364, 142.4642
592.1185, 142.5771
592.6006, 142.3873
593.0827, 141.9488
593.5648, 141.3575
594.0469, 140.6262
594.5291, 139.9969
595.0112, 139.8109
595.4933, 140.1335
595.9754, 140.6320
596.4575, 141.6168
596.9396, 142.4088
597.4218, 142.8690
597.9039, 142.9539
598.3860, 142.4223
598.8681, 141.2286
599.3502, 140.1378
599.8323, 140.3443
600.3145, 141.7781
600.7966, 142.3791
601.2787, 141.7067
601.7608, 140.9497
602.2429, 140.8955
602.7250, 141.1526
603.2072, 141.1248
603.6893, 140.6685
604.1714, 140.1423
604.6535, 139.6786
605.1356, 139.2744
605.6177, 138.9223
606.0999, 138.6240
606.5820, 138.4097
607.0641, 138.3200
607.5462, 138.3149
608.0283, 138.2151
608.5104, 138.1504
608.9926, 137.7841
609.4747, 136.6703
609.9568, 135.6149
610.4389, 135.2646
610.9210, 135.5175
611.4031, 135.8539
611.8853, 135.9999
612.3674, 135.9402
612.8495, 135.5799
613.3316, 134.8869
613.8137, 134.2491
614.2958, 133.7551
614.7780, 133.3518
615.2601, 132.9538
615.7422, 132.5768
616.2243, 132.3616
616.7064, 132.6021
617.1885, 132.7505
617.6707, 132.2709
618.1528, 131.4773
618.6349, 131.0284
619.1170, 131.1156
619.5991, 131.4359
620.0812, 131.6463
620.5634, 131.7410
621.0455, 131.8212
621.5276, 131.9202
622.0097, 131.9595
622.4918, 131.8559
622.9739, 131.7234
623.4561, 131.6222
623.9382, 131.5847
624.4203, 131.7515
624.9023, 132.4683
625.3845, 133.4443
625.8666, 133.7820
626.3487, 133.4034
626.8308, 133.1279
627.3129, 133.3586
627.7950, 133.8793
628.2772, 134.2662
628.7593, 134.4501
629.2414, 134.8296
629.7235, 135.6400
630.2056, 136.5071
630.6877, 137.1211
631.1699, 137.5857
631.6520, 138.1897
632.1341, 139.0628
632.6162, 140.0989
633.0983, 141.1845
633.5804, 142.4057
634.0626, 143.2311
634.5447, 143.2970
635.0268, 143.4272
635.5089, 144.0907
635.9910, 145.0046
636.4731, 145.6795
636.9553, 145.9131
637.4374, 146.2922
637.9195, 147.3949
638.4016, 148.8754
638.8837, 150.0971
639.3658, 150.9850
639.8480, 151.7520
640.3301, 152.4771
640.8122, 153.2472
641.2943, 154.3729
641.7764, 156.3816
642.2585, 157.9559
642.7407, 158.7317
643.2228, 159.3946
643.7049, 160.3767
644.1870, 161.6187
644.6691, 162.8827
645.1512, 164.0519
645.6334, 165.1229
646.1155, 166.0294
646.5976, 166.7746
647.0797, 167.6826
647.5618, 168.8803
648.0439, 170.0755
648.5261, 171.0149
649.0082, 171.7729
649.4903, 172.5652
649.9724, 173.5894
650.4545, 174.3689
650.9366, 174.4481
651.4188, 174.3249
651.9009, 174.7286
652.3830, 175.6346
652.8651, 176.3091
653.3472, 176.1540
653.8293, 175.4641
654.3115, 175.4277
654.7936, 176.5288
655.2757, 177.1042
655.7578, 176.4717
656.2399, 175.6341
656.7220, 175.0749
657.2042, 174.7597
657.6863, 174.5255
658.1684, 174.4668
658.6505, 174.2144
659.1326, 173.3171
659.6147, 171.9521
660.0969, 170.5526
660.5790, 169.2104
661.0611, 167.9958
661.5432, 167.0108
662.0253, 166.2142
662.5074, 165.1830
662.9896, 163.7809
663.4717, 162.3203
663.9538, 160.7049
664.4359, 159.1285
664.9180, 157.7646
665.4001, 156.5894
665.8823, 155.4678
666.3644, 154.3502
666.8465, 153.1677
667.3286, 151.7099
667.8107, 149.9887
668.2928, 148.4472
668.7750, 147.2817
669.2571, 146.0956
669.7392, 144.4538
670.2213, 142.4132
670.7034, 140.6597
671.1855, 139.3663
671.6677, 138.1599
672.1498, 136.9530
672.6319, 135.7695
673.1140, 134.6507
673.5961, 133.5882
674.0782, 132.5092
674.5604, 131.3462
675.0425, 130.1336
675.5246, 128.9585
676.0067, 127.7996
676.4888, 126.7890
676.9709, 126.0747
677.4531, 125.3731
677.9352, 124.4270
678.4173, 123.3039
678.8994, 122.2477
679.3815, 121.3251
679.8636, 120.4690
680.3458, 119.6174
680.8279, 118.8169
681.3100, 118.1087
681.7921, 117.5147
682.2742, 117.1125
682.7563, 117.0051
683.2385, 117.0962
683.7206, 116.9380
684.2027, 116.6208
684.6848, 115.8547
685.1669, 113.9044
685.6490, 112.1121
686.1312, 111.4186
686.6133, 111.5442
687.0954, 111.5577
687.5775, 111.0757
688.0596, 110.4385
688.5417, 109.9165
689.0239, 109.4764
689.5060, 109.0806
689.9881, 108.7152
690.4702, 108.2387
690.9523, 107.4904
691.4344, 106.5720
691.9166, 105.9943
692.3987, 106.0841
692.8808, 105.9965
693.3629, 105.5539
693.8450, 105.0619
694.3271, 104.6731
694.8093, 104.3888
695.2914, 104.1806
695.7735, 104.0557
696.2556, 103.9374
696.7377, 103.7427
697.2198, 103.4826
697.7020, 103.1308
698.1841, 102.6671
698.6662, 102.4135
699.1483, 102.6941
699.6304, 103.3000
700.1125, 103.4307
700.5947, 102.8220
701.0768, 102.1253
701.5589, 101.1334
702.0410, 100.2561
702.5231, 99.74160
703.0052, 99.54190
703.4874, 99.55326
703.9695, 99.75446
704.4516, 99.94865
704.9337, 99.85352
705.4158, 99.52969
705.8979, 99.25086
706.3801, 99.03381
706.8622, 98.94299
707.3442, 99.09444
707.8264, 99.33757
708.3085, 99.24914
708.7906, 98.58758
709.2727, 98.22619
709.7548, 98.63168
710.2369, 98.95011
710.7191, 98.52744
711.2012, 97.69598
711.6833, 97.08951
712.1654, 96.93497
712.6475, 96.98679
713.1296, 96.97707
713.6118, 96.92557
714.0939, 96.97856
714.5760, 97.17558
715.0581, 97.24849
715.5402, 97.03855
716.0223, 96.67576
716.5045, 96.33940
716.9866, 96.00260
717.4687, 95.84456
717.9508, 95.95010
718.4329, 96.16460
718.9150, 96.55004
719.3972, 96.93729
719.8793, 97.07459
720.3614, 96.91103
720.8435, 96.63531
721.3256, 96.41170
721.8077, 96.22861
722.2899, 96.00632
722.7720, 95.71621
723.2541, 95.62392
723.7362, 95.87333
724.2183, 96.26714
724.7004, 96.63747
725.1826, 96.98338
725.6647, 97.10993
726.1468, 96.67718
726.6289, 96.42070
727.1110, 96.75366
727.5931, 97.31541
728.0753, 97.69418
728.5574, 97.84937
729.0395, 98.00439
729.5216, 98.35030
730.0037, 98.75172
730.4858, 98.83321
730.9680, 98.57774
731.4501, 98.50866
731.9322, 98.77855
732.4143, 99.13139
732.8964, 99.35757
733.3785, 99.48829
733.8607, 99.69695
734.3428, 100.0694
734.8249, 100.3835
735.3070, 100.2815
735.7891, 100.3561
736.2712, 101.4217
736.7534, 103.0949
737.2355, 104.2613
737.7176, 104.3648
738.1997, 103.8570
738.6818, 103.2008
739.1639, 102.4545
739.6461, 102.2370
740.1282, 102.6791
740.6103, 103.2912
741.0924, 103.8732
741.5745, 104.4012
742.0566, 104.8055
742.5388, 105.0475
743.0209, 105.3144
743.5030, 105.6158
743.9851, 105.9519
744.4672, 106.3606
744.9493, 106.7898
745.4315, 107.0958
745.9136, 107.2650
746.3957, 107.5818
746.8778, 108.4919
747.3599, 109.7326
747.8420, 110.4348
748.3242, 110.5863
748.8063, 110.7134
749.2884, 110.9648
749.7705, 111.3195
750.2526, 111.7593
750.7347, 112.2835
751.2169, 112.8977
751.6990, 113.7754
752.1811, 114.5084
752.6632, 114.7632
753.1453, 115.0156
753.6274, 115.7960
754.1096, 117.0204
754.5917, 118.1490
755.0738, 118.8408
755.5559, 119.3818
756.0380, 120.2093
756.5201, 121.2439
757.0023, 122.0734
757.4844, 122.6164
757.9665, 123.2205
758.4486, 124.1344
758.9307, 125.2939
759.4128, 126.4913
759.8950, 127.7749
760.3771, 129.0148
760.8592, 130.1344
761.3413, 131.2875
761.8234, 132.5191
762.3055, 133.8391
762.7877, 135.2793
763.2698, 136.8484
763.7519, 138.4529
764.2340, 139.9985
764.7161, 141.5488
765.1982, 143.2455
765.6804, 145.0647
766.1625, 146.7800
766.6446, 148.3043
767.1267, 149.7865
767.6088, 151.4137
768.0909, 153.2049
768.5731, 154.9529
769.0552, 156.5792
769.5373, 158.3046
770.0194, 160.1553
770.5015, 162.1379
770.9836, 164.2745
771.4658, 166.5430
771.9479, 168.8381
772.4300, 171.0219
772.9121, 173.3559
773.3942, 176.0738
773.8763, 179.0255
774.3585, 182.0483
774.8406, 185.0788
775.3227, 187.9412
775.8048, 190.5011
776.2869, 192.9911
776.7690, 196.0144
777.2512, 199.6848
777.7333, 203.1497
778.2154, 206.1944
778.6975, 209.3344
779.1796, 212.7831
779.6617, 216.5294
780.1439, 220.5741
780.6260, 225.0460
781.1081, 229.3279
781.5902, 233.3081
782.0723, 237.0110
782.5544, 240.3592
783.0366, 243.4919
783.5187, 246.4022
784.0008, 249.1993
784.4829, 252.5491
784.9650, 257.3262
785.4471, 262.9644
785.9293, 267.6046
786.4114, 271.2119
786.8935, 275.0347
787.3756, 279.4030
787.8577, 283.9846
788.3398, 288.4377
788.8220, 292.8053
789.3040, 297.2932
789.7861, 302.4838
790.2682, 306.9814
790.7504, 310.4904
791.2325, 313.4563
791.7146, 316.0784
792.1967, 318.4164
792.6788, 320.5663
793.1609, 322.5644
793.6431, 324.2838
794.1252, 325.6671
794.6073, 326.6742
795.0894, 327.0453
795.5715, 326.8768
796.0536, 326.9044
796.5358, 327.4625
797.0179, 328.0162
797.5000, 327.8053
797.9821, 326.7950
798.4642, 325.8180
798.9464, 325.2319
799.4285, 324.0240
799.9106, 321.6533
800.3927, 318.7925
800.8748, 315.8344
801.3569, 312.8078
801.8391, 309.7904
802.3212, 306.8415
802.8033, 303.8565
803.2854, 300.7903
803.7675, 297.6861
804.2496, 294.7834
804.7318, 291.9288
805.2139, 288.4463
805.6960, 283.9646
806.1781, 279.1040
806.6602, 274.9792
807.1423, 271.5038
807.6245, 267.5135
808.1066, 262.8366
808.5887, 258.1878
809.0708, 253.8826
809.5529, 249.7985
810.0350, 245.8311
810.5172, 242.0435
810.9993, 237.9187
811.4814, 233.1040
811.9635, 228.4283
812.4456, 224.1220
812.9277, 220.0643
813.4099, 216.2097
813.8920, 212.5331
814.3741, 208.9941
814.8562, 205.5723
815.3383, 202.2935
815.8204, 199.3343
816.3026, 196.5412
816.7847, 193.5173
817.2668, 190.2522
817.7489, 187.1112
818.2310, 184.3145
818.7131, 181.6841
819.1953, 178.8247
819.6774, 175.6299
820.1595, 172.8898
820.6416, 170.8622
821.1237, 168.7593
821.6058, 166.2498
822.0880, 163.5503
822.5701, 160.8551
823.0522, 158.1700
823.5343, 155.6708
824.0164, 153.3775
824.4985, 151.3102
824.9807, 149.6233
825.4628, 148.0610
825.9449, 146.3261
826.4270, 144.4335
826.9091, 142.6198
827.3912, 141.0302
827.8734, 139.4736
828.3555, 137.5185
828.8376, 135.3428
829.3197, 133.8281
829.8018, 133.0635
830.2839, 132.0912
830.7661, 130.3724
831.2482, 128.4090
831.7303, 127.0532
832.2124, 126.4396
832.6945, 125.4927
833.1766, 123.8959
833.6588, 122.4300
834.1409, 121.2998
834.6230, 120.3445
835.1051, 119.5306
835.5872, 118.7896
836.0693, 117.8360
836.5515, 116.4491
837.0336, 115.0506
837.5157, 113.7679
837.9978, 112.6588
838.4799, 111.8587
838.9620, 111.2966
839.4442, 110.7580
839.9263, 110.1432
840.4084, 109.4636
840.8905, 108.6857
841.3726, 107.8491
841.8547, 107.2471
842.3369, 106.9089
842.8190, 106.4350
843.3011, 105.6585
843.7832, 104.7715
844.2653, 103.9889
844.7474, 103.3075
845.2296, 102.6554
845.7117, 102.0281
846.1938, 101.4415
846.6759, 100.8999
847.1580, 100.3930
847.6401, 99.96142
848.1223, 99.54852
848.6044, 99.00081
849.0865, 98.22691
849.5686, 97.55527
850.0507, 97.17006
850.5328, 96.96559
851.0150, 96.97013
851.4971, 97.03805
851.9792, 96.85099
852.4613, 96.32484
852.9434, 95.63374
853.4255, 94.89513
853.9077, 94.17712
854.3898, 93.78703
854.8719, 93.72375
855.3540, 93.36494
855.8361, 92.48519
856.3182, 91.76789
856.8004, 91.81184
857.2825, 92.34433
857.7646, 92.49181
858.2467, 92.14970
858.7288, 91.63986
859.2109, 90.73183
859.6931, 89.92989
860.1752, 89.34194
860.6573, 88.99345
861.1394, 88.99638
861.6215, 89.33440
862.1036, 89.58884
862.5858, 89.63839
863.0679, 89.50244
863.5500, 88.94498
864.0321, 88.34362
864.5142, 88.35033
864.9963, 88.90060
865.4785, 89.36320
865.9606, 89.37228
866.4427, 89.11315
866.9248, 88.78297
867.4069, 88.41943
867.8890, 88.26492
868.3712, 88.34093
868.8533, 88.38130
869.3354, 88.29383
869.8175, 88.04617
870.2996, 87.53709
870.7817, 86.75993
871.2639, 86.38952
871.7459, 86.70549
872.2280, 86.93569
872.7101, 86.87037
873.1923, 86.76231
873.6744, 86.82954
874.1565, 86.96155
874.6386, 86.85368
875.1207, 86.35462
875.6028, 85.93415
876.0850, 85.86498
876.5671, 85.82977
877.0492, 85.56329
877.5313, 85.17571
878.0134, 84.87273
878.4955, 84.70120
878.9777, 84.56001
879.4598, 84.29900
879.9419, 84.10934
880.4240, 84.50187
880.9061, 85.24718
881.3882, 85.40696
881.8704, 84.86416
882.3525, 84.29915
882.8346, 84.13381
883.3167, 84.24534
883.7988, 84.37893
884.2809, 84.51971
884.7631, 84.84432
885.2452, 85.54837
885.7273, 85.93206
886.2094, 85.54375
886.6915, 84.94676
887.1736, 84.73897
887.6558, 84.90614
888.1379, 85.19785
888.6200, 85.65518
889.1021, 86.16789
889.5842, 86.91664
890.0663, 87.52985
890.5485, 87.66724
891.0306, 87.49738
891.5127, 87.33671
891.9948, 87.26620
892.4769, 87.33385
892.9590, 87.55308
893.4412, 87.94102
893.9233, 88.56820
894.4054, 89.36292
894.8875, 90.24450
895.3696, 91.14925
895.8517, 91.87231
896.3339, 92.22647
896.8160, 92.41017
897.2981, 92.78589
897.7802, 93.34932
898.2623, 94.18798
898.7444, 95.35680
899.2266, 96.18734
899.7087, 96.35777
900.1908, 96.05265
900.6729, 95.53221
901.1550, 94.79646
901.6371, 93.83825
902.1193, 92.64828
902.6014, 91.24080
903.0835, 89.48454
903.5656, 87.63597
904.0477, 85.78348
904.5298, 83.98684
905.0120, 82.43702
905.4941, 81.22884
905.9762, 80.07033
906.4583, 78.88260
906.9404, 77.74133
907.4225, 76.72585
907.9047, 75.78142
908.3868, 74.81625
908.8689, 73.82791
909.3510, 72.87062
909.8331, 71.87545
910.3152, 71.09555
910.7974, 71.04047
911.2795, 71.27729
911.7616, 70.94799
912.2437, 70.06876
912.7258, 69.15124
913.2079, 68.43726
913.6901, 67.94054
914.1722, 67.73132
914.6543, 67.75840
915.1364, 67.71135
915.6185, 67.58584
916.1006, 67.51994
916.5828, 67.56921
917.0649, 67.58589
917.5470, 67.44631
918.0291, 67.17866
918.5112, 66.88087
918.9933, 66.53002
919.4755, 66.20437
919.9576, 65.94031
920.4397, 65.65040
920.9218, 65.24498
921.4039, 64.83308
921.8860, 64.55652
922.3682, 64.41010
922.8503, 64.22395
923.3324, 63.93538
923.8145, 63.65807
924.2966, 63.42774
924.7787, 63.21732
925.2609, 62.98155
925.7430, 62.75533
926.2251, 62.63576
926.7072, 62.65477
927.1893, 62.64288
927.6714, 62.36028
928.1536, 62.10640
928.6357, 62.30140
929.1178, 62.71211
929.5999, 62.87604
930.0820, 62.73686
930.5641, 62.51865
931.0463, 62.35744
931.5284, 62.23078
932.0105, 62.08867
932.4926, 61.95117
932.9747, 61.91911
933.4568, 61.99175
933.9390, 62.08340
934.4211, 62.17188
934.9032, 62.15738
935.3853, 61.89789
935.8674, 61.46032
936.3495, 61.26527
936.8317, 61.39130
937.3138, 61.41455
937.7959, 61.26764
938.2780, 61.05277
938.7601, 60.79069
939.2422, 60.51965
939.7244, 60.30186
940.2065, 60.13620
940.6886, 60.02974
941.1707, 60.10294
941.6528, 60.06709
942.1349, 59.69083
942.6171, 59.34605
943.0992, 59.32875
943.5813, 59.55965
944.0634, 59.84581
944.5455, 60.22822
945.0276, 60.36464
945.5098, 59.87391
945.9919, 59.37541
946.4740, 59.30311
946.9561, 59.46615
947.4382, 59.64808
947.9203, 59.77545
948.4025, 59.76925
948.8846, 59.55021
949.3667, 59.27918
949.8488, 59.07501
950.3309, 58.93693
950.8130, 58.91328
951.2952, 58.95282
951.7773, 58.84313
952.2594, 58.53535
952.7415, 58.34139
953.2236, 58.63706
953.7057, 59.16158
954.1878, 59.26052
954.6699, 58.98997
955.1520, 58.64442
955.6342, 58.26661
956.1163, 58.20301
956.5984, 58.69458
957.0805, 59.27968
957.5626, 59.12663
958.0447, 58.25860
958.5269, 58.15643
959.0090, 59.11771
959.4911, 59.51079
959.9732, 58.76545
960.4553, 57.87834
960.9374, 57.57236
961.4196, 57.69243
961.9017, 57.81826
962.3838, 57.97663
962.8659, 58.05420
963.3480, 57.92936
963.8301, 57.88761
964.3123, 58.05175
964.7944, 58.28761
965.2765, 58.56280
965.7586, 58.82309
966.2407, 58.83607
966.7228, 58.42668
967.2050, 58.06865
967.6871, 57.92845
968.1692, 57.79475
968.6513, 57.48009
969.1334, 57.13774
969.6155, 57.00635
970.0977, 57.08886
970.5798, 57.15308
971.0619, 57.07180
971.5440, 56.98962
972.0261, 57.03443
972.5082, 57.09611
972.9904, 57.00770
973.4725, 56.84812
973.9546, 56.82220
974.4367, 56.98360
974.9188, 57.19838
975.4009, 57.43001
975.8831, 57.57872
976.3652, 57.46686
976.8473, 57.18393
977.3294, 56.85215
977.8115, 56.53237
978.2936, 56.40509
978.7758, 56.55431
979.2579, 56.82425
979.7400, 57.06197
980.2221, 57.25079
980.7042, 57.33071
981.1863, 57.30371
981.6685, 57.15522
982.1506, 56.88379
982.6327, 56.60864
983.1148, 56.39758
983.5969, 56.28231
984.0790, 56.36112
984.5612, 56.63625
985.0433, 56.77644
985.5254, 56.77584
986.0075, 56.64120
986.4896, 56.31608
986.9717, 56.05255
987.4539, 56.10169
987.9360, 56.32502
988.4181, 56.26110
988.9002, 55.76674
989.3823, 55.50340
989.8644, 55.59867
990.3466, 55.67766
990.8287, 55.60353
991.3108, 55.48919
991.7929, 55.43303
992.2750, 55.43026
992.7571, 55.45452
993.2393, 55.54355
993.7214, 55.59246
994.2035, 55.64300
994.6856, 55.60240
995.1677, 55.34700
995.6498, 55.04419
996.1320, 54.87473
996.6141, 54.83308
997.0962, 54.81012
997.5783, 54.86781
998.0604, 54.80510
998.5425, 54.42092
999.0247, 54.05819
999.5068, 53.97370
999.9889, 54.02699
1000.471, 53.99980
1000.953, 53.87046
1001.435, 53.77748
1001.917, 53.81494
1002.399, 53.84532
1002.882, 53.75610
1003.364, 53.65863
1003.846, 53.67681
1004.328, 53.76204
1004.810, 53.82650
1005.292, 53.83922
1005.774, 53.75338
1006.256, 53.40285
1006.739, 53.12574
1007.221, 53.44781
1007.703, 53.91259
1008.185, 53.73890
1008.667, 53.11550
1009.149, 52.78386
1009.631, 52.99239
1010.113, 53.35688
1010.595, 53.64722
1011.078, 53.77912
1011.560, 53.46309
1012.042, 52.93447
1012.524, 52.80207
1013.006, 53.04878
1013.488, 53.17617
1013.970, 52.97289
1014.452, 52.83415
1014.935, 53.34688
1015.417, 54.13932
1015.899, 54.18039
1016.381, 53.63681
1016.863, 53.27767
1017.345, 53.21201
1017.827, 53.23199
1018.309, 53.23388
1018.791, 53.23164
1019.274, 53.26178
1019.756, 53.29972
1020.238, 53.19054
1020.720, 52.94304
1021.202, 52.77549
1021.684, 52.72616
1022.166, 52.77041
1022.648, 52.91321
1023.130, 53.04336
1023.613, 52.94571
1024.095, 52.64532
1024.577, 52.60454
1025.059, 52.86486
1025.541, 53.04012
1026.023, 53.06508
1026.505, 52.93587
1026.987, 52.57021
1027.469, 52.23118
1027.952, 52.48086
1028.434, 53.36456
1028.916, 53.69725
1029.398, 53.30132
1029.880, 52.98460
1030.362, 52.92211
1030.844, 52.90170
1031.326, 52.75732
1031.809, 52.60304
1032.291, 52.72973
1032.773, 53.23156
1033.255, 53.17716
1033.737, 52.13848
1034.219, 51.48520
1034.701, 51.55421
1035.183, 51.95936
1035.666, 52.67019
1036.148, 53.41068
1036.630, 53.53977
1037.112, 52.90477
1037.594, 52.51817
1038.076, 52.59562
1038.558, 52.57529
1039.040, 52.21627
1039.522, 51.89007
1040.005, 51.84516
1040.487, 51.99726
1040.969, 52.18739
1041.451, 52.43349
1041.933, 52.62435
1042.415, 52.77844
1042.897, 52.84969
1043.379, 52.87339
1043.861, 52.76949
1044.344, 52.32584
1044.826, 51.77191
1045.308, 51.59987
1045.790, 51.91441
1046.272, 52.08422
1046.754, 51.86003
1047.236, 51.73748
1047.718, 51.93620
1048.201, 52.17920
1048.683, 52.33346
1049.165, 52.37337
1049.647, 52.22449
1050.129, 51.85233
1050.611, 51.61734
1051.093, 51.65876
1051.575, 51.75083
1052.057, 51.80116
1052.540, 51.90314
1053.022, 52.24343
1053.504, 52.63845
1053.986, 52.72666
1054.468, 52.45057
1054.950, 52.18425
1055.432, 51.92369
1055.914, 51.82745
1056.396, 52.08843
1056.879, 52.39916
1057.361, 52.54913
1057.843, 52.57615
1058.325, 52.60638
1058.807, 52.65437
1059.289, 52.51636
1059.771, 51.87622
1060.253, 51.37661
1060.736, 51.30971
1061.218, 51.42482
1061.700, 51.70687
1062.182, 51.95360
1062.664, 51.76036
1063.146, 51.11680
1063.628, 50.71510
1064.110, 51.07845
1064.593, 51.33949
1065.075, 50.92925
1065.557, 50.49230
1066.039, 50.61289
1066.521, 50.99482
1067.003, 51.11700
1067.485, 50.92963
1067.967, 50.79000
1068.449, 50.81435
1068.932, 50.93901
1069.414, 51.26404
1069.896, 51.54842
1070.378, 51.59330
1070.860, 51.49205
1071.342, 51.38649
1071.824, 51.29237
1072.306, 51.13318
1072.788, 50.78459
1073.271, 50.58912
1073.753, 50.93232
1074.235, 51.24963
1074.717, 51.00376
1075.199, 50.56169
1075.681, 50.44337
1076.163, 50.64998
1076.645, 50.84972
1077.127, 50.96769
1077.610, 50.94561
1078.092, 50.58367
1078.574, 50.26229
1079.056, 50.26443
1079.538, 50.43492
1080.020, 50.60452
1080.502, 50.75065
1080.984, 50.90628
1081.467, 51.09589
1081.949, 51.22029
1082.431, 51.16798
1082.913, 51.11557
1083.395, 51.17683
1083.877, 51.28941
1084.359, 51.42212
1084.841, 51.53670
1085.323, 51.56081
1085.806, 51.47205
1086.288, 51.32491
1086.770, 51.05581
1087.252, 50.84153
1087.734, 50.79143
1088.216, 50.82072
1088.698, 50.88158
1089.180, 50.94613
1089.662, 50.96931
1090.145, 50.94191
1090.627, 50.92975
1091.109, 50.94053
1091.591, 50.99430
1092.073, 51.07309
1092.555, 51.22382
1093.037, 51.68513
1093.519, 52.15006
1094.002, 51.98060
1094.484, 51.15536
1094.966, 50.63369
1095.448, 50.97153
1095.930, 51.28207
1096.412, 51.30502
1096.894, 51.17938
1097.376, 50.84874
1097.859, 50.51278
1098.341, 50.42607
1098.823, 50.59198
1099.305, 50.85028
1099.787, 51.26982
1100.269, 51.55779
1100.751, 51.69932
1101.233, 51.61897
1101.715, 51.07406
1102.198, 50.44536
1102.680, 50.16344
1103.162, 50.15894
1103.644, 50.04540
1104.126, 49.66206
1104.608, 49.50548
1105.090, 49.87106
1105.572, 50.20668
1106.054, 50.28370
1106.537, 50.29086
1107.019, 50.39986
1107.501, 50.55788
1107.983, 50.61439
1108.465, 50.53901
1108.947, 50.47557
1109.429, 50.53043
1109.911, 50.46350
1110.394, 50.08136
1110.876, 49.71753
1111.358, 49.52157
1111.840, 49.49451
1112.322, 49.71602
1112.804, 50.20980
1113.286, 50.42815
1113.768, 50.21574
1114.250, 49.97910
1114.733, 49.59020
1115.215, 49.39884
1115.697, 49.72619
1116.179, 50.16486
1116.661, 50.21198
1117.143, 49.93183
1117.625, 49.79894
1118.107, 49.85317
1118.589, 49.96900
1119.072, 50.20182
1119.554, 50.38452
1120.036, 50.46457
1120.518, 50.47623
1121.000, 50.42840
1121.482, 50.34943
1121.964, 50.32887
1122.446, 50.38346
1122.929, 50.38623
1123.411, 50.31051
1123.893, 50.27460
1124.375, 50.31064
1124.857, 50.38153
1125.339, 50.49714
1125.821, 50.55443
1126.303, 50.33374
1126.786, 49.86320
1127.268, 49.71447
1127.750, 49.94442
1128.232, 49.93404
1128.714, 49.55011
1129.196, 49.37053
1129.678, 49.69198
1130.160, 50.12014
1130.642, 50.20388
1131.125, 50.03518
1131.607, 49.90852
1132.089, 49.82637
1132.571, 49.85746
1133.053, 50.00105
1133.535, 50.06566
1134.017, 49.99320
1134.499, 49.97809
1134.981, 50.19668
1135.464, 50.42776
1135.946, 50.13647
1136.428, 49.52906
1136.910, 49.48668
1137.392, 49.89185
1137.874, 50.12925
1138.356, 50.09534
1138.838, 49.96811
1139.321, 49.83791
1139.803, 49.74260
1140.285, 49.74427
1140.767, 49.78885
1141.249, 49.79998
1141.731, 49.76762
1142.213, 49.61096
1142.695, 49.39051
1143.177, 49.32316
1143.660, 49.46553
1144.142, 49.67159
1144.624, 49.86556
1145.106, 50.01661
1145.588, 50.12317
1146.070, 50.14440
1146.552, 49.93480
1147.034, 49.64347
1147.516, 49.55806
1147.999, 49.68426
1148.481, 49.82241
1148.963, 49.89983
1149.445, 49.90845
1149.927, 49.80877
1150.409, 49.67662
1150.891, 49.48195
1151.373, 49.35176
1151.856, 49.52066
1152.338, 49.83750
1152.820, 49.92146
1153.302, 49.69382
1153.784, 49.49374
1154.266, 49.42825
1154.748, 49.41684
1155.230, 49.41976
1155.713, 49.48320
1156.195, 49.73895
1156.677, 50.00609
1157.159, 49.99516
1157.641, 49.74943
1158.123, 49.67647
1158.605, 49.98278
1159.087, 50.10074
1159.569, 49.77429
1160.052, 49.56163
1160.534, 49.68416
1161.016, 49.88872
1161.498, 50.04828
1161.980, 50.12404
1162.462, 50.00030
1162.944, 49.64318
1163.426, 49.45615
1163.908, 49.50130
1164.391, 49.53529
1164.873, 49.51850
1165.355, 49.50853
1165.837, 49.52612
1166.319, 49.58421
1166.801, 49.71606
1167.283, 49.88282
1167.765, 49.89097
1168.247, 49.73014
1168.730, 49.78057
1169.212, 50.06768
1169.694, 50.16215
1170.176, 49.94131
1170.658, 49.78091
1171.140, 49.95227
1171.622, 50.23925
1172.104, 50.31591
1172.587, 50.21711
1173.069, 49.98578
1173.551, 49.68541
1174.033, 49.57859
1174.515, 49.66453
1174.997, 49.75601
1175.479, 49.78268
1175.961, 49.81773
1176.443, 49.95615
1176.926, 50.05479
1177.408, 49.83315
1177.890, 49.53391
1178.372, 49.56200
1178.854, 49.77119
1179.336, 49.86277
1179.818, 49.78422
1180.300, 49.55078
1180.782, 49.12838
1181.265, 48.88976
1181.747, 49.21543
1182.229, 49.61546
1182.711, 49.84540
1183.193, 49.92958
1183.675, 49.78674
1184.157, 49.57153
1184.639, 49.56247
1185.122, 49.79133
1185.604, 50.04425
1186.086, 50.47222
1186.568, 50.59975
1187.050, 49.97999
1187.532, 49.50274
1188.014, 49.68105
1188.496, 50.04856
1188.979, 50.19420
1189.461, 50.17903
1189.943, 50.18068
1190.425, 50.21899
1190.907, 50.14356
1191.389, 49.87976
1191.871, 49.72069
1192.353, 49.74517
1192.835, 49.78219
1193.318, 49.74343
1193.800, 49.68351
1194.282, 49.66264
1194.764, 49.68444
1195.246, 49.78885
1195.728, 49.96952
1196.210, 50.03905
1196.692, 49.99339
1197.174, 49.94386
1197.657, 49.91681
1198.139, 49.85217
1198.621, 49.71084
1199.103, 49.53878
1199.585, 49.33878
1200.067, 49.19633
1200.549, 49.34237
1201.031, 49.65515
1201.514, 49.88451
1201.996, 50.02164
1202.478, 50.14292
1202.960, 50.26711
1203.442, 50.36214
1203.924, 50.43685
1204.406, 50.39414
1204.888, 50.07529
1205.370, 49.70142
1205.853, 49.42425
1206.335, 49.22622
1206.817, 49.08523
1207.299, 48.99018
1207.781, 48.91729
1208.263, 48.85932
1208.745, 48.87696
1209.227, 49.04450
1209.709, 49.19884
1210.192, 49.29941
1210.674, 49.38774
1211.156, 49.51078
1211.638, 49.60712
1212.120, 49.59240
1212.602, 49.50282
1213.084, 49.47893
1213.566, 49.53375
1214.049, 49.60167
1214.531, 49.71675
1215.013, 49.68542
1215.495, 49.43341
1215.977, 49.21967
1216.459, 49.18605
1216.941, 49.23361
1217.423, 49.24622
1217.906, 49.23659
1218.388, 49.24335
1218.870, 49.26344
1219.352, 49.29513
1219.834, 49.32686
1220.316, 49.29234
1220.798, 49.18692
1221.280, 49.07347
1221.762, 48.98336
1222.245, 48.95019
1222.727, 48.97497
1223.209, 49.10691
1223.691, 49.52255
1224.173, 49.98764
1224.655, 50.19218
1225.137, 50.19722
1225.619, 50.16061
1226.101, 50.11483
1226.584, 50.03606
1227.066, 49.93058
1227.548, 49.75077
1228.030, 49.24635
1228.512, 48.97405
1228.994, 49.50188
1229.476, 50.02428
1229.958, 49.76111
1230.441, 49.13411
1230.923, 48.90823
1231.405, 49.07312
1231.887, 49.31862
1232.369, 49.79048
1232.851, 49.84060
1233.333, 49.26672
1233.815, 48.91521
1234.297, 49.08590
1234.780, 49.33128
1235.262, 49.32816
1235.744, 49.20411
1236.226, 49.16457
1236.708, 49.19860
1237.190, 49.30592
1237.672, 49.44556
1238.154, 49.39894
1238.636, 49.19093
1239.119, 49.02275
1239.601, 48.96342
1240.083, 49.03382
1240.565, 49.27599
1241.047, 49.50184
1241.529, 49.51087
1242.011, 49.43801
1242.493, 49.36206
1242.975, 49.32653
1243.458, 49.46800
1243.940, 49.65485
1244.422, 49.54538
1244.904, 49.11994
1245.386, 48.89004
1245.868, 49.17500
1246.350, 49.31838
1246.832, 48.98962
1247.315, 48.80325
1247.797, 49.05714
1248.279, 49.41779
1248.761, 49.73945
1249.243, 49.92392
1249.725, 49.72701
1250.207, 49.18991
1250.689, 49.09015
1251.172, 49.48376
1251.654, 49.70578
1252.136, 49.70442
1252.618, 49.51456
1253.100, 49.14875
1253.582, 48.97622
1254.064, 49.26951
1254.546, 49.68697
1255.028, 49.74723
1255.510, 49.60865
1255.993, 49.54825
1256.475, 49.52111
1256.957, 49.40563
1257.439, 49.26142
1257.921, 49.26080
1258.403, 49.42165
1258.885, 49.62794
1259.367, 49.87997
1259.850, 49.98059
1260.332, 49.62003
1260.814, 49.37428
1261.296, 49.63343
1261.778, 49.99215
1262.260, 50.14598
1262.742, 50.18800
1263.224, 50.34250
1263.707, 50.56565
1264.189, 50.42432
1264.671, 49.67046
1265.153, 49.44155
1265.635, 49.88369
1266.117, 50.23410
1266.599, 50.32753
1267.081, 50.27113
1267.563, 50.11753
1268.046, 49.89553
1268.528, 49.60387
1269.010, 49.33194
1269.492, 49.32677
1269.974, 49.48668
1270.456, 49.54116
1270.938, 49.53639
1271.420, 49.64410
1271.902, 49.87175
1272.385, 50.15225
1272.867, 50.46009
1273.349, 50.61352
1273.831, 50.43024
1274.313, 50.17021
1274.795, 49.83039
1275.277, 49.60725
1275.759, 49.77893
1276.242, 50.02029
1276.724, 49.87384
1277.206, 49.49568
1277.688, 49.45541
1278.170, 49.80511
1278.652, 50.01983
1279.134, 50.08275
1279.616, 50.03593
1280.099, 49.82900
1280.581, 49.84411
1281.063, 50.24990
1281.545, 50.62785
1282.027, 50.64345
1282.509, 50.46635
1282.991, 50.30140
1283.473, 50.20490
1283.955, 50.30914
##END=



