##NAMES=Foordite
##RRUFFID=R130012
##IDEAL CHEMISTRY=Sn^2+^Nb^5+^_2_O_6_
##LOCALITY=Manono, Shaba, Congo
##OWNER=RRUFF
##SOURCE=Michael Scott
##DESCRIPTION=Brown massive, strong cleavage, yellowish-brown when thin
##STATUS=The identification of this mineral has been confirmed by single-crystal X-ray diffraction.
##URL=rruff.info/R130012
109.1284, 37.43353
109.6105, 36.82153
110.0927, 36.06520
110.5748, 35.57173
111.0569, 35.68816
111.5390, 35.74718
112.0211, 35.57290
112.5032, 35.08317
112.9854, 34.63860
113.4675, 34.35112
113.9496, 34.12696
114.4317, 33.82582
114.9138, 33.23637
115.3959, 32.69824
115.8781, 32.39820
116.3602, 32.49930
116.8423, 32.54720
117.3244, 32.33692
117.8065, 31.94672
118.2886, 31.57575
118.7708, 31.33997
119.2529, 31.14002
119.7350, 30.89631
120.2171, 30.53556
120.6992, 30.18842
121.1813, 29.97549
121.6635, 29.87039
122.1456, 29.73275
122.6277, 29.43276
123.1098, 29.05765
123.5919, 28.72320
124.0740, 28.50960
124.5562, 28.33010
125.0383, 28.08774
125.5204, 27.78194
126.0025, 27.47709
126.4846, 27.22402
126.9667, 27.01461
127.4489, 26.82849
127.9310, 26.67524
128.4131, 26.53641
128.8952, 26.36804
129.3773, 26.16193
129.8594, 25.95776
130.3416, 25.79133
130.8237, 25.66443
131.3058, 25.57891
131.7879, 25.60624
132.2700, 25.70040
132.7521, 25.61347
133.2343, 25.28377
133.7164, 24.84048
134.1985, 24.49925
134.6806, 24.26403
135.1627, 24.07816
135.6448, 23.90190
136.1270, 23.73355
136.6091, 23.63428
137.0912, 23.63726
137.5733, 23.70246
138.0554, 23.70038
138.5375, 23.62882
139.0197, 23.49520
139.5018, 23.28067
139.9839, 22.95884
140.4660, 22.68249
140.9481, 22.48834
141.4302, 22.37015
141.9124, 22.22350
142.3945, 22.01477
142.8766, 21.82441
143.3587, 21.75294
143.8408, 21.89575
144.3229, 21.96259
144.8051, 21.87960
145.2872, 21.62512
145.7693, 21.36541
146.2514, 21.05551
146.7335, 20.76475
147.2156, 20.58416
147.6978, 20.62501
148.1799, 20.64056
148.6620, 20.54992
149.1441, 20.27696
149.6262, 20.10722
150.1083, 20.10321
150.5905, 20.19422
151.0726, 20.25733
151.5547, 20.36296
152.0368, 20.38032
152.5189, 20.25660
153.0010, 19.88232
153.4832, 19.55713
153.9653, 19.30251
154.4474, 19.10984
154.9295, 18.95844
155.4116, 18.81253
155.8937, 18.73098
156.3759, 18.75148
156.8580, 19.02450
157.3401, 19.20354
157.8222, 19.17519
158.3043, 18.98713
158.7864, 18.81525
159.2686, 18.67270
159.7507, 18.58130
160.2328, 18.55552
160.7149, 18.65172
161.1970, 18.76072
161.6791, 18.89051
162.1613, 19.02415
162.6434, 19.06060
163.1255, 18.86766
163.6076, 18.59681
164.0897, 18.38301
164.5718, 18.32291
165.0540, 18.28595
165.5361, 18.18154
166.0182, 18.01406
166.5003, 17.90984
166.9824, 17.92367
167.4645, 18.04227
167.9467, 18.24775
168.4288, 18.62036
168.9109, 19.01896
169.3930, 19.33937
169.8751, 19.57686
170.3572, 19.79536
170.8394, 19.95089
171.3215, 20.12792
171.8036, 20.46473
172.2857, 21.06704
172.7678, 21.83641
173.2499, 22.68610
173.7321, 23.62033
174.2142, 24.61745
174.6963, 25.60643
175.1784, 26.65401
175.6605, 27.92408
176.1426, 29.61350
176.6248, 31.52461
177.1069, 33.32468
177.5890, 34.93608
178.0711, 36.68176
178.5532, 38.97789
179.0353, 41.74262
179.5175, 44.59084
179.9996, 47.32351
180.4817, 50.00196
180.9638, 52.81651
181.4459, 55.82399
181.9280, 58.89526
182.4102, 61.98414
182.8923, 65.02581
183.3744, 67.98149
183.8565, 70.85769
184.3386, 73.61648
184.8207, 75.99914
185.3029, 77.89413
185.7850, 79.58855
186.2671, 81.55978
186.7492, 83.79607
187.2313, 86.20255
187.7134, 88.65953
188.1956, 91.22522
188.6777, 94.16141
189.1598, 97.78442
189.6419, 101.5222
190.1240, 103.6641
190.6061, 104.1378
191.0883, 105.2058
191.5704, 109.4176
192.0525, 116.3878
192.5346, 121.7771
193.0167, 124.3753
193.4988, 125.1432
193.9810, 126.4660
194.4631, 128.2827
194.9452, 130.5535
195.4273, 132.8446
195.9094, 135.1541
196.3915, 137.3928
196.8737, 139.5576
197.3558, 141.6326
197.8379, 143.5726
198.3200, 145.3509
198.8021, 147.1034
199.2842, 148.9070
199.7664, 150.7688
200.2485, 152.7194
200.7306, 154.8117
201.2127, 157.0135
201.6948, 159.1874
202.1769, 161.3415
202.6590, 163.4743
203.1412, 165.5404
203.6233, 167.5381
204.1054, 169.5628
204.5875, 171.5631
205.0696, 173.5780
205.5517, 176.0531
206.0339, 179.1105
206.5160, 182.3385
206.9981, 185.2928
207.4802, 187.8671
207.9623, 190.5380
208.4444, 193.4302
208.9266, 196.5459
209.4087, 199.5854
209.8908, 202.4304
210.3729, 205.4369
210.8550, 209.0112
211.3371, 213.1715
211.8193, 217.6883
212.3014, 222.5522
212.7835, 227.7194
213.2656, 233.0800
213.7477, 238.6354
214.2298, 244.4025
214.7120, 250.2812
215.1941, 256.2250
215.6762, 262.5572
216.1583, 269.6035
216.6404, 277.3683
217.1225, 284.5361
217.6047, 291.0001
218.0868, 297.0059
218.5689, 303.0208
219.0510, 309.3828
219.5331, 315.0517
220.0152, 319.9591
220.4974, 324.1731
220.9795, 327.1585
221.4616, 328.9618
221.9437, 329.5632
222.4258, 328.9153
222.9079, 326.9145
223.3901, 323.8991
223.8722, 319.8437
224.3543, 314.5840
224.8364, 309.4221
225.3185, 304.5232
225.8006, 299.6205
226.2828, 294.1703
226.7649, 287.6037
227.2470, 281.6612
227.7291, 276.9996
228.2112, 273.6948
228.6933, 270.4919
229.1755, 267.2539
229.6576, 264.2269
230.1397, 261.7599
230.6218, 259.7777
231.1039, 258.4557
231.5860, 257.9856
232.0682, 258.5094
232.5503, 258.8623
233.0324, 258.9780
233.5145, 258.9923
233.9966, 258.9821
234.4787, 258.5222
234.9609, 258.8274
235.4430, 260.4345
235.9251, 263.6098
236.4072, 266.1745
236.8893, 267.7486
237.3714, 269.0242
237.8536, 270.9234
238.3357, 274.0174
238.8178, 276.7454
239.2999, 278.5430
239.7820, 279.1833
240.2641, 280.4882
240.7463, 282.7119
241.2284, 285.3730
241.7105, 287.8895
242.1926, 290.1371
242.6747, 292.4375
243.1568, 294.7987
243.6390, 297.1953
244.1211, 299.8826
244.6032, 302.6853
245.0853, 305.9434
245.5674, 310.0670
246.0495, 315.2362
246.5317, 320.9604
247.0138, 327.1951
247.4959, 333.9821
247.9780, 341.1380
248.4601, 348.6938
248.9422, 356.6536
249.4244, 365.0775
249.9065, 374.2116
250.3886, 383.3704
250.8707, 392.6321
251.3528, 401.9694
251.8349, 410.5318
252.3171, 418.6759
252.7992, 425.5684
253.2813, 430.3905
253.7634, 433.1524
254.2455, 433.7455
254.7276, 432.1536
255.2098, 428.3518
255.6919, 422.1798
256.1740, 413.1752
256.6561, 402.3882
257.1382, 390.7540
257.6204, 377.7141
258.1025, 364.9383
258.5846, 352.7776
259.0667, 341.1802
259.5488, 330.0975
260.0309, 319.6125
260.5131, 309.8410
260.9952, 301.0894
261.4773, 293.3755
261.9594, 286.4924
262.4415, 280.6809
262.9236, 275.7832
263.4058, 270.6985
263.8879, 265.2538
264.3700, 259.8325
264.8521, 254.5460
265.3342, 249.3727
265.8163, 244.5768
266.2985, 240.3266
266.7806, 236.5378
267.2627, 232.5963
267.7448, 228.4689
268.2269, 224.3040
268.7090, 220.1167
269.1912, 215.7264
269.6733, 211.9534
270.1554, 209.0744
270.6375, 206.8269
271.1196, 204.1979
271.6017, 201.0042
272.0839, 197.9390
272.5660, 195.5948
273.0481, 194.0672
273.5302, 192.5350
274.0123, 190.8490
274.4944, 189.1414
274.9766, 187.7337
275.4587, 186.6091
275.9408, 185.8592
276.4229, 185.6784
276.9050, 186.1204
277.3871, 186.4099
277.8693, 186.4101
278.3514, 186.3259
278.8335, 186.6264
279.3156, 187.3522
279.7977, 188.2412
280.2798, 189.1845
280.7620, 190.1740
281.2441, 191.1535
281.7262, 192.0780
282.2083, 193.0628
282.6904, 194.3209
283.1725, 195.8588
283.6547, 197.5488
284.1368, 199.3550
284.6189, 201.2590
285.1010, 203.2762
285.5831, 205.4484
286.0652, 207.6151
286.5474, 209.4289
287.0295, 210.9009
287.5116, 212.5771
287.9937, 214.7348
288.4758, 217.3372
288.9579, 219.9838
289.4401, 222.6724
289.9222, 225.5448
290.4043, 228.7716
290.8864, 232.3415
291.3685, 236.1780
291.8506, 240.1933
292.3328, 244.4530
292.8149, 249.0567
293.2970, 254.0353
293.7791, 259.2316
294.2612, 264.4848
294.7433, 269.7971
295.2255, 275.1466
295.7076, 280.7450
296.1897, 286.2188
296.6718, 290.9092
297.1539, 294.7958
297.6360, 297.5695
298.1182, 299.1506
298.6003, 299.4027
299.0824, 297.9770
299.5645, 294.5360
300.0466, 289.6134
300.5287, 283.6467
301.0109, 276.7454
301.4930, 269.4288
301.9751, 262.0497
302.4572, 254.5562
302.9393, 246.9533
303.4214, 238.9660
303.9036, 231.2026
304.3857, 224.1671
304.8678, 217.8752
305.3499, 212.2375
305.8320, 207.4989
306.3141, 203.3233
306.7963, 199.3838
307.2784, 195.5506
307.7605, 192.0358
308.2426, 189.0146
308.7247, 186.4353
309.2068, 184.1751
309.6890, 182.3187
310.1711, 180.6598
310.6532, 179.0337
311.1353, 177.4085
311.6174, 175.8947
312.0995, 174.5665
312.5817, 173.4133
313.0638, 172.3993
313.5459, 171.5217
314.0280, 170.7593
314.5101, 170.1009
314.9922, 169.5496
315.4744, 169.0961
315.9565, 168.8272
316.4386, 168.6326
316.9207, 168.3902
317.4028, 168.0325
317.8849, 167.6504
318.3671, 167.1859
318.8492, 166.6551
319.3313, 166.3942
319.8134, 166.8292
320.2955, 167.4168
320.7776, 167.7190
321.2598, 167.1793
321.7419, 166.8351
322.2240, 166.9756
322.7061, 167.5336
323.1882, 168.1567
323.6703, 169.0273
324.1525, 169.7717
324.6346, 170.1564
325.1167, 169.5987
325.5988, 169.4503
326.0809, 170.2054
326.5630, 171.4905
327.0451, 172.2824
327.5273, 171.9151
328.0094, 171.5640
328.4915, 171.6653
328.9736, 172.4895
329.4557, 173.1614
329.9378, 173.5445
330.4200, 173.8204
330.9021, 174.2761
331.3842, 175.0317
331.8663, 175.8097
332.3484, 176.5623
332.8305, 177.2873
333.3127, 177.8813
333.7948, 178.1983
334.2769, 178.5151
334.7590, 179.1588
335.2411, 180.2959
335.7232, 181.4083
336.2054, 182.4162
336.6875, 183.3249
337.1696, 184.0352
337.6517, 184.4869
338.1338, 184.8620
338.6159, 185.2909
339.0981, 185.7791
339.5802, 186.3419
340.0623, 187.0678
340.5444, 187.8274
341.0265, 188.0736
341.5086, 187.7109
341.9908, 187.2983
342.4729, 187.2378
342.9550, 187.5244
343.4371, 187.6296
343.9192, 187.4848
344.4013, 187.1852
344.8835, 186.8882
345.3656, 186.5939
345.8477, 186.2874
346.3298, 185.9939
346.8119, 185.6909
347.2940, 185.2664
347.7762, 184.7012
348.2583, 184.1003
348.7404, 183.5688
349.2225, 183.1037
349.7046, 182.6862
350.1867, 182.2947
350.6689, 181.9539
351.1510, 181.8141
351.6331, 181.8665
352.1152, 181.7219
352.5973, 180.7794
353.0794, 179.4419
353.5616, 178.4758
354.0437, 178.2286
354.5258, 178.2588
355.0079, 178.0931
355.4900, 177.7976
355.9721, 177.6622
356.4543, 177.9796
356.9364, 178.4956
357.4185, 178.9784
357.9006, 179.4193
358.3827, 179.7339
358.8648, 179.7267
359.3470, 179.5607
359.8291, 179.5644
360.3112, 180.0192
360.7933, 180.5824
361.2754, 180.9799
361.7575, 181.1261
362.2397, 181.5501
362.7218, 182.7302
363.2039, 184.1934
363.6860, 185.4119
364.1681, 185.9136
364.6502, 186.4826
365.1324, 187.4636
365.6145, 188.8429
366.0966, 189.9667
366.5787, 190.2455
367.0608, 190.5379
367.5429, 191.3940
368.0251, 193.8109
368.5072, 195.6758
368.9893, 196.2979
369.4714, 196.1740
369.9535, 196.9466
370.4356, 199.4631
370.9178, 201.9910
371.3999, 203.7793
371.8820, 204.4357
372.3641, 205.4268
372.8462, 206.9943
373.3283, 208.7249
373.8105, 210.0179
374.2926, 210.8638
374.7747, 211.2798
375.2568, 211.1899
375.7389, 210.5858
376.2210, 210.0409
376.7032, 209.6100
377.1853, 209.1059
377.6674, 208.4216
378.1495, 207.5889
378.6316, 206.1822
379.1137, 203.9144
379.5959, 201.1378
380.0780, 198.9426
380.5601, 197.3932
381.0422, 195.8452
381.5243, 193.7496
382.0064, 191.2188
382.4886, 188.9863
382.9707, 187.1297
383.4528, 185.5236
383.9349, 184.0869
384.4170, 182.7663
384.8991, 181.2912
385.3813, 179.2797
385.8634, 177.0849
386.3455, 175.2293
386.8276, 173.7368
387.3097, 172.5825
387.7918, 171.9499
388.2740, 171.5994
388.7561, 171.1033
389.2382, 170.1784
389.7203, 169.1795
390.2024, 168.3895
390.6845, 167.7879
391.1667, 167.2648
391.6488, 166.9035
392.1309, 166.5203
392.6130, 165.9394
393.0951, 165.0565
393.5772, 164.1502
394.0594, 163.1805
394.5415, 162.2901
395.0236, 161.7437
395.5057, 161.8307
395.9878, 162.0961
396.4699, 162.4191
396.9521, 162.8206
397.4342, 163.0823
397.9163, 163.2119
398.3984, 163.1690
398.8805, 162.9166
399.3626, 161.9793
399.8448, 161.3776
400.3269, 161.3268
400.8090, 161.7583
401.2911, 162.1673
401.7732, 162.6511
402.2553, 163.0011
402.7375, 163.0521
403.2196, 162.5385
403.7017, 162.4265
404.1838, 162.8979
404.6659, 163.6458
405.1480, 164.0215
405.6302, 163.8883
406.1123, 163.9003
406.5944, 164.3461
407.0765, 165.2034
407.5586, 165.9215
408.0407, 166.4795
408.5229, 166.9891
409.0050, 167.5295
409.4871, 168.1032
409.9692, 168.7974
410.4513, 169.6721
410.9334, 170.6344
411.4156, 171.4263
411.8977, 172.0667
412.3798, 172.8686
412.8619, 174.3093
413.3440, 175.9976
413.8261, 177.0625
414.3083, 177.2893
414.7904, 177.5012
415.2725, 178.5206
415.7546, 180.1233
416.2367, 181.8706
416.7188, 183.7796
417.2010, 185.5819
417.6831, 186.9414
418.1652, 187.8817
418.6473, 189.0177
419.1294, 190.8744
419.6115, 192.9711
420.0937, 194.8647
420.5758, 196.5174
421.0579, 197.8857
421.5400, 198.8490
422.0221, 199.5295
422.5042, 200.2563
422.9864, 201.4095
423.4685, 202.3490
423.9506, 202.6767
424.4327, 201.9803
424.9148, 202.0149
425.3969, 203.3698
425.8791, 205.1818
426.3612, 206.5952
426.8433, 207.1601
427.3254, 208.0352
427.8075, 209.4949
428.2896, 211.4490
428.7718, 213.1788
429.2539, 214.5993
429.7360, 215.9166
430.2181, 217.2060
430.7002, 218.4493
431.1823, 219.7988
431.6645, 221.3095
432.1466, 222.8408
432.6287, 224.1690
433.1108, 225.2856
433.5929, 226.1783
434.0750, 226.8599
434.5572, 227.3152
435.0393, 227.5076
435.5214, 227.4427
436.0035, 227.0601
436.4856, 226.1488
436.9677, 224.8853
437.4499, 223.6944
437.9320, 222.7339
438.4141, 221.7454
438.8962, 220.4345
439.3783, 218.8573
439.8604, 217.1824
440.3426, 215.2890
440.8247, 213.4697
441.3068, 212.0127
441.7889, 210.9856
442.2710, 209.9263
442.7531, 208.5278
443.2353, 207.0089
443.7174, 205.5968
444.1995, 204.5075
444.6816, 203.3714
445.1637, 201.9249
445.6458, 200.2943
446.1280, 198.9964
446.6101, 198.4596
447.0922, 197.9809
447.5743, 197.2190
448.0564, 195.9586
448.5385, 194.9670
449.0207, 194.3201
449.5028, 193.9004
449.9849, 193.5706
450.4670, 193.3176
450.9491, 193.1956
451.4312, 193.3008
451.9134, 193.5726
452.3955, 193.5311
452.8776, 193.1312
453.3597, 192.5910
453.8418, 192.0019
454.3239, 191.3735
454.8061, 190.8598
455.2882, 190.4737
455.7703, 190.2168
456.2524, 190.1760
456.7345, 190.3118
457.2166, 190.3686
457.6988, 190.2044
458.1809, 189.9059
458.6630, 189.6120
459.1451, 189.3216
459.6272, 189.0031
460.1093, 188.6405
460.5915, 188.2342
461.0736, 187.7744
461.5557, 187.2179
462.0378, 186.6895
462.5199, 186.2794
463.0020, 185.9538
463.4842, 185.6547
463.9663, 185.4164
464.4484, 185.1521
464.9305, 184.9102
465.4126, 184.7115
465.8947, 184.1738
466.3769, 182.7496
466.8590, 181.2450
467.3411, 180.2482
467.8232, 180.1624
468.3053, 180.0904
468.7874, 180.0906
469.2696, 180.0714
469.7517, 179.7599
470.2338, 178.9313
470.7159, 178.2291
471.1980, 177.9075
471.6801, 177.9811
472.1623, 178.0147
472.6444, 177.9611
473.1265, 177.9910
473.6086, 178.3915
474.0907, 179.1514
474.5728, 179.6042
475.0550, 179.5653
475.5371, 179.2581
476.0192, 179.0564
476.5013, 178.9531
476.9834, 178.9070
477.4655, 178.9261
477.9477, 178.9741
478.4298, 178.9577
478.9119, 178.8687
479.3940, 178.8624
479.8761, 179.1151
480.3582, 179.5076
480.8404, 179.8822
481.3225, 180.1758
481.8046, 180.4734
482.2867, 180.8479
482.7688, 181.2664
483.2509, 181.6407
483.7331, 182.1235
484.2152, 182.4074
484.6973, 182.2052
485.1794, 181.3046
485.6615, 180.9352
486.1436, 181.8096
486.6258, 182.8874
487.1079, 183.3466
487.5900, 182.6459
488.0721, 182.2908
488.5542, 182.5456
489.0363, 183.1853
489.5185, 183.5679
490.0006, 183.6388
490.4827, 183.6014
490.9648, 183.5071
491.4469, 183.3598
491.9290, 183.3271
492.4112, 183.4514
492.8933, 183.4834
493.3754, 182.9397
493.8575, 182.0182
494.3396, 181.7060
494.8217, 182.4843
495.3039, 183.4663
495.7860, 183.3501
496.2681, 182.3762
496.7502, 181.3651
497.2323, 180.5773
497.7144, 180.0591
498.1966, 179.9706
498.6787, 180.3167
499.1608, 180.5785
499.6429, 180.3066
500.1250, 179.9160
500.6071, 179.7854
501.0893, 180.3731
501.5714, 180.7045
502.0535, 180.3636
502.5356, 179.6260
503.0177, 179.1231
503.4998, 179.0622
503.9820, 179.0615
504.4641, 179.0110
504.9462, 178.9037
505.4283, 178.9714
505.9104, 179.3122
506.3925, 179.6827
506.8747, 179.8916
507.3568, 179.9164
507.8389, 179.9507
508.3210, 180.0222
508.8031, 180.0919
509.2852, 180.0800
509.7674, 179.9898
510.2495, 179.8939
510.7316, 179.8461
511.2137, 179.7972
511.6958, 179.6039
512.1780, 179.2778
512.6601, 178.9778
513.1422, 178.8091
513.6243, 178.7378
514.1064, 178.7285
514.5886, 178.7830
515.0707, 178.8720
515.5528, 178.9613
516.0349, 179.0804
516.5170, 179.2722
516.9991, 179.7119
517.4813, 180.0686
517.9634, 180.1040
518.4455, 179.8873
518.9276, 179.9779
519.4097, 180.8518
519.8918, 181.6856
520.3740, 182.1085
520.8561, 181.9406
521.3382, 181.9534
521.8203, 182.1732
522.3024, 182.5376
522.7845, 183.0087
523.2667, 183.6106
523.7488, 184.1602
524.2309, 184.5922
524.7130, 184.9666
525.1951, 185.4749
525.6772, 186.1153
526.1594, 186.7075
526.6415, 187.1133
527.1236, 187.4137
527.6057, 187.7339
528.0878, 188.0766
528.5699, 188.5807
529.0521, 189.5733
529.5342, 190.7220
530.0163, 191.5500
530.4984, 191.7283
530.9805, 191.9306
531.4626, 192.5820
531.9448, 193.5114
532.4269, 194.3831
532.9090, 194.9666
533.3911, 195.6100
533.8732, 196.4884
534.3553, 197.6074
534.8375, 198.6063
535.3196, 199.4543
535.8017, 200.1865
536.2838, 200.7698
536.7659, 201.0328
537.2480, 201.6783
537.7302, 202.8566
538.2123, 204.2137
538.6944, 205.1692
539.1765, 205.6999
539.6586, 206.2885
540.1407, 207.0611
540.6229, 207.9757
541.1050, 208.9527
541.5871, 209.9851
542.0692, 210.9676
542.5513, 211.7003
543.0334, 212.4124
543.5156, 213.5473
543.9977, 215.1563
544.4798, 216.6753
544.9619, 217.3282
545.4440, 217.8220
545.9261, 218.9583
546.4083, 221.4167
546.8904, 223.8625
547.3725, 225.7451
547.8546, 227.2814
548.3367, 228.9803
548.8188, 231.0785
549.3010, 233.1622
549.7831, 235.0672
550.2652, 236.7975
550.7473, 238.7846
551.2294, 241.0919
551.7115, 243.5554
552.1937, 246.1450
552.6758, 248.8888
553.1579, 251.5393
553.6400, 254.1097
554.1221, 256.5381
554.6042, 258.5236
555.0864, 260.1929
555.5685, 262.3943
556.0506, 265.6144
556.5327, 269.1477
557.0148, 271.8299
557.4969, 273.8924
557.9791, 276.2228
558.4612, 279.7019
558.9433, 283.3751
559.4254, 286.2563
559.9075, 288.2760
560.3896, 290.6132
560.8718, 293.8943
561.3539, 297.5595
561.8360, 301.2215
562.3181, 305.3183
562.8002, 308.6559
563.2823, 310.6704
563.7645, 312.1370
564.2466, 314.2441
564.7287, 317.2342
565.2108, 320.3161
565.6929, 323.4701
566.1750, 326.5486
566.6572, 328.8394
567.1393, 330.2076
567.6214, 331.6660
568.1035, 334.0057
568.5856, 336.9501
569.0677, 339.6037
569.5499, 341.9174
570.0320, 343.8377
570.5141, 345.0348
570.9962, 345.8419
571.4783, 346.8406
571.9604, 348.3622
572.4425, 349.7279
572.9246, 350.4785
573.4067, 350.7852
573.8889, 350.9710
574.3710, 351.2147
574.8531, 351.2821
575.3352, 351.1557
575.8173, 350.8214
576.2994, 350.1021
576.7816, 348.8664
577.2637, 347.4173
577.7458, 345.8201
578.2279, 344.0231
578.7100, 342.4680
579.1921, 341.3185
579.6743, 340.0490
580.1564, 337.9837
580.6385, 335.1779
581.1206, 332.4586
581.6027, 329.9803
582.0848, 327.6633
582.5670, 325.4009
583.0491, 323.2201
583.5312, 321.0945
584.0133, 318.9914
584.4954, 316.9824
584.9775, 315.1266
585.4597, 313.4223
585.9418, 311.8535
586.4239, 310.8103
586.9060, 309.6018
587.3881, 307.6259
587.8702, 304.4828
588.3524, 301.9451
588.8345, 300.7674
589.3166, 299.9168
589.7987, 298.5299
590.2808, 296.0576
590.7629, 294.3389
591.2451, 293.6747
591.7272, 293.6378
592.2093, 293.5025
592.6914, 293.2739
593.1735, 292.8830
593.6556, 292.2227
594.1378, 291.4430
594.6199, 290.8723
595.1020, 290.5107
595.5841, 290.3140
596.0662, 290.2634
596.5483, 290.3593
597.0305, 290.7076
597.5126, 291.3307
597.9947, 291.7522
598.4768, 291.5534
598.9589, 291.1178
599.4410, 290.7629
599.9232, 290.5157
600.4053, 290.4071
600.8874, 290.5745
601.3695, 290.8399
601.8516, 290.9466
602.3337, 290.7870
602.8159, 290.6899
603.2980, 290.7598
603.7801, 290.9219
604.2622, 290.9150
604.7443, 290.7340
605.2264, 290.4167
605.7086, 289.8506
606.1907, 289.1580
606.6728, 288.8919
607.1549, 289.0392
607.6370, 289.0060
608.1191, 288.0341
608.6013, 286.7102
609.0834, 285.8660
609.5655, 285.7363
610.0476, 285.6362
610.5297, 285.3004
611.0118, 284.7519
611.4940, 284.0104
611.9761, 282.7818
612.4582, 281.7398
612.9403, 281.1522
613.4224, 280.7976
613.9045, 280.1335
614.3867, 278.9702
614.8688, 277.9264
615.3509, 277.1705
615.8330, 276.6778
616.3151, 276.3612
616.7972, 276.2515
617.2794, 275.9779
617.7615, 275.1430
618.2436, 273.9545
618.7257, 272.9565
619.2078, 272.1632
619.6899, 271.5489
620.1721, 271.2784
620.6542, 271.0928
621.1363, 270.6142
621.6184, 269.5231
622.1005, 268.6505
622.5826, 268.5600
623.0648, 268.8451
623.5469, 268.9371
624.0290, 268.7223
624.5111, 268.3263
624.9932, 267.5481
625.4753, 266.6217
625.9575, 266.3993
626.4396, 267.0972
626.9217, 267.8836
627.4038, 268.5170
627.8859, 268.9813
628.3680, 268.9952
628.8502, 268.5312
629.3323, 268.3270
629.8144, 269.1920
630.2965, 270.6368
630.7786, 271.6470
631.2607, 272.0821
631.7429, 272.6640
632.2250, 274.2049
632.7071, 276.0455
633.1892, 277.4792
633.6713, 278.0548
634.1534, 278.6498
634.6356, 279.4117
635.1177, 280.3483
635.5998, 281.4950
636.0819, 283.0332
636.5640, 284.4670
637.0461, 285.6382
637.5283, 286.6739
638.0104, 288.0302
638.4925, 289.7570
638.9746, 291.5633
639.4567, 293.2843
639.9388, 295.0152
640.4210, 297.1262
640.9031, 299.6127
641.3852, 302.0360
641.8673, 303.7654
642.3494, 305.4221
642.8315, 307.8380
643.3137, 311.2024
643.7958, 314.4969
644.2779, 317.1435
644.7600, 319.5679
645.2421, 322.1205
645.7242, 324.9561
646.2064, 327.7722
646.6885, 330.5367
647.1706, 333.2784
647.6527, 335.9875
648.1348, 338.6934
648.6169, 341.3062
649.0991, 343.7738
649.5812, 346.2094
650.0633, 349.1617
650.5454, 352.5902
651.0275, 355.5291
651.5096, 357.2083
651.9918, 358.3653
652.4739, 360.2172
652.9560, 362.6247
653.4381, 364.9939
653.9202, 367.2720
654.4023, 369.1290
654.8845, 370.2171
655.3666, 370.4289
655.8487, 370.7004
656.3308, 371.3210
656.8129, 372.0051
657.2950, 372.6214
657.7772, 373.3136
658.2593, 373.5477
658.7414, 373.2820
659.2235, 372.6273
659.7056, 371.6878
660.1877, 370.4698
660.6699, 368.9629
661.1520, 367.1337
661.6341, 365.1604
662.1162, 363.3749
662.5983, 361.6590
663.0804, 359.6974
663.5626, 357.2177
664.0447, 354.5942
664.5268, 351.9974
665.0089, 349.4687
665.4910, 347.0587
665.9731, 345.4801
666.4553, 343.3434
666.9374, 339.7470
667.4195, 334.8228
667.9016, 330.7433
668.3837, 327.6924
668.8658, 325.0951
669.3480, 322.7837
669.8301, 320.7515
670.3122, 318.3680
670.7943, 315.6040
671.2764, 312.6371
671.7585, 309.4393
672.2407, 306.1369
672.7228, 303.0106
673.2049, 300.0358
673.6870, 297.4351
674.1691, 295.6569
674.6512, 294.1790
675.1334, 292.4191
675.6155, 290.1202
676.0976, 287.6455
676.5797, 284.9622
677.0618, 282.2199
677.5439, 279.6441
678.0261, 277.1757
678.5082, 275.0869
678.9903, 273.5395
679.4724, 272.3305
679.9545, 270.9284
680.4366, 269.3596
680.9188, 267.5617
681.4009, 265.2669
681.8830, 262.9105
682.3651, 261.5662
682.8472, 261.0225
683.3293, 260.2842
683.8115, 258.3890
684.2936, 256.3625
684.7757, 254.9301
685.2578, 254.1497
685.7399, 253.4679
686.2220, 252.8980
686.7042, 252.2673
687.1863, 251.4510
687.6684, 250.3682
688.1505, 249.4647
688.6326, 248.7753
689.1147, 248.1566
689.5969, 247.4853
690.0790, 246.7564
690.5611, 246.0081
691.0432, 245.2336
691.5253, 244.4815
692.0074, 243.8528
692.4896, 243.2942
692.9717, 242.7005
693.4538, 241.9803
693.9359, 241.3450
694.4180, 240.8940
694.9001, 240.6196
695.3823, 240.5090
695.8644, 240.8598
696.3465, 241.0190
696.8286, 240.9204
697.3107, 240.5784
697.7928, 239.9313
698.2750, 238.8188
698.7571, 238.0566
699.2392, 238.0575
699.7213, 238.5116
700.2034, 238.3963
700.6855, 237.7795
701.1677, 237.2522
701.6498, 237.2166
702.1319, 237.4168
702.6140, 237.6555
703.0961, 237.8985
703.5782, 237.9555
704.0604, 237.5315
704.5425, 237.0561
705.0246, 236.7623
705.5067, 236.6836
705.9888, 236.6932
706.4709, 236.8011
706.9531, 236.9771
707.4352, 237.2815
707.9173, 237.7587
708.3994, 237.8577
708.8815, 237.5585
709.3636, 236.9437
709.8458, 235.6897
710.3279, 234.2224
710.8100, 233.7415
711.2921, 234.6805
711.7742, 235.6561
712.2563, 235.4890
712.7385, 234.8173
713.2206, 234.4030
713.7027, 234.6380
714.1848, 234.8881
714.6669, 235.0446
715.1490, 235.1523
715.6312, 235.2685
716.1133, 235.3953
716.5954, 235.5136
717.0775, 235.5987
717.5596, 235.6930
718.0417, 235.8349
718.5239, 236.0385
719.0060, 236.4660
719.4881, 237.3235
719.9702, 238.2712
720.4523, 238.9786
720.9344, 239.4355
721.4166, 239.6399
721.8987, 239.1486
722.3808, 238.8163
722.8629, 239.1889
723.3450, 240.1790
723.8271, 240.9253
724.3093, 241.0924
724.7914, 241.4694
725.2735, 242.5041
725.7556, 244.0984
726.2377, 244.8261
726.7198, 244.5819
727.2020, 244.4732
727.6841, 245.5247
728.1662, 247.1833
728.6483, 248.1187
729.1304, 248.3135
729.6125, 248.5036
730.0947, 249.1969
730.5768, 250.0854
731.0589, 250.8996
731.5410, 251.5593
732.0231, 252.3803
732.5052, 253.5038
732.9874, 254.7285
733.4695, 255.9639
733.9516, 257.2294
734.4337, 258.3875
734.9158, 259.4011
735.3979, 260.4229
735.8801, 261.6974
736.3622, 263.1380
736.8443, 264.3140
737.3264, 265.0941
737.8085, 265.9580
738.2906, 267.4735
738.7728, 269.2957
739.2549, 270.9644
739.7370, 272.2774
740.2191, 273.5745
740.7012, 274.9240
741.1833, 276.3219
741.6655, 277.7823
742.1476, 279.3067
742.6297, 280.8276
743.1118, 282.2583
743.5939, 283.7759
744.0760, 285.8853
744.5582, 288.4836
745.0403, 290.7010
745.5224, 292.1347
746.0045, 293.3152
746.4866, 294.7941
746.9688, 296.5299
747.4509, 298.4270
747.9330, 300.4437
748.4151, 302.6157
748.8972, 305.0952
749.3793, 307.7867
749.8615, 310.2504
750.3436, 312.2068
750.8257, 314.5439
751.3078, 317.7085
751.7899, 321.3241
752.2720, 323.7165
752.7542, 324.9018
753.2363, 326.2601
753.7184, 328.4866
754.2005, 331.2654
754.6826, 334.1602
755.1647, 337.1946
755.6469, 340.3402
756.1290, 343.6001
756.6111, 346.9883
757.0932, 350.7079
757.5753, 354.6612
758.0574, 358.2365
758.5396, 361.0332
759.0217, 363.9357
759.5038, 367.2481
759.9859, 370.9462
760.4680, 375.2708
760.9501, 380.2592
761.4323, 385.1819
761.9144, 389.1693
762.3965, 392.9008
762.8786, 397.8677
763.3607, 403.9756
763.8428, 409.9214
764.3250, 414.6028
764.8071, 419.0494
765.2892, 423.8074
765.7713, 428.9829
766.2534, 434.5880
766.7355, 440.5433
767.2177, 446.9957
767.6998, 454.1668
768.1819, 462.1868
768.6640, 469.6619
769.1461, 476.4592
769.6282, 483.2572
770.1104, 490.5385
770.5925, 498.2243
771.0746, 506.0162
771.5567, 513.8635
772.0388, 522.4944
772.5209, 532.9946
773.0031, 544.0186
773.4852, 554.5958
773.9673, 564.3756
774.4494, 574.3671
774.9315, 584.5295
775.4136, 594.9725
775.8958, 605.6949
776.3779, 616.7053
776.8600, 628.4603
777.3421, 641.0596
777.8242, 654.2256
778.3063, 667.8962
778.7885, 681.8862
779.2706, 695.8179
779.7527, 709.4421
780.2348, 723.5035
780.7169, 738.2010
781.1990, 753.4984
781.6812, 769.3894
782.1633, 785.8293
782.6454, 802.7128
783.1275, 820.1832
783.6096, 837.9933
784.0917, 855.6140
784.5739, 872.9557
785.0560, 891.3200
785.5381, 910.7903
786.0202, 930.5687
786.5023, 950.0012
786.9844, 968.9324
787.4666, 987.2574
787.9487, 1004.720
788.4308, 1022.623
788.9129, 1042.548
789.3950, 1063.058
789.8771, 1083.012
790.3593, 1102.495
790.8414, 1120.759
791.3235, 1137.346
791.8056, 1153.162
792.2877, 1168.980
792.7698, 1184.897
793.2520, 1199.443
793.7341, 1212.500
794.2162, 1224.279
794.6983, 1235.673
795.1804, 1245.956
795.6625, 1253.842
796.1447, 1258.754
796.6268, 1262.252
797.1089, 1264.959
797.5910, 1266.523
798.0731, 1266.720
798.5552, 1265.875
799.0374, 1262.898
799.5195, 1257.425
800.0016, 1250.436
800.4837, 1243.372
800.9658, 1235.932
801.4479, 1226.059
801.9301, 1213.228
802.4122, 1198.740
802.8943, 1183.294
803.3764, 1167.367
803.8585, 1151.452
804.3406, 1136.511
804.8228, 1120.132
805.3049, 1100.158
805.7870, 1079.291
806.2691, 1060.335
806.7512, 1044.049
807.2333, 1026.443
807.7155, 1007.127
808.1976, 986.9984
808.6797, 967.2123
809.1618, 947.6299
809.6439, 927.7193
810.1260, 907.1523
810.6082, 887.0042
811.0903, 868.5325
811.5724, 850.9141
812.0545, 833.3304
812.5366, 815.3375
813.0187, 797.9254
813.5009, 781.3569
813.9830, 765.1258
814.4651, 748.8184
814.9472, 732.2715
815.4293, 716.3680
815.9114, 701.1616
816.3936, 686.3649
816.8757, 671.4523
817.3578, 656.8112
817.8399, 642.8237
818.3220, 629.5060
818.8041, 616.9119
819.2863, 605.4335
819.7684, 594.4634
820.2505, 583.4125
820.7326, 572.1989
821.2147, 561.1856
821.6968, 550.2707
822.1790, 539.6359
822.6611, 529.8151
823.1432, 520.6032
823.6253, 511.5421
824.1074, 502.5255
824.5895, 493.6805
825.0717, 485.2030
825.5538, 476.9996
826.0359, 469.1234
826.5180, 461.6735
827.0001, 454.2726
827.4822, 446.6443
827.9644, 439.1623
828.4465, 431.9479
828.9286, 425.0272
829.4107, 418.6803
829.8928, 413.0508
830.3749, 407.5453
830.8571, 401.4124
831.3392, 395.0663
831.8213, 389.3585
832.3034, 384.4395
832.7855, 379.6740
833.2676, 374.5439
833.7498, 369.5522
834.2319, 365.1661
834.7140, 361.6601
835.1961, 357.7367
835.6782, 353.0900
836.1603, 348.5384
836.6425, 344.7621
837.1246, 341.6949
837.6067, 338.3329
838.0888, 334.6684
838.5709, 331.0065
839.0530, 327.5179
839.5352, 324.1988
840.0173, 321.0610
840.4994, 318.0803
840.9815, 315.2613
841.4636, 312.7450
841.9457, 310.2530
842.4279, 307.5964
842.9100, 304.7815
843.3921, 302.2388
843.8742, 299.9998
844.3563, 297.8456
844.8384, 295.6918
845.3206, 293.5038
845.8027, 291.1176
846.2848, 288.5970
846.7669, 286.3638
847.2490, 285.0692
847.7311, 283.7516
848.2133, 281.8110
848.6954, 279.2838
849.1775, 276.8304
849.6596, 274.3641
850.1417, 272.1724
850.6238, 270.4322
851.1060, 269.0203
851.5881, 267.5926
852.0702, 266.1445
852.5523, 264.6163
853.0344, 262.8217
853.5165, 261.0988
853.9987, 259.7207
854.4808, 258.6440
854.9629, 257.7582
855.4450, 257.4361
855.9271, 256.7852
856.4092, 255.3752
856.8914, 253.6539
857.3735, 252.7326
857.8556, 252.7016
858.3377, 252.2782
858.8198, 251.0210
859.3019, 249.4135
859.7841, 247.9584
860.2662, 246.7324
860.7483, 245.9575
861.2304, 246.1911
861.7125, 246.1677
862.1946, 245.1261
862.6768, 243.6817
863.1589, 242.7384
863.6410, 242.4994
864.1231, 242.1512
864.6052, 241.5808
865.0873, 240.9803
865.5695, 240.5800
866.0516, 240.3544
866.5337, 240.2810
867.0158, 240.4158
867.4979, 240.3804
867.9800, 239.6459
868.4622, 238.7583
868.9443, 238.2704
869.4264, 238.5181
869.9085, 238.5415
870.3906, 238.2516
870.8727, 237.8741
871.3549, 237.5948
871.8370, 237.4034
872.3191, 237.1171
872.8012, 236.7189
873.2833, 236.5165
873.7654, 237.1678
874.2476, 237.8730
874.7297, 237.6885
875.2118, 236.5024
875.6939, 235.5104
876.1760, 235.2193
876.6581, 234.9495
877.1403, 234.3251
877.6224, 233.4136
878.1045, 233.3316
878.5866, 234.1259
879.0687, 234.7465
879.5508, 234.5293
880.0330, 233.7807
880.5151, 232.6433
880.9972, 231.2942
881.4793, 230.3930
881.9614, 230.6987
882.4435, 230.9868
882.9257, 230.6882
883.4078, 230.0442
883.8899, 229.7746
884.3720, 229.9747
884.8541, 230.0022
885.3362, 229.5412
885.8184, 229.0237
886.3005, 229.3964
886.7826, 230.3221
887.2647, 230.9284
887.7468, 230.7079
888.2289, 230.3871
888.7111, 230.1078
889.1932, 229.9896
889.6753, 230.2099
890.1574, 230.8758
890.6395, 231.5864
891.1216, 232.3089
891.6038, 233.0642
892.0859, 234.1169
892.5680, 235.2312
893.0501, 235.4400
893.5322, 234.4149
894.0143, 233.7892
894.4965, 235.1907
894.9786, 237.1596
895.4607, 238.3867
895.9428, 238.3779
896.4249, 238.9758
896.9070, 240.4163
897.3892, 241.9765
897.8713, 243.0977
898.3534, 243.8848
898.8355, 244.8722
899.3176, 246.0614
899.7997, 247.4136
900.2819, 249.5644
900.7640, 251.3359
901.2461, 251.6357
901.7282, 250.5661
902.2103, 249.6210
902.6924, 249.3839
903.1746, 248.6399
903.6567, 247.0408
904.1388, 244.6788
904.6209, 241.6530
905.1030, 238.0199
905.5851, 234.1724
906.0673, 230.1228
906.5494, 226.1290
907.0315, 222.2551
907.5136, 218.6510
907.9957, 215.5304
908.4778, 213.3266
908.9600, 211.1432
909.4421, 208.7900
909.9242, 206.5482
910.4063, 204.8187
910.8884, 203.5784
911.3705, 202.2341
911.8527, 200.6690
912.3348, 199.1873
912.8169, 198.1458
913.2990, 197.3177
913.7811, 196.4381
914.2632, 195.4266
914.7454, 194.5326
915.2275, 193.9136
915.7096, 193.2763
916.1917, 192.4319
916.6738, 191.3849
917.1559, 190.3281
917.6381, 189.2676
918.1202, 188.4420
918.6023, 188.1902
919.0844, 188.1417
919.5665, 187.8915
920.0486, 187.4680
920.5308, 187.1032
921.0129, 187.0719
921.4950, 186.8419
921.9771, 186.2217
922.4592, 185.3325
922.9413, 184.4695
923.4235, 183.6418
923.9056, 183.0872
924.3877, 183.0474
924.8698, 182.9831
925.3519, 182.0052
925.8340, 180.6618
926.3162, 179.8196
926.7983, 180.2099
927.2804, 180.3761
927.7625, 180.0113
928.2446, 179.5128
928.7267, 179.3953
929.2089, 179.6689
929.6910, 179.3470
930.1731, 178.3226
930.6552, 177.2133
931.1373, 176.4634
931.6194, 176.0114
932.1016, 175.8466
932.5837, 175.9823
933.0658, 176.0781
933.5479, 176.1043
934.0300, 176.0098
934.5121, 175.7461
934.9943, 175.3318
935.4764, 174.9021
935.9585, 174.4511
936.4406, 174.0735
936.9227, 173.8486
937.4048, 173.6742
937.8870, 173.4254
938.3691, 173.1445
938.8512, 172.9361
939.3333, 172.9711
939.8154, 172.8673
940.2975, 172.4296
940.7797, 171.9905
941.2618, 172.2861
941.7439, 173.2280
942.2260, 173.4998
942.7081, 172.8062
943.1902, 171.8539
943.6724, 171.0290
944.1545, 170.4799
944.6366, 170.4864
945.1187, 171.3470
945.6008, 171.6605
946.0829, 171.0460
946.5651, 170.3013
947.0472, 169.8283
947.5293, 169.6171
948.0114, 169.7931
948.4935, 170.3070
948.9756, 170.5947
949.4578, 170.0418
949.9399, 169.3549
950.4220, 169.0107
950.9041, 168.9936
951.3862, 169.2427
951.8683, 170.2764
952.3505, 170.5373
952.8326, 169.5278
953.3147, 167.9193
953.7968, 166.9013
954.2789, 166.3893
954.7610, 166.0222
955.2432, 165.7254
955.7253, 165.5193
956.2074, 165.4390
956.6895, 165.4430
957.1716, 165.4905
957.6537, 165.5702
958.1359, 165.7260
958.6180, 166.0275
959.1001, 166.2160
959.5822, 165.9909
960.0643, 165.5131
960.5464, 165.2989
961.0286, 165.3278
961.5107, 165.3800
961.9928, 165.1119
962.4749, 165.0504
962.9570, 165.8187
963.4391, 167.0441
963.9213, 167.2922
964.4034, 166.2420
964.8855, 165.5277
965.3676, 165.6441
965.8497, 166.0713
966.3318, 166.0111
966.8140, 165.6258
967.2961, 165.2287
967.7782, 164.8410
968.2603, 164.6132
968.7424, 164.7372
969.2245, 164.9414
969.7067, 165.0012
970.1888, 164.8836
970.6709, 164.8719
971.1530, 164.9789
971.6351, 165.0574
972.1172, 164.9452
972.5994, 164.7648
973.0815, 164.7320
973.5636, 164.8034
974.0457, 164.7067
974.5278, 164.0701
975.0099, 163.6034
975.4921, 163.5227
975.9742, 163.6940
976.4563, 163.8083
976.9384, 163.8694
977.4205, 163.9196
977.9026, 164.0035
978.3848, 163.9859
978.8669, 163.5203
979.3490, 162.9870
979.8311, 162.9010
980.3132, 163.7095
980.7953, 164.0041
981.2775, 163.5042
981.7596, 162.9066
982.2417, 162.7081
982.7238, 162.8367
983.2059, 162.9560
983.6880, 163.0556
984.1702, 163.0875
984.6523, 162.9126
985.1344, 162.7619
985.6165, 162.8428
986.0986, 163.0637
986.5807, 163.0757
987.0629, 162.7935
987.5450, 162.5617
988.0271, 162.4368
988.5092, 162.4160
988.9913, 162.5918
989.4734, 162.8489
989.9556, 162.9320
990.4377, 162.7520
990.9198, 162.5525
991.4019, 162.4827
991.8840, 162.3831
992.3661, 162.0725
992.8483, 161.5376
993.3304, 161.5474
993.8125, 162.1389
994.2946, 162.6295
994.7767, 162.4322
995.2589, 162.0128
995.7410, 161.9934
996.2231, 162.2201
996.7052, 162.2406
997.1873, 161.6515
997.6694, 161.2122
998.1516, 161.0484
998.6337, 161.0468
999.1158, 161.0671
999.5979, 161.1011
1000.080, 161.1070
1000.562, 161.0843
1001.044, 160.9841
1001.526, 160.5562
1002.008, 160.1904
1002.491, 160.3080
1002.973, 161.0096
1003.455, 161.3906
1003.937, 161.3843
1004.419, 161.2674
1004.901, 161.1269
1005.383, 160.9926
1005.865, 160.8728
1006.348, 160.8090
1006.830, 160.9180
1007.312, 161.6680
1007.794, 162.0793
1008.276, 161.4814
1008.758, 160.6263
1009.240, 160.3110
1009.722, 160.5862
1010.204, 160.9488
1010.687, 161.3943
1011.169, 161.6967
1011.651, 161.5291
1012.133, 161.2052
1012.615, 161.1023
1013.097, 161.2279
1013.579, 161.1640
1014.061, 160.6232
1014.544, 160.2614
1015.026, 160.3016
1015.508, 160.6105
1015.990, 160.9346
1016.472, 161.2491
1016.954, 161.4523
1017.436, 161.5144
1017.918, 161.4594
1018.400, 161.4295
1018.883, 161.2007
1019.365, 160.4198
1019.847, 158.7958
1020.329, 158.1640
1020.811, 158.6685
1021.293, 159.3826
1021.775, 159.6768
1022.257, 159.7395
1022.740, 159.9089
1023.222, 160.1247
1023.704, 160.1403
1024.186, 159.6537
1024.668, 159.2195
1025.150, 158.9051
1025.632, 158.7420
1026.114, 158.8367
1026.596, 159.1580
1027.079, 159.4617
1027.561, 159.7140
1028.043, 159.8968
1028.525, 160.0407
1029.007, 160.0767
1029.489, 159.8498
1029.971, 159.3286
1030.453, 159.2183
1030.936, 159.6846
1031.418, 160.0071
1031.900, 159.8319
1032.382, 159.3815
1032.864, 158.9485
1033.346, 158.6054
1033.828, 158.5505
1034.310, 159.2044
1034.792, 159.6044
1035.275, 159.2224
1035.757, 158.7579
1036.239, 158.9162
1036.721, 159.6970
1037.203, 160.0702
1037.685, 160.0016
1038.167, 159.7808
1038.649, 159.4879
1039.131, 159.2425
1039.614, 159.1130
1040.096, 159.1151
1040.578, 159.3048
1041.060, 159.8305
1041.542, 160.1347
1042.024, 160.0763
1042.506, 159.8362
1042.988, 159.5970
1043.471, 159.4004
1043.953, 159.3240
1044.435, 159.3747
1044.917, 159.5798
1045.399, 160.3454
1045.881, 160.8394
1046.363, 160.4570
1046.845, 159.3855
1047.328, 159.2725
1047.810, 160.0572
1048.292, 160.6850
1048.774, 160.5950
1049.256, 160.2751
1049.738, 160.0863
1050.220, 159.9385
1050.702, 159.6529
1051.184, 158.9612
1051.667, 158.8069
1052.149, 159.3469
1052.631, 159.9693
1053.113, 160.1020
1053.595, 159.9561
1054.077, 159.9664
1054.559, 160.1167
1055.041, 160.1669
1055.523, 159.8548
1056.006, 159.6313
1056.488, 159.6027
1056.970, 159.7425
1057.452, 160.1194
1057.934, 160.6786
1058.416, 160.8401
1058.898, 160.4394
1059.380, 159.9901
1059.863, 159.9854
1060.345, 160.0594
1060.827, 159.8145
1061.309, 159.2152
1061.791, 159.0777
1062.273, 159.4861
1062.755, 159.9644
1063.237, 160.3573
1063.719, 160.6255
1064.202, 160.6891
1064.684, 160.5889
1065.166, 160.3790
1065.648, 159.6984
1066.130, 159.6561
1066.612, 160.7872
1067.094, 161.9125
1067.576, 161.9271
1068.058, 161.0559
1068.541, 160.5395
1069.023, 160.3786
1069.505, 160.4196
1069.987, 160.7933
1070.469, 161.1138
1070.951, 161.1681
1071.433, 161.0271
1071.915, 160.8014
1072.397, 160.4855
1072.880, 160.0725
1073.362, 159.5111
1073.844, 159.2112
1074.326, 160.0493
1074.808, 161.0694
1075.290, 161.0559
1075.772, 159.9050
1076.254, 159.4282
1076.737, 160.0854
1077.219, 160.5851
1077.701, 160.4150
1078.183, 159.9917
1078.665, 160.2624
1079.147, 160.9077
1079.629, 161.1338
1080.111, 160.5374
1080.594, 160.0923
1081.076, 160.1202
1081.558, 160.4351
1082.040, 161.0903
1082.522, 162.0042
1083.004, 162.2149
1083.486, 161.7844
1083.968, 161.2981
1084.450, 160.9787
1084.932, 160.8113
1085.415, 160.8524
1085.897, 161.0183
1086.379, 161.2055
1086.861, 161.4937
1087.343, 161.3934
1087.825, 160.8184
1088.307, 160.2961
1088.789, 160.4565
1089.272, 160.8200
1089.754, 160.7232
1090.236, 160.2514
1090.718, 160.0302
1091.200, 160.3276
1091.682, 160.5971
1092.164, 160.7360
1092.646, 160.8283
1093.129, 161.0672
1093.611, 161.3487
1094.093, 161.3776
1094.575, 161.0905
1095.057, 160.8408
1095.539, 160.8075
1096.021, 160.8304
1096.503, 160.8638
1096.985, 160.8889
1097.468, 160.7985
1097.950, 160.6131
1098.432, 160.5151
1098.914, 160.5934
1099.396, 160.6900
1099.878, 160.6656
1100.360, 160.6215
1100.842, 160.6824
1101.324, 160.8754
1101.807, 160.8829
1102.289, 160.6810
1102.771, 160.5533
1103.253, 160.7637
1103.735, 161.0315
1104.217, 161.0002
1104.699, 160.7877
1105.181, 160.6136
1105.664, 160.5100
1106.146, 160.4792
1106.628, 160.5423
1107.110, 160.6239
1107.592, 160.7721
1108.074, 160.8459
1108.556, 160.3661
1109.038, 159.4686
1109.521, 158.9222
1110.003, 159.1939
1110.485, 159.6616
1110.967, 160.3456
1111.449, 160.9634
1111.931, 160.9865
1112.413, 160.5538
1112.895, 160.2973
1113.377, 160.2920
1113.859, 160.3448
1114.342, 160.4147
1114.824, 160.4306
1115.306, 160.3026
1115.788, 160.1034
1116.270, 160.1188
1116.752, 160.3432
1117.234, 160.4078
1117.716, 160.1725
1118.199, 159.9505
1118.681, 160.0722
1119.163, 160.3018
1119.645, 160.4649
1120.127, 160.5532
1120.609, 160.2618
1121.091, 159.4733
1121.573, 159.0726
1122.056, 159.6443
1122.538, 160.4462
1123.020, 160.5605
1123.502, 160.2475
1123.984, 159.8887
1124.466, 159.4301
1124.948, 159.3026
1125.430, 159.6085
1125.912, 159.9962
1126.395, 160.2614
1126.877, 160.4326
1127.359, 160.5811
1127.841, 160.6934
1128.323, 160.7258
1128.805, 160.5188
1129.287, 160.4485
1129.769, 160.6269
1130.251, 160.8496
1130.734, 160.9433
1131.216, 160.9101
1131.698, 160.7215
1132.180, 160.3969
1132.662, 160.0954
1133.144, 159.8259
1133.626, 159.6859
1134.108, 159.7372
1134.591, 159.8985
1135.073, 160.0733
1135.555, 160.2558
1136.037, 160.4564
1136.519, 160.6828
1137.001, 160.6786
1137.483, 159.8465
1137.965, 159.1230
1138.448, 159.3741
1138.930, 160.2018
1139.412, 160.2818
1139.894, 159.5663
1140.376, 159.1688
1140.858, 159.3568
1141.340, 159.7303
1141.822, 160.0607
1142.304, 160.2982
1142.786, 160.4167
1143.269, 160.4057
1143.751, 160.1091
1144.233, 159.4299
1144.715, 159.0100
1145.197, 159.1160
1145.679, 159.4679
1146.161, 159.8392
1146.643, 160.1680
1147.126, 160.3830
1147.608, 160.4626
1148.090, 160.3691
1148.572, 160.0062
1149.054, 159.7871
1149.536, 160.0188
1150.018, 160.3958
1150.500, 160.3818
1150.983, 160.1084
1151.465, 159.8291
1151.947, 159.5639
1152.429, 159.4189
1152.911, 159.4279
1153.393, 159.4947
1153.875, 159.5956
1154.357, 159.6893
1154.839, 159.6069
1155.322, 159.4139
1155.804, 159.3231
1156.286, 159.5163
1156.768, 159.6726
1157.250, 159.6835
1157.732, 159.7313
1158.214, 160.1537
1158.696, 160.7640
1159.178, 160.5547
1159.661, 159.6682
1160.143, 159.0683
1160.625, 159.5440
1161.107, 159.9920
1161.589, 160.0764
1162.071, 159.9706
1162.553, 159.8698
1163.035, 159.7707
1163.518, 159.6341
1164.000, 159.4616
1164.482, 159.3333
1164.964, 159.2510
1165.446, 159.2896
1165.928, 159.6835
1166.410, 160.1096
1166.892, 159.7873
1167.375, 158.7965
1167.857, 158.3883
1168.339, 158.7413
1168.821, 159.2599
1169.303, 159.7749
1169.785, 160.0628
1170.267, 159.7413
1170.749, 159.1181
1171.231, 159.0662
1171.714, 159.5794
1172.196, 160.2754
1172.678, 161.0984
1173.160, 161.9007
1173.642, 162.8015
1174.124, 163.4180
1174.606, 163.2869
1175.088, 162.5464
1175.570, 161.8873
1176.053, 161.3055
1176.535, 160.7991
1177.017, 160.3409
1177.499, 160.0344
1177.981, 160.1114
1178.463, 160.2938
1178.945, 160.2509
1179.427, 159.9694
1179.910, 160.0775
1180.392, 160.6453
1180.874, 160.8528
1181.356, 160.2433
1181.838, 159.5020
1182.320, 159.4464
1182.802, 159.6245
1183.284, 159.3893
1183.766, 158.5532
1184.249, 158.5727
1184.731, 159.6078
1185.213, 160.3934
1185.695, 160.1405
1186.177, 159.6420
1186.659, 159.9462
1187.141, 160.5474
1187.623, 160.6868
1188.105, 160.1479
1188.588, 159.5968
1189.070, 159.0044
1189.552, 158.5976
1190.034, 158.4834
1190.516, 158.6542
1190.998, 159.3979
1191.480, 160.3220
1191.962, 160.7276
1192.445, 160.2762
1192.927, 159.8363
1193.409, 159.3501
1193.891, 159.1288
1194.373, 159.6592
1194.855, 160.3626
1195.337, 160.4404
1195.819, 160.1023
1196.302, 159.7903
1196.784, 159.3564
1197.266, 159.5692
1197.748, 160.6263
1198.230, 161.5456
1198.712, 161.3128
1199.194, 160.6339
1199.676, 160.4325
1200.158, 160.5812
1200.641, 160.6924
1201.123, 160.6445
1201.605, 160.6507
1202.087, 160.6629
1202.569, 160.9809
1203.051, 162.5021
1203.533, 164.0540
1204.015, 163.8410
1204.497, 162.2699
1204.980, 160.8938
1205.462, 159.7530
1205.944, 159.3266
1206.426, 159.7889
1206.908, 160.4256
1207.390, 160.5563
1207.872, 160.4237
1208.354, 160.2683
1208.837, 160.1248
1209.319, 160.0985
1209.801, 160.2776
1210.283, 160.3408
1210.765, 160.2248
1211.247, 160.0809
1211.729, 160.0103
1212.211, 160.0416
1212.693, 160.3885
1213.176, 160.9331
1213.658, 160.8835
1214.140, 159.8678
1214.622, 159.2694
1215.104, 159.3337
1215.586, 159.6656
1216.068, 159.9857
1216.550, 160.2333
1217.032, 160.3372
1217.515, 160.2964
1217.997, 160.1052
1218.479, 159.6377
1218.961, 159.5437
1219.443, 160.0278
1219.925, 160.4973
1220.407, 160.0493
1220.889, 159.3810
1221.372, 159.3170
1221.854, 159.8646
1222.336, 160.3782
1222.818, 160.8574
1223.300, 161.1768
1223.782, 161.3073
1224.264, 161.2918
1224.746, 161.1593
1225.229, 160.9202
1225.711, 160.5031
1226.193, 159.9479
1226.675, 159.6340
1227.157, 159.5828
1227.639, 159.7124
1228.121, 160.0479
1228.603, 160.3532
1229.085, 160.2652
1229.568, 160.1087
1230.050, 160.2579
1230.532, 160.6810
1231.014, 160.8412
1231.496, 160.6972
1231.978, 160.6731
1232.460, 160.8897
1232.942, 161.1272
1233.424, 161.2223
1233.907, 161.2064
1234.389, 161.0831
1234.871, 160.8692
1235.353, 160.5553
1235.835, 160.1226
1236.317, 160.2109
1236.799, 161.1047
1237.281, 161.8288
1237.764, 161.2324
1238.246, 160.4124
1238.728, 160.3579
1239.210, 160.8574
1239.692, 160.9215
1240.174, 160.5729
1240.656, 160.4844
1241.138, 160.8681
1241.620, 161.2144
1242.103, 161.0542
1242.585, 160.8056
1243.067, 160.7183
1243.549, 160.7782
1244.031, 160.9904
1244.513, 161.3243
1244.995, 161.5075
1245.477, 161.4532
1245.959, 161.3964
1246.442, 161.4402
1246.924, 161.5803
1247.406, 161.8765
1247.888, 162.2150
1248.370, 162.1478
1248.852, 161.7873
1249.334, 161.6085
1249.816, 161.7310
1250.299, 161.9678
1250.781, 162.5035
1251.263, 162.7841
1251.745, 162.4810
1252.227, 161.8952
1252.709, 161.7765
1253.191, 161.9927
1253.673, 162.1446
1254.156, 162.1322
1254.638, 162.2271
1255.120, 162.7604
1255.602, 162.9983
1256.084, 162.5145
1256.566, 161.8530
1257.048, 162.3081
1257.530, 163.3523
1258.012, 163.8594
1258.495, 163.5801
1258.977, 163.3926
1259.459, 163.5145
1259.941, 163.5399
1260.423, 163.3048
1260.905, 162.9832
1261.387, 162.7416
1261.869, 162.6525
1262.351, 162.9138
1262.834, 163.5837
1263.316, 163.9235
1263.798, 163.7969
1264.280, 163.7310
1264.762, 163.8980
1265.244, 164.1325
1265.726, 164.2812
1266.208, 164.3560
1266.691, 164.3895
1267.173, 164.3731
1267.655, 164.1189
1268.137, 163.5673
1268.619, 163.2930
1269.101, 163.5011
1269.583, 163.7874
1270.065, 163.7386
1270.547, 163.6204
1271.030, 163.8206
1271.512, 164.1793
1271.994, 163.7264
1272.476, 162.4952
1272.958, 161.9991
1273.440, 162.6585
1273.922, 163.4453
1274.404, 163.6873
1274.886, 163.7564
1275.369, 163.8741
1275.851, 164.0089
1276.333, 164.1306
1276.815, 164.1930
1277.297, 163.8005
1277.779, 162.8285
1278.261, 162.2726
1278.743, 163.1262
1279.226, 163.9192
1279.708, 164.1041
1280.190, 163.9353
1280.672, 163.8490
1281.154, 163.8269
1281.636, 163.8179
1282.118, 163.8135
1282.600, 163.8737
1283.083, 164.0805
1283.565, 164.2328
1284.047, 164.2626
1284.529, 164.2782
1285.011, 164.5634
1285.493, 164.8699
1285.975, 164.6759
1286.457, 163.9978
1286.939, 163.7914
1287.422, 164.3500
1287.904, 164.5749
1288.386, 164.2036
1288.868, 163.7193
1289.350, 163.6282
1289.832, 163.7002
1290.314, 163.6875
1290.796, 163.6233
1291.278, 163.7470
1291.761, 164.0835
1292.243, 164.3198
1292.725, 164.4113
1293.207, 164.3882
1293.689, 164.0629
1294.171, 163.8402
1294.653, 164.2465
1295.135, 164.8145
1295.618, 164.5859
1296.100, 163.6835
1296.582, 163.3714
1297.064, 163.7560
1297.546, 164.2031
1298.028, 164.4090
1298.510, 164.4492
1298.992, 164.3439
1299.474, 164.1615
##END=



