##NAMES=Footemineite
##RRUFFID=R090005
##IDEAL CHEMISTRY=Ca_2_Mn^2+^_5_Be_4_(PO_4_)_6_(OH)_4_&#183;6H_2_O
##LOCALITY=Foote mine, North Carolina, USA
##OWNER=RRUFF
##SOURCE=Luiz Menezes
##DESCRIPTION=Pale yellow to light green prismatic or barrel-shaped crystals associated with colorless albite.
##STATUS=The identification of this mineral has been confirmed by single-crystal X-ray diffraction.
##URL=rruff.info/R090005
93.30109, 0.0000000E+00
93.78320, 292.6691
94.26532, 291.6141
94.74744, 292.7021
95.22955, 295.2150
95.71167, 298.7562
96.19379, 301.0978
96.67590, 302.6982
97.15802, 303.9898
97.64014, 305.4181
98.12225, 306.5527
98.60437, 306.5518
99.08649, 304.9701
99.56860, 302.6205
100.0507, 300.7926
100.5328, 299.0978
101.0150, 297.2953
101.4971, 295.4204
101.9792, 293.5118
102.4613, 291.1455
102.9434, 287.5792
103.4255, 283.6643
103.9077, 280.0072
104.3898, 276.8073
104.8719, 273.8187
105.3540, 270.4852
105.8361, 266.3297
106.3182, 262.5894
106.8004, 260.0073
107.2825, 257.7740
107.7646, 254.7660
108.2467, 250.1738
108.7288, 244.1888
109.2109, 239.5716
109.6931, 236.8199
110.1752, 234.8359
110.6573, 233.8121
111.1394, 233.4096
111.6215, 232.8814
112.1036, 231.5049
112.5858, 229.0782
113.0679, 227.4460
113.5500, 226.9543
114.0321, 226.9239
114.5142, 227.0148
114.9964, 227.1695
115.4785, 227.1940
115.9606, 226.5677
116.4427, 225.3244
116.9248, 224.8738
117.4069, 226.2493
117.8891, 228.5958
118.3712, 230.0716
118.8533, 229.9580
119.3354, 229.4309
119.8175, 229.5857
120.2996, 230.3742
120.7818, 231.3967
121.2639, 232.3566
121.7460, 233.2444
122.2281, 234.3153
122.7102, 235.6378
123.1923, 237.1630
123.6745, 239.0011
124.1566, 241.1401
124.6387, 243.2779
125.1208, 244.9944
125.6029, 246.1696
126.0850, 247.1166
126.5672, 247.8849
127.0493, 248.4837
127.5314, 248.8573
128.0135, 248.9944
128.4956, 249.0048
128.9777, 249.2034
129.4599, 249.8993
129.9420, 250.4491
130.4241, 250.6640
130.9062, 250.7293
131.3883, 250.9215
131.8704, 251.4003
132.3526, 252.1226
132.8347, 252.8375
133.3168, 253.1188
133.7989, 253.7995
134.2810, 255.3500
134.7632, 257.6755
135.2453, 260.2813
135.7274, 263.0278
136.2095, 265.7908
136.6916, 268.2011
137.1737, 270.2633
137.6559, 271.9592
138.1380, 273.1574
138.6201, 273.7521
139.1022, 274.3545
139.5843, 275.5508
140.0664, 277.0008
140.5486, 278.1826
141.0307, 278.7044
141.5128, 278.8340
141.9949, 279.3640
142.4770, 280.4767
142.9591, 281.7664
143.4413, 283.1915
143.9234, 284.6348
144.4055, 285.9136
144.8876, 286.9253
145.3697, 287.6700
145.8518, 288.0270
146.3340, 288.0241
146.8161, 287.5585
147.2982, 286.4030
147.7803, 284.6924
148.2624, 282.7328
148.7445, 280.7045
149.2267, 278.3452
149.7088, 277.2169
150.1909, 277.2176
150.6730, 278.1822
151.1551, 280.3911
151.6372, 283.7163
152.1194, 287.3534
152.6015, 290.2833
153.0836, 291.9561
153.5657, 294.4443
154.0478, 298.2195
154.5299, 302.5839
155.0121, 306.9788
155.4942, 311.2847
155.9763, 315.3271
156.4584, 318.4878
156.9405, 320.5733
157.4226, 323.4991
157.9048, 328.1357
158.3869, 333.9590
158.8690, 339.9572
159.3511, 346.0891
159.8332, 351.9943
160.3153, 357.0999
160.7975, 361.3690
161.2796, 365.8871
161.7617, 371.4091
162.2438, 377.9055
162.7259, 384.5091
163.2081, 390.9810
163.6902, 397.6013
164.1723, 404.4400
164.6544, 411.5685
165.1365, 419.0557
165.6186, 427.1604
166.1008, 435.9993
166.5829, 444.7930
167.0650, 454.0577
167.5471, 462.8257
168.0292, 470.6342
168.5113, 477.3135
168.9935, 482.5494
169.4756, 485.7997
169.9577, 486.8001
170.4398, 485.9874
170.9219, 484.0560
171.4040, 480.3897
171.8862, 473.9745
172.3683, 464.5298
172.8504, 453.2838
173.3325, 443.0479
173.8146, 435.0381
174.2967, 426.8039
174.7789, 418.1454
175.2610, 409.2591
175.7431, 400.3392
176.2252, 391.3740
176.7073, 382.5386
177.1894, 374.4984
177.6716, 367.6689
178.1537, 360.9796
178.6358, 352.7914
179.1179, 349.5893
179.6000, 346.1535
180.0821, 342.5161
180.5643, 336.9878
181.0464, 334.7312
181.5285, 331.6712
182.0106, 328.9256
182.4927, 328.1652
182.9748, 324.7765
183.4570, 324.7146
183.9391, 323.8318
184.4212, 323.8529
184.9033, 323.0634
185.3854, 322.9984
185.8675, 323.2906
186.3497, 322.6269
186.8318, 321.7449
187.3139, 322.3153
187.7960, 319.7248
188.2781, 319.9286
188.7602, 318.7784
189.2424, 317.9991
189.7245, 315.8766
190.2066, 313.9460
190.6887, 313.0182
191.1708, 311.2702
191.6530, 307.9166
192.1351, 304.4516
192.6172, 299.9584
193.0993, 293.9420
193.5814, 287.2318
194.0635, 282.0071
194.5457, 279.0644
195.0278, 276.1004
195.5099, 272.3014
195.9920, 268.3692
196.4741, 264.8854
196.9562, 262.0924
197.4384, 260.0419
197.9205, 258.9339
198.4026, 259.6633
198.8847, 260.1888
199.3668, 260.1215
199.8489, 259.7655
200.3311, 259.4336
200.8132, 259.2799
201.2953, 259.3062
201.7774, 259.5205
202.2595, 259.9160
202.7416, 260.5360
203.2238, 261.4877
203.7059, 262.6489
204.1880, 263.8265
204.6701, 264.8986
205.1522, 265.9618
205.6343, 267.4705
206.1165, 269.8284
206.5986, 272.1364
207.0807, 274.2863
207.5628, 276.2526
208.0449, 278.1349
208.5270, 280.1071
209.0092, 281.8474
209.4913, 281.9511
209.9734, 280.0681
210.4555, 277.4159
210.9376, 274.1841
211.4197, 270.4854
211.9019, 266.4929
212.3840, 262.1288
212.8661, 257.7468
213.3482, 254.3008
213.8303, 252.3416
214.3124, 250.3817
214.7946, 247.4162
215.2767, 243.6429
215.7588, 240.2380
216.2409, 237.8531
216.7230, 236.0662
217.2052, 233.8866
217.6873, 231.0152
218.1694, 228.4023
218.6515, 226.8146
219.1336, 226.2218
219.6157, 226.0083
220.0979, 226.1317
220.5800, 226.4293
221.0621, 226.6864
221.5442, 226.8472
222.0263, 227.1089
222.5084, 227.6302
222.9906, 228.4109
223.4727, 229.4717
223.9548, 230.6841
224.4369, 232.2970
224.9190, 234.7252
225.4011, 238.1011
225.8833, 241.5774
226.3654, 244.0703
226.8475, 245.3259
227.3296, 246.7696
227.8117, 248.7771
228.2938, 251.0112
228.7760, 253.4441
229.2581, 256.0393
229.7402, 258.3910
230.2223, 259.8120
230.7044, 259.8879
231.1865, 260.3716
231.6687, 262.0612
232.1508, 263.7538
232.6329, 264.6092
233.1150, 264.5174
233.5971, 264.0633
234.0792, 264.0905
234.5614, 264.8890
235.0435, 265.4582
235.5256, 265.6429
236.0077, 265.7275
236.4898, 265.7363
236.9719, 265.7476
237.4541, 266.0085
237.9362, 266.9023
238.4183, 268.7367
238.9004, 270.4752
239.3825, 272.0678
239.8646, 273.6100
240.3468, 275.2915
240.8289, 277.0714
241.3110, 278.5894
241.7931, 279.3774
242.2752, 279.1084
242.7573, 278.9754
243.2395, 278.9581
243.7216, 279.0651
244.2037, 279.6563
244.6858, 280.5934
245.1679, 281.0067
245.6501, 279.8194
246.1322, 276.4552
246.6143, 273.7281
247.0964, 272.1766
247.5785, 270.7758
248.0606, 268.7906
248.5428, 266.2006
249.0249, 263.4627
249.5070, 260.9383
249.9891, 258.6101
250.4712, 257.0352
250.9533, 257.0521
251.4355, 257.1244
251.9176, 256.1042
252.3997, 254.0016
252.8818, 251.6704
253.3639, 249.7358
253.8460, 248.2498
254.3282, 247.1878
254.8103, 247.0652
255.2924, 246.9501
255.7745, 246.0250
256.2566, 244.3579
256.7387, 242.8452
257.2209, 242.1569
257.7030, 242.2214
258.1851, 242.1727
258.6672, 242.2098
259.1493, 241.9733
259.6314, 240.9706
260.1136, 239.2995
260.5957, 237.8970
261.0778, 237.5239
261.5599, 237.7599
262.0420, 237.2349
262.5241, 235.2933
263.0063, 233.3511
263.4884, 232.6593
263.9705, 233.0500
264.4526, 233.0401
264.9347, 231.8441
265.4168, 229.8395
265.8990, 227.9009
266.3811, 226.0438
266.8632, 224.2080
267.3453, 222.1917
267.8274, 220.0666
268.3095, 218.4036
268.7917, 217.6313
269.2738, 217.2627
269.7559, 216.5622
270.2380, 215.4369
270.7201, 214.4356
271.2022, 214.0163
271.6844, 214.1018
272.1665, 214.1468
272.6486, 213.9408
273.1307, 213.7408
273.6128, 213.8942
274.0949, 214.3960
274.5771, 214.7182
275.0592, 214.3142
275.5413, 213.3450
276.0234, 212.7804
276.5055, 212.9483
276.9876, 213.3255
277.4698, 213.4948
277.9519, 213.4897
278.4340, 213.4850
278.9161, 213.6813
279.3982, 213.9907
279.8803, 213.9822
280.3625, 213.4327
280.8446, 212.8668
281.3267, 212.5750
281.8088, 212.5060
282.2909, 212.5514
282.7730, 212.7543
283.2552, 213.0226
283.7373, 213.0439
284.2194, 212.7540
284.7015, 212.3172
285.1836, 211.4382
285.6658, 210.5429
286.1479, 210.4155
286.6300, 211.8122
287.1121, 213.7967
287.5942, 213.9653
288.0764, 211.2843
288.5585, 209.2298
289.0406, 209.5379
289.5227, 210.8791
290.0048, 211.9387
290.4869, 212.2547
290.9691, 212.1388
291.4512, 212.1092
291.9333, 212.2036
292.4154, 212.2698
292.8975, 212.3009
293.3796, 212.2734
293.8618, 212.1667
294.3439, 211.9759
294.8260, 211.7044
295.3081, 211.3222
295.7902, 210.7900
296.2723, 210.3372
296.7545, 210.1490
297.2366, 209.9448
297.7187, 209.6178
298.2008, 209.1353
298.6829, 208.4447
299.1650, 207.3460
299.6472, 205.7450
300.1293, 204.5959
300.6114, 204.5446
301.0935, 204.4447
301.5756, 203.6826
302.0577, 202.3917
302.5399, 201.1172
303.0220, 200.3207
303.5041, 199.9817
303.9862, 199.6030
304.4683, 199.1367
304.9504, 198.6877
305.4326, 198.3641
305.9147, 198.0813
306.3968, 197.6485
306.8789, 196.8723
307.3610, 195.9048
307.8431, 195.4343
308.3253, 195.7099
308.8074, 196.1343
309.2895, 196.7663
309.7716, 197.3538
310.2537, 197.4588
310.7358, 196.8153
311.2180, 195.9569
311.7001, 196.2142
312.1822, 198.3515
312.6643, 199.9062
313.1464, 200.2512
313.6285, 200.0001
314.1107, 199.4440
314.5928, 198.6951
315.0749, 198.0882
315.5570, 198.1756
316.0391, 199.1600
316.5212, 200.1003
317.0034, 201.2436
317.4855, 202.0616
317.9676, 202.1739
318.4497, 201.5938
318.9318, 200.6619
319.4139, 199.6052
319.8961, 198.3864
320.3782, 197.4289
320.8603, 196.7460
321.3424, 196.3598
321.8245, 196.4456
322.3066, 196.8493
322.7888, 197.2197
323.2709, 197.2895
323.7530, 197.1018
324.2351, 196.9790
324.7172, 197.0179
325.1993, 196.9819
325.6815, 196.4791
326.1636, 195.9432
326.6457, 196.0381
327.1278, 197.1693
327.6099, 198.9012
328.0920, 200.2070
328.5742, 200.9985
329.0563, 201.5229
329.5384, 201.7999
330.0205, 201.8963
330.5026, 201.8145
330.9847, 201.5572
331.4669, 201.2589
331.9490, 201.1516
332.4311, 201.3203
332.9132, 201.3072
333.3953, 201.0519
333.8774, 200.5822
334.3596, 199.8330
334.8417, 198.8348
335.3238, 197.7596
335.8059, 196.7075
336.2880, 195.6735
336.7701, 194.8473
337.2523, 194.1707
337.7344, 193.8139
338.2165, 194.1790
338.6986, 194.9148
339.1807, 195.2205
339.6628, 194.4955
340.1450, 192.9924
340.6271, 191.6231
341.1092, 190.3580
341.5913, 189.3055
342.0735, 188.4249
342.5556, 187.7731
343.0377, 187.4566
343.5198, 187.5489
344.0019, 187.8884
344.4840, 188.1977
344.9662, 188.4312
345.4483, 188.8436
345.9304, 189.5406
346.4125, 190.4454
346.8946, 191.6000
347.3767, 193.0128
347.8589, 194.4164
348.3410, 195.4196
348.8231, 196.0453
349.3052, 197.0813
349.7873, 198.8577
350.2694, 200.8514
350.7516, 202.5306
351.2337, 204.0344
351.7158, 205.9335
352.1979, 208.7997
352.6800, 212.3513
353.1621, 215.6115
353.6443, 218.4355
354.1264, 221.2642
354.6085, 224.6956
355.0906, 228.2567
355.5727, 231.0319
356.0548, 232.2007
356.5370, 233.0867
357.0191, 235.5889
357.5012, 239.8172
357.9833, 244.2886
358.4654, 248.6624
358.9475, 252.7944
359.4297, 256.4565
359.9118, 259.5790
360.3939, 262.5194
360.8760, 265.3136
361.3581, 268.0632
361.8402, 271.4207
362.3224, 275.7259
362.8045, 280.3609
363.2866, 284.8665
363.7687, 289.2195
364.2508, 293.0428
364.7329, 295.6285
365.2151, 297.7752
365.6972, 301.1364
366.1793, 306.1140
366.6614, 310.7580
367.1435, 313.2305
367.6256, 314.1720
368.1078, 315.5809
368.5899, 318.5450
369.0720, 321.3821
369.5541, 322.4438
370.0362, 321.9789
370.5183, 321.6910
371.0005, 322.6154
371.4826, 323.9676
371.9647, 324.1265
372.4468, 323.2452
372.9289, 321.0551
373.4110, 316.9752
373.8932, 311.5931
374.3753, 305.9802
374.8574, 300.4017
375.3395, 294.7360
375.8216, 288.8522
376.3037, 282.7361
376.7859, 276.5607
377.2680, 269.8486
377.7501, 263.4107
378.2322, 257.8906
378.7143, 253.3248
379.1964, 249.5377
379.6786, 246.5340
380.1607, 244.2307
380.6428, 241.5233
381.1249, 238.0152
381.6070, 234.6266
382.0891, 231.5277
382.5713, 228.7841
383.0534, 226.4254
383.5355, 224.4277
384.0176, 222.9995
384.4997, 222.6169
384.9818, 224.1847
385.4640, 225.3782
385.9461, 225.8887
386.4282, 226.1680
386.9103, 226.5066
387.3924, 226.9900
387.8745, 227.6601
388.3567, 228.5290
388.8388, 229.5540
389.3209, 231.1297
389.8030, 233.6816
390.2851, 236.2654
390.7672, 238.2933
391.2494, 240.0946
391.7315, 242.4532
392.2136, 245.8734
392.6957, 249.9925
393.1778, 253.3402
393.6599, 255.1847
394.1421, 257.2567
394.6242, 259.8925
395.1063, 262.7167
395.5884, 265.3800
396.0706, 267.8019
396.5527, 270.0809
397.0348, 272.5342
397.5169, 275.4801
397.9990, 277.2645
398.4811, 277.0590
398.9633, 276.3876
399.4454, 275.9370
399.9275, 275.5214
400.4096, 274.5309
400.8917, 272.4945
401.3738, 269.5911
401.8560, 266.5214
402.3381, 263.0727
402.8202, 259.8853
403.3023, 257.2638
403.7844, 254.9001
404.2665, 252.5298
404.7487, 250.0876
405.2308, 247.4902
405.7129, 244.3601
406.1950, 240.5964
406.6771, 237.8561
407.1592, 236.9250
407.6414, 236.6751
408.1235, 236.3079
408.6056, 235.8477
409.0877, 235.5555
409.5698, 235.5696
410.0519, 235.8580
410.5341, 236.2747
411.0162, 236.7217
411.4983, 237.6615
411.9804, 239.7250
412.4625, 242.3981
412.9446, 244.8362
413.4268, 246.8725
413.9089, 248.7038
414.3910, 250.5397
414.8731, 252.3202
415.3552, 253.7933
415.8373, 254.9520
416.3195, 255.6394
416.8016, 255.4412
417.2837, 254.3401
417.7658, 253.2873
418.2479, 252.4578
418.7300, 251.8478
419.2122, 251.4108
419.6943, 251.1496
420.1764, 251.1779
420.6585, 251.5418
421.1406, 252.2888
421.6227, 253.6095
422.1049, 255.9948
422.5870, 258.3668
423.0691, 260.3213
423.5512, 261.9640
424.0333, 263.5514
424.5154, 265.1839
424.9976, 266.6912
425.4797, 267.6852
425.9618, 267.4799
426.4439, 268.1940
426.9260, 270.6052
427.4081, 273.3051
427.8903, 275.5432
428.3724, 277.1552
428.8545, 278.1798
429.3366, 278.7160
429.8187, 278.7308
430.3008, 277.4801
430.7830, 274.0165
431.2651, 270.2140
431.7472, 266.4142
432.2293, 262.4053
432.7114, 257.8188
433.1935, 252.5422
433.6757, 247.0551
434.1578, 242.3052
434.6399, 238.6757
435.1220, 234.4589
435.6041, 229.0849
436.0862, 223.4833
436.5684, 217.6594
437.0505, 211.9243
437.5326, 207.0193
438.0147, 203.6847
438.4968, 201.5287
438.9789, 199.2657
439.4611, 197.0280
439.9432, 194.3472
440.4253, 190.4407
440.9074, 186.2404
441.3895, 182.6765
441.8716, 179.9260
442.3538, 177.8317
442.8359, 176.4648
443.3180, 175.7148
443.8001, 175.0644
444.2822, 174.5951
444.7643, 173.8607
445.2465, 171.9370
445.7286, 169.1713
446.2107, 167.3669
446.6928, 167.7560
447.1749, 168.8252
447.6570, 169.0171
448.1392, 168.3831
448.6213, 167.7854
449.1034, 167.7171
449.5855, 167.9501
450.0677, 167.8016
450.5498, 166.9897
451.0319, 166.4542
451.5140, 166.5475
451.9961, 166.9938
452.4782, 167.4456
452.9604, 167.8419
453.4425, 168.3935
453.9246, 169.4128
454.4067, 171.0177
454.8888, 171.7761
455.3709, 170.9529
455.8531, 170.2372
456.3352, 170.2669
456.8173, 170.8156
457.2994, 171.4168
457.7815, 171.8528
458.2636, 172.3206
458.7458, 173.3320
459.2279, 175.5171
459.7100, 176.9040
460.1921, 177.0471
460.6742, 176.8202
461.1563, 176.4976
461.6385, 176.2342
462.1206, 176.3053
462.6027, 177.0602
463.0848, 178.2961
463.5669, 178.9465
464.0490, 178.8481
464.5312, 178.4654
465.0133, 177.5915
465.4954, 176.7131
465.9775, 176.4688
466.4596, 177.0525
466.9417, 177.5889
467.4239, 176.9425
467.9060, 175.3695
468.3881, 174.7447
468.8702, 175.7978
469.3523, 176.9371
469.8344, 176.5292
470.3166, 175.0874
470.7987, 174.0771
471.2808, 174.1748
471.7629, 174.6119
472.2450, 174.7121
472.7271, 174.5428
473.2093, 174.4147
473.6914, 174.4093
474.1735, 174.6010
474.6556, 175.2289
475.1377, 176.4688
475.6198, 177.4791
476.1020, 178.0311
476.5841, 178.3749
477.0662, 178.8092
477.5483, 179.2989
478.0304, 179.4649
478.5125, 178.9378
478.9947, 177.8490
479.4768, 177.3874
479.9589, 178.2624
480.4410, 178.8979
480.9231, 178.8897
481.4052, 178.6507
481.8874, 178.6575
482.3695, 179.0024
482.8516, 179.3560
483.3337, 179.2059
483.8158, 178.4171
484.2979, 178.2982
484.7801, 179.5841
485.2622, 180.7273
485.7443, 180.9604
486.2264, 180.7543
486.7085, 180.9075
487.1906, 181.7967
487.6728, 183.0128
488.1549, 183.9431
488.6370, 184.5598
489.1191, 185.3671
489.6012, 186.5976
490.0833, 187.9261
490.5655, 189.1975
491.0476, 190.3721
491.5297, 191.1479
492.0118, 191.4293
492.4939, 191.2359
492.9760, 190.4276
493.4582, 189.0363
493.9403, 187.7074
494.4224, 186.9001
494.9045, 186.2447
495.3866, 184.8051
495.8687, 182.5394
496.3509, 179.7979
496.8330, 175.9347
497.3151, 172.0408
497.7972, 169.4185
498.2793, 168.1305
498.7614, 167.2516
499.2436, 165.9800
499.7257, 164.3696
500.2078, 163.3453
500.6899, 163.5944
501.1720, 163.5979
501.6541, 162.8914
502.1363, 161.9305
502.6184, 161.1807
503.1005, 160.7760
503.5826, 160.5922
504.0647, 160.4908
504.5468, 160.4708
505.0290, 160.5552
505.5111, 160.8598
505.9932, 161.1286
506.4753, 161.2319
506.9575, 161.2442
507.4396, 161.2761
507.9217, 161.3587
508.4038, 161.5027
508.8859, 161.8427
509.3680, 162.3493
509.8502, 162.4474
510.3323, 161.8542
510.8144, 161.0683
511.2965, 160.5710
511.7786, 160.3168
512.2607, 160.0726
512.7429, 159.8228
513.2250, 159.5273
513.7071, 159.0697
514.1892, 158.5118
514.6713, 158.0879
515.1534, 157.8915
515.6356, 157.9107
516.1177, 158.1268
516.5998, 158.5924
517.0819, 159.1689
517.5640, 159.8187
518.0461, 160.6082
518.5283, 161.7255
519.0104, 163.0464
519.4925, 164.1373
519.9746, 164.6657
520.4567, 164.8859
520.9388, 165.8597
521.4210, 168.5505
521.9031, 170.1543
522.3852, 169.3977
522.8673, 168.3053
523.3494, 168.5405
523.8315, 170.0070
524.3137, 171.2315
524.7958, 170.8935
525.2779, 169.4433
525.7600, 168.4676
526.2421, 168.0676
526.7242, 167.7786
527.2064, 167.6599
527.6885, 167.3896
528.1706, 166.4483
528.6527, 164.6620
529.1348, 162.9958
529.6169, 162.0510
530.0991, 161.4998
530.5812, 160.7273
531.0633, 159.6663
531.5454, 158.8124
532.0275, 158.5563
532.5096, 158.8228
532.9918, 159.0981
533.4739, 159.5010
533.9560, 159.7605
534.4381, 159.3115
534.9202, 158.9614
535.4023, 159.6920
535.8845, 161.6151
536.3666, 164.0395
536.8487, 166.2546
537.3308, 168.2653
537.8129, 170.6384
538.2950, 173.3982
538.7772, 176.5395
539.2593, 180.3661
539.7414, 184.3867
540.2235, 188.0618
540.7056, 191.2486
541.1877, 194.2778
541.6699, 197.5618
542.1520, 201.0174
542.6341, 204.0484
543.1162, 206.4402
543.5983, 208.8148
544.0804, 211.5771
544.5626, 214.5860
545.0447, 217.6325
545.5268, 220.8280
546.0089, 223.7787
546.4910, 225.9033
546.9731, 227.7177
547.4553, 230.4028
547.9374, 234.2424
548.4195, 238.0427
548.9016, 240.5450
549.3837, 241.7139
549.8658, 243.7169
550.3480, 247.1840
550.8301, 250.5869
551.3122, 253.4514
551.7943, 256.0358
552.2764, 258.8726
552.7585, 262.0122
553.2407, 264.7437
553.7228, 266.1302
554.2049, 266.1109
554.6870, 265.8648
555.1691, 265.5480
555.6512, 264.7436
556.1334, 263.4543
556.6155, 261.6007
557.0976, 259.0431
557.5797, 255.7236
558.0618, 251.8599
558.5439, 247.3591
559.0261, 242.4471
559.5082, 237.9569
559.9903, 234.1062
560.4724, 230.2895
560.9545, 225.9876
561.4366, 221.3293
561.9188, 216.9204
562.4009, 212.5831
562.8830, 208.7528
563.3651, 205.6896
563.8472, 203.1756
564.3293, 200.9251
564.8115, 198.8698
565.2936, 197.0324
565.7757, 195.3813
566.2578, 193.9092
566.7399, 193.2841
567.2220, 194.5773
567.7042, 195.4493
568.1863, 195.3162
568.6684, 194.6871
569.1505, 193.8588
569.6326, 192.9915
570.1147, 192.5606
570.5969, 193.2532
571.0790, 194.8744
571.5611, 196.2480
572.0432, 197.4159
572.5253, 198.1636
573.0074, 198.1573
573.4896, 197.7456
573.9717, 197.5235
574.4538, 197.6986
574.9359, 197.4673
575.4180, 196.2743
575.9001, 194.5309
576.3823, 192.7916
576.8644, 191.1129
577.3465, 189.3440
577.8286, 187.3953
578.3107, 185.2532
578.7928, 182.8481
579.2750, 179.6786
579.7571, 176.9010
580.2392, 174.7215
580.7213, 172.8602
581.2034, 171.2090
581.6855, 169.6836
582.1677, 168.0386
582.6498, 165.9854
583.1319, 163.7947
583.6140, 162.5826
584.0961, 162.7166
584.5782, 162.5347
585.0604, 161.0344
585.5425, 159.4776
586.0246, 158.9799
586.5067, 159.5113
586.9889, 160.2467
587.4710, 160.9928
587.9531, 161.6500
588.4352, 162.2476
588.9174, 162.7072
589.3995, 162.4308
589.8816, 160.9579
590.3637, 159.2264
590.8458, 158.9201
591.3279, 160.7310
591.8101, 162.0705
592.2922, 162.5606
592.7743, 162.9607
593.2564, 163.5638
593.7385, 164.3944
594.2206, 165.4716
594.7028, 166.8018
595.1849, 168.2264
595.6670, 169.4588
596.1491, 170.4681
596.6312, 171.4750
597.1133, 172.2251
597.5955, 173.3655
598.0776, 175.4456
598.5597, 178.0811
599.0418, 180.5932
599.5239, 182.9353
600.0060, 184.8412
600.4882, 186.2274
600.9703, 187.0062
601.4524, 186.8772
601.9345, 185.7665
602.4166, 184.1242
602.8987, 182.2766
603.3809, 180.2337
603.8630, 178.2608
604.3451, 176.7381
604.8272, 174.7772
605.3093, 171.7622
605.7914, 168.5120
606.2736, 165.7582
606.7557, 163.6240
607.2378, 161.8412
607.7199, 160.1877
608.2020, 158.6809
608.6841, 157.3678
609.1663, 156.1195
609.6484, 155.4401
610.1305, 155.6594
610.6126, 156.4121
611.0947, 157.5604
611.5768, 159.0605
612.0590, 160.3841
612.5411, 160.8943
613.0232, 161.4104
613.5053, 163.0947
613.9874, 165.7076
614.4695, 167.9314
614.9517, 169.1355
615.4338, 170.1360
615.9159, 172.3507
616.3980, 176.2593
616.8801, 179.7393
617.3622, 182.6803
617.8444, 185.3970
618.3265, 187.9230
618.8086, 190.3524
619.2907, 192.8794
619.7728, 195.5762
620.2549, 198.0398
620.7371, 199.3314
621.2192, 199.5466
621.7013, 201.3507
622.1834, 205.4601
622.6655, 209.8173
623.1476, 213.3116
623.6298, 216.2574
624.1119, 219.0889
624.5940, 221.8093
625.0761, 224.5439
625.5582, 227.4380
626.0403, 230.3092
626.5225, 232.9116
627.0046, 235.2393
627.4867, 237.3687
627.9688, 239.3658
628.4509, 241.2282
628.9330, 243.0509
629.4152, 245.4919
629.8973, 246.6241
630.3794, 246.1892
630.8615, 244.8157
631.3436, 242.6891
631.8257, 239.9235
632.3079, 236.6466
632.7900, 232.8420
633.2721, 228.7116
633.7542, 224.4936
634.2363, 220.1904
634.7184, 215.8564
635.2006, 211.4494
635.6827, 207.1763
636.1648, 203.2974
636.6469, 199.7728
637.1290, 196.2514
637.6111, 192.6472
638.0933, 189.1634
638.5754, 185.9679
639.0575, 182.9046
639.5396, 179.7528
640.0217, 176.5076
640.5038, 173.3255
640.9860, 170.2846
641.4681, 167.4129
641.9502, 164.8054
642.4323, 162.5221
642.9144, 160.3535
643.3965, 158.2150
643.8787, 156.2062
644.3608, 154.2959
644.8429, 152.5481
645.3250, 151.2505
645.8071, 150.9653
646.2892, 150.7717
646.7714, 149.5084
647.2535, 147.5354
647.7356, 146.0822
648.2177, 145.5352
648.6998, 145.2789
649.1819, 144.6251
649.6641, 143.5410
650.1462, 142.7179
650.6283, 142.4524
651.1104, 142.0611
651.5925, 141.3853
652.0746, 140.5345
652.5568, 139.4653
653.0389, 138.2681
653.5210, 137.3974
654.0031, 137.4201
654.4852, 137.9487
654.9673, 137.7721
655.4495, 136.8022
655.9316, 136.1288
656.4137, 136.1941
656.8958, 136.6208
657.3779, 137.1116
657.8600, 137.6760
658.3422, 137.6457
658.8243, 136.0751
659.3064, 134.7699
659.7885, 134.9547
660.2706, 136.0001
660.7527, 136.9582
661.2349, 137.5031
661.7170, 137.6409
662.1991, 137.2753
662.6812, 136.4413
663.1633, 136.0195
663.6454, 136.3190
664.1276, 136.4124
664.6097, 135.6344
665.0918, 134.7575
665.5739, 134.5178
666.0560, 134.9416
666.5381, 135.3996
667.0203, 135.6232
667.5024, 135.7302
667.9845, 135.7624
668.4666, 135.7764
668.9487, 136.0147
669.4308, 136.5834
669.9130, 137.1697
670.3951, 137.3521
670.8772, 137.0860
671.3593, 136.7840
671.8414, 136.1974
672.3235, 135.8778
672.8057, 136.2823
673.2878, 136.8160
673.7699, 136.7735
674.2520, 136.0865
674.7341, 135.3895
675.2162, 135.3951
675.6984, 135.6373
676.1805, 134.8240
676.6626, 133.0175
677.1447, 132.2339
677.6268, 133.5711
678.1089, 135.4292
678.5911, 135.5184
679.0732, 133.4287
679.5553, 131.7626
680.0374, 130.3302
680.5195, 129.5134
681.0016, 130.0889
681.4838, 131.0589
681.9659, 131.0064
682.4480, 129.7222
682.9301, 128.4048
683.4122, 128.2892
683.8943, 129.0346
684.3765, 129.1530
684.8586, 128.4792
685.3407, 128.2154
685.8228, 129.1038
686.3049, 130.2045
686.7870, 130.1681
687.2692, 129.0412
687.7513, 128.2276
688.2334, 128.1627
688.7155, 128.2199
689.1976, 128.1015
689.6797, 127.8728
690.1619, 127.6178
690.6440, 127.3750
691.1261, 127.2100
691.6082, 127.1958
692.0903, 127.3174
692.5724, 127.4989
693.0546, 127.8244
693.5367, 127.9526
694.0188, 127.5422
694.5009, 127.1132
694.9830, 127.2569
695.4651, 127.8828
695.9473, 128.2291
696.4294, 127.8211
696.9116, 127.3168
697.3937, 127.1496
697.8758, 127.2107
698.3579, 127.3680
698.8400, 127.5600
699.3221, 127.5997
699.8043, 127.2838
700.2864, 126.6640
700.7685, 126.0927
701.2506, 125.3673
701.7327, 125.1205
702.2148, 125.9721
702.6970, 126.9372
703.1791, 127.4410
703.6612, 127.5053
704.1433, 127.3680
704.6254, 127.0838
705.1075, 126.6663
705.5897, 125.8803
706.0718, 125.0245
706.5539, 124.8628
707.0360, 125.4940
707.5181, 126.1714
708.0002, 126.2700
708.4824, 125.9277
708.9645, 125.8642
709.4466, 126.3812
709.9287, 126.5984
710.4108, 126.2043
710.8929, 124.6991
711.3751, 125.8344
711.8572, 126.4190
712.3393, 126.4826
712.8214, 124.4645
713.3035, 125.1344
713.7856, 124.7272
714.2678, 124.2757
714.7499, 125.3240
715.2320, 123.6086
715.7141, 124.6332
716.1962, 124.5640
716.6783, 124.9954
717.1605, 124.3428
717.6426, 124.0251
718.1247, 124.7916
718.6068, 124.9577
719.0889, 124.1804
719.5710, 124.6436
720.0532, 122.8904
720.5353, 123.0821
721.0174, 124.1130
721.4995, 123.3902
721.9816, 123.8732
722.4637, 123.8969
722.9459, 121.8336
723.4280, 123.3999
723.9101, 123.3966
724.3922, 121.7815
724.8743, 123.2234
725.3564, 121.8305
725.8386, 121.4495
726.3207, 121.8299
726.8028, 121.4166
727.2849, 122.2548
727.7670, 121.8872
728.2491, 121.4120
728.7313, 121.4068
729.2134, 120.9681
729.6955, 121.2037
730.1776, 120.6496
730.6597, 120.9347
731.1418, 121.4100
731.6240, 120.4289
732.1061, 120.9897
732.5882, 119.1593
733.0703, 119.3297
733.5524, 119.2847
734.0345, 120.5185
734.5167, 118.6998
734.9988, 118.8146
735.4809, 119.5439
735.9630, 118.8063
736.4451, 118.1608
736.9272, 118.4221
737.4094, 119.4569
737.8915, 120.3367
738.3736, 120.5164
738.8557, 120.4183
739.3378, 120.5743
739.8199, 120.8410
740.3021, 120.6819
740.7842, 119.9940
741.2663, 119.3535
741.7484, 119.2311
742.2305, 119.5289
742.7126, 119.7814
743.1948, 120.0494
743.6769, 120.1553
744.1590, 119.8457
744.6411, 119.6199
745.1232, 119.9157
745.6053, 120.4576
746.0875, 120.5699
746.5696, 119.8903
747.0517, 119.4134
747.5338, 120.2808
748.0159, 121.6941
748.4980, 122.1293
748.9802, 121.6286
749.4623, 121.3953
749.9444, 122.0737
750.4265, 123.1788
750.9086, 123.7896
751.3907, 123.7477
751.8729, 123.9730
752.3550, 124.7572
752.8371, 125.4277
753.3192, 125.7160
753.8013, 125.8235
754.2834, 125.9540
754.7656, 126.1342
755.2477, 126.3219
755.7298, 126.6725
756.2119, 126.8734
756.6940, 126.2663
757.1761, 125.3168
757.6583, 125.3566
758.1404, 126.6821
758.6225, 128.0215
759.1046, 128.0240
759.5867, 126.9678
760.0688, 126.8647
760.5510, 128.2225
761.0331, 129.1772
761.5152, 129.0844
761.9973, 128.7884
762.4794, 128.9782
762.9615, 129.4725
763.4437, 129.6522
763.9258, 129.1744
764.4079, 128.7533
764.8900, 128.7147
765.3721, 128.9258
765.8542, 129.3358
766.3364, 129.8590
766.8185, 130.3100
767.3006, 130.5930
767.7827, 130.6797
768.2648, 130.4256
768.7469, 129.8085
769.2291, 129.4384
769.7112, 129.3069
770.1933, 129.5309
770.6754, 130.4813
771.1575, 131.6165
771.6396, 131.9210
772.1218, 131.2518
772.6039, 130.8735
773.0860, 131.4310
773.5681, 131.8515
774.0502, 131.2345
774.5323, 130.2811
775.0145, 130.1565
775.4966, 130.9874
775.9787, 131.7538
776.4608, 131.5542
776.9429, 130.7549
777.4250, 130.1854
777.9072, 129.8438
778.3893, 129.6002
778.8714, 129.4332
779.3535, 129.3204
779.8356, 129.2167
780.3177, 129.1469
780.7999, 129.2815
781.2820, 130.0045
781.7641, 130.3714
782.2462, 130.2270
782.7283, 129.8157
783.2104, 128.9963
783.6926, 128.0894
784.1747, 127.8239
784.6568, 128.5367
785.1389, 129.1249
785.6210, 128.2674
786.1031, 126.7289
786.5853, 126.1128
787.0674, 126.3768
787.5495, 126.4861
788.0316, 125.9888
788.5137, 125.2048
788.9958, 124.5637
789.4780, 124.0648
789.9601, 123.7369
790.4422, 123.7451
790.9243, 123.6595
791.4064, 123.3554
791.8885, 122.9415
792.3707, 122.4196
792.8528, 121.8406
793.3349, 121.4386
793.8170, 121.5718
794.2991, 121.5247
794.7813, 120.6575
795.2634, 119.4405
795.7455, 118.4982
796.2276, 117.8899
796.7097, 117.3905
797.1918, 116.8621
797.6740, 116.3549
798.1561, 115.9855
798.6382, 115.7599
799.1203, 115.4924
799.6024, 115.1684
800.0845, 114.8037
800.5667, 114.3812
801.0488, 113.9359
801.5309, 113.5359
802.0130, 113.1813
802.4951, 112.8361
802.9772, 112.2964
803.4594, 111.9925
803.9415, 112.4309
804.4236, 113.0223
804.9057, 113.0083
805.3878, 112.3408
805.8699, 111.5701
806.3521, 111.0255
806.8342, 110.6382
807.3163, 110.3677
807.7985, 110.1763
808.2806, 109.8306
808.7627, 109.2837
809.2448, 108.9527
809.7269, 109.1980
810.2090, 109.7740
810.6912, 109.8894
811.1733, 109.2186
811.6554, 108.8681
812.1375, 109.2257
812.6196, 109.4600
813.1017, 109.0697
813.5839, 108.4676
814.0660, 108.2828
814.5481, 108.6158
815.0302, 108.7560
815.5123, 108.1550
815.9944, 107.4794
816.4766, 107.2812
816.9587, 107.3874
817.4408, 107.5308
817.9229, 107.6135
818.4050, 107.5234
818.8871, 107.1291
819.3693, 106.5666
819.8514, 106.1183
820.3335, 105.7732
820.8156, 105.9711
821.2977, 107.0316
821.7798, 107.8487
822.2620, 107.5481
822.7441, 106.5258
823.2262, 105.9431
823.7083, 105.9552
824.1904, 106.0412
824.6725, 106.4001
825.1547, 106.5958
825.6368, 106.2888
826.1189, 105.7715
826.6010, 105.4202
827.0831, 105.3066
827.5652, 105.2819
828.0474, 105.2771
828.5295, 105.2883
829.0116, 105.3169
829.4937, 105.3573
829.9758, 105.4133
830.4579, 105.4790
830.9401, 105.4620
831.4222, 105.2645
831.9043, 105.0033
832.3864, 105.0836
832.8685, 105.6160
833.3506, 105.9253
833.8328, 105.8943
834.3149, 105.7578
834.7970, 105.5966
835.2791, 105.4286
835.7612, 105.2957
836.2433, 105.2114
836.7255, 105.0867
837.2076, 104.6389
837.6897, 104.4515
838.1718, 105.1313
838.6539, 106.0443
839.1360, 106.4693
839.6182, 106.2896
840.1003, 105.7168
840.5824, 104.7219
841.0645, 103.6903
841.5466, 103.0359
842.0287, 102.7870
842.5109, 103.2524
842.9930, 104.4194
843.4751, 105.3390
843.9572, 105.4001
844.4393, 104.9753
844.9214, 104.8503
845.4036, 105.0901
845.8857, 105.2887
846.3678, 105.3647
846.8499, 105.5514
847.3320, 106.2898
847.8141, 106.9216
848.2963, 106.4934
848.7784, 105.0810
849.2605, 104.3155
849.7426, 105.2731
850.2247, 105.9714
850.7068, 105.1906
851.1890, 104.0940
851.6711, 103.9398
852.1532, 104.5957
852.6353, 105.1792
853.1174, 105.2620
853.5995, 105.1630
854.0817, 105.2435
854.5638, 105.4284
855.0459, 105.5189
855.5280, 105.5093
856.0101, 105.4730
856.4922, 105.4420
856.9744, 105.3527
857.4565, 105.0555
857.9386, 104.5772
858.4207, 104.8266
858.9028, 106.4694
859.3849, 107.1871
859.8671, 105.6924
860.3492, 104.0661
860.8313, 104.0975
861.3134, 105.1754
861.7955, 105.5878
862.2776, 104.7602
862.7598, 104.2408
863.2419, 104.8135
863.7240, 105.4444
864.2061, 105.2339
864.6882, 104.6645
865.1703, 104.7085
865.6525, 105.5580
866.1346, 106.3835
866.6167, 106.5769
867.0988, 106.3269
867.5809, 105.6808
868.0630, 104.8379
868.5452, 104.6230
869.0273, 105.1618
869.5094, 105.6381
869.9915, 105.4347
870.4736, 104.8300
870.9557, 104.5385
871.4379, 104.5992
871.9200, 104.7717
872.4021, 105.1546
872.8842, 105.3954
873.3663, 105.1488
873.8484, 104.8219
874.3306, 105.2440
874.8127, 106.4782
875.2948, 106.8079
875.7769, 105.1754
876.2590, 103.8543
876.7411, 103.7149
877.2233, 103.9818
877.7054, 103.9324
878.1875, 103.6749
878.6696, 103.8021
879.1517, 104.6589
879.6339, 105.4229
880.1160, 105.1835
880.5981, 104.6133
881.0802, 104.8625
881.5623, 105.6570
882.0444, 105.7455
882.5266, 104.7515
883.0087, 103.7279
883.4908, 103.8533
883.9729, 104.7827
884.4550, 105.1281
884.9371, 104.8566
885.4193, 104.5103
885.9014, 104.1189
886.3835, 103.9200
886.8656, 104.1432
887.3477, 104.6291
887.8298, 104.9559
888.3120, 105.1454
888.7941, 105.1115
889.2762, 104.7007
889.7583, 104.2546
890.2404, 103.8468
890.7225, 103.4722
891.2047, 102.9948
891.6868, 102.4810
892.1689, 102.4265
892.6510, 103.2230
893.1331, 104.2033
893.6152, 105.4189
894.0974, 106.3700
894.5795, 106.2869
895.0616, 105.4661
895.5437, 104.8684
896.0258, 104.8865
896.5079, 105.0202
896.9901, 104.5406
897.4722, 103.8476
897.9543, 104.1148
898.4364, 105.1303
898.9185, 105.4751
899.4006, 104.7477
899.8828, 104.0546
900.3649, 104.4391
900.8470, 105.4972
901.3291, 105.6700
901.8112, 104.6935
902.2933, 104.1670
902.7755, 104.3883
903.2576, 104.6698
903.7397, 104.7339
904.2218, 104.6100
904.7039, 104.2596
905.1860, 103.6094
905.6682, 103.3239
906.1503, 103.8101
906.6324, 104.1412
907.1145, 103.8394
907.5966, 103.5133
908.0787, 103.6603
908.5609, 104.2129
909.0430, 104.8556
909.5251, 105.4818
910.0072, 106.2210
910.4893, 107.3480
910.9714, 108.4562
911.4536, 109.1720
911.9357, 109.5368
912.4178, 109.5689
912.8999, 109.3460
913.3820, 109.2765
913.8641, 109.7746
914.3463, 110.4935
914.8284, 110.6488
915.3105, 110.4243
915.7926, 110.8415
916.2748, 112.0037
916.7569, 112.7107
917.2390, 112.2173
917.7211, 111.3850
918.2032, 111.7183
918.6854, 113.2702
919.1675, 114.5328
919.6496, 115.4668
920.1317, 116.2089
920.6138, 116.7266
921.0959, 117.1636
921.5781, 117.5035
922.0602, 117.8549
922.5423, 118.7814
923.0244, 120.7960
923.5065, 122.4133
923.9886, 123.1651
924.4708, 123.9749
924.9529, 125.1875
925.4350, 126.7256
925.9171, 128.5473
926.3992, 130.6058
926.8813, 132.6282
927.3635, 134.4793
927.8456, 136.2989
928.3277, 138.0265
928.8098, 139.8642
929.2919, 142.0922
929.7740, 144.6367
930.2562, 147.3437
930.7383, 150.1333
931.2204, 152.7916
931.7025, 154.7014
932.1846, 156.5520
932.6667, 160.0401
933.1489, 164.6390
933.6310, 168.2357
934.1131, 170.3885
934.5952, 172.0237
935.0773, 173.7520
935.5594, 175.7334
936.0416, 178.3906
936.5237, 181.7326
937.0058, 185.0309
937.4879, 188.2381
937.9700, 191.5381
938.4521, 195.1319
938.9343, 198.5323
939.4164, 201.0703
939.8985, 204.0503
940.3806, 206.8082
940.8627, 208.7661
941.3448, 211.6435
941.8270, 213.2358
942.3091, 214.5173
942.7912, 216.2410
943.2733, 217.8756
943.7554, 218.3574
944.2375, 217.4319
944.7197, 217.1098
945.2018, 218.6164
945.6839, 219.6507
946.1660, 219.1658
946.6481, 217.9776
947.1302, 216.4620
947.6124, 214.9504
948.0945, 214.1245
948.5766, 214.3138
949.0587, 214.6644
949.5408, 214.6854
950.0229, 214.5769
950.5051, 214.2842
950.9872, 214.1062
951.4693, 214.6263
951.9514, 215.9007
952.4335, 217.4330
952.9156, 218.8632
953.3978, 220.4411
953.8799, 222.5465
954.3620, 225.0797
954.8441, 227.6837
955.3262, 230.4081
955.8083, 233.8557
956.2905, 238.2672
956.7726, 243.0112
957.2547, 247.2637
957.7368, 251.3671
958.2189, 256.9397
958.7010, 264.0226
959.1832, 272.0845
959.6653, 281.2326
960.1474, 290.6863
960.6295, 299.9115
961.1116, 309.4531
961.5938, 320.2238
962.0759, 332.1842
962.5580, 346.0137
963.0401, 362.1564
963.5222, 379.2022
964.0043, 397.2516
964.4865, 415.6259
964.9686, 433.5715
965.4507, 451.3772
965.9328, 469.8748
966.4149, 488.7209
966.8970, 509.0965
967.3792, 532.4735
967.8613, 555.6171
968.3434, 576.8943
968.8255, 597.8113
969.3076, 620.0057
969.7897, 643.3674
970.2719, 666.5469
970.7540, 689.4232
971.2361, 711.7573
971.7182, 733.3951
972.2003, 754.6677
972.6824, 775.4912
973.1646, 796.1633
973.6467, 817.9776
974.1288, 840.6352
974.6109, 861.0657
975.0930, 877.2610
975.5751, 890.8546
976.0573, 904.6485
976.5394, 916.1407
977.0215, 922.0678
977.5036, 922.1834
977.9857, 916.6077
978.4678, 905.5413
978.9500, 890.9368
979.4321, 875.1887
979.9142, 856.7617
980.3963, 831.6891
980.8784, 801.3832
981.3605, 770.6823
981.8427, 740.3528
982.3248, 710.0716
982.8069, 679.5820
983.2890, 649.9490
983.7711, 622.3800
984.2532, 596.8621
984.7354, 572.8271
985.2175, 550.3173
985.6996, 527.5045
986.1817, 503.6127
986.6638, 481.3741
987.1459, 462.9608
987.6281, 447.0968
988.1102, 430.9339
988.5923, 414.1242
989.0744, 399.0341
989.5565, 385.8014
990.0386, 373.8166
990.5208, 363.3058
991.0029, 353.3854
991.4850, 343.2136
991.9671, 333.1561
992.4492, 324.6239
992.9313, 318.5407
993.4135, 311.8179
993.8956, 303.3762
994.3777, 295.7929
994.8598, 289.6224
995.3419, 284.8190
995.8240, 281.8203
996.3062, 280.2967
996.7883, 278.2668
997.2704, 275.3210
997.7525, 272.3240
998.2346, 268.9591
998.7167, 266.0395
999.1989, 263.9662
999.6810, 262.5464
1000.163, 261.9325
1000.645, 261.8930
1001.127, 260.9290
1001.609, 257.6772
1002.092, 254.9014
1002.574, 253.8292
1003.056, 253.5345
1003.538, 253.7047
1004.020, 253.9743
1004.502, 253.8966
1004.984, 253.3855
1005.466, 252.5882
1005.948, 251.2271
1006.431, 250.1180
1006.913, 250.2769
1007.395, 250.7106
1007.877, 250.1421
1008.359, 248.8505
1008.841, 247.8164
1009.323, 247.3127
1009.805, 246.7577
1010.288, 245.7313
1010.770, 244.3975
1011.252, 242.7870
1011.734, 241.0977
1012.216, 239.6709
1012.698, 238.5354
1013.180, 237.6577
1013.662, 237.0110
1014.144, 236.3097
1014.627, 235.2828
1015.109, 233.9874
1015.591, 232.3114
1016.073, 230.4889
1016.555, 229.3348
1017.037, 228.9040
1017.519, 228.7034
1018.001, 228.4889
1018.484, 228.3734
1018.966, 228.7594
1019.448, 227.7023
1019.930, 228.1542
1020.412, 225.6579
1020.894, 223.5540
1021.376, 222.1579
1021.858, 221.0678
1022.340, 220.0350
1022.823, 219.3522
1023.305, 219.7726
1023.787, 221.0490
1024.269, 220.2844
1024.751, 217.2959
1025.233, 216.1654
1025.715, 217.9966
1026.197, 219.5465
1026.680, 218.6927
1027.162, 216.5282
1027.644, 215.1265
1028.126, 214.5159
1028.608, 213.3805
1029.090, 211.6172
1029.572, 209.8752
1030.054, 208.3505
1030.536, 206.6911
1031.019, 204.5990
1031.501, 202.2746
1031.983, 200.1035
1032.465, 198.1042
1032.947, 196.1455
1033.429, 194.0713
1033.911, 192.4306
1034.393, 191.3905
1034.875, 190.7304
1035.358, 190.4502
1035.840, 190.3234
1036.322, 189.7286
1036.804, 188.4049
1037.286, 187.9128
1037.768, 189.1054
1038.250, 189.5767
1038.732, 188.4359
1039.215, 186.8912
1039.697, 185.9818
1040.179, 184.0729
1040.661, 182.0702
1041.143, 180.3081
1041.625, 177.9715
1042.107, 175.4048
1042.589, 173.1671
1043.072, 170.6299
1043.554, 167.8617
1044.036, 164.7865
1044.518, 161.5615
1045.000, 158.5370
1045.482, 155.7135
1045.964, 153.1554
1046.446, 151.0999
1046.928, 149.0099
1047.411, 146.6462
1047.893, 144.3017
1048.375, 142.1760
1048.857, 140.2297
1049.339, 138.3531
1049.821, 136.5226
1050.303, 134.8029
1050.785, 133.0073
1051.267, 131.5798
1051.750, 130.6366
1052.232, 130.1428
1052.714, 130.5643
1053.196, 131.2915
1053.678, 130.8678
1054.160, 128.8686
1054.642, 127.2325
1055.124, 126.5866
1055.607, 126.1446
1056.089, 125.7013
1056.571, 125.2758
1057.053, 124.9063
1057.535, 124.5705
1058.017, 124.2666
1058.499, 124.0217
1058.981, 123.5062
1059.464, 121.8628
1059.946, 120.9178
1060.428, 121.7212
1060.910, 123.2533
1061.392, 125.1880
1061.874, 126.9951
1062.356, 127.6345
1062.838, 126.8551
1063.320, 126.3776
1063.802, 127.3405
1064.285, 128.0530
1064.767, 127.6894
1065.249, 126.8271
1065.731, 125.6918
1066.213, 124.5438
1066.695, 123.7903
1067.177, 123.5078
1067.659, 123.3282
1068.142, 123.2334
1068.624, 123.0476
1069.106, 122.5814
1069.588, 122.0918
1070.070, 121.7048
1070.552, 121.4900
1071.034, 121.5810
1071.516, 121.9805
1071.999, 122.3724
1072.481, 122.6105
1072.963, 122.8311
1073.445, 123.0848
1073.927, 123.3593
1074.409, 123.7268
1074.891, 124.0685
1075.373, 124.0615
1075.855, 123.7358
1076.338, 123.7975
1076.820, 124.7033
1077.302, 125.7686
1077.784, 126.7194
1078.266, 127.6424
1078.748, 128.9815
1079.230, 130.1396
1079.712, 129.6910
1080.194, 127.8941
1080.677, 127.4681
1081.159, 130.4112
1081.641, 132.7733
1082.123, 132.2541
1082.605, 130.9255
1083.087, 130.2319
1083.569, 129.7018
1084.052, 128.3436
1084.534, 126.3186
1085.016, 124.9861
1085.498, 125.1530
1085.980, 125.0145
1086.462, 123.7690
1086.944, 121.9637
1087.426, 119.3753
1087.908, 116.8311
1088.391, 115.4989
1088.873, 115.1103
1089.355, 114.3982
1089.837, 112.9257
1090.319, 111.4477
1090.801, 110.1475
1091.283, 109.0622
1091.765, 108.4458
1092.247, 107.8701
1092.730, 106.5792
1093.212, 105.0037
1093.694, 104.4173
1094.176, 105.2310
1094.658, 106.0699
1095.140, 106.4889
1095.622, 106.7752
1096.104, 107.0814
1096.587, 107.2904
1097.069, 107.0664
1097.551, 106.7395
1098.033, 106.9986
1098.515, 107.9759
1098.997, 109.1288
1099.479, 110.5503
1099.961, 111.7812
1100.443, 112.6107
1100.926, 113.2614
1101.408, 113.7676
1101.890, 114.2558
1102.372, 114.9397
1102.854, 115.8249
1103.336, 116.6040
1103.818, 117.2954
1104.300, 117.7397
1104.782, 117.5668
1105.265, 117.5157
1105.747, 118.0603
1106.229, 118.9063
1106.711, 119.8568
1107.193, 120.8037
1107.675, 121.1843
1108.157, 120.6797
1108.639, 120.0893
1109.122, 119.6237
1109.604, 118.9488
1110.086, 117.8048
1110.568, 116.4942
1111.050, 115.3897
1111.532, 114.3759
1112.014, 112.9585
1112.496, 111.0001
1112.979, 108.9562
1113.461, 106.5502
1113.943, 104.4714
1114.425, 103.0554
1114.907, 101.8527
1115.389, 100.6772
1115.871, 99.44630
1116.353, 97.89897
1116.835, 95.91048
1117.318, 94.35545
1117.800, 93.44645
1118.282, 92.59105
1118.764, 91.81941
1119.246, 90.88871
1119.728, 89.44292
1120.210, 87.97659
1120.692, 87.32935
1121.174, 87.47766
1121.657, 87.31629
1122.139, 86.78214
1122.621, 86.06516
1123.103, 84.99871
1123.585, 84.20984
1124.067, 84.04744
1124.549, 84.11051
1125.031, 83.93550
1125.514, 83.61683
1125.996, 83.65756
1126.478, 84.18498
1126.960, 84.37934
1127.442, 84.20280
1127.924, 83.66535
1128.406, 82.61536
1128.888, 81.88562
1129.370, 82.27010
1129.853, 81.49454
1130.335, 81.32083
1130.817, 81.29992
1131.299, 80.81189
1131.781, 81.40217
1132.263, 81.42736
1132.745, 80.52127
1133.227, 79.68539
1133.709, 79.50309
1134.192, 79.64129
1134.674, 79.62765
1135.156, 79.52676
1135.638, 79.69547
1136.120, 80.06371
1136.602, 80.09545
1137.084, 79.73492
1137.566, 79.04458
1138.049, 78.05916
1138.531, 77.10674
1139.013, 76.49455
1139.495, 76.12753
1139.977, 75.80264
1140.459, 75.57621
1140.941, 75.61230
1141.423, 75.89719
1141.906, 76.46680
1142.388, 77.24393
1142.870, 77.75978
1143.352, 77.72923
1143.834, 77.28069
1144.316, 76.09132
1144.798, 74.93822
1145.280, 75.41885
1145.762, 76.67276
1146.245, 76.97923
1146.727, 76.25436
1147.209, 75.13752
1147.691, 73.88472
1148.173, 72.98737
1148.655, 72.87686
1149.137, 73.20426
1149.619, 74.05520
1150.101, 74.86195
1150.584, 74.74688
1151.066, 74.13565
1151.548, 74.06139
1152.030, 74.64629
1152.512, 75.00711
1152.994, 74.67635
1153.476, 74.21613
1153.958, 73.80392
1154.441, 73.46037
1154.923, 73.22144
1155.405, 73.04086
1155.887, 72.69607
1156.369, 72.35458
1156.851, 72.72207
1157.333, 74.23767
1157.815, 75.25349
1158.297, 75.35074
1158.780, 74.98413
1159.262, 73.62935
1159.744, 72.52481
1160.226, 72.66843
1160.708, 73.62553
1161.190, 74.75180
1161.672, 76.08279
1162.154, 76.58631
1162.636, 75.79151
1163.119, 75.02173
1163.601, 74.09129
1164.083, 73.72749
1164.565, 74.62218
1165.047, 75.63008
1165.529, 75.51295
1166.011, 74.52317
1166.493, 73.66022
1166.976, 72.92925
1167.458, 72.20994
1167.940, 71.37675
1168.422, 71.32912
1168.904, 72.47105
1169.386, 73.36955
1169.868, 73.00078
1170.350, 72.13056
1170.833, 72.05550
1171.315, 72.60986
1171.797, 72.77234
1172.279, 72.59570
1172.761, 72.75053
1173.243, 73.27845
1173.725, 73.65649
1174.207, 73.68127
1174.689, 73.43705
1175.172, 72.92830
1175.654, 72.41709
1176.136, 72.49300
1176.618, 72.84726
1177.100, 72.79232
1177.582, 72.38586
1178.064, 71.68551
1178.546, 70.88304
1179.028, 70.81438
1179.511, 71.94619
1179.993, 72.88389
1180.475, 72.01626
1180.957, 70.81980
1181.439, 70.81138
1181.921, 71.29475
1182.403, 71.42039
1182.885, 71.26073
1183.368, 71.10388
1183.850, 71.04843
1184.332, 71.31440
1184.814, 72.37278
1185.296, 73.06818
1185.778, 72.76588
1186.260, 72.14487
1186.742, 71.19675
1187.224, 70.47091
1187.707, 70.82426
1188.189, 71.89040
1188.671, 72.26432
1189.153, 71.59785
1189.635, 71.09046
1190.117, 71.04189
1190.599, 70.78683
1191.081, 69.71088
1191.564, 69.17077
1192.046, 70.23524
1192.528, 71.84599
1193.010, 72.59272
1193.492, 72.54594
1193.974, 72.25559
1194.456, 71.63732
1194.938, 71.23461
1195.421, 71.10036
1195.903, 71.08053
1196.385, 71.17884
1196.867, 70.92680
1197.349, 69.84869
1197.831, 68.76833
1198.313, 69.51782
1198.795, 71.53419
1199.277, 71.87082
1199.760, 70.89928
1200.242, 70.58748
1200.724, 71.07683
1201.206, 71.36989
1201.688, 71.11959
1202.170, 71.04989
1202.652, 71.91549
1203.134, 72.84158
1203.616, 72.59437
1204.099, 71.81421
1204.581, 71.21256
1205.063, 70.88158
1205.545, 71.01872
1206.027, 71.48160
1206.509, 71.73268
1206.991, 71.56560
1207.473, 71.35222
1207.956, 71.37566
1208.438, 71.29123
1208.920, 70.80382
1209.402, 70.25478
1209.884, 69.61630
1210.366, 69.26696
1210.848, 70.03307
1211.330, 71.78459
1211.813, 72.82011
1212.295, 72.81682
1212.777, 72.35334
1213.259, 70.65563
1213.741, 69.84843
1214.223, 71.05472
1214.705, 72.35239
1215.187, 72.36369
1215.669, 71.70747
1216.151, 71.54813
1216.634, 71.83086
1217.116, 71.55212
1217.598, 70.65112
1218.080, 69.93623
1218.562, 69.48072
1219.044, 69.34822
1219.526, 69.56654
1220.008, 69.94260
1220.491, 70.37370
1220.973, 70.59355
1221.455, 69.84432
1221.937, 68.65674
1222.419, 68.40494
1222.901, 68.87241
1223.383, 69.73805
1223.865, 70.67226
1224.348, 70.66108
1224.830, 69.45639
1225.312, 68.53578
1225.794, 69.07483
1226.276, 69.90708
1226.758, 70.22717
1227.240, 70.35662
1227.722, 70.71951
1228.204, 70.96642
1228.687, 70.44749
1229.169, 69.38465
1229.651, 68.59278
1230.133, 68.19270
1230.615, 68.26110
1231.097, 69.54477
1231.579, 70.20689
1232.061, 69.27608
1232.543, 68.44071
1233.026, 68.58581
1233.508, 69.04957
1233.990, 69.08757
1234.472, 68.81995
1234.954, 68.79353
1235.436, 69.10107
1235.918, 68.89597
1236.400, 68.08924
1236.883, 67.77957
1237.365, 68.21114
1237.847, 68.71288
1238.329, 68.93062
1238.811, 69.08887
1239.293, 69.54975
1239.775, 69.93563
1240.257, 69.08081
1240.740, 67.70918
1241.222, 67.58428
1241.704, 68.43035
1242.186, 69.40784
1242.668, 70.20818
1243.150, 70.46581
1243.632, 69.98757
1244.114, 69.44875
1244.596, 69.27940
1245.078, 69.21638
1245.561, 68.89857
1246.043, 68.80880
1246.525, 69.73672
1247.007, 70.93925
1247.489, 71.31015
1247.971, 70.83959
1248.453, 70.13913
1248.935, 68.96971
1249.418, 68.34278
1249.900, 68.64796
1250.382, 68.70341
1250.864, 67.97678
1251.346, 67.65475
1251.828, 68.57545
1252.310, 69.84061
1252.792, 70.25407
1253.275, 70.00636
1253.757, 69.95592
1254.239, 70.04814
1254.721, 69.29256
1255.203, 67.84925
1255.685, 67.58113
1256.167, 68.73960
1256.649, 69.77711
1257.131, 69.89295
1257.614, 69.42338
1258.096, 68.32930
1258.578, 67.29729
1259.060, 67.20775
1259.542, 67.58004
1260.024, 68.08076
1260.506, 68.46249
1260.988, 68.09663
1261.470, 67.25850
1261.953, 67.44473
1262.435, 69.41064
1262.917, 70.68027
1263.399, 70.20103
1263.881, 69.57603
1264.363, 68.97903
1264.845, 68.65232
1265.327, 68.82780
1265.810, 69.20166
1266.292, 69.44678
1266.774, 69.59123
1267.256, 69.78934
1267.738, 70.08127
1268.220, 69.86640
1268.702, 69.11443
1269.184, 68.97945
1269.667, 69.64650
1270.149, 70.14130
1270.631, 70.01697
1271.113, 69.50542
1271.595, 68.68429
1272.077, 67.96612
1272.559, 68.14850
1273.041, 68.68822
1273.523, 68.88242
1274.005, 68.75940
1274.488, 68.27178
1274.970, 67.62492
1275.452, 67.38688
1275.934, 67.71053
1276.416, 67.94514
1276.898, 67.62463
1277.380, 67.52354
1277.862, 68.22692
1278.345, 68.72661
1278.827, 68.16187
1279.309, 67.58482
1279.791, 67.95756
1280.273, 68.84927
1280.755, 69.30854
1281.237, 69.33965
1281.719, 69.32508
1282.202, 69.26711
1282.684, 69.01516
1283.166, 68.55943
1283.648, 68.61437
1284.130, 69.37289
1284.612, 69.79150
1285.094, 69.10158
1285.576, 68.21162
1286.058, 68.41628
1286.541, 68.97376
1287.023, 69.06455
##END=



