##NAMES=Fornacite
##RRUFFID=R060986
##IDEAL CHEMISTRY=Cu^2+^Pb^2+^_2_(Cr^6+^O_4_)(As^5+^O_4_)(OH)
##LOCALITY=Tombstone, Arizona, USA
##OWNER=RRUFF
##SOURCE=Bob Jenkins
##DESCRIPTION=Deep olive-green tabular plates on calcite crystals
##STATUS=The identification of this mineral is confirmed by single-crystal X-ray diffraction and chemical analysis.
##URL=rruff.info/R060986
##MEASURED CHEMISTRY=Cu_1.00_Pb_2.00_(Cr_1.00_O_4_)(As_1.00_O_4_)(OH); OH estimated by difference and charge balance
122.4873, 1792.485
122.9694, 1884.135
123.4515, 1977.793
123.9336, 2072.501
124.4157, 2175.151
124.8979, 2276.538
125.3800, 2363.246
125.8621, 2430.518
126.3442, 2486.465
126.8263, 2540.999
127.3084, 2593.189
127.7905, 2639.466
128.2727, 2673.949
128.7548, 2699.657
129.2369, 2724.375
129.7190, 2750.540
130.2011, 2776.780
130.6832, 2800.503
131.1654, 2821.829
131.6475, 2840.116
132.1296, 2855.989
132.6117, 2869.162
133.0938, 2875.606
133.5759, 2869.790
134.0581, 2854.061
134.5402, 2847.797
135.0223, 2853.201
135.5044, 2862.328
135.9865, 2860.661
136.4686, 2846.254
136.9508, 2836.197
137.4329, 2839.499
137.9150, 2857.394
138.3971, 2876.756
138.8792, 2898.735
139.3613, 2921.102
139.8434, 2937.657
140.3256, 2946.490
140.8077, 2954.708
141.2898, 2967.574
141.7719, 2988.234
142.2540, 3003.927
142.7361, 3013.976
143.2183, 3018.324
143.7004, 3014.241
144.1825, 2993.036
144.6646, 2973.655
145.1467, 2971.800
145.6288, 3002.650
146.1110, 3024.283
146.5931, 3016.350
147.0752, 2952.316
147.5573, 2967.682
148.0394, 2971.293
148.5215, 2963.781
149.0037, 2911.829
149.4858, 2917.261
149.9679, 2899.697
150.4500, 2881.190
150.9321, 2894.699
151.4142, 2849.212
151.8964, 2862.211
152.3785, 2851.865
152.8606, 2821.197
153.3427, 2810.651
153.8248, 2801.619
154.3069, 2789.620
154.7890, 2772.572
155.2712, 2756.473
155.7533, 2742.182
156.2354, 2729.562
156.7175, 2717.932
157.1996, 2708.274
157.6817, 2698.634
158.1639, 2687.403
158.6460, 2668.100
159.1281, 2655.534
159.6102, 2660.542
160.0923, 2677.524
160.5744, 2685.381
161.0566, 2665.856
161.5387, 2639.898
162.0208, 2622.738
162.5029, 2633.168
162.9850, 2639.448
163.4671, 2622.510
163.9493, 2585.362
164.4314, 2555.020
164.9135, 2553.922
165.3956, 2562.780
165.8777, 2561.783
166.3598, 2537.861
166.8420, 2506.723
167.3241, 2475.263
167.8062, 2443.566
168.2883, 2416.814
168.7704, 2401.473
169.2525, 2392.470
169.7346, 2382.080
170.2168, 2363.816
170.6989, 2344.734
171.1810, 2332.352
171.6631, 2328.059
172.1452, 2323.565
172.6273, 2312.093
173.1095, 2295.424
173.5916, 2277.278
174.0737, 2254.524
174.5558, 2233.104
175.0379, 2223.190
175.5201, 2228.768
176.0022, 2235.124
176.4843, 2224.001
176.9664, 2199.761
177.4485, 2177.418
177.9306, 2168.992
178.4128, 2168.057
178.8949, 2162.913
179.3770, 2150.938
179.8591, 2135.606
180.3412, 2120.171
180.8233, 2104.728
181.3055, 2091.053
181.7876, 2079.362
182.2697, 2070.253
182.7518, 2065.859
183.2339, 2069.218
183.7160, 2074.591
184.1982, 2069.073
184.6803, 2052.974
185.1624, 2038.916
185.6445, 2044.214
186.1266, 2062.713
186.6087, 2066.221
187.0908, 2040.478
187.5730, 1998.521
188.0551, 1973.609
188.5372, 1966.272
189.0193, 1967.932
189.5014, 1974.860
189.9835, 1985.959
190.4657, 1989.981
190.9478, 1981.988
191.4299, 1964.345
191.9120, 1944.158
192.3941, 1920.004
192.8762, 1900.123
193.3584, 1898.491
193.8405, 1914.852
194.3226, 1926.034
194.8047, 1921.001
195.2868, 1902.083
195.7689, 1889.616
196.2511, 1884.645
196.7332, 1883.078
197.2153, 1879.547
197.6974, 1873.952
198.1795, 1867.808
198.6616, 1861.395
199.1438, 1854.669
199.6259, 1848.838
200.1080, 1843.813
200.5901, 1839.836
201.0722, 1838.905
201.5543, 1842.217
202.0364, 1841.674
202.5186, 1830.032
203.0007, 1805.174
203.4828, 1792.510
203.9649, 1795.261
204.4470, 1807.033
204.9291, 1816.374
205.4113, 1824.313
205.8934, 1825.982
206.3755, 1815.323
206.8576, 1788.448
207.3397, 1773.396
207.8218, 1774.872
208.3040, 1786.357
208.7861, 1791.922
209.2682, 1791.360
209.7503, 1785.526
210.2324, 1772.065
210.7145, 1747.069
211.1967, 1733.120
211.6788, 1736.011
212.1609, 1749.570
212.6430, 1752.393
213.1251, 1740.681
213.6072, 1726.227
214.0894, 1715.770
214.5715, 1710.063
215.0536, 1706.058
215.5357, 1704.305
216.0178, 1704.008
216.4999, 1701.625
216.9820, 1696.578
217.4642, 1690.279
217.9463, 1683.085
218.4284, 1673.917
218.9105, 1666.874
219.3926, 1662.660
219.8747, 1660.991
220.3569, 1659.996
220.8390, 1659.729
221.3211, 1660.089
221.8032, 1661.726
222.2853, 1666.987
222.7674, 1667.607
223.2496, 1660.383
223.7317, 1646.465
224.2138, 1639.009
224.6959, 1642.144
225.1780, 1646.516
225.6601, 1643.510
226.1423, 1626.268
226.6244, 1617.170
227.1065, 1623.376
227.5886, 1643.937
228.0707, 1653.155
228.5528, 1645.636
229.0350, 1632.631
229.5171, 1624.113
229.9992, 1622.514
230.4813, 1619.957
230.9634, 1613.608
231.4455, 1603.424
231.9276, 1600.395
232.4098, 1607.979
232.8919, 1619.226
233.3740, 1627.653
233.8561, 1632.789
234.3382, 1636.240
234.8203, 1638.886
235.3025, 1640.838
235.7846, 1637.948
236.2667, 1627.507
236.7488, 1614.848
237.2309, 1605.198
237.7130, 1598.913
238.1952, 1595.264
238.6773, 1594.774
239.1594, 1597.674
239.6415, 1600.047
240.1236, 1602.484
240.6057, 1603.919
241.0879, 1602.481
241.5700, 1594.006
242.0521, 1590.500
242.5342, 1596.631
243.0163, 1613.675
243.4984, 1623.250
243.9806, 1621.319
244.4627, 1615.409
244.9448, 1613.793
245.4269, 1619.053
245.9090, 1623.871
246.3911, 1626.907
246.8732, 1628.103
247.3554, 1627.126
247.8375, 1621.246
248.3196, 1615.570
248.8017, 1616.435
249.2838, 1628.244
249.7659, 1638.229
250.2481, 1643.075
250.7302, 1642.268
251.2123, 1643.603
251.6944, 1650.991
252.1765, 1656.979
252.6586, 1651.676
253.1408, 1626.627
253.6229, 1607.377
254.1050, 1600.755
254.5871, 1607.649
255.0692, 1614.134
255.5513, 1619.334
256.0334, 1625.098
256.5156, 1633.465
256.9977, 1644.632
257.4798, 1658.617
257.9619, 1679.094
258.4440, 1707.485
258.9261, 1715.595
259.4083, 1692.767
259.8904, 1661.850
260.3725, 1650.216
260.8546, 1666.064
261.3367, 1681.035
261.8188, 1687.572
262.3010, 1685.333
262.7831, 1688.422
263.2652, 1699.382
263.7473, 1712.293
264.2294, 1720.530
264.7115, 1722.315
265.1937, 1724.173
265.6758, 1727.691
266.1579, 1732.792
266.6400, 1737.300
267.1221, 1740.586
267.6042, 1744.286
268.0864, 1750.619
268.5685, 1760.887
269.0506, 1769.448
269.5327, 1773.865
270.0148, 1774.621
270.4969, 1780.202
270.9791, 1791.388
271.4612, 1805.863
271.9433, 1822.100
272.4254, 1840.937
272.9075, 1857.385
273.3896, 1869.585
273.8718, 1878.011
274.3539, 1887.111
274.8360, 1896.419
275.3181, 1907.793
275.8002, 1924.015
276.2823, 1945.907
276.7645, 1966.557
277.2466, 1984.182
277.7287, 1999.386
278.2108, 2015.290
278.6929, 2031.405
279.1750, 2050.054
279.6572, 2075.648
280.1393, 2108.917
280.6214, 2136.628
281.1035, 2154.200
281.5856, 2164.606
282.0677, 2180.384
282.5499, 2202.474
283.0320, 2225.050
283.5141, 2242.113
283.9962, 2253.755
284.4783, 2267.519
284.9604, 2284.399
285.4425, 2304.777
285.9247, 2331.177
286.4068, 2364.097
286.8889, 2396.555
287.3710, 2421.011
287.8531, 2438.635
288.3352, 2460.006
288.8174, 2486.811
289.2995, 2518.653
289.7816, 2558.014
290.2637, 2604.317
290.7458, 2647.563
291.2279, 2676.699
291.7101, 2695.113
292.1922, 2719.673
292.6743, 2754.893
293.1564, 2793.958
293.6385, 2824.251
294.1206, 2846.177
294.6028, 2867.073
295.0849, 2894.599
295.5670, 2925.326
296.0491, 2948.164
296.5312, 2959.284
297.0133, 2966.986
297.4955, 2980.785
297.9776, 3000.610
298.4597, 3027.242
298.9418, 3068.860
299.4239, 3116.295
299.9060, 3150.458
300.3882, 3166.901
300.8703, 3175.825
301.3524, 3184.251
301.8345, 3193.482
302.3166, 3208.098
302.7987, 3233.105
303.2809, 3263.981
303.7630, 3295.143
304.2451, 3325.557
304.7272, 3356.659
305.2093, 3390.643
305.6914, 3426.323
306.1736, 3459.430
306.6557, 3485.433
307.1378, 3509.880
307.6199, 3538.736
308.1020, 3573.009
308.5841, 3609.026
309.0663, 3641.663
309.5484, 3674.939
310.0305, 3714.401
310.5126, 3767.777
310.9947, 3825.079
311.4768, 3877.275
311.9590, 3923.597
312.4411, 3973.176
312.9232, 4032.195
313.4053, 4097.109
313.8874, 4162.386
314.3695, 4217.176
314.8517, 4280.792
315.3337, 4366.248
315.8159, 4473.057
316.2980, 4584.192
316.7801, 4696.186
317.2622, 4808.443
317.7443, 4921.344
318.2264, 5020.830
318.7086, 5133.400
319.1907, 5272.736
319.6728, 5435.950
320.1549, 5601.231
320.6370, 5760.285
321.1191, 5920.331
321.6013, 6086.869
322.0834, 6256.251
322.5655, 6434.955
323.0476, 6628.657
323.5297, 6833.827
324.0118, 7036.316
324.4940, 7225.272
324.9761, 7417.079
325.4582, 7620.572
325.9403, 7854.126
326.4224, 8074.277
326.9045, 8276.830
327.3867, 8464.706
327.8688, 8645.871
328.3509, 8821.646
328.8330, 8989.724
329.3151, 9150.307
329.7972, 9302.435
330.2794, 9449.949
330.7615, 9595.688
331.2436, 9737.468
331.7257, 9869.798
332.2078, 9997.046
332.6899, 10110.17
333.1721, 10202.38
333.6542, 10265.57
334.1363, 10345.37
334.6184, 10453.38
335.1005, 10568.60
335.5826, 10663.70
336.0648, 10728.79
336.5469, 10797.15
337.0290, 10874.62
337.5111, 10961.51
337.9932, 11067.90
338.4753, 11196.37
338.9575, 11338.17
339.4396, 11485.76
339.9217, 11638.81
340.4038, 11802.89
340.8859, 11987.76
341.3680, 12183.96
341.8502, 12352.89
342.3323, 12487.58
342.8144, 12613.79
343.2965, 12753.38
343.7786, 12907.12
344.2607, 13044.65
344.7429, 13161.60
345.2250, 13262.44
345.7071, 13360.11
346.1892, 13456.22
346.6713, 13536.91
347.1534, 13600.88
347.6355, 13644.58
348.1176, 13655.99
348.5998, 13634.02
349.0819, 13577.33
349.5640, 13478.64
350.0461, 13339.36
350.5282, 13178.28
351.0103, 13008.36
351.4925, 12821.58
351.9746, 12597.02
352.4567, 12331.49
352.9388, 12046.16
353.4209, 11757.85
353.9030, 11465.54
354.3852, 11166.76
354.8673, 10857.08
355.3494, 10543.08
355.8315, 10226.54
356.3136, 9909.408
356.7957, 9603.632
357.2779, 9320.580
357.7600, 9055.316
358.2421, 8805.061
358.7242, 8563.521
359.2063, 8338.351
359.6884, 8134.442
360.1706, 7951.004
360.6527, 7783.601
361.1348, 7635.385
361.6169, 7498.714
362.0990, 7368.820
362.5811, 7237.911
363.0633, 7121.178
363.5454, 7017.258
364.0275, 6930.120
364.5096, 6871.217
364.9917, 6876.641
365.4738, 6885.137
365.9560, 6864.980
366.4381, 6792.100
366.9202, 6736.575
367.4023, 6714.627
367.8844, 6712.751
368.3665, 6708.954
368.8487, 6700.198
369.3308, 6691.517
369.8129, 6681.812
370.2950, 6668.529
370.7771, 6669.702
371.2592, 6704.173
371.7414, 6739.458
372.2235, 6741.224
372.7056, 6691.090
373.1877, 6641.094
373.6698, 6602.132
374.1519, 6572.720
374.6341, 6535.348
375.1162, 6491.977
375.5983, 6437.412
376.0804, 6364.392
376.5625, 6269.315
377.0446, 6177.985
377.5267, 6097.572
378.0089, 6020.595
378.4910, 5927.466
378.9731, 5817.408
379.4552, 5700.124
379.9373, 5580.934
380.4194, 5459.209
380.9016, 5338.155
381.3837, 5215.599
381.8658, 5097.316
382.3479, 4996.130
382.8300, 4909.901
383.3121, 4817.683
383.7943, 4700.615
384.2764, 4573.085
384.7585, 4467.419
385.2406, 4385.165
385.7227, 4314.246
386.2048, 4248.747
386.6870, 4187.397
387.1691, 4126.873
387.6512, 4062.760
388.1333, 4002.725
388.6154, 3959.176
389.0975, 3929.387
389.5797, 3894.557
390.0618, 3832.405
390.5439, 3763.953
391.0260, 3713.450
391.5081, 3695.590
391.9902, 3678.929
392.4724, 3640.411
392.9545, 3589.734
393.4366, 3549.284
393.9187, 3534.508
394.4008, 3527.586
394.8829, 3519.404
395.3651, 3508.682
395.8472, 3498.206
396.3293, 3491.826
396.8114, 3485.047
397.2935, 3472.444
397.7756, 3441.128
398.2578, 3416.004
398.7399, 3406.446
399.2220, 3413.935
399.7041, 3412.004
400.1862, 3394.236
400.6683, 3371.630
401.1505, 3351.209
401.6326, 3331.097
402.1147, 3316.876
402.5968, 3312.474
403.0789, 3313.999
403.5610, 3306.621
404.0432, 3286.176
404.5253, 3265.204
405.0074, 3251.250
405.4895, 3247.046
405.9716, 3235.054
406.4537, 3213.874
406.9359, 3187.114
407.4180, 3158.321
407.9001, 3126.766
408.3822, 3100.577
408.8643, 3084.051
409.3464, 3075.294
409.8285, 3066.293
410.3106, 3057.337
410.7928, 3045.906
411.2749, 3029.822
411.7570, 3009.152
412.2391, 2983.766
412.7212, 2950.556
413.2033, 2916.318
413.6855, 2893.731
414.1676, 2880.731
414.6497, 2865.968
415.1318, 2838.440
415.6139, 2806.413
416.0960, 2781.618
416.5782, 2767.056
417.0603, 2753.696
417.5424, 2734.757
418.0245, 2712.433
418.5066, 2690.701
418.9887, 2671.807
419.4709, 2653.269
419.9530, 2633.351
420.4351, 2612.131
420.9172, 2590.940
421.3993, 2571.723
421.8814, 2552.269
422.3636, 2530.757
422.8457, 2503.844
423.3278, 2478.335
423.8099, 2455.198
424.2920, 2434.331
424.7741, 2416.215
425.2563, 2400.068
425.7384, 2387.348
426.2205, 2379.944
426.7026, 2382.783
427.1847, 2378.130
427.6668, 2362.147
428.1490, 2341.178
428.6311, 2325.722
429.1132, 2319.139
429.5953, 2308.493
430.0774, 2286.828
430.5595, 2255.825
431.0417, 2241.443
431.5238, 2247.923
432.0059, 2258.086
432.4880, 2256.083
432.9701, 2242.229
433.4522, 2227.816
433.9344, 2213.303
434.4165, 2201.049
434.8986, 2198.417
435.3807, 2204.347
435.8628, 2206.771
436.3449, 2194.856
436.8271, 2174.989
437.3092, 2160.399
437.7913, 2152.625
438.2734, 2146.895
438.7555, 2136.968
439.2376, 2126.114
439.7197, 2120.398
440.2018, 2128.313
440.6840, 2137.648
441.1661, 2136.838
441.6482, 2127.505
442.1303, 2122.344
442.6124, 2136.032
443.0945, 2151.470
443.5767, 2154.562
444.0588, 2135.302
444.5409, 2116.348
445.0230, 2102.477
445.5051, 2093.051
445.9872, 2086.896
446.4694, 2084.809
446.9515, 2085.095
447.4336, 2089.152
447.9157, 2099.059
448.3978, 2101.126
448.8799, 2089.437
449.3621, 2074.777
449.8442, 2067.831
450.3263, 2073.780
450.8084, 2074.592
451.2905, 2065.445
451.7726, 2049.789
452.2548, 2041.120
452.7369, 2040.596
453.2190, 2042.806
453.7011, 2045.185
454.1832, 2047.704
454.6653, 2050.284
455.1475, 2053.160
455.6296, 2055.362
456.1117, 2056.930
456.5938, 2057.283
457.0759, 2052.768
457.5580, 2038.201
458.0402, 2020.202
458.5223, 2011.580
459.0044, 2011.472
459.4865, 2010.594
459.9686, 2003.304
460.4507, 1990.822
460.9329, 1972.525
461.4150, 1943.587
461.8971, 1920.718
462.3792, 1921.089
462.8613, 1934.729
463.3434, 1941.909
463.8256, 1929.475
464.3077, 1913.318
464.7898, 1900.988
465.2719, 1893.591
465.7540, 1884.300
466.2361, 1865.980
466.7183, 1848.251
467.2004, 1839.140
467.6825, 1852.370
468.1646, 1857.237
468.6467, 1848.303
469.1288, 1829.501
469.6110, 1815.069
470.0930, 1808.309
470.5752, 1799.840
471.0573, 1784.238
471.5394, 1759.817
472.0215, 1741.550
472.5036, 1730.672
472.9857, 1723.355
473.4679, 1716.259
473.9500, 1709.469
474.4321, 1698.985
474.9142, 1682.155
475.3963, 1662.426
475.8784, 1647.963
476.3606, 1638.563
476.8427, 1630.810
477.3248, 1622.324
477.8069, 1614.043
478.2890, 1608.238
478.7711, 1605.732
479.2533, 1603.034
479.7354, 1594.888
480.2175, 1584.781
480.6996, 1578.621
481.1817, 1586.824
481.6638, 1592.841
482.1460, 1582.526
482.6281, 1558.247
483.1102, 1542.076
483.5923, 1551.532
484.0744, 1564.743
484.5565, 1567.309
485.0387, 1545.840
485.5208, 1533.066
486.0029, 1539.851
486.4850, 1554.714
486.9671, 1559.632
487.4492, 1547.823
487.9314, 1536.324
488.4135, 1528.754
488.8956, 1525.158
489.3777, 1525.455
489.8598, 1532.665
490.3419, 1537.131
490.8241, 1529.596
491.3062, 1509.298
491.7883, 1491.367
492.2704, 1476.337
492.7525, 1466.135
493.2346, 1466.991
493.7168, 1477.415
494.1989, 1485.551
494.6810, 1484.007
495.1631, 1476.998
495.6452, 1472.180
496.1273, 1469.511
496.6095, 1466.220
497.0916, 1459.785
497.5737, 1451.713
498.0558, 1443.270
498.5379, 1432.820
499.0201, 1425.862
499.5022, 1428.809
499.9843, 1437.414
500.4664, 1442.898
500.9485, 1441.458
501.4306, 1437.169
501.9127, 1430.514
502.3948, 1421.104
502.8770, 1413.871
503.3591, 1410.319
503.8412, 1408.350
504.3233, 1406.752
504.8054, 1406.743
505.2875, 1404.479
505.7697, 1398.653
506.2518, 1390.927
506.7339, 1385.855
507.2160, 1384.219
507.6981, 1382.009
508.1802, 1377.102
508.6624, 1369.983
509.1445, 1364.185
509.6266, 1359.625
510.1087, 1357.192
510.5908, 1359.907
511.0729, 1365.713
511.5551, 1367.971
512.0372, 1364.970
512.5193, 1358.731
513.0014, 1350.686
513.4835, 1341.225
513.9656, 1331.427
514.4478, 1318.883
514.9299, 1308.350
515.4120, 1304.231
515.8941, 1306.728
516.3762, 1309.793
516.8583, 1311.013
517.3405, 1311.724
517.8226, 1312.927
518.3047, 1315.132
518.7868, 1317.352
519.2689, 1322.170
519.7510, 1326.580
520.2332, 1323.769
520.7153, 1307.838
521.1974, 1294.181
521.6795, 1287.233
522.1616, 1286.982
522.6437, 1289.536
523.1259, 1296.463
523.6080, 1301.986
524.0901, 1301.008
524.5722, 1293.572
525.0543, 1283.534
525.5364, 1270.062
526.0186, 1257.111
526.5007, 1251.152
526.9828, 1251.243
527.4649, 1253.033
527.9470, 1257.904
528.4291, 1261.489
528.9113, 1256.410
529.3934, 1243.630
529.8755, 1232.336
530.3576, 1228.018
530.8397, 1227.851
531.3218, 1229.727
531.8040, 1234.348
532.2861, 1238.344
532.7682, 1241.949
533.2503, 1243.907
533.7324, 1242.253
534.2145, 1231.526
534.6967, 1223.009
535.1788, 1219.723
535.6609, 1221.092
536.1430, 1220.772
536.6251, 1218.819
537.1072, 1215.146
537.5894, 1208.382
538.0715, 1197.360
538.5536, 1192.822
539.0357, 1196.554
539.5178, 1203.036
539.9999, 1204.528
540.4821, 1201.626
540.9642, 1200.173
541.4463, 1202.602
541.9284, 1206.621
542.4105, 1208.838
542.8926, 1209.341
543.3748, 1208.663
543.8569, 1206.375
544.3390, 1203.467
544.8211, 1200.989
545.3032, 1199.106
545.7853, 1196.838
546.2675, 1192.753
546.7495, 1188.480
547.2316, 1185.625
547.7137, 1182.957
548.1959, 1183.617
548.6780, 1190.960
549.1601, 1202.186
549.6422, 1209.252
550.1243, 1211.778
550.6064, 1210.562
551.0886, 1204.242
551.5707, 1192.525
552.0528, 1187.087
552.5349, 1189.799
553.0170, 1193.738
553.4991, 1192.521
553.9813, 1186.500
554.4634, 1181.332
554.9455, 1177.823
555.4276, 1175.234
555.9097, 1172.174
556.3918, 1169.095
556.8740, 1167.433
557.3561, 1168.645
557.8382, 1171.061
558.3203, 1173.824
558.8024, 1176.693
559.2845, 1177.985
559.7667, 1173.266
560.2488, 1169.131
560.7309, 1171.289
561.2130, 1184.220
561.6951, 1192.637
562.1772, 1191.325
562.6594, 1185.011
563.1415, 1179.146
563.6236, 1174.011
564.1057, 1168.846
564.5878, 1162.353
565.0699, 1155.906
565.5521, 1154.960
566.0342, 1160.836
566.5163, 1167.370
566.9984, 1170.943
567.4805, 1172.207
567.9626, 1178.367
568.4448, 1190.116
568.9269, 1200.105
569.4090, 1198.280
569.8911, 1189.903
570.3732, 1187.717
570.8553, 1196.966
571.3375, 1206.713
571.8196, 1207.976
572.3017, 1202.579
572.7838, 1193.886
573.2659, 1177.576
573.7480, 1163.514
574.2302, 1156.625
574.7123, 1156.673
575.1944, 1157.872
575.6765, 1161.427
576.1586, 1164.043
576.6407, 1163.492
577.1229, 1156.939
577.6050, 1156.595
578.0871, 1165.667
578.5692, 1176.894
579.0513, 1181.368
579.5334, 1178.471
580.0156, 1174.145
580.4977, 1168.486
580.9798, 1163.392
581.4619, 1164.133
581.9440, 1169.873
582.4261, 1174.635
582.9083, 1173.363
583.3904, 1169.993
583.8725, 1170.257
584.3546, 1174.093
584.8367, 1178.106
585.3188, 1180.382
585.8010, 1181.783
586.2831, 1182.779
586.7652, 1182.396
587.2473, 1184.024
587.7294, 1190.920
588.2115, 1199.569
588.6937, 1204.985
589.1758, 1204.790
589.6579, 1204.782
590.1400, 1206.909
590.6221, 1209.891
591.1042, 1206.422
591.5864, 1193.414
592.0685, 1185.072
592.5506, 1192.161
593.0327, 1212.113
593.5148, 1221.241
593.9969, 1218.915
594.4791, 1212.444
594.9612, 1207.270
595.4433, 1203.100
595.9254, 1198.402
596.4075, 1190.973
596.8896, 1188.420
597.3718, 1204.237
597.8539, 1227.804
598.3360, 1241.448
598.8181, 1228.214
599.3002, 1214.522
599.7823, 1209.021
600.2645, 1211.286
600.7466, 1217.724
601.2287, 1235.420
601.7108, 1248.803
602.1929, 1249.665
602.6750, 1234.904
603.1572, 1231.317
603.6393, 1243.152
604.1214, 1256.709
604.6035, 1257.288
605.0856, 1245.550
605.5677, 1238.117
606.0499, 1237.309
606.5320, 1241.546
607.0141, 1252.056
607.4962, 1266.112
607.9783, 1276.066
608.4604, 1276.302
608.9425, 1272.706
609.4246, 1267.923
609.9067, 1262.798
610.3889, 1261.169
610.8710, 1266.834
611.3531, 1274.597
611.8352, 1282.522
612.3173, 1291.202
612.7994, 1296.689
613.2816, 1298.965
613.7637, 1298.094
614.2458, 1292.742
614.7279, 1279.357
615.2100, 1274.472
615.6921, 1281.671
616.1743, 1293.920
616.6564, 1298.846
617.1385, 1296.863
617.6206, 1295.428
618.1027, 1296.966
618.5848, 1300.507
619.0670, 1304.874
619.5491, 1309.932
620.0312, 1315.087
620.5133, 1321.932
620.9954, 1327.419
621.4775, 1324.178
621.9597, 1310.799
622.4418, 1312.057
622.9239, 1351.140
623.4060, 1398.147
623.8881, 1433.594
624.3702, 1463.197
624.8524, 1465.888
625.3345, 1425.619
625.8166, 1370.623
626.2987, 1341.110
626.7808, 1341.125
627.2629, 1346.241
627.7451, 1353.032
628.2272, 1360.004
628.7093, 1362.512
629.1914, 1361.064
629.6735, 1360.775
630.1556, 1366.259
630.6378, 1373.602
631.1199, 1376.802
631.6020, 1376.172
632.0841, 1376.295
632.5662, 1380.399
633.0483, 1386.037
633.5305, 1391.081
634.0126, 1394.212
634.4947, 1399.609
634.9768, 1412.514
635.4589, 1425.597
635.9410, 1431.103
636.4232, 1423.237
636.9053, 1420.386
637.3874, 1425.680
637.8695, 1435.699
638.3516, 1444.641
638.8337, 1452.734
639.3159, 1455.887
639.7980, 1448.980
640.2801, 1438.551
640.7622, 1442.723
641.2443, 1459.141
641.7264, 1471.268
642.2086, 1459.220
642.6907, 1443.612
643.1728, 1447.117
643.6549, 1472.705
644.1370, 1495.673
644.6191, 1506.529
645.1013, 1510.640
645.5834, 1511.579
646.0655, 1502.851
646.5476, 1503.072
647.0297, 1517.768
647.5118, 1537.198
647.9940, 1547.971
648.4761, 1548.361
648.9582, 1547.684
649.4403, 1546.850
649.9224, 1546.987
650.4045, 1551.393
650.8867, 1559.599
651.3688, 1567.789
651.8509, 1574.607
652.3330, 1580.046
652.8151, 1583.733
653.2972, 1585.788
653.7794, 1587.233
654.2615, 1584.015
654.7436, 1583.825
655.2257, 1594.211
655.7078, 1619.934
656.1899, 1637.689
656.6721, 1639.054
657.1542, 1635.213
657.6363, 1633.593
658.1184, 1634.718
658.6005, 1636.228
659.0826, 1637.567
659.5648, 1639.894
660.0469, 1646.431
660.5290, 1656.698
661.0111, 1663.683
661.4932, 1664.724
661.9753, 1662.537
662.4575, 1657.688
662.9396, 1652.370
663.4217, 1653.265
663.9038, 1672.959
664.3859, 1692.365
664.8680, 1695.001
665.3502, 1682.805
665.8323, 1678.870
666.3144, 1701.382
666.7965, 1722.209
667.2786, 1726.922
667.7607, 1711.231
668.2429, 1702.602
668.7250, 1702.820
669.2071, 1706.689
669.6892, 1709.587
670.1713, 1711.560
670.6534, 1716.104
671.1355, 1723.928
671.6176, 1732.856
672.0997, 1742.126
672.5818, 1750.252
673.0640, 1753.452
673.5461, 1746.505
674.0282, 1740.513
674.5103, 1744.320
674.9924, 1754.519
675.4745, 1763.866
675.9567, 1771.914
676.4388, 1777.111
676.9209, 1776.217
677.4030, 1771.106
677.8851, 1773.309
678.3672, 1785.546
678.8494, 1799.276
679.3315, 1812.257
679.8136, 1823.917
680.2957, 1826.286
680.7778, 1818.431
681.2599, 1811.902
681.7421, 1818.730
682.2242, 1833.015
682.7063, 1842.657
683.1884, 1845.401
683.6705, 1849.931
684.1526, 1864.166
684.6348, 1882.348
685.1169, 1898.944
685.5990, 1915.421
686.0811, 1925.965
686.5632, 1925.768
687.0453, 1920.810
687.5275, 1918.914
688.0096, 1921.045
688.4917, 1924.067
688.9738, 1927.536
689.4559, 1931.554
689.9380, 1935.552
690.4202, 1939.656
690.9023, 1947.014
691.3844, 1961.139
691.8665, 1978.099
692.3486, 1993.422
692.8307, 2006.896
693.3129, 2016.795
693.7950, 2019.205
694.2771, 2019.987
694.7592, 2020.726
695.2413, 2020.803
695.7234, 2030.339
696.2056, 2060.924
696.6877, 2092.343
697.1698, 2113.322
697.6519, 2120.851
698.1340, 2130.213
698.6161, 2142.866
699.0983, 2153.882
699.5804, 2155.056
700.0625, 2148.843
700.5446, 2148.746
701.0267, 2157.874
701.5089, 2171.120
701.9910, 2182.338
702.4731, 2194.012
702.9552, 2210.519
703.4373, 2243.366
703.9194, 2270.087
704.4016, 2277.667
704.8837, 2273.066
705.3658, 2274.081
705.8479, 2287.081
706.3300, 2298.265
706.8121, 2303.593
707.2943, 2304.853
707.7764, 2309.372
708.2585, 2316.728
708.7406, 2330.684
709.2227, 2357.732
709.7048, 2391.976
710.1870, 2417.429
710.6691, 2434.615
711.1512, 2447.901
711.6333, 2455.287
712.1154, 2463.870
712.5975, 2482.108
713.0797, 2512.459
713.5618, 2538.302
714.0439, 2549.593
714.5260, 2557.991
715.0081, 2571.646
715.4902, 2592.295
715.9724, 2612.380
716.4545, 2629.803
716.9366, 2649.892
717.4187, 2682.135
717.9008, 2725.409
718.3829, 2759.079
718.8651, 2779.075
719.3472, 2791.459
719.8293, 2796.508
720.3114, 2800.787
720.7935, 2817.784
721.2756, 2863.384
721.7578, 2909.641
722.2399, 2943.796
722.7220, 2968.773
723.2041, 2989.812
723.6862, 3001.114
724.1683, 3017.496
724.6505, 3042.610
725.1326, 3074.592
725.6147, 3106.559
726.0968, 3138.001
726.5789, 3171.630
727.0610, 3210.352
727.5432, 3251.607
728.0253, 3289.965
728.5074, 3325.039
728.9895, 3355.005
729.4716, 3371.365
729.9537, 3386.789
730.4359, 3414.895
730.9180, 3457.265
731.4001, 3493.216
731.8822, 3505.207
732.3643, 3519.338
732.8464, 3551.743
733.3285, 3608.547
733.8106, 3657.969
734.2927, 3697.706
734.7748, 3735.156
735.2570, 3780.310
735.7391, 3831.029
736.2212, 3869.163
736.7033, 3890.434
737.1854, 3912.166
737.6675, 3958.831
738.1497, 4015.377
738.6318, 4058.146
739.1139, 4068.514
739.5960, 4088.643
740.0781, 4145.396
740.5602, 4218.396
741.0424, 4277.592
741.5245, 4313.160
742.0066, 4349.831
742.4887, 4389.214
742.9708, 4431.564
743.4529, 4477.702
743.9351, 4527.529
744.4172, 4582.362
744.8993, 4646.517
745.3814, 4710.887
745.8635, 4754.721
746.3456, 4785.778
746.8278, 4827.570
747.3099, 4902.274
747.7920, 4980.297
748.2741, 5046.394
748.7562, 5101.679
749.2383, 5153.779
749.7205, 5204.408
750.2026, 5251.614
750.6847, 5293.018
751.1668, 5329.979
751.6489, 5371.471
752.1310, 5418.065
752.6132, 5468.094
753.0953, 5514.013
753.5774, 5563.858
754.0595, 5642.920
754.5416, 5750.310
755.0237, 5851.030
755.5059, 5914.438
755.9880, 5967.196
756.4701, 6033.605
756.9522, 6119.502
757.4343, 6196.220
757.9164, 6250.031
758.3986, 6300.509
758.8807, 6357.672
759.3628, 6419.314
759.8449, 6499.326
760.3270, 6602.918
760.8091, 6706.958
761.2913, 6781.874
761.7734, 6838.070
762.2555, 6913.926
762.7376, 7018.729
763.2197, 7128.134
763.7018, 7224.826
764.1840, 7313.760
764.6661, 7401.810
765.1482, 7486.870
765.6303, 7574.332
766.1124, 7662.845
766.5945, 7755.348
767.0767, 7855.408
767.5588, 7965.832
768.0409, 8070.125
768.5230, 8161.703
769.0051, 8254.317
769.4872, 8375.449
769.9694, 8519.931
770.4515, 8663.517
770.9336, 8801.096
771.4157, 8930.562
771.8978, 9047.406
772.3799, 9155.660
772.8621, 9261.319
773.3442, 9369.498
773.8263, 9472.979
774.3084, 9567.086
774.7905, 9656.441
775.2726, 9750.104
775.7548, 9845.494
776.2369, 9957.137
776.7190, 10093.37
777.2011, 10244.42
777.6832, 10385.80
778.1653, 10517.97
778.6475, 10639.63
779.1296, 10730.77
779.6117, 10826.42
780.0938, 10965.15
780.5759, 11135.37
781.0580, 11298.46
781.5402, 11431.49
782.0223, 11566.57
782.5044, 11714.12
782.9865, 11871.92
783.4686, 12035.44
783.9507, 12207.88
784.4329, 12377.01
784.9150, 12533.85
785.3971, 12686.95
785.8792, 12863.18
786.3613, 13061.49
786.8434, 13266.52
787.3256, 13473.43
787.8077, 13676.50
788.2898, 13867.51
788.7719, 14045.37
789.2540, 14239.67
789.7361, 14453.25
790.2183, 14688.55
790.7004, 14950.14
791.1825, 15242.25
791.6646, 15507.39
792.1467, 15736.48
792.6288, 15977.82
793.1110, 16281.77
793.5930, 16623.00
794.0751, 16937.44
794.5573, 17220.06
795.0394, 17512.89
795.5215, 17841.27
796.0036, 18186.51
796.4857, 18532.29
796.9678, 18868.52
797.4500, 19239.95
797.9321, 19677.97
798.4142, 20129.15
798.8963, 20559.90
799.3784, 20971.48
799.8605, 21390.56
800.3427, 21817.80
800.8248, 22259.29
801.3069, 22719.55
801.7890, 23202.71
802.2711, 23722.42
802.7532, 24283.61
803.2354, 24864.94
803.7175, 25477.15
804.1996, 26101.82
804.6817, 26724.25
805.1638, 27332.90
805.6459, 27961.77
806.1281, 28607.01
806.6102, 29279.64
807.0923, 29986.18
807.5744, 30729.10
808.0565, 31480.40
808.5386, 32235.54
809.0208, 32998.82
809.5029, 33757.78
809.9850, 34526.49
810.4671, 35321.40
810.9492, 36148.06
811.4313, 36981.34
811.9135, 37801.21
812.3956, 38626.64
812.8777, 39475.70
813.3598, 40346.33
813.8419, 41251.52
814.3240, 42221.23
814.8062, 43172.20
815.2883, 44000.81
815.7704, 44724.85
816.2525, 45499.26
816.7346, 46356.59
817.2167, 47210.69
817.6989, 48011.62
818.1810, 48749.71
818.6631, 49407.02
819.1452, 49939.90
819.6273, 50490.21
820.1094, 51133.52
820.5916, 51773.36
821.0737, 52331.14
821.5558, 52807.00
822.0379, 53166.47
822.5200, 53381.05
823.0021, 53548.72
823.4843, 53824.82
823.9664, 54149.21
824.4485, 54375.27
824.9306, 54468.62
825.4127, 54466.52
825.8948, 54355.34
826.3770, 54180.20
826.8591, 53988.17
827.3412, 53796.64
827.8233, 53574.04
828.3054, 53332.44
828.7875, 53046.61
829.2697, 52697.01
829.7518, 52279.12
830.2339, 51780.54
830.7160, 51183.09
831.1981, 50550.28
831.6802, 49957.76
832.1624, 49373.29
832.6445, 48755.25
833.1266, 48086.54
833.6087, 47401.41
834.0908, 46720.17
834.5729, 46026.61
835.0551, 45292.95
835.5372, 44503.61
836.0193, 43729.43
836.5014, 42978.71
836.9835, 42234.84
837.4656, 41494.94
837.9478, 40757.66
838.4299, 39995.31
838.9120, 39194.15
839.3941, 38376.96
839.8762, 37533.60
840.3583, 36695.58
840.8405, 35895.45
841.3226, 35163.52
841.8047, 34443.45
842.2868, 33741.29
842.7689, 33039.12
843.2510, 32320.80
843.7332, 31583.37
844.2153, 30881.18
844.6974, 30221.99
845.1795, 29577.33
845.6616, 28929.86
846.1437, 28278.59
846.6259, 27615.03
847.1080, 26920.76
847.5901, 26282.84
848.0722, 25781.09
848.5543, 25323.81
849.0364, 24829.87
849.5186, 24280.94
850.0007, 23734.30
850.4828, 23180.83
850.9649, 22654.69
851.4470, 22197.83
851.9291, 21797.92
852.4113, 21407.01
852.8934, 21018.98
853.3755, 20633.65
853.8576, 20228.50
854.3397, 19840.79
854.8218, 19505.90
855.3040, 19248.61
855.7860, 18973.14
856.2681, 18645.60
856.7502, 18336.84
857.2324, 18102.13
857.7145, 17944.21
858.1966, 17765.79
858.6787, 17562.60
859.1608, 17357.68
859.6429, 17165.19
860.1251, 16983.30
860.6072, 16802.88
861.0893, 16621.89
861.5714, 16451.62
862.0535, 16292.16
862.5356, 16147.01
863.0178, 16016.85
863.4999, 15904.10
863.9820, 15791.01
864.4641, 15678.79
864.9462, 15569.69
865.4283, 15460.57
865.9105, 15358.80
866.3926, 15290.81
866.8747, 15253.78
867.3568, 15203.19
867.8389, 15074.74
868.3210, 14958.42
868.8032, 14926.02
869.2853, 14985.10
869.7674, 14991.51
870.2495, 14925.20
870.7316, 14844.39
871.2137, 14761.51
871.6959, 14686.81
872.1780, 14685.62
872.6601, 14749.22
873.1422, 14794.74
873.6243, 14750.85
874.1064, 14684.85
874.5886, 14644.92
875.0707, 14631.99
875.5528, 14643.03
876.0349, 14712.42
876.5170, 14761.74
876.9991, 14764.95
877.4813, 14734.83
877.9634, 14718.59
878.4455, 14716.30
878.9276, 14722.69
879.4097, 14738.75
879.8918, 14758.95
880.3740, 14781.11
880.8561, 14801.77
881.3382, 14812.20
881.8203, 14794.69
882.3024, 14783.77
882.7845, 14807.94
883.2667, 14839.09
883.7488, 14814.50
884.2309, 14720.54
884.7130, 14647.73
885.1951, 14623.51
885.6772, 14614.01
886.1594, 14568.26
886.6415, 14495.04
887.1236, 14413.91
887.6057, 14334.57
888.0878, 14242.75
888.5699, 14126.55
889.0521, 13997.25
889.5342, 13873.07
890.0163, 13767.36
890.4984, 13631.01
890.9805, 13455.59
891.4626, 13257.14
891.9448, 13053.11
892.4269, 12843.49
892.9090, 12619.30
893.3911, 12374.46
893.8732, 12132.74
894.3553, 11931.43
894.8375, 11727.39
895.3196, 11477.34
895.8017, 11138.01
896.2838, 10849.44
896.7659, 10625.61
897.2480, 10423.73
897.7302, 10209.95
898.2123, 9988.509
898.6944, 9755.912
899.1765, 9514.247
899.6586, 9281.847
900.1407, 9086.190
900.6229, 8900.153
901.1050, 8698.635
901.5871, 8474.992
902.0692, 8275.412
902.5513, 8107.140
903.0334, 7952.605
903.5156, 7807.039
903.9977, 7668.069
904.4798, 7526.135
904.9619, 7381.438
905.4440, 7242.672
905.9261, 7114.967
906.4083, 6996.165
906.8904, 6882.619
907.3725, 6775.124
907.8546, 6675.377
908.3367, 6589.543
908.8188, 6504.992
909.3010, 6421.665
909.7831, 6337.822
910.2652, 6245.701
910.7473, 6145.388
911.2294, 6056.177
911.7115, 5986.435
912.1937, 5925.825
912.6758, 5867.121
913.1579, 5806.907
913.6400, 5737.717
914.1221, 5644.634
914.6042, 5558.292
915.0864, 5482.807
915.5685, 5417.038
916.0506, 5361.140
916.5327, 5315.642
917.0148, 5273.924
917.4969, 5236.333
917.9790, 5196.202
918.4611, 5143.094
918.9432, 5083.680
919.4254, 5026.883
919.9075, 4973.438
920.3896, 4926.725
920.8717, 4902.121
921.3538, 4873.052
921.8359, 4817.631
922.3181, 4728.989
922.8002, 4668.274
923.2823, 4638.607
923.7644, 4612.455
924.2465, 4562.343
924.7286, 4504.459
925.2108, 4465.045
925.6929, 4444.117
926.1750, 4423.134
926.6571, 4402.954
927.1392, 4371.513
927.6213, 4317.107
928.1035, 4245.864
928.5856, 4197.416
929.0677, 4174.612
929.5498, 4150.309
930.0319, 4109.177
930.5140, 4062.594
930.9962, 4030.033
931.4783, 4006.393
931.9604, 3978.591
932.4425, 3935.307
932.9246, 3893.631
933.4067, 3859.800
933.8889, 3829.861
934.3710, 3795.910
934.8531, 3756.992
935.3352, 3723.069
935.8173, 3697.641
936.2994, 3674.178
936.7816, 3643.080
937.2637, 3608.838
937.7458, 3580.609
938.2279, 3563.819
938.7100, 3543.767
939.1921, 3511.008
939.6743, 3476.822
940.1564, 3449.296
940.6385, 3429.844
941.1206, 3409.456
941.6027, 3387.554
942.0848, 3367.463
942.5670, 3355.786
943.0491, 3345.788
943.5312, 3324.178
944.0133, 3291.216
944.4954, 3265.073
944.9775, 3262.942
945.4597, 3258.478
945.9418, 3241.634
946.4239, 3213.262
946.9060, 3175.527
947.3881, 3127.094
947.8702, 3090.699
948.3524, 3082.015
948.8345, 3084.772
949.3166, 3078.261
949.7987, 3065.608
950.2808, 3054.264
950.7629, 3050.747
951.2451, 3043.973
951.7272, 3031.331
952.2093, 3014.748
952.6914, 2996.335
953.1735, 2975.960
953.6556, 2955.784
954.1378, 2935.686
954.6199, 2918.508
955.1020, 2908.684
955.5841, 2902.726
956.0662, 2896.423
956.5483, 2889.028
957.0305, 2881.396
957.5126, 2877.326
957.9947, 2868.844
958.4768, 2846.945
958.9589, 2812.293
959.4410, 2798.629
959.9232, 2805.884
960.4053, 2812.423
960.8874, 2800.840
961.3695, 2783.054
961.8516, 2770.122
962.3337, 2761.664
962.8159, 2752.012
963.2980, 2735.697
963.7801, 2725.202
964.2622, 2726.563
964.7443, 2733.181
965.2264, 2724.693
965.7086, 2703.838
966.1907, 2688.581
966.6728, 2686.414
967.1549, 2688.127
967.6370, 2689.099
968.1191, 2688.324
968.6013, 2684.250
969.0834, 2673.366
969.5655, 2664.956
970.0476, 2659.259
970.5297, 2655.461
971.0118, 2656.458
971.4940, 2658.841
971.9761, 2645.450
972.4582, 2614.663
972.9403, 2590.072
973.4224, 2596.588
973.9045, 2606.203
974.3867, 2596.581
974.8688, 2567.093
975.3509, 2549.415
975.8330, 2545.813
976.3151, 2546.821
976.7972, 2551.480
977.2794, 2555.436
977.7615, 2547.910
978.2436, 2531.503
978.7257, 2514.340
979.2078, 2492.290
979.6899, 2479.041
980.1720, 2485.789
980.6541, 2501.625
981.1362, 2512.240
981.6183, 2518.626
982.1005, 2510.416
982.5826, 2482.869
983.0647, 2457.083
983.5468, 2468.225
984.0289, 2492.571
984.5110, 2489.669
984.9932, 2448.851
985.4753, 2418.503
985.9574, 2424.416
986.4395, 2433.381
986.9216, 2428.857
987.4037, 2412.395
987.8859, 2406.996
988.3680, 2412.413
988.8501, 2415.366
989.3322, 2405.914
989.8143, 2392.190
990.2964, 2379.561
990.7786, 2369.021
991.2607, 2363.075
991.7428, 2368.932
992.2249, 2368.722
992.7070, 2358.423
993.1891, 2343.436
993.6713, 2329.746
994.1534, 2318.672
994.6355, 2319.335
995.1176, 2336.590
995.5997, 2349.731
996.0818, 2337.162
996.5640, 2318.368
997.0461, 2312.506
997.5282, 2324.721
998.0103, 2325.296
998.4924, 2312.306
998.9745, 2293.662
999.4567, 2268.336
999.9388, 2242.911
1000.421, 2237.053
1000.903, 2246.511
1001.385, 2253.507
1001.867, 2246.687
1002.349, 2238.974
1002.831, 2235.269
1003.314, 2233.798
1003.796, 2231.608
1004.278, 2228.791
1004.760, 2223.730
1005.242, 2215.918
1005.724, 2206.450
1006.206, 2193.437
1006.688, 2180.906
1007.171, 2174.796
1007.653, 2178.563
1008.135, 2180.063
1008.617, 2179.021
1009.099, 2173.832
1009.581, 2160.828
1010.063, 2141.889
1010.545, 2135.315
1011.027, 2139.494
1011.510, 2140.813
1011.992, 2127.286
1012.474, 2111.622
1012.956, 2101.502
1013.438, 2096.033
1013.920, 2092.096
1014.402, 2090.774
1014.884, 2086.624
1015.367, 2077.055
1015.849, 2068.259
1016.331, 2072.036
1016.813, 2082.827
1017.295, 2089.102
1017.777, 2088.214
1018.259, 2084.213
1018.741, 2076.425
1019.223, 2068.153
1019.706, 2062.465
1020.188, 2059.405
1020.670, 2045.883
1021.152, 2021.454
1021.634, 2003.371
1022.116, 2006.915
1022.598, 2018.496
1023.080, 2028.928
1023.563, 2036.017
1024.045, 2033.421
1024.527, 2006.564
1025.009, 1992.093
1025.491, 1998.459
1025.973, 2012.230
1026.455, 2015.783
1026.937, 2010.098
1027.419, 1996.216
1027.901, 1972.937
1028.384, 1954.247
1028.866, 1951.687
1029.348, 1955.070
1029.830, 1958.495
1030.312, 1961.750
1030.794, 1961.712
1031.276, 1958.508
1031.758, 1951.260
1032.241, 1935.768
1032.723, 1919.674
1033.205, 1917.450
1033.687, 1923.197
1034.169, 1923.028
1034.651, 1901.131
1035.133, 1889.037
1035.615, 1894.803
1036.098, 1906.551
1036.580, 1909.656
1037.062, 1905.176
1037.544, 1900.910
1038.026, 1897.648
1038.508, 1892.826
1038.990, 1881.503
1039.472, 1870.231
1039.954, 1865.847
1040.437, 1867.961
1040.919, 1861.680
1041.401, 1843.433
1041.883, 1832.297
1042.365, 1839.728
1042.847, 1851.816
1043.329, 1840.119
1043.811, 1815.627
1044.293, 1801.303
1044.776, 1811.964
1045.258, 1821.233
1045.740, 1826.944
1046.222, 1826.711
1046.704, 1814.409
1047.186, 1791.096
1047.668, 1781.915
1048.150, 1787.231
1048.633, 1793.157
1049.115, 1792.803
1049.597, 1786.565
1050.079, 1768.780
1050.561, 1743.667
1051.043, 1735.335
1051.525, 1749.963
1052.007, 1762.570
1052.490, 1767.753
1052.972, 1767.351
1053.454, 1760.573
1053.936, 1751.220
1054.418, 1746.522
1054.900, 1749.171
1055.382, 1753.154
1055.864, 1761.925
1056.346, 1765.810
1056.828, 1756.404
1057.311, 1735.545
1057.793, 1726.419
1058.275, 1727.952
1058.757, 1727.872
1059.239, 1716.014
1059.721, 1703.156
1060.203, 1697.697
1060.685, 1696.401
1061.168, 1690.835
1061.650, 1678.249
1062.132, 1670.615
1062.614, 1670.021
1063.096, 1672.051
1063.578, 1671.630
1064.060, 1670.525
1064.542, 1672.799
1065.025, 1679.112
1065.507, 1680.932
1065.989, 1670.178
1066.471, 1661.775
1066.953, 1663.654
1067.435, 1670.218
1067.917, 1658.084
1068.399, 1631.048
1068.881, 1610.638
1069.364, 1606.344
1069.846, 1607.349
1070.328, 1608.301
1070.810, 1610.172
1071.292, 1614.370
1071.774, 1622.202
1072.256, 1627.547
1072.738, 1630.604
1073.220, 1629.160
1073.703, 1619.081
1074.185, 1605.060
1074.667, 1589.309
1075.149, 1574.111
1075.631, 1569.650
1076.113, 1588.109
1076.595, 1602.569
1077.077, 1609.131
1077.559, 1609.026
1078.042, 1599.909
1078.524, 1586.009
1079.006, 1581.550
1079.488, 1590.642
1079.970, 1598.224
1080.452, 1596.904
1080.934, 1590.825
1081.416, 1581.154
1081.899, 1568.743
1082.381, 1563.403
1082.863, 1565.130
1083.345, 1567.175
1083.827, 1566.642
1084.309, 1564.840
1084.791, 1561.384
1085.273, 1557.922
1085.755, 1557.443
1086.238, 1562.995
1086.720, 1565.455
1087.202, 1564.916
1087.684, 1560.614
1088.166, 1546.208
1088.648, 1529.962
1089.130, 1531.392
1089.612, 1547.885
1090.094, 1557.339
1090.577, 1545.013
1091.059, 1532.188
1091.541, 1522.552
1092.023, 1517.020
1092.505, 1519.316
1092.987, 1527.716
1093.469, 1533.010
1093.951, 1532.929
1094.434, 1532.527
1094.916, 1534.460
1095.398, 1537.944
1095.880, 1544.395
1096.362, 1553.349
1096.844, 1549.505
1097.326, 1531.746
1097.808, 1519.924
1098.291, 1526.670
1098.773, 1538.574
1099.255, 1541.438
1099.737, 1538.661
1100.219, 1535.323
1100.701, 1529.361
1101.183, 1529.519
1101.665, 1538.143
1102.147, 1546.534
1102.630, 1545.096
1103.112, 1538.683
1103.594, 1540.088
1104.076, 1547.241
1104.558, 1546.666
1105.040, 1519.533
1105.522, 1501.547
1106.004, 1503.659
1106.486, 1516.262
1106.969, 1524.119
1107.451, 1527.611
1107.933, 1527.971
1108.415, 1524.984
1108.897, 1523.244
1109.379, 1530.458
1109.861, 1535.724
1110.343, 1528.160
1110.826, 1510.846
1111.308, 1509.985
1111.790, 1526.395
1112.272, 1538.417
1112.754, 1536.704
1113.236, 1530.165
1113.718, 1524.729
1114.200, 1521.624
1114.682, 1523.595
1115.165, 1535.682
1115.647, 1537.555
1116.129, 1527.060
1116.611, 1513.720
1117.093, 1500.025
1117.575, 1490.174
1118.057, 1495.191
1118.539, 1510.774
1119.021, 1522.985
1119.504, 1524.561
1119.986, 1525.982
1120.468, 1528.317
1120.950, 1531.461
1121.432, 1537.525
1121.914, 1544.221
1122.396, 1540.591
1122.878, 1526.183
1123.361, 1519.144
1123.843, 1539.241
1124.325, 1557.416
1124.807, 1560.750
1125.289, 1553.758
1125.771, 1546.602
1126.253, 1539.840
1126.735, 1541.402
1127.218, 1555.894
1127.700, 1568.197
1128.182, 1562.074
1128.664, 1551.762
1129.146, 1550.166
1129.628, 1557.511
1130.110, 1566.575
1130.592, 1577.969
1131.074, 1582.743
1131.557, 1572.215
1132.039, 1558.624
1132.521, 1557.052
1133.003, 1561.725
1133.485, 1563.311
1133.967, 1557.730
1134.449, 1554.617
1134.931, 1553.821
1135.413, 1556.182
1135.896, 1564.125
1136.378, 1574.747
1136.860, 1583.909
1137.342, 1591.492
1137.824, 1597.814
1138.306, 1601.851
1138.788, 1606.433
1139.270, 1613.142
1139.752, 1618.420
1140.235, 1614.126
1140.717, 1605.064
1141.199, 1606.203
1141.681, 1618.913
1142.163, 1628.534
1142.645, 1627.359
1143.127, 1622.362
1143.609, 1615.313
1144.092, 1607.201
1144.574, 1598.994
1145.056, 1591.780
1145.538, 1593.493
1146.020, 1608.835
1146.502, 1621.353
1146.984, 1615.776
1147.466, 1607.953
1147.948, 1609.970
1148.431, 1620.908
1148.913, 1625.942
1149.395, 1625.278
1149.877, 1624.155
1150.359, 1624.972
1150.841, 1626.000
1151.323, 1622.994
1151.805, 1620.890
1152.287, 1627.615
1152.770, 1647.564
1153.252, 1654.857
1153.734, 1648.072
1154.216, 1641.895
1154.698, 1648.959
1155.180, 1660.154
1155.662, 1665.734
1156.144, 1667.917
1156.627, 1673.579
1157.109, 1685.796
1157.591, 1694.261
1158.073, 1697.627
1158.555, 1699.212
1159.037, 1702.049
1159.519, 1705.429
1160.001, 1709.764
1160.484, 1714.389
1160.966, 1713.323
1161.448, 1699.427
1161.930, 1693.089
1162.412, 1701.258
1162.894, 1712.459
1163.376, 1704.156
1163.858, 1687.553
1164.340, 1687.842
1164.823, 1710.818
1165.305, 1724.707
1165.787, 1716.536
1166.269, 1705.161
1166.751, 1695.106
1167.233, 1688.277
1167.715, 1692.857
1168.197, 1704.664
1168.679, 1711.346
1169.162, 1708.274
1169.644, 1703.226
1170.126, 1692.010
1170.608, 1687.484
1171.090, 1701.241
1171.572, 1727.512
1172.054, 1734.593
1172.536, 1726.063
1173.019, 1719.569
1173.501, 1725.088
1173.983, 1730.921
1174.465, 1733.779
1174.947, 1733.739
1175.429, 1728.901
1175.911, 1719.687
1176.393, 1718.156
1176.875, 1724.074
1177.358, 1732.505
1177.840, 1746.552
1178.322, 1755.663
1178.804, 1750.532
1179.286, 1738.673
1179.768, 1728.891
1180.250, 1721.164
1180.732, 1727.297
1181.214, 1748.575
1181.697, 1764.778
1182.179, 1750.453
1182.661, 1735.825
1183.143, 1748.800
1183.625, 1777.078
1184.107, 1783.299
1184.589, 1765.737
1185.071, 1754.364
1185.554, 1754.561
1186.036, 1759.155
1186.518, 1765.200
1187.000, 1770.080
1187.482, 1771.385
1187.964, 1769.246
1188.446, 1763.772
1188.928, 1754.025
1189.411, 1750.817
1189.893, 1759.308
1190.375, 1768.567
1190.857, 1764.900
1191.339, 1757.263
1191.821, 1757.529
1192.303, 1767.691
1192.785, 1760.814
1193.267, 1733.040
1193.750, 1716.385
1194.232, 1729.363
1194.714, 1750.418
1195.196, 1754.505
1195.678, 1751.130
1196.160, 1754.629
1196.642, 1771.216
1197.124, 1774.569
1197.606, 1762.710
1198.089, 1748.853
1198.571, 1738.542
1199.053, 1732.831
1199.535, 1736.202
1200.017, 1744.399
1200.499, 1749.373
1200.981, 1749.187
1201.463, 1747.721
1201.945, 1745.063
1202.428, 1741.039
1202.910, 1730.919
1203.392, 1722.696
1203.874, 1730.919
1204.356, 1749.579
1204.838, 1760.174
1205.320, 1758.467
1205.802, 1752.144
1206.285, 1740.103
1206.767, 1730.276
1207.249, 1733.161
1207.731, 1741.247
1208.213, 1741.746
1208.695, 1737.104
1209.177, 1745.858
1209.659, 1780.210
1210.141, 1799.839
1210.624, 1796.756
1211.106, 1784.417
1211.588, 1774.205
1212.070, 1766.847
1212.552, 1765.519
1213.034, 1769.714
1213.516, 1766.119
1213.998, 1747.327
1214.480, 1739.433
1214.963, 1751.197
1215.445, 1767.665
1215.927, 1768.824
1216.409, 1761.535
1216.891, 1754.449
1217.373, 1748.720
1217.855, 1745.197
1218.337, 1744.860
1218.820, 1743.480
1219.302, 1738.876
1219.784, 1734.529
1220.266, 1734.986
1220.748, 1739.467
1221.230, 1748.948
1221.712, 1765.882
1222.194, 1770.874
1222.677, 1759.491
1223.159, 1748.637
1223.641, 1746.393
1224.123, 1746.520
1224.605, 1734.123
1225.087, 1719.594
1225.569, 1721.414
1226.051, 1752.898
1226.533, 1769.101
1227.016, 1767.333
1227.498, 1757.365
1227.980, 1740.195
1228.462, 1722.782
1228.944, 1714.163
1229.426, 1713.149
1229.908, 1718.254
1230.390, 1732.143
1230.872, 1746.027
1231.355, 1761.198
1231.837, 1770.363
1232.319, 1762.787
1232.801, 1751.394
1233.283, 1757.567
1233.765, 1771.816
1234.247, 1773.916
1234.729, 1754.615
1235.212, 1739.304
1235.694, 1727.900
1236.176, 1722.163
1236.658, 1727.012
1237.140, 1735.398
1237.622, 1739.722
1238.104, 1741.040
1238.586, 1742.828
1239.068, 1746.596
1239.551, 1746.656
1240.033, 1742.500
1240.515, 1736.311
1240.997, 1725.218
1241.479, 1716.936
1241.961, 1722.479
1242.443, 1736.993
1242.925, 1745.593
1243.407, 1746.905
1243.890, 1746.080
1244.372, 1743.305
1244.854, 1740.930
1245.336, 1742.117
1245.818, 1743.619
1246.300, 1739.971
1246.782, 1734.490
1247.264, 1738.859
1247.747, 1754.413
1248.229, 1769.480
1248.711, 1783.304
1249.193, 1787.878
1249.675, 1767.537
1250.157, 1743.758
1250.639, 1733.059
1251.121, 1732.661
1251.604, 1733.116
1252.086, 1734.445
1252.568, 1739.805
1253.050, 1750.322
1253.532, 1757.637
1254.014, 1750.660
1254.496, 1742.448
1254.978, 1743.778
1255.460, 1750.264
1255.943, 1747.996
1256.425, 1737.838
1256.907, 1732.759
1257.389, 1735.702
1257.871, 1738.469
1258.353, 1731.934
1258.835, 1727.722
1259.317, 1734.790
1259.799, 1747.518
1260.281, 1746.729
1260.764, 1735.249
1261.246, 1727.262
1261.728, 1726.096
1262.210, 1727.432
1262.692, 1736.333
1263.174, 1738.079
1263.656, 1722.513
1264.138, 1698.634
1264.621, 1695.648
1265.103, 1706.082
1265.585, 1703.482
1266.067, 1677.539
1266.549, 1660.636
1267.031, 1671.771
1267.513, 1683.741
1267.995, 1686.678
1268.478, 1683.184
1268.960, 1675.590
1269.442, 1667.307
1269.924, 1666.982
1270.406, 1678.369
1270.888, 1691.035
1271.370, 1707.711
1271.852, 1715.218
1272.334, 1705.348
1272.817, 1685.950
1273.299, 1664.650
1273.781, 1646.859
1274.263, 1644.036
1274.745, 1665.908
1275.227, 1674.205
1275.709, 1664.756
1276.191, 1652.681
1276.673, 1643.739
1277.156, 1637.786
1277.638, 1637.173
1278.120, 1638.118
1278.602, 1633.659
1279.084, 1620.665
1279.566, 1617.723
1280.048, 1626.108
1280.530, 1633.988
1281.013, 1636.066
1281.495, 1634.725
1281.977, 1631.759
1282.459, 1627.045
1282.941, 1618.856
1283.423, 1606.439
1283.905, 1605.970
1284.387, 1617.192
1284.870, 1626.159
1285.352, 1626.226
1285.834, 1621.672
1286.316, 1611.113
1286.798, 1600.436
1287.280, 1594.927
1287.762, 1594.446
1288.244, 1599.571
1288.726, 1608.406
1289.208, 1609.390
1289.691, 1594.132
1290.173, 1575.274
1290.655, 1549.941
1291.137, 1531.386
1291.619, 1531.794
1292.101, 1546.426
1292.583, 1555.256
##END=



