##NAMES=Fornacite
##RRUFFID=R060932
##IDEAL CHEMISTRY=Cu^2+^Pb^2+^_2_(Cr^6+^O_4_)(As^5+^O_4_)(OH)
##LOCALITY=Tiger, Arizona, USA
##OWNER=RRUFF
##SOURCE=Bob Jenkins
##DESCRIPTION=Groups of tabular olive-green crystals
##STATUS=The identification of this mineral is confirmed by single-crystal X-ray diffraction and chemical analysis.
##URL=rruff.info/R060932
##MEASURED CHEMISTRY=Cu_1.00_(Pb_1.99_Fe_0.01_)_Σ=2_(Cr_1.00_O_4_)((As_0.97_P_0.03_)_Σ=1_O_4_)(OH)
145.1518, 3407.487
145.6339, 3487.434
146.1160, 3539.734
146.5981, 3575.090
147.0802, 3606.972
147.5623, 3638.648
148.0445, 3665.740
148.5266, 3679.874
149.0087, 3680.842
149.4908, 3679.890
149.9729, 3682.973
150.4550, 3685.509
150.9372, 3679.239
151.4193, 3661.464
151.9014, 3635.927
152.3835, 3604.475
152.8656, 3565.590
153.3477, 3534.138
153.8299, 3519.238
154.3120, 3516.086
154.7941, 3513.742
155.2762, 3510.323
155.7583, 3505.185
156.2404, 3495.465
156.7226, 3479.871
157.2047, 3469.643
157.6868, 3473.960
158.1689, 3489.105
158.6510, 3500.560
159.1331, 3501.057
159.6153, 3500.689
160.0974, 3511.993
160.5795, 3535.942
161.0616, 3562.294
161.5437, 3586.024
162.0258, 3607.180
162.5080, 3626.425
162.9901, 3644.486
163.4722, 3659.766
163.9543, 3671.264
164.4364, 3678.967
164.9185, 3683.404
165.4007, 3684.064
165.8828, 3681.165
166.3649, 3677.881
166.8470, 3674.609
167.3291, 3671.660
167.8112, 3670.941
168.2934, 3673.252
168.7755, 3671.816
169.2576, 3658.617
169.7397, 3633.769
170.2218, 3611.309
170.7039, 3599.069
171.1861, 3587.589
171.6682, 3567.235
172.1503, 3536.383
172.6324, 3505.978
173.1145, 3488.160
173.5966, 3483.780
174.0788, 3477.710
174.5609, 3468.578
175.0430, 3454.534
175.5251, 3430.773
176.0072, 3396.087
176.4893, 3363.044
176.9715, 3345.888
177.4536, 3345.985
177.9357, 3348.274
178.4178, 3352.375
178.8999, 3355.482
179.3820, 3356.648
179.8642, 3355.725
180.3463, 3350.219
180.8284, 3334.101
181.3105, 3304.665
181.7926, 3282.499
182.2747, 3276.343
182.7569, 3276.779
183.2390, 3279.896
183.7211, 3284.909
184.2032, 3290.020
184.6853, 3294.655
185.1674, 3299.807
185.6496, 3298.291
186.1317, 3279.330
186.6138, 3258.815
187.0959, 3246.440
187.5780, 3243.845
188.0601, 3245.539
188.5423, 3246.705
189.0244, 3248.055
189.5065, 3245.004
189.9886, 3234.343
190.4707, 3220.417
190.9528, 3201.968
191.4350, 3179.493
191.9171, 3162.103
192.3992, 3163.484
192.8813, 3188.117
193.3634, 3206.787
193.8455, 3216.774
194.3277, 3218.246
194.8098, 3206.299
195.2919, 3181.576
195.7740, 3155.750
196.2561, 3142.479
196.7382, 3143.703
197.2204, 3145.554
197.7025, 3149.710
198.1846, 3151.678
198.6667, 3146.984
199.1488, 3135.932
199.6309, 3125.021
200.1131, 3123.814
200.5952, 3135.201
201.0773, 3136.987
201.5594, 3111.008
202.0415, 3086.515
202.5236, 3082.978
203.0058, 3099.188
203.4879, 3112.955
203.9700, 3094.080
204.4521, 3035.759
204.9342, 3004.448
205.4163, 3039.967
205.8985, 3076.022
206.3806, 3077.291
206.8627, 3046.078
207.3448, 3010.938
207.8269, 3001.109
208.3090, 3018.855
208.7912, 3027.309
209.2733, 3018.819
209.7554, 3005.645
210.2375, 2988.874
210.7196, 2971.051
211.2017, 2959.218
211.6839, 2963.061
212.1660, 2982.924
212.6481, 2995.343
213.1302, 2998.040
213.6123, 2994.543
214.0944, 2983.602
214.5766, 2967.438
215.0587, 2952.087
215.5408, 2942.813
216.0229, 2939.172
216.5050, 2932.902
216.9871, 2918.438
217.4693, 2908.453
217.9514, 2910.351
218.4335, 2920.808
218.9156, 2932.093
219.3977, 2941.401
219.8798, 2947.768
220.3620, 2943.695
220.8441, 2919.109
221.3262, 2898.404
221.8083, 2894.172
222.2904, 2900.375
222.7725, 2905.596
223.2547, 2903.325
223.7368, 2895.234
224.2189, 2886.425
224.7010, 2874.574
225.1831, 2866.318
225.6652, 2866.297
226.1474, 2870.701
226.6295, 2873.825
227.1116, 2872.518
227.5937, 2868.686
228.0758, 2867.626
228.5579, 2871.791
229.0400, 2872.687
229.5222, 2861.184
230.0043, 2846.433
230.4864, 2840.224
230.9685, 2849.054
231.4506, 2864.907
231.9327, 2874.882
232.4149, 2878.213
232.8970, 2878.437
233.3791, 2872.595
233.8612, 2866.124
234.3433, 2866.131
234.8254, 2877.053
235.3076, 2887.758
235.7897, 2879.712
236.2718, 2849.235
236.7539, 2828.504
237.2360, 2838.670
237.7181, 2858.314
238.2003, 2867.764
238.6824, 2862.830
239.1645, 2853.439
239.6466, 2847.618
240.1287, 2845.345
240.6108, 2846.628
241.0930, 2855.323
241.5751, 2864.471
242.0572, 2867.331
242.5393, 2863.256
243.0214, 2856.371
243.5035, 2847.222
243.9857, 2836.813
244.4678, 2831.426
244.9499, 2833.790
245.4320, 2840.228
245.9141, 2848.171
246.3962, 2857.605
246.8784, 2864.007
247.3605, 2860.692
247.8426, 2852.338
248.3247, 2853.336
248.8068, 2869.323
249.2889, 2887.855
249.7711, 2896.365
250.2532, 2896.335
250.7353, 2894.554
251.2174, 2891.452
251.6995, 2888.555
252.1816, 2888.535
252.6638, 2891.847
253.1459, 2897.012
253.6280, 2905.331
254.1101, 2915.337
254.5922, 2919.233
255.0743, 2906.459
255.5565, 2892.185
256.0386, 2894.737
256.5207, 2914.954
257.0028, 2936.477
257.4849, 2948.642
257.9670, 2951.843
258.4492, 2952.900
258.9313, 2947.389
259.4134, 2943.613
259.8955, 2950.042
260.3776, 2964.635
260.8597, 2975.489
261.3419, 2974.315
261.8240, 2965.208
262.3061, 2964.708
262.7882, 2976.013
263.2703, 2991.125
263.7524, 3011.152
264.2346, 3032.671
264.7167, 3048.256
265.1988, 3054.633
265.6809, 3053.243
266.1630, 3046.502
266.6451, 3025.980
267.1273, 3014.623
267.6094, 3021.904
268.0915, 3038.906
268.5736, 3054.470
269.0557, 3065.069
269.5378, 3072.836
270.0200, 3081.156
270.5021, 3090.219
270.9842, 3099.584
271.4663, 3106.514
271.9484, 3115.433
272.4305, 3131.484
272.9127, 3154.941
273.3948, 3180.350
273.8769, 3201.739
274.3590, 3218.041
274.8411, 3233.632
275.3232, 3249.568
275.8054, 3263.968
276.2875, 3273.595
276.7696, 3280.142
277.2517, 3289.282
277.7338, 3305.872
278.2159, 3330.066
278.6981, 3355.245
279.1802, 3385.868
279.6623, 3412.682
280.1444, 3427.980
280.6265, 3438.150
281.1086, 3455.739
281.5908, 3489.575
282.0729, 3533.998
282.5550, 3562.423
283.0371, 3553.302
283.5192, 3557.940
284.0013, 3596.149
284.4835, 3646.473
284.9656, 3683.828
285.4477, 3698.061
285.9298, 3703.028
286.4119, 3727.683
286.8940, 3785.149
287.3762, 3828.866
287.8583, 3839.409
288.3404, 3843.713
288.8225, 3862.146
289.3046, 3897.883
289.7867, 3936.176
290.2688, 3958.997
290.7509, 3964.460
291.2331, 3976.224
291.7152, 3995.278
292.1973, 4023.544
292.6794, 4069.860
293.1615, 4129.170
293.6436, 4179.627
294.1258, 4196.324
294.6079, 4189.174
295.0900, 4206.311
295.5721, 4261.866
296.0542, 4317.588
296.5363, 4347.470
297.0185, 4360.116
297.5006, 4371.877
297.9827, 4386.729
298.4648, 4405.178
298.9469, 4430.849
299.4290, 4464.981
299.9112, 4494.386
300.3933, 4509.447
300.8754, 4515.459
301.3575, 4522.753
301.8396, 4532.137
302.3217, 4543.131
302.8039, 4554.382
303.2860, 4566.624
303.7681, 4584.561
304.2502, 4613.827
304.7323, 4644.632
305.2144, 4656.259
305.6966, 4641.896
306.1787, 4633.891
306.6608, 4650.698
307.1429, 4677.811
307.6250, 4690.483
308.1071, 4681.935
308.5893, 4670.163
309.0714, 4678.024
309.5535, 4711.958
310.0356, 4741.104
310.5177, 4760.486
310.9998, 4777.787
311.4820, 4796.336
311.9641, 4817.535
312.4462, 4844.930
312.9283, 4882.589
313.4104, 4930.607
313.8925, 4976.057
314.3747, 5007.499
314.8568, 5048.996
315.3389, 5112.504
315.8210, 5191.271
316.3031, 5271.761
316.7852, 5346.323
317.2674, 5420.457
317.7495, 5511.552
318.2316, 5633.309
318.7137, 5755.114
319.1958, 5872.908
319.6779, 5990.304
320.1601, 6106.293
320.6422, 6222.138
321.1243, 6349.801
321.6064, 6507.546
322.0885, 6703.053
322.5706, 6903.214
323.0528, 7114.324
323.5349, 7324.610
324.0170, 7523.865
324.4991, 7714.529
324.9812, 7910.443
325.4633, 8126.007
325.9455, 8356.999
326.4276, 8576.018
326.9097, 8780.969
327.3918, 8974.832
327.8739, 9164.885
328.3560, 9345.277
328.8382, 9506.256
329.3203, 9640.214
329.8024, 9756.261
330.2845, 9870.449
330.7666, 9984.359
331.2487, 10082.18
331.7309, 10161.28
332.2130, 10217.55
332.6951, 10246.08
333.1772, 10241.90
333.6593, 10225.48
334.1414, 10198.72
334.6236, 10168.67
335.1057, 10156.49
335.5878, 10169.47
336.0699, 10196.38
336.5520, 10223.44
337.0341, 10249.99
337.5163, 10284.25
337.9984, 10316.22
338.4805, 10363.75
338.9626, 10448.32
339.4447, 10569.45
339.9268, 10706.46
340.4090, 10840.60
340.8911, 10972.75
341.3732, 11130.48
341.8553, 11313.44
342.3374, 11517.31
342.8195, 11749.16
343.3017, 11998.87
343.7838, 12249.92
344.2659, 12495.84
344.7480, 12733.16
345.2301, 12952.87
345.7122, 13143.05
346.1944, 13330.17
346.6765, 13521.79
347.1586, 13705.78
347.6407, 13884.26
348.1228, 14051.17
348.6049, 14181.10
349.0871, 14240.93
349.5692, 14223.83
350.0513, 14185.75
350.5334, 14140.73
351.0155, 14057.23
351.4977, 13918.83
351.9798, 13733.32
352.4619, 13516.59
352.9440, 13278.39
353.4261, 13016.03
353.9082, 12715.10
354.3904, 12364.13
354.8725, 12015.30
355.3546, 11693.92
355.8367, 11383.86
356.3188, 11065.69
356.8009, 10735.81
357.2831, 10402.59
357.7652, 10063.68
358.2473, 9723.217
358.7294, 9418.795
359.2115, 9163.317
359.6936, 8940.892
360.1758, 8737.068
360.6579, 8550.491
361.1400, 8368.887
361.6221, 8176.981
362.1042, 7995.296
362.5863, 7847.401
363.0685, 7734.636
363.5506, 7642.263
364.0327, 7560.970
364.5148, 7491.064
364.9969, 7434.745
365.4790, 7386.015
365.9612, 7354.594
366.4433, 7349.435
366.9254, 7362.748
367.4075, 7381.119
367.8896, 7398.775
368.3717, 7421.438
368.8539, 7460.963
369.3360, 7523.358
369.8181, 7594.001
370.3002, 7671.336
370.7823, 7756.545
371.2644, 7853.478
371.7465, 7960.203
372.2286, 8068.733
372.7108, 8171.460
373.1929, 8268.575
373.6750, 8375.357
374.1571, 8520.559
374.6392, 8634.506
375.1213, 8677.242
375.6035, 8680.589
376.0856, 8695.622
376.5677, 8750.094
377.0498, 8805.811
377.5319, 8808.657
378.0140, 8757.106
378.4962, 8679.387
378.9783, 8582.741
379.4604, 8461.409
379.9425, 8311.258
380.4246, 8131.538
380.9067, 7938.281
381.3889, 7739.778
381.8710, 7533.225
382.3531, 7309.666
382.8352, 7067.289
383.3173, 6824.335
383.7994, 6591.886
384.2816, 6371.893
384.7637, 6176.064
385.2458, 6020.350
385.7279, 5873.157
386.2100, 5720.830
386.6921, 5565.214
387.1743, 5410.721
387.6564, 5259.327
388.1385, 5115.010
388.6206, 4987.550
389.1027, 4882.061
389.5848, 4787.634
390.0670, 4712.031
390.5491, 4640.788
391.0312, 4560.500
391.5133, 4472.255
391.9954, 4390.536
392.4775, 4327.758
392.9597, 4283.908
393.4418, 4248.149
393.9239, 4229.184
394.4060, 4206.059
394.8881, 4168.642
395.3702, 4124.163
395.8524, 4082.045
396.3345, 4045.706
396.8166, 4013.535
397.2987, 3984.312
397.7808, 3957.944
398.2629, 3931.894
398.7451, 3905.347
399.2272, 3879.019
399.7093, 3853.102
400.1914, 3827.400
400.6735, 3804.546
401.1556, 3785.819
401.6378, 3770.354
402.1199, 3758.278
402.6020, 3749.435
403.0841, 3739.037
403.5662, 3722.841
404.0483, 3702.160
404.5305, 3687.278
405.0126, 3687.384
405.4947, 3681.722
405.9768, 3662.263
406.4589, 3634.223
406.9410, 3602.772
407.4232, 3570.052
407.9053, 3540.324
408.3874, 3520.697
408.8695, 3515.960
409.3516, 3507.272
409.8337, 3496.116
410.3159, 3480.013
410.7980, 3453.298
411.2801, 3420.299
411.7622, 3391.193
412.2443, 3372.121
412.7264, 3361.281
413.2086, 3355.791
413.6907, 3359.917
414.1728, 3356.435
414.6549, 3331.055
415.1370, 3299.815
415.6191, 3278.128
416.1013, 3268.757
416.5834, 3257.941
417.0655, 3232.506
417.5476, 3198.557
418.0297, 3173.421
418.5118, 3160.763
418.9940, 3150.847
419.4761, 3134.408
419.9582, 3112.425
420.4403, 3097.110
420.9224, 3096.682
421.4045, 3095.335
421.8867, 3084.594
422.3688, 3066.729
422.8509, 3046.130
423.3330, 3024.395
423.8151, 3003.273
424.2972, 2985.885
424.7794, 2973.627
425.2615, 2962.852
425.7436, 2956.202
426.2257, 2948.601
426.7078, 2935.477
427.1899, 2918.268
427.6721, 2902.156
428.1542, 2890.707
428.6363, 2883.693
429.1184, 2880.898
429.6005, 2884.576
430.0826, 2887.622
430.5648, 2890.329
431.0469, 2889.952
431.5290, 2882.375
432.0111, 2866.205
432.4932, 2848.742
432.9753, 2834.311
433.4575, 2823.081
433.9396, 2816.640
434.4217, 2816.543
434.9038, 2815.891
435.3859, 2806.486
435.8680, 2789.746
436.3502, 2780.431
436.8323, 2784.818
437.3144, 2791.362
437.7965, 2798.262
438.2786, 2802.226
438.7607, 2793.483
439.2429, 2767.352
439.7250, 2736.431
440.2071, 2725.199
440.6892, 2746.093
441.1713, 2760.616
441.6534, 2765.484
442.1356, 2767.813
442.6177, 2771.942
443.0998, 2777.046
443.5819, 2779.628
444.0640, 2777.276
444.5461, 2770.756
445.0283, 2761.408
445.5104, 2747.155
445.9925, 2736.357
446.4746, 2734.529
446.9567, 2735.806
447.4388, 2735.523
447.9210, 2733.147
448.4031, 2729.721
448.8852, 2722.995
449.3673, 2716.342
449.8494, 2718.606
450.3315, 2731.491
450.8137, 2743.708
451.2958, 2746.105
451.7779, 2740.112
452.2600, 2738.435
452.7421, 2745.190
453.2242, 2751.133
453.7064, 2756.648
454.1884, 2758.414
454.6706, 2749.137
455.1527, 2727.568
455.6348, 2703.799
456.1169, 2691.989
456.5990, 2695.009
457.0811, 2695.502
457.5633, 2688.452
458.0454, 2683.811
458.5275, 2685.184
459.0096, 2691.134
459.4917, 2699.984
459.9738, 2712.384
460.4560, 2723.024
460.9381, 2722.694
461.4202, 2711.109
461.9023, 2699.595
462.3844, 2690.219
462.8665, 2682.639
463.3487, 2678.461
463.8308, 2677.251
464.3129, 2670.523
464.7950, 2646.422
465.2771, 2622.832
465.7592, 2622.078
466.2414, 2639.099
466.7235, 2647.719
467.2056, 2633.327
467.6877, 2604.253
468.1698, 2581.963
468.6519, 2568.670
469.1341, 2559.876
469.6162, 2559.011
470.0983, 2559.863
470.5804, 2560.835
471.0625, 2559.835
471.5446, 2551.316
472.0268, 2527.717
472.5089, 2494.862
472.9910, 2480.028
473.4731, 2491.290
473.9552, 2500.465
474.4373, 2494.203
474.9195, 2483.386
475.4016, 2476.925
475.8837, 2475.889
476.3658, 2478.526
476.8479, 2489.101
477.3300, 2501.119
477.8122, 2501.198
478.2943, 2487.833
478.7764, 2469.785
479.2585, 2450.785
479.7406, 2432.409
480.2227, 2425.719
480.7049, 2441.239
481.1870, 2453.391
481.6691, 2455.268
482.1512, 2451.783
482.6333, 2447.561
483.1154, 2443.969
483.5976, 2441.211
484.0797, 2440.162
484.5618, 2440.924
485.0439, 2436.540
485.5260, 2418.002
486.0081, 2407.645
486.4903, 2422.409
486.9724, 2444.708
487.4545, 2449.420
487.9366, 2427.017
488.4187, 2403.134
488.9008, 2404.760
489.3830, 2423.997
489.8651, 2430.297
490.3472, 2416.015
490.8293, 2402.194
491.3114, 2411.378
491.7935, 2441.195
492.2757, 2448.834
492.7578, 2411.305
493.2399, 2377.728
493.7220, 2370.506
494.2041, 2378.001
494.6862, 2382.776
495.1684, 2379.647
495.6505, 2375.471
496.1326, 2381.095
496.6147, 2399.794
497.0968, 2404.741
497.5789, 2383.837
498.0611, 2362.533
498.5432, 2346.028
499.0253, 2335.715
499.5074, 2335.238
499.9895, 2348.521
500.4716, 2361.531
500.9538, 2355.541
501.4359, 2335.102
501.9180, 2324.337
502.4001, 2330.054
502.8822, 2338.860
503.3643, 2338.654
503.8465, 2329.496
504.3286, 2320.460
504.8107, 2307.795
505.2928, 2299.579
505.7749, 2302.101
506.2570, 2310.691
506.7392, 2318.362
507.2213, 2322.750
507.7034, 2325.229
508.1855, 2327.978
508.6676, 2331.574
509.1497, 2331.832
509.6319, 2327.178
510.1140, 2320.762
510.5961, 2310.892
511.0782, 2300.843
511.5603, 2296.165
512.0424, 2299.590
512.5245, 2305.224
513.0067, 2308.755
513.4888, 2309.758
513.9709, 2305.462
514.4530, 2294.390
514.9351, 2282.178
515.4172, 2273.458
515.8994, 2268.419
516.3815, 2265.451
516.8636, 2268.185
517.3457, 2268.815
517.8278, 2261.448
518.3099, 2251.372
518.7921, 2245.575
519.2742, 2246.135
519.7563, 2251.109
520.2384, 2259.798
520.7205, 2272.853
521.2026, 2278.491
521.6848, 2271.857
522.1669, 2264.664
522.6490, 2259.930
523.1311, 2257.849
523.6132, 2259.711
524.0953, 2266.869
524.5775, 2273.029
525.0596, 2272.215
525.5417, 2267.013
526.0238, 2264.181
526.5059, 2264.918
526.9880, 2264.558
527.4702, 2258.657
527.9523, 2248.053
528.4344, 2241.823
528.9165, 2243.436
529.3986, 2244.418
529.8807, 2244.369
530.3629, 2242.296
530.8450, 2235.456
531.3271, 2224.501
531.8092, 2215.249
532.2913, 2214.115
532.7734, 2219.595
533.2556, 2221.656
533.7377, 2219.536
534.2198, 2215.788
534.7019, 2206.411
535.1840, 2198.761
535.6661, 2204.157
536.1483, 2226.168
536.6304, 2242.435
537.1125, 2237.388
537.5946, 2224.184
538.0767, 2218.219
538.5588, 2220.335
539.0410, 2226.765
539.5231, 2236.159
540.0052, 2246.086
540.4873, 2248.194
540.9694, 2235.146
541.4515, 2225.992
541.9337, 2223.160
542.4158, 2222.512
542.8979, 2223.471
543.3800, 2224.499
543.8621, 2221.284
544.3442, 2207.924
544.8264, 2193.041
545.3085, 2196.063
545.7906, 2217.159
546.2727, 2231.304
546.7548, 2230.673
547.2369, 2221.185
547.7191, 2206.383
548.2012, 2185.569
548.6833, 2174.923
549.1654, 2186.609
549.6475, 2198.744
550.1296, 2198.801
550.6118, 2189.997
551.0939, 2177.488
551.5760, 2163.490
552.0581, 2153.120
552.5402, 2155.891
553.0223, 2174.776
553.5045, 2189.375
553.9866, 2204.585
554.4687, 2208.250
554.9508, 2184.131
555.4329, 2149.564
555.9150, 2133.551
556.3972, 2147.453
556.8793, 2167.530
557.3614, 2177.160
557.8435, 2180.847
558.3256, 2190.482
558.8077, 2207.615
559.2899, 2216.579
559.7720, 2201.886
560.2541, 2168.289
560.7362, 2152.545
561.2183, 2175.286
561.7004, 2189.958
562.1826, 2189.827
562.6647, 2182.325
563.1468, 2169.766
563.6289, 2154.957
564.1110, 2145.820
564.5931, 2152.018
565.0753, 2165.614
565.5574, 2166.010
566.0395, 2152.299
566.5216, 2138.806
567.0037, 2129.093
567.4858, 2123.623
567.9680, 2125.961
568.4501, 2137.546
568.9322, 2141.065
569.4143, 2124.834
569.8964, 2108.907
570.3785, 2105.918
570.8607, 2112.602
571.3428, 2121.800
571.8249, 2130.528
572.3070, 2138.606
572.7891, 2146.356
573.2712, 2154.225
573.7534, 2158.128
574.2355, 2156.267
574.7176, 2152.995
575.1997, 2147.228
575.6818, 2142.443
576.1639, 2146.041
576.6461, 2163.767
577.1282, 2177.689
577.6103, 2175.404
578.0924, 2163.749
578.5745, 2150.104
579.0566, 2136.572
579.5388, 2129.911
580.0209, 2136.115
580.5030, 2151.927
580.9851, 2162.101
581.4672, 2164.223
581.9493, 2164.573
582.4315, 2162.069
582.9136, 2159.526
583.3957, 2159.718
583.8778, 2161.784
584.3599, 2161.899
584.8420, 2156.487
585.3242, 2149.833
585.8063, 2147.523
586.2884, 2149.124
586.7705, 2153.837
587.2526, 2162.974
587.7347, 2168.000
588.2169, 2156.536
588.6990, 2125.473
589.1811, 2110.092
589.6632, 2119.725
590.1453, 2132.240
590.6274, 2145.508
591.1096, 2155.869
591.5917, 2157.720
592.0738, 2150.640
592.5559, 2142.879
593.0380, 2141.645
593.5201, 2146.169
594.0023, 2154.826
594.4844, 2168.751
594.9665, 2179.563
595.4486, 2184.191
595.9307, 2183.064
596.4128, 2174.437
596.8950, 2154.777
597.3771, 2143.896
597.8592, 2152.437
598.3413, 2163.530
598.8234, 2168.372
599.3055, 2166.611
599.7877, 2156.504
600.2698, 2137.124
600.7519, 2119.840
601.2340, 2127.374
601.7161, 2161.601
602.1982, 2177.591
602.6804, 2162.586
603.1625, 2148.906
603.6446, 2159.346
604.1267, 2183.097
604.6088, 2201.412
605.0909, 2213.718
605.5731, 2217.745
606.0552, 2204.675
606.5373, 2187.835
607.0194, 2183.872
607.5015, 2191.459
607.9836, 2195.933
608.4658, 2187.184
608.9479, 2171.482
609.4300, 2166.667
609.9121, 2176.753
610.3942, 2183.454
610.8763, 2180.456
611.3585, 2178.291
611.8406, 2188.877
612.3227, 2205.520
612.8048, 2208.383
613.2869, 2182.275
613.7690, 2156.582
614.2512, 2153.028
614.7333, 2161.523
615.2154, 2164.228
615.6975, 2158.460
616.1796, 2153.576
616.6617, 2157.630
617.1439, 2169.101
617.6260, 2178.941
618.1081, 2187.006
618.5902, 2193.651
619.0723, 2203.249
619.5544, 2207.877
620.0366, 2197.120
620.5187, 2174.914
621.0008, 2159.848
621.4829, 2164.120
621.9650, 2174.163
622.4471, 2176.431
622.9293, 2174.725
623.4114, 2181.287
623.8935, 2199.074
624.3756, 2214.694
624.8577, 2213.745
625.3398, 2196.707
625.8220, 2181.755
626.3041, 2164.954
626.7862, 2156.833
627.2683, 2164.820
627.7504, 2177.389
628.2325, 2185.926
628.7147, 2189.561
629.1968, 2190.482
629.6789, 2185.576
630.1610, 2181.655
630.6431, 2188.387
631.1252, 2203.286
631.6074, 2218.154
632.0895, 2230.574
632.5716, 2239.322
633.0537, 2243.113
633.5358, 2242.057
634.0179, 2233.873
634.5001, 2205.412
634.9822, 2187.246
635.4643, 2191.767
635.9464, 2205.251
636.4285, 2217.258
636.9106, 2225.496
637.3928, 2226.716
637.8749, 2211.821
638.3570, 2193.270
638.8391, 2188.514
639.3212, 2195.317
639.8033, 2202.849
640.2855, 2207.362
640.7676, 2210.476
641.2497, 2214.599
641.7318, 2220.252
642.2139, 2222.396
642.6960, 2215.911
643.1782, 2212.342
643.6603, 2214.730
644.1424, 2220.969
644.6245, 2230.700
645.1066, 2243.357
645.5887, 2252.605
646.0709, 2256.627
646.5530, 2253.922
647.0351, 2236.550
647.5172, 2209.224
647.9993, 2192.424
648.4814, 2194.227
648.9636, 2205.833
649.4457, 2216.318
649.9278, 2226.310
650.4099, 2229.702
650.8920, 2214.610
651.3741, 2208.553
651.8563, 2225.778
652.3384, 2250.480
652.8205, 2268.072
653.3026, 2276.155
653.7847, 2276.928
654.2668, 2263.465
654.7490, 2248.877
655.2311, 2253.156
655.7132, 2270.974
656.1953, 2280.689
656.6774, 2274.304
657.1595, 2262.596
657.6417, 2259.841
658.1238, 2266.910
658.6059, 2271.419
659.0880, 2271.649
659.5701, 2271.941
660.0522, 2276.223
660.5343, 2279.405
661.0164, 2273.608
661.4985, 2258.766
661.9807, 2250.415
662.4628, 2259.203
662.9449, 2274.608
663.4270, 2291.692
663.9091, 2306.743
664.3912, 2308.956
664.8734, 2295.321
665.3555, 2278.109
665.8376, 2271.729
666.3197, 2275.926
666.8018, 2281.643
667.2839, 2292.279
667.7661, 2297.254
668.2482, 2286.823
668.7303, 2273.995
669.2124, 2272.028
669.6945, 2280.634
670.1766, 2285.570
670.6588, 2277.872
671.1409, 2269.535
671.6230, 2270.803
672.1051, 2276.549
672.5872, 2276.921
673.0693, 2269.888
673.5515, 2261.573
674.0336, 2257.581
674.5157, 2257.661
674.9978, 2260.790
675.4799, 2267.535
675.9620, 2275.118
676.4442, 2282.470
676.9263, 2290.795
677.4084, 2305.089
677.8905, 2323.782
678.3726, 2330.537
678.8547, 2310.755
679.3369, 2293.417
679.8190, 2294.962
680.3011, 2302.875
680.7832, 2301.401
681.2653, 2289.366
681.7474, 2276.395
682.2296, 2269.082
682.7117, 2266.556
683.1938, 2267.360
683.6759, 2271.519
684.1580, 2275.926
684.6401, 2278.870
685.1223, 2285.177
685.6044, 2302.487
686.0865, 2328.424
686.5686, 2340.239
687.0507, 2327.018
687.5328, 2315.878
688.0150, 2311.122
688.4971, 2309.642
688.9792, 2310.112
689.4613, 2311.595
689.9434, 2312.558
690.4255, 2312.192
690.9077, 2311.045
691.3898, 2307.819
691.8719, 2304.265
692.3540, 2307.901
692.8361, 2320.031
693.3182, 2333.036
693.8004, 2342.413
694.2825, 2348.016
694.7646, 2349.031
695.2467, 2340.066
695.7288, 2336.699
696.2109, 2345.899
696.6931, 2353.556
697.1752, 2351.475
697.6573, 2343.676
698.1394, 2336.999
698.6215, 2332.487
699.1036, 2333.066
699.5858, 2349.592
700.0679, 2367.231
700.5500, 2359.638
701.0321, 2331.827
701.5142, 2312.540
701.9963, 2315.785
702.4785, 2331.055
702.9606, 2342.342
703.4427, 2349.719
703.9248, 2351.821
704.4069, 2345.947
704.8890, 2340.145
705.3712, 2336.136
705.8533, 2334.992
706.3354, 2339.509
706.8175, 2350.771
707.2996, 2358.038
707.7817, 2353.576
708.2639, 2349.661
708.7460, 2354.049
709.2281, 2364.049
709.7102, 2376.639
710.1923, 2390.207
710.6744, 2400.453
711.1566, 2401.859
711.6387, 2397.472
712.1208, 2397.878
712.6029, 2403.234
713.0850, 2402.854
713.5671, 2390.264
714.0493, 2380.689
714.5314, 2393.857
715.0135, 2429.432
715.4956, 2446.191
715.9777, 2424.802
716.4598, 2411.186
716.9420, 2417.768
717.4241, 2429.900
717.9062, 2436.761
718.3883, 2438.399
718.8704, 2439.744
719.3525, 2442.524
719.8347, 2446.798
720.3168, 2454.960
720.7989, 2464.066
721.2810, 2467.020
721.7631, 2463.391
722.2452, 2458.271
722.7274, 2454.502
723.2095, 2453.247
723.6916, 2459.879
724.1737, 2479.472
724.6558, 2484.757
725.1379, 2462.539
725.6201, 2443.371
726.1022, 2447.359
726.5843, 2463.790
727.0664, 2476.310
727.5485, 2482.600
728.0306, 2489.936
728.5128, 2506.818
728.9949, 2519.367
729.4770, 2510.461
729.9591, 2491.913
730.4412, 2488.351
730.9233, 2506.778
731.4055, 2528.986
731.8876, 2534.621
732.3697, 2529.226
732.8518, 2528.946
733.3339, 2533.802
733.8160, 2549.558
734.2982, 2581.239
734.7803, 2613.672
735.2624, 2628.891
735.7445, 2626.368
736.2266, 2625.923
736.7087, 2629.115
737.1909, 2632.265
737.6730, 2628.792
738.1551, 2630.068
738.6372, 2652.921
739.1193, 2689.825
739.6014, 2709.581
740.0836, 2690.238
740.5657, 2668.725
741.0478, 2669.114
741.5299, 2684.944
742.0120, 2713.527
742.4941, 2749.618
742.9763, 2776.674
743.4584, 2784.486
743.9405, 2778.719
744.4226, 2765.757
744.9047, 2745.076
745.3868, 2738.893
745.8690, 2749.810
746.3511, 2772.686
746.8332, 2812.744
747.3153, 2857.057
747.7974, 2878.208
748.2795, 2865.160
748.7617, 2867.281
749.2438, 2901.866
749.7259, 2933.648
750.2080, 2944.297
750.6901, 2946.740
751.1722, 2959.962
751.6544, 2985.790
752.1365, 3006.872
752.6186, 3004.645
753.1007, 2997.443
753.5828, 3009.352
754.0649, 3034.396
754.5471, 3057.572
755.0292, 3075.066
755.5113, 3087.322
755.9934, 3092.702
756.4755, 3095.990
756.9576, 3118.768
757.4398, 3167.531
757.9219, 3204.415
758.4040, 3218.450
758.8861, 3229.353
759.3682, 3250.864
759.8503, 3279.256
760.3325, 3303.278
760.8146, 3320.267
761.2967, 3338.372
761.7788, 3360.475
762.2609, 3382.512
762.7430, 3400.188
763.2252, 3416.506
763.7073, 3436.795
764.1894, 3462.519
764.6715, 3490.813
765.1536, 3518.786
765.6357, 3547.964
766.1179, 3584.152
766.6000, 3624.319
767.0821, 3654.790
767.5642, 3671.498
768.0463, 3685.719
768.5284, 3709.177
769.0106, 3741.043
769.4927, 3776.026
769.9748, 3817.525
770.4569, 3849.658
770.9390, 3859.058
771.4211, 3872.361
771.9033, 3917.664
772.3854, 3984.986
772.8675, 4035.589
773.3496, 4054.209
773.8317, 4080.069
774.3138, 4133.334
774.7960, 4184.002
775.2781, 4205.983
775.7602, 4210.871
776.2423, 4223.253
776.7244, 4251.279
777.2065, 4286.092
777.6887, 4321.765
778.1708, 4358.524
778.6529, 4399.768
779.1350, 4443.076
779.6171, 4477.974
780.0992, 4501.038
780.5814, 4520.988
781.0635, 4545.459
781.5456, 4575.845
782.0277, 4624.970
782.5098, 4699.596
782.9919, 4764.671
783.4741, 4808.542
783.9562, 4848.532
784.4383, 4901.600
784.9204, 4963.668
785.4025, 5011.784
785.8846, 5030.865
786.3668, 5059.821
786.8489, 5108.008
787.3310, 5162.004
787.8131, 5213.111
788.2952, 5264.055
788.7773, 5324.585
789.2595, 5398.247
789.7416, 5462.888
790.2237, 5486.682
790.7058, 5504.351
791.1879, 5563.308
791.6700, 5652.009
792.1522, 5736.907
792.6343, 5807.492
793.1164, 5865.027
793.5985, 5905.618
794.0806, 5938.203
794.5627, 5998.634
795.0449, 6088.810
795.5270, 6182.145
796.0091, 6273.674
796.4912, 6366.888
796.9733, 6463.498
797.4554, 6564.352
797.9376, 6671.835
798.4197, 6792.596
798.9018, 6906.897
799.3839, 7016.247
799.8660, 7118.357
800.3481, 7195.740
800.8303, 7273.015
801.3124, 7388.377
801.7945, 7549.167
802.2766, 7721.190
802.7587, 7902.196
803.2408, 8076.423
803.7230, 8225.621
804.2051, 8364.139
804.6872, 8509.983
805.1693, 8668.958
805.6514, 8845.198
806.1335, 9045.255
806.6157, 9257.116
807.0978, 9452.212
807.5799, 9639.801
808.0620, 9873.770
808.5441, 10162.02
809.0262, 10447.11
809.5084, 10695.25
809.9905, 10924.05
810.4726, 11168.95
810.9547, 11429.24
811.4368, 11714.20
811.9189, 12041.26
812.4011, 12358.76
812.8832, 12641.01
813.3653, 12910.70
813.8474, 13197.54
814.3295, 13503.32
814.8116, 13803.12
815.2938, 14075.75
815.7759, 14367.03
816.2580, 14697.39
816.7401, 15046.00
817.2222, 15403.32
817.7043, 15760.81
818.1865, 16100.04
818.6686, 16408.78
819.1507, 16714.49
819.6328, 17053.40
820.1149, 17389.15
820.5970, 17671.18
821.0792, 17903.05
821.5613, 18107.74
822.0434, 18294.90
822.5255, 18476.60
823.0076, 18670.28
823.4897, 18868.60
823.9718, 19037.00
824.4539, 19176.02
824.9360, 19308.64
825.4182, 19445.43
825.9003, 19553.02
826.3824, 19599.50
826.8645, 19594.68
827.3466, 19582.98
827.8287, 19561.60
828.3109, 19541.04
828.7930, 19541.58
829.2751, 19517.45
829.7572, 19433.40
830.2393, 19316.16
830.7214, 19203.26
831.2036, 19097.78
831.6857, 18991.89
832.1678, 18907.18
832.6499, 18795.94
833.1320, 18611.81
833.6141, 18406.54
834.0963, 18246.33
834.5784, 18128.15
835.0605, 17990.84
835.5426, 17801.83
836.0247, 17588.46
836.5068, 17361.68
836.9890, 17134.68
837.4711, 16935.82
837.9532, 16758.66
838.4353, 16572.55
838.9174, 16362.64
839.3995, 16130.99
839.8817, 15869.55
840.3638, 15587.70
840.8459, 15327.40
841.3280, 15087.31
841.8101, 14854.38
842.2922, 14624.84
842.7744, 14394.46
843.2565, 14158.36
843.7386, 13916.50
844.2207, 13665.40
844.7028, 13393.50
845.1849, 13148.54
845.6671, 12951.14
846.1492, 12754.71
846.6313, 12527.77
847.1134, 12287.12
847.5955, 12067.28
848.0776, 11875.02
848.5598, 11674.65
849.0419, 11446.56
849.5240, 11230.44
850.0061, 11045.63
850.4882, 10877.09
850.9703, 10701.54
851.4525, 10523.23
851.9346, 10372.32
852.4167, 10278.19
852.8988, 10184.69
853.3809, 10043.56
853.8630, 9892.573
854.3452, 9779.863
854.8273, 9697.265
855.3094, 9610.077
855.7915, 9504.803
856.2736, 9396.936
856.7557, 9302.081
857.2379, 9215.975
857.7200, 9124.389
858.2021, 9032.827
858.6842, 8971.957
859.1663, 8948.397
859.6484, 8923.838
860.1306, 8862.552
860.6127, 8788.418
861.0948, 8781.292
861.5769, 8849.230
862.0590, 8864.462
862.5411, 8804.228
863.0233, 8742.655
863.5054, 8712.098
863.9875, 8704.870
864.4696, 8710.396
864.9517, 8729.953
865.4338, 8750.481
865.9160, 8771.806
866.3981, 8794.580
866.8802, 8814.201
867.3623, 8839.715
867.8444, 8884.581
868.3265, 8940.919
868.8087, 8981.815
869.2908, 8995.529
869.7729, 9013.256
870.2550, 9038.606
870.7371, 9072.885
871.2192, 9127.381
871.7014, 9186.247
872.1835, 9224.739
872.6656, 9240.178
873.1477, 9254.241
873.6298, 9285.953
874.1119, 9312.359
874.5941, 9310.949
875.0762, 9295.900
875.5583, 9286.160
876.0404, 9282.358
876.5225, 9278.417
877.0046, 9272.112
877.4868, 9254.175
877.9689, 9207.603
878.4510, 9143.936
878.9331, 9090.328
879.4152, 9044.376
879.8973, 8990.768
880.3795, 8924.795
880.8616, 8849.750
881.3437, 8766.523
881.8258, 8680.246
882.3079, 8612.030
882.7900, 8561.838
883.2722, 8474.927
883.7543, 8337.232
884.2364, 8219.819
884.7185, 8168.532
885.2006, 8135.802
885.6827, 8037.179
886.1649, 7865.739
886.6470, 7720.012
887.1291, 7603.783
887.6112, 7506.143
888.0933, 7439.103
888.5754, 7372.553
889.0576, 7278.678
889.5397, 7164.642
890.0218, 7060.135
890.5039, 6966.857
890.9860, 6879.649
891.4681, 6807.986
891.9503, 6731.795
892.4324, 6649.100
892.9145, 6553.208
893.3966, 6428.139
893.8787, 6275.559
894.3608, 6140.620
894.8430, 6047.321
895.3251, 5957.400
895.8072, 5852.130
896.2893, 5745.740
896.7714, 5653.904
897.2535, 5570.638
897.7357, 5482.899
898.2178, 5386.593
898.6999, 5282.146
899.1820, 5157.841
899.6641, 5036.298
900.1462, 4939.893
900.6284, 4863.381
901.1105, 4803.202
901.5926, 4753.419
902.0747, 4694.866
902.5568, 4614.125
903.0389, 4526.165
903.5211, 4450.832
904.0032, 4382.904
904.4853, 4305.310
904.9674, 4221.520
905.4495, 4154.669
905.9316, 4112.680
906.4138, 4078.189
906.8959, 4034.193
907.3780, 3982.370
907.8601, 3924.946
908.3422, 3862.753
908.8243, 3807.422
909.3065, 3760.353
909.7886, 3717.987
910.2707, 3678.874
910.7528, 3640.354
911.2349, 3596.978
911.7170, 3548.261
912.1992, 3510.024
912.6813, 3486.898
913.1634, 3452.314
913.6455, 3394.557
914.1276, 3335.591
914.6097, 3293.115
915.0919, 3264.930
915.5740, 3244.448
916.0561, 3237.332
916.5382, 3223.373
917.0203, 3200.541
917.5024, 3174.076
917.9846, 3142.020
918.4667, 3110.514
918.9488, 3088.166
919.4309, 3074.496
919.9130, 3056.320
920.3951, 3027.294
920.8773, 3002.922
921.3594, 2995.897
921.8415, 2982.117
922.3236, 2935.126
922.8057, 2878.043
923.2878, 2852.615
923.7700, 2865.746
924.2521, 2872.198
924.7342, 2856.553
925.2163, 2837.684
925.6984, 2823.494
926.1805, 2809.208
926.6627, 2787.608
927.1448, 2762.272
927.6269, 2743.041
928.1090, 2732.627
928.5911, 2728.919
929.0732, 2742.826
929.5554, 2750.879
930.0375, 2731.370
930.5196, 2696.251
931.0017, 2655.641
931.4838, 2616.796
931.9659, 2597.291
932.4481, 2611.416
932.9302, 2631.851
933.4123, 2643.329
933.8944, 2641.728
934.3765, 2613.784
934.8586, 2569.895
935.3408, 2532.784
935.8229, 2509.200
936.3050, 2496.194
936.7871, 2490.491
937.2692, 2495.429
937.7513, 2532.868
938.2335, 2579.034
938.7156, 2569.590
939.1977, 2511.053
939.6798, 2462.834
940.1619, 2450.062
940.6440, 2451.358
941.1262, 2445.647
941.6083, 2434.205
942.0904, 2418.165
942.5725, 2399.041
943.0546, 2384.626
943.5367, 2375.987
944.0189, 2369.093
944.5010, 2361.799
944.9831, 2353.446
945.4652, 2341.853
945.9473, 2327.849
946.4294, 2318.900
946.9116, 2314.822
947.3937, 2306.558
947.8758, 2291.480
948.3579, 2277.191
948.8400, 2269.664
949.3221, 2266.820
949.8043, 2263.641
950.2864, 2260.030
950.7685, 2257.841
951.2506, 2257.260
951.7327, 2257.248
952.2148, 2257.777
952.6970, 2258.000
953.1791, 2258.294
953.6612, 2256.645
954.1433, 2240.419
954.6254, 2201.881
955.1075, 2189.062
955.5897, 2216.038
956.0718, 2234.893
956.5539, 2222.367
957.0360, 2198.401
957.5181, 2186.117
958.0002, 2185.191
958.4824, 2191.869
958.9645, 2215.479
959.4466, 2221.352
959.9287, 2195.720
960.4108, 2170.619
960.8929, 2161.068
961.3751, 2162.646
961.8572, 2172.154
962.3393, 2191.429
962.8214, 2191.043
963.3035, 2152.658
963.7856, 2127.163
964.2678, 2128.188
964.7499, 2135.307
965.2320, 2139.197
965.7141, 2139.885
966.1962, 2136.963
966.6783, 2129.617
967.1605, 2122.696
967.6426, 2114.573
968.1247, 2109.218
968.6068, 2109.815
969.0889, 2111.058
969.5710, 2111.667
970.0532, 2109.731
970.5353, 2098.635
971.0174, 2071.979
971.4995, 2058.589
971.9816, 2076.456
972.4637, 2087.646
972.9459, 2073.224
973.4280, 2053.990
973.9101, 2049.869
974.3922, 2055.866
974.8743, 2052.835
975.3564, 2033.434
975.8386, 2019.432
976.3207, 2012.698
976.8028, 2014.355
977.2849, 2034.817
977.7670, 2056.308
978.2491, 2061.545
978.7313, 2051.586
979.2134, 2034.645
979.6955, 2003.772
980.1776, 1986.756
980.6597, 2003.835
981.1418, 2021.341
981.6240, 2018.746
982.1061, 2009.021
982.5882, 2010.750
983.0703, 2021.907
983.5524, 2021.693
984.0345, 1995.773
984.5167, 1976.409
984.9988, 1977.459
985.4809, 1984.659
985.9630, 1997.011
986.4451, 2005.598
986.9272, 1996.825
987.4094, 1971.803
987.8915, 1948.248
988.3736, 1927.054
988.8557, 1916.386
989.3378, 1925.945
989.8199, 1940.317
990.3020, 1954.581
990.7841, 1963.399
991.2662, 1957.241
991.7484, 1936.901
992.2305, 1919.115
992.7126, 1909.045
993.1947, 1904.404
993.6768, 1908.010
994.1589, 1913.092
994.6411, 1910.257
995.1232, 1907.239
995.6053, 1921.757
996.0874, 1953.844
996.5695, 1972.945
997.0516, 1956.034
997.5338, 1939.080
998.0159, 1942.999
998.4980, 1949.419
998.9801, 1938.543
999.4622, 1921.103
999.9443, 1919.322
1000.426, 1935.799
1000.909, 1948.521
1001.391, 1944.542
1001.873, 1939.279
1002.355, 1943.811
1002.837, 1946.715
1003.319, 1933.599
1003.801, 1913.638
1004.283, 1904.483
1004.766, 1909.028
1005.248, 1914.406
1005.730, 1915.930
1006.212, 1915.931
1006.694, 1912.395
1007.176, 1910.751
1007.658, 1918.069
1008.140, 1929.743
1008.622, 1938.788
1009.105, 1943.411
1009.587, 1940.096
1010.069, 1919.922
1010.551, 1901.139
1011.033, 1889.752
1011.515, 1885.712
1011.997, 1898.170
1012.479, 1914.159
1012.961, 1905.089
1013.444, 1867.640
1013.926, 1846.863
1014.408, 1881.169
1014.890, 1908.465
1015.372, 1892.048
1015.854, 1867.057
1016.336, 1859.038
1016.818, 1864.170
1017.301, 1876.020
1017.783, 1892.454
1018.265, 1897.797
1018.747, 1873.994
1019.229, 1855.110
1019.711, 1858.035
1020.193, 1866.992
1020.675, 1872.094
1021.157, 1874.038
1021.640, 1877.924
1022.122, 1883.798
1022.604, 1878.307
1023.086, 1845.476
1023.568, 1817.522
1024.050, 1800.103
1024.532, 1795.551
1025.014, 1818.008
1025.497, 1847.807
1025.979, 1852.658
1026.461, 1830.223
1026.943, 1813.194
1027.425, 1812.475
1027.907, 1813.380
1028.389, 1808.169
1028.871, 1808.045
1029.354, 1826.117
1029.836, 1849.785
1030.318, 1859.966
1030.800, 1856.061
1031.282, 1855.401
1031.764, 1866.102
1032.246, 1872.106
1032.728, 1872.294
1033.210, 1865.597
1033.693, 1842.610
1034.175, 1818.027
1034.657, 1813.047
1035.139, 1826.647
1035.621, 1833.538
1036.103, 1823.342
1036.585, 1819.759
1037.067, 1835.866
1037.549, 1845.079
1038.032, 1828.520
1038.514, 1805.365
1038.996, 1798.222
1039.478, 1804.899
1039.960, 1806.933
1040.442, 1797.151
1040.924, 1795.802
1041.406, 1808.902
1041.889, 1821.597
1042.371, 1829.953
1042.853, 1834.623
1043.335, 1836.476
1043.817, 1835.193
1044.299, 1828.982
1044.781, 1815.208
1045.263, 1802.981
1045.745, 1789.609
1046.228, 1784.429
1046.710, 1797.023
1047.192, 1806.561
1047.674, 1790.780
1048.156, 1760.684
1048.638, 1752.233
1049.120, 1770.235
1049.602, 1789.243
1050.084, 1814.386
1050.567, 1820.508
1051.049, 1794.778
1051.531, 1767.472
1052.013, 1761.063
1052.495, 1769.334
1052.977, 1779.798
1053.459, 1792.888
1053.941, 1796.540
1054.424, 1789.292
1054.906, 1785.705
1055.388, 1789.649
1055.870, 1791.451
1056.352, 1784.579
1056.834, 1773.694
1057.316, 1765.681
1057.798, 1760.800
1058.281, 1762.961
1058.763, 1771.724
1059.245, 1776.111
1059.727, 1774.453
1060.209, 1774.035
1060.691, 1778.844
1061.173, 1783.098
1061.655, 1778.237
1062.137, 1767.990
1062.620, 1765.375
1063.102, 1767.875
1063.584, 1762.256
1064.066, 1748.812
1064.548, 1739.128
1065.030, 1737.899
1065.512, 1743.373
1065.994, 1756.849
1066.476, 1770.766
1066.959, 1769.959
1067.441, 1760.775
1067.923, 1757.035
1068.405, 1758.423
1068.887, 1759.419
1069.369, 1758.568
1069.851, 1758.853
1070.333, 1763.273
1070.815, 1767.234
1071.298, 1766.172
1071.780, 1761.425
1072.262, 1752.720
1072.744, 1742.617
1073.226, 1735.115
1073.708, 1731.093
1074.190, 1730.453
1074.672, 1733.901
1075.155, 1737.706
1075.637, 1741.474
1076.119, 1742.374
1076.601, 1730.996
1077.083, 1720.174
1077.565, 1732.487
1078.047, 1760.333
1078.529, 1773.074
1079.011, 1759.415
1079.494, 1745.268
1079.976, 1739.638
1080.458, 1736.741
1080.940, 1735.583
1081.422, 1734.519
1081.904, 1729.199
1082.386, 1723.933
1082.868, 1731.692
1083.350, 1757.009
1083.833, 1763.920
1084.315, 1726.557
1084.797, 1701.607
1085.279, 1708.924
1085.761, 1719.847
1086.243, 1718.020
1086.725, 1711.371
1087.207, 1711.361
1087.690, 1717.557
1088.172, 1718.886
1088.654, 1711.439
1089.136, 1708.393
1089.618, 1710.803
1090.100, 1717.193
1090.582, 1728.928
1091.064, 1740.937
1091.547, 1749.444
1092.029, 1752.973
1092.511, 1742.611
1092.993, 1714.568
1093.475, 1709.691
1093.957, 1732.242
1094.439, 1745.458
1094.921, 1739.300
1095.403, 1724.864
1095.885, 1708.927
1096.368, 1694.959
1096.850, 1690.951
1097.332, 1694.720
1097.814, 1692.265
1098.296, 1685.647
1098.778, 1690.669
1099.260, 1707.828
1099.742, 1719.134
1100.225, 1715.999
1100.707, 1709.710
1101.189, 1713.745
1101.671, 1720.599
1102.153, 1714.827
1102.635, 1703.689
1103.117, 1702.354
1103.599, 1709.042
1104.082, 1716.000
1104.564, 1720.203
1105.046, 1718.507
1105.528, 1705.604
1106.010, 1693.987
1106.492, 1697.888
1106.974, 1703.860
1107.456, 1695.708
1107.938, 1682.511
1108.421, 1678.222
1108.903, 1683.512
1109.385, 1692.721
1109.867, 1706.381
1110.349, 1714.891
1110.831, 1710.310
1111.313, 1705.639
1111.795, 1709.940
1112.277, 1713.583
1112.760, 1705.202
1113.242, 1690.712
1113.724, 1684.181
1114.206, 1687.744
1114.688, 1690.535
1115.170, 1689.282
1115.652, 1692.868
1116.134, 1708.485
1116.617, 1718.507
1117.099, 1710.771
1117.581, 1699.394
1118.063, 1703.819
1118.545, 1719.465
1119.027, 1715.701
1119.509, 1687.333
1119.991, 1674.547
1120.474, 1680.899
1120.956, 1689.429
1121.438, 1696.056
1121.920, 1692.944
1122.402, 1671.554
1122.884, 1647.864
1123.366, 1657.733
1123.848, 1692.084
1124.330, 1710.534
1124.813, 1714.588
1125.295, 1708.975
1125.777, 1696.899
1126.259, 1691.537
1126.741, 1698.513
1127.223, 1704.817
1127.705, 1697.531
1128.187, 1683.636
1128.669, 1664.992
1129.152, 1650.555
1129.634, 1659.453
1130.116, 1681.200
1130.598, 1692.984
1131.080, 1690.289
1131.562, 1679.732
1132.044, 1658.526
1132.526, 1645.377
1133.009, 1654.589
1133.491, 1669.051
1133.973, 1683.503
1134.455, 1693.670
1134.937, 1693.873
1135.419, 1686.733
1135.901, 1678.602
1136.383, 1667.880
1136.865, 1667.911
1137.348, 1697.094
1137.830, 1709.319
1138.312, 1684.834
1138.794, 1663.722
1139.276, 1668.047
1139.758, 1683.700
1140.240, 1693.709
1140.722, 1698.223
1141.204, 1696.982
1141.687, 1688.819
1142.169, 1685.446
1142.651, 1688.121
1143.133, 1685.444
1143.615, 1673.555
1144.097, 1667.587
1144.579, 1680.115
1145.061, 1696.227
1145.544, 1686.176
1146.026, 1661.535
1146.508, 1659.510
1146.990, 1672.045
1147.472, 1672.946
1147.954, 1662.357
1148.436, 1658.412
1148.918, 1667.109
1149.401, 1673.004
1149.883, 1661.488
1150.365, 1648.097
1150.847, 1645.779
1151.329, 1648.766
1151.811, 1653.199
1152.293, 1657.849
1152.775, 1663.462
1153.257, 1668.468
1153.740, 1665.641
1154.222, 1649.044
1154.704, 1639.140
1155.186, 1646.885
1155.668, 1653.285
1156.150, 1647.694
1156.632, 1643.756
1157.114, 1650.259
1157.596, 1664.283
1158.079, 1683.970
1158.561, 1708.536
1159.043, 1716.255
1159.525, 1703.826
1160.007, 1687.495
1160.489, 1666.520
1160.971, 1653.377
1161.453, 1653.062
1161.936, 1655.895
1162.418, 1653.816
1162.900, 1650.146
1163.382, 1651.962
1163.864, 1657.472
1164.346, 1660.612
1164.828, 1661.611
1165.310, 1659.594
1165.792, 1656.170
1166.275, 1659.791
1166.757, 1672.996
1167.239, 1682.218
1167.721, 1677.696
1168.203, 1664.405
1168.685, 1634.408
1169.167, 1609.349
1169.649, 1617.070
1170.131, 1639.757
1170.614, 1652.145
1171.096, 1652.385
1171.578, 1648.588
1172.060, 1641.345
1172.542, 1633.984
1173.024, 1619.297
1173.506, 1616.112
1173.988, 1638.019
1174.471, 1660.022
1174.953, 1669.676
1175.435, 1670.262
1175.917, 1664.955
1176.399, 1654.959
1176.881, 1649.186
1177.363, 1647.814
1177.845, 1649.632
1178.328, 1654.774
1178.810, 1655.308
1179.292, 1649.067
1179.774, 1641.618
1180.256, 1636.422
1180.738, 1633.893
1181.220, 1634.392
1181.702, 1638.048
1182.184, 1650.945
1182.667, 1664.059
1183.149, 1655.919
1183.631, 1633.357
1184.113, 1618.036
1184.595, 1615.413
1185.077, 1619.806
1185.559, 1632.550
1186.041, 1642.269
1186.523, 1645.093
1187.006, 1641.500
1187.488, 1619.219
1187.970, 1601.578
1188.452, 1620.928
1188.934, 1659.371
1189.416, 1669.665
1189.898, 1649.187
1190.380, 1633.566
1190.863, 1621.729
1191.345, 1619.534
1191.827, 1631.015
1192.309, 1637.381
1192.791, 1630.635
1193.273, 1622.193
1193.755, 1621.950
1194.237, 1627.151
1194.719, 1634.621
1195.202, 1642.338
1195.684, 1640.197
1196.166, 1632.460
1196.648, 1634.208
1197.130, 1644.645
1197.612, 1652.907
1198.094, 1654.903
1198.576, 1650.598
1199.058, 1635.692
1199.541, 1622.661
1200.023, 1621.652
1200.505, 1624.087
1200.987, 1624.514
1201.469, 1623.959
1201.951, 1625.040
1202.433, 1626.472
1202.915, 1623.858
1203.398, 1616.259
1203.880, 1607.014
1204.362, 1590.289
1204.844, 1586.752
1205.326, 1605.057
1205.808, 1618.131
1206.290, 1614.266
1206.772, 1603.208
1207.255, 1592.869
1207.737, 1585.638
1208.219, 1588.920
1208.701, 1599.992
1209.183, 1608.380
1209.665, 1613.296
1210.147, 1609.329
1210.629, 1599.205
1211.111, 1598.325
1211.594, 1611.126
1212.076, 1620.491
1212.558, 1611.870
1213.040, 1602.429
1213.522, 1604.690
1214.004, 1610.099
1214.486, 1613.763
1214.968, 1615.847
1215.450, 1615.860
1215.933, 1615.025
1216.415, 1617.253
1216.897, 1623.523
1217.379, 1626.674
1217.861, 1626.611
1218.343, 1622.670
1218.825, 1611.980
1219.307, 1609.060
1219.790, 1621.584
1220.272, 1630.225
1220.754, 1617.079
1221.236, 1595.759
1221.718, 1592.849
1222.200, 1602.451
1222.682, 1607.824
1223.164, 1609.701
1223.646, 1610.464
1224.129, 1609.964
1224.611, 1604.979
1225.093, 1595.752
1225.575, 1591.211
1226.057, 1597.340
1226.539, 1605.419
1227.021, 1614.657
1227.503, 1619.949
1227.985, 1618.142
1228.468, 1611.549
1228.950, 1597.479
1229.432, 1582.636
1229.914, 1580.309
1230.396, 1589.603
1230.878, 1591.022
1231.360, 1582.787
1231.842, 1575.443
1232.325, 1569.082
1232.807, 1571.922
1233.289, 1586.236
1233.771, 1591.427
1234.253, 1573.860
1234.735, 1552.053
1235.217, 1549.599
1235.699, 1556.160
1236.181, 1554.737
1236.664, 1552.313
1237.146, 1562.618
1237.628, 1578.505
1238.110, 1585.128
1238.592, 1581.581
1239.074, 1576.235
1239.556, 1570.868
1240.038, 1565.756
1240.521, 1554.731
1241.003, 1554.040
1241.485, 1575.496
1241.967, 1592.826
1242.449, 1591.180
1242.931, 1586.123
1243.413, 1596.327
1243.895, 1612.491
1244.377, 1602.712
1244.859, 1572.247
1245.342, 1569.495
1245.824, 1588.640
1246.306, 1598.661
1246.788, 1596.709
1247.270, 1595.045
1247.752, 1597.591
1248.234, 1596.312
1248.716, 1583.180
1249.199, 1572.196
1249.681, 1576.588
1250.163, 1581.995
1250.645, 1576.552
1251.127, 1569.456
1251.609, 1571.206
1252.091, 1577.650
1252.573, 1579.311
1253.056, 1576.323
1253.538, 1572.019
1254.020, 1564.755
1254.502, 1565.288
1254.984, 1575.259
1255.466, 1580.390
1255.948, 1577.152
1256.430, 1572.277
1256.912, 1569.610
1257.395, 1566.145
1257.877, 1556.649
1258.359, 1547.320
1258.841, 1547.615
1259.323, 1552.579
1259.805, 1557.540
1260.287, 1561.417
1260.769, 1561.336
1261.251, 1559.507
1261.734, 1565.147
1262.216, 1582.011
1262.698, 1590.573
1263.180, 1586.913
1263.662, 1576.652
1264.144, 1553.179
1264.626, 1542.086
1265.108, 1555.711
1265.591, 1570.372
1266.073, 1566.877
1266.555, 1555.884
1267.037, 1555.070
1267.519, 1561.000
1268.001, 1567.176
1268.483, 1571.226
1268.965, 1562.377
1269.448, 1548.085
1269.930, 1551.057
1270.412, 1570.715
1270.894, 1580.751
1271.376, 1568.696
1271.858, 1562.625
##END=



