##NAMES=Fornacite
##RRUFFID=R060932
##IDEAL CHEMISTRY=Cu^2+^Pb^2+^_2_(Cr^6+^O_4_)(As^5+^O_4_)(OH)
##LOCALITY=Tiger, Arizona, USA
##OWNER=RRUFF
##SOURCE=Bob Jenkins
##DESCRIPTION=Groups of tabular olive-green crystals
##STATUS=The identification of this mineral is confirmed by single-crystal X-ray diffraction and chemical analysis.
##URL=rruff.info/R060932
##MEASURED CHEMISTRY=Cu_1.00_(Pb_1.99_Fe_0.01_)_Σ=2_(Cr_1.00_O_4_)((As_0.97_P_0.03_)_Σ=1_O_4_)(OH)
120.0767, 4464.271
120.5588, 4610.685
121.0409, 4749.771
121.5230, 4858.399
122.0051, 4918.006
122.4873, 4963.153
122.9694, 5025.452
123.4515, 5100.471
123.9336, 5163.288
124.4157, 5188.717
124.8979, 5191.581
125.3800, 5196.526
125.8621, 5217.187
126.3442, 5240.968
126.8263, 5246.411
127.3084, 5232.956
127.7905, 5219.966
128.2727, 5232.036
128.7548, 5262.159
129.2369, 5285.550
129.7190, 5280.690
130.2011, 5260.354
130.6832, 5262.976
131.1654, 5291.931
131.6475, 5335.795
132.1296, 5384.004
132.6117, 5436.318
133.0938, 5481.263
133.5759, 5506.899
134.0581, 5515.171
134.5402, 5532.566
135.0223, 5561.826
135.5044, 5600.733
135.9865, 5644.763
136.4686, 5694.346
136.9508, 5745.652
137.4329, 5800.043
137.9150, 5859.437
138.3971, 5903.404
138.8792, 5926.771
139.3613, 5931.965
139.8434, 5934.556
140.3256, 5934.964
140.8077, 5932.472
141.2898, 5925.158
141.7719, 5910.111
142.2540, 5898.962
142.7361, 5896.611
143.2183, 5904.372
143.7004, 5902.319
144.1825, 5884.260
144.6646, 5860.991
145.1467, 5848.109
145.6288, 5856.610
146.1110, 5858.710
146.5931, 5845.063
147.0752, 5807.542
147.5573, 5775.377
148.0394, 5747.475
148.5215, 5724.926
149.0037, 5709.860
149.4858, 5704.695
149.9679, 5704.926
150.4500, 5709.946
150.9321, 5734.630
151.4142, 5743.419
151.8964, 5727.539
152.3785, 5693.994
152.8606, 5666.925
153.3427, 5651.517
153.8248, 5640.662
154.3069, 5630.906
154.7890, 5618.228
155.2712, 5611.008
155.7533, 5615.763
156.2354, 5630.602
156.7175, 5637.130
157.1996, 5618.524
157.6817, 5596.855
158.1639, 5588.917
158.6460, 5618.438
159.1281, 5643.308
159.6102, 5646.378
160.0923, 5626.248
160.5744, 5608.806
161.0566, 5602.870
161.5387, 5603.701
162.0208, 5606.078
162.5029, 5609.234
162.9850, 5612.297
163.4671, 5618.310
163.9493, 5629.616
164.4314, 5628.755
164.9135, 5594.808
165.3956, 5544.544
165.8777, 5505.063
166.3598, 5499.699
166.8420, 5502.753
167.3241, 5493.547
167.8062, 5464.375
168.2883, 5438.913
168.7704, 5440.470
169.2525, 5458.802
169.7346, 5468.276
170.2168, 5448.291
170.6989, 5415.573
171.1810, 5386.461
171.6631, 5363.964
172.1452, 5346.104
172.6273, 5330.622
173.1095, 5317.985
173.5916, 5309.551
174.0737, 5310.125
174.5558, 5314.616
175.0379, 5314.801
175.5201, 5304.723
176.0022, 5293.765
176.4843, 5295.647
176.9664, 5308.909
177.4485, 5321.108
177.9306, 5318.750
178.4128, 5308.183
178.8949, 5302.950
179.3770, 5307.603
179.8591, 5319.872
180.3412, 5345.565
180.8233, 5385.317
181.3055, 5409.162
181.7876, 5372.842
182.2697, 5293.499
182.7518, 5227.588
183.2339, 5201.912
183.7160, 5204.287
184.1982, 5211.445
184.6803, 5224.733
185.1624, 5232.666
185.6445, 5216.737
186.1266, 5180.803
186.6087, 5147.938
187.0908, 5130.562
187.5730, 5124.965
188.0551, 5116.445
188.5372, 5103.187
189.0193, 5092.005
189.5014, 5096.737
189.9835, 5116.514
190.4657, 5130.634
190.9478, 5126.031
191.4299, 5105.134
191.9120, 5085.662
192.3941, 5068.838
192.8762, 5053.211
193.3584, 5035.517
193.8405, 5015.697
194.3226, 4997.457
194.8047, 4983.276
195.2868, 4973.107
195.7689, 4965.839
196.2511, 4963.503
196.7332, 4961.583
197.2153, 4946.933
197.6974, 4917.608
198.1795, 4888.916
198.6616, 4869.735
199.1438, 4860.061
199.6259, 4858.937
200.1080, 4869.789
200.5901, 4887.173
201.0722, 4891.899
201.5543, 4881.290
202.0364, 4868.381
202.5186, 4863.184
203.0007, 4866.692
203.4828, 4869.543
203.9649, 4871.289
204.4470, 4870.982
204.9291, 4862.704
205.4113, 4843.027
205.8934, 4823.876
206.3755, 4816.364
206.8576, 4822.938
207.3397, 4829.101
207.8218, 4832.884
208.3040, 4834.259
208.7861, 4833.181
209.2682, 4830.575
209.7503, 4824.174
210.2324, 4810.291
210.7145, 4786.364
211.1967, 4765.453
211.6788, 4750.561
212.1609, 4741.686
212.6430, 4735.395
213.1251, 4732.789
213.6072, 4731.529
214.0894, 4729.763
214.5715, 4728.518
215.0536, 4723.473
215.5357, 4710.975
216.0178, 4690.131
216.4999, 4680.647
216.9820, 4687.239
217.4642, 4699.388
217.9463, 4704.241
218.4284, 4698.088
218.9105, 4692.861
219.3926, 4692.972
219.8747, 4699.782
220.3569, 4699.442
220.8390, 4690.199
221.3211, 4675.435
221.8032, 4658.348
222.2853, 4636.476
222.7674, 4618.040
223.2496, 4606.458
223.7317, 4603.195
224.2138, 4598.837
224.6959, 4591.859
225.1780, 4585.137
225.6601, 4582.500
226.1423, 4583.719
226.6244, 4589.771
227.1065, 4603.495
227.5886, 4629.948
228.0707, 4642.306
228.5528, 4633.481
229.0350, 4614.602
229.5171, 4605.326
229.9992, 4610.824
230.4813, 4616.789
230.9634, 4620.014
231.4455, 4623.415
231.9276, 4612.243
232.4098, 4573.372
232.8919, 4526.143
233.3740, 4512.414
233.8561, 4554.864
234.3382, 4593.829
234.8203, 4606.556
235.3025, 4581.100
235.7846, 4563.128
236.2667, 4553.463
236.7488, 4550.984
237.2309, 4554.644
237.7130, 4569.958
238.1952, 4582.972
238.6773, 4588.320
239.1594, 4584.135
239.6415, 4577.276
240.1236, 4566.646
240.6057, 4553.720
241.0879, 4540.640
241.5700, 4522.520
242.0521, 4511.855
242.5342, 4514.617
243.0163, 4536.583
243.4984, 4558.725
243.9806, 4586.125
244.4627, 4611.926
244.9448, 4617.551
245.4269, 4587.324
245.9090, 4559.754
246.3911, 4551.358
246.8732, 4571.299
247.3554, 4588.348
247.8375, 4604.577
248.3196, 4617.116
248.8017, 4617.649
249.2838, 4599.061
249.7659, 4579.550
250.2481, 4566.170
250.7302, 4559.081
251.2123, 4558.789
251.6944, 4568.979
252.1765, 4585.036
252.6586, 4595.568
253.1408, 4598.713
253.6229, 4599.958
254.1050, 4601.873
254.5871, 4605.561
255.0692, 4607.880
255.5513, 4610.713
256.0334, 4611.574
256.5156, 4602.084
256.9977, 4572.764
257.4798, 4549.399
257.9619, 4545.274
258.4440, 4569.142
258.9261, 4586.608
259.4083, 4595.542
259.8904, 4598.722
260.3725, 4602.350
260.8546, 4605.542
261.3367, 4610.632
261.8188, 4619.275
262.3010, 4633.385
262.7831, 4644.305
263.2652, 4650.137
263.7473, 4653.762
264.2294, 4663.616
264.7115, 4684.336
265.1937, 4700.508
265.6758, 4700.403
266.1579, 4674.803
266.6400, 4674.123
267.1221, 4710.059
267.6042, 4762.330
268.0864, 4779.992
268.5685, 4743.678
269.0506, 4726.096
269.5327, 4774.871
270.0148, 4913.940
270.4969, 4991.421
270.9791, 4994.174
271.4612, 4949.021
271.9433, 4902.545
272.4254, 4851.922
272.9075, 4810.616
273.3896, 4785.020
273.8718, 4776.057
274.3539, 4778.722
274.8360, 4796.566
275.3181, 4821.347
275.8002, 4838.071
276.2823, 4845.200
276.7645, 4851.537
277.2466, 4860.285
277.7287, 4871.422
278.2108, 4884.823
278.6929, 4900.543
279.1750, 4918.343
279.6572, 4938.733
280.1393, 4962.070
280.6214, 4984.331
281.1035, 5002.627
281.5856, 5017.125
282.0677, 5036.379
282.5499, 5062.430
283.0320, 5088.115
283.5141, 5100.923
283.9962, 5100.301
284.4783, 5101.198
284.9604, 5109.487
285.4425, 5124.774
285.9247, 5143.510
286.4068, 5166.239
286.8889, 5190.251
287.3710, 5211.406
287.8531, 5229.957
288.3352, 5250.209
288.8174, 5276.094
289.2995, 5305.292
289.7816, 5326.727
290.2637, 5339.021
290.7458, 5349.449
291.2279, 5366.347
291.7101, 5388.787
292.1922, 5410.931
292.6743, 5430.667
293.1564, 5448.448
293.6385, 5465.923
294.1206, 5483.208
294.6028, 5497.860
295.0849, 5503.069
295.5670, 5502.618
296.0491, 5510.989
296.5312, 5537.677
297.0133, 5573.669
297.4955, 5603.191
297.9776, 5625.918
298.4597, 5644.472
298.9418, 5659.586
299.4239, 5672.004
299.9060, 5683.123
300.3882, 5692.534
300.8703, 5701.303
301.3524, 5706.272
301.8345, 5708.528
302.3166, 5720.671
302.7987, 5757.948
303.2809, 5810.310
303.7630, 5861.973
304.2451, 5908.709
304.7272, 5951.931
305.2093, 5993.230
305.6914, 6032.395
306.1736, 6065.674
306.6557, 6082.224
307.1378, 6095.177
307.6199, 6123.711
308.1020, 6183.106
308.5841, 6240.720
309.0663, 6259.559
309.5484, 6252.052
310.0305, 6259.106
310.5126, 6317.815
310.9947, 6394.447
311.4768, 6456.938
311.9590, 6494.281
312.4411, 6528.328
312.9232, 6568.631
313.4053, 6615.291
313.8874, 6667.472
314.3695, 6725.365
314.8517, 6789.361
315.3337, 6860.543
315.8159, 6940.312
316.2980, 7022.957
316.7801, 7108.918
317.2622, 7196.400
317.7443, 7283.250
318.2264, 7352.385
318.7086, 7432.877
319.1907, 7543.708
319.6728, 7694.121
320.1549, 7839.690
320.6370, 7966.209
321.1191, 8081.239
321.6013, 8194.788
322.0834, 8295.529
322.5655, 8406.049
323.0476, 8534.669
323.5297, 8683.186
324.0118, 8837.536
324.4940, 9012.759
324.9761, 9185.196
325.4582, 9332.324
325.9403, 9435.645
326.4224, 9529.906
326.9045, 9614.567
327.3867, 9688.540
327.8688, 9781.598
328.3509, 9930.836
328.8330, 10076.74
329.3151, 10178.38
329.7972, 10197.06
330.2794, 10223.28
330.7615, 10280.05
331.2436, 10359.55
331.7257, 10390.74
332.2078, 10343.17
332.6899, 10280.70
333.1721, 10242.04
333.6542, 10243.81
334.1363, 10236.81
334.6184, 10220.36
335.1005, 10193.23
335.5826, 10147.22
336.0648, 10070.83
336.5469, 9996.746
337.0290, 9937.974
337.5111, 9891.951
337.9932, 9873.637
338.4753, 9893.985
338.9575, 9931.679
339.4396, 9943.064
339.9217, 9922.382
340.4038, 9896.799
340.8859, 9874.542
341.3680, 9855.471
341.8502, 9849.268
342.3323, 9858.478
342.8144, 9875.289
343.2965, 9887.145
343.7786, 9893.991
344.2607, 9908.814
344.7429, 9947.822
345.2250, 10001.10
345.7071, 10011.79
346.1892, 9974.660
346.6713, 9929.545
347.1534, 9920.157
347.6355, 9940.769
348.1176, 9959.229
348.5998, 9971.336
349.0819, 9971.404
349.5640, 9941.987
350.0461, 9883.036
350.5282, 9819.564
351.0103, 9769.583
351.4925, 9729.376
351.9746, 9692.130
352.4567, 9661.578
352.9388, 9625.473
353.4209, 9563.609
353.9030, 9481.031
354.3852, 9399.971
354.8673, 9332.341
355.3494, 9275.231
355.8315, 9226.794
356.3136, 9189.715
356.7957, 9154.103
357.2779, 9115.035
357.7600, 9072.275
358.2421, 9025.772
358.7242, 8967.123
359.2063, 8909.986
359.6884, 8861.446
360.1706, 8820.938
360.6527, 8796.801
361.1348, 8800.003
361.6169, 8819.978
362.0990, 8842.637
362.5811, 8862.386
363.0633, 8884.817
363.5454, 8912.027
364.0275, 8944.059
364.5096, 8979.272
364.9917, 9026.151
365.4738, 9071.455
365.9560, 9104.536
366.4381, 9112.329
366.9202, 9119.906
367.4023, 9129.542
367.8844, 9141.789
368.3665, 9160.055
368.8487, 9187.079
369.3308, 9218.674
369.8129, 9253.762
370.2950, 9312.628
370.7771, 9343.241
371.2592, 9331.538
371.7414, 9292.775
372.2235, 9268.190
372.7056, 9270.501
373.1877, 9267.200
373.6698, 9241.472
374.1519, 9183.472
374.6341, 9146.183
375.1162, 9141.655
375.5983, 9144.802
376.0804, 9117.343
376.5625, 9055.091
377.0446, 8978.354
377.5267, 8889.407
378.0089, 8789.060
378.4910, 8701.266
378.9731, 8628.897
379.4552, 8560.399
379.9373, 8487.939
380.4194, 8410.966
380.9016, 8324.683
381.3837, 8222.039
381.8658, 8113.182
382.3479, 8026.975
382.8300, 7963.479
383.3121, 7897.863
383.7943, 7804.293
384.2764, 7694.524
384.7585, 7602.370
385.2406, 7538.931
385.7227, 7482.007
386.2048, 7399.711
386.6870, 7299.580
387.1691, 7207.395
387.6512, 7139.690
388.1333, 7087.917
388.6154, 7043.961
389.0975, 7008.323
389.5797, 6971.596
390.0618, 6924.563
390.5439, 6872.327
391.0260, 6823.756
391.5081, 6780.343
391.9902, 6743.721
392.4724, 6720.112
392.9545, 6708.708
393.4366, 6689.169
393.9187, 6643.328
394.4008, 6591.116
394.8829, 6547.622
395.3651, 6528.016
395.8472, 6505.417
396.3293, 6471.974
396.8114, 6430.014
397.2935, 6388.073
397.7756, 6335.047
398.2578, 6292.177
398.7399, 6270.287
399.2220, 6286.662
399.7041, 6291.590
400.1862, 6283.436
400.6683, 6263.973
401.1505, 6234.563
401.6326, 6181.375
402.1147, 6138.459
402.5968, 6116.618
403.0789, 6117.748
403.5610, 6117.027
404.0432, 6115.706
404.5253, 6110.978
405.0074, 6098.387
405.4895, 6074.932
405.9716, 6057.079
406.4537, 6052.369
406.9359, 6053.780
407.4180, 6028.694
407.9001, 5971.296
408.3822, 5920.110
408.8643, 5907.476
409.3464, 5928.916
409.8285, 5940.584
410.3106, 5937.929
410.7928, 5924.925
411.2749, 5902.295
411.7570, 5871.968
412.2391, 5846.818
412.7212, 5836.932
413.2033, 5835.271
413.6855, 5828.954
414.1676, 5817.571
414.6497, 5804.077
415.1318, 5789.778
415.6139, 5775.309
416.0960, 5761.981
416.5782, 5748.573
417.0603, 5737.693
417.5424, 5733.921
418.0245, 5735.530
418.5066, 5734.437
418.9887, 5731.151
419.4709, 5720.745
419.9530, 5696.413
420.4351, 5645.527
420.9172, 5605.563
421.3993, 5597.971
421.8814, 5609.467
422.3636, 5615.411
422.8457, 5607.957
423.3278, 5596.567
423.8099, 5585.932
424.2920, 5578.272
424.7741, 5560.513
425.2563, 5520.570
425.7384, 5477.102
426.2205, 5447.135
426.7026, 5437.778
427.1847, 5429.963
427.6668, 5421.953
428.1490, 5413.676
428.6311, 5404.488
429.1132, 5392.530
429.5953, 5382.761
430.0774, 5378.424
430.5595, 5380.034
431.0417, 5384.901
431.5238, 5397.014
432.0059, 5405.727
432.4880, 5384.469
432.9701, 5331.832
433.4522, 5293.248
433.9344, 5292.222
434.4165, 5319.854
434.8986, 5348.849
435.3807, 5380.280
435.8628, 5397.326
436.3449, 5372.437
436.8271, 5320.391
437.3092, 5280.261
437.7913, 5267.568
438.2734, 5263.635
438.7555, 5246.406
439.2376, 5219.354
439.7197, 5195.687
440.2018, 5180.800
440.6840, 5174.049
441.1661, 5176.722
441.6482, 5190.854
442.1303, 5205.178
442.6124, 5224.570
443.0945, 5237.818
443.5767, 5229.474
444.0588, 5159.672
444.5409, 5101.584
445.0230, 5086.186
445.5051, 5113.203
445.9872, 5137.695
446.4694, 5160.222
446.9515, 5172.972
447.4336, 5170.622
447.9157, 5133.084
448.3978, 5109.752
448.8799, 5108.289
449.3621, 5119.983
449.8442, 5124.114
450.3263, 5116.234
450.8084, 5109.643
451.2905, 5111.236
451.7726, 5122.196
452.2548, 5119.810
452.7369, 5099.244
453.2190, 5075.781
453.7011, 5068.030
454.1832, 5076.464
454.6653, 5079.559
455.1475, 5070.370
455.6296, 5055.202
456.1117, 5051.134
456.5938, 5057.418
457.0759, 5059.516
457.5580, 5043.724
458.0402, 5017.535
458.5223, 4995.949
459.0044, 4980.356
459.4865, 4969.177
459.9686, 4961.705
460.4507, 4957.405
460.9329, 4955.053
461.4150, 4958.748
461.8971, 4960.663
462.3792, 4953.133
462.8613, 4937.362
463.3434, 4924.223
463.8256, 4926.813
464.3077, 4929.000
464.7898, 4918.018
465.2719, 4878.474
465.7540, 4846.764
466.2361, 4833.476
466.7183, 4832.093
467.2004, 4829.801
467.6825, 4822.396
468.1646, 4817.393
468.6467, 4816.780
469.1288, 4820.856
469.6110, 4827.440
470.0930, 4841.619
470.5752, 4851.789
471.0573, 4845.659
471.5394, 4817.666
472.0215, 4795.274
472.5036, 4783.846
472.9857, 4778.697
473.4679, 4765.931
473.9500, 4744.809
474.4321, 4727.214
474.9142, 4721.725
475.3963, 4725.651
475.8784, 4729.508
476.3606, 4733.933
476.8427, 4732.414
477.3248, 4711.561
477.8069, 4679.724
478.2890, 4656.785
478.7711, 4653.929
479.2533, 4657.398
479.7354, 4655.493
480.2175, 4648.721
480.6996, 4638.984
481.1817, 4620.124
481.6638, 4603.344
482.1460, 4597.913
482.6281, 4607.384
483.1102, 4619.187
483.5923, 4636.341
484.0744, 4650.676
484.5565, 4652.329
485.0387, 4617.927
485.5208, 4593.224
486.0029, 4597.116
486.4850, 4625.031
486.9671, 4629.103
487.4492, 4588.052
487.9314, 4548.302
488.4135, 4536.610
488.8956, 4565.928
489.3777, 4584.400
489.8598, 4590.645
490.3419, 4587.774
490.8241, 4578.039
491.3062, 4560.383
491.7883, 4546.927
492.2704, 4542.889
492.7525, 4545.528
493.2346, 4545.985
493.7168, 4544.234
494.1989, 4540.813
494.6810, 4537.115
495.1631, 4531.847
495.6452, 4520.792
496.1273, 4501.520
496.6095, 4482.303
497.0916, 4470.298
497.5737, 4464.582
498.0558, 4463.472
498.5379, 4473.798
499.0201, 4482.455
499.5022, 4478.806
499.9843, 4463.571
500.4664, 4451.517
500.9485, 4452.761
501.4306, 4456.146
501.9127, 4454.228
502.3948, 4441.890
502.8770, 4430.640
503.3591, 4418.820
503.8412, 4409.233
504.3233, 4407.613
504.8054, 4422.348
505.2875, 4431.053
505.7697, 4425.911
506.2518, 4407.508
506.7339, 4394.150
507.2160, 4385.528
507.6981, 4382.603
508.1802, 4390.746
508.6624, 4409.579
509.1445, 4414.521
509.6266, 4399.460
510.1087, 4378.251
510.5908, 4374.084
511.0729, 4383.750
511.5551, 4391.110
512.0372, 4386.275
512.5193, 4376.032
513.0014, 4367.904
513.4835, 4362.153
513.9656, 4361.654
514.4478, 4377.387
514.9299, 4394.731
515.4120, 4397.554
515.8941, 4374.362
516.3762, 4354.160
516.8583, 4352.112
517.3405, 4359.945
517.8226, 4364.341
518.3047, 4357.044
518.7868, 4351.455
519.2689, 4351.780
519.7510, 4357.963
520.2332, 4364.659
520.7153, 4376.591
521.1974, 4383.194
521.6795, 4371.643
522.1616, 4326.200
522.6437, 4323.609
523.1259, 4379.035
523.6080, 4460.507
524.0901, 4528.789
524.5722, 4585.309
525.0543, 4589.203
525.5364, 4499.135
526.0186, 4361.578
526.5007, 4289.510
526.9828, 4282.026
527.4649, 4314.614
527.9470, 4421.305
528.4291, 4539.143
528.9113, 4564.263
529.3934, 4463.159
529.8755, 4349.125
530.3576, 4295.912
530.8397, 4282.093
531.3218, 4275.368
531.8040, 4268.160
532.2861, 4262.635
532.7682, 4261.250
533.2503, 4263.155
533.7324, 4262.689
534.2145, 4258.152
534.6967, 4251.953
535.1788, 4245.057
535.6609, 4237.627
536.1430, 4229.098
536.6251, 4218.267
537.1072, 4207.934
537.5894, 4201.429
538.0715, 4198.900
538.5536, 4200.175
539.0357, 4207.299
539.5178, 4216.526
539.9999, 4213.277
540.4821, 4197.875
540.9642, 4191.021
541.4463, 4215.095
541.9284, 4254.431
542.4105, 4275.767
542.8926, 4277.234
543.3748, 4266.606
543.8569, 4236.380
544.3390, 4202.441
544.8211, 4187.487
545.3032, 4213.380
545.7853, 4236.051
546.2675, 4223.014
546.7495, 4190.481
547.2316, 4175.655
547.7137, 4213.370
548.1959, 4246.823
548.6780, 4251.698
549.1601, 4222.973
549.6422, 4211.198
550.1243, 4230.566
550.6064, 4251.738
551.0886, 4253.152
551.5707, 4227.748
552.0528, 4207.889
552.5349, 4196.968
553.0170, 4190.509
553.4991, 4177.791
553.9813, 4158.841
554.4634, 4151.647
554.9455, 4169.975
555.4276, 4200.348
555.9097, 4212.176
556.3918, 4206.603
556.8740, 4194.092
557.3561, 4175.847
557.8382, 4157.558
558.3203, 4146.463
558.8024, 4144.264
559.2845, 4145.570
559.7667, 4140.253
560.2488, 4139.314
560.7309, 4155.510
561.2130, 4230.062
561.6951, 4280.208
562.1772, 4272.644
562.6594, 4221.897
563.1415, 4189.739
563.6236, 4188.454
564.1057, 4190.741
564.5878, 4185.017
565.0699, 4169.568
565.5521, 4171.691
566.0342, 4198.589
566.5163, 4225.781
566.9984, 4226.324
567.4805, 4201.831
567.9626, 4188.455
568.4448, 4193.083
568.9269, 4206.374
569.4090, 4217.657
569.8911, 4226.577
570.3732, 4232.271
570.8553, 4234.479
571.3375, 4233.091
571.8196, 4225.720
572.3017, 4213.445
572.7838, 4203.618
573.2659, 4200.059
573.7480, 4199.952
574.2302, 4202.377
574.7123, 4209.545
575.1944, 4212.424
575.6765, 4202.356
576.1586, 4191.014
576.6407, 4190.731
577.1229, 4209.054
577.6050, 4224.807
578.0871, 4235.241
578.5692, 4241.674
579.0513, 4248.309
579.5334, 4255.951
580.0156, 4259.602
580.4977, 4254.584
580.9798, 4243.371
581.4619, 4237.646
581.9440, 4237.492
582.4261, 4239.138
582.9083, 4238.088
583.3904, 4236.879
583.8725, 4240.392
584.3546, 4250.559
584.8367, 4261.748
585.3188, 4272.547
585.8010, 4281.228
586.2831, 4285.251
586.7652, 4279.834
587.2473, 4273.642
587.7294, 4268.360
588.2115, 4264.270
588.6937, 4262.806
589.1758, 4265.029
589.6579, 4268.733
590.1400, 4274.451
590.6221, 4283.422
591.1042, 4282.653
591.5864, 4266.761
592.0685, 4253.572
592.5506, 4265.351
593.0327, 4300.461
593.5148, 4324.157
593.9969, 4329.383
594.4791, 4325.969
594.9612, 4326.395
595.4433, 4329.783
595.9254, 4333.517
596.4075, 4332.693
596.8896, 4334.531
597.3718, 4351.029
597.8539, 4378.264
598.3360, 4395.521
598.8181, 4382.173
599.3002, 4364.900
599.7823, 4361.469
600.2645, 4380.320
600.7466, 4386.740
601.2287, 4359.570
601.7108, 4332.925
602.1929, 4338.771
602.6750, 4396.009
603.1572, 4433.864
603.6393, 4442.475
604.1214, 4432.931
604.6035, 4421.882
605.0856, 4409.009
605.5677, 4410.054
606.0499, 4441.218
606.5320, 4484.417
607.0141, 4497.669
607.4962, 4484.119
607.9783, 4467.571
608.4604, 4465.662
608.9425, 4467.887
609.4246, 4459.615
609.9067, 4436.501
610.3889, 4425.768
610.8710, 4450.533
611.3531, 4487.719
611.8352, 4516.471
612.3173, 4529.806
612.7994, 4539.404
613.2816, 4545.277
613.7637, 4548.373
614.2458, 4550.061
614.7279, 4549.337
615.2100, 4550.081
615.6921, 4552.805
616.1743, 4558.003
616.6564, 4570.078
617.1385, 4589.474
617.6206, 4605.240
618.1027, 4605.757
618.5848, 4598.462
619.0670, 4602.317
619.5491, 4618.854
620.0312, 4632.472
620.5133, 4620.891
620.9954, 4604.092
621.4775, 4607.645
621.9597, 4654.621
622.4418, 4690.713
622.9239, 4685.687
623.4060, 4661.163
623.8881, 4651.841
624.3702, 4678.556
624.8524, 4698.387
625.3345, 4702.137
625.8166, 4693.452
626.2987, 4689.881
626.7808, 4692.128
627.2629, 4697.038
627.7451, 4704.651
628.2272, 4714.174
628.7093, 4718.176
629.1914, 4716.288
629.6735, 4716.322
630.1556, 4725.016
630.6378, 4740.308
631.1199, 4761.634
631.6020, 4792.459
632.0841, 4815.038
632.5662, 4810.767
633.0483, 4793.332
633.5305, 4780.432
634.0126, 4782.057
634.4947, 4783.586
634.9768, 4778.363
635.4589, 4770.569
635.9410, 4772.947
636.4232, 4790.587
636.9053, 4809.402
637.3874, 4825.094
637.8695, 4837.923
638.3516, 4853.593
638.8337, 4873.412
639.3159, 4887.736
639.7980, 4884.286
640.2801, 4869.838
640.7622, 4868.022
641.2443, 4881.443
641.7264, 4896.521
642.2086, 4900.263
642.6907, 4898.881
643.1728, 4899.884
643.6549, 4902.954
644.1370, 4913.111
644.6191, 4940.201
645.1013, 4974.299
645.5834, 4998.752
646.0655, 5008.443
646.5476, 5010.999
647.0297, 5003.474
647.5118, 4989.196
647.9940, 4982.688
648.4761, 4983.523
648.9582, 4993.020
649.4403, 5017.237
649.9224, 5051.628
650.4045, 5070.783
650.8867, 5074.531
651.3688, 5071.820
651.8509, 5063.867
652.3330, 5056.274
652.8151, 5059.317
653.2972, 5075.871
653.7794, 5094.978
654.2615, 5115.578
654.7436, 5132.703
655.2257, 5140.960
655.7078, 5123.790
656.1899, 5116.751
656.6721, 5133.337
657.1542, 5160.768
657.6363, 5175.299
658.1184, 5169.841
658.6005, 5169.053
659.0826, 5179.375
659.5648, 5198.841
660.0469, 5225.077
660.5290, 5258.409
661.0111, 5280.021
661.4932, 5267.556
661.9753, 5239.458
662.4575, 5232.498
662.9396, 5246.632
663.4217, 5261.378
663.9038, 5258.968
664.3859, 5253.507
664.8680, 5259.019
665.3502, 5282.385
665.8323, 5301.348
666.3144, 5305.455
666.7965, 5305.293
667.2786, 5311.848
667.7607, 5331.218
668.2429, 5343.087
668.7250, 5339.774
669.2071, 5333.556
669.6892, 5354.936
670.1713, 5404.911
670.6534, 5434.293
671.1355, 5417.886
671.6176, 5381.107
672.0997, 5372.028
672.5818, 5385.911
673.0640, 5402.408
673.5461, 5410.273
674.0282, 5416.466
674.5103, 5427.913
674.9924, 5444.660
675.4745, 5458.544
675.9567, 5469.521
676.4388, 5475.131
676.9209, 5472.087
677.4030, 5456.440
677.8851, 5448.343
678.3672, 5447.462
678.8494, 5454.674
679.3315, 5475.174
679.8136, 5509.359
680.2957, 5529.661
680.7778, 5528.249
681.2599, 5525.506
681.7421, 5555.201
682.2242, 5605.370
682.7063, 5643.386
683.1884, 5651.149
683.6705, 5653.710
684.1526, 5670.002
684.6348, 5695.150
685.1169, 5718.760
685.5990, 5742.570
686.0811, 5759.059
686.5632, 5762.639
687.0453, 5755.861
687.5275, 5752.179
688.0096, 5751.020
688.4917, 5754.622
688.9738, 5763.174
689.4559, 5777.042
689.9380, 5804.050
690.4202, 5845.123
690.9023, 5883.933
691.3844, 5902.141
691.8665, 5909.445
692.3486, 5926.879
692.8307, 5958.641
693.3129, 5983.639
693.7950, 5977.956
694.2771, 5963.020
694.7592, 5960.728
695.2413, 5983.858
695.7234, 6006.496
696.2056, 6024.478
696.6877, 6040.059
697.1698, 6054.571
697.6519, 6064.579
698.1340, 6086.200
698.6161, 6128.877
699.0983, 6177.328
699.5804, 6189.854
700.0625, 6170.693
700.5446, 6159.801
701.0267, 6089.959
701.5089, 6151.387
701.9910, 6195.423
702.4731, 6223.005
702.9552, 6184.863
703.4373, 6231.593
703.9194, 6244.308
704.4016, 6255.636
704.8837, 6314.312
705.3658, 6285.727
705.8479, 6343.651
706.3300, 6367.044
706.8121, 6406.238
707.2943, 6411.218
707.7764, 6426.763
708.2585, 6476.538
708.7406, 6507.361
709.2227, 6508.396
709.7048, 6548.595
710.1870, 6518.823
710.6691, 6550.454
711.1512, 6608.576
711.6333, 6611.331
712.1154, 6652.159
712.5975, 6653.875
713.0797, 6711.094
713.5618, 6763.362
714.0439, 6797.398
714.5260, 6822.017
715.0081, 6852.170
715.4902, 6889.562
715.9724, 6928.154
716.4545, 6967.481
716.9366, 7006.543
717.4187, 7038.846
717.9008, 7064.607
718.3829, 7097.964
718.8651, 7150.279
719.3472, 7209.961
719.8293, 7261.886
720.3114, 7306.037
720.7935, 7344.488
721.2756, 7378.591
721.7578, 7406.734
722.2399, 7420.597
722.7220, 7420.134
723.2041, 7439.119
723.6862, 7498.114
724.1683, 7561.979
724.6505, 7617.849
725.1326, 7666.402
725.6147, 7694.224
726.0968, 7694.236
726.5789, 7697.370
727.0610, 7736.145
727.5432, 7801.233
728.0253, 7858.622
728.5074, 7904.285
728.9895, 7946.141
729.4716, 7989.364
729.9537, 8033.235
730.4359, 8077.154
730.9180, 8125.718
731.4001, 8165.596
731.8822, 8176.653
732.3643, 8184.794
732.8464, 8224.942
733.3285, 8318.658
733.8106, 8395.519
734.2927, 8442.560
734.7748, 8475.013
735.2570, 8523.583
735.7391, 8586.998
736.2212, 8647.691
736.7033, 8699.540
737.1854, 8746.418
737.6675, 8790.325
738.1497, 8833.184
738.6318, 8881.199
739.1139, 8948.975
739.5960, 9011.411
740.0781, 9047.217
740.5602, 9063.115
741.0424, 9103.872
741.5245, 9185.728
742.0066, 9272.907
742.4887, 9355.265
742.9708, 9432.372
743.4529, 9503.794
743.9351, 9569.307
744.4172, 9628.556
744.8993, 9670.516
745.3814, 9708.340
745.8635, 9772.967
746.3456, 9864.303
746.8278, 9963.403
747.3099, 10071.33
747.7920, 10171.14
748.2741, 10243.23
748.7562, 10275.95
749.2383, 10328.95
749.7205, 10434.56
750.2026, 10540.81
750.6847, 10611.29
751.1668, 10638.62
751.6489, 10668.01
752.1310, 10697.84
752.6132, 10740.29
753.0953, 10807.28
753.5774, 10898.40
754.0595, 11013.84
754.5416, 11162.12
755.0237, 11304.29
755.5059, 11405.67
755.9880, 11483.96
756.4701, 11562.77
756.9522, 11642.63
757.4343, 11729.24
757.9164, 11823.66
758.3986, 11924.35
758.8807, 12033.45
759.3628, 12155.00
759.8449, 12266.02
760.3270, 12356.81
760.8091, 12443.35
761.2913, 12568.25
761.7734, 12720.53
762.2555, 12850.13
762.7376, 12923.75
763.2197, 12988.33
763.7018, 13084.86
764.1840, 13206.76
764.6661, 13340.85
765.1482, 13495.97
765.6303, 13644.54
766.1124, 13769.08
766.5945, 13879.68
767.0767, 14012.93
767.5588, 14180.19
768.0409, 14333.55
768.5230, 14442.58
769.0051, 14528.63
769.4872, 14679.08
769.9694, 14887.99
770.4515, 15089.32
770.9336, 15237.14
771.4157, 15361.89
771.8978, 15487.33
772.3799, 15616.27
772.8621, 15756.34
773.3442, 15918.34
773.8263, 16086.88
774.3084, 16259.74
774.7905, 16437.54
775.2726, 16595.49
775.7548, 16725.11
776.2369, 16859.08
776.7190, 17011.77
777.2011, 17185.37
777.6832, 17397.69
778.1653, 17649.33
778.6475, 17880.85
779.1296, 18006.24
779.6117, 18109.41
780.0938, 18294.84
780.5759, 18581.83
781.0580, 18844.52
781.5402, 19013.99
782.0223, 19166.15
782.5044, 19348.93
782.9865, 19561.76
783.4686, 19804.11
783.9507, 20088.34
784.4329, 20374.42
784.9150, 20624.84
785.3971, 20850.14
785.8792, 21096.33
786.3613, 21371.27
786.8434, 21653.17
787.3256, 21916.87
787.8077, 22176.36
788.2898, 22450.18
788.7719, 22739.72
789.2540, 23044.12
789.7361, 23369.84
790.2183, 23704.33
790.7004, 24024.60
791.1825, 24312.40
791.6646, 24664.04
792.1467, 25099.11
792.6288, 25561.33
793.1110, 25988.12
793.5930, 26382.96
794.0751, 26769.15
794.5573, 27137.85
795.0394, 27532.22
795.5215, 27983.89
796.0036, 28474.60
796.4857, 28985.64
796.9678, 29518.68
797.4500, 30056.54
797.9321, 30607.13
798.4142, 31161.93
798.8963, 31704.93
799.3784, 32235.15
799.8605, 32798.63
800.3427, 33410.02
800.8248, 34048.75
801.3069, 34686.27
801.7890, 35330.59
802.2711, 36012.64
802.7532, 36754.21
803.2354, 37514.43
803.7175, 38289.17
804.1996, 39072.67
804.6817, 39860.62
805.1638, 40633.96
805.6459, 41436.30
806.1281, 42273.32
806.6102, 43143.24
807.0923, 44038.53
807.5744, 44964.70
808.0565, 45868.82
808.5386, 46718.34
809.0208, 47571.10
809.5029, 48515.57
809.9850, 49524.59
810.4671, 50518.53
810.9492, 51446.79
811.4313, 52369.32
811.9135, 53314.23
812.3956, 54268.51
812.8777, 55202.33
813.3598, 56100.07
813.8419, 57006.97
814.3240, 57949.94
814.8062, 58889.88
815.2883, 59750.36
815.7704, 60530.14
816.2525, 61295.95
816.7346, 62084.44
817.2167, 62852.38
817.6989, 63564.91
818.1810, 64218.28
818.6631, 64808.58
819.1452, 65329.26
819.6273, 65802.72
820.1094, 66245.98
820.5916, 66644.57
821.0737, 66951.55
821.5558, 67160.50
822.0379, 67289.35
822.5200, 67325.42
823.0021, 67302.42
823.4843, 67311.63
823.9664, 67331.20
824.4485, 67273.49
824.9306, 67086.14
825.4127, 66815.49
825.8948, 66489.10
826.3770, 66104.49
826.8591, 65650.55
827.3412, 65098.85
827.8233, 64505.74
828.3054, 63876.30
828.7875, 63215.15
829.2697, 62573.58
829.7518, 61949.70
830.2339, 61244.84
830.7160, 60389.33
831.1981, 59459.23
831.6802, 58561.49
832.1624, 57679.08
832.6445, 56787.80
833.1266, 55887.07
833.6087, 54963.95
834.0908, 53989.13
834.5729, 52992.66
835.0551, 52042.31
835.5372, 51164.22
836.0193, 50287.25
836.5014, 49400.88
836.9835, 48499.20
837.4656, 47577.77
837.9478, 46647.72
838.4299, 45733.15
838.9120, 44839.05
839.3941, 43957.35
839.8762, 43067.99
840.3583, 42183.81
840.8405, 41329.74
841.3226, 40525.38
841.8047, 39753.41
842.2868, 39031.75
842.7689, 38328.79
843.2510, 37575.26
843.7332, 36761.04
844.2153, 35990.21
844.6974, 35303.73
845.1795, 34651.07
845.6616, 33948.95
846.1437, 33221.74
846.6259, 32535.39
847.1080, 31939.85
847.5901, 31365.38
848.0722, 30776.41
848.5543, 30190.54
849.0364, 29637.84
849.5186, 29116.62
850.0007, 28630.02
850.4828, 28188.71
850.9649, 27769.07
851.4470, 27314.26
851.9291, 26837.62
852.4113, 26403.34
852.8934, 26042.16
853.3755, 25698.91
853.8576, 25309.56
854.3397, 24911.97
854.8218, 24558.04
855.3040, 24297.96
855.7860, 24033.41
856.2681, 23741.94
856.7502, 23453.03
857.2324, 23209.01
857.7145, 23013.76
858.1966, 22825.10
858.6787, 22635.79
859.1608, 22447.69
859.6429, 22254.23
860.1251, 22063.82
860.6072, 21884.72
861.0893, 21720.10
861.5714, 21564.46
862.0535, 21423.21
862.5356, 21284.59
863.0178, 21129.32
863.4999, 20942.99
863.9820, 20788.29
864.4641, 20677.29
864.9462, 20583.74
865.4283, 20475.61
865.9105, 20361.23
866.3926, 20269.14
866.8747, 20211.03
867.3568, 20142.55
867.8389, 20021.11
868.3210, 19883.04
868.8032, 19761.28
869.2853, 19670.41
869.7674, 19579.69
870.2495, 19490.18
870.7316, 19398.40
871.2137, 19299.97
871.6959, 19195.63
872.1780, 19091.37
872.6601, 18987.19
873.1422, 18889.54
873.6243, 18811.89
874.1064, 18737.70
874.5886, 18646.95
875.0707, 18534.27
875.5528, 18420.28
876.0349, 18308.03
876.5170, 18195.18
876.9991, 18081.28
877.4813, 17966.12
877.9634, 17854.14
878.4455, 17746.99
878.9276, 17627.88
879.4097, 17474.06
879.8918, 17306.54
880.3740, 17160.34
880.8561, 17035.67
881.3382, 16911.74
881.8203, 16791.66
882.3024, 16658.28
882.7845, 16489.98
883.2667, 16293.41
883.7488, 16139.12
884.2309, 16040.36
884.7130, 15930.71
885.1951, 15764.19
885.6772, 15570.83
886.1594, 15424.75
886.6415, 15318.77
887.1236, 15213.92
887.6057, 15102.37
888.0878, 14973.58
888.5699, 14809.36
889.0521, 14620.85
889.5342, 14461.15
890.0163, 14351.28
890.4984, 14224.59
890.9805, 14056.07
891.4626, 13866.05
891.9448, 13695.77
892.4269, 13546.81
892.9090, 13422.54
893.3911, 13345.13
893.8732, 13262.89
894.3553, 13126.24
894.8375, 12958.28
895.3196, 12804.41
895.8017, 12685.56
896.2838, 12559.39
896.7659, 12416.43
897.2480, 12270.39
897.7302, 12143.34
898.2123, 12034.91
898.6944, 11916.24
899.1765, 11780.35
899.6586, 11644.39
900.1407, 11529.62
900.6229, 11424.84
901.1050, 11318.02
901.5871, 11204.13
902.0692, 11090.73
902.5513, 10968.90
903.0334, 10855.53
903.5156, 10769.85
903.9977, 10712.36
904.4798, 10642.49
904.9619, 10557.87
905.4440, 10462.41
905.9261, 10347.41
906.4083, 10230.46
906.8904, 10132.08
907.3725, 10055.99
907.8546, 9988.074
908.3367, 9944.507
908.8188, 9886.838
909.3010, 9785.401
909.7831, 9640.985
910.2652, 9570.110
910.7473, 9579.455
911.2294, 9581.310
911.7115, 9506.041
912.1937, 9395.935
912.6758, 9308.132
913.1579, 9242.400
913.6400, 9187.514
914.1221, 9153.078
914.6042, 9113.250
915.0864, 9056.059
915.5685, 8986.447
916.0506, 8922.131
916.5327, 8863.664
917.0148, 8805.903
917.4969, 8746.510
917.9790, 8687.330
918.4611, 8626.702
918.9432, 8568.967
919.4254, 8523.940
919.9075, 8512.955
920.3896, 8494.843
920.8717, 8448.044
921.3538, 8390.435
921.8359, 8347.866
922.3181, 8322.722
922.8002, 8300.661
923.2823, 8281.696
923.7644, 8258.267
924.2465, 8214.260
924.7286, 8160.743
925.2108, 8122.076
925.6929, 8108.076
926.1750, 8086.386
926.6571, 8034.016
927.1392, 7974.530
927.6213, 7927.289
928.1035, 7897.673
928.5856, 7854.010
929.0677, 7791.594
929.5498, 7736.741
930.0319, 7719.469
930.5140, 7720.731
930.9962, 7700.420
931.4783, 7658.484
931.9604, 7619.213
932.4425, 7600.049
932.9246, 7580.625
933.4067, 7548.685
933.8889, 7506.595
934.3710, 7467.710
934.8531, 7432.848
935.3352, 7398.072
935.8173, 7361.727
936.2994, 7325.486
936.7816, 7290.877
937.2637, 7259.499
937.7458, 7236.840
938.2279, 7237.492
938.7100, 7233.232
939.1921, 7213.327
939.6743, 7182.203
940.1564, 7143.601
940.6385, 7093.436
941.1206, 7057.688
941.6027, 7042.781
942.0848, 7033.822
942.5670, 7010.816
943.0491, 6979.704
943.5312, 6948.924
944.0133, 6918.172
944.4954, 6897.222
944.9775, 6901.435
945.4597, 6908.342
945.9418, 6901.631
946.4239, 6879.952
946.9060, 6850.096
947.3881, 6809.974
947.8702, 6774.874
948.3524, 6761.235
948.8345, 6758.105
949.3166, 6748.546
949.7987, 6732.361
950.2808, 6715.068
950.7629, 6696.890
951.2451, 6680.789
951.7272, 6671.282
952.2093, 6664.671
952.6914, 6639.837
953.1735, 6593.807
953.6556, 6563.484
954.1378, 6572.124
954.6199, 6589.225
955.1020, 6570.065
955.5841, 6528.234
956.0662, 6490.638
956.5483, 6466.673
957.0305, 6448.018
957.5126, 6434.870
957.9947, 6424.896
958.4768, 6414.559
958.9589, 6403.597
959.4410, 6401.040
959.9232, 6409.124
960.4053, 6416.652
960.8874, 6414.085
961.3695, 6403.793
961.8516, 6387.126
962.3337, 6363.321
962.8159, 6340.907
963.2980, 6317.920
963.7801, 6301.210
964.2622, 6298.077
964.7443, 6305.739
965.2264, 6292.125
965.7086, 6258.469
966.1907, 6228.801
966.6728, 6219.077
967.1549, 6217.970
967.6370, 6225.083
968.1191, 6233.358
968.6013, 6219.346
969.0834, 6143.031
969.5655, 6103.698
970.0476, 6133.130
970.5297, 6186.369
971.0118, 6169.396
971.4940, 6097.143
971.9761, 6048.695
972.4582, 6044.631
972.9403, 6059.999
973.4224, 6097.088
973.9045, 6131.789
974.3867, 6135.986
974.8688, 6092.143
975.3509, 6061.913
975.8330, 6049.496
976.3151, 6040.252
976.7972, 6019.666
977.2794, 5993.728
977.7615, 5980.857
978.2436, 5980.805
978.7257, 5985.033
979.2078, 6001.411
979.6899, 6008.234
980.1720, 5985.918
980.6541, 5942.191
981.1362, 5912.180
981.6183, 5897.344
982.1005, 5890.724
982.5826, 5892.886
983.0647, 5897.753
983.5468, 5895.803
984.0289, 5888.753
984.5110, 5880.273
984.9932, 5871.843
985.4753, 5861.661
985.9574, 5843.878
986.4395, 5828.103
986.9216, 5826.227
987.4037, 5841.379
987.8859, 5835.557
988.3680, 5805.035
988.8501, 5778.463
989.3322, 5791.819
989.8143, 5815.961
990.2964, 5815.411
990.7786, 5788.447
991.2607, 5762.025
991.7428, 5735.680
992.2249, 5720.972
992.7070, 5727.616
993.1891, 5746.023
993.6713, 5738.156
994.1534, 5708.043
994.6355, 5685.374
995.1176, 5686.920
995.5997, 5692.353
996.0818, 5685.108
996.5640, 5671.644
997.0461, 5661.834
997.5282, 5657.409
998.0103, 5655.725
998.4924, 5657.785
998.9745, 5659.936
999.4567, 5658.970
999.9388, 5654.889
1000.421, 5646.053
1000.903, 5632.385
1001.385, 5621.862
1001.867, 5627.822
1002.349, 5630.136
1002.831, 5611.856
1003.314, 5577.030
1003.796, 5559.881
1004.278, 5562.915
1004.760, 5563.368
1005.242, 5547.960
1005.724, 5530.758
1006.206, 5541.161
1006.688, 5564.197
1007.171, 5569.075
1007.653, 5513.817
1008.135, 5485.015
1008.617, 5508.612
1009.099, 5545.480
1009.581, 5551.713
1010.063, 5529.036
1010.545, 5510.521
1011.027, 5498.455
1011.510, 5493.731
1011.992, 5507.384
1012.474, 5520.992
1012.956, 5514.848
1013.438, 5487.619
1013.920, 5474.242
1014.402, 5483.027
1014.884, 5488.246
1015.367, 5479.838
1015.849, 5462.919
1016.331, 5450.200
1016.813, 5439.366
1017.295, 5422.024
1017.777, 5378.267
1018.259, 5353.263
1018.741, 5386.315
1019.223, 5435.276
1019.706, 5452.561
1020.188, 5431.852
1020.670, 5414.405
1021.152, 5401.678
1021.634, 5394.553
1022.116, 5397.906
1022.598, 5404.875
1023.080, 5408.984
1023.563, 5409.325
1024.045, 5401.732
1024.527, 5376.752
1025.009, 5354.797
1025.491, 5340.657
1025.973, 5334.142
1026.455, 5340.512
1026.937, 5356.140
1027.419, 5361.256
1027.901, 5345.588
1028.384, 5324.988
1028.866, 5302.914
1029.348, 5285.882
1029.830, 5283.409
1030.312, 5302.780
1030.794, 5314.555
1031.276, 5319.021
1031.758, 5315.468
1032.241, 5296.932
1032.723, 5273.137
1033.205, 5262.248
1033.687, 5263.147
1034.169, 5262.037
1034.651, 5248.503
1035.133, 5238.401
1035.615, 5237.297
1036.098, 5241.583
1036.580, 5239.658
1037.062, 5232.775
1037.544, 5241.529
1038.026, 5279.644
1038.508, 5305.974
1038.990, 5265.282
1039.472, 5204.704
1039.954, 5178.519
1040.437, 5205.954
1040.919, 5218.241
1041.401, 5212.394
1041.883, 5201.207
1042.365, 5193.557
1042.847, 5186.762
1043.329, 5171.526
1043.811, 5150.707
1044.293, 5135.279
1044.776, 5133.728
1045.258, 5134.038
1045.740, 5129.802
1046.222, 5127.165
1046.704, 5141.706
1047.186, 5173.115
1047.668, 5182.889
1048.150, 5162.440
1048.633, 5140.843
1049.115, 5149.765
1049.597, 5167.120
1050.079, 5170.871
1050.561, 5156.173
1051.043, 5146.483
1051.525, 5142.130
1052.007, 5143.888
1052.490, 5156.979
1052.972, 5172.234
1053.454, 5161.489
1053.936, 5135.163
1054.418, 5122.405
1054.900, 5159.244
1055.382, 5179.393
1055.864, 5154.137
1056.346, 5112.770
1056.828, 5080.204
1057.311, 5056.358
1057.793, 5048.996
1058.275, 5059.116
1058.757, 5070.538
1059.239, 5072.036
1059.721, 5068.354
1060.203, 5062.842
1060.685, 5055.820
1061.168, 5046.344
1061.650, 5030.780
1062.132, 5025.628
1062.614, 5040.110
1063.096, 5057.920
1063.578, 5044.352
1064.060, 5015.102
1064.542, 5004.133
1065.025, 5028.607
1065.507, 5044.812
1065.989, 5029.383
1066.471, 5011.474
1066.953, 5010.223
1067.435, 5023.883
1067.917, 5021.807
1068.399, 5005.260
1068.881, 4990.807
1069.364, 4989.500
1069.846, 4992.343
1070.328, 4992.794
1070.810, 4992.912
1071.292, 4998.173
1071.774, 5011.386
1072.256, 5020.549
1072.738, 5024.718
1073.220, 5022.191
1073.703, 5004.876
1074.185, 4982.443
1074.667, 4969.684
1075.149, 4968.262
1075.631, 4970.639
1076.113, 4982.311
1076.595, 4987.196
1077.077, 4978.316
1077.559, 4960.246
1078.042, 4943.101
1078.524, 4928.366
1079.006, 4922.613
1079.488, 4932.826
1079.970, 4942.877
1080.452, 4939.788
1080.934, 4935.298
1081.416, 4942.321
1081.899, 4963.986
1082.381, 4975.654
1082.863, 4976.792
1083.345, 4972.522
1083.827, 4960.859
1084.309, 4949.845
1084.791, 4947.374
1085.273, 4952.416
1085.755, 4961.863
1086.238, 4984.906
1086.720, 4990.218
1087.202, 4968.256
1087.684, 4939.380
1088.166, 4932.827
1088.648, 4939.844
1089.130, 4937.550
1089.612, 4922.006
1090.094, 4916.994
1090.577, 4951.450
1091.059, 4977.436
1091.541, 4968.573
1092.023, 4936.383
1092.505, 4932.573
1092.987, 4953.739
1093.469, 4972.543
1093.951, 4981.061
1094.434, 4979.859
1094.916, 4955.095
1095.398, 4928.839
1095.880, 4929.721
1096.362, 4967.884
1096.844, 4986.178
1097.326, 4982.643
1097.808, 4974.364
1098.291, 4968.365
1098.773, 4968.272
1099.255, 4984.778
1099.737, 5011.614
1100.219, 5028.434
1100.701, 5026.165
1101.183, 5021.507
1101.665, 5016.506
1102.147, 5009.314
1102.630, 4992.107
1103.112, 4971.898
1103.594, 4968.551
1104.076, 4984.632
1104.558, 4998.740
1105.040, 5003.380
1105.522, 5000.577
1106.004, 4989.363
1106.486, 4972.436
1106.969, 4959.003
1107.451, 4949.083
1107.933, 4943.077
1108.415, 4942.549
1108.897, 4942.448
1109.379, 4936.864
1109.861, 4931.666
1110.343, 4934.024
1110.826, 4945.607
1111.308, 4950.574
1111.790, 4948.546
1112.272, 4915.549
1112.754, 4957.014
1113.236, 4981.093
1113.718, 4988.721
1114.200, 4930.622
1114.682, 4957.396
1115.165, 4950.160
1115.647, 4941.525
1116.129, 4980.244
1116.611, 4931.704
1117.093, 4969.672
1117.575, 4973.107
1118.057, 4992.348
1118.539, 4977.365
1119.021, 4972.953
1119.504, 5002.778
1119.986, 5013.644
1120.468, 4994.721
1120.950, 5014.966
1121.432, 4965.231
1121.914, 4976.904
1122.396, 5015.073
1122.878, 4997.871
1123.361, 5018.745
1123.843, 5025.116
1124.325, 4965.590
1124.807, 5020.664
1125.289, 5026.178
1125.771, 4980.803
1126.253, 5031.951
1126.735, 4993.592
1127.218, 4987.185
1127.700, 5004.818
1128.182, 4997.386
1128.664, 5029.471
1129.146, 5023.487
1129.628, 5014.102
1130.110, 5019.560
1130.592, 5021.129
1131.074, 5039.526
1131.557, 5054.095
1132.039, 5064.127
1132.521, 5064.088
1133.003, 5058.541
1133.485, 5062.049
1133.967, 5089.973
1134.449, 5102.055
1134.931, 5092.314
1135.413, 5072.108
1135.896, 5046.679
1136.378, 5024.042
1136.860, 5025.635
1137.342, 5051.460
1137.824, 5065.887
1138.306, 5041.678
1138.788, 5023.126
1139.270, 5022.402
1139.752, 5032.653
1140.235, 5041.145
1140.717, 5047.588
1141.199, 5050.593
1141.681, 5048.570
1142.163, 5048.717
1142.645, 5060.406
1143.127, 5068.941
1143.609, 5062.078
1144.092, 5044.438
1144.574, 5050.717
1145.056, 5078.236
1145.538, 5102.795
1146.020, 5117.644
1146.502, 5121.467
1146.984, 5103.485
1147.466, 5080.340
1147.948, 5068.580
1148.431, 5068.250
1148.913, 5086.050
1149.395, 5123.000
1149.877, 5152.699
1150.359, 5148.595
1150.841, 5137.587
1151.323, 5146.229
1151.805, 5164.296
1152.287, 5165.224
1152.770, 5138.927
1153.252, 5128.685
1153.734, 5139.880
1154.216, 5155.358
1154.698, 5155.696
1155.180, 5152.635
1155.662, 5165.526
1156.144, 5191.473
1156.627, 5197.720
1157.109, 5170.590
1157.591, 5153.226
1158.073, 5156.239
1158.555, 5167.425
1159.037, 5171.656
1159.519, 5171.529
1160.001, 5169.614
1160.484, 5165.680
1160.966, 5168.424
1161.448, 5182.585
1161.930, 5198.075
1162.412, 5213.986
1162.894, 5226.123
1163.376, 5222.443
1163.858, 5207.774
1164.340, 5192.605
1164.823, 5175.296
1165.305, 5172.381
1165.787, 5205.461
1166.269, 5231.668
1166.751, 5223.132
1167.233, 5189.475
1167.715, 5167.057
1168.197, 5155.702
1168.679, 5155.180
1169.162, 5179.760
1169.644, 5193.913
1170.126, 5167.869
1170.608, 5141.490
1171.090, 5153.402
1171.572, 5172.873
1172.054, 5214.691
1172.536, 5239.125
1173.019, 5247.110
1173.501, 5189.364
1173.983, 5216.492
1174.465, 5209.605
1174.947, 5201.325
1175.429, 5240.396
1175.911, 5192.211
1176.393, 5230.532
1176.875, 5234.322
1177.358, 5253.920
1177.840, 5239.290
1178.322, 5235.231
1178.804, 5265.406
1179.286, 5276.626
1179.768, 5258.057
1180.250, 5278.655
1180.732, 5229.274
1181.214, 5241.301
1181.697, 5279.827
1182.179, 5262.979
1182.661, 5284.203
1183.143, 5290.926
1183.625, 5231.754
1184.107, 5287.182
1184.589, 5293.049
1185.071, 5248.028
1185.554, 5299.533
1186.036, 5258.239
1186.518, 5272.921
1187.000, 5295.052
1187.482, 5315.423
1187.964, 5333.957
1188.446, 5340.004
1188.928, 5332.241
1189.411, 5321.367
1189.893, 5309.168
1190.375, 5301.124
1190.857, 5308.569
1191.339, 5322.430
1191.821, 5330.468
1192.303, 5308.831
1192.785, 5347.686
1193.267, 5369.154
1193.750, 5374.169
1194.232, 5313.460
1194.714, 5337.623
1195.196, 5327.773
1195.678, 5316.528
1196.160, 5352.636
1196.642, 5301.487
1197.124, 5336.844
1197.606, 5337.669
1198.089, 5354.297
1198.571, 5336.704
1199.053, 5329.681
1199.535, 5356.892
1200.017, 5365.148
1200.499, 5343.615
1200.981, 5361.250
1201.463, 5308.905
1201.945, 5317.968
1202.428, 5353.524
1202.910, 5333.712
1203.392, 5340.808
1203.874, 5343.561
1204.356, 5324.384
1204.838, 5313.403
1205.320, 5322.103
1205.802, 5321.689
1206.285, 5303.364
1206.767, 5285.918
1207.249, 5300.500
1207.731, 5328.417
1208.213, 5342.159
1208.695, 5338.788
1209.177, 5328.627
1209.659, 5305.189
1210.141, 5295.803
1210.624, 5310.917
1211.106, 5335.637
1211.588, 5350.078
1212.070, 5357.712
1212.552, 5365.890
1213.034, 5376.727
1213.516, 5374.588
1213.998, 5353.505
1214.480, 5330.889
1214.963, 5308.572
1215.445, 5295.011
1215.927, 5315.907
1216.409, 5351.960
1216.891, 5369.371
1217.373, 5356.923
1217.855, 5343.933
1218.337, 5333.022
1218.820, 5321.108
1219.302, 5302.024
1219.784, 5286.779
1220.266, 5307.356
1220.748, 5344.155
1221.230, 5358.798
1221.712, 5327.652
1222.194, 5309.849
1222.677, 5312.192
1223.159, 5316.498
1223.641, 5309.434
1224.123, 5299.117
1224.605, 5299.558
1225.087, 5308.302
1225.569, 5320.652
1226.051, 5346.586
1226.533, 5353.467
1227.016, 5335.385
1227.498, 5314.178
1227.980, 5305.488
1228.462, 5304.519
1228.944, 5303.834
1229.426, 5304.412
1229.908, 5309.022
1230.390, 5322.382
1230.872, 5332.358
1231.355, 5338.103
1231.837, 5341.905
1232.319, 5350.493
1232.801, 5355.242
1233.283, 5332.359
1233.765, 5293.872
1234.247, 5283.886
1234.729, 5328.953
1235.212, 5353.242
1235.694, 5348.074
1236.176, 5331.134
1236.658, 5306.619
1237.140, 5289.456
1237.622, 5308.418
1238.104, 5354.621
1238.586, 5382.376
1239.068, 5385.323
1239.551, 5378.095
1240.033, 5360.409
1240.515, 5343.127
1240.997, 5337.358
1241.479, 5338.135
1241.961, 5343.194
1242.443, 5350.475
1242.925, 5349.355
1243.407, 5338.052
1243.890, 5323.839
1244.372, 5306.347
1244.854, 5294.813
1245.336, 5307.303
1245.818, 5324.491
1246.300, 5322.359
1246.782, 5303.349
1247.264, 5306.561
1247.747, 5336.870
1248.229, 5350.911
1248.711, 5335.611
1249.193, 5319.035
1249.675, 5334.505
1250.157, 5356.568
1250.639, 5362.755
1251.121, 5353.587
1251.604, 5334.041
1252.086, 5303.106
1252.568, 5290.126
1253.050, 5306.667
1253.532, 5324.754
1254.014, 5318.174
1254.496, 5304.395
1254.978, 5298.556
1255.460, 5298.900
1255.943, 5290.970
1256.425, 5275.300
1256.907, 5269.387
1257.389, 5280.773
1257.871, 5291.826
1258.353, 5293.059
1258.835, 5285.226
1259.317, 5264.106
1259.799, 5235.062
1260.281, 5234.648
1260.764, 5258.100
1261.246, 5273.229
1261.728, 5267.595
1262.210, 5259.598
1262.692, 5260.083
1263.174, 5260.675
1263.656, 5256.027
1264.138, 5247.823
1264.621, 5242.627
1265.103, 5240.253
1265.585, 5240.125
1266.067, 5244.137
1266.549, 5244.825
1267.031, 5234.323
1267.513, 5226.092
1267.995, 5227.142
1268.478, 5235.560
1268.960, 5250.303
1269.442, 5267.087
1269.924, 5272.847
1270.406, 5256.509
1270.888, 5244.784
1271.370, 5244.176
1271.852, 5242.918
1272.334, 5231.418
1272.817, 5216.236
1273.299, 5211.106
1273.781, 5214.458
1274.263, 5223.613
1274.745, 5244.655
1275.227, 5256.287
1275.709, 5257.683
1276.191, 5251.340
1276.673, 5235.950
1277.156, 5216.768
1277.638, 5197.052
1278.120, 5181.009
1278.602, 5177.137
1279.084, 5193.935
1279.566, 5202.297
1280.048, 5201.934
1280.530, 5195.691
1281.013, 5182.121
1281.495, 5166.708
1281.977, 5151.450
1282.459, 5139.592
1282.941, 5137.794
1283.423, 5149.017
1283.905, 5152.053
1284.387, 5146.552
1284.870, 5145.133
1285.352, 5164.075
1285.834, 5180.531
1286.316, 5177.454
1286.798, 5163.485
1287.280, 5149.910
1287.762, 5136.771
1288.244, 5119.796
1288.726, 5100.630
1289.208, 5093.823
1289.691, 5121.935
1290.173, 5147.094
1290.655, 5154.747
1291.137, 5150.602
1291.619, 5133.061
1292.101, 5105.506
1292.583, 5096.722
1293.065, 5103.941
1293.548, 5108.288
1294.030, 5092.134
1294.512, 5085.422
1294.994, 5099.396
1295.476, 5112.415
1295.958, 5098.362
1296.440, 5069.780
1296.922, 5060.321
1297.405, 5075.526
##END=



