##NAMES=Forsterite
##RRUFFID=R040018
##IDEAL CHEMISTRY=Mg_2_SiO_4_
##LOCALITY=Trudy's mine, San Carlos, Gila County, Arizona, USA
##OWNER=RRUFF
##SOURCE=Bob Downs
##DESCRIPTION=Green fragments from xenoliths in a basalt flow
##STATUS=The identification of this mineral has been confirmed by X-ray diffraction and chemical analysis
##URL=rruff.info/R040018
##MEASURED CHEMISTRY=(Mg_1.81_Fe_0.18_Ni_0.01_)_Î£=2_Si_1.00_O_4_; trace amounts of Mn and Ca
112.8305, 115.0319
113.3126, 115.4137
113.7947, 115.9155
114.2769, 116.1978
114.7590, 116.1231
115.2411, 115.9815
115.7232, 115.9249
116.2053, 115.9163
116.6874, 115.7659
117.1696, 115.2285
117.6517, 114.1244
118.1338, 113.4880
118.6159, 113.5535
119.0980, 113.9162
119.5801, 114.2672
120.0623, 114.5394
120.5444, 114.7897
121.0265, 115.2120
121.5086, 115.8585
121.9907, 116.0693
122.4728, 115.2498
122.9550, 113.8236
123.4371, 112.9174
123.9192, 113.0713
124.4013, 113.5404
124.8834, 113.3841
125.3655, 112.5640
125.8476, 111.8001
126.3298, 111.7423
126.8119, 112.4483
127.2940, 113.1437
127.7761, 113.7021
128.2582, 114.1346
128.7404, 114.4394
129.2225, 114.6159
129.7046, 114.6589
130.1867, 114.5481
130.6688, 114.2188
131.1509, 113.8404
131.6331, 113.4826
132.1152, 113.0805
132.5973, 112.4625
133.0794, 111.5375
133.5615, 110.5001
134.0436, 110.1905
134.5258, 111.4590
135.0079, 112.5884
135.4900, 113.4258
135.9721, 113.9681
136.4542, 114.2218
136.9363, 114.1607
137.4185, 113.8078
137.9006, 113.5703
138.3827, 113.3976
138.8648, 113.3512
139.3469, 113.7292
139.8290, 114.4093
140.3112, 114.6554
140.7933, 113.6517
141.2754, 111.5565
141.7575, 110.0849
142.2396, 109.3555
142.7217, 109.2829
143.2039, 110.0976
143.6860, 112.0527
144.1681, 113.7980
144.6502, 113.8245
145.1323, 112.7502
145.6144, 111.8490
146.0966, 111.8951
146.5787, 112.5399
147.0608, 112.6158
147.5429, 111.6314
148.0250, 110.6776
148.5071, 110.3190
148.9893, 110.4762
149.4714, 110.9041
149.9535, 111.5365
150.4356, 112.4068
150.9177, 113.0319
151.3998, 113.3518
151.8820, 113.4392
152.3641, 113.1416
152.8462, 112.5502
153.3283, 111.9928
153.8104, 111.9076
154.2925, 112.6198
154.7747, 112.8834
155.2568, 112.6117
155.7389, 112.0659
156.2210, 111.2872
156.7031, 110.3367
157.1852, 109.3830
157.6673, 108.6797
158.1495, 108.2183
158.6316, 108.1202
159.1137, 108.7809
159.5958, 109.6201
160.0779, 109.9583
160.5600, 109.5469
161.0422, 108.8390
161.5243, 108.8744
162.0064, 110.1912
162.4885, 110.9211
162.9706, 110.0847
163.4527, 108.4047
163.9349, 107.4229
164.4170, 107.9795
164.8991, 109.1360
165.3812, 108.9857
165.8633, 107.0778
166.3454, 105.3619
166.8276, 105.0873
167.3097, 106.0922
167.7918, 107.1650
168.2739, 108.0050
168.7560, 108.5574
169.2381, 108.7656
169.7203, 108.5707
170.2024, 108.1933
170.6845, 107.8845
171.1666, 107.6895
171.6487, 107.3029
172.1308, 106.2397
172.6130, 105.1260
173.0951, 104.4397
173.5772, 104.3329
174.0593, 104.6553
174.5414, 105.2313
175.0235, 106.3183
175.5057, 107.0957
175.9878, 107.4934
176.4699, 107.5251
176.9520, 107.0421
177.4341, 105.9360
177.9162, 104.5662
178.3984, 104.0741
178.8805, 105.4817
179.3626, 106.5142
179.8447, 106.7813
180.3268, 106.5609
180.8089, 106.1474
181.2911, 105.6860
181.7732, 105.2333
182.2553, 105.1228
182.7374, 105.5762
183.2195, 106.1272
183.7016, 106.9412
184.1838, 107.7830
184.6659, 108.2372
185.1480, 108.0240
185.6301, 107.2030
186.1122, 106.3892
186.5943, 105.1149
187.0765, 104.3027
187.5586, 104.6497
188.0407, 105.8535
188.5228, 106.8921
189.0049, 107.0210
189.4870, 106.3911
189.9692, 106.1752
190.4513, 106.6908
190.9334, 107.3289
191.4155, 107.7587
191.8976, 107.9742
192.3797, 108.0041
192.8619, 107.7821
193.3440, 107.3867
193.8261, 107.0587
194.3082, 106.8792
194.7903, 106.7409
195.2724, 106.4684
195.7546, 106.0178
196.2367, 105.7260
196.7188, 106.0782
197.2009, 106.6820
197.6830, 106.9803
198.1651, 106.5626
198.6473, 105.9152
199.1294, 105.9942
199.6115, 107.1622
200.0936, 108.1476
200.5757, 108.1263
201.0578, 107.6459
201.5400, 107.3861
202.0221, 107.7014
202.5042, 108.4152
202.9863, 109.0195
203.4684, 109.4490
203.9505, 109.8598
204.4327, 110.3016
204.9148, 110.7601
205.3969, 111.2036
205.8790, 111.5986
206.3611, 111.9778
206.8432, 112.5235
207.3254, 113.3890
207.8075, 114.2554
208.2896, 115.2180
208.7717, 116.1079
209.2538, 116.5801
209.7359, 116.3208
210.2181, 115.5058
210.7002, 115.7877
211.1823, 119.1333
211.6644, 121.5789
212.1465, 121.7326
212.6286, 120.4873
213.1108, 119.4359
213.5929, 119.6525
214.0750, 121.0387
214.5571, 122.1515
215.0392, 123.0337
215.5213, 123.6435
216.0035, 123.5300
216.4856, 123.1049
216.9677, 123.3608
217.4498, 125.1232
217.9319, 128.1745
218.4140, 129.5704
218.8962, 127.7815
219.3783, 126.2768
219.8604, 126.8841
220.3425, 128.9959
220.8246, 130.5856
221.3067, 130.2158
221.7889, 128.2168
222.2710, 127.1511
222.7531, 127.8809
223.2352, 128.6052
223.7173, 128.3840
224.1994, 127.3378
224.6816, 126.0981
225.1637, 124.9645
225.6458, 123.9573
226.1279, 123.0648
226.6100, 122.1235
227.0921, 121.4484
227.5743, 121.5235
228.0564, 122.2535
228.5385, 122.6038
229.0206, 121.7198
229.5027, 120.1929
229.9848, 119.3755
230.4670, 119.6695
230.9491, 120.2459
231.4312, 120.4020
231.9133, 120.1357
232.3954, 119.8630
232.8775, 119.8818
233.3597, 119.9458
233.8418, 119.7483
234.3239, 119.2335
234.8060, 118.4748
235.2881, 117.2663
235.7702, 115.4833
236.2524, 114.4456
236.7345, 115.7244
237.2166, 117.4586
237.6987, 117.9199
238.1808, 116.6230
238.6629, 114.6239
239.1451, 113.0798
239.6272, 112.0038
240.1093, 111.2988
240.5914, 111.3570
241.0735, 111.5570
241.5556, 111.5147
242.0378, 111.1392
242.5199, 110.4859
243.0020, 109.4411
243.4841, 107.7426
243.9662, 106.6701
244.4483, 106.8540
244.9305, 107.4622
245.4126, 108.1533
245.8947, 108.8084
246.3768, 109.2168
246.8589, 109.0239
247.3410, 108.0271
247.8232, 107.0500
248.3053, 105.6987
248.7874, 104.7086
249.2695, 104.8028
249.7516, 105.9896
250.2337, 107.4335
250.7159, 108.0303
251.1980, 107.5425
251.6801, 106.8054
252.1622, 105.1904
252.6443, 103.8466
253.1264, 103.6561
253.6086, 104.5995
254.0907, 105.8501
254.5728, 106.4052
255.0549, 106.1187
255.5370, 105.5305
256.0191, 104.0327
256.5013, 102.7682
256.9834, 102.5236
257.4655, 103.2532
257.9476, 104.2979
258.4297, 104.9804
258.9118, 105.3088
259.3940, 105.1882
259.8761, 104.0638
260.3582, 103.0612
260.8403, 102.9085
261.3224, 103.5065
261.8045, 104.1813
262.2867, 104.2669
262.7688, 103.6267
263.2509, 103.3283
263.7330, 103.4025
264.2151, 103.7030
264.6972, 104.4096
265.1794, 105.3460
265.6615, 105.9970
266.1436, 105.8833
266.6257, 104.9567
267.1078, 104.3941
267.5899, 104.3849
268.0721, 104.4608
268.5542, 104.3882
269.0363, 104.2223
269.5184, 104.1952
270.0005, 104.5160
270.4826, 105.1352
270.9648, 105.2997
271.4469, 104.4273
271.9290, 103.8078
272.4111, 104.1059
272.8932, 105.0443
273.3753, 105.9434
273.8575, 106.4179
274.3396, 106.5311
274.8217, 106.6018
275.3038, 106.5644
275.7859, 106.5663
276.2680, 106.5596
276.7502, 106.6257
277.2323, 106.9675
277.7144, 107.7172
278.1965, 108.7318
278.6786, 109.5766
279.1607, 110.0726
279.6429, 110.7414
280.1250, 111.9156
280.6071, 113.3384
281.0892, 114.5720
281.5713, 115.4837
282.0534, 116.0817
282.5356, 116.2340
283.0177, 115.7127
283.4998, 115.5793
283.9819, 116.2582
284.4640, 117.4430
284.9461, 118.8115
285.4283, 120.3546
285.9104, 121.6803
286.3925, 122.0309
286.8746, 121.3175
287.3567, 120.8579
287.8388, 120.9079
288.3210, 121.3598
288.8031, 122.1584
289.2852, 123.3277
289.7673, 124.5859
290.2494, 125.5443
290.7315, 126.2356
291.2137, 127.2611
291.6958, 129.0308
292.1779, 131.0152
292.6600, 132.5634
293.1421, 133.5998
293.6242, 134.6449
294.1064, 136.0523
294.5885, 137.8346
295.0706, 139.9191
295.5527, 142.8595
296.0348, 145.7137
296.5169, 147.3284
296.9991, 147.7474
297.4812, 148.6274
297.9633, 151.5294
298.4454, 155.5304
298.9275, 157.7845
299.4096, 157.0645
299.8918, 155.8537
300.3739, 156.1058
300.8560, 157.5782
301.3381, 158.6051
301.8202, 158.5719
302.3023, 157.4515
302.7845, 155.3062
303.2666, 151.6483
303.7487, 148.1868
304.2308, 146.3613
304.7129, 145.6443
305.1950, 144.0152
305.6772, 140.4546
306.1593, 136.2274
306.6414, 133.1103
307.1235, 131.0980
307.6056, 129.5727
308.0877, 128.5257
308.5699, 127.7532
309.0520, 126.6918
309.5341, 125.0816
310.0162, 123.5261
310.4983, 122.7938
310.9804, 122.7566
311.4626, 122.8595
311.9447, 122.9721
312.4268, 123.1025
312.9089, 123.2845
313.3910, 123.5372
313.8731, 123.7605
314.3553, 123.8582
314.8374, 123.8555
315.3195, 123.8253
315.8016, 123.9875
316.2837, 124.0062
316.7658, 123.4280
317.2480, 122.2312
317.7301, 120.8939
318.2122, 119.3028
318.6943, 117.9135
319.1764, 117.7990
319.6585, 120.0348
320.1407, 122.3087
320.6228, 122.4802
321.1049, 120.8642
321.5870, 119.8299
322.0691, 120.6581
322.5512, 122.4167
323.0334, 123.4345
323.5155, 123.6718
323.9976, 123.3501
324.4797, 122.1569
324.9618, 120.4373
325.4439, 119.2906
325.9261, 119.1122
326.4082, 119.4239
326.8903, 119.8375
327.3724, 120.3955
327.8545, 120.2957
328.3366, 118.6760
328.8188, 116.3762
329.3009, 114.8107
329.7830, 114.2619
330.2651, 114.1143
330.7472, 113.9419
331.2293, 113.7196
331.7115, 113.2480
332.1936, 112.0625
332.6757, 110.8617
333.1578, 110.5766
333.6399, 111.2460
334.1220, 111.7723
334.6042, 111.3567
335.0863, 110.2073
335.5684, 109.2637
336.0505, 108.4408
336.5326, 107.9423
337.0147, 108.1293
337.4969, 108.8389
337.9790, 109.3568
338.4611, 109.4189
338.9432, 109.0188
339.4253, 108.1111
339.9074, 106.4806
340.3896, 104.9765
340.8717, 103.8258
341.3538, 103.0446
341.8359, 102.7163
342.3180, 102.9114
342.8001, 103.3915
343.2823, 103.9352
343.7644, 104.5923
344.2465, 104.9125
344.7286, 104.6926
345.2107, 104.1541
345.6928, 103.4029
346.1750, 102.4591
346.6571, 101.7030
347.1392, 101.5427
347.6213, 102.0094
348.1034, 102.2864
348.5855, 102.3181
349.0677, 102.2082
349.5498, 101.9034
350.0319, 101.4737
350.5140, 101.2239
350.9961, 101.3725
351.4782, 101.8249
351.9604, 102.1243
352.4425, 102.3364
352.9246, 102.3561
353.4067, 101.9974
353.8888, 101.4472
354.3709, 100.9470
354.8531, 100.5512
355.3352, 100.4782
355.8173, 101.2875
356.2994, 103.7980
356.7815, 105.2777
357.2636, 104.9448
357.7458, 103.7829
358.2279, 102.5490
358.7100, 101.4385
359.1921, 100.5453
359.6742, 99.95804
360.1563, 99.67296
360.6385, 99.90640
361.1206, 101.3057
361.6027, 102.5836
362.0848, 102.9314
362.5669, 102.5170
363.0490, 102.0151
363.5312, 101.8816
364.0133, 102.0654
364.4954, 102.1595
364.9775, 102.4004
365.4596, 102.2832
365.9417, 101.0957
366.4239, 99.67213
366.9060, 99.31945
367.3881, 100.5610
367.8702, 102.5567
368.3523, 103.5710
368.8344, 102.8383
369.3166, 102.3010
369.7987, 102.1029
370.2808, 101.9807
370.7629, 101.7852
371.2450, 101.4712
371.7271, 101.0066
372.2093, 100.3080
372.6914, 99.27136
373.1735, 98.65714
373.6556, 98.89937
374.1377, 99.10478
374.6198, 98.91555
375.1020, 98.44283
375.5841, 97.93697
376.0662, 97.53527
376.5483, 97.26920
377.0304, 97.34888
377.5125, 98.45521
377.9947, 98.88941
378.4768, 97.81999
378.9589, 96.28340
379.4410, 95.37591
379.9231, 95.44433
380.4052, 95.90536
380.8874, 95.78889
381.3695, 94.79554
381.8516, 94.21410
382.3337, 94.63778
382.8158, 95.08574
383.2979, 94.90725
383.7801, 94.20840
384.2622, 93.64934
384.7443, 93.86930
385.2264, 94.79290
385.7085, 95.51197
386.1906, 96.14439
386.6728, 96.35548
387.1549, 95.71793
387.6370, 94.70472
388.1191, 94.02800
388.6012, 94.00607
389.0833, 94.43156
389.5655, 95.10086
390.0476, 96.17339
390.5297, 96.75030
391.0118, 95.86456
391.4939, 94.77142
391.9760, 94.54614
392.4582, 95.34612
392.9403, 96.36345
393.4224, 96.99737
393.9045, 97.29107
394.3866, 97.49703
394.8687, 97.60582
395.3509, 97.70238
395.8330, 97.77276
396.3151, 97.86544
396.7972, 98.17078
397.2793, 99.07365
397.7614, 100.0860
398.2436, 100.4355
398.7257, 100.0717
399.2078, 99.63038
399.6899, 99.37403
400.1720, 99.32592
400.6541, 99.54385
401.1363, 100.2929
401.6184, 100.8139
402.1005, 100.2894
402.5826, 99.15807
403.0647, 98.71395
403.5468, 99.45338
404.0290, 100.7197
404.5111, 101.5810
404.9932, 101.9925
405.4753, 102.5773
405.9574, 103.7152
406.4395, 104.9056
406.9217, 105.5632
407.4038, 105.6859
407.8859, 105.8313
408.3680, 106.4863
408.8501, 107.5818
409.3322, 108.2056
409.8144, 107.8151
410.2965, 107.6337
410.7786, 108.2928
411.2607, 109.4185
411.7428, 110.3804
412.2249, 110.9175
412.7071, 111.1329
413.1892, 111.1734
413.6713, 110.4011
414.1534, 110.7008
414.6355, 113.2437
415.1176, 115.9514
415.5998, 117.2640
416.0819, 117.1367
416.5640, 116.4760
417.0461, 116.0440
417.5282, 115.8408
418.0103, 115.8448
418.4925, 116.1348
418.9746, 116.5578
419.4567, 117.3581
419.9388, 118.1897
420.4209, 118.4175
420.9030, 117.7363
421.3852, 116.8430
421.8673, 117.3267
422.3494, 119.9890
422.8315, 121.9749
423.3136, 122.3260
423.7957, 122.5081
424.2779, 123.4967
424.7600, 125.2649
425.2421, 127.0569
425.7242, 128.2306
426.2063, 128.8447
426.6884, 129.3946
427.1706, 129.7756
427.6527, 130.2733
428.1348, 131.3492
428.6169, 132.5168
429.0990, 133.0349
429.5811, 132.5543
430.0633, 131.5834
430.5454, 130.7807
431.0275, 130.1555
431.5096, 129.2158
431.9917, 127.5375
432.4738, 125.7763
432.9560, 124.6369
433.4381, 124.1127
433.9202, 123.6755
434.4023, 123.0602
434.8844, 122.3745
435.3665, 121.9410
435.8487, 121.8460
436.3308, 121.4456
436.8129, 120.1926
437.2950, 118.2145
437.7771, 116.2343
438.2592, 114.3246
438.7414, 112.3487
439.2235, 110.0146
439.7056, 107.5627
440.1877, 105.5882
440.6698, 104.3193
441.1519, 103.5621
441.6341, 103.0869
442.1162, 103.1703
442.5983, 102.6808
443.0804, 101.0378
443.5625, 99.20202
444.0446, 97.83271
444.5268, 96.96834
445.0089, 96.33681
445.4910, 95.74828
445.9731, 95.20649
446.4552, 94.73880
446.9373, 94.16936
447.4195, 93.88600
447.9016, 94.31330
448.3837, 94.88784
448.8658, 94.86883
449.3479, 94.07918
449.8300, 93.10599
450.3122, 92.91291
450.7943, 93.89578
451.2764, 94.16727
451.7585, 92.83464
452.2406, 91.61417
452.7227, 91.19453
453.2049, 91.42027
453.6870, 91.85986
454.1691, 92.32710
454.6512, 92.74603
455.1333, 92.89133
455.6154, 92.66519
456.0976, 92.45650
456.5797, 92.34058
457.0618, 92.32070
457.5439, 92.52110
458.0260, 92.95159
458.5081, 93.16685
458.9903, 92.47169
459.4724, 91.23978
459.9545, 91.00597
460.4366, 92.30027
460.9187, 93.56499
461.4008, 93.39040
461.8830, 92.27451
462.3651, 91.37328
462.8472, 90.59304
463.3293, 90.38398
463.8114, 91.59565
464.2935, 93.77393
464.7756, 95.27551
465.2578, 95.48344
465.7399, 94.77837
466.2220, 93.55664
466.7041, 91.47478
467.1862, 90.29553
467.6683, 90.89048
468.1505, 91.97440
468.6326, 92.56902
469.1147, 92.62667
469.5968, 92.47037
470.0789, 92.28820
470.5610, 92.11702
471.0432, 92.20839
471.5253, 93.18578
472.0074, 93.65121
472.4895, 93.04147
472.9716, 92.07162
473.4537, 91.42754
473.9359, 91.27831
474.4180, 91.38467
474.9001, 91.46320
475.3822, 91.49171
475.8643, 91.68102
476.3464, 92.44767
476.8286, 92.91427
477.3107, 92.65487
477.7928, 91.94382
478.2749, 91.14503
478.7570, 90.34241
479.2391, 89.80887
479.7213, 90.21850
480.2034, 91.73875
480.6855, 92.74106
481.1676, 92.43056
481.6497, 91.89947
482.1318, 92.12464
482.6140, 93.02048
483.0961, 93.79816
483.5782, 94.01990
484.0603, 93.92195
484.5424, 93.98885
485.0245, 94.25254
485.5067, 94.02927
485.9888, 92.64542
486.4709, 90.68613
486.9530, 89.72939
487.4351, 90.25505
487.9172, 90.65281
488.3994, 90.06921
488.8815, 89.16566
489.3636, 88.94634
489.8457, 89.57084
490.3278, 90.27979
490.8099, 90.26667
491.2921, 89.47028
491.7742, 89.48137
492.2563, 91.22730
492.7384, 92.58010
493.2205, 92.77589
493.7026, 92.22023
494.1848, 91.38735
494.6669, 90.48154
495.1490, 89.67458
495.6311, 89.21328
496.1132, 89.08770
496.5953, 89.35297
497.0775, 90.79842
497.5596, 91.88708
498.0417, 91.74010
498.5238, 90.76490
499.0059, 89.84783
499.4880, 89.37592
499.9702, 89.37125
500.4523, 90.13156
500.9344, 91.88287
501.4165, 92.93325
501.8986, 92.22582
502.3807, 91.12835
502.8629, 91.03170
503.3450, 91.91462
503.8271, 92.56564
504.3092, 92.15948
504.7913, 91.27627
505.2734, 90.72245
505.7556, 90.54350
506.2377, 90.81021
506.7198, 91.82551
507.2019, 93.17286
507.6840, 93.52503
508.1661, 92.41961
508.6483, 91.35205
509.1304, 90.78783
509.6125, 90.42546
510.0946, 89.69477
510.5767, 88.61454
511.0588, 88.13002
511.5410, 89.33878
512.0231, 92.21938
512.5052, 93.33085
512.9873, 90.18612
513.4694, 88.21794
513.9515, 89.46213
514.4337, 91.95668
514.9158, 93.39402
515.3979, 93.13567
515.8800, 92.31603
516.3621, 92.44460
516.8442, 93.65715
517.3264, 94.34306
517.8085, 94.04939
518.2906, 93.79573
518.7727, 94.30489
519.2548, 95.09760
519.7369, 95.29974
520.2191, 94.45545
520.7012, 93.35062
521.1833, 92.78452
521.6654, 92.72504
522.1475, 93.00813
522.6296, 93.78136
523.1118, 94.51587
523.5939, 94.42622
524.0760, 93.65054
524.5581, 93.25633
525.0402, 93.61019
525.5223, 94.23248
526.0045, 94.98238
526.4866, 95.72964
526.9687, 96.16005
527.4508, 96.13303
527.9329, 95.73032
528.4150, 95.02568
528.8972, 93.49706
529.3793, 92.96098
529.8614, 94.10528
530.3435, 95.53718
530.8256, 96.77219
531.3077, 97.63711
531.7899, 97.81130
532.2720, 97.00005
532.7541, 95.83796
533.2362, 96.16051
533.7183, 98.70939
534.2004, 100.6404
534.6826, 100.9820
535.1647, 100.9538
535.6468, 101.1473
536.1289, 101.5957
536.6110, 102.1543
537.0931, 102.7034
537.5753, 103.3246
538.0574, 104.3559
538.5395, 105.8420
539.0216, 106.7633
539.5037, 106.4629
539.9858, 105.5692
540.4680, 105.1474
540.9501, 105.2562
541.4322, 105.3730
541.9143, 105.5389
542.3964, 105.5212
542.8785, 104.9616
543.3607, 103.9372
543.8428, 102.9459
544.3249, 102.3326
544.8070, 101.9496
545.2891, 101.2494
545.7712, 99.95250
546.2534, 98.70341
546.7355, 97.21905
547.2176, 96.01997
547.6997, 95.73825
548.1818, 96.19924
548.6639, 96.53140
549.1461, 95.96397
549.6282, 94.79781
550.1103, 94.39684
550.5924, 95.15224
551.0745, 95.65108
551.5566, 95.08212
552.0388, 94.32396
552.5209, 94.07310
553.0030, 94.38438
553.4851, 94.83947
553.9672, 95.43046
554.4493, 95.92771
554.9315, 95.62985
555.4136, 94.49769
555.8957, 94.05625
556.3778, 95.51115
556.8599, 97.92775
557.3420, 98.62868
557.8242, 96.91521
558.3063, 95.49702
558.7884, 94.59921
559.2705, 94.41574
559.7526, 95.62680
560.2347, 97.89998
560.7169, 99.82849
561.1990, 100.3730
561.6811, 99.78503
562.1632, 99.12292
562.6453, 97.79713
563.1274, 97.46671
563.6096, 98.88624
564.0917, 100.7753
564.5738, 102.3592
565.0559, 103.5364
565.5380, 104.4707
566.0201, 105.2605
566.5023, 105.9020
566.9844, 106.3272
567.4665, 106.4916
567.9486, 106.7174
568.4307, 106.9301
568.9128, 107.4513
569.3950, 108.9179
569.8771, 111.4722
570.3592, 113.3710
570.8413, 113.2582
571.3234, 112.7551
571.8055, 113.8165
572.2877, 116.2024
572.7698, 118.1060
573.2519, 118.4347
573.7340, 117.9411
574.2161, 118.5778
574.6982, 121.5830
575.1804, 123.5638
575.6625, 123.5173
576.1446, 123.3821
576.6267, 124.3795
577.1088, 126.3057
577.5909, 128.3869
578.0731, 130.2035
578.5552, 131.7614
579.0373, 133.0275
579.5194, 133.9483
580.0015, 134.8693
580.4836, 135.9403
580.9658, 136.9311
581.4479, 137.6628
581.9300, 138.1720
582.4121, 138.6219
582.8942, 139.0532
583.3763, 139.4671
583.8585, 140.0449
584.3406, 140.6422
584.8227, 140.6841
585.3048, 139.9473
585.7869, 138.6929
586.2690, 137.1230
586.7512, 134.9797
587.2333, 133.9562
587.7154, 134.9772
588.1975, 136.0373
588.6796, 136.2820
589.1617, 136.0025
589.6439, 135.8596
590.1260, 136.0725
590.6081, 136.0691
591.0902, 134.7553
591.5723, 131.8947
592.0544, 130.0714
592.5366, 129.9058
593.0187, 129.9465
593.5008, 129.2129
593.9829, 128.3323
594.4650, 128.4399
594.9471, 130.1155
595.4293, 131.5851
595.9114, 130.9180
596.3935, 129.1225
596.8756, 128.7284
597.3577, 130.1534
597.8398, 131.9178
598.3220, 132.9729
598.8041, 133.3910
599.2862, 133.6565
599.7683, 133.7352
600.2504, 133.7359
600.7325, 133.3526
601.2147, 133.1120
601.6968, 133.7194
602.1789, 135.0686
602.6610, 136.3240
603.1431, 136.8079
603.6252, 136.6655
604.1074, 136.5389
604.5895, 136.5677
605.0716, 136.2430
605.5537, 135.2329
606.0358, 133.9594
606.5179, 132.7801
607.0001, 131.6646
607.4822, 130.2160
607.9643, 127.8438
608.4464, 125.3035
608.9285, 123.6899
609.4106, 122.8390
609.8928, 121.7775
610.3749, 120.1204
610.8570, 118.1288
611.3391, 116.1145
611.8212, 113.9812
612.3033, 112.2971
612.7855, 111.4800
613.2676, 110.6532
613.7497, 109.2906
614.2318, 107.6875
614.7139, 106.2801
615.1960, 105.2363
615.6782, 104.6097
616.1603, 104.7506
616.6424, 105.7312
617.1245, 105.6815
617.6066, 103.8763
618.0887, 102.2643
618.5709, 102.1852
619.0530, 102.7368
619.5351, 102.6585
620.0172, 101.6399
620.4993, 100.4803
620.9814, 99.61608
621.4636, 98.90301
621.9457, 97.98266
622.4278, 96.87283
622.9099, 96.16148
623.3920, 96.28398
623.8741, 97.01592
624.3563, 97.57545
624.8384, 98.13674
625.3205, 98.23606
625.8026, 97.40301
626.2847, 96.52904
626.7668, 96.26768
627.2490, 96.47078
627.7311, 96.59053
628.2132, 96.31190
628.6953, 95.82504
629.1774, 95.32163
629.6595, 94.78370
630.1417, 94.90719
630.6238, 96.21352
631.1059, 97.56160
631.5880, 97.98943
632.0701, 97.66557
632.5522, 96.97747
633.0344, 95.55449
633.5165, 94.28895
633.9986, 93.41072
634.4807, 93.05113
634.9628, 93.74229
635.4449, 95.44140
635.9271, 96.97849
636.4092, 97.24495
636.8913, 96.35683
637.3734, 95.48463
637.8555, 94.42002
638.3376, 93.72636
638.8198, 93.67326
639.3019, 93.83412
639.7840, 93.90525
640.2661, 93.86649
640.7482, 93.84541
641.2303, 93.98763
641.7125, 94.13994
642.1946, 93.99785
642.6767, 93.59212
643.1588, 93.28769
643.6409, 93.22459
644.1230, 93.24020
644.6052, 93.12869
645.0873, 92.86719
645.5694, 92.67908
646.0515, 92.72159
646.5336, 92.66061
647.0157, 92.06923
647.4979, 91.42503
647.9800, 91.49808
648.4621, 92.40626
648.9442, 93.42376
649.4263, 93.77321
649.9084, 93.53463
650.3906, 93.46799
650.8727, 93.65696
651.3548, 93.79630
651.8369, 93.80596
652.3190, 93.69082
652.8011, 93.31642
653.2833, 92.67518
653.7654, 92.43571
654.2475, 93.44731
654.7296, 94.49983
655.2117, 94.17236
655.6938, 92.86684
656.1760, 91.98681
656.6581, 92.08826
657.1402, 92.63464
657.6223, 92.85609
658.1044, 92.69202
658.5865, 92.56548
659.0687, 92.23579
659.5508, 92.23328
660.0329, 92.99409
660.5150, 93.99727
660.9971, 94.68965
661.4792, 94.94257
661.9614, 94.90263
662.4435, 94.64478
662.9256, 94.18478
663.4077, 93.41943
663.8898, 92.34975
664.3719, 91.57877
664.8541, 91.34527
665.3362, 91.62039
665.8183, 92.50790
666.3004, 94.42368
666.7825, 95.41502
667.2646, 94.37556
667.7468, 93.51956
668.2289, 94.52984
668.7110, 96.28001
669.1931, 96.67343
669.6752, 95.09060
670.1573, 93.14014
670.6395, 92.97646
671.1216, 94.42192
671.6037, 95.00917
672.0858, 94.43303
672.5679, 93.94044
673.0500, 94.31273
673.5322, 94.94431
674.0143, 94.84957
674.4964, 93.89481
674.9785, 93.16169
675.4606, 93.19040
675.9427, 93.36850
676.4249, 93.05461
676.9070, 92.48463
677.3891, 92.39787
677.8712, 93.08218
678.3533, 93.96660
678.8354, 94.15556
679.3176, 93.53718
679.7997, 93.33089
680.2818, 93.87440
680.7639, 94.31953
681.2460, 94.15868
681.7281, 93.87439
682.2103, 94.08485
682.6924, 94.88624
683.1745, 95.56628
683.6566, 95.78551
684.1387, 95.64848
684.6208, 95.14536
685.1030, 94.37411
685.5851, 93.67033
686.0672, 93.16209
686.5493, 92.92390
687.0314, 93.12998
687.5135, 93.92849
687.9957, 94.36829
688.4778, 94.01061
688.9599, 93.79995
689.4420, 94.05605
689.9241, 94.53513
690.4063, 95.05914
690.8884, 95.55869
691.3705, 95.78877
691.8526, 95.33522
692.3347, 94.58211
692.8168, 94.24740
693.2990, 94.32592
693.7811, 94.60976
694.2632, 95.09016
694.7453, 95.53109
695.2274, 95.55961
695.7095, 95.06643
696.1917, 94.82772
696.6738, 94.86253
697.1559, 95.10367
697.6380, 95.84405
698.1201, 96.61001
698.6022, 96.81376
699.0844, 96.39373
699.5665, 95.80013
700.0486, 95.29072
700.5307, 94.93395
701.0128, 95.08322
701.4949, 95.76842
701.9771, 95.96443
702.4592, 95.10742
702.9413, 94.11731
703.4234, 94.17651
703.9055, 95.35897
704.3876, 96.15243
704.8698, 96.34087
705.3519, 96.37907
705.8340, 96.26439
706.3161, 96.16931
706.7982, 96.35383
707.2803, 96.79768
707.7625, 97.19474
708.2446, 97.31019
708.7267, 97.19383
709.2088, 96.88792
709.6909, 96.34785
710.1730, 96.11755
710.6552, 96.36928
711.1373, 96.89497
711.6194, 97.74918
712.1015, 98.79210
712.5836, 99.17997
713.0657, 98.17040
713.5479, 97.35642
714.0300, 97.50300
714.5121, 97.96458
714.9942, 98.04692
715.4763, 97.71989
715.9584, 97.33706
716.4406, 97.11940
716.9227, 97.04918
717.4048, 97.01765
717.8869, 96.97861
718.3690, 97.53007
718.8511, 99.27546
719.3333, 100.7169
719.8154, 100.4453
720.2975, 99.08509
720.7796, 98.16089
721.2617, 97.92290
721.7438, 97.83489
722.2260, 97.44650
722.7081, 97.32730
723.1902, 98.50523
723.6723, 100.4932
724.1544, 101.5711
724.6365, 100.8058
725.1187, 99.29914
725.6008, 99.14186
726.0829, 100.4899
726.5650, 100.8505
727.0471, 99.51237
727.5292, 98.45171
728.0114, 99.06487
728.4935, 100.4102
728.9756, 100.9384
729.4577, 100.3912
729.9398, 100.0324
730.4219, 100.4972
730.9041, 101.0421
731.3862, 101.0003
731.8683, 100.5911
732.3504, 100.2815
732.8325, 100.2561
733.3146, 100.5899
733.7968, 101.6230
734.2789, 103.2476
734.7610, 103.5579
735.2431, 102.0263
735.7252, 100.8029
736.2073, 100.8958
736.6895, 101.4174
737.1716, 101.2675
737.6537, 100.4807
738.1358, 99.96795
738.6179, 100.0675
739.1000, 100.3205
739.5822, 100.4984
740.0643, 100.6638
740.5464, 100.9210
741.0285, 101.2856
741.5106, 101.7486
741.9927, 102.3891
742.4749, 102.9986
742.9570, 102.6898
743.4391, 101.2277
743.9212, 100.3293
744.4033, 100.4762
744.8854, 101.0275
745.3676, 101.6424
745.8497, 102.2528
746.3318, 102.6065
746.8139, 102.5718
747.2960, 102.4598
747.7781, 101.9941
748.2603, 101.7705
748.7424, 102.8463
749.2245, 104.7149
749.7066, 105.6507
750.1887, 104.7210
750.6708, 102.9918
751.1530, 102.0523
751.6351, 101.8948
752.1172, 102.1124
752.5993, 102.8266
753.0814, 103.3859
753.5635, 103.2240
754.0457, 102.8392
754.5278, 103.3675
755.0099, 105.1103
755.4920, 106.2486
755.9741, 106.1466
756.4562, 105.8186
756.9384, 105.6706
757.4205, 105.7179
757.9026, 106.0916
758.3847, 106.7391
758.8668, 107.0650
759.3489, 106.1881
759.8311, 104.7054
760.3132, 104.6037
760.7953, 105.9173
761.2774, 106.9674
761.7595, 107.2754
762.2416, 107.1141
762.7238, 106.6392
763.2059, 105.8668
763.6880, 105.4121
764.1701, 105.0942
764.6522, 105.3050
765.1343, 106.5290
765.6165, 107.9743
766.0986, 109.2574
766.5807, 110.1777
767.0628, 110.3847
767.5449, 109.6127
768.0270, 108.4313
768.5092, 107.1758
768.9913, 106.0796
769.4734, 106.1885
769.9555, 107.6330
770.4376, 109.0553
770.9197, 109.6968
771.4019, 109.7589
771.8840, 109.6764
772.3661, 109.4283
772.8482, 109.0922
773.3303, 108.1583
773.8124, 107.7236
774.2946, 108.4241
774.7767, 109.6885
775.2588, 110.9753
775.7409, 112.1569
776.2230, 112.9161
776.7051, 112.8674
777.1873, 112.4386
777.6694, 111.9082
778.1515, 111.4347
778.6336, 111.5452
779.1157, 112.3722
779.5978, 113.4783
780.0800, 114.4853
780.5621, 115.3707
781.0442, 116.0272
781.5263, 116.4819
782.0084, 116.6259
782.4905, 116.0985
782.9727, 115.6042
783.4548, 115.5559
783.9369, 115.8675
784.4190, 116.3258
784.9011, 116.9268
785.3832, 117.5719
785.8654, 118.4237
786.3475, 119.1463
786.8296, 119.1869
787.3117, 118.7708
787.7938, 118.6184
788.2759, 119.0478
788.7581, 119.8241
789.2402, 120.6362
789.7223, 121.4902
790.2044, 122.5602
790.6865, 123.9879
791.1686, 125.0040
791.6508, 124.9896
792.1329, 124.8057
792.6150, 125.6657
793.0971, 127.5713
793.5792, 129.2077
794.0613, 130.5672
794.5435, 131.5569
795.0256, 131.7669
795.5077, 131.8647
795.9898, 132.3832
796.4719, 133.4258
796.9540, 135.0324
797.4362, 137.3549
797.9183, 139.8325
798.4004, 141.3200
798.8825, 142.2497
799.3646, 144.6418
799.8467, 148.7775
800.3289, 152.6511
800.8110, 155.0702
801.2931, 156.6499
801.7752, 158.6513
802.2573, 160.9156
802.7394, 164.0926
803.2216, 168.5030
803.7037, 173.5121
804.1858, 179.2783
804.6679, 185.3862
805.1500, 191.1938
805.6321, 196.7620
806.1143, 203.0645
806.5964, 210.7821
807.0785, 219.2041
807.5606, 227.8165
808.0427, 236.7181
808.5248, 246.2999
809.0070, 256.4898
809.4891, 266.3010
809.9712, 274.8974
810.4533, 282.9302
810.9354, 292.2824
811.4175, 303.1777
811.8997, 313.5291
812.3818, 322.6578
812.8639, 332.2645
813.3460, 343.2416
813.8281, 355.5126
814.3102, 368.9217
814.7924, 383.7405
815.2745, 398.6751
815.7566, 413.1893
816.2387, 428.2494
816.7208, 444.9032
817.2029, 462.0416
817.6851, 478.1165
818.1672, 492.9720
818.6493, 507.8250
819.1314, 523.8665
819.6135, 540.1316
820.0956, 555.8475
820.5778, 570.5111
821.0599, 582.4373
821.5420, 591.3113
822.0241, 595.5098
822.5062, 593.7318
822.9883, 586.6347
823.4705, 576.2390
823.9526, 562.8166
824.4347, 545.4870
824.9168, 521.6748
825.3989, 497.0891
825.8810, 473.3599
826.3632, 450.5114
826.8453, 428.5424
827.3274, 407.4672
827.8095, 387.7372
828.2916, 368.9791
828.7737, 352.1591
829.2559, 338.1753
829.7380, 326.4961
830.2201, 316.5331
830.7022, 307.9625
831.1843, 300.2810
831.6664, 293.0119
832.1486, 286.5680
832.6307, 281.8346
833.1128, 278.7956
833.5949, 277.2363
834.0770, 277.2565
834.5591, 278.1212
835.0413, 279.4515
835.5233, 281.2355
836.0054, 283.4062
836.4875, 285.9170
836.9697, 288.9860
837.4518, 291.8420
837.9339, 296.1171
838.4160, 303.1014
838.8981, 311.2755
839.3802, 318.7837
839.8624, 325.6086
840.3445, 333.4200
840.8266, 343.3794
841.3087, 354.1893
841.7908, 365.0288
842.2729, 375.8747
842.7551, 386.5429
843.2372, 397.1207
843.7193, 408.1083
844.2014, 419.8437
844.6835, 432.0864
845.1656, 444.2816
845.6478, 456.4901
846.1299, 470.0518
846.6120, 485.2739
847.0941, 501.0602
847.5762, 517.1174
848.0583, 533.3942
848.5405, 549.5858
849.0226, 567.0477
849.5047, 582.7501
849.9868, 602.6885
850.4689, 621.8405
850.9510, 640.5012
851.4332, 657.1271
851.9153, 670.9431
852.3974, 681.5879
852.8795, 688.4250
853.3616, 690.8235
853.8438, 690.5021
854.3259, 690.2330
854.8080, 687.2659
855.2901, 677.0939
855.7722, 660.3420
856.2543, 640.0957
856.7365, 617.5936
857.2186, 592.8714
857.7007, 565.2431
858.1828, 535.2338
858.6649, 507.2845
859.1470, 481.5575
859.6292, 456.0955
860.1113, 430.0511
860.5934, 404.9186
861.0755, 381.7782
861.5576, 360.7667
862.0397, 342.4598
862.5219, 328.2535
863.0040, 314.3846
863.4861, 299.8499
863.9682, 286.5266
864.4503, 275.4740
864.9324, 266.2200
865.4146, 258.0964
865.8967, 250.9923
866.3788, 244.4703
866.8609, 238.5727
867.3430, 232.9319
867.8251, 226.9976
868.3073, 221.1185
868.7894, 215.9916
869.2715, 211.7218
869.7536, 208.1994
870.2357, 205.4027
870.7178, 202.9531
871.2000, 199.8688
871.6821, 196.1930
872.1642, 193.3267
872.6463, 191.4473
873.1284, 189.9168
873.6105, 188.4456
874.0927, 187.1343
874.5748, 186.0771
875.0569, 185.2070
875.5390, 185.1370
876.0211, 186.7455
876.5032, 187.9985
876.9854, 188.5460
877.4675, 188.6831
877.9496, 188.3838
878.4317, 187.8654
878.9138, 187.7842
879.3959, 188.6406
879.8781, 189.0017
880.3602, 188.1666
880.8423, 186.4558
881.3244, 183.9061
881.8065, 180.7938
882.2886, 177.7180
882.7708, 174.8092
883.2529, 171.3571
883.7350, 166.4330
884.2171, 160.7438
884.6992, 155.8018
885.1813, 151.5742
885.6635, 148.1776
886.1456, 145.6663
886.6277, 143.1678
887.1098, 140.0614
887.5919, 136.6203
888.0740, 133.5645
888.5562, 130.9134
889.0383, 128.6180
889.5204, 126.7246
890.0025, 125.1271
890.4846, 123.9005
890.9667, 122.8768
891.4489, 121.9828
891.9310, 121.1859
892.4131, 120.1126
892.8952, 118.0987
893.3773, 116.6176
893.8594, 116.4621
894.3416, 116.7144
894.8237, 116.7945
895.3058, 116.6116
895.7879, 116.0722
896.2700, 115.1253
896.7521, 114.3408
897.2343, 114.1845
897.7164, 114.4560
898.1985, 115.2818
898.6806, 116.2568
899.1627, 115.9789
899.6448, 114.2594
900.1270, 112.7261
900.6091, 112.7897
901.0912, 113.8080
901.5733, 113.9758
902.0554, 113.2671
902.5375, 113.3783
903.0197, 114.6551
903.5018, 115.8245
903.9839, 116.1976
904.4660, 116.2327
904.9481, 116.7170
905.4302, 117.7587
905.9124, 118.1706
906.3945, 116.8191
906.8766, 116.4929
907.3587, 118.3011
907.8408, 120.6253
908.3229, 122.7438
908.8051, 124.4373
909.2872, 125.1370
909.7693, 124.1680
910.2514, 124.0368
910.7335, 126.6931
911.2156, 129.4953
911.6978, 130.1744
912.1799, 129.8398
912.6620, 130.3959
913.1441, 132.1717
913.6262, 134.2152
914.1083, 135.9513
914.5905, 137.5437
915.0726, 139.2797
915.5547, 141.0280
916.0368, 142.3977
916.5189, 143.3983
917.0010, 144.5687
917.4832, 146.1990
917.9653, 147.5725
918.4474, 147.7066
918.9295, 146.6284
919.4116, 144.3893
919.8937, 140.8509
920.3759, 137.1776
920.8580, 133.5989
921.3401, 130.1379
921.8222, 126.7421
922.3043, 123.4751
922.7864, 120.5143
923.2686, 117.7167
923.7507, 115.5463
924.2328, 114.5221
924.7149, 113.5151
925.1970, 111.9209
925.6791, 110.3200
926.1613, 109.3837
926.6434, 109.1019
927.1255, 108.9561
927.6076, 109.2383
928.0897, 109.0880
928.5718, 107.7269
929.0540, 106.1957
929.5361, 105.1502
930.0182, 104.7380
930.5003, 105.3505
930.9824, 107.0688
931.4645, 108.3016
931.9467, 107.1815
932.4288, 105.3811
932.9109, 105.1794
933.3930, 105.9224
933.8751, 105.9110
934.3572, 104.9818
934.8394, 104.3552
935.3215, 104.8562
935.8036, 104.3368
936.2857, 105.6935
936.7678, 104.8364
937.2499, 104.9990
937.7321, 106.2781
938.2142, 107.3047
938.6963, 107.6217
939.1784, 107.3791
939.6605, 106.5979
940.1426, 105.4521
940.6248, 105.0510
941.1069, 105.6225
941.5890, 106.2408
942.0711, 106.7542
942.5532, 107.4614
943.0353, 108.7922
943.5175, 110.2379
943.9996, 110.8973
944.4817, 110.7034
944.9638, 110.6373
945.4459, 110.6566
945.9280, 110.9111
946.4102, 111.6026
946.8923, 112.3867
947.3744, 113.0127
947.8565, 113.5289
948.3386, 114.1387
948.8207, 114.9333
949.3029, 115.4873
949.7850, 115.2890
950.2671, 115.1081
950.7492, 115.5914
951.2313, 116.4087
951.7134, 116.9477
952.1956, 117.2604
952.6777, 118.0755
953.1598, 119.9384
953.6419, 121.8317
954.1240, 122.3783
954.6061, 122.3246
955.0883, 123.2990
955.5704, 124.9812
956.0525, 125.6158
956.5346, 124.7462
957.0167, 124.1042
957.4988, 125.4660
957.9810, 127.8560
958.4631, 128.7121
958.9452, 128.1465
959.4273, 127.6653
959.9094, 127.4436
960.3915, 127.1493
960.8737, 126.6285
961.3558, 125.9220
961.8379, 125.0490
962.3200, 124.0207
962.8021, 123.2763
963.2842, 122.9374
963.7664, 122.4841
964.2485, 121.8710
964.7306, 121.0376
965.2127, 119.7862
965.6948, 118.3770
966.1769, 117.4761
966.6591, 117.3206
967.1412, 116.7367
967.6233, 115.5265
968.1054, 114.1738
968.5875, 112.2601
969.0696, 110.7000
969.5518, 110.5978
970.0339, 111.4158
970.5160, 111.5176
970.9981, 110.4824
971.4802, 109.1972
971.9623, 107.5589
972.4445, 106.1441
972.9266, 105.4216
973.4087, 105.0276
973.8908, 104.5625
974.3729, 103.9605
974.8550, 103.2345
975.3372, 102.2291
975.8193, 101.5291
976.3014, 101.8730
976.7835, 102.4969
977.2656, 102.6948
977.7477, 102.4246
978.2299, 101.6425
978.7120, 100.4157
979.1941, 99.10861
979.6762, 97.80838
980.1583, 96.92342
980.6404, 97.36198
981.1226, 98.58607
981.6047, 99.36964
982.0868, 99.61637
982.5689, 99.54495
983.0510, 99.24726
983.5331, 98.75326
984.0153, 98.00937
984.4974, 97.18163
984.9795, 96.90789
985.4616, 97.13647
985.9437, 97.06398
986.4258, 96.55527
986.9080, 96.33432
987.3901, 96.84441
987.8722, 97.58159
988.3543, 97.73286
988.8364, 97.32864
989.3185, 97.15430
989.8007, 97.24931
990.2828, 97.36971
990.7649, 97.41543
991.2470, 97.65786
991.7291, 98.42031
992.2112, 99.34753
992.6934, 99.64584
993.1755, 99.20438
993.6576, 98.73274
994.1397, 98.04110
994.6218, 97.67173
995.1039, 97.95698
995.5861, 98.37622
996.0682, 98.64234
996.5503, 98.72927
997.0324, 98.53136
997.5145, 97.91104
997.9966, 97.42311
998.4788, 96.99218
998.9609, 96.83697
999.4430, 97.42067
999.9251, 97.98785
1000.407, 97.73466
1000.889, 96.87537
1001.371, 96.21753
1001.854, 95.82136
1002.336, 95.90430
1002.818, 97.10600
1003.300, 98.16174
1003.782, 98.08720
1004.264, 97.62952
1004.746, 97.79490
1005.228, 98.51784
1005.711, 98.97910
1006.193, 98.88787
1006.675, 98.43620
1007.157, 97.27563
1007.639, 96.23492
1008.121, 96.32222
1008.603, 96.95572
1009.085, 97.13960
1009.567, 96.72257
1010.050, 96.07764
1010.532, 95.27146
1011.014, 94.73038
1011.496, 95.02642
1011.978, 95.72878
1012.460, 96.35522
1012.942, 96.82970
1013.424, 97.04691
1013.906, 97.00997
1014.389, 96.88935
1014.871, 96.74725
1015.353, 96.76077
1015.835, 97.52097
1016.317, 98.52309
1016.799, 98.26920
1017.281, 97.01141
1017.763, 96.30344
1018.246, 96.63216
1018.728, 97.36723
1019.210, 98.03776
1019.692, 98.50314
1020.174, 98.36674
1020.656, 97.73843
1021.138, 97.11095
1021.620, 96.53603
1022.102, 96.05871
1022.585, 95.69577
1023.067, 95.51445
1023.549, 95.57700
1024.031, 95.89089
1024.513, 96.70872
1024.995, 97.99801
1025.477, 98.20647
1025.959, 97.11351
1026.442, 96.24242
1026.924, 96.23155
1027.406, 96.72340
1027.888, 97.39504
1028.370, 98.14890
1028.852, 98.41598
1029.334, 98.13702
1029.816, 97.80756
1030.298, 97.48180
1030.781, 97.00858
1031.263, 96.20771
1031.745, 95.52597
1032.227, 95.55196
1032.709, 96.20537
1033.191, 96.83027
1033.673, 97.48491
1034.155, 97.89590
1034.638, 98.02354
1035.120, 97.93138
1035.602, 97.53428
1036.084, 97.10547
1036.566, 97.12466
1037.048, 97.51849
1037.530, 97.01031
1038.012, 94.64125
1038.495, 93.55571
1038.977, 94.74282
1039.459, 95.97657
1039.941, 96.15319
1040.423, 95.97607
1040.905, 96.46453
1041.387, 97.56271
1041.869, 97.92808
1042.351, 96.93271
1042.833, 96.25503
1043.316, 96.24756
1043.798, 96.23303
1044.280, 95.77377
1044.762, 95.25498
1045.244, 95.09675
1045.726, 95.29900
1046.208, 95.79238
1046.690, 97.39663
1047.173, 98.02317
1047.655, 96.26456
1048.137, 94.94236
1048.619, 95.85364
1049.101, 97.53977
1049.583, 98.48002
1050.065, 98.57726
1050.547, 97.85745
1051.030, 94.95058
1051.512, 93.45586
1051.994, 95.23968
1052.476, 96.98557
1052.958, 96.78468
1053.440, 95.82026
1053.922, 95.58044
1054.404, 96.04079
1054.886, 96.21687
1055.369, 95.53943
1055.851, 95.28495
1056.333, 96.25852
1056.815, 97.13858
1057.297, 97.17133
1057.779, 96.75603
1058.261, 96.22961
1058.743, 95.71632
1059.225, 95.57249
1059.708, 96.17278
1060.190, 96.48106
1060.672, 95.96078
1061.154, 95.32388
1061.636, 94.94468
1062.118, 94.68169
1062.600, 94.18169
1063.082, 93.59731
1063.565, 93.75184
1064.047, 95.37000
1064.529, 96.20847
1065.011, 94.46316
1065.493, 92.84721
1065.975, 93.27465
1066.457, 94.42381
1066.939, 94.75274
1067.422, 94.35193
1067.904, 94.17294
1068.386, 94.53643
1068.868, 94.87641
1069.350, 94.63399
1069.832, 94.68374
1070.314, 96.30876
1070.796, 97.90529
1071.278, 97.37119
1071.760, 95.29716
1072.243, 93.78712
1072.725, 93.42610
1073.207, 93.60406
1073.689, 94.52952
1074.171, 95.35837
1074.653, 95.59832
1075.135, 95.51209
1075.617, 95.22885
1076.100, 94.89590
1076.582, 94.81888
1077.064, 95.09334
1077.546, 95.25817
1078.028, 95.04354
1078.510, 94.74550
1078.992, 94.39174
1079.474, 94.14611
1079.957, 94.26505
1080.439, 94.57808
1080.921, 94.70996
1081.403, 94.58184
1081.885, 94.46416
1082.367, 94.41619
1082.849, 94.48270
1083.331, 94.88956
1083.813, 95.23196
1084.296, 94.95739
1084.778, 94.45493
1085.260, 94.56632
1085.742, 95.35428
1086.224, 95.75258
1086.706, 95.03146
1087.188, 94.30518
1087.670, 93.82335
1088.152, 93.78432
1088.635, 94.76331
1089.117, 96.05032
1089.599, 96.55261
1090.081, 96.24500
1090.563, 96.00676
1091.045, 96.24369
1091.527, 96.36672
1092.009, 95.97680
1092.491, 95.56112
1092.974, 95.36476
1093.456, 95.37974
1093.938, 95.74787
1094.420, 96.30784
1094.902, 96.38995
1095.384, 95.53920
1095.866, 95.12379
1096.348, 96.31335
1096.831, 97.27341
1097.313, 96.91760
1097.795, 95.93135
1098.277, 94.52233
1098.759, 93.20255
1099.241, 93.35951
1099.723, 95.64391
1100.205, 97.11860
1100.688, 96.15871
1101.170, 95.16021
1101.652, 95.15614
1102.134, 95.45834
1102.616, 95.58289
1103.098, 95.53427
1103.580, 95.34579
1104.062, 95.00786
1104.544, 94.93020
1105.026, 95.77309
1105.509, 96.08977
1105.991, 94.86605
1106.473, 93.64204
1106.955, 93.71144
1107.437, 94.22854
1107.919, 93.49239
1108.401, 91.54342
1108.883, 91.11304
1109.366, 94.39363
1109.848, 96.46645
1110.330, 95.43260
1110.812, 94.50464
1111.294, 95.88199
1111.776, 97.58180
1112.258, 96.83434
1112.740, 94.22828
1113.223, 93.54534
1113.705, 96.57526
1114.187, 98.07191
1114.669, 96.34822
1115.151, 94.94154
1115.633, 95.21107
1116.115, 95.86539
1116.597, 95.82009
1117.079, 95.37154
1117.562, 95.36502
1118.044, 95.99157
1118.526, 96.23457
1119.008, 95.91273
1119.490, 95.50818
1119.972, 94.96598
1120.454, 94.55671
1120.936, 94.48765
1121.418, 94.60448
1121.901, 94.59280
1122.383, 94.44152
1122.865, 94.85656
1123.347, 96.38711
1123.829, 96.98727
1124.311, 95.97375
1124.793, 95.11606
1125.275, 95.22763
1125.758, 95.80779
1126.240, 96.41708
1126.722, 96.94052
1127.204, 96.59754
1127.686, 94.99070
1128.168, 94.55549
1128.650, 95.66611
1129.132, 96.83374
1129.615, 97.77575
1130.097, 97.90739
1130.579, 96.48854
1131.061, 94.46472
1131.543, 94.31133
1132.025, 96.05939
1132.507, 96.72780
1132.989, 96.22534
1133.471, 96.30607
1133.953, 97.39548
1134.436, 97.99635
1134.918, 97.18793
1135.400, 95.92301
1135.882, 95.57793
1136.364, 95.91798
1136.846, 95.96097
1137.328, 95.72839
1137.810, 95.33875
1138.293, 94.82907
1138.775, 94.41438
1139.257, 94.18056
1139.739, 94.27551
1140.221, 94.91721
1140.703, 95.73158
1141.185, 96.01734
1141.667, 95.86174
1142.150, 95.13440
1142.632, 94.19575
1143.114, 94.70573
1143.596, 96.77718
1144.078, 98.55806
1144.560, 98.98804
1145.042, 98.45338
1145.524, 96.79855
1146.006, 94.93992
1146.489, 94.37807
1146.971, 94.67873
1147.453, 95.05202
1147.935, 95.37535
1148.417, 95.73210
1148.899, 96.15571
1149.381, 96.66785
1149.863, 97.67057
1150.345, 98.22321
1150.828, 96.90754
1151.310, 95.14462
1151.792, 94.47268
1152.274, 94.66220
1152.756, 95.27270
1153.238, 96.06139
1153.720, 96.45418
1154.202, 96.10580
1154.685, 95.65376
1155.167, 95.12461
1155.649, 94.94466
1156.131, 95.63265
1156.613, 96.62073
1157.095, 97.55435
1157.577, 98.20353
1158.059, 97.96551
1158.542, 96.55632
1159.024, 95.83363
1159.506, 96.78389
1159.988, 97.70126
1160.470, 98.61795
1160.952, 98.81124
1161.434, 96.95594
1161.916, 94.61373
1162.398, 94.22350
1162.880, 95.73116
1163.363, 96.70522
1163.845, 97.09843
1164.327, 96.97218
1164.809, 95.71315
1165.291, 95.00625
1165.773, 95.61205
1166.255, 96.63059
1166.737, 97.54578
1167.220, 98.12566
1167.702, 97.58719
1168.184, 97.93910
1168.666, 98.21159
1169.148, 97.42397
1169.630, 98.52975
1170.112, 98.14681
1170.594, 97.50558
1171.077, 97.18315
1171.559, 97.09854
1172.041, 97.14933
1172.523, 97.35645
1173.005, 98.03751
1173.487, 97.67408
1173.969, 98.83312
1174.451, 97.31306
1174.933, 96.24593
1175.416, 96.11118
1175.898, 96.44402
1176.380, 96.96459
1176.862, 97.40641
1177.344, 97.31727
1177.826, 96.89074
1178.308, 96.40329
1178.790, 95.99747
1179.272, 96.21893
1179.755, 96.89782
1180.237, 97.03596
1180.719, 96.33878
1181.201, 95.92058
1181.683, 96.74486
1182.165, 97.94701
1182.647, 99.11561
1183.129, 99.83965
1183.612, 99.45460
1184.094, 98.39442
1184.576, 97.11868
1185.058, 95.92371
1185.540, 95.49078
1186.022, 96.19150
1186.504, 96.92969
1186.986, 97.38081
1187.469, 97.55315
1187.951, 97.03958
1188.433, 96.64423
1188.915, 97.37211
1189.397, 98.52649
1189.879, 98.70713
1190.361, 97.81293
1190.843, 97.26554
1191.325, 97.51577
1191.807, 97.58495
1192.290, 97.18368
1192.772, 96.95751
1193.254, 97.13392
1193.736, 97.56136
1194.218, 98.29578
1194.700, 99.04098
1195.182, 98.96187
1195.664, 97.97102
1196.147, 97.22388
1196.629, 96.70750
1197.111, 96.56093
1197.593, 96.85444
1198.075, 97.21153
1198.557, 97.46774
1199.039, 97.64587
1199.521, 97.78650
1200.004, 97.84171
1200.486, 97.52085
1200.968, 97.85567
1201.450, 97.22960
1201.932, 98.11172
1202.414, 98.55872
1202.896, 98.38783
1203.378, 98.13158
1203.860, 98.07820
1204.343, 98.06514
1204.825, 97.79676
1205.307, 97.58803
1205.789, 97.86214
1206.271, 98.47144
1206.753, 99.51594
1207.235, 100.5956
1207.717, 100.9203
1208.199, 100.3725
1208.682, 99.35103
1209.164, 97.65469
1209.646, 96.66348
1210.128, 97.88813
1210.610, 99.02272
1211.092, 98.28456
1211.574, 97.20464
1212.056, 97.32455
1212.539, 98.24084
1213.021, 99.03048
1213.503, 99.63779
1213.985, 99.52731
1214.467, 97.44469
1214.949, 96.71723
1215.431, 98.41817
1215.913, 100.0004
1216.396, 100.7288
1216.878, 100.6496
1217.360, 99.49137
1217.842, 97.90414
1218.324, 97.71681
1218.806, 98.97536
1219.288, 99.34394
1219.770, 98.74611
1220.252, 98.64282
1220.734, 99.26402
1221.217, 99.58091
1221.699, 99.13811
1222.181, 98.58414
1222.663, 98.52689
1223.145, 98.84419
1223.627, 99.49143
1224.109, 100.2517
1224.591, 100.6537
1225.074, 100.7090
1225.556, 100.4532
1226.038, 99.95549
1226.520, 99.27388
1227.002, 98.44478
1227.484, 98.11559
1227.966, 99.41161
1228.448, 100.5032
1228.931, 99.29423
1229.413, 98.11401
1229.895, 99.62917
1230.377, 102.1169
1230.859, 103.2174
1231.341, 102.8106
1231.823, 101.5689
1232.305, 99.08231
1232.787, 97.72598
1233.270, 98.72457
1233.752, 99.49562
1234.234, 99.32893
1234.716, 99.15919
1235.198, 99.46677
1235.680, 100.0342
1236.162, 100.7304
1236.644, 101.3850
1237.126, 101.0350
1237.609, 99.51965
1238.091, 98.74789
1238.573, 98.81043
1239.055, 98.54784
1239.537, 97.70574
1240.019, 97.38518
1240.501, 98.20846
1240.983, 99.27975
1241.466, 99.60358
1241.948, 99.40146
1242.430, 98.76083
1242.912, 98.09062
1243.394, 98.54314
1243.876, 99.61906
1244.358, 99.69485
1244.840, 98.86926
1245.323, 99.18530
1245.805, 101.6609
1246.287, 103.2287
1246.769, 100.9902
1247.251, 98.76449
1247.733, 98.94892
1248.215, 99.73227
1248.697, 99.73945
1249.179, 99.39449
1249.661, 99.36549
1250.144, 99.67165
1250.626, 100.1403
1251.108, 100.9654
1251.590, 101.2976
1252.072, 100.9289
1252.554, 100.5223
1253.036, 100.1498
1253.518, 99.89388
1254.001, 99.82159
1254.483, 99.80266
1254.965, 99.66232
1255.447, 99.48447
1255.929, 99.55701
1256.411, 99.84274
1256.893, 100.1386
1257.375, 100.3979
1257.858, 100.3802
1258.340, 100.0842
1258.822, 99.73367
1259.304, 99.43793
1259.786, 99.33341
1260.268, 99.65627
1260.750, 100.0054
1261.232, 99.79407
1261.714, 99.57903
1262.197, 100.0923
1262.679, 100.8888
1263.161, 101.3052
1263.643, 101.3756
1264.125, 101.5347
1264.607, 101.9110
1265.089, 101.9753
1265.571, 101.3777
1266.053, 100.8486
1266.536, 100.3806
1267.018, 100.1977
1267.500, 100.6217
1267.982, 100.9791
1268.464, 100.5501
1268.946, 99.74908
1269.428, 99.63500
1269.910, 100.1693
1270.393, 100.3859
1270.875, 100.2959
1271.357, 100.2562
1271.839, 100.2790
1272.321, 99.73879
1272.803, 98.53125
1273.285, 98.21985
1273.767, 100.0928
1274.250, 102.3922
1274.732, 103.3905
1275.214, 103.3815
1275.696, 102.1754
1276.178, 100.6188
1276.660, 99.73534
1277.142, 99.45189
1277.624, 99.48333
1278.106, 99.71127
1278.589, 99.73804
1279.071, 99.19840
1279.553, 99.08587
1280.035, 100.2369
1280.517, 100.8629
1280.999, 99.83823
1281.481, 99.19861
1281.963, 100.5501
1282.445, 102.2522
1282.928, 101.9169
1283.410, 100.1528
1283.892, 99.84699
1284.374, 100.9808
1284.856, 101.6312
1285.338, 101.7429
1285.820, 101.2540
1286.302, 100.2431
1286.785, 99.33322
1287.267, 98.82507
1287.749, 98.95494
1288.231, 99.89104
##END=



