##NAMES=Forsterite
##RRUFFID=R100101
##IDEAL CHEMISTRY=Mg_2_SiO_4_
##LOCALITY=Yancey County,  North Carolina, USA
##OWNER=RRUFF
##SOURCE=American Museum of Natural History
##DESCRIPTION=Pale green consolidated aggregate of grains
##STATUS=The identification of this mineral is confirmed by single-crystal X-ray diffraction and chemical analysis.
##URL=rruff.info/R100101
##MEASURED CHEMISTRY=(Mg_1.809_Fe_0.183_Ni_0.008_Mn_0.003_)_Î£=2.003_Si_0.999_O_4_
126.6509, 8.224250
127.1331, 8.905459
127.6152, 10.39892
128.0973, 11.64914
128.5794, 11.71121
129.0615, 10.98705
129.5436, 10.43949
130.0258, 10.32885
130.5079, 10.43257
130.9900, 10.28990
131.4721, 9.902330
131.9542, 9.615787
132.4363, 9.879430
132.9185, 10.59668
133.4006, 11.07709
133.8827, 10.98840
134.3648, 10.54622
134.8469, 10.59336
135.3290, 11.21236
135.8112, 11.96105
136.2933, 12.30068
136.7754, 12.20704
137.2575, 12.10667
137.7396, 12.02530
138.2217, 11.97589
138.7039, 12.48711
139.1860, 13.67072
139.6681, 15.24310
140.1502, 16.98464
140.6323, 19.10818
141.1144, 20.63095
141.5966, 20.88320
142.0787, 19.35283
142.5608, 18.90664
143.0429, 19.88809
143.5250, 21.75460
144.0071, 23.31520
144.4893, 24.54007
144.9714, 25.48447
145.4535, 26.10824
145.9356, 26.12775
146.4177, 26.40451
146.8998, 26.97000
147.3820, 27.80280
147.8641, 28.85777
148.3462, 30.27401
148.8283, 31.76799
149.3104, 33.20963
149.7925, 34.61853
150.2747, 35.93719
150.7568, 37.09335
151.2389, 38.10416
151.7210, 39.17978
152.2031, 40.49232
152.6852, 41.75467
153.1674, 42.80250
153.6495, 43.07920
154.1316, 43.70658
154.6137, 45.08363
155.0958, 47.23218
155.5779, 48.94735
156.0601, 49.95039
156.5422, 50.52790
157.0243, 50.91082
157.5064, 51.05386
157.9885, 51.08700
158.4706, 50.91567
158.9528, 50.47644
159.4349, 50.40068
159.9170, 51.09701
160.3991, 52.16958
160.8812, 53.16080
161.3633, 53.82332
161.8455, 54.46953
162.3276, 55.25488
162.8097, 56.21246
163.2918, 57.16387
163.7739, 58.05783
164.2560, 58.82709
164.7382, 59.09939
165.2203, 59.29474
165.7024, 59.35893
166.1845, 59.05117
166.6666, 58.13332
167.1487, 57.53815
167.6309, 58.06488
168.1130, 59.28245
168.5951, 60.27260
169.0772, 60.38598
169.5593, 60.21784
170.0414, 60.27935
170.5236, 60.71584
171.0057, 61.25354
171.4878, 61.83533
171.9699, 62.39482
172.4520, 62.71523
172.9341, 62.26011
173.4163, 61.65349
173.8984, 61.74598
174.3805, 63.15608
174.8626, 64.58498
175.3447, 64.68580
175.8268, 63.67357
176.3090, 62.52688
176.7911, 61.81853
177.2732, 61.43179
177.7553, 61.20978
178.2374, 61.19850
178.7195, 61.23397
179.2017, 61.03741
179.6838, 60.63717
180.1659, 60.32790
180.6480, 60.48979
181.1301, 60.91618
181.6122, 61.09325
182.0944, 60.64462
182.5765, 60.03637
183.0586, 60.21381
183.5407, 61.16308
184.0228, 62.10829
184.5049, 62.20040
184.9871, 61.66380
185.4692, 61.30109
185.9513, 61.40943
186.4334, 61.83488
186.9155, 62.25338
187.3976, 62.66442
187.8798, 63.05401
188.3619, 63.43106
188.8440, 63.78886
189.3261, 64.05939
189.8082, 64.24637
190.2903, 64.33112
190.7725, 64.17010
191.2546, 63.71012
191.7367, 63.27332
192.2188, 63.21877
192.7009, 63.53426
193.1830, 64.03059
193.6652, 64.73343
194.1473, 65.59313
194.6294, 66.22620
195.1115, 66.59309
195.5936, 66.86743
196.0757, 67.29128
196.5579, 67.87061
197.0400, 68.42404
197.5221, 68.89915
198.0042, 69.29378
198.4863, 69.58186
198.9684, 69.75338
199.4506, 69.83840
199.9327, 69.78579
200.4148, 69.55244
200.8969, 69.55840
201.3790, 70.08451
201.8611, 71.15300
202.3433, 71.96402
202.8254, 72.40945
203.3075, 72.77048
203.7896, 73.60777
204.2717, 75.04379
204.7538, 76.34664
205.2360, 77.10933
205.7181, 77.24392
206.2002, 77.65266
206.6823, 78.37997
207.1644, 79.32471
207.6465, 80.28650
208.1287, 81.21336
208.6108, 82.30334
209.0929, 83.72593
209.5750, 85.59883
210.0571, 87.17363
210.5392, 88.35654
211.0214, 89.34172
211.5035, 90.50039
211.9856, 91.79919
212.4677, 93.33089
212.9498, 95.25316
213.4319, 97.73422
213.9140, 99.78771
214.3962, 101.2466
214.8783, 102.3831
215.3604, 103.8286
215.8425, 105.7380
216.3246, 107.6306
216.8067, 109.2454
217.2889, 110.3860
217.7710, 111.9087
218.2531, 114.0498
218.7352, 116.4574
219.2173, 118.2816
219.6994, 119.2501
220.1816, 120.1625
220.6637, 121.4955
221.1458, 123.6280
221.6279, 125.0953
222.1100, 125.8158
222.5921, 125.8985
223.0743, 125.6349
223.5564, 125.0618
224.0385, 124.0868
224.5206, 122.6498
225.0027, 120.5875
225.4848, 118.4525
225.9670, 116.2090
226.4491, 113.9344
226.9312, 111.8007
227.4133, 109.9013
227.8954, 108.0102
228.3775, 106.0676
228.8597, 104.0232
229.3418, 101.9361
229.8239, 99.65807
230.3060, 97.36443
230.7881, 95.65461
231.2702, 94.79836
231.7524, 94.07795
232.2345, 93.16995
232.7166, 91.92080
233.1987, 90.82142
233.6808, 89.99677
234.1629, 89.29629
234.6451, 88.21368
235.1272, 86.26176
235.6093, 84.67014
236.0914, 84.14634
236.5735, 85.64421
237.0556, 85.97698
237.5378, 84.61488
238.0199, 82.24809
238.5020, 80.68725
238.9841, 80.52700
239.4662, 80.26864
239.9483, 79.15646
240.4305, 76.49692
240.9126, 74.67184
241.3947, 74.01099
241.8768, 74.07778
242.3589, 73.83707
242.8410, 73.30795
243.3232, 72.44152
243.8053, 71.09326
244.2874, 68.70752
244.7695, 67.22345
245.2516, 67.00227
245.7337, 67.52850
246.2159, 67.63619
246.6980, 67.06039
247.1801, 66.48506
247.6622, 66.23108
248.1443, 66.56430
248.6264, 66.43257
249.1086, 65.57805
249.5907, 64.38546
250.0728, 63.65986
250.5549, 63.58926
251.0370, 63.67128
251.5191, 63.77986
252.0013, 64.02857
252.4834, 63.87176
252.9655, 63.04533
253.4476, 61.97191
253.9297, 61.48462
254.4118, 61.89304
254.8940, 62.31732
255.3761, 62.46045
255.8582, 62.28384
256.3403, 61.93666
256.8224, 61.25412
257.3046, 60.52709
257.7867, 60.27696
258.2688, 60.66349
258.7509, 61.19649
259.2330, 61.82095
259.7151, 62.65252
260.1973, 62.85731
260.6794, 62.13759
261.1615, 61.08031
261.6436, 60.55600
262.1257, 60.69156
262.6078, 61.05370
263.0900, 61.64651
263.5721, 62.55758
264.0542, 62.79116
264.5363, 62.00917
265.0184, 60.95539
265.5005, 60.62738
265.9827, 61.28725
266.4648, 61.91216
266.9469, 62.17709
267.4290, 62.06962
267.9111, 62.18859
268.3932, 62.70010
268.8754, 63.17757
269.3575, 63.01629
269.8396, 61.95927
270.3217, 61.21022
270.8038, 61.12197
271.2859, 61.66033
271.7681, 62.19970
272.2502, 62.78772
272.7323, 63.27969
273.2144, 63.45124
273.6965, 63.22340
274.1786, 63.11312
274.6608, 63.25312
275.1429, 63.61047
275.6250, 63.96086
276.1071, 64.30976
276.5892, 64.63588
277.0714, 64.87855
277.5535, 65.01897
278.0356, 65.26118
278.5177, 65.64897
278.9998, 66.16592
279.4819, 66.77998
279.9641, 67.52985
280.4462, 68.24333
280.9283, 68.69057
281.4104, 68.85081
281.8925, 69.32558
282.3746, 70.30480
282.8568, 71.58222
283.3389, 72.51052
283.8210, 73.03732
284.3031, 73.61853
284.7852, 74.55782
285.2673, 75.83825
285.7495, 77.37913
286.2316, 79.27989
286.7137, 81.27535
287.1958, 82.67272
287.6779, 83.44692
288.1600, 84.36259
288.6422, 86.09669
289.1243, 88.51221
289.6064, 90.41301
290.0885, 91.59542
290.5706, 92.56501
291.0527, 94.23721
291.5349, 96.56266
292.0170, 98.81723
292.4991, 100.3568
292.9812, 101.4647
293.4633, 103.0947
293.9454, 105.3218
294.4276, 108.0045
294.9097, 111.0025
295.3918, 114.3025
295.8739, 117.7887
296.3560, 121.4249
296.8381, 125.1969
297.3203, 128.9494
297.8024, 132.6472
298.2845, 136.4621
298.7666, 140.6911
299.2487, 145.1764
299.7308, 149.5664
300.2130, 153.9724
300.6951, 158.0960
301.1772, 161.8039
301.6593, 165.0872
302.1414, 167.0502
302.6235, 166.4788
303.1057, 164.0143
303.5878, 160.9779
304.0699, 158.0840
304.5520, 154.5820
305.0341, 148.9800
305.5162, 141.5619
305.9984, 134.4864
306.4805, 129.7541
306.9626, 126.2592
307.4447, 122.5219
307.9268, 117.7793
308.4089, 113.0736
308.8911, 109.2736
309.3732, 106.2780
309.8553, 103.6728
310.3374, 101.0775
310.8195, 98.80735
311.3016, 97.23427
311.7838, 96.53449
312.2659, 96.32726
312.7480, 96.54551
313.2301, 97.09214
313.7122, 97.72659
314.1943, 98.68620
314.6765, 99.47756
315.1586, 99.67272
315.6407, 99.05451
316.1228, 98.40246
316.6049, 98.12753
317.0870, 98.05783
317.5692, 97.91411
318.0513, 97.52547
318.5334, 97.09280
319.0155, 96.66329
319.4976, 96.21160
319.9797, 95.94685
320.4619, 95.74284
320.9440, 95.82700
321.4261, 96.45222
321.9082, 98.41798
322.3903, 100.2197
322.8724, 101.3304
323.3546, 101.7222
323.8367, 102.0769
324.3188, 102.5282
324.8009, 102.9917
325.2830, 103.3978
325.7651, 104.2041
326.2473, 104.4485
326.7294, 103.7262
327.2115, 102.1735
327.6936, 100.8552
328.1757, 100.0675
328.6578, 99.37025
329.1400, 98.54704
329.6221, 97.67799
330.1042, 96.57287
330.5863, 94.80886
331.0684, 92.78925
331.5505, 91.77065
332.0327, 92.57754
332.5148, 93.39896
332.9969, 93.45126
333.4790, 92.24730
333.9611, 91.61325
334.4432, 91.67114
334.9254, 92.22981
335.4075, 93.05386
335.8896, 94.47182
336.3717, 95.50166
336.8538, 95.75890
337.3359, 95.17137
337.8180, 94.59328
338.3001, 93.99149
338.7823, 93.45242
339.2644, 93.20523
339.7465, 93.42085
340.2286, 93.17064
340.7107, 92.18594
341.1928, 90.52744
341.6750, 88.55003
342.1571, 86.02968
342.6392, 83.90956
343.1213, 83.42346
343.6034, 84.61490
344.0855, 84.61296
344.5677, 82.63823
345.0498, 79.51887
345.5319, 77.16862
346.0140, 75.59331
346.4961, 74.61344
346.9782, 74.41125
347.4604, 74.79639
347.9425, 74.81628
348.4246, 74.32413
348.9067, 73.63059
349.3888, 73.18406
349.8709, 72.94239
350.3531, 72.66790
350.8352, 72.04758
351.3173, 71.35729
351.7994, 71.20084
352.2815, 71.63129
352.7636, 72.21465
353.2458, 72.59290
353.7279, 72.81162
354.2100, 72.96964
354.6921, 73.12626
355.1742, 73.22411
355.6563, 73.14619
356.1385, 72.91184
356.6206, 72.72472
357.1027, 72.75359
357.5848, 72.89680
358.0669, 73.03758
358.5490, 73.14977
359.0312, 73.24380
359.5133, 73.29675
359.9954, 73.33080
360.4775, 73.41579
360.9596, 73.60339
361.4417, 73.84083
361.9239, 74.15112
362.4060, 74.65389
362.8881, 74.88321
363.3702, 74.24938
363.8523, 73.31013
364.3344, 72.92057
364.8166, 73.88386
365.2987, 74.94013
365.7808, 75.51470
366.2629, 75.49870
366.7450, 75.75801
367.2271, 76.67017
367.7093, 77.79784
368.1914, 78.75668
368.6735, 79.31875
369.1556, 79.93433
369.6377, 80.78080
370.1198, 81.80539
370.6020, 82.46057
371.0841, 82.63216
371.5662, 82.54085
372.0483, 82.32687
372.5304, 82.20039
373.0125, 81.52725
373.4947, 80.08848
373.9768, 78.17758
374.4589, 76.44910
374.9410, 74.93889
375.4231, 73.53203
375.9052, 72.19748
376.3874, 70.94540
376.8695, 69.56018
377.3516, 67.82238
377.8337, 66.29771
378.3158, 65.84819
378.7979, 66.64771
379.2801, 67.19455
379.7622, 66.98925
380.2443, 66.22225
380.7264, 65.74015
381.2085, 65.56930
381.6906, 65.51579
382.1728, 65.52713
382.6549, 65.55865
383.1370, 65.26621
383.6191, 64.46152
384.1012, 63.53616
384.5833, 63.19603
385.0655, 63.37687
385.5476, 63.58379
386.0297, 63.56959
386.5118, 63.37904
386.9939, 62.97579
387.4760, 62.29883
387.9582, 61.83569
388.4403, 62.38939
388.9224, 63.48796
389.4045, 64.14892
389.8866, 63.47559
390.3687, 62.53832
390.8509, 62.35416
391.3330, 62.85941
391.8151, 63.26464
392.2972, 62.92620
392.7793, 62.34092
393.2614, 61.98513
393.7436, 62.05971
394.2257, 62.27692
394.7078, 62.61096
395.1899, 63.00593
395.6720, 63.31492
396.1541, 63.46041
396.6363, 63.53520
397.1184, 63.54327
397.6005, 63.40590
398.0826, 63.45542
398.5647, 63.76253
399.0468, 64.27591
399.5290, 64.93336
400.0111, 66.10452
400.4932, 67.00990
400.9753, 67.31927
401.4574, 67.03855
401.9395, 67.31454
402.4217, 68.46118
402.9038, 69.83301
403.3859, 71.01791
403.8680, 71.98054
404.3501, 72.83004
404.8322, 73.51769
405.3144, 74.11822
405.7965, 74.88087
406.2786, 75.94035
406.7607, 76.72529
407.2428, 76.74613
407.7249, 75.95773
408.2071, 76.12112
408.6892, 77.47054
409.1713, 79.08083
409.6534, 79.66465
410.1355, 79.27715
410.6176, 79.10336
411.0998, 79.55213
411.5819, 80.39909
412.0640, 81.05793
412.5461, 81.53679
413.0282, 82.19498
413.5103, 83.61361
413.9925, 85.36235
414.4746, 86.51076
414.9567, 86.79948
415.4388, 86.78132
415.9209, 86.82869
416.4030, 87.00749
416.8852, 87.48455
417.3673, 88.88493
417.8494, 90.25658
418.3315, 90.60410
418.8136, 89.85461
419.2957, 89.27110
419.7779, 89.68429
420.2600, 90.56417
420.7421, 91.37326
421.2242, 92.01546
421.7063, 92.50964
422.1884, 92.76231
422.6706, 92.85157
423.1527, 93.08151
423.6348, 93.26299
424.1169, 93.80522
424.5990, 94.98930
425.0811, 97.26182
425.5633, 99.18244
426.0454, 100.4361
426.5275, 101.4226
427.0096, 102.6715
427.4917, 104.3727
427.9738, 106.0411
428.4560, 107.5941
428.9381, 109.0435
429.4202, 110.3570
429.9023, 111.4813
430.3844, 112.5381
430.8665, 113.6866
431.3487, 115.0204
431.8308, 115.8249
432.3129, 115.9373
432.7950, 115.6222
433.2771, 115.4668
433.7592, 115.4876
434.2414, 115.2538
434.7235, 114.5153
435.2056, 113.3519
435.6877, 111.9841
436.1698, 110.3921
436.6519, 108.8950
437.1341, 108.1728
437.6162, 107.8309
438.0983, 106.7817
438.5804, 104.5379
439.0625, 101.7460
439.5446, 99.03938
440.0268, 96.39293
440.5089, 93.71218
440.9910, 90.76807
441.4731, 87.87378
441.9552, 85.28445
442.4373, 83.08753
442.9195, 81.01905
443.4016, 78.88970
443.8837, 76.83591
444.3658, 75.02348
444.8479, 73.64394
445.3300, 72.36968
445.8122, 70.90453
446.2943, 69.34112
446.7764, 68.38158
447.2585, 69.04463
447.7406, 69.63305
448.2227, 69.20260
448.7049, 66.73914
449.1870, 65.22383
449.6691, 65.08664
450.1512, 65.69201
450.6333, 66.09972
451.1154, 66.39200
451.5976, 66.28204
452.0797, 65.46443
452.5618, 64.03376
453.0439, 63.59642
453.5260, 64.42793
454.0081, 65.41579
454.4903, 65.64819
454.9724, 65.13416
455.4545, 64.58572
455.9366, 64.04726
456.4187, 63.60234
456.9008, 63.44548
457.3830, 63.54840
457.8651, 63.70266
458.3472, 63.78437
458.8293, 63.85966
459.3114, 64.15054
459.7935, 64.65066
460.2757, 64.97433
460.7578, 64.64150
461.2399, 63.98709
461.7220, 63.49072
462.2041, 63.36870
462.6862, 63.26598
463.1684, 62.79087
463.6505, 62.15103
464.1326, 61.83970
464.6147, 62.42588
465.0968, 63.08356
465.5789, 63.35471
466.0611, 63.15321
466.5432, 62.98742
467.0253, 62.83894
467.5074, 62.83108
467.9895, 63.06969
468.4716, 63.90788
468.9538, 64.55743
469.4359, 64.99815
469.9180, 65.21538
470.4001, 65.11557
470.8822, 64.52373
471.3643, 63.92774
471.8465, 63.52269
472.3286, 63.32386
472.8107, 63.16295
473.2928, 63.04008
473.7749, 62.96156
474.2570, 62.89898
474.7392, 62.85386
475.2213, 63.02850
475.7034, 63.56821
476.1855, 64.22974
476.6676, 64.52126
477.1497, 64.46060
477.6319, 64.21767
478.1140, 63.56729
478.5961, 62.90098
479.0782, 63.07994
479.5603, 64.22708
480.0424, 65.25652
480.5246, 65.14014
481.0067, 64.38921
481.4888, 63.72260
481.9709, 63.28758
482.4530, 63.08319
482.9352, 63.25377
483.4173, 63.68100
483.8994, 63.99115
484.3815, 64.07879
484.8636, 64.00323
485.3457, 63.75976
485.8279, 63.29341
486.3100, 62.87201
486.7921, 62.27409
487.2742, 61.86789
487.7563, 62.03254
488.2384, 63.37952
488.7206, 64.23589
489.2027, 64.28895
489.6848, 63.74096
490.1669, 63.26810
490.6490, 62.86351
491.1311, 62.56879
491.6133, 62.44853
492.0954, 62.49865
492.5775, 62.41754
493.0596, 62.14811
493.5417, 61.99541
494.0238, 62.47855
494.5060, 63.43102
494.9881, 64.05382
495.4702, 64.07529
495.9523, 63.78338
496.4344, 63.50384
496.9165, 63.24110
497.3987, 63.01307
497.8808, 62.71387
498.3629, 62.52077
498.8450, 62.63366
499.3271, 63.07597
499.8092, 63.61726
500.2914, 64.38882
500.7735, 65.07839
501.2556, 65.40788
501.7377, 65.07824
502.2198, 64.65089
502.7019, 64.02249
503.1841, 63.36914
503.6662, 63.16692
504.1483, 63.99679
504.6304, 64.70311
505.1125, 64.92892
505.5946, 64.63690
506.0768, 64.35606
506.5589, 64.00930
507.0410, 63.79382
507.5231, 63.91504
508.0052, 64.42789
508.4873, 64.93058
508.9695, 65.40529
509.4516, 65.79794
509.9337, 65.93363
510.4158, 65.82861
510.8979, 65.79320
511.3800, 66.05850
511.8622, 66.45589
512.3443, 66.55756
512.8264, 66.37798
513.3085, 66.21063
513.7906, 66.43825
514.2728, 66.75087
514.7549, 66.61187
515.2370, 65.65437
515.7191, 65.05441
516.2012, 66.06841
516.6833, 67.80465
517.1655, 68.90914
517.6476, 68.31803
518.1297, 67.64756
518.6118, 67.41515
519.0939, 67.61059
519.5760, 67.93185
520.0582, 68.58522
520.5403, 69.14705
521.0224, 69.34418
521.5045, 68.81983
521.9866, 69.04887
522.4688, 70.46018
522.9509, 72.15121
523.4330, 72.93911
523.9151, 72.63419
524.3972, 72.46452
524.8793, 72.68904
525.3615, 73.21278
525.8436, 73.82388
526.3257, 74.52477
526.8078, 75.28293
527.2899, 76.22161
527.7720, 77.19026
528.2542, 77.78135
528.7363, 77.96779
529.2184, 78.07046
529.7005, 78.20406
530.1826, 78.46577
530.6647, 79.03549
531.1469, 80.22066
531.6290, 81.28392
532.1111, 81.53540
532.5932, 81.38139
533.0753, 81.64845
533.5574, 82.79333
534.0396, 84.19084
534.5217, 85.72603
535.0038, 87.38991
535.4859, 88.89871
535.9680, 89.85890
536.4501, 91.02586
536.9323, 92.94784
537.4144, 96.20772
537.8965, 98.55930
538.3786, 99.64946
538.8607, 100.2464
539.3428, 101.5850
539.8250, 103.7552
540.3071, 105.5937
540.7892, 106.6719
541.2713, 107.2717
541.7534, 108.1549
542.2355, 109.2632
542.7177, 109.9682
543.1998, 110.1231
543.6819, 109.5284
544.1640, 107.7174
544.6461, 104.6273
545.1282, 101.1214
545.6104, 97.37972
546.0925, 93.75973
546.5746, 90.68251
547.0567, 88.60758
547.5388, 86.61083
548.0209, 84.26780
548.5031, 81.81386
548.9852, 79.71471
549.4673, 78.12231
549.9494, 76.81281
550.4315, 75.71228
550.9136, 74.82125
551.3958, 74.34734
551.8779, 74.58358
552.3600, 74.74296
552.8421, 74.21760
553.3242, 72.90110
553.8063, 71.89645
554.2885, 71.24677
554.7706, 70.91895
555.2527, 70.97205
555.7348, 71.35372
556.2169, 71.76997
556.6990, 72.25105
557.1812, 72.56445
557.6633, 72.14011
558.1454, 71.18839
558.6275, 70.49895
559.1096, 70.68909
559.5917, 71.21911
560.0739, 71.74043
560.5560, 72.23174
561.0381, 72.53578
561.5202, 72.20555
562.0023, 71.89482
562.4844, 72.10664
562.9666, 73.42186
563.4487, 74.49277
563.9308, 75.08224
564.4129, 75.45847
564.8950, 76.01402
565.3771, 76.75412
565.8593, 77.65757
566.3414, 78.78071
566.8235, 80.05112
567.3056, 81.18163
567.7877, 82.15034
568.2698, 83.08915
568.7520, 83.98643
569.2341, 84.90782
569.7162, 86.17915
570.1983, 87.81039
570.6804, 89.61278
571.1625, 91.49067
571.6447, 93.38367
572.1268, 95.14873
572.6089, 96.64011
573.0910, 98.27796
573.5731, 100.6124
574.0552, 103.2437
574.5374, 105.5249
575.0195, 106.3213
575.5016, 107.6463
575.9837, 110.5284
576.4658, 114.8068
576.9479, 118.4591
577.4301, 121.1305
577.9122, 123.4901
578.3943, 125.7453
578.8764, 127.7852
579.3585, 130.3582
579.8406, 133.6218
580.3228, 137.0692
580.8049, 140.2319
581.2870, 143.1016
581.7691, 145.8007
582.2512, 148.3917
582.7333, 150.6620
583.2155, 151.9472
583.6975, 152.5698
584.1796, 153.6161
584.6617, 156.6159
585.1439, 159.4938
585.6260, 160.0354
586.1081, 158.6278
586.5902, 157.2514
587.0723, 156.9019
587.5544, 156.7977
588.0366, 156.5409
588.5187, 156.1184
589.0008, 155.4221
589.4829, 154.4959
589.9650, 153.2515
590.4471, 151.6033
590.9293, 149.4589
591.4114, 147.0811
591.8935, 144.3567
592.3756, 141.5279
592.8577, 139.1272
593.3398, 137.2161
593.8220, 134.9862
594.3041, 131.8799
594.7862, 128.5155
595.2683, 126.3924
595.7504, 125.4228
596.2325, 124.8304
596.7147, 124.1719
597.1968, 123.6100
597.6789, 123.1781
598.1610, 122.8722
598.6431, 123.2363
599.1252, 125.3012
599.6074, 127.7359
600.0895, 129.4340
600.5716, 129.7406
601.0537, 130.1069
601.5358, 130.8711
602.0179, 131.7540
602.5001, 132.3627
602.9822, 132.4325
603.4643, 132.7609
603.9464, 133.5635
604.4285, 134.6821
604.9106, 135.7702
605.3928, 136.8740
605.8749, 137.4333
606.3570, 137.0263
606.8391, 135.8641
607.3212, 134.5976
607.8033, 133.2309
608.2855, 131.7260
608.7676, 130.2429
609.2497, 128.5363
609.7318, 126.2377
610.2139, 123.1688
610.6960, 120.0221
611.1782, 117.0274
611.6603, 114.2256
612.1424, 111.6241
612.6245, 109.4303
613.1066, 107.2345
613.5887, 104.9752
614.0709, 102.6764
614.5530, 100.2994
615.0351, 97.80576
615.5172, 95.39610
615.9993, 93.04268
616.4814, 90.80830
616.9636, 89.03069
617.4457, 87.74295
617.9278, 86.60005
618.4099, 85.33632
618.8920, 84.07224
619.3741, 83.24780
619.8563, 82.88035
620.3384, 82.34357
620.8205, 80.76310
621.3026, 78.87020
621.7847, 77.60079
622.2668, 77.32304
622.7490, 77.16227
623.2311, 76.80388
623.7132, 76.30970
624.1953, 75.75893
624.6774, 74.88438
625.1595, 74.31905
625.6417, 74.41808
626.1238, 74.82800
626.6059, 74.45546
627.0880, 72.96916
627.5701, 71.70627
628.0522, 71.22923
628.5344, 71.36060
629.0165, 71.18201
629.4986, 70.68604
629.9807, 70.21071
630.4628, 69.99097
630.9449, 69.96004
631.4271, 70.06065
631.9092, 70.29722
632.3913, 70.40363
632.8734, 70.00810
633.3555, 69.47047
633.8376, 69.20222
634.3198, 69.58871
634.8019, 69.66540
635.2840, 68.75793
635.7661, 67.54305
636.2482, 66.98147
636.7303, 67.64020
637.2125, 68.02480
637.6946, 67.83338
638.1767, 67.28198
638.6588, 66.97553
639.1409, 66.93719
639.6230, 66.97648
640.1052, 67.07757
640.5873, 67.18046
641.0694, 67.03884
641.5515, 66.67735
642.0336, 66.37892
642.5157, 66.44283
642.9979, 66.61940
643.4800, 66.58846
643.9621, 66.31298
644.4442, 66.08300
644.9263, 66.03532
645.4084, 66.09525
645.8906, 66.21698
646.3727, 66.50404
646.8548, 66.63844
647.3369, 66.49544
647.8190, 66.26774
648.3011, 66.23239
648.7833, 66.53380
649.2654, 66.48536
649.7475, 65.82427
650.2296, 64.95029
650.7117, 64.77258
651.1938, 65.23067
651.6760, 65.61534
652.1581, 65.54036
652.6402, 65.30268
653.1223, 65.38162
653.6044, 65.70893
654.0865, 65.99978
654.5687, 66.08889
655.0508, 66.09170
655.5329, 66.05698
656.0150, 65.98753
656.4971, 65.96318
656.9792, 66.03630
657.4614, 66.13139
657.9435, 66.19044
658.4256, 66.15932
658.9077, 66.31165
659.3898, 66.75188
659.8719, 67.19035
660.3541, 67.28080
660.8362, 67.03535
661.3183, 66.85114
661.8004, 66.78644
662.2825, 66.80254
662.7646, 66.98904
663.2468, 67.21751
663.7289, 67.14372
664.2110, 66.29317
664.6931, 65.54582
665.1752, 65.74862
665.6573, 66.52419
666.1395, 66.98137
666.6216, 66.30093
667.1037, 65.83086
667.5858, 66.25420
668.0679, 67.38894
668.5500, 67.90836
669.0322, 67.54972
669.5143, 67.09838
669.9964, 66.86813
670.4785, 66.85126
670.9606, 66.97041
671.4427, 67.24061
671.9249, 67.49665
672.4070, 67.61403
672.8891, 67.62031
673.3712, 67.50940
673.8533, 67.25838
674.3354, 67.15868
674.8176, 67.70196
675.2997, 68.37072
675.7818, 68.58985
676.2639, 67.96876
676.7460, 67.39767
677.2281, 66.95031
677.7103, 66.72710
678.1924, 66.90174
678.6745, 67.79121
679.1566, 68.38210
679.6387, 68.52218
680.1208, 68.31295
680.6030, 67.81171
681.0851, 67.02947
681.5672, 66.61437
682.0493, 66.96317
682.5314, 67.66644
683.0135, 67.96435
683.4957, 67.97303
683.9778, 68.13958
684.4599, 69.01540
684.9420, 69.88626
685.4241, 70.29781
685.9063, 70.24047
686.3884, 69.94374
686.8705, 69.02652
687.3526, 68.28781
687.8347, 68.10030
688.3168, 68.54151
688.7990, 69.06655
689.2811, 69.79112
689.7632, 70.36434
690.2453, 70.35613
690.7274, 69.83723
691.2095, 69.85516
691.6917, 70.55732
692.1738, 71.19667
692.6559, 70.67936
693.1380, 69.62733
693.6201, 69.15485
694.1022, 69.70915
694.5844, 70.32790
695.0665, 70.48667
695.5486, 70.37354
696.0307, 70.22935
696.5128, 69.98580
696.9949, 69.87100
697.4771, 69.97204
697.9592, 70.18285
698.4413, 70.27640
698.9234, 70.20858
699.4055, 70.21004
699.8876, 70.37318
700.3698, 70.61565
700.8519, 70.71411
701.3340, 70.68812
701.8161, 70.66132
702.2982, 70.69726
702.7803, 70.76734
703.2625, 70.83593
703.7446, 70.90947
704.2267, 71.01692
704.7088, 71.19221
705.1909, 71.38840
705.6730, 71.52438
706.1552, 71.58047
706.6373, 71.94294
707.1194, 72.94856
707.6015, 73.78736
708.0836, 73.93190
708.5657, 73.33833
709.0479, 72.93217
709.5300, 72.72644
710.0121, 72.61875
710.4942, 72.44686
710.9763, 72.31078
711.4584, 72.53893
711.9406, 73.23086
712.4227, 73.80749
712.9048, 73.85852
713.3869, 73.56985
713.8690, 73.07176
714.3511, 71.94408
714.8333, 71.43800
715.3154, 72.48545
715.7975, 73.90636
716.2796, 74.36835
716.7617, 73.37725
717.2438, 72.93474
717.7260, 73.44668
718.2081, 74.35026
718.6902, 74.59367
719.1723, 74.26794
719.6544, 74.04131
720.1365, 74.06398
720.6187, 74.36923
721.1008, 75.34324
721.5829, 76.62596
722.0650, 77.39881
722.5471, 76.68568
723.0292, 76.00232
723.5114, 76.16615
723.9935, 76.95089
724.4756, 77.30428
724.9577, 76.77503
725.4398, 76.47037
725.9219, 76.81932
726.4041, 77.66757
726.8862, 78.07320
727.3683, 78.00423
727.8504, 77.91432
728.3325, 78.11134
728.8146, 78.45369
729.2968, 78.57052
729.7789, 78.49857
730.2610, 78.57539
730.7431, 79.26710
731.2252, 79.99910
731.7073, 80.37435
732.1895, 80.34689
732.6716, 80.07681
733.1537, 79.00356
733.6358, 78.23743
734.1179, 78.49512
734.6000, 80.08825
735.0822, 80.80273
735.5643, 80.46939
736.0464, 79.85261
736.5285, 79.49324
737.0106, 79.41196
737.4927, 79.81013
737.9749, 80.76026
738.4570, 81.66406
738.9391, 81.90996
739.4212, 81.85449
739.9033, 81.91344
740.3854, 82.26677
740.8676, 82.51343
741.3497, 82.52610
741.8318, 82.38482
742.3139, 82.15825
742.7960, 81.75783
743.2781, 81.48884
743.7603, 81.34996
744.2424, 81.37907
744.7245, 81.68848
745.2066, 82.24474
745.6887, 82.80622
746.1708, 83.32457
746.6530, 83.80775
747.1351, 84.31193
747.6172, 84.77986
748.0993, 85.10643
748.5814, 85.09127
749.0635, 85.11539
749.5457, 85.45592
750.0278, 85.90486
750.5099, 85.98363
750.9920, 85.32078
751.4741, 85.01060
751.9562, 85.35122
752.4384, 86.08865
752.9205, 86.60697
753.4026, 86.91225
753.8847, 87.07645
754.3668, 87.01894
754.8489, 86.95566
755.3311, 87.20162
755.8132, 87.70455
756.2953, 88.30331
756.7774, 89.32063
757.2595, 90.03218
757.7416, 89.75146
758.2238, 88.74036
758.7059, 88.51538
759.1880, 89.79540
759.6701, 90.80482
760.1522, 90.93111
760.6343, 90.36427
761.1165, 90.04248
761.5986, 89.96368
762.0807, 90.23499
762.5628, 91.21409
763.0449, 92.44979
763.5270, 93.07403
764.0092, 93.18974
764.4913, 93.37235
764.9734, 94.15678
765.4555, 94.91651
765.9376, 95.18256
766.4197, 94.94009
766.9019, 94.91209
767.3840, 95.12041
767.8661, 95.58370
768.3482, 96.49717
768.8303, 97.81922
769.3124, 98.08205
769.7946, 97.18469
770.2767, 96.44628
770.7588, 97.07285
771.2409, 98.38759
771.7230, 99.19164
772.2051, 99.45019
772.6873, 99.59923
773.1694, 99.55859
773.6515, 99.75491
774.1336, 100.6639
774.6157, 102.5427
775.0978, 103.7019
775.5800, 103.7503
776.0621, 103.5355
776.5442, 103.4820
777.0263, 103.5874
777.5084, 104.0017
777.9905, 104.7616
778.4727, 105.4913
778.9548, 105.6951
779.4369, 105.7089
779.9190, 106.2857
780.4011, 107.5319
780.8832, 108.4283
781.3654, 107.7514
781.8475, 106.9398
782.3296, 107.1628
782.8117, 109.0503
783.2938, 110.3977
783.7759, 111.0120
784.2581, 111.3595
784.7402, 111.7534
785.2223, 112.1928
785.7044, 112.6269
786.1865, 113.0411
786.6686, 113.5304
787.1508, 114.2353
787.6329, 115.0510
788.1150, 115.8100
788.5971, 116.4727
789.0792, 117.2001
789.5613, 117.9951
790.0435, 118.9460
790.5256, 120.1738
791.0077, 121.8184
791.4898, 123.3411
791.9719, 124.7423
792.4540, 126.0018
792.9362, 126.8848
793.4183, 127.4749
793.9004, 128.7655
794.3825, 130.9146
794.8646, 133.1422
795.3467, 134.6042
795.8289, 135.7640
796.3110, 137.2345
796.7931, 139.1891
797.2752, 141.2648
797.7573, 143.2309
798.2394, 145.3649
798.7216, 147.9246
799.2037, 151.1961
799.6858, 154.0774
800.1679, 156.2883
800.6500, 158.7446
801.1321, 162.6145
801.6143, 167.6332
802.0964, 172.5777
802.5785, 177.2823
803.0606, 181.9940
803.5427, 186.2967
804.0248, 190.9759
804.5070, 197.0342
804.9891, 204.9599
805.4712, 213.2753
805.9533, 221.6480
806.4354, 230.4204
806.9175, 239.7732
807.3997, 249.5628
807.8818, 260.6376
808.3639, 272.9810
808.8460, 286.3688
809.3281, 300.1440
809.8102, 314.7873
810.2924, 331.7986
810.7745, 351.5355
811.2566, 372.2428
811.7387, 392.2359
812.2208, 412.6721
812.7029, 434.5287
813.1851, 458.1819
813.6672, 482.6762
814.1493, 507.5959
814.6314, 533.7912
815.1135, 561.2093
815.5956, 589.9822
816.0778, 622.3857
816.5599, 658.7764
817.0420, 697.7452
817.5241, 738.2426
818.0062, 780.2180
818.4883, 824.4223
818.9705, 871.2248
819.4526, 919.2793
819.9347, 969.6786
820.4168, 1019.777
820.8989, 1068.385
821.3810, 1116.430
821.8632, 1158.055
822.3453, 1194.045
822.8274, 1222.063
823.3095, 1240.908
823.7916, 1250.195
824.2737, 1245.943
824.7559, 1228.002
825.2380, 1198.406
825.7201, 1154.553
826.2022, 1102.685
826.6843, 1048.381
827.1664, 992.0499
827.6486, 936.2577
828.1307, 877.9540
828.6128, 823.3558
829.0949, 775.0012
829.5770, 733.4424
830.0591, 695.3723
830.5413, 660.8932
831.0234, 630.4844
831.5055, 604.6424
831.9876, 583.1531
832.4697, 565.7885
832.9518, 552.5394
833.4340, 541.5212
833.9161, 531.4022
834.3982, 523.5396
834.8803, 519.0351
835.3624, 518.1939
835.8445, 518.5778
836.3267, 519.7068
836.8088, 522.9894
837.2909, 529.2288
837.7730, 538.2090
838.2551, 548.4922
838.7372, 560.1388
839.2194, 574.0631
839.7015, 590.6871
840.1836, 610.0046
840.6657, 632.1043
841.1478, 657.0595
841.6299, 684.1816
842.1121, 712.3495
842.5942, 743.9307
843.0763, 780.4075
843.5584, 821.0524
844.0405, 861.3002
844.5226, 900.6623
845.0048, 943.1124
845.4869, 990.7898
845.9690, 1042.484
846.4511, 1094.656
846.9332, 1148.175
847.4153, 1205.292
847.8975, 1267.562
848.3796, 1333.191
848.8617, 1401.518
849.3438, 1472.872
849.8259, 1546.919
850.3080, 1625.111
850.7902, 1703.917
851.2723, 1782.274
851.7544, 1860.066
852.2365, 1937.922
852.7186, 2014.984
853.2007, 2086.962
853.6829, 2154.865
854.1650, 2211.667
854.6471, 2254.455
855.1292, 2281.662
855.6113, 2290.660
856.0934, 2280.196
856.5756, 2250.749
857.0577, 2201.925
857.5398, 2135.948
858.0219, 2051.726
858.5040, 1948.045
858.9861, 1840.113
859.4683, 1729.027
859.9504, 1616.681
860.4325, 1504.158
860.9146, 1393.149
861.3967, 1288.183
861.8788, 1190.119
862.3610, 1099.260
862.8431, 1016.744
863.3252, 942.2215
863.8073, 875.8848
864.2894, 818.4684
864.7715, 765.3965
865.2537, 716.6066
865.7358, 672.3389
866.2179, 632.7584
866.7000, 597.5518
867.1821, 565.7296
867.6642, 536.9503
868.1464, 510.7670
868.6285, 486.2158
869.1106, 464.2300
869.5927, 445.5517
870.0748, 430.6708
870.5569, 416.5714
871.0391, 403.2039
871.5212, 390.7024
872.0033, 378.9962
872.4854, 368.2012
872.9675, 359.8634
873.4496, 353.7908
873.9318, 348.7639
874.4139, 343.9109
874.8960, 339.7320
875.3781, 336.7718
875.8602, 334.9424
876.3423, 333.6507
876.8245, 332.5866
877.3066, 332.3206
877.7887, 333.1533
878.2708, 334.8916
878.7529, 336.8560
879.2350, 339.0432
879.7172, 341.1939
880.1993, 343.6815
880.6814, 345.4684
881.1635, 345.4298
881.6456, 343.6041
882.1277, 340.0747
882.6099, 335.3894
883.0920, 328.3625
883.5741, 317.7635
884.0562, 305.0798
884.5383, 292.0069
885.0204, 278.4673
885.5026, 264.9212
885.9847, 251.3143
886.4668, 238.1164
886.9489, 225.7654
887.4310, 214.2982
887.9131, 203.9023
888.3953, 194.5793
888.8774, 186.5177
889.3595, 180.3037
889.8416, 175.1395
890.3237, 170.1869
890.8058, 165.2872
891.2880, 161.1672
891.7701, 157.9815
892.2522, 155.1793
892.7343, 152.1682
893.2164, 149.1335
893.6985, 146.6143
894.1807, 144.6699
894.6628, 142.9008
895.1449, 141.1703
895.6270, 139.4663
896.1091, 137.6891
896.5912, 135.8302
897.0734, 134.3206
897.5555, 133.1154
898.0376, 132.4265
898.5197, 132.6507
899.0018, 133.3868
899.4839, 133.0293
899.9661, 131.7659
900.4482, 130.6917
900.9303, 130.7905
901.4124, 130.9178
901.8945, 129.9267
902.3766, 128.3139
902.8588, 127.7841
903.3409, 129.1340
903.8230, 130.3323
904.3051, 130.9148
904.7872, 131.2949
905.2693, 132.3774
905.7515, 134.0568
906.2336, 135.7121
906.7157, 137.1633
907.1978, 138.5698
907.6799, 139.8177
908.1620, 141.2045
908.6442, 143.1200
909.1263, 145.8574
909.6084, 148.7840
910.0905, 152.0058
910.5726, 155.2159
911.0547, 157.9508
911.5369, 160.3201
912.0190, 163.8951
912.5011, 168.8006
912.9832, 173.9511
913.4653, 178.0013
913.9474, 182.1798
914.4296, 187.7777
914.9117, 194.9603
915.3938, 202.3018
915.8759, 209.6856
916.3580, 217.0649
916.8401, 224.5013
917.3223, 231.9165
917.8044, 239.4952
918.2865, 247.0384
918.7686, 252.3254
919.2507, 254.2666
919.7328, 253.2965
920.2150, 249.6847
920.6971, 243.5091
921.1792, 234.8972
921.6613, 222.0108
922.1434, 208.9328
922.6255, 195.6119
923.1077, 182.8775
923.5898, 172.1053
924.0719, 163.3442
924.5540, 156.0170
925.0361, 150.0748
925.5182, 145.2298
926.0004, 141.4975
926.4825, 138.4670
926.9646, 135.5096
927.4467, 132.1784
927.9288, 129.9373
928.4109, 129.4299
928.8931, 129.3196
929.3752, 128.6579
929.8573, 127.4648
930.3394, 126.6319
930.8215, 126.1661
931.3036, 126.1256
931.7858, 126.9335
932.2679, 127.9160
932.7500, 128.3524
933.2321, 128.2933
933.7142, 128.3957
934.1964, 128.5036
934.6785, 129.2435
935.1606, 131.0286
935.6427, 133.4161
936.1248, 134.9019
936.6069, 135.5875
937.0891, 136.5066
937.5712, 138.0409
938.0533, 139.9193
938.5354, 142.2112
939.0175, 144.5722
939.4996, 146.4502
939.9818, 146.7939
940.4639, 148.0874
940.9460, 150.5985
941.4281, 153.7801
941.9102, 157.2436
942.3923, 160.9274
942.8745, 164.1303
943.3566, 166.8109
943.8387, 169.6056
944.3208, 172.8878
944.8029, 176.5769
945.2850, 180.7066
945.7672, 185.2689
946.2493, 189.9341
946.7314, 194.6336
947.2135, 199.4600
947.6956, 204.3144
948.1777, 209.4143
948.6599, 215.4021
949.1420, 222.1797
949.6241, 229.0828
950.1062, 236.1271
950.5883, 242.8037
951.0704, 247.9860
951.5526, 252.7481
952.0347, 259.1762
952.5168, 268.6699
952.9989, 277.2803
953.4810, 284.5356
953.9631, 291.1967
954.4453, 297.8418
954.9274, 304.6747
955.4095, 312.7551
955.8916, 322.2640
956.3737, 331.3690
956.8558, 338.9008
957.3380, 345.4930
957.8201, 351.7376
958.3022, 357.7153
958.7843, 362.5258
959.2664, 365.9912
959.7485, 368.9213
960.2307, 372.1625
960.7128, 374.8604
961.1949, 374.7173
961.6770, 372.1691
962.1591, 368.7852
962.6412, 365.8674
963.1234, 361.6057
963.6055, 354.6360
964.0876, 346.0401
964.5697, 337.5794
965.0518, 329.5662
965.5339, 320.4810
966.0161, 309.9326
966.4982, 298.9214
966.9803, 288.6025
967.4624, 278.5760
967.9445, 268.2879
968.4266, 257.4754
968.9088, 247.1197
969.3909, 237.6451
969.8730, 228.5640
970.3551, 219.4820
970.8372, 210.5455
971.3193, 201.6389
971.8015, 192.8055
972.2836, 184.7136
972.7657, 177.9827
973.2478, 172.1102
973.7299, 166.8184
974.2120, 161.8466
974.6942, 156.4958
975.1763, 149.4438
975.6584, 143.6064
976.1405, 139.6823
976.6226, 136.6760
977.1047, 133.0636
977.5869, 128.9225
978.0690, 125.4795
978.5511, 122.9846
979.0332, 120.7225
979.5153, 117.9977
979.9974, 115.2693
980.4796, 112.9868
980.9617, 111.2630
981.4438, 109.5190
981.9259, 107.6547
982.4080, 105.8969
982.8901, 104.3565
983.3723, 102.9729
983.8544, 101.4665
984.3365, 99.92097
984.8186, 98.68365
985.3007, 98.08057
985.7828, 97.65419
986.2650, 97.39949
986.7471, 97.08801
987.2292, 96.33400
987.7113, 94.98920
988.1934, 93.68975
988.6755, 92.44709
989.1577, 91.41319
989.6398, 90.82851
990.1219, 90.55021
990.6040, 90.38988
991.0861, 90.32718
991.5682, 90.23103
992.0504, 90.16039
992.5325, 89.91730
993.0146, 89.35911
993.4967, 88.56541
993.9788, 87.87260
994.4609, 87.28210
994.9431, 86.94507
995.4252, 87.06380
995.9073, 87.25330
996.3894, 87.13030
996.8715, 86.77945
997.3536, 86.33601
997.8358, 85.73857
998.3179, 85.20076
998.8000, 84.76339
999.2821, 84.32784
999.7642, 83.67912
1000.246, 82.91057
1000.728, 82.68922
1001.211, 83.01677
1001.693, 83.21721
1002.175, 82.45993
1002.657, 81.76817
1003.139, 81.99395
1003.621, 82.98988
1004.103, 83.49096
1004.585, 83.38518
1005.068, 83.21909
1005.550, 83.18295
1006.032, 83.08128
1006.514, 82.43594
1006.996, 81.52155
1007.478, 80.88473
1007.960, 80.75366
1008.442, 80.72865
1008.924, 80.86020
1009.407, 80.89635
1009.889, 80.58620
1010.371, 79.90735
1010.853, 79.62812
1011.335, 79.74903
1011.817, 79.98629
1012.299, 80.34717
1012.781, 80.57146
1013.263, 80.15171
1013.746, 79.36412
1014.228, 79.22364
1014.710, 80.57974
1015.192, 81.22741
1015.674, 80.64542
1016.156, 79.55640
1016.638, 78.89983
1017.120, 78.64528
1017.603, 78.78018
1018.085, 79.34998
1018.567, 79.88905
1019.049, 80.21548
1019.531, 80.32878
1020.013, 80.17671
1020.495, 79.77813
1020.977, 79.44610
1021.459, 79.16648
1021.942, 79.08871
1022.424, 79.40301
1022.906, 79.81689
1023.388, 79.83549
1023.870, 79.67162
1024.352, 79.74121
1024.834, 80.56778
1025.316, 81.05581
1025.799, 81.00491
1026.281, 80.75438
1026.763, 80.67735
1027.245, 80.72667
1027.727, 80.52993
1028.209, 80.07692
1028.691, 79.64871
1029.173, 79.35488
1029.656, 79.22398
1030.138, 79.39513
1030.620, 79.77621
1031.102, 79.87159
1031.584, 79.57085
1032.066, 79.43681
1032.548, 79.64103
1033.030, 79.98839
1033.512, 80.26522
1033.995, 80.45589
1034.477, 80.53068
1034.959, 80.48444
1035.441, 80.31165
1035.923, 79.85909
1036.405, 79.45326
1036.887, 79.29109
1037.369, 79.34252
1037.851, 79.28421
1038.334, 79.14060
1038.816, 79.12743
1039.298, 79.64120
1039.780, 80.05224
1040.262, 79.76786
1040.744, 79.12770
1041.226, 78.84592
1041.708, 79.16536
1042.191, 79.12775
1042.673, 78.55509
1043.155, 78.03657
1043.637, 78.37189
1044.119, 79.09728
1044.601, 79.43768
1045.083, 79.34013
1045.565, 79.07460
1046.047, 78.46566
1046.530, 78.03464
1047.012, 77.97657
1047.494, 78.18656
1047.976, 78.46870
1048.458, 78.79155
1048.940, 78.86752
1049.422, 78.58553
1049.904, 78.15005
1050.386, 77.46523
1050.869, 76.85510
1051.351, 76.75106
1051.833, 77.30781
1052.315, 77.34216
1052.797, 76.68153
1053.279, 76.29704
1053.761, 77.11147
1054.243, 78.32207
1054.726, 78.43181
1055.208, 77.79652
1055.690, 77.35910
1056.172, 77.62492
1056.654, 77.88213
1057.136, 78.02213
1057.618, 78.12336
1058.100, 78.38779
1058.583, 78.73371
1059.065, 78.48848
1059.547, 77.61703
1060.029, 76.84663
1060.511, 76.72386
1060.993, 76.83651
1061.475, 77.05608
1061.957, 77.30926
1062.439, 77.35229
1062.922, 77.18930
1063.404, 76.74087
1063.886, 75.89934
1064.368, 75.03938
1064.850, 74.61366
1065.332, 74.45591
1065.814, 74.29777
1066.296, 74.00137
1066.778, 74.18495
1067.261, 75.21889
1067.743, 76.12558
1068.225, 76.36290
1068.707, 76.12133
1069.189, 75.99957
1069.671, 75.94984
1070.153, 75.79346
1070.635, 75.22631
1071.118, 74.84574
1071.600, 75.10069
1072.082, 75.53144
1072.564, 75.67654
1073.046, 75.51076
1073.528, 75.28445
1074.010, 74.99785
1074.492, 74.94827
1074.974, 75.88010
1075.457, 76.71856
1075.939, 76.18518
1076.421, 74.67275
1076.903, 73.91082
1077.385, 74.22306
1077.867, 74.72488
1078.349, 75.38770
1078.831, 75.87233
1079.313, 75.44227
1079.796, 74.62171
1080.278, 74.43265
1080.760, 75.04837
1081.242, 75.54774
1081.724, 75.65580
1082.206, 75.51950
1082.688, 75.03813
1083.170, 74.42817
1083.652, 74.58266
1084.135, 75.31297
1084.617, 75.58617
1085.099, 74.83304
1085.581, 74.16740
1086.063, 74.52935
1086.545, 75.11124
1087.027, 75.11843
1087.509, 74.45763
1087.992, 74.14953
1088.474, 74.21069
1088.956, 74.38067
1089.438, 74.47707
1089.920, 74.62375
1090.402, 75.06381
1090.884, 75.63376
1091.366, 75.97835
1091.849, 75.92860
1092.331, 75.89277
1092.813, 75.92945
1093.295, 75.86694
1093.777, 75.24870
1094.259, 74.51211
1094.741, 74.77433
1095.223, 75.92153
1095.705, 76.74642
1096.188, 76.41569
1096.670, 76.13091
1097.152, 76.26113
1097.634, 76.54565
1098.116, 76.41809
1098.598, 75.98718
1099.080, 75.91287
1099.562, 76.33716
1100.044, 76.71722
1100.527, 76.67319
1101.009, 76.48135
1101.491, 76.27369
1101.973, 76.07483
1102.455, 76.07012
1102.937, 76.26962
1103.419, 76.34023
1103.901, 76.15234
1104.384, 75.83512
1104.866, 75.35289
1105.348, 74.91148
1105.830, 74.77979
1106.312, 75.07151
1106.794, 75.36021
1107.276, 75.65633
1107.758, 75.91215
1108.240, 76.10747
1108.723, 76.24265
1109.205, 76.36255
1109.687, 76.42465
1110.169, 76.33389
1110.651, 75.83473
1111.133, 75.51616
1111.615, 75.43777
1112.097, 75.51049
1112.579, 75.76850
1113.062, 76.10519
1113.544, 76.02818
1114.026, 75.59769
1114.508, 75.28811
1114.990, 75.29418
1115.472, 75.54505
1115.954, 76.27683
1116.436, 77.03411
1116.919, 77.01141
1117.401, 76.26818
1117.883, 75.72705
1118.365, 75.48672
1118.847, 75.55247
1119.329, 76.37012
1119.811, 77.09520
1120.293, 76.98992
1120.776, 76.26127
1121.258, 75.74846
1121.740, 75.44990
1122.222, 75.44335
1122.704, 75.83450
1123.186, 76.17201
1123.668, 75.74963
1124.150, 75.16552
1124.632, 75.16647
1125.115, 75.93950
1125.597, 76.27519
1126.079, 76.01201
1126.561, 75.80852
1127.043, 75.93247
1127.525, 76.23978
1128.007, 76.70724
1128.489, 77.11929
1128.971, 77.01916
1129.454, 75.93391
1129.936, 75.41544
1130.418, 75.87789
1130.900, 76.36397
1131.382, 76.20898
1131.864, 75.69637
1132.346, 75.69382
1132.828, 76.06194
1133.311, 76.36096
1133.793, 76.35935
1134.275, 76.32746
1134.757, 76.24329
1135.239, 76.24558
1135.721, 76.56894
1136.203, 77.13358
1136.685, 77.21890
1137.167, 76.86888
1137.650, 76.57578
1138.132, 76.79324
1138.614, 76.94454
1139.096, 76.63235
1139.578, 76.16589
1140.060, 75.91186
1140.542, 75.86708
1141.024, 76.36626
1141.506, 77.45086
1141.989, 78.16988
1142.471, 77.36529
1142.953, 76.35844
1143.435, 76.08492
1143.917, 76.39418
1144.399, 76.69972
1144.881, 77.04337
1145.363, 76.97167
1145.846, 76.34031
1146.328, 75.71592
1146.810, 75.66882
1147.292, 75.91595
1147.774, 76.22475
1148.256, 76.57312
1148.738, 76.96320
1149.220, 77.44975
1149.703, 77.74450
1150.185, 77.72910
1150.667, 77.60126
1151.149, 77.52068
1151.631, 77.54161
1152.113, 77.77779
1152.595, 78.28744
1153.077, 78.74318
1153.559, 79.28584
1154.042, 79.29027
1154.524, 78.19988
1155.006, 76.87711
1155.488, 77.17092
1155.970, 78.35693
1156.452, 78.99839
1156.934, 78.55466
1157.416, 78.13649
1157.898, 77.90416
1158.381, 77.67884
1158.863, 77.24580
1159.345, 76.81742
1159.827, 77.17802
1160.309, 78.05401
1160.791, 78.68688
1161.273, 78.64896
1161.755, 78.63484
1162.238, 78.93523
1162.720, 79.10792
1163.202, 78.62871
1163.684, 77.71958
1164.166, 77.79391
1164.648, 78.58395
1165.130, 78.89734
1165.612, 77.57632
1166.094, 76.42509
1166.577, 76.00733
1167.059, 75.99671
1167.541, 76.13283
1168.023, 76.41621
1168.505, 77.04672
1168.987, 77.94113
1169.469, 78.34494
1169.951, 77.23988
1170.433, 76.20571
1170.916, 76.07371
1171.398, 76.33861
1171.880, 76.35923
1172.362, 76.15431
1172.844, 76.10985
1173.326, 76.25233
1173.808, 76.41203
1174.290, 76.53216
1174.773, 76.57413
1175.255, 76.39269
1175.737, 76.16458
1176.219, 76.40010
1176.701, 77.10741
1177.183, 76.82415
1177.665, 75.29131
1178.147, 74.03905
1178.630, 74.64781
1179.112, 75.62441
1179.594, 75.89471
1180.076, 75.65736
1180.558, 75.66916
1181.040, 75.94711
1181.522, 76.15669
1182.004, 76.24972
1182.486, 76.15145
1182.969, 75.69193
1183.451, 75.09801
1183.933, 74.39468
1184.415, 73.68270
1184.897, 73.63648
1185.379, 74.33033
1185.861, 74.88309
1186.343, 75.09127
1186.825, 74.98685
1187.308, 74.25612
1187.790, 73.47446
1188.272, 73.23713
1188.754, 73.56408
1189.236, 73.99047
1189.718, 74.52355
1190.200, 75.07696
1190.682, 75.63986
1191.165, 76.16612
1191.647, 76.75736
1192.129, 77.18940
1192.611, 77.19722
1193.093, 76.74547
1193.575, 75.92166
1194.057, 74.59261
1194.539, 73.89133
1195.021, 74.45253
1195.504, 75.41971
1195.986, 76.05647
1196.468, 76.39784
1196.950, 76.41640
1197.432, 76.05509
1197.914, 75.79864
1198.396, 75.63443
1198.878, 75.67379
1199.360, 76.07291
1199.843, 76.54096
1200.325, 76.86378
1200.807, 76.97578
1201.289, 76.68333
1201.771, 75.78603
1202.253, 75.47149
1202.735, 75.84370
1203.217, 76.11771
1203.700, 75.63338
1204.182, 75.09476
1204.664, 75.43938
1205.146, 76.23493
1205.628, 76.81692
1206.110, 77.17690
1206.592, 77.00314
1207.074, 76.18367
1207.557, 75.53259
1208.039, 75.71849
1208.521, 76.19671
1209.003, 76.46799
1209.485, 76.56527
1209.967, 76.51842
1210.449, 76.22839
1210.931, 76.11575
1211.413, 76.18681
1211.896, 76.39934
1212.378, 76.78819
1212.860, 77.24798
1213.342, 77.75056
1213.824, 78.21590
1214.306, 78.48330
1214.788, 78.63351
1215.270, 78.17989
1215.752, 76.99880
1216.235, 76.15537
1216.717, 76.78209
1217.199, 77.82823
1217.681, 78.50228
1218.163, 78.72289
1218.645, 78.23219
1219.127, 76.69131
1219.609, 75.95577
1220.092, 76.15710
1220.574, 76.59538
1221.056, 76.92976
1221.538, 77.05482
1222.020, 76.61894
1222.502, 75.95963
1222.984, 75.86549
1223.466, 76.49340
1223.948, 77.06274
1224.431, 77.54447
1224.913, 77.73833
1225.395, 77.16413
1225.877, 76.53164
1226.359, 76.55679
1226.841, 76.94580
1227.323, 76.89558
1227.805, 76.29833
1228.287, 76.03111
1228.770, 76.17082
1229.252, 76.34113
1229.734, 76.11825
1230.216, 75.93227
1230.698, 76.26871
1231.180, 76.83052
1231.662, 76.83875
1232.144, 76.21509
1232.627, 76.21713
1233.109, 76.96606
1233.591, 77.72355
1234.073, 78.01853
1234.555, 78.05842
1235.037, 77.88689
1235.519, 77.59098
1236.001, 77.31886
1236.484, 77.07327
1236.966, 76.76588
1237.448, 76.39083
1237.930, 75.99722
1238.412, 75.37272
1238.894, 75.00133
1239.376, 75.43806
1239.858, 76.15485
1240.340, 76.24605
1240.823, 75.77633
1241.305, 75.53494
1241.787, 75.58924
1242.269, 75.60633
1242.751, 75.16075
1243.233, 74.90205
1243.715, 75.19374
1244.197, 75.75090
1244.679, 76.27335
1245.162, 76.69875
1245.644, 76.47898
1246.126, 75.62343
1246.608, 75.09850
1247.090, 75.87971
1247.572, 76.47469
1248.054, 76.41900
1248.536, 75.95796
1249.019, 75.24388
1249.501, 74.45727
1249.983, 74.28671
1250.465, 74.73421
1250.947, 75.07336
1251.429, 74.73148
1251.911, 74.65437
1252.393, 75.18368
1252.875, 75.78232
1253.358, 75.66080
1253.840, 75.07677
1254.322, 74.46632
1254.804, 73.91477
1255.286, 73.79408
1255.768, 74.59638
1256.250, 75.17321
1256.732, 75.34898
1257.214, 75.25514
1257.697, 74.88123
1258.179, 74.43832
1258.661, 74.35178
1259.143, 74.56880
1259.625, 74.55856
1260.107, 74.19863
1260.589, 73.74464
1261.071, 73.18642
1261.554, 72.73631
1262.036, 72.67673
1262.518, 72.81209
1263.000, 72.92947
1263.482, 73.03310
1263.964, 73.20102
1264.446, 73.42856
1264.928, 73.80431
1265.411, 74.37767
1265.893, 74.76970
1266.375, 74.50047
1266.857, 74.02886
1267.339, 73.78371
1267.821, 73.65044
1268.303, 73.17582
1268.785, 72.29929
1269.267, 71.87251
1269.750, 71.99590
1270.232, 72.31367
1270.714, 72.74860
1271.196, 73.09945
1271.678, 73.28491
1272.160, 73.26648
1272.642, 72.81789
1273.124, 71.99740
1273.606, 71.65904
1274.089, 71.85120
1274.571, 72.15102
1275.053, 72.51121
1275.535, 72.65299
1276.017, 72.26884
1276.499, 71.86076
1276.981, 72.32922
1277.463, 73.34097
1277.946, 73.47979
1278.428, 72.78917
1278.910, 72.26060
1279.392, 72.43977
1279.874, 72.73080
1280.356, 73.17677
1280.838, 73.39731
1281.320, 72.72058
1281.802, 71.62663
1282.285, 71.09720
1282.767, 71.08468
1283.249, 71.20963
1283.731, 71.51408
1284.213, 71.64769
1284.695, 71.52951
1285.177, 71.44682
1285.659, 71.77267
1286.141, 72.20474
1286.624, 72.34010
1287.106, 72.26052
1287.588, 72.22791
1288.070, 72.28427
1288.552, 72.28760
1289.034, 72.22220
1289.516, 72.21172
1289.998, 72.58631
1290.481, 72.81874
1290.963, 72.25985
1291.445, 71.37185
1291.927, 70.87625
1292.409, 70.76836
1292.891, 71.33470
1293.373, 72.51887
1293.855, 73.42554
1294.338, 73.32325
1294.820, 73.04716
1295.302, 72.88384
1295.784, 72.81548
1296.266, 72.93979
1296.748, 73.17802
1297.230, 72.78292
1297.712, 71.94941
1298.194, 71.52429
1298.677, 72.44336
1299.159, 72.92352
1299.641, 72.56258
1300.123, 72.01834
1300.605, 71.72994
1301.087, 71.64192
1301.569, 71.63425
1302.051, 71.70116
1302.533, 71.83327
1303.016, 71.98137
##END=



