##NAMES=Forsterite
##RRUFFID=R060535
##IDEAL CHEMISTRY=Mg_2_SiO_4_
##LOCALITY=unknown
##OWNER=RRUFF
##SOURCE=Gemological Institute of America
##DESCRIPTION=Transparent brown gemstone
##STATUS=The identification of this mineral has been confirmed by X-ray diffraction and chemical analysis
##URL=rruff.info/R060535
##MEASURED CHEMISTRY=(Mg_1.81_Fe_0.18_Ni_0.01_)_Î£=2_Si_1.00_O_4_
92.10938, 4.793761
92.59149, 4.541677
93.07361, 4.641751
93.55573, 5.065580
94.03784, 5.458587
94.51996, 5.500362
95.00208, 5.256412
95.48419, 4.952135
95.96631, 4.576598
96.44843, 4.203876
96.93054, 4.076994
97.41266, 4.222004
97.89478, 4.479030
98.37689, 4.672415
98.85901, 4.798195
99.34113, 4.915510
99.82324, 5.086937
100.3054, 5.311041
100.7875, 5.347038
101.2696, 5.139129
101.7517, 4.814820
102.2338, 4.581369
102.7159, 4.425271
103.1981, 4.405357
103.6802, 4.616742
104.1623, 5.218954
104.6444, 5.511954
105.1265, 5.311656
105.6086, 4.797404
106.0908, 4.676533
106.5729, 5.242005
107.0550, 5.859221
107.5371, 6.163930
108.0192, 5.987027
108.5013, 5.749507
108.9835, 5.384219
109.4656, 4.904325
109.9477, 4.695800
110.4298, 4.949748
110.9119, 5.370342
111.3940, 5.760978
111.8762, 6.157675
112.3583, 6.479014
112.8404, 6.604680
113.3225, 6.486075
113.8046, 6.681184
114.2867, 7.600213
114.7689, 8.769852
115.2510, 9.666034
115.7331, 9.936609
116.2152, 10.12073
116.6973, 10.41439
117.1794, 10.85820
117.6616, 11.31807
118.1437, 11.82117
118.6258, 12.30585
119.1079, 12.65338
119.5900, 12.58890
120.0721, 12.51758
120.5543, 12.73862
121.0364, 13.39344
121.5185, 14.10741
122.0006, 14.57925
122.4827, 14.91191
122.9648, 15.40732
123.4470, 16.39652
123.9291, 17.57927
124.4112, 18.63685
124.8933, 19.54939
125.3754, 20.23753
125.8575, 20.38636
126.3397, 20.10391
126.8218, 20.05480
127.3039, 20.94256
127.7860, 22.40968
128.2681, 23.71651
128.7502, 24.55856
129.2324, 25.20332
129.7145, 26.20421
130.1966, 27.56726
130.6787, 28.78215
131.1608, 29.21820
131.6429, 29.01735
132.1251, 28.89571
132.6072, 29.08635
133.0893, 29.53651
133.5714, 30.11070
134.0535, 30.82890
134.5356, 31.57941
135.0178, 32.22414
135.4999, 32.75808
135.9820, 33.26601
136.4641, 33.64800
136.9462, 33.92461
137.4283, 34.83683
137.9105, 36.59420
138.3926, 38.63133
138.8747, 39.98978
139.3568, 40.59169
139.8389, 40.88533
140.3210, 41.01074
140.8032, 40.93362
141.2853, 40.82191
141.7674, 40.52147
142.2495, 40.28536
142.7316, 40.79973
143.2137, 42.32043
143.6959, 43.60957
144.1780, 44.27426
144.6601, 44.05172
145.1422, 43.93797
145.6243, 43.95611
146.1064, 44.09832
146.5886, 44.36699
147.0707, 44.92755
147.5528, 45.42765
148.0349, 45.67110
148.5170, 45.57489
148.9991, 45.36381
149.4813, 44.87939
149.9634, 44.18753
150.4455, 43.97025
150.9276, 44.69338
151.4097, 45.56255
151.8918, 46.07590
152.3740, 45.99336
152.8561, 45.85626
153.3382, 45.64563
153.8203, 45.36683
154.3024, 45.25066
154.7845, 45.62678
155.2667, 46.00591
155.7488, 46.02474
156.2309, 45.37305
156.7130, 44.62407
157.1951, 43.77169
157.6772, 42.80238
158.1594, 42.19120
158.6415, 42.30992
159.1236, 42.72685
159.6057, 43.02137
160.0878, 42.84393
160.5699, 42.74336
161.0521, 43.00905
161.5342, 43.71730
162.0163, 44.24043
162.4984, 44.29945
162.9805, 44.06704
163.4626, 43.76101
163.9448, 43.38743
164.4269, 43.01470
164.9090, 42.64521
165.3911, 42.25800
165.8732, 41.99440
166.3553, 41.97194
166.8375, 42.11363
167.3196, 42.29265
167.8017, 42.47894
168.2838, 42.66514
168.7659, 42.84374
169.2480, 43.00896
169.7302, 43.18466
170.2123, 43.43114
170.6944, 43.70390
171.1765, 43.89952
171.6586, 43.97876
172.1407, 43.95076
172.6229, 43.77614
173.1050, 43.37672
173.5871, 43.04180
174.0692, 43.07524
174.5513, 43.39200
175.0334, 43.74359
175.5156, 44.12144
175.9977, 44.40867
176.4798, 44.35909
176.9619, 43.78632
177.4440, 43.20386
177.9261, 43.24931
178.4083, 43.81650
178.8904, 44.45503
179.3725, 44.89381
179.8546, 45.19278
180.3367, 45.46735
180.8188, 45.76854
181.3010, 46.00350
181.7831, 45.94237
182.2652, 45.62867
182.7473, 45.40328
183.2294, 45.61980
183.7115, 46.12953
184.1937, 46.49276
184.6758, 46.55688
185.1579, 46.51828
185.6400, 46.78567
186.1221, 47.34309
186.6042, 47.86074
187.0864, 48.02895
187.5685, 47.91692
188.0506, 47.82704
188.5327, 47.85102
189.0148, 47.91074
189.4969, 47.76955
189.9791, 47.41633
190.4612, 47.12890
190.9433, 47.19347
191.4254, 47.56944
191.9075, 47.91805
192.3896, 48.16234
192.8718, 48.32674
193.3539, 48.52799
193.8360, 48.78789
194.3181, 48.92914
194.8002, 48.64149
195.2823, 47.93882
195.7645, 47.56731
196.2466, 47.78948
196.7287, 48.45153
197.2108, 48.98421
197.6929, 49.39947
198.1750, 49.62758
198.6572, 49.46637
199.1393, 48.88438
199.6214, 48.56420
200.1035, 48.70856
200.5856, 49.25362
201.0677, 49.88688
201.5499, 50.67673
202.0320, 51.34645
202.5141, 51.49739
202.9962, 51.03413
203.4783, 50.83081
203.9604, 51.16132
204.4426, 51.95327
204.9247, 52.57825
205.4068, 52.97971
205.8889, 53.34359
206.3710, 53.82190
206.8531, 54.40238
207.3353, 55.16941
207.8174, 56.18512
208.2995, 57.42997
208.7816, 58.65868
209.2637, 59.88424
209.7458, 61.04481
210.2280, 62.00204
210.7101, 62.63824
211.1922, 63.51196
211.6743, 64.82367
212.1564, 66.54324
212.6385, 68.10095
213.1207, 69.38809
213.6028, 70.66003
214.0849, 72.19477
214.5670, 74.04414
215.0491, 75.94815
215.5313, 77.84523
216.0134, 79.74438
216.4955, 81.71600
216.9776, 83.78988
217.4597, 85.91817
217.9418, 88.10494
218.4239, 90.37122
218.9061, 92.59055
219.3882, 94.78470
219.8703, 96.93702
220.3524, 98.81564
220.8345, 100.3329
221.3166, 101.6588
221.7988, 103.0532
222.2809, 104.7710
222.7630, 105.9348
223.2451, 106.3245
223.7272, 105.9375
224.2093, 105.1859
224.6915, 104.0781
225.1736, 102.5804
225.6557, 100.6883
226.1378, 98.31709
226.6199, 95.63848
227.1020, 92.49327
227.5842, 88.84962
228.0663, 85.98911
228.5484, 84.20915
229.0305, 82.85161
229.5126, 81.29271
229.9947, 79.38917
230.4769, 77.58003
230.9590, 75.92076
231.4411, 74.41847
231.9232, 73.03883
232.4053, 71.86011
232.8874, 70.70177
233.3696, 69.33854
233.8517, 67.43198
234.3338, 66.00743
234.8159, 65.41460
235.2980, 65.62527
235.7801, 65.38361
236.2623, 64.44220
236.7444, 63.31887
237.2265, 62.47883
237.7086, 62.22477
238.1907, 61.64934
238.6728, 60.47766
239.1550, 58.76129
239.6371, 57.38924
240.1192, 56.41936
240.6013, 55.72667
241.0834, 55.29646
241.5655, 55.48457
242.0477, 55.21838
242.5298, 54.20058
243.0119, 52.52138
243.4940, 51.10705
243.9761, 49.98030
244.4582, 49.09043
244.9404, 48.41796
245.4225, 48.03572
245.9046, 47.72918
246.3867, 47.51613
246.8688, 47.37255
247.3509, 47.11018
247.8331, 46.60183
248.3152, 46.13808
248.7973, 45.93519
249.2794, 46.18742
249.7615, 46.28065
250.2436, 46.10193
250.7258, 45.72038
251.2079, 45.47226
251.6900, 45.43850
252.1721, 45.42381
252.6542, 45.29984
253.1363, 44.97871
253.6185, 44.75720
254.1006, 44.65853
254.5827, 44.67149
255.0648, 44.79437
255.5469, 45.16125
256.0291, 45.42147
256.5112, 45.35081
256.9933, 44.75035
257.4754, 44.32582
257.9575, 44.14322
258.4396, 44.13728
258.9218, 44.15011
259.4039, 44.23900
259.8860, 44.24277
260.3681, 44.02233
260.8502, 43.37455
261.3323, 43.13039
261.8145, 43.45877
262.2966, 44.09789
262.7787, 44.46827
263.2608, 44.45523
263.7429, 44.41531
264.2250, 44.53323
264.7072, 44.90167
265.1893, 45.01274
265.6714, 44.74391
266.1535, 44.31909
266.6356, 44.15602
267.1177, 44.33685
267.5999, 44.55851
268.0820, 44.72548
268.5641, 44.84193
269.0462, 44.85630
269.5283, 44.69318
270.0104, 44.52372
270.4926, 44.64258
270.9747, 45.15245
271.4568, 45.59590
271.9389, 45.78812
272.4210, 45.72109
272.9031, 45.79937
273.3853, 46.05333
273.8674, 46.39952
274.3495, 46.78986
274.8316, 47.28141
275.3137, 47.51208
275.7958, 47.24365
276.2780, 46.54205
276.7601, 46.34962
277.2422, 46.77319
277.7243, 47.42915
278.2064, 47.96970
278.6885, 48.39857
279.1707, 48.65934
279.6528, 48.66704
280.1349, 48.49581
280.6170, 48.50957
281.0991, 48.70414
281.5812, 49.10355
282.0634, 49.84563
282.5455, 50.95499
283.0276, 51.81329
283.5097, 52.26295
283.9918, 52.41085
284.4739, 52.57140
284.9561, 52.74689
285.4382, 52.91915
285.9203, 52.97006
286.4024, 52.92438
286.8845, 53.27220
287.3666, 54.19491
287.8488, 55.39196
288.3309, 56.13319
288.8130, 56.40486
289.2951, 56.76490
289.7772, 57.76287
290.2593, 59.23967
290.7415, 60.24339
291.2236, 60.55740
291.7057, 60.64497
292.1878, 61.24968
292.6699, 62.34118
293.1520, 63.54931
293.6342, 64.57642
294.1163, 65.54620
294.5984, 66.83442
295.0805, 68.48600
295.5626, 70.39763
296.0447, 72.54723
296.5269, 74.89909
297.0090, 77.28825
297.4911, 79.41284
297.9732, 81.54534
298.4553, 84.38451
298.9374, 87.98013
299.4196, 91.65898
299.9017, 94.78737
300.3838, 97.42793
300.8659, 99.72063
301.3480, 101.7571
301.8301, 103.4353
302.3123, 104.7321
302.7944, 105.6453
303.2765, 105.7951
303.7586, 104.7149
304.2407, 102.6868
304.7228, 100.1644
305.2050, 97.13632
305.6871, 93.83999
306.1692, 90.35024
306.6513, 86.73246
307.1334, 83.65833
307.6155, 81.64282
308.0977, 80.37222
308.5798, 79.43884
309.0619, 78.72115
309.5440, 78.34398
310.0261, 78.50891
310.5082, 79.11605
310.9904, 79.85950
311.4725, 80.31873
311.9546, 80.98474
312.4367, 82.41957
312.9188, 84.93823
313.4009, 87.48516
313.8831, 89.78228
314.3652, 91.60860
314.8473, 92.59293
315.3294, 91.93794
315.8115, 90.86469
316.2936, 90.11026
316.7758, 89.78380
317.2579, 89.52541
317.7400, 88.99622
318.2221, 88.49660
318.7042, 88.39465
319.1863, 89.03970
319.6685, 89.89824
320.1506, 90.73259
320.6327, 91.52931
321.1148, 92.54074
321.5969, 93.77081
322.0790, 95.27345
322.5612, 97.12316
323.0433, 99.51937
323.5254, 102.0553
324.0075, 104.8600
324.4896, 107.8533
324.9717, 110.3469
325.4539, 112.4525
325.9360, 113.9082
326.4181, 114.5429
326.9002, 113.8934
327.3823, 113.0126
327.8644, 111.9194
328.3466, 110.6342
328.8287, 109.2189
329.3108, 107.7704
329.7929, 106.0886
330.2750, 104.0454
330.7571, 101.1448
331.2393, 98.94927
331.7214, 97.60493
332.2035, 96.90873
332.6856, 96.57114
333.1677, 96.77463
333.6498, 97.06680
334.1320, 97.33890
334.6141, 97.57983
335.0962, 97.87240
335.5783, 98.35574
336.0604, 98.74609
336.5425, 98.75368
337.0247, 98.32988
337.5068, 97.66493
337.9889, 96.89526
338.4710, 95.95260
338.9531, 94.10616
339.4352, 91.04967
339.9173, 87.75573
340.3994, 85.12679
340.8816, 83.31994
341.3637, 80.97595
341.8458, 77.71152
342.3279, 73.97408
342.8100, 70.71245
343.2921, 67.96830
343.7743, 65.59856
344.2564, 63.63153
344.7385, 62.03535
345.2206, 60.54002
345.7027, 59.12902
346.1848, 57.78005
346.6670, 56.37022
347.1491, 54.91863
347.6312, 53.73029
348.1133, 53.05886
348.5954, 52.75550
349.0775, 52.25312
349.5597, 51.51897
350.0418, 50.87897
350.5239, 50.78020
351.0060, 51.06946
351.4881, 51.27306
351.9702, 51.19324
352.4524, 50.98692
352.9345, 50.86217
353.4166, 50.81818
353.8987, 50.84661
354.3808, 50.99735
354.8629, 51.20229
355.3451, 51.35255
355.8272, 51.41019
356.3093, 51.44025
356.7914, 51.37403
357.2735, 51.30688
357.7556, 51.50312
358.2378, 52.31252
358.7199, 53.31879
359.2020, 54.18632
359.6841, 54.86894
360.1662, 55.45427
360.6483, 55.92043
361.1305, 56.33588
361.6126, 56.79688
362.0947, 57.23120
362.5768, 57.81305
363.0589, 58.60612
363.5410, 59.61420
364.0232, 60.86068
364.5053, 62.51381
364.9874, 64.32251
365.4695, 66.09180
365.9516, 67.55865
366.4337, 69.23113
366.9159, 71.28902
367.3980, 73.65881
367.8801, 76.05635
368.3622, 78.65376
368.8443, 81.07883
369.3264, 83.21503
369.8086, 85.38741
370.2907, 86.65730
370.7728, 86.80672
371.2549, 86.12526
371.7370, 85.08925
372.2191, 83.92500
372.7013, 82.07048
373.1834, 79.23295
373.6655, 75.27721
374.1476, 71.51967
374.6297, 67.98009
375.1118, 64.72010
375.5940, 61.85561
376.0761, 59.50651
376.5582, 57.25927
377.0403, 55.04208
377.5224, 52.88588
378.0045, 50.76302
378.4867, 48.64283
378.9688, 46.81141
379.4509, 45.57024
379.9330, 44.94131
380.4151, 44.21585
380.8972, 43.33159
381.3794, 42.36271
381.8615, 41.38148
382.3436, 40.38150
382.8257, 39.59094
383.3078, 39.21537
383.7899, 39.12696
384.2721, 38.87940
384.7542, 38.46607
385.2363, 37.97232
385.7184, 37.44646
386.2005, 36.90598
386.6826, 36.35624
387.1648, 35.73218
387.6469, 35.18059
388.1290, 34.91964
388.6111, 34.91781
389.0932, 34.98444
389.5753, 35.02979
390.0575, 35.06073
390.5396, 35.11296
391.0217, 35.23787
391.5038, 35.24622
391.9859, 34.90224
392.4680, 34.35868
392.9502, 33.88837
393.4323, 33.55853
393.9144, 33.38020
394.3965, 33.40615
394.8786, 33.64555
395.3607, 33.89104
395.8429, 34.09779
396.3250, 34.26467
396.8071, 34.39173
397.2892, 34.21236
397.7713, 34.28232
398.2534, 34.84447
398.7356, 35.80170
399.2177, 36.67268
399.6998, 37.21627
400.1819, 37.82215
400.6640, 38.67057
401.1461, 39.90178
401.6283, 41.08325
402.1104, 42.15102
402.5925, 43.19596
403.0746, 44.36577
403.5567, 45.63721
404.0388, 47.08360
404.5210, 48.79343
405.0031, 50.76709
405.4852, 52.55645
405.9673, 54.18719
406.4494, 55.59460
406.9315, 56.82642
407.4137, 57.95864
407.8958, 58.35476
408.3779, 57.81927
408.8600, 56.60157
409.3421, 55.21365
409.8242, 53.64945
410.3064, 52.11952
410.7885, 50.70601
411.2706, 49.40530
411.7527, 48.19990
412.2348, 47.06140
412.7169, 46.13276
413.1991, 45.57730
413.6812, 45.37278
414.1633, 45.47510
414.6454, 45.98745
415.1275, 46.70235
415.6096, 47.34613
416.0918, 47.92889
416.5739, 48.56847
417.0560, 49.45718
417.5381, 50.40120
418.0202, 51.17342
418.5023, 51.70291
418.9845, 52.11979
419.4666, 52.41244
419.9487, 52.65391
420.4308, 52.97413
420.9129, 53.47030
421.3951, 54.02228
421.8772, 54.52352
422.3593, 54.94136
422.8414, 55.59528
423.3235, 56.73513
423.8056, 58.05499
424.2878, 59.29831
424.7699, 60.29216
425.2520, 61.36689
425.7341, 62.39181
426.2162, 63.47795
426.6983, 65.13712
427.1805, 67.99467
427.6626, 70.68465
428.1447, 72.67854
428.6268, 73.77876
429.1089, 74.90466
429.5910, 76.32743
430.0732, 77.50202
430.5553, 77.67701
431.0374, 76.62946
431.5195, 75.49339
432.0016, 74.63969
432.4837, 73.88025
432.9659, 72.16296
433.4480, 69.35777
433.9301, 66.40999
434.4122, 63.96408
434.8943, 61.97358
435.3764, 60.10189
435.8586, 58.30783
436.3407, 56.65204
436.8228, 55.27792
437.3049, 54.13148
437.7870, 53.01377
438.2691, 51.85527
438.7513, 50.65296
439.2334, 49.35787
439.7155, 47.97941
440.1976, 46.66765
440.6797, 45.50917
441.1618, 44.48771
441.6440, 43.59916
442.1261, 42.92551
442.6082, 42.24672
443.0903, 41.31304
443.5724, 40.28229
444.0545, 39.49543
444.5367, 39.27841
445.0188, 39.16813
445.5009, 38.93847
445.9830, 38.55474
446.4651, 38.20415
446.9472, 37.89870
447.4294, 37.65103
447.9115, 37.47570
448.3936, 37.53600
448.8757, 37.45699
449.3578, 37.05265
449.8399, 36.48476
450.3221, 36.31243
450.8042, 36.77140
451.2863, 37.25179
451.7684, 37.50350
452.2505, 37.48628
452.7326, 37.50026
453.2148, 37.55339
453.6969, 37.62504
454.1790, 37.69976
454.6611, 37.78096
455.1432, 37.81826
455.6253, 37.77363
456.1075, 37.69791
456.5896, 37.74106
457.0717, 37.90074
457.5538, 38.07348
458.0359, 38.12260
458.5180, 38.14046
459.0002, 38.40560
459.4823, 38.97659
459.9644, 39.53051
460.4465, 39.70675
460.9286, 39.63623
461.4107, 39.56153
461.8929, 39.48302
462.3750, 39.51740
462.8571, 39.89331
463.3392, 40.51600
463.8213, 40.92477
464.3034, 40.56505
464.7856, 40.14968
465.2677, 40.22395
465.7498, 41.10439
466.2319, 41.81101
466.7140, 41.95021
467.1961, 41.83269
467.6783, 41.85833
468.1604, 42.27912
468.6425, 42.61419
469.1246, 42.67721
469.6067, 42.51286
470.0888, 42.70912
470.5710, 43.62230
471.0531, 44.40916
471.5352, 44.51655
472.0173, 43.64154
472.4994, 43.22045
472.9815, 43.38795
473.4637, 43.85561
473.9458, 44.20636
474.4279, 44.43972
474.9100, 44.59050
475.3921, 44.61287
475.8742, 44.58545
476.3564, 44.79136
476.8385, 45.22822
477.3206, 45.66331
477.8027, 45.91700
478.2848, 46.03881
478.7669, 46.06298
479.2491, 45.93508
479.7312, 45.97259
480.2133, 46.73169
480.6954, 47.84846
481.1775, 48.64758
481.6596, 48.47407
482.1418, 48.18901
482.6239, 48.36895
483.1060, 48.95522
483.5881, 49.48811
484.0702, 49.83384
484.5523, 50.04041
485.0345, 50.05702
485.5166, 49.54516
485.9987, 49.59147
486.4808, 50.68755
486.9629, 52.31290
487.4450, 53.80148
487.9272, 55.87119
488.4093, 56.74648
488.8914, 55.64821
489.3735, 52.86704
489.8556, 51.10513
490.3377, 50.52056
490.8199, 50.52840
491.3020, 50.96817
491.7841, 51.90596
492.2662, 52.38240
492.7483, 52.25917
493.2304, 51.95111
493.7126, 52.12281
494.1947, 52.69249
494.6768, 53.00439
495.1589, 52.72871
495.6410, 52.17952
496.1231, 51.91301
496.6053, 51.89109
497.0874, 51.88849
497.5695, 51.66410
498.0516, 51.42216
498.5337, 51.49257
499.0158, 51.98902
499.4980, 52.29034
499.9801, 51.73612
500.4622, 50.87644
500.9443, 50.35209
501.4264, 50.76368
501.9085, 51.12941
502.3907, 51.02472
502.8728, 50.59993
503.3549, 50.48251
503.8370, 51.25153
504.3191, 51.88269
504.8012, 51.94138
505.2834, 51.24012
505.7655, 50.81345
506.2476, 50.79633
506.7297, 50.90175
507.2118, 50.83292
507.6939, 50.52755
508.1761, 50.29721
508.6582, 50.17339
509.1403, 50.16240
509.6224, 50.29259
510.1045, 50.56508
510.5866, 50.92055
511.0688, 51.41166
511.5509, 51.96040
512.0330, 52.31109
512.5151, 52.46108
512.9973, 52.54940
513.4794, 52.65580
513.9615, 52.79155
514.4436, 52.96633
514.9257, 53.16175
515.4078, 53.44418
515.8900, 53.99726
516.3721, 54.65905
516.8542, 55.12181
517.3363, 55.03426
517.8184, 54.94901
518.3005, 55.08040
518.7827, 55.43638
519.2648, 55.92358
519.7469, 56.69478
520.2290, 57.46533
520.7111, 58.03286
521.1932, 57.98529
521.6754, 58.62852
522.1575, 60.34943
522.6396, 62.44756
523.1217, 63.89119
523.6038, 64.51743
524.0859, 65.06618
524.5681, 65.61041
525.0502, 66.23991
525.5323, 67.34119
526.0144, 68.93722
526.4965, 70.68787
526.9786, 72.40140
527.4608, 74.12013
527.9429, 75.94534
528.4250, 77.90421
528.9071, 79.91283
529.3892, 81.93190
529.8713, 83.95303
530.3535, 85.90388
530.8356, 87.67321
531.3177, 89.53749
531.7998, 91.76844
532.2819, 94.24320
532.7640, 96.56377
533.2462, 98.12505
533.7283, 99.97549
534.2104, 102.7179
534.6925, 106.4490
535.1746, 110.0186
535.6567, 113.1229
536.1389, 116.1929
536.6210, 119.3877
537.1031, 122.6960
537.5852, 126.2718
538.0673, 130.2311
538.5494, 134.3949
539.0316, 138.5640
539.5137, 142.8248
539.9958, 146.7806
540.4779, 150.4126
540.9600, 153.6139
541.4421, 156.2397
541.9243, 158.2634
542.4064, 159.1668
542.8885, 158.7236
543.3706, 156.8652
543.8527, 153.3295
544.3348, 148.0496
544.8170, 141.6689
545.2991, 134.0108
545.7812, 125.8231
546.2633, 117.9224
546.7454, 110.5929
547.2275, 103.6489
547.7097, 96.72215
548.1918, 90.10043
548.6739, 84.56544
549.1560, 80.69379
549.6381, 77.45383
550.1202, 74.63884
550.6024, 72.24392
551.0845, 70.12275
551.5666, 68.32961
552.0487, 66.73099
552.5308, 65.25352
553.0129, 63.87465
553.4951, 62.67330
553.9772, 61.61910
554.4593, 60.81414
554.9414, 60.57347
555.4235, 60.83464
555.9056, 60.82969
556.3878, 60.19261
556.8699, 59.33329
557.3520, 58.90216
557.8341, 58.85173
558.3162, 58.99120
558.7983, 59.45619
559.2805, 59.90446
559.7626, 59.93476
560.2447, 59.51250
560.7268, 59.13548
561.2089, 58.93053
561.6910, 58.92924
562.1732, 59.17894
562.6553, 59.96177
563.1374, 60.56168
563.6195, 60.81458
564.1016, 60.85643
564.5837, 60.86172
565.0659, 60.69065
565.5480, 60.74351
566.0301, 61.12915
566.5122, 61.80398
566.9943, 62.59723
567.4764, 63.53932
567.9586, 64.42222
568.4407, 65.09196
568.9228, 65.57901
569.4049, 66.00816
569.8870, 66.35880
570.3691, 66.86881
570.8513, 67.80869
571.3334, 69.06976
571.8155, 70.40279
572.2976, 71.76881
572.7797, 73.20162
573.2618, 74.90451
573.7440, 76.67539
574.2261, 78.18923
574.7082, 78.77027
575.1903, 79.60325
575.6724, 81.14729
576.1545, 83.36108
576.6367, 85.84958
577.1188, 89.08315
577.6009, 92.04015
578.0830, 94.23621
578.5651, 95.43181
579.0472, 97.03885
579.5294, 99.08845
580.0115, 101.5369
580.4936, 104.4598
580.9757, 107.8917
581.4578, 111.3422
581.9399, 114.7781
582.4221, 118.1132
582.9042, 121.0364
583.3863, 123.6931
583.8684, 126.8367
584.3505, 131.2211
584.8326, 135.9113
585.3148, 139.9550
585.7969, 143.4500
586.2789, 146.6763
586.7610, 149.5714
587.2432, 152.4222
587.7253, 155.5850
588.2074, 159.2943
588.6895, 162.1068
589.1716, 163.8111
589.6537, 164.4407
590.1359, 164.0962
590.6180, 163.0005
591.1001, 160.4209
591.5822, 156.0304
592.0643, 150.4611
592.5464, 144.6492
593.0286, 138.5570
593.5107, 132.5159
593.9928, 126.5892
594.4749, 120.8031
594.9570, 115.1234
595.4391, 109.5984
595.9213, 104.4844
596.4034, 99.63457
596.8855, 95.38042
597.3676, 92.32451
597.8497, 90.47925
598.3318, 89.05271
598.8140, 87.74984
599.2961, 86.54597
599.7782, 85.37983
600.2603, 84.10857
600.7424, 83.16478
601.2245, 82.80241
601.7067, 82.75042
602.1888, 82.65935
602.6709, 82.54752
603.1530, 82.34221
603.6351, 81.99193
604.1172, 81.55630
604.5994, 81.27486
605.0815, 81.21416
605.5636, 80.94479
606.0457, 80.16760
606.5278, 79.04854
607.0099, 78.20956
607.4921, 77.66119
607.9742, 77.21180
608.4563, 76.96461
608.9384, 76.64340
609.4205, 75.78806
609.9026, 74.29013
610.3848, 72.63478
610.8669, 71.02808
611.3490, 69.47758
611.8311, 67.96970
612.3132, 66.46614
612.7953, 65.07130
613.2775, 63.80292
613.7596, 62.67155
614.2417, 61.69478
614.7238, 61.04667
615.2059, 60.25905
615.6880, 59.19248
616.1702, 57.89874
616.6523, 56.57121
617.1344, 55.17133
617.6165, 53.90510
618.0986, 53.01614
618.5807, 52.36546
619.0629, 51.30730
619.5450, 49.83442
620.0271, 48.49134
620.5092, 47.83117
620.9913, 47.53135
621.4734, 47.19085
621.9556, 46.74549
622.4377, 46.21420
622.9198, 45.53646
623.4019, 44.80197
623.8840, 44.11726
624.3661, 43.41590
624.8483, 42.86338
625.3304, 42.50263
625.8125, 42.29927
626.2946, 42.23405
626.7767, 42.49073
627.2589, 42.44844
627.7410, 41.82131
628.2231, 40.75658
628.7052, 40.03317
629.1873, 39.66908
629.6694, 39.38057
630.1516, 38.98320
630.6337, 38.52998
631.1158, 38.14786
631.5979, 37.84504
632.0800, 37.53784
632.5621, 37.15178
633.0443, 36.73394
633.5264, 36.31721
634.0085, 35.86570
634.4906, 35.53162
634.9727, 35.42603
635.4548, 35.44368
635.9370, 35.46546
636.4191, 35.58584
636.9012, 35.55355
637.3833, 35.27808
637.8654, 34.86512
638.3475, 34.55883
638.8297, 34.36379
639.3118, 34.26704
639.7939, 34.32500
640.2760, 34.45210
640.7581, 34.31659
641.2402, 33.93389
641.7224, 33.58445
642.2045, 33.38681
642.6866, 33.34811
643.1687, 33.55311
643.6508, 33.99989
644.1329, 34.38375
644.6151, 34.56991
645.0972, 34.59902
645.5793, 34.45954
646.0614, 34.00707
646.5435, 33.75456
647.0256, 33.89162
647.5078, 34.19432
647.9899, 34.49839
648.4720, 34.92539
648.9541, 35.01754
649.4362, 34.61206
649.9183, 33.99218
650.4005, 33.66889
650.8826, 33.63995
651.3647, 33.68618
651.8468, 33.79128
652.3289, 33.86817
652.8110, 33.66156
653.2932, 33.25891
653.7753, 33.03462
654.2574, 33.41102
654.7395, 33.87257
655.2216, 34.00125
655.7037, 33.79977
656.1859, 33.63358
656.6680, 33.66043
657.1501, 33.71369
657.6322, 33.68211
658.1143, 33.51530
658.5964, 33.51557
659.0786, 33.85480
659.5607, 34.11012
660.0428, 33.78791
660.5249, 32.83611
661.0070, 32.35028
661.4891, 32.51650
661.9713, 32.87963
662.4534, 32.81043
662.9355, 32.46179
663.4176, 32.26949
663.8997, 32.40892
664.3818, 32.66141
664.8640, 32.91713
665.3461, 33.14279
665.8282, 33.27845
666.3103, 33.16959
666.7924, 33.10629
667.2745, 33.28067
667.7567, 33.61826
668.2388, 33.68544
668.7209, 33.31745
669.2030, 32.93282
669.6851, 32.62502
670.1672, 32.40588
670.6494, 32.51137
671.1315, 32.98281
671.6136, 33.46497
672.0957, 33.72059
672.5778, 33.78855
673.0599, 33.68803
673.5421, 33.41206
674.0242, 33.29297
674.5063, 33.86424
674.9884, 34.60306
675.4705, 34.88691
675.9526, 34.41980
676.4348, 33.99553
676.9169, 33.89516
677.3990, 33.96586
677.8811, 34.04700
678.3632, 34.15142
678.8453, 34.22258
679.3275, 34.22290
679.8096, 34.21719
680.2917, 34.34887
680.7738, 34.62690
681.2559, 34.87926
681.7380, 35.06112
682.2202, 35.18249
682.7023, 35.19993
683.1844, 35.15349
683.6665, 35.20133
684.1486, 35.53723
684.6307, 35.91211
685.1129, 36.11787
685.5950, 36.17689
686.0771, 36.25357
686.5592, 36.45893
687.0413, 36.64391
687.5234, 36.68994
688.0056, 36.57383
688.4877, 36.65932
688.9698, 37.03035
689.4519, 37.45164
689.9340, 37.76021
690.4161, 37.95246
690.8983, 38.29660
691.3804, 38.83777
691.8625, 39.28142
692.3446, 39.22416
692.8267, 38.87708
693.3088, 38.61975
693.7910, 38.49927
694.2731, 38.57953
694.7552, 39.12751
695.2373, 39.80989
695.7194, 40.23802
696.2015, 39.95952
696.6837, 39.87877
697.1658, 40.38504
697.6479, 41.05080
698.1300, 41.16678
698.6121, 40.41902
699.0942, 40.04798
699.5764, 40.40485
700.0585, 41.16741
700.5406, 41.55195
701.0227, 41.59908
701.5048, 41.75045
701.9869, 42.32986
702.4691, 43.01633
702.9512, 43.32314
703.4333, 43.34735
703.9154, 43.45321
704.3975, 43.83194
704.8796, 44.33236
705.3618, 44.93884
705.8439, 45.64478
706.3260, 46.20623
706.8081, 46.51764
707.2902, 46.79188
707.7723, 47.08940
708.2545, 47.40755
708.7366, 47.87562
709.2187, 48.52562
709.7008, 49.18072
710.1829, 49.68393
710.6650, 50.07010
711.1472, 50.40508
711.6293, 50.68348
712.1114, 51.04832
712.5935, 51.74646
713.0756, 52.53632
713.5577, 53.11230
714.0399, 53.30537
714.5220, 53.59100
715.0041, 54.04309
715.4862, 54.69211
715.9683, 55.60530
716.4504, 57.05834
716.9326, 58.13089
717.4147, 58.64775
717.8968, 58.90111
718.3789, 59.37126
718.8610, 60.04512
719.3431, 60.49087
719.8253, 60.43954
720.3074, 60.44588
720.7895, 61.46359
721.2716, 63.11608
721.7537, 64.56123
722.2358, 65.14042
722.7180, 65.69626
723.2001, 66.68884
723.6822, 67.98959
724.1643, 69.17242
724.6464, 70.01003
725.1285, 70.94047
725.6107, 72.08875
726.0928, 73.40093
726.5749, 74.63632
727.0570, 75.76039
727.5391, 76.92942
728.0212, 78.30038
728.5034, 79.75367
728.9855, 80.91260
729.4676, 81.81554
729.9497, 82.79149
730.4318, 84.27306
730.9139, 85.74978
731.3961, 86.66653
731.8782, 86.99464
732.3603, 87.61862
732.8424, 89.01857
733.3245, 90.58234
733.8066, 91.98898
734.2888, 93.20278
734.7709, 94.52602
735.2530, 96.01122
735.7351, 97.48891
736.2172, 98.80413
736.6993, 99.98457
737.1815, 101.1152
737.6636, 102.1739
738.1457, 103.5387
738.6278, 105.9347
739.1099, 108.6631
739.5920, 110.6629
740.0742, 111.4102
740.5563, 112.6777
741.0384, 115.7397
741.5205, 119.3353
742.0026, 122.2097
742.4847, 123.6925
742.9669, 125.6270
743.4490, 128.1975
743.9311, 131.0291
744.4132, 133.7257
744.8953, 136.2870
745.3774, 138.6358
745.8596, 140.6630
746.3417, 142.7910
746.8238, 145.8503
747.3059, 149.3720
747.7880, 152.4156
748.2701, 154.3664
748.7523, 156.1650
749.2344, 158.4120
749.7165, 160.7900
750.1986, 162.6522
750.6807, 163.8801
751.1628, 164.7082
751.6450, 165.0068
752.1271, 165.0116
752.6092, 165.3685
753.0913, 166.1215
753.5734, 166.5345
754.0555, 166.3502
754.5377, 165.6986
755.0198, 164.8931
755.5019, 163.8180
755.9840, 162.1451
756.4661, 159.2076
756.9482, 156.0833
757.4304, 153.4689
757.9125, 151.2230
758.3946, 148.5640
758.8767, 145.2292
759.3588, 141.6238
759.8409, 137.6368
760.3231, 133.4713
760.8052, 130.2232
761.2873, 128.0040
761.7694, 125.9797
762.2515, 123.8389
762.7336, 121.5324
763.2158, 118.6963
763.6979, 115.4522
764.1800, 112.6240
764.6621, 111.0217
765.1442, 109.7391
765.6263, 108.1676
766.1085, 106.2884
766.5906, 104.4529
767.0727, 102.6676
767.5548, 100.9830
768.0369, 99.34261
768.5190, 97.75625
769.0012, 96.90301
769.4833, 96.90613
769.9654, 96.94202
770.4475, 96.31812
770.9296, 95.34579
771.4117, 94.81533
771.8939, 94.73330
772.3760, 94.84469
772.8581, 95.03783
773.3402, 95.31386
773.8223, 95.64536
774.3044, 96.01508
774.7866, 96.60423
775.2687, 97.66631
775.7508, 98.71510
776.2329, 99.52969
776.7150, 100.1098
777.1971, 100.3984
777.6793, 100.3471
778.1614, 100.2682
778.6435, 100.4383
779.1256, 100.7724
779.6077, 101.0976
780.0898, 101.4019
780.5720, 101.6449
781.0541, 101.7102
781.5362, 101.7670
782.0183, 102.0446
782.5004, 102.7688
782.9825, 102.9321
783.4647, 102.0995
783.9468, 101.0962
784.4289, 100.4493
784.9110, 100.1735
785.3931, 100.1080
785.8752, 100.2608
786.3574, 100.5630
786.8395, 101.0694
787.3216, 101.6474
787.8037, 101.9496
788.2858, 101.8744
788.7679, 101.9864
789.2501, 102.8316
789.7322, 103.8934
790.2143, 104.6994
790.6964, 104.8796
791.1785, 105.5345
791.6606, 106.8853
792.1428, 108.4613
792.6249, 109.8579
793.1070, 111.0792
793.5891, 112.3140
794.0712, 113.5500
794.5533, 115.0273
795.0355, 117.0005
795.5176, 119.4050
795.9997, 122.2670
796.4818, 125.7277
796.9639, 128.9406
797.4460, 130.8634
797.9282, 132.7460
798.4103, 135.8039
798.8924, 140.7943
799.3745, 145.5018
799.8566, 149.6964
800.3387, 153.8923
800.8209, 158.4353
801.3030, 163.3413
801.7851, 168.7486
802.2672, 174.7034
802.7493, 181.3241
803.2314, 188.7937
803.7136, 196.9211
804.1957, 205.2739
804.6778, 213.5928
805.1599, 223.0102
805.6420, 233.7878
806.1241, 245.9851
806.6063, 259.5214
807.0884, 274.3485
807.5705, 290.7569
808.0526, 308.9085
808.5347, 328.3609
809.0168, 348.7386
809.4990, 370.1323
809.9811, 393.3741
810.4632, 418.7495
810.9453, 445.3022
811.4274, 472.0270
811.9095, 500.0468
812.3917, 530.2836
812.8738, 563.4019
813.3559, 597.9254
813.8380, 632.3396
814.3201, 669.2054
814.8022, 710.7803
815.2844, 756.9684
815.7665, 806.0831
816.2486, 858.1103
816.7307, 913.5750
817.2128, 974.1062
817.6949, 1038.918
818.1771, 1106.878
818.6592, 1177.649
819.1413, 1249.944
819.6234, 1326.083
820.1055, 1402.101
820.5876, 1475.624
821.0698, 1548.317
821.5519, 1611.677
822.0340, 1668.369
822.5161, 1711.963
822.9982, 1740.039
823.4803, 1752.373
823.9625, 1742.328
824.4446, 1709.234
824.9267, 1658.426
825.4088, 1589.884
825.8909, 1508.832
826.3730, 1422.316
826.8552, 1329.184
827.3373, 1238.354
827.8194, 1149.523
828.3015, 1066.213
828.7836, 988.7711
829.2657, 917.5875
829.7479, 853.7518
830.2300, 798.7669
830.7121, 749.7771
831.1942, 705.6930
831.6763, 666.2499
832.1584, 632.0778
832.6406, 603.2936
833.1227, 578.7938
833.6048, 559.4102
834.0869, 543.3198
834.5690, 528.6260
835.0511, 515.0832
835.5333, 504.5111
836.0154, 497.4475
836.4975, 492.3279
836.9796, 488.2233
837.4617, 485.1307
837.9438, 484.6888
838.4260, 486.9034
838.9081, 491.1016
839.3902, 496.9920
839.8723, 504.4782
840.3544, 513.1172
840.8365, 522.9924
841.3187, 535.0939
841.8008, 549.8807
842.2829, 566.8495
842.7650, 585.8519
843.2471, 606.9258
843.7292, 629.5157
844.2114, 653.4740
844.6935, 679.4284
845.1756, 707.3658
845.6577, 737.5846
846.1398, 772.1095
846.6219, 810.6368
847.1041, 851.4168
847.5862, 892.2203
848.0683, 935.9862
848.5504, 984.8334
849.0325, 1038.244
849.5146, 1095.798
849.9968, 1158.552
850.4789, 1222.751
850.9610, 1288.145
851.4431, 1353.965
851.9252, 1418.289
852.4073, 1481.051
852.8895, 1540.927
853.3716, 1598.832
853.8537, 1649.967
854.3358, 1690.302
854.8179, 1718.856
855.3000, 1732.836
855.7822, 1733.062
856.2643, 1716.561
856.7464, 1679.568
857.2285, 1626.599
857.7106, 1563.196
858.1927, 1488.196
858.6749, 1406.094
859.1570, 1315.238
859.6391, 1221.592
860.1212, 1134.475
860.6033, 1053.281
861.0854, 976.6804
861.5676, 903.2024
862.0497, 834.8000
862.5318, 773.5671
863.0139, 718.0280
863.4960, 667.6920
863.9781, 622.0898
864.4603, 580.5596
864.9424, 542.7717
865.4245, 508.3802
865.9066, 476.3758
866.3887, 447.0348
866.8708, 420.4447
867.3530, 396.8052
867.8351, 375.4125
868.3172, 355.4976
868.7993, 337.0252
869.2814, 319.9474
869.7635, 304.1304
870.2457, 289.6590
870.7278, 276.6664
871.2099, 264.6868
871.6920, 253.3900
872.1741, 242.8829
872.6563, 233.8965
873.1384, 226.5436
873.6205, 219.9909
874.1026, 213.5877
874.5847, 207.5352
875.0668, 202.2063
875.5490, 197.6701
876.0311, 193.5566
876.5132, 189.5623
876.9953, 186.1862
877.4774, 183.7178
877.9595, 182.1382
878.4417, 180.4514
878.9238, 178.6183
879.4059, 176.9054
879.8880, 175.5330
880.3701, 174.3623
880.8522, 173.4381
881.3344, 172.5667
881.8165, 170.9214
882.2986, 167.8626
882.7807, 164.1420
883.2628, 160.0151
883.7449, 155.5077
884.2271, 150.7414
884.7092, 145.6042
885.1913, 140.5122
885.6734, 135.5313
886.1555, 130.7105
886.6376, 125.9921
887.1198, 121.5434
887.6019, 117.6833
888.0840, 114.7881
888.5661, 112.1300
889.0482, 109.0639
889.5303, 105.9846
890.0125, 103.5930
890.4946, 102.4043
890.9767, 101.0302
891.4588, 99.30771
891.9409, 97.48765
892.4230, 95.76751
892.9052, 94.18156
893.3873, 93.05895
893.8694, 92.49776
894.3515, 92.00184
894.8336, 90.93467
895.3157, 89.83390
895.7979, 89.31172
896.2800, 89.72791
896.7621, 89.85674
897.2442, 89.44569
897.7263, 88.96021
898.2084, 88.61816
898.6906, 88.42781
899.1727, 88.83213
899.6548, 89.83234
900.1369, 90.76315
900.6190, 90.74820
901.1011, 90.65740
901.5833, 91.53767
902.0654, 93.33340
902.5475, 94.98540
903.0296, 95.82118
903.5117, 96.89843
903.9938, 98.43798
904.4760, 100.4638
904.9581, 103.2986
905.4402, 106.9557
905.9223, 110.6088
906.4044, 113.7651
906.8865, 117.0118
907.3687, 121.0996
907.8508, 125.8738
908.3329, 130.9060
908.8150, 136.0415
909.2971, 141.4296
909.7792, 146.8482
910.2614, 152.6854
910.7435, 159.5619
911.2256, 167.5099
911.7077, 175.9292
912.1898, 184.6147
912.6719, 194.5541
913.1541, 206.9796
913.6362, 221.3466
914.1183, 236.7985
914.6004, 253.1513
915.0825, 270.6033
915.5646, 289.7266
916.0468, 309.6102
916.5289, 330.0781
917.0110, 351.6267
917.4931, 370.8644
917.9752, 388.0990
918.4573, 401.2905
918.9395, 410.8943
919.4216, 414.4416
919.9037, 407.2596
920.3858, 389.6577
920.8679, 366.6938
921.3500, 336.3628
921.8322, 305.1217
922.3143, 274.4117
922.7964, 245.0179
923.2785, 219.4299
923.7606, 197.7706
924.2427, 178.9148
924.7249, 162.7191
925.2070, 148.9913
925.6891, 138.2545
926.1712, 129.9160
926.6533, 122.7752
927.1354, 116.7065
927.6176, 111.3531
928.0997, 106.5126
928.5818, 102.3560
929.0639, 99.20826
929.5460, 97.18639
930.0281, 95.30656
930.5103, 93.42550
930.9924, 91.92558
931.4745, 91.67514
931.9566, 91.96296
932.4387, 91.52754
932.9208, 90.06803
933.4030, 88.81129
933.8851, 88.32262
934.3672, 88.13231
934.8493, 87.95889
935.3314, 87.79659
935.8135, 87.84745
936.2957, 88.12692
936.7778, 88.48318
937.2599, 88.70481
937.7420, 89.01192
938.2241, 89.77332
938.7062, 90.93631
939.1884, 92.29261
939.6705, 93.94467
940.1526, 95.55983
940.6347, 97.02537
941.1168, 98.39710
941.5989, 99.70443
942.0811, 100.9139
942.5632, 102.4263
943.0453, 104.3884
943.5274, 106.5211
944.0095, 108.4588
944.4916, 110.3848
944.9738, 112.5919
945.4559, 115.1310
945.9380, 118.0021
946.4201, 121.5469
946.9022, 125.1888
947.3843, 128.3780
947.8665, 131.0404
948.3486, 134.4214
948.8307, 138.5578
949.3128, 142.9767
949.7949, 147.4605
950.2770, 151.9410
950.7592, 156.0396
951.2413, 159.8541
951.7234, 164.1586
952.2055, 169.5005
952.6876, 175.0116
953.1697, 180.4713
953.6519, 185.9163
954.1340, 191.6003
954.6161, 197.5201
955.0982, 202.9429
955.5803, 207.3338
956.0624, 211.6468
956.5446, 217.1203
957.0267, 223.0476
957.5088, 228.3548
957.9909, 232.2922
958.4730, 236.3961
958.9551, 241.3417
959.4373, 245.6806
959.9194, 247.7757
960.4015, 247.8518
960.8836, 247.9952
961.3657, 248.3546
961.8478, 247.9994
962.3300, 246.4671
962.8121, 243.7079
963.2942, 239.4295
963.7763, 233.5979
964.2584, 227.7147
964.7405, 222.1145
965.2227, 216.1168
965.7048, 209.4205
966.1869, 202.2266
966.6690, 194.5185
967.1511, 186.4088
967.6332, 178.5588
968.1154, 171.2674
968.5975, 164.1581
969.0796, 156.9486
969.5617, 149.7732
970.0438, 142.5025
970.5259, 134.8584
971.0081, 128.0434
971.4902, 122.2409
971.9723, 117.0949
972.4544, 112.5182
972.9365, 108.2801
973.4186, 103.9703
973.9008, 99.53983
974.3829, 95.37239
974.8650, 91.83622
975.3471, 88.53641
975.8292, 85.16088
976.3113, 81.75903
976.7935, 78.77190
977.2756, 76.21056
977.7577, 74.00094
978.2398, 72.23188
978.7219, 70.65534
979.2040, 68.83400
979.6862, 66.94363
980.1683, 65.36948
980.6504, 64.54277
981.1325, 63.62864
981.6146, 62.35374
982.0967, 61.02262
982.5789, 60.04596
983.0610, 59.42544
983.5431, 58.48758
984.0252, 57.12827
984.5073, 55.86120
984.9894, 55.23066
985.4716, 54.83998
985.9537, 54.30791
986.4358, 53.59380
986.9179, 52.85011
987.4000, 51.95773
987.8821, 51.27993
988.3643, 51.02761
988.8464, 51.04696
989.3285, 50.82153
989.8106, 50.41283
990.2927, 50.13897
990.7748, 50.34991
991.2570, 50.41675
991.7391, 49.71120
992.2212, 48.70415
992.7033, 48.08616
993.1854, 48.02708
993.6675, 47.98890
994.1497, 47.99073
994.6318, 47.88709
995.1139, 47.40274
995.5960, 46.74558
996.0781, 46.36409
996.5602, 46.28127
997.0424, 46.22308
997.5245, 45.97229
998.0066, 45.81350
998.4887, 45.97169
998.9708, 46.32775
999.4529, 46.30959
999.9351, 45.89723
1000.417, 45.46602
1000.899, 45.14686
1001.381, 44.85194
1001.864, 44.31051
1002.346, 43.76749
1002.828, 43.63944
1003.310, 44.42665
1003.792, 44.92188
1004.274, 45.09315
1004.756, 44.89641
1005.238, 44.05600
1005.720, 42.72583
1006.203, 42.09962
1006.685, 42.19364
1007.167, 42.44200
1007.649, 42.66513
1008.131, 42.73184
1008.613, 42.31991
1009.095, 41.60960
1009.577, 41.64069
1010.060, 42.83715
1010.542, 43.43782
1011.024, 42.88497
1011.506, 41.86273
1011.988, 41.32143
1012.470, 41.17124
1012.952, 41.30957
1013.434, 41.86187
1013.916, 42.18292
1014.399, 41.74990
1014.881, 41.23460
1015.363, 41.09753
1015.845, 41.34687
1016.327, 41.43628
1016.809, 41.36308
1017.291, 41.27614
1017.773, 41.31511
1018.255, 41.35070
1018.738, 41.25320
1019.220, 41.04809
1019.702, 40.80580
1020.184, 40.35837
1020.666, 40.19717
1021.148, 40.46682
1021.630, 40.90348
1022.112, 41.14801
1022.595, 41.23048
1023.077, 41.21460
1023.559, 41.09801
1024.041, 41.02698
1024.523, 41.12350
1025.005, 41.26921
1025.487, 41.39345
1025.969, 41.49477
1026.452, 41.61028
1026.934, 41.77448
1027.416, 41.63388
1027.898, 40.80247
1028.380, 39.87493
1028.862, 39.75237
1029.344, 40.15979
1029.826, 40.57763
1030.308, 41.07788
1030.791, 41.20844
1031.273, 40.73592
1031.755, 40.18436
1032.237, 40.18244
1032.719, 40.61384
1033.201, 40.51260
1033.683, 39.86344
1034.165, 39.32198
1034.647, 39.44095
1035.130, 39.72097
1035.612, 39.88805
1036.094, 39.93695
1036.576, 39.92561
1037.058, 39.83367
1037.540, 39.78104
1038.022, 39.81796
1038.504, 39.85236
1038.987, 39.72671
1039.469, 39.51640
1039.951, 39.36229
1040.433, 39.34475
1040.915, 39.20475
1041.397, 38.73512
1041.879, 38.31610
1042.361, 38.17699
1042.844, 38.28072
1043.326, 38.33295
1043.808, 38.34227
1044.290, 38.38399
1044.772, 38.59023
1045.254, 38.75037
1045.736, 38.75274
1046.218, 38.60746
1046.700, 38.31575
1047.182, 37.76782
1047.665, 37.47426
1048.147, 37.51388
1048.629, 37.68243
1049.111, 37.75201
1049.593, 37.81611
1050.075, 38.14573
1050.557, 38.73905
1051.039, 38.96767
1051.522, 38.26951
1052.004, 37.57714
1052.486, 37.11405
1052.968, 36.87360
1053.450, 36.96880
1053.932, 37.31805
1054.414, 37.41655
1054.896, 37.05494
1055.379, 36.57043
1055.861, 35.96922
1056.343, 35.50527
1056.825, 35.49083
1057.307, 36.01691
1057.789, 36.41818
1058.271, 36.69716
1058.753, 36.83868
1059.235, 36.83623
1059.718, 36.68689
1060.200, 36.22504
1060.682, 35.60803
1061.164, 35.27473
1061.646, 35.70927
1062.128, 35.96095
1062.610, 35.89830
1063.092, 35.63137
1063.574, 35.17140
1064.057, 34.60964
1064.539, 34.43210
1065.021, 34.68848
1065.503, 34.88122
1065.985, 34.49811
1066.467, 34.14534
1066.949, 34.30826
1067.431, 34.82277
1067.914, 34.96831
1068.396, 34.70658
1068.878, 34.51851
1069.360, 34.59392
1069.842, 34.66076
1070.324, 34.33791
1070.806, 33.84026
1071.288, 33.42154
1071.771, 33.06987
1072.253, 33.04655
1072.735, 33.52769
1073.217, 33.94951
1073.699, 33.89528
1074.181, 33.54975
1074.663, 33.42797
1075.145, 33.48482
1075.627, 33.56527
1076.109, 33.51809
1076.592, 33.59288
1077.074, 34.10357
1077.556, 34.59230
1078.038, 34.43871
1078.520, 33.65130
1079.002, 33.12754
1079.484, 32.93190
1079.966, 32.88445
1080.448, 32.56538
1080.931, 32.58239
1081.413, 33.85748
1081.895, 36.06504
1082.377, 36.94779
1082.859, 36.16307
1083.341, 35.31947
1083.823, 34.75057
1084.305, 34.37533
1084.788, 34.20055
1085.270, 34.09928
1085.752, 33.84230
1086.234, 33.33009
1086.716, 33.01217
1087.198, 33.01418
1087.680, 33.13265
1088.162, 33.31049
1088.645, 33.51817
1089.127, 33.68192
1089.609, 33.79696
1090.091, 33.84682
1090.573, 33.80804
1091.055, 33.72984
1091.537, 33.56611
1092.019, 33.42167
1092.501, 33.44494
1092.984, 33.67215
1093.466, 33.55454
1093.948, 33.07841
1094.430, 32.71831
1094.912, 32.86730
1095.394, 33.21669
1095.876, 33.66808
1096.358, 34.10244
1096.840, 34.14861
1097.323, 33.60644
1097.805, 33.28877
1098.287, 33.34514
1098.769, 33.48298
1099.251, 33.32783
1099.733, 33.04965
1100.215, 32.91254
1100.697, 32.94085
1101.180, 32.99135
1101.662, 33.01653
1102.144, 33.06144
1102.626, 33.07111
1103.108, 33.18352
1103.590, 33.98760
1104.072, 35.16988
1104.554, 35.67540
1105.036, 35.08108
1105.519, 34.31241
1106.001, 33.52031
1106.483, 32.99700
1106.965, 33.01446
1107.447, 33.51756
1107.929, 33.69830
1108.411, 33.57657
1108.893, 33.50163
1109.375, 33.71922
1109.858, 33.95129
1110.340, 34.00847
1110.822, 33.93438
1111.304, 33.75404
1111.786, 33.33252
1112.268, 33.39512
1112.750, 34.03687
1113.232, 34.60041
1113.715, 34.52138
1114.197, 34.11533
1114.679, 33.63232
1115.161, 33.14764
1115.643, 32.88811
1116.125, 32.98467
1116.607, 33.14946
1117.089, 33.39326
1117.572, 33.59423
1118.054, 33.51521
1118.536, 33.30381
1119.018, 33.28698
1119.500, 33.49228
1119.982, 33.71528
1120.464, 33.94416
1120.946, 34.10038
1121.428, 34.19814
1121.911, 34.17520
1122.393, 33.68141
1122.875, 32.89685
1123.357, 32.72186
1123.839, 33.51538
1124.321, 34.18488
1124.803, 33.87927
1125.285, 33.42137
1125.767, 33.36772
1126.250, 33.67373
1126.732, 33.93815
1127.214, 34.15733
1127.696, 34.21236
1128.178, 33.94884
1128.660, 33.69404
1129.142, 33.81649
1129.624, 34.05581
1130.107, 34.08164
1130.589, 33.84390
1131.071, 33.53409
1131.553, 33.11786
1132.035, 32.88385
1132.517, 33.19144
1132.999, 33.65641
1133.481, 33.81710
1133.964, 33.77797
1134.446, 33.78485
1134.928, 34.02257
1135.410, 33.96529
1135.892, 33.47387
1136.374, 33.02391
1136.856, 33.25074
1137.338, 33.76453
1137.820, 33.83288
1138.302, 33.50191
1138.785, 33.27333
1139.267, 33.41566
1139.749, 33.53011
1140.231, 33.52599
1140.713, 33.50444
1141.195, 33.69540
1141.677, 33.98046
1142.159, 33.97780
1142.642, 33.63352
1143.124, 33.35004
1143.606, 33.30424
1144.088, 33.37806
1144.570, 33.53117
1145.052, 33.75767
1145.534, 34.08139
1146.016, 34.47435
1146.499, 34.79694
1146.981, 35.04397
1147.463, 35.07478
1147.945, 34.50925
1148.427, 33.97230
1148.909, 33.93113
1149.391, 34.31285
1149.873, 34.44547
1150.355, 34.34724
1150.838, 34.37862
1151.320, 34.81875
1151.802, 35.14174
1152.284, 34.68823
1152.766, 34.05737
1153.248, 33.95974
1153.730, 34.49450
1154.212, 34.75539
1154.694, 34.72660
1155.177, 34.61476
1155.659, 34.44183
1156.141, 34.34011
1156.623, 34.52016
1157.105, 34.83714
1157.587, 35.03218
1158.069, 35.10854
1158.551, 34.96772
1159.034, 34.55892
1159.516, 34.21123
1159.998, 34.27125
1160.480, 34.47932
1160.962, 34.44685
1161.444, 34.28058
1161.926, 34.38853
1162.408, 35.11829
1162.891, 35.42096
1163.373, 35.09974
1163.855, 34.65904
1164.337, 34.65428
1164.819, 34.88219
1165.301, 35.06910
1165.783, 35.18400
1166.265, 35.18004
1166.747, 34.98830
1167.229, 34.76210
1167.712, 34.48639
1168.194, 34.26979
1168.676, 34.28192
1169.158, 34.46492
1169.640, 34.79625
1170.122, 35.27277
1170.604, 35.42823
1171.086, 34.70670
1171.569, 34.19592
1172.051, 34.26178
1172.533, 34.60202
1173.015, 34.56353
1173.497, 34.28629
1173.979, 34.16956
1174.461, 34.31720
1174.943, 34.46902
1175.426, 34.68078
1175.908, 34.67860
1176.390, 34.29487
1176.872, 33.64748
1177.354, 32.89715
1177.836, 32.20144
1178.318, 32.21847
1178.800, 33.45655
1179.282, 34.47456
1179.765, 34.55818
1180.247, 34.27440
1180.729, 33.90568
1181.211, 33.45543
1181.693, 32.78353
1182.175, 31.99014
1182.657, 31.61338
1183.139, 32.11177
1183.621, 32.63085
1184.104, 32.70114
1184.586, 32.67415
1185.068, 32.86044
1185.550, 33.23796
1186.032, 33.30988
1186.514, 33.10764
1186.996, 32.88515
1187.478, 32.83393
1187.961, 32.73737
1188.443, 32.38404
1188.925, 32.00690
1189.407, 31.84615
1189.889, 31.90676
1190.371, 32.01743
1190.853, 32.18240
1191.335, 32.52447
1191.818, 33.61006
1192.300, 34.36465
1192.782, 33.73046
1193.264, 32.60617
1193.746, 32.35775
1194.228, 33.02898
1194.710, 33.55352
1195.192, 33.86364
1195.674, 33.82480
1196.156, 32.94426
1196.639, 32.08068
1197.121, 31.71948
1197.603, 31.80945
1198.085, 32.35746
1198.567, 33.41339
1199.049, 33.83773
1199.531, 33.49501
1200.013, 33.09427
1200.496, 33.18676
1200.978, 33.43340
1201.460, 33.67574
1201.942, 33.86802
1202.424, 33.84746
1202.906, 33.59735
1203.388, 33.59232
1203.870, 33.92574
1204.353, 34.31200
1204.835, 34.61959
1205.317, 34.78352
1205.799, 34.74091
1206.281, 34.50383
1206.763, 33.95076
1207.245, 33.05499
1207.727, 32.78148
1208.209, 33.44519
1208.692, 34.09623
1209.174, 33.66372
1209.656, 33.06422
1210.138, 33.12331
1210.620, 33.72932
1211.102, 34.22042
1211.584, 34.59472
1212.066, 34.76569
1212.548, 34.66877
1213.031, 34.51622
1213.513, 34.38298
1213.995, 34.35951
1214.477, 34.62820
1214.959, 35.12292
1215.441, 35.26609
1215.923, 35.05510
1216.405, 34.87873
1216.888, 34.89024
1217.370, 34.89796
1217.852, 34.62657
1218.334, 34.36791
1218.816, 34.44254
1219.298, 34.82859
1219.780, 35.01790
1220.262, 35.01324
1220.745, 35.01067
1221.227, 35.09413
1221.709, 35.17989
1222.191, 35.23041
1222.673, 35.22576
1223.155, 35.10011
1223.637, 34.85888
1224.119, 34.95811
1224.601, 35.37329
1225.083, 35.65054
1225.566, 35.49306
1226.048, 35.30746
1226.530, 35.46926
1227.012, 35.67391
1227.494, 35.57788
1227.976, 35.18114
1228.458, 35.09990
1228.940, 35.30182
1229.423, 35.31464
1229.905, 34.60597
1230.387, 34.11110
1230.869, 34.71285
1231.351, 35.55929
1231.833, 35.79530
1232.315, 35.42711
1232.797, 35.27111
1233.280, 35.30782
1233.762, 35.34978
1234.244, 35.26570
1234.726, 35.20583
1235.208, 35.21088
1235.690, 35.30811
1236.172, 35.61594
1236.654, 36.11322
1237.136, 36.08398
1237.619, 35.59990
1238.101, 35.17494
1238.583, 35.07721
1239.065, 35.11314
1239.547, 35.32188
1240.029, 35.53296
1240.511, 35.57080
1240.993, 35.46112
1241.475, 35.49846
1241.958, 35.62615
1242.440, 35.49858
1242.922, 34.48001
1243.404, 33.81089
1243.886, 34.01200
1244.368, 34.48129
1244.850, 34.67379
1245.332, 34.63715
1245.815, 34.55837
1246.297, 34.44909
1246.779, 34.33557
1247.261, 34.22258
1247.743, 34.11427
1248.225, 33.98397
1248.707, 33.90165
1249.189, 34.11579
1249.672, 34.39290
1250.154, 33.82525
1250.636, 32.62647
1251.118, 31.88426
1251.600, 32.37243
1252.082, 32.87571
1252.564, 33.33594
1253.046, 33.58735
1253.528, 33.34587
1254.010, 32.82772
1254.493, 32.42428
1254.975, 32.13156
1255.457, 31.84362
1255.939, 31.47050
1256.421, 31.19353
1256.903, 31.00280
1257.385, 30.99749
1257.867, 31.42930
1258.350, 32.01462
1258.832, 32.42154
1259.314, 32.61310
1259.796, 32.45507
1260.278, 31.68218
1260.760, 31.35855
1261.242, 31.65723
1261.724, 32.03743
1262.207, 31.97429
1262.689, 31.73148
1263.171, 31.56553
1263.653, 31.47397
1264.135, 31.40885
1264.617, 31.40048
1265.099, 31.20290
1265.581, 30.76338
1266.063, 30.43818
1266.546, 30.75776
1267.028, 31.11670
1267.510, 30.90522
1267.992, 30.35484
1268.474, 30.09137
1268.956, 30.13124
1269.438, 30.29450
1269.920, 30.56878
1270.402, 30.75471
1270.885, 30.55196
1271.367, 30.36922
1271.849, 30.52444
1272.331, 30.83105
1272.813, 31.04006
1273.295, 31.14649
1273.777, 31.02491
1274.259, 30.67667
1274.742, 30.36349
1275.224, 30.25398
1275.706, 30.20267
1276.188, 30.16856
1276.670, 30.14283
1277.152, 30.09824
1277.634, 30.05225
1278.116, 30.11795
1278.599, 30.28278
1279.081, 30.35753
1279.563, 30.05164
1280.045, 29.97080
1280.527, 30.35001
1281.009, 30.78164
1281.491, 30.70697
1281.973, 30.30964
1282.455, 29.88097
1282.938, 29.48556
1283.420, 29.35484
1283.902, 29.76406
1284.384, 30.04877
1284.866, 30.12365
1285.348, 30.08621
1285.830, 30.02912
1286.312, 29.93170
1286.794, 29.76044
1287.277, 29.52081
1287.759, 29.21439
1288.241, 28.72156
1288.723, 28.67569
1289.205, 29.20781
1289.687, 29.70841
1290.169, 29.58735
1290.651, 29.24790
1291.134, 29.06556
1291.616, 28.94801
1292.098, 28.58719
1292.580, 27.94617
1293.062, 27.43099
1293.544, 27.07128
1294.026, 26.98165
1294.508, 27.52691
1294.990, 28.06135
1295.473, 28.14854
1295.955, 28.03275
1296.437, 28.05319
1296.919, 28.17558
1297.401, 28.09558
1297.883, 27.80585
1298.365, 27.44678
1298.847, 27.03441
1299.329, 26.62090
1299.812, 26.09921
1300.294, 25.74898
1300.776, 26.06974
1301.258, 26.76636
1301.740, 26.99033
1302.222, 26.80728
1302.704, 26.70358
1303.186, 27.00623
1303.669, 27.15477
1304.151, 27.11437
1304.633, 26.88793
##END=



