##NAMES=Forsterite
##RRUFFID=R100100
##IDEAL CHEMISTRY=Mg_2_SiO_4_
##LOCALITY=Scott Creek, Jackson County,  North Carolina, USA
##OWNER=RRUFF
##SOURCE=American Museum of Natural History
##DESCRIPTION=Pale greenish-yellow fragments
##STATUS=The identification of this mineral is confirmed by single-crystal X-ray diffraction and chemical analysis.
##URL=rruff.info/R100100
##MEASURED CHEMISTRY=(Mg_1.832_Fe_0.153_Ni_0.008_Mn_0.002_Zn_0.001_)_Î£=1.996_Si_1.000_O_4_
112.2642, 96.51548
112.7463, 96.37528
113.2285, 96.49609
113.7106, 96.55083
114.1927, 96.50057
114.6748, 96.33616
115.1569, 96.06269
115.6390, 95.71196
116.1212, 95.13736
116.6033, 94.08665
117.0854, 92.89868
117.5675, 91.92764
118.0496, 91.36803
118.5317, 91.11629
119.0139, 90.67683
119.4960, 89.59131
119.9781, 88.81277
120.4602, 88.65038
120.9423, 88.91043
121.4244, 89.27445
121.9066, 89.52317
122.3887, 89.66768
122.8708, 89.48917
123.3529, 88.68384
123.8350, 87.90200
124.3171, 87.52303
124.7993, 87.52308
125.2814, 87.55649
125.7635, 87.27218
126.2456, 86.58566
126.7277, 85.90601
127.2098, 84.90150
127.6920, 84.05679
128.1741, 84.10867
128.6562, 85.35843
129.1383, 86.74516
129.6204, 86.78133
130.1025, 85.63860
130.5847, 84.42085
131.0668, 83.53490
131.5489, 82.91675
132.0310, 82.33408
132.5131, 81.66428
132.9952, 81.11523
133.4774, 80.94323
133.9595, 81.14404
134.4416, 81.28366
134.9237, 80.81631
135.4058, 79.59058
135.8879, 78.81006
136.3701, 79.39552
136.8522, 80.06138
137.3343, 79.96770
137.8164, 78.92297
138.2985, 77.50011
138.7806, 76.68810
139.2628, 76.88990
139.7449, 77.00965
140.2270, 76.83475
140.7091, 76.58955
141.1912, 76.56290
141.6733, 76.88315
142.1555, 77.34062
142.6376, 77.20553
143.1197, 75.52588
143.6018, 74.27957
144.0839, 73.83054
144.5660, 73.93346
145.0482, 74.22769
145.5303, 74.53537
146.0124, 74.82971
146.4945, 74.91380
146.9766, 74.71309
147.4587, 74.42997
147.9409, 74.04092
148.4230, 73.59822
148.9051, 73.32875
149.3872, 73.45293
149.8693, 73.90826
150.3514, 74.20843
150.8336, 74.41405
151.3157, 74.42068
151.7978, 73.99971
152.2799, 73.07299
152.7620, 72.23940
153.2441, 72.17941
153.7263, 72.52170
154.2084, 72.64304
154.6905, 72.20694
155.1726, 71.43066
155.6547, 70.76534
156.1368, 70.19407
156.6190, 69.79251
157.1011, 69.66279
157.5832, 69.70337
158.0653, 69.71712
158.5474, 69.57130
159.0295, 69.27734
159.5117, 68.98764
159.9938, 68.67622
160.4759, 68.39565
160.9580, 68.20995
161.4401, 68.07938
161.9222, 67.90314
162.4044, 67.56529
162.8865, 67.01200
163.3686, 66.60596
163.8507, 66.27812
164.3328, 66.13535
164.8149, 66.36347
165.2971, 66.89281
165.7792, 67.42854
166.2613, 67.62930
166.7434, 67.39114
167.2255, 67.06028
167.7076, 66.38703
168.1898, 65.79764
168.6719, 65.66681
169.1540, 66.04533
169.6361, 66.62189
170.1182, 66.98109
170.6003, 67.09168
171.0825, 67.00346
171.5646, 66.49232
172.0467, 65.86905
172.5288, 65.50188
173.0109, 65.50707
173.4930, 65.70924
173.9752, 65.83139
174.4573, 65.85075
174.9394, 65.94167
175.4215, 66.25855
175.9036, 66.68348
176.3857, 66.96718
176.8679, 67.06605
177.3500, 66.93981
177.8321, 66.49773
178.3142, 65.70805
178.7963, 64.96919
179.2784, 64.52627
179.7606, 64.35162
180.2427, 64.26618
180.7248, 64.33286
181.2069, 64.37458
181.6890, 64.28876
182.1711, 64.07003
182.6533, 63.64533
183.1354, 62.76268
183.6175, 61.30844
184.0996, 60.29952
184.5817, 60.62810
185.0638, 61.08036
185.5460, 60.85106
186.0281, 59.78368
186.5102, 58.47783
186.9923, 57.83538
187.4744, 58.20304
187.9565, 58.31563
188.4387, 57.74127
188.9208, 57.05299
189.4029, 56.68115
189.8850, 56.74996
190.3671, 57.05156
190.8492, 57.21695
191.3314, 57.32625
191.8135, 57.11427
192.2956, 56.13365
192.7777, 55.07869
193.2598, 54.60902
193.7419, 54.97688
194.2241, 55.88643
194.7062, 56.62408
195.1883, 56.96733
195.6704, 57.38683
196.1525, 58.04293
196.6346, 58.73022
197.1168, 59.22642
197.5989, 59.43698
198.0810, 59.38668
198.5631, 59.11823
199.0452, 58.29725
199.5273, 57.70927
200.0095, 57.67477
200.4916, 57.92802
200.9737, 57.98713
201.4558, 57.58840
201.9379, 56.96675
202.4200, 56.83935
202.9022, 57.48999
203.3843, 58.02953
203.8664, 58.02848
204.3485, 57.65874
204.8306, 57.40794
205.3127, 57.52661
205.7949, 57.84339
206.2770, 57.94378
206.7591, 57.69060
207.2412, 57.53080
207.7233, 57.78673
208.2054, 58.39895
208.6876, 58.98957
209.1697, 59.37205
209.6518, 59.68336
210.1339, 60.10665
210.6160, 60.64312
211.0981, 61.30157
211.5803, 62.17390
212.0624, 63.25953
212.5445, 64.20154
213.0266, 64.57251
213.5087, 64.93056
213.9908, 65.84785
214.4730, 67.46069
214.9551, 69.31297
215.4372, 70.95942
215.9193, 72.41331
216.4014, 73.61851
216.8836, 74.11366
217.3657, 74.60596
217.8478, 75.60210
218.3299, 77.22224
218.8120, 79.20345
219.2941, 81.22864
219.7763, 83.33178
220.2584, 85.35778
220.7405, 87.25753
221.2226, 89.09946
221.7047, 90.93542
222.1868, 92.77819
222.6690, 94.59515
223.1511, 96.43542
223.6332, 98.67654
224.1153, 100.0193
224.5974, 100.2356
225.0795, 99.75423
225.5617, 98.73548
226.0438, 97.26717
226.5259, 95.53974
227.0080, 93.86679
227.4901, 92.26350
227.9722, 90.71174
228.4544, 89.11063
228.9365, 87.61185
229.4186, 86.40232
229.9007, 85.51529
230.3828, 84.77323
230.8649, 83.82626
231.3471, 81.93639
231.8292, 81.12364
232.3113, 82.24760
232.7934, 83.84721
233.2755, 84.78933
233.7576, 84.74272
234.2398, 84.04575
234.7219, 83.23192
235.2040, 82.10304
235.6861, 81.22683
236.1682, 80.62322
236.6503, 80.25068
237.1325, 80.19164
237.6146, 80.44592
238.0967, 80.73485
238.5788, 80.65363
239.0609, 80.13040
239.5430, 79.30933
240.0252, 78.07326
240.5073, 76.60020
240.9894, 74.93264
241.4715, 73.07697
241.9536, 71.39715
242.4357, 70.50082
242.9179, 70.67664
243.4000, 70.34372
243.8821, 69.05118
244.3642, 67.32081
244.8463, 65.58252
245.3284, 63.89571
245.8106, 62.49775
246.2927, 61.75613
246.7748, 61.68571
247.2569, 61.71574
247.7390, 62.02806
248.2211, 62.28518
248.7033, 61.98877
249.1854, 61.01319
249.6675, 59.88275
250.1496, 59.12854
250.6317, 58.69014
251.1138, 58.23242
251.5960, 57.52673
252.0781, 56.83024
252.5602, 56.57323
253.0423, 56.87362
253.5244, 57.16391
254.0065, 56.87861
254.4887, 56.18351
254.9708, 55.49025
255.4529, 54.91425
255.9350, 54.39213
256.4171, 53.80731
256.8992, 53.12290
257.3813, 52.53056
257.8635, 52.17178
258.3456, 51.99889
258.8277, 51.97545
259.3098, 52.14261
259.7919, 52.42456
260.2740, 52.78100
260.7562, 53.27087
261.2383, 53.57837
261.7204, 53.37410
262.2025, 52.91157
262.6846, 52.44950
263.1667, 51.97713
263.6489, 51.63930
264.1310, 51.76283
264.6131, 52.50200
265.0952, 53.02929
265.5773, 52.78428
266.0594, 52.21001
266.5416, 51.64814
267.0237, 51.14258
267.5058, 50.80404
267.9879, 50.83054
268.4700, 51.29436
268.9521, 51.79225
269.4343, 52.52645
269.9164, 53.05917
270.3985, 52.86024
270.8806, 51.74514
271.3627, 50.46654
271.8448, 50.03706
272.3270, 50.63762
272.8091, 51.13287
273.2912, 51.11657
273.7733, 50.99663
274.2554, 51.04072
274.7375, 51.29023
275.2197, 51.55775
275.7018, 51.58626
276.1839, 51.31538
276.6660, 51.19684
277.1481, 51.34767
277.6302, 51.63973
278.1124, 52.10469
278.5945, 52.70487
279.0766, 53.25513
279.5587, 53.45637
280.0408, 53.22472
280.5229, 53.41539
281.0051, 54.86410
281.4872, 56.05555
281.9693, 56.03022
282.4514, 55.07502
282.9335, 54.28203
283.4156, 54.76911
283.8978, 56.57787
284.3799, 57.68099
284.8620, 57.21457
285.3441, 56.87513
285.8262, 57.25201
286.3083, 58.21159
286.7905, 59.41294
287.2726, 60.69172
287.7547, 62.00963
288.2368, 62.92694
288.7189, 62.70037
289.2010, 62.97989
289.6832, 64.41499
290.1653, 66.57452
290.6474, 68.78978
291.1295, 70.64342
291.6116, 72.30116
292.0938, 74.43560
292.5759, 77.26950
293.0580, 80.30676
293.5401, 83.25388
294.0222, 86.39797
294.5043, 89.96236
294.9865, 94.03696
295.4686, 98.74124
295.9507, 104.3577
296.4328, 110.9071
296.9149, 118.4742
297.3970, 127.2456
297.8792, 136.7401
298.3613, 146.5909
298.8434, 156.6899
299.3255, 166.9644
299.8076, 177.5181
300.2897, 189.2808
300.7719, 199.0950
301.2540, 207.6545
301.7361, 214.0169
302.2182, 217.7778
302.7003, 218.7579
303.1824, 216.9043
303.6646, 211.8736
304.1467, 203.0502
304.6288, 193.1926
305.1109, 181.6865
305.5930, 169.6908
306.0751, 157.0378
306.5573, 144.2287
307.0394, 132.4866
307.5215, 123.0216
308.0036, 115.9049
308.4857, 109.3215
308.9678, 102.8110
309.4500, 97.31615
309.9321, 93.41468
310.4142, 90.74162
310.8963, 88.59814
311.3784, 86.53606
311.8605, 84.55538
312.3427, 82.67290
312.8248, 80.23763
313.3069, 78.72899
313.7890, 79.02653
314.2711, 80.19810
314.7532, 81.09084
315.2354, 81.13565
315.7175, 80.53297
316.1996, 79.83595
316.6817, 78.96372
317.1638, 78.11602
317.6459, 77.28120
318.1281, 76.49491
318.6102, 75.78667
319.0923, 75.16679
319.5744, 74.63769
320.0565, 74.13291
320.5386, 73.36086
321.0208, 73.34193
321.5029, 74.38049
321.9850, 75.85303
322.4671, 77.61853
322.9492, 79.52954
323.4313, 81.21616
323.9135, 82.21585
324.3956, 82.35063
324.8777, 82.68951
325.3598, 83.85645
325.8419, 84.65013
326.3240, 84.63148
326.8062, 83.83143
327.2883, 82.47187
327.7704, 80.66686
328.2525, 78.43620
328.7346, 76.07678
329.2167, 73.47336
329.6989, 70.84617
330.1810, 67.90048
330.6631, 65.03661
331.1452, 62.84995
331.6273, 61.67154
332.1094, 61.32428
332.5916, 61.32639
333.0737, 62.03440
333.5558, 62.47665
334.0379, 62.52543
334.5200, 62.26051
335.0021, 61.62422
335.4843, 60.61674
335.9664, 59.58199
336.4485, 59.14754
336.9306, 59.58503
337.4127, 59.80888
337.8948, 59.89436
338.3770, 59.61448
338.8591, 58.60298
339.3412, 56.94676
339.8233, 55.26973
340.3055, 54.22459
340.7876, 53.87948
341.2697, 53.52376
341.7518, 53.34139
342.2339, 52.95188
342.7160, 51.88298
343.1982, 50.46934
343.6803, 49.53321
344.1624, 49.84816
344.6445, 51.05285
345.1266, 51.23376
345.6087, 49.59005
346.0909, 48.21201
346.5730, 47.81780
347.0551, 48.02740
347.5372, 48.45124
348.0193, 48.99821
348.5014, 49.46662
348.9836, 49.41519
349.4657, 48.65478
349.9478, 48.01078
350.4299, 47.74977
350.9120, 47.65449
351.3941, 47.58228
351.8763, 47.50605
352.3584, 47.48886
352.8405, 47.65266
353.3226, 48.00681
353.8047, 48.20289
354.2868, 47.97248
354.7690, 47.81025
355.2511, 48.12459
355.7332, 48.81309
356.2153, 49.41403
356.6974, 49.57184
357.1795, 49.39239
357.6617, 49.27888
358.1438, 49.23582
358.6259, 49.26197
359.1080, 49.38990
359.5901, 49.57511
360.0722, 49.76848
360.5544, 50.03160
361.0365, 50.20322
361.5186, 49.94709
362.0007, 49.18860
362.4828, 48.62138
362.9649, 48.89002
363.4471, 49.27897
363.9292, 48.79641
364.4113, 47.10677
364.8934, 45.61195
365.3755, 45.70046
365.8576, 47.05429
366.3398, 47.83705
366.8219, 47.32194
367.3040, 46.57798
367.7861, 46.84434
368.2682, 48.01600
368.7503, 49.06731
369.2325, 49.53151
369.7146, 49.63721
370.1967, 49.78151
370.6788, 50.01701
371.1609, 50.18623
371.6430, 50.20099
372.1252, 50.04659
372.6073, 49.67793
373.0894, 48.98290
373.5715, 48.15511
374.0536, 47.26220
374.5357, 46.33746
375.0179, 45.57494
375.5000, 45.11953
375.9821, 44.85356
376.4642, 44.49929
376.9463, 44.07214
377.4284, 43.54654
377.9106, 42.62260
378.3927, 41.65750
378.8748, 41.38603
379.3569, 42.05724
379.8390, 43.02531
380.3211, 43.46218
380.8033, 43.26046
381.2854, 43.11873
381.7675, 43.17847
382.2496, 43.24820
382.7317, 43.22237
383.2138, 43.07479
383.6960, 42.73473
384.1781, 42.09660
384.6602, 41.19781
385.1423, 40.56274
385.6244, 40.07327
386.1065, 39.91542
386.5887, 40.54993
387.0708, 41.48737
387.5529, 41.78784
388.0350, 41.00946
388.5171, 39.74083
388.9992, 39.28577
389.4814, 40.48366
389.9635, 41.24385
390.4456, 41.25650
390.9277, 41.04520
391.4098, 41.09294
391.8919, 41.42736
392.3741, 41.66137
392.8562, 41.32453
393.3383, 40.26891
393.8204, 39.78536
394.3025, 40.37431
394.7846, 40.97314
395.2668, 41.22985
395.7489, 41.23177
396.2310, 41.17372
396.7131, 41.15761
397.1952, 41.20420
397.6773, 41.40594
398.1595, 41.96381
398.6416, 42.33847
399.1237, 42.37052
399.6058, 42.27039
400.0879, 42.14136
400.5700, 42.03617
401.0522, 42.08348
401.5343, 42.51216
402.0164, 43.40893
402.4985, 44.15901
402.9806, 44.59512
403.4627, 45.01414
403.9449, 45.50312
404.4270, 46.07578
404.9091, 46.74247
405.3912, 47.52315
405.8733, 48.39718
406.3554, 49.37136
406.8376, 50.65076
407.3197, 51.52466
407.8018, 51.09955
408.2839, 50.41164
408.7660, 50.60084
409.2481, 52.03134
409.7303, 53.83673
410.2124, 55.13038
410.6945, 55.95244
411.1766, 56.97687
411.6587, 58.41395
412.1408, 60.02473
412.6230, 61.45753
413.1051, 62.77058
413.5872, 64.45366
414.0693, 67.22874
414.5514, 70.31161
415.0335, 72.35716
415.5157, 73.23058
415.9978, 73.73134
416.4799, 74.22652
416.9620, 74.75324
417.4441, 75.44498
417.9262, 76.79814
418.4084, 77.66241
418.8905, 77.10552
419.3726, 75.54440
419.8547, 74.00457
420.3368, 72.80408
420.8189, 71.85863
421.3011, 71.02158
421.7832, 70.21897
422.2653, 69.82687
422.7474, 70.19014
423.2295, 70.77702
423.7116, 70.98241
424.1938, 70.85491
424.6759, 71.06086
425.1580, 72.16406
425.6401, 74.11254
426.1222, 75.98537
426.6043, 77.25919
427.0865, 79.06978
427.5686, 82.16747
428.0507, 85.83288
428.5328, 89.09032
429.0149, 91.57029
429.4970, 93.54427
429.9792, 95.50842
430.4613, 97.59172
430.9434, 99.38399
431.4255, 101.1357
431.9076, 102.4495
432.3897, 102.9297
432.8719, 102.7370
433.3540, 102.4141
433.8361, 102.4001
434.3182, 102.6244
434.8003, 102.5587
435.2824, 102.0653
435.7646, 101.4748
436.2467, 100.9253
436.7288, 100.3124
437.2109, 99.75648
437.6930, 99.30833
438.1751, 98.19144
438.6573, 94.97285
439.1394, 89.44359
439.6215, 84.79931
440.1036, 82.17887
440.5857, 79.74617
441.0678, 76.06625
441.5500, 71.47046
442.0321, 67.28440
442.5142, 64.37902
442.9963, 62.21132
443.4784, 59.67240
443.9605, 56.66639
444.4427, 54.04180
444.9248, 52.37838
445.4069, 51.31536
445.8890, 50.16861
446.3711, 48.79766
446.8532, 47.64735
447.3354, 47.23812
447.8175, 47.19884
448.2996, 46.61456
448.7817, 45.21389
449.2638, 43.70342
449.7459, 42.87212
450.2281, 42.77178
450.7102, 42.60468
451.1923, 42.31979
451.6744, 41.98043
452.1565, 41.55633
452.6386, 41.10291
453.1208, 40.77446
453.6029, 40.65362
454.0850, 40.69563
454.5671, 40.78155
455.0492, 41.30016
455.5313, 41.30159
456.0135, 40.25054
456.4956, 39.03178
456.9777, 38.35767
457.4598, 38.30661
457.9419, 38.51091
458.4240, 38.64074
458.9062, 38.69495
459.3883, 38.74572
459.8704, 38.87623
460.3525, 38.90263
460.8346, 38.81148
461.3167, 38.58475
461.7989, 38.13253
462.2810, 37.41276
462.7631, 36.68104
463.2452, 36.34752
463.7273, 36.46512
464.2094, 36.67804
464.6916, 37.16587
465.1737, 37.51820
465.6558, 37.45953
466.1379, 37.05291
466.6200, 36.55054
467.1021, 35.96545
467.5843, 35.42816
468.0664, 35.22675
468.5485, 35.38871
469.0306, 35.69334
469.5127, 36.13060
469.9948, 36.60542
470.4770, 36.98645
470.9591, 37.28450
471.4412, 37.43163
471.9233, 37.37700
472.4054, 37.15314
472.8875, 36.74249
473.3697, 36.12481
473.8518, 35.57951
474.3339, 35.31528
474.8160, 35.36155
475.2981, 35.76438
475.7802, 37.14419
476.2624, 38.21880
476.7445, 38.26228
477.2266, 37.61882
477.7087, 36.86089
478.1908, 36.20402
478.6729, 35.77558
479.1551, 35.85082
479.6372, 36.83799
480.1193, 37.36385
480.6014, 37.28046
481.0835, 36.93808
481.5656, 36.27757
482.0478, 35.51259
482.5299, 35.14299
483.0120, 35.56368
483.4941, 36.49823
483.9762, 36.84801
484.4583, 36.25285
484.9405, 35.80444
485.4226, 35.79803
485.9047, 35.95127
486.3868, 36.07104
486.8689, 36.12556
487.3510, 36.16682
487.8332, 36.24128
488.3153, 36.34029
488.7974, 36.45008
489.2795, 36.62662
489.7616, 36.67222
490.2437, 36.30681
490.7259, 35.76717
491.2080, 35.42682
491.6901, 35.44138
492.1722, 35.49075
492.6543, 35.18849
493.1364, 34.72951
493.6186, 34.78865
494.1007, 35.63966
494.5828, 36.60528
495.0649, 36.89684
495.5470, 36.44002
496.0291, 35.99592
496.5113, 35.50187
496.9934, 35.10524
497.4755, 34.91813
497.9576, 34.89703
498.4397, 34.92145
498.9218, 34.93064
499.4040, 34.97980
499.8861, 35.21491
500.3682, 35.91409
500.8503, 36.27110
501.3324, 36.18304
501.8145, 35.88571
502.2967, 35.37730
502.7788, 34.77350
503.2609, 34.34252
503.7430, 34.30416
504.2251, 34.53955
504.7072, 34.55877
505.1894, 34.20493
505.6715, 33.99672
506.1536, 34.08996
506.6357, 34.36079
507.1178, 34.83465
507.5999, 35.48366
508.0821, 35.95645
508.5642, 35.85107
509.0463, 35.37289
509.5284, 35.14601
510.0105, 35.24897
510.4926, 35.41994
510.9748, 35.58810
511.4569, 35.68227
511.9390, 35.52028
512.4211, 34.87667
512.9032, 34.37465
513.3853, 34.58929
513.8674, 35.07788
514.3495, 34.87252
514.8317, 33.75982
515.3138, 32.79638
515.7959, 33.17445
516.2780, 35.03507
516.7601, 36.10392
517.2422, 35.98528
517.7244, 35.66084
518.2065, 35.27090
518.6886, 34.94469
519.1707, 34.89241
519.6528, 35.17303
520.1349, 35.54348
520.6171, 35.55497
521.0992, 34.99891
521.5813, 34.94018
522.0634, 36.07349
522.5455, 37.02533
523.0276, 37.17250
523.5098, 36.79779
523.9919, 36.46264
524.4740, 36.41766
524.9561, 36.50389
525.4382, 36.42600
525.9203, 36.17707
526.4025, 36.25437
526.8846, 37.06405
527.3667, 37.84231
527.8488, 37.69690
528.3309, 36.78431
528.8130, 36.10740
529.2952, 36.07201
529.7773, 36.30882
530.2594, 36.69738
530.7415, 37.11779
531.2236, 36.97943
531.7057, 35.89600
532.1879, 34.48108
532.6700, 33.92695
533.1521, 34.62759
533.6342, 35.35716
534.1163, 36.04184
534.5984, 36.79308
535.0806, 37.76670
535.5627, 38.87642
536.0448, 39.91498
536.5269, 40.76440
537.0090, 41.39394
537.4911, 41.62133
537.9733, 41.05809
538.4554, 40.96286
538.9375, 41.80923
539.4196, 42.87255
539.9017, 43.72903
540.3839, 44.38808
540.8660, 45.09547
541.3481, 46.12019
541.8302, 47.23930
542.3123, 48.01008
542.7944, 48.44441
543.2766, 48.41150
543.7587, 47.71938
544.2408, 46.62193
544.7229, 45.43783
545.2050, 44.12893
545.6871, 43.05320
546.1693, 42.47312
546.6514, 42.10627
547.1335, 41.75041
547.6156, 41.34458
548.0977, 40.60509
548.5798, 39.24600
549.0620, 37.60929
549.5441, 36.85715
550.0262, 37.73085
550.5083, 38.55395
550.9904, 39.70898
551.4725, 40.51730
551.9547, 40.15691
552.4368, 38.88088
552.9189, 37.76220
553.4010, 37.62633
553.8831, 38.24239
554.3652, 38.71497
554.8474, 39.03657
555.3295, 39.22805
555.8116, 39.22904
556.2937, 39.14367
556.7758, 38.98230
557.2579, 38.76871
557.7401, 38.66486
558.2222, 38.84038
558.7043, 39.15717
559.1864, 39.38453
559.6685, 39.51467
560.1506, 39.58598
560.6328, 39.53489
561.1149, 39.51236
561.5970, 39.93221
562.0791, 40.97499
562.5612, 41.78508
563.0433, 42.04412
563.5255, 42.12862
564.0076, 42.25633
564.4897, 42.49560
564.9718, 42.99071
565.4539, 43.87281
565.9360, 44.95166
566.4182, 45.54509
566.9003, 45.26364
567.3824, 45.23800
567.8645, 45.54018
568.3466, 46.09336
568.8287, 46.86828
569.3109, 47.85602
569.7930, 49.05655
570.2751, 50.59083
570.7572, 52.22335
571.2393, 53.28276
571.7214, 53.67823
572.2036, 54.59404
572.6857, 56.70337
573.1678, 59.15458
573.6499, 60.74394
574.1320, 61.49121
574.6141, 62.90503
575.0963, 65.87553
575.5784, 69.29024
576.0605, 72.34599
576.5426, 75.01758
577.0247, 77.27869
577.5068, 79.04289
577.9890, 80.80981
578.4711, 83.56963
578.9532, 87.87284
579.4353, 91.78578
579.9174, 94.92716
580.3995, 98.11461
580.8817, 101.9446
581.3638, 106.0677
581.8459, 109.7640
582.3280, 112.6875
582.8101, 115.1405
583.2922, 117.9492
583.7744, 121.2408
584.2565, 122.7652
584.7386, 121.3529
585.2207, 119.3470
585.7029, 118.4478
586.1850, 118.2644
586.6671, 117.8201
587.1492, 116.9034
587.6313, 115.6255
588.1135, 113.9532
588.5956, 111.9918
589.0777, 109.9435
589.5598, 107.8587
590.0419, 105.7970
590.5240, 103.7492
591.0062, 101.6905
591.4883, 100.4234
591.9704, 100.5305
592.4525, 100.6206
592.9346, 100.0775
593.4167, 99.47762
593.8989, 99.43684
594.3810, 100.1132
594.8631, 101.3371
595.3452, 102.9977
595.8273, 105.0749
596.3094, 107.2933
596.7916, 109.4548
597.2737, 112.2296
597.7558, 116.3175
598.2379, 120.9986
598.7200, 125.5204
599.2021, 129.7648
599.6843, 134.2319
600.1664, 139.2733
600.6485, 144.6626
601.1306, 150.2837
601.6127, 156.0354
602.0948, 161.3810
602.5770, 165.9318
603.0591, 169.9944
603.5412, 174.4567
604.0233, 180.5865
604.5054, 184.9346
604.9875, 186.7545
605.4697, 187.4955
605.9518, 188.0747
606.4339, 188.3605
606.9160, 187.8418
607.3981, 186.2871
607.8802, 183.5620
608.3624, 179.0855
608.8445, 172.6225
609.3266, 166.3580
609.8087, 160.8423
610.2908, 155.3321
610.7729, 149.1504
611.2551, 142.5107
611.7372, 136.0057
612.2193, 129.8536
612.7014, 123.7933
613.1835, 117.3636
613.6656, 110.9262
614.1478, 105.3999
614.6299, 101.0271
615.1120, 96.99533
615.5941, 92.45837
616.0762, 87.40358
616.5583, 82.91472
617.0405, 78.90186
617.5226, 75.54697
618.0047, 73.37949
618.4868, 71.56398
618.9689, 69.15958
619.4510, 66.12586
619.9332, 63.32699
620.4153, 61.63186
620.8974, 60.71764
621.3795, 59.39519
621.8616, 57.55515
622.3438, 55.89146
622.8259, 54.67594
623.3080, 53.75801
623.7901, 53.07207
624.2722, 52.65583
624.7543, 51.78597
625.2365, 49.61674
625.7186, 47.45951
626.2007, 46.55510
626.6828, 46.58659
627.1649, 46.60573
627.6470, 46.21529
628.1292, 45.55091
628.6113, 44.78186
629.0934, 43.80774
629.5755, 43.14425
630.0576, 43.20502
630.5397, 43.14097
631.0219, 42.51660
631.5040, 41.69094
631.9861, 41.22925
632.4682, 41.30690
632.9503, 41.39471
633.4324, 40.87572
633.9146, 39.97761
634.3967, 39.51640
634.8788, 39.61278
635.3609, 39.58858
635.8430, 38.92202
636.3251, 37.92731
636.8073, 37.58385
637.2894, 38.25447
637.7715, 38.60352
638.2536, 38.29883
638.7357, 37.70929
639.2178, 36.95164
639.7000, 36.15784
640.1821, 35.59311
640.6642, 35.41125
641.1463, 35.42858
641.6284, 35.25483
642.1105, 34.83866
642.5927, 34.50796
643.0748, 34.30653
643.5569, 34.17965
644.0390, 34.14057
644.5211, 34.13859
645.0032, 34.07003
645.4854, 33.90042
645.9675, 33.68581
646.4496, 33.44794
646.9317, 33.19464
647.4138, 32.92499
647.8959, 32.64305
648.3781, 32.41089
648.8602, 32.28961
649.3423, 32.24327
649.8244, 32.10193
650.3065, 31.65984
650.7886, 31.43737
651.2708, 31.58327
651.7529, 31.82953
652.2350, 32.02442
652.7171, 32.16361
653.1992, 32.30087
653.6813, 32.47479
654.1635, 32.63617
654.6456, 32.69812
655.1277, 32.66792
655.6098, 32.63321
656.0919, 32.60216
656.5740, 32.59087
657.0562, 32.59584
657.5383, 32.63124
658.0204, 32.76184
658.5025, 33.29424
658.9846, 33.53702
659.4667, 33.02556
659.9489, 32.28658
660.4310, 31.86335
660.9131, 31.80829
661.3952, 31.88540
661.8773, 31.93554
662.3594, 31.95676
662.8416, 31.95538
663.3237, 31.95447
663.8058, 31.82917
664.2879, 31.29243
664.7700, 30.90754
665.2521, 31.32531
665.7343, 32.24832
666.2164, 32.62926
666.6985, 31.71294
667.1806, 30.79000
667.6627, 30.88187
668.1448, 31.58463
668.6270, 32.23177
669.1091, 32.65932
669.5912, 32.76722
670.0733, 32.41341
670.5554, 31.68115
671.0375, 31.15684
671.5197, 30.84095
672.0018, 30.75225
672.4839, 31.24384
672.9660, 31.64662
673.4481, 31.30482
673.9302, 30.43702
674.4124, 29.86041
674.8945, 30.04861
675.3766, 30.61905
675.8587, 31.32010
676.3408, 32.03641
676.8229, 32.11376
677.3051, 31.32517
677.7872, 30.43963
678.2693, 30.11637
678.7514, 30.31860
679.2335, 30.63363
679.7156, 31.27372
680.1978, 31.73295
680.6799, 31.84494
681.1620, 31.82218
681.6441, 31.72952
682.1262, 31.65927
682.6083, 31.89076
683.0905, 32.74982
683.5726, 33.65692
684.0547, 33.19299
684.5368, 31.36362
685.0189, 30.48658
685.5010, 31.34202
685.9832, 32.45525
686.4653, 32.52094
686.9474, 31.76512
687.4295, 31.40596
687.9116, 31.76107
688.3937, 32.11980
688.8759, 32.46678
689.3580, 32.59505
689.8401, 32.02701
690.3222, 30.96145
690.8043, 30.30138
691.2864, 30.68918
691.7686, 31.64858
692.2507, 32.01572
692.7328, 31.69987
693.2149, 31.35812
693.6970, 31.02543
694.1791, 30.75727
694.6613, 30.56853
695.1434, 30.47285
695.6255, 30.51880
696.1076, 30.75993
696.5897, 31.04862
697.0718, 31.41112
697.5540, 31.73074
698.0361, 31.80420
698.5182, 31.66938
699.0003, 31.59197
699.4824, 31.74439
699.9645, 32.00435
700.4467, 32.02507
700.9288, 31.66285
701.4109, 31.60927
701.8930, 32.16187
702.3751, 32.71404
702.8572, 32.91267
703.3394, 32.92724
703.8215, 33.09742
704.3036, 33.58228
704.7857, 33.84709
705.2678, 33.34953
705.7499, 32.57439
706.2321, 32.15464
706.7142, 32.11383
707.1963, 32.25154
707.6784, 32.47636
708.1605, 32.74314
708.6426, 32.97976
709.1248, 33.22574
709.6069, 33.30243
710.0890, 33.23920
710.5711, 32.95700
711.0532, 32.02596
711.5353, 31.05103
712.0175, 30.99475
712.4996, 32.08752
712.9817, 32.99617
713.4638, 32.47312
713.9459, 31.52569
714.4280, 31.71548
714.9102, 32.87551
715.3923, 33.88299
715.8744, 34.26702
716.3565, 34.24821
716.8386, 34.08445
717.3207, 33.69740
717.8029, 33.74171
718.2850, 34.80155
718.7671, 35.56744
719.2492, 35.61731
719.7313, 35.32158
720.2134, 34.93223
720.6956, 34.53138
721.1777, 34.34743
721.6598, 34.66338
722.1419, 35.16822
722.6240, 35.46184
723.1061, 35.59007
723.5883, 35.73188
724.0704, 35.93911
724.5525, 36.20666
725.0346, 36.58186
725.5167, 37.05007
725.9988, 37.09466
726.4810, 36.22114
726.9631, 35.63525
727.4452, 35.50722
727.9273, 35.67945
728.4094, 36.28365
728.8915, 37.11210
729.3737, 37.48244
729.8558, 36.88401
730.3379, 36.04002
730.8200, 35.66167
731.3021, 35.65713
731.7842, 35.80667
732.2664, 36.06816
732.7485, 36.40319
733.2306, 36.80910
733.7127, 37.23402
734.1948, 37.46143
734.6769, 37.31737
735.1591, 37.29264
735.6412, 37.50596
736.1233, 37.72630
736.6054, 37.80111
737.0875, 37.80696
737.5696, 37.92560
738.0518, 38.24339
738.5339, 38.50090
739.0160, 38.44509
739.4981, 38.20694
739.9802, 37.97276
740.4623, 37.77501
740.9445, 37.73591
741.4266, 37.93388
741.9087, 38.24216
742.3908, 38.42013
742.8729, 38.40485
743.3550, 38.53833
743.8372, 39.17828
744.3193, 39.52961
744.8014, 39.14246
745.2835, 38.49928
745.7656, 38.11436
746.2477, 38.05839
746.7299, 38.10446
747.2120, 38.14979
747.6941, 38.21557
748.1762, 38.25758
748.6583, 38.33876
749.1404, 38.75667
749.6226, 39.58589
750.1047, 40.30563
750.5868, 40.31671
751.0689, 39.71746
751.5510, 39.62117
752.0331, 40.39618
752.5153, 40.96572
752.9974, 41.07048
753.4795, 40.99565
753.9616, 40.79640
754.4437, 40.55845
754.9258, 40.54265
755.4080, 41.02673
755.8901, 41.36167
756.3722, 40.80572
756.8543, 39.96575
757.3364, 39.72847
757.8185, 40.16351
758.3007, 41.03698
758.7828, 42.26422
759.2649, 43.49828
759.7470, 43.90301
760.2291, 43.24974
760.7112, 42.88348
761.1934, 42.91843
761.6755, 43.11125
762.1576, 43.44973
762.6397, 43.83292
763.1218, 44.15954
763.6039, 44.43388
764.0861, 44.54563
764.5682, 44.30003
765.0503, 44.02267
765.5324, 43.79885
766.0145, 43.77955
766.4966, 44.41645
766.9788, 45.74553
767.4609, 46.96161
767.9430, 47.19773
768.4251, 46.64350
768.9072, 46.17144
769.3893, 45.71577
769.8715, 45.71986
770.3536, 46.44993
770.8357, 47.45408
771.3178, 48.47576
771.7999, 49.44776
772.2820, 50.01249
772.7642, 49.98731
773.2463, 49.77112
773.7284, 49.18435
774.2105, 48.67303
774.6926, 48.69686
775.1747, 49.16217
775.6569, 49.72681
776.1390, 50.23681
776.6211, 50.62058
777.1032, 50.69064
777.5853, 50.52307
778.0674, 50.57019
778.5496, 50.88009
779.0317, 51.25934
779.5138, 51.61446
779.9959, 51.98675
780.4780, 52.45356
780.9601, 53.04005
781.4423, 53.62785
781.9244, 54.50196
782.4065, 55.03425
782.8886, 54.59634
783.3707, 53.97834
783.8528, 54.14887
784.3350, 55.12458
784.8171, 56.01703
785.2992, 56.15866
785.7813, 56.08435
786.2634, 56.40524
786.7455, 57.09662
787.2277, 58.27329
787.7098, 59.93624
788.1919, 61.22412
788.6740, 61.35032
789.1561, 60.72766
789.6382, 60.95515
790.1204, 62.69062
790.6025, 63.66830
791.0846, 62.80951
791.5667, 62.24356
792.0488, 63.12310
792.5309, 64.80119
793.0131, 66.23560
793.4952, 67.20851
793.9773, 68.30755
794.4594, 70.06042
794.9415, 71.84727
795.4236, 72.91224
795.9058, 73.56352
796.3879, 74.58780
796.8700, 76.21619
797.3521, 78.09329
797.8342, 79.90703
798.3163, 81.64063
798.7985, 83.10030
799.2806, 84.16396
799.7627, 85.67809
800.2448, 87.90096
800.7269, 90.53755
801.2090, 93.50103
801.6912, 96.70316
802.1733, 99.69801
802.6554, 102.2030
803.1375, 104.9517
803.6196, 107.8284
804.1017, 111.2063
804.5839, 115.4370
805.0660, 120.3576
805.5481, 125.5629
806.0302, 130.9270
806.5123, 136.5736
806.9944, 142.4870
807.4766, 148.8112
807.9587, 156.0226
808.4408, 164.0855
808.9229, 172.5048
809.4050, 181.0245
809.8871, 190.0522
810.3693, 200.0812
810.8514, 211.1180
811.3335, 223.0779
811.8156, 235.7141
812.2977, 249.7774
812.7798, 264.6550
813.2620, 281.6143
813.7441, 301.5125
814.2262, 324.1173
814.7083, 348.6484
815.1904, 374.3730
815.6725, 403.3905
816.1547, 436.9410
816.6368, 474.5528
817.1189, 515.3766
817.6010, 559.8713
818.0831, 609.6471
818.5652, 665.3409
819.0474, 724.1099
819.5295, 782.7979
820.0116, 841.3171
820.4937, 899.4919
820.9758, 957.8977
821.4579, 1013.391
821.9401, 1068.260
822.4222, 1114.293
822.9043, 1144.653
823.3864, 1158.789
823.8685, 1154.657
824.3506, 1126.977
824.8328, 1089.549
825.3149, 1041.872
825.7970, 987.4030
826.2791, 924.4569
826.7612, 857.1647
827.2433, 793.2780
827.7255, 735.2479
828.2076, 681.5511
828.6897, 630.2150
829.1718, 582.5998
829.6539, 541.2859
830.1360, 506.0008
830.6182, 474.5905
831.1003, 446.3571
831.5824, 421.7529
832.0645, 401.7640
832.5466, 386.0240
833.0287, 371.3770
833.5109, 357.6435
833.9930, 345.7052
834.4751, 335.9843
834.9572, 327.8916
835.4393, 321.2254
835.9214, 315.8838
836.4036, 311.6483
836.8857, 308.4879
837.3678, 306.5040
837.8499, 306.1464
838.3320, 306.5946
838.8141, 307.0145
839.2963, 307.8747
839.7784, 309.8976
840.2605, 313.3692
840.7426, 318.6678
841.2247, 326.6205
841.7068, 336.4295
842.1890, 346.1406
842.6711, 356.1689
843.1532, 368.4384
843.6353, 383.4839
844.1174, 400.7846
844.5995, 419.6566
845.0817, 440.5218
845.5638, 464.5567
846.0459, 491.7191
846.5280, 521.9720
847.0101, 553.8192
847.4922, 590.5635
847.9744, 634.5013
848.4565, 684.0134
848.9386, 736.7784
849.4207, 792.3199
849.9028, 852.6608
850.3849, 918.6105
850.8671, 988.9645
851.3492, 1066.220
851.8313, 1145.644
852.3134, 1223.102
852.7955, 1296.514
853.2776, 1365.101
853.7598, 1429.950
854.2419, 1485.957
854.7240, 1527.208
855.2061, 1553.503
855.6882, 1563.581
856.1703, 1557.285
856.6525, 1532.497
857.1346, 1487.399
857.6167, 1425.934
858.0988, 1355.320
858.5809, 1274.480
859.0630, 1191.150
859.5452, 1101.928
860.0273, 1016.379
860.5094, 937.0096
860.9915, 863.3232
861.4736, 795.0544
861.9557, 732.2637
862.4379, 674.4420
862.9200, 621.8242
863.4021, 573.9797
863.8842, 531.5688
864.3663, 493.5265
864.8484, 459.2100
865.3306, 428.4039
865.8127, 400.4697
866.2948, 375.3445
866.7769, 352.6700
867.2590, 332.8170
867.7411, 315.1720
868.2233, 298.7787
868.7054, 283.5970
869.1875, 269.5408
869.6696, 256.5477
870.1517, 244.8314
870.6339, 234.6581
871.1160, 225.9412
871.5981, 218.2419
872.0802, 211.3563
872.5623, 206.1987
873.0444, 203.4279
873.5266, 201.4851
874.0087, 199.4430
874.4908, 197.7286
874.9729, 196.9993
875.4550, 197.1963
875.9371, 198.7124
876.4193, 201.9130
876.9014, 206.0674
877.3835, 210.8000
877.8656, 216.3486
878.3477, 223.3014
878.8298, 231.4012
879.3120, 239.8207
879.7941, 248.5911
880.2762, 256.2522
880.7583, 262.0690
881.2404, 265.4449
881.7225, 265.2557
882.2047, 261.5502
882.6868, 254.8649
883.1689, 245.4197
883.6510, 233.7130
884.1331, 219.9646
884.6152, 204.4328
885.0974, 189.2759
885.5795, 174.4714
886.0616, 160.6004
886.5437, 147.7500
887.0258, 135.9941
887.5079, 125.3372
887.9901, 115.8375
888.4722, 107.6680
888.9543, 101.0884
889.4364, 95.33881
889.9185, 90.61147
890.4006, 86.50034
890.8828, 82.84441
891.3649, 79.70226
891.8470, 77.37583
892.3291, 75.80442
892.8112, 73.88599
893.2933, 70.58598
893.7755, 67.48057
894.2576, 65.74390
894.7397, 64.64720
895.2218, 63.35842
895.7039, 61.80596
896.1860, 60.19982
896.6682, 58.61752
897.1503, 57.20262
897.6324, 56.08876
898.1145, 55.27757
898.5966, 54.85698
899.0787, 54.78577
899.5609, 54.69670
900.0430, 54.48670
900.5251, 54.01427
901.0072, 53.05548
901.4893, 51.80307
901.9714, 51.29180
902.4536, 51.81927
902.9357, 51.98526
903.4178, 51.53542
903.8999, 50.95168
904.3820, 50.43924
904.8641, 49.97572
905.3463, 49.50867
905.8284, 49.02837
906.3105, 48.64305
906.7926, 48.14007
907.2747, 48.01909
907.7568, 48.74495
908.2390, 49.66178
908.7211, 50.23334
909.2032, 50.48024
909.6853, 50.56359
910.1674, 50.37485
910.6495, 50.70994
911.1317, 52.59241
911.6138, 54.89820
912.0959, 56.08867
912.5780, 56.68349
913.0601, 58.09975
913.5422, 60.68666
914.0244, 63.66242
914.5065, 66.37663
914.9886, 69.01043
915.4707, 72.06088
915.9528, 75.43356
916.4349, 78.61340
916.9171, 81.51339
917.3992, 84.23535
917.8813, 86.93741
918.3634, 89.09693
918.8455, 89.90446
919.3276, 89.35859
919.8098, 87.32744
920.2919, 83.35477
920.7740, 79.03388
921.2561, 74.65159
921.7382, 70.11494
922.2203, 65.05294
922.7025, 59.74883
923.1846, 55.20852
923.6667, 51.30310
924.1488, 48.39772
924.6309, 47.20160
925.1130, 46.24193
925.5952, 44.77881
926.0773, 43.20726
926.5594, 42.05657
927.0415, 41.36469
927.5236, 40.79652
928.0057, 40.23047
928.4879, 39.72143
928.9700, 39.44392
929.4521, 39.14585
929.9342, 38.37064
930.4163, 37.31883
930.8984, 36.65089
931.3806, 36.59649
931.8627, 36.58559
932.3448, 35.80888
932.8269, 34.81372
933.3090, 34.88354
933.7911, 35.77649
934.2733, 36.51941
934.7554, 36.91097
935.2375, 37.02254
935.7196, 36.86482
936.2017, 36.63965
936.6838, 36.89833
937.1660, 36.67228
937.6481, 37.73353
938.1302, 36.75541
938.6123, 36.18781
939.0944, 36.66341
939.5765, 37.37060
940.0587, 37.43499
940.5408, 36.98647
941.0229, 36.96947
941.5050, 37.63979
941.9871, 38.27236
942.4692, 38.94993
942.9514, 39.46558
943.4335, 39.59316
943.9156, 39.59026
944.3977, 39.64013
944.8798, 39.77091
945.3619, 40.52219
945.8441, 42.79028
946.3262, 44.67028
946.8083, 45.23793
947.2904, 45.35603
947.7725, 45.55314
948.2546, 45.96299
948.7368, 46.70288
949.2189, 47.81495
949.7010, 49.07233
950.1831, 50.42699
950.6652, 51.78105
951.1473, 52.92075
951.6295, 54.04226
952.1116, 55.49995
952.5937, 57.31963
953.0758, 59.19986
953.5579, 60.93935
954.0400, 63.01840
954.5222, 66.53184
955.0043, 70.82191
955.4864, 73.78256
955.9685, 75.52622
956.4506, 77.54192
956.9327, 80.27320
957.4149, 83.22965
957.8970, 85.97388
958.3791, 88.66287
958.8612, 92.03570
959.3433, 96.19218
959.8254, 99.34971
960.3076, 101.2548
960.7897, 102.7786
961.2718, 104.3052
961.7539, 105.5770
962.2360, 106.2729
962.7181, 106.3996
963.2003, 106.0535
963.6824, 105.1066
964.1645, 103.9469
964.6466, 102.5471
965.1287, 101.0222
965.6108, 99.67806
966.0930, 98.13779
966.5751, 95.67973
967.0572, 92.18803
967.5393, 88.97635
968.0214, 86.70635
968.5035, 84.03621
968.9857, 79.99357
969.4678, 75.96220
969.9499, 73.01937
970.4320, 70.90260
970.9141, 68.88042
971.3962, 66.82432
971.8784, 64.60211
972.3605, 61.94573
972.8426, 59.35103
973.3247, 57.18089
973.8068, 55.26943
974.2889, 53.36980
974.7711, 51.48453
975.2532, 49.71808
975.7353, 48.10268
976.2174, 46.72979
976.6995, 45.74261
977.1816, 45.00611
977.6638, 44.40719
978.1459, 43.88306
978.6280, 43.41874
979.1101, 42.93803
979.5922, 42.02226
980.0743, 40.29352
980.5565, 38.38144
981.0386, 37.30500
981.5207, 36.91901
982.0028, 36.87225
982.4849, 37.07818
982.9670, 37.00348
983.4492, 36.46686
983.9313, 35.76741
984.4134, 35.16414
984.8955, 34.66026
985.3776, 34.26277
985.8597, 33.97184
986.3419, 33.80352
986.8240, 33.78133
987.3061, 33.74106
987.7882, 33.62322
988.2703, 33.42311
988.7524, 33.13143
989.2346, 32.74964
989.7167, 32.28952
990.1988, 31.65034
990.6809, 31.24911
991.1630, 31.23071
991.6451, 31.25022
992.1273, 31.11938
992.6094, 30.94419
993.0915, 30.88614
993.5736, 30.95141
994.0557, 31.01753
994.5378, 31.18970
995.0200, 31.20477
995.5021, 30.92605
995.9842, 30.60428
996.4663, 30.32772
996.9484, 30.11472
997.4305, 29.94522
997.9127, 29.80053
998.3948, 29.95216
998.8769, 30.96618
999.3590, 31.58538
999.8411, 31.25832
1000.323, 30.54789
1000.805, 29.74577
1001.287, 28.94659
1001.770, 28.16754
1002.252, 27.38546
1002.734, 27.13166
1003.216, 28.18530
1003.698, 29.17989
1004.180, 29.16801
1004.662, 28.78551
1005.144, 28.81956
1005.627, 29.11751
1006.109, 28.95592
1006.591, 28.05639
1007.073, 27.27331
1007.555, 27.28147
1008.037, 27.60374
1008.519, 27.94798
1009.001, 28.20789
1009.483, 28.12243
1009.966, 27.79228
1010.448, 27.74488
1010.930, 28.25245
1011.412, 28.57365
1011.894, 27.59190
1012.376, 26.20592
1012.858, 25.86837
1013.340, 26.27141
1013.823, 26.59023
1014.305, 26.68714
1014.787, 26.79686
1015.269, 27.04796
1015.751, 27.43757
1016.233, 28.11574
1016.715, 28.88480
1017.197, 29.21299
1017.679, 29.11342
1018.162, 28.61625
1018.644, 27.75760
1019.126, 26.77772
1019.608, 25.80091
1020.090, 25.08725
1020.572, 25.28259
1021.054, 26.21410
1021.536, 26.60587
1022.018, 26.46702
1022.501, 26.33613
1022.983, 26.34100
1023.465, 26.44846
1023.947, 26.65890
1024.429, 26.86469
1024.911, 26.80739
1025.393, 26.47964
1025.875, 26.17484
1026.358, 25.85738
1026.840, 25.94096
1027.322, 26.64474
1027.804, 27.24508
1028.286, 27.13816
1028.768, 26.61122
1029.250, 26.41292
1029.732, 26.61871
1030.214, 26.53921
1030.697, 26.04476
1031.179, 25.74827
1031.661, 25.93629
1032.143, 26.03736
1032.625, 25.45667
1033.107, 25.76207
1033.589, 25.88937
1034.071, 25.73433
1034.553, 25.87238
1035.036, 26.08641
1035.518, 25.83776
1036.000, 25.78633
1036.482, 25.79725
1036.964, 25.75139
1037.446, 25.69360
1037.928, 25.78882
1038.410, 26.18438
1038.893, 26.20852
1039.375, 25.59248
1039.857, 25.03241
1040.339, 24.68600
1040.821, 24.45379
1041.303, 24.27690
1041.785, 24.15438
1042.267, 24.05664
1042.750, 23.88273
1043.232, 24.06634
1043.714, 25.20158
1044.196, 25.89460
1044.678, 25.52264
1045.160, 24.88694
1045.642, 24.37634
1046.124, 24.09028
1046.606, 24.30649
1047.089, 25.22143
1047.571, 25.85765
1048.053, 26.10111
1048.535, 26.07004
1049.017, 25.69890
1049.499, 25.15437
1049.981, 24.25761
1050.463, 23.36335
1050.945, 23.36818
1051.428, 24.57731
1051.910, 25.32186
1052.392, 25.04708
1052.874, 24.58847
1053.356, 23.99280
1053.838, 23.51698
1054.320, 23.47618
1054.802, 23.66015
1055.285, 23.59081
1055.767, 23.16561
1056.249, 22.91673
1056.731, 22.91916
1057.213, 23.20687
1057.695, 24.27909
1058.177, 25.17798
1058.659, 24.88308
1059.141, 23.97878
1059.624, 23.63857
1060.106, 24.06506
1060.588, 24.51017
1061.070, 24.97508
1061.552, 25.09699
1062.034, 24.39632
1062.516, 23.61968
1062.998, 23.31281
1063.480, 23.36411
1063.963, 23.65845
1064.445, 24.12859
1064.927, 24.18753
1065.409, 23.15673
1065.891, 22.30277
1066.373, 22.18517
1066.855, 22.39904
1067.337, 22.90722
1067.820, 23.39477
1068.302, 23.28501
1068.784, 22.59564
1069.266, 22.22933
1069.748, 22.86336
1070.230, 23.29041
1070.712, 22.63541
1071.194, 21.92245
1071.677, 22.01643
1072.159, 22.49673
1072.641, 22.73725
1073.123, 22.66537
1073.605, 22.47133
1074.087, 22.08922
1074.569, 21.92058
1075.051, 22.48729
1075.533, 22.98067
1076.016, 22.66222
1076.498, 22.02136
1076.980, 21.62316
1077.462, 21.56210
1077.944, 21.84556
1078.426, 22.60069
1078.908, 23.24955
1079.390, 23.54327
1079.873, 23.62343
1080.355, 23.57271
1080.837, 23.36404
1081.319, 22.85984
1081.801, 22.17064
1082.283, 21.59298
1082.765, 21.19078
1083.247, 21.04670
1083.729, 21.39162
1084.212, 21.77303
1084.694, 21.89165
1085.176, 21.94476
1085.658, 22.13720
1086.140, 22.44382
1086.622, 22.80870
1087.104, 23.23080
1087.586, 23.40601
1088.068, 22.91083
1088.551, 22.51569
1089.033, 22.93529
1089.515, 23.31806
1089.997, 22.62703
1090.479, 21.44531
1090.961, 20.97210
1091.443, 21.39833
1091.925, 21.92977
1092.408, 22.49578
1092.890, 22.80227
1093.372, 22.48742
1093.854, 22.12191
1094.336, 22.26978
1094.818, 22.55522
1095.300, 22.20908
1095.782, 21.29244
1096.265, 20.94873
1096.747, 21.91446
1097.229, 22.69761
1097.711, 22.73880
1098.193, 22.52728
1098.675, 22.16425
1099.157, 21.83724
1099.639, 21.74564
1100.121, 21.87418
1100.604, 22.11338
1101.086, 22.55499
1101.568, 22.74650
1102.050, 22.32364
1102.532, 21.93452
1103.014, 21.74138
1103.496, 21.80854
1103.978, 22.42372
1104.460, 23.29172
1104.943, 23.63796
1105.425, 23.25720
1105.907, 22.93971
1106.389, 22.75184
1106.871, 22.74867
1107.353, 23.08745
1107.835, 23.47433
1108.317, 23.76281
1108.800, 23.93738
1109.282, 23.94021
1109.764, 23.75873
1110.246, 23.68573
1110.728, 24.04304
1111.210, 24.06561
1111.692, 23.34405
1112.174, 22.62177
1112.656, 22.11413
1113.139, 21.88954
1113.621, 22.14435
1114.103, 22.82098
1114.585, 23.30699
1115.067, 23.42357
1115.549, 23.66720
1116.031, 24.38602
1116.513, 24.72414
1116.995, 24.09128
1117.478, 23.32147
1117.960, 23.21739
1118.442, 23.53608
1118.924, 23.47409
1119.406, 22.88578
1119.888, 22.49125
1120.370, 22.32575
1120.852, 22.29016
1121.335, 22.42920
1121.817, 22.58213
1122.299, 22.65656
1122.781, 22.66364
1123.263, 22.60382
1123.745, 22.47375
1124.227, 22.47259
1124.709, 22.64954
1125.192, 22.79827
1125.674, 22.94245
1126.156, 22.87016
1126.638, 22.38765
1127.120, 21.87971
1127.602, 21.79824
1128.084, 22.08860
1128.566, 22.57911
1129.048, 23.35054
1129.531, 23.48765
1130.013, 22.83633
1130.495, 22.43631
1130.977, 22.64993
1131.459, 22.95693
1131.941, 22.93975
1132.423, 22.71664
1132.905, 22.56916
1133.387, 22.47870
1133.870, 21.99389
1134.352, 21.14708
1134.834, 20.99084
1135.316, 21.71875
1135.798, 22.54809
1136.280, 23.06786
1136.762, 23.25263
1137.244, 22.96514
1137.727, 22.41741
1138.209, 22.17890
1138.691, 22.25340
1139.173, 22.84132
1139.655, 23.82510
1140.137, 24.48427
1140.619, 24.56647
1141.101, 24.19239
1141.583, 23.31263
1142.066, 22.53218
1142.548, 23.09254
1143.030, 24.26879
1143.512, 24.55773
1143.994, 24.17058
1144.476, 23.85988
1144.958, 23.76047
1145.440, 23.58613
1145.922, 23.17348
1146.405, 22.93820
1146.887, 23.56840
1147.369, 24.29618
1147.851, 24.07551
1148.333, 23.48678
1148.815, 23.42543
1149.297, 23.78896
1149.779, 24.12403
1150.262, 24.27257
1150.744, 24.09396
1151.226, 23.24933
1151.708, 22.48533
1152.190, 22.30124
1152.672, 22.38502
1153.154, 22.53116
1153.636, 22.73403
1154.119, 23.04816
1154.601, 23.44681
1155.083, 23.83981
1155.565, 24.29707
1156.047, 24.41092
1156.529, 23.70673
1157.011, 23.06998
1157.493, 22.87390
1157.975, 22.91839
1158.458, 23.13096
1158.940, 23.41524
1159.422, 23.62659
1159.904, 23.75628
1160.386, 23.74560
1160.868, 23.36742
1161.350, 23.19137
1161.832, 23.39516
1162.314, 23.66342
1162.797, 24.04064
1163.279, 24.24066
1163.761, 23.78367
1164.243, 22.89984
1164.725, 22.72769
1165.207, 23.58199
1165.689, 24.03177
1166.171, 23.96173
1166.654, 23.81547
1167.136, 23.66000
1167.618, 23.58154
1168.100, 23.68216
1168.582, 23.78625
1169.064, 23.58021
1169.546, 23.09857
1170.028, 22.57291
1170.510, 21.99141
1170.993, 21.98062
1171.475, 22.61699
1171.957, 23.13062
1172.439, 23.23722
1172.921, 23.01599
1173.403, 22.48319
1173.885, 21.88303
1174.367, 21.67849
1174.849, 21.81899
1175.332, 22.22095
1175.814, 22.81014
1176.296, 23.40228
1176.778, 23.91719
1177.260, 24.12726
1177.742, 23.92621
1178.224, 23.66630
1178.706, 23.81684
1179.189, 23.94534
1179.671, 23.28391
1180.153, 22.38205
1180.635, 22.04923
1181.117, 22.17065
1181.599, 22.42575
1182.081, 22.68283
1182.563, 22.74483
1183.046, 22.44245
1183.528, 22.18893
1184.010, 22.14375
1184.492, 22.32774
1184.974, 23.01419
1185.456, 23.72218
1185.938, 23.95112
1186.420, 23.79158
1186.902, 23.48594
1187.385, 23.05649
1187.867, 22.88495
1188.349, 23.39128
1188.831, 23.63811
1189.313, 23.13772
1189.795, 22.71746
1190.277, 22.81226
1190.759, 23.15286
1191.241, 23.63290
1191.724, 24.11536
1192.206, 24.03613
1192.688, 23.24926
1193.170, 22.48262
1193.652, 21.62528
1194.134, 21.16455
1194.616, 21.27261
1195.098, 21.55177
1195.581, 21.81056
1196.063, 22.02529
1196.545, 22.15462
1197.027, 22.22228
1197.509, 22.28388
1197.991, 22.35637
1198.473, 22.84290
1198.955, 23.70372
1199.438, 24.08797
1199.920, 23.77583
1200.402, 23.09567
1200.884, 22.22813
1201.366, 21.52638
1201.848, 21.57766
1202.330, 22.03729
1202.812, 22.34377
1203.294, 22.50917
1203.776, 22.52050
1204.259, 22.42800
1204.741, 22.29803
1205.223, 22.18431
1205.705, 22.32030
1206.187, 23.01703
1206.669, 23.52585
1207.151, 22.97955
1207.633, 22.42196
1208.116, 22.84606
1208.598, 23.59052
1209.080, 23.91147
1209.562, 23.83877
1210.044, 23.61553
1210.526, 23.25898
1211.008, 23.10443
1211.490, 23.56446
1211.973, 23.70048
1212.455, 22.97584
1212.937, 22.34616
1213.419, 22.22388
1213.901, 22.38397
1214.383, 22.65689
1214.865, 23.01474
1215.347, 23.40040
1215.829, 23.87836
1216.312, 23.86801
1216.794, 23.21742
1217.276, 22.83126
1217.758, 22.86413
1218.240, 23.27818
1218.722, 24.13312
1219.204, 24.80203
1219.686, 24.52234
1220.168, 23.68647
1220.651, 23.27723
1221.133, 23.19146
1221.615, 22.99097
1222.097, 22.71688
1222.579, 22.62314
1223.061, 22.74679
1223.543, 23.01424
1224.025, 23.38854
1224.508, 23.68541
1224.990, 23.70703
1225.472, 23.61843
1225.954, 23.56930
1226.436, 23.51340
1226.918, 23.31809
1227.400, 23.12079
1227.882, 23.23225
1228.365, 23.58997
1228.847, 23.71732
1229.329, 23.39208
1229.811, 23.21701
1230.293, 23.43067
1230.775, 23.72042
1231.257, 24.25836
1231.739, 24.54220
1232.221, 24.02896
1232.703, 23.23614
1233.186, 22.77252
1233.668, 22.62495
1234.150, 22.74155
1234.632, 23.23932
1235.114, 23.52545
1235.596, 23.55461
1236.078, 23.55902
1236.560, 23.58549
1237.043, 23.68425
1237.525, 23.92494
1238.007, 23.92875
1238.489, 23.01601
1238.971, 21.78108
1239.453, 22.06542
1239.935, 23.37405
1240.417, 24.23318
1240.900, 24.52059
1241.382, 23.99441
1241.864, 22.84681
1242.346, 22.20370
1242.828, 22.62719
1243.310, 23.21720
1243.792, 23.41000
1244.274, 23.29539
1244.756, 22.65967
1245.239, 22.02590
1245.721, 22.02719
1246.203, 22.29923
1246.685, 22.22092
1247.167, 21.80079
1247.649, 21.43906
1248.131, 21.08946
1248.613, 21.17813
1249.095, 22.35143
1249.578, 23.04813
1250.060, 22.75118
1250.542, 22.33329
1251.024, 22.27131
1251.506, 21.78268
1251.988, 21.76454
1252.470, 21.02367
1252.952, 20.52005
1253.435, 20.24662
1253.917, 20.62329
1254.399, 21.62253
1254.881, 22.21056
1255.363, 22.21621
1255.845, 22.11286
1256.327, 22.11999
1256.809, 22.03460
1257.292, 21.55857
1257.774, 21.14268
1258.256, 21.64996
1258.738, 22.41620
1259.220, 22.43234
1259.702, 22.04227
1260.184, 21.97350
1260.666, 22.14593
1261.148, 21.90313
1261.630, 21.06218
1262.113, 20.51049
1262.595, 20.76903
1263.077, 21.06512
1263.559, 21.27169
1264.041, 21.35415
1264.523, 21.41152
1265.005, 21.20568
1265.487, 20.23882
1265.970, 19.04500
1266.452, 18.93921
1266.934, 19.94366
1267.416, 20.48670
1267.898, 20.50451
1268.380, 20.51257
1268.862, 20.54980
1269.344, 20.88593
1269.827, 21.61674
1270.309, 21.90291
1270.791, 21.07572
1271.273, 20.03218
1271.755, 20.21140
1272.237, 20.91677
1272.719, 20.92187
1273.201, 20.47958
1273.683, 19.76784
1274.166, 19.10014
1274.648, 19.14749
1275.130, 19.91137
1275.612, 20.69566
1276.094, 21.27794
1276.576, 21.70585
1277.058, 22.00122
1277.540, 22.13807
1278.022, 22.21889
1278.505, 22.01219
1278.987, 20.97144
1279.469, 19.87101
1279.951, 19.61340
1280.433, 20.05302
1280.915, 20.67276
1281.397, 21.57388
1281.879, 21.80180
1282.362, 21.29072
1282.844, 20.84035
1283.326, 20.57857
1283.808, 20.31897
1284.290, 19.98213
1284.772, 19.76686
1285.254, 19.82129
1285.736, 20.14405
##END=



