##NAMES=Forsterite
##RRUFFID=R060539
##IDEAL CHEMISTRY=Mg_2_SiO_4_
##LOCALITY=Sri Lanka
##OWNER=RRUFF
##SOURCE=Gemological Institute of America
##DESCRIPTION=Brown cut gemstone
##STATUS=The identification of this mineral has been confirmed by X-ray diffraction and chemical analysis
##URL=rruff.info/R060539
##MEASURED CHEMISTRY=(Mg_1.67_Fe_0.33_)_Î£=2_Si_1.00_O_4_; trace amounts of Mn and Ca
91.72394, 0.0000000E+00
92.20605, 56.09337
92.68817, 56.77747
93.17029, 57.46522
93.65240, 57.34127
94.13452, 56.92372
94.61664, 56.30762
95.09875, 55.59303
95.58087, 54.80343
96.06299, 53.82977
96.54510, 52.39427
97.02721, 51.18502
97.50933, 50.36659
97.99145, 49.84339
98.47356, 49.51817
98.95568, 49.32421
99.43780, 49.19634
99.91991, 48.75966
100.4020, 47.78873
100.8841, 46.81948
101.3663, 46.03276
101.8484, 45.43119
102.3305, 44.93189
102.8126, 44.43823
103.2947, 43.92032
103.7768, 43.63356
104.2590, 43.81331
104.7411, 44.10785
105.2232, 44.12992
105.7053, 43.77086
106.1874, 43.24496
106.6695, 42.78752
107.1517, 42.38679
107.6338, 42.02985
108.1159, 41.74378
108.5980, 41.50823
109.0801, 41.21075
109.5622, 40.74410
110.0444, 40.27635
110.5265, 39.94575
111.0086, 39.76363
111.4907, 39.64991
111.9728, 39.51361
112.4549, 39.33870
112.9371, 39.19926
113.4192, 38.95022
113.9013, 38.81922
114.3834, 39.10088
114.8655, 39.90479
115.3476, 40.92705
115.8298, 41.32897
116.3119, 40.33873
116.7940, 39.64135
117.2761, 39.53656
117.7582, 39.78453
118.2403, 40.08467
118.7225, 40.26660
119.2046, 40.33426
119.6867, 40.31868
120.1688, 40.09389
120.6509, 39.92678
121.1330, 39.99825
121.6152, 40.24285
122.0973, 40.40586
122.5794, 40.26963
123.0615, 39.82496
123.5436, 39.43991
124.0257, 39.03763
124.5079, 38.73619
124.9900, 38.70747
125.4721, 39.00030
125.9542, 39.33564
126.4363, 39.42443
126.9184, 39.35293
127.4006, 39.31094
127.8827, 39.41877
128.3648, 39.61644
128.8469, 39.71144
129.3290, 39.63610
129.8111, 39.52432
130.2932, 39.49783
130.7754, 39.52336
131.2575, 39.48368
131.7396, 39.19129
132.2217, 38.58624
132.7038, 38.27647
133.1859, 38.52680
133.6681, 38.90150
134.1502, 39.27906
134.6323, 39.61940
135.1144, 39.90125
135.5965, 40.08698
136.0786, 40.10422
136.5608, 40.17040
137.0429, 40.25372
137.5250, 40.39344
138.0071, 40.67186
138.4892, 41.09990
138.9713, 41.55707
139.4535, 41.78272
139.9356, 41.57280
140.4177, 41.40158
140.8998, 41.41601
141.3819, 41.45595
141.8640, 41.20149
142.3462, 40.43575
142.8283, 39.49275
143.3104, 39.39823
143.7925, 40.57909
144.2746, 41.66315
144.7567, 42.07370
145.2388, 41.90723
145.7210, 41.54737
146.2031, 41.03458
146.6852, 40.53004
147.1673, 40.31487
147.6494, 40.50677
148.1315, 40.83367
148.6137, 41.09495
149.0958, 41.30171
149.5779, 41.36323
150.0600, 41.02750
150.5421, 40.59100
151.0242, 40.37329
151.5064, 40.56765
151.9885, 40.91840
152.4706, 40.84566
152.9527, 40.01618
153.4348, 39.39054
153.9169, 39.36376
154.3991, 39.64669
154.8812, 39.89971
155.3633, 39.93660
155.8454, 39.78461
156.3275, 39.60885
156.8096, 39.51152
157.2918, 39.26762
157.7739, 38.67451
158.2560, 37.90813
158.7381, 37.27194
159.2202, 37.00100
159.7023, 37.10592
160.1845, 37.18354
160.6666, 37.23737
161.1487, 37.26574
161.6308, 37.29669
162.1129, 37.30976
162.5950, 37.23537
163.0772, 36.99524
163.5593, 36.55730
164.0414, 36.23321
164.5235, 36.11181
165.0056, 36.02805
165.4877, 35.84881
165.9698, 35.56649
166.4520, 35.30200
166.9341, 35.17137
167.4162, 35.17990
167.8983, 35.27208
168.3804, 35.52857
168.8625, 35.83283
169.3447, 36.06264
169.8268, 36.21340
170.3089, 36.24189
170.7910, 36.01784
171.2731, 35.60815
171.7552, 35.24329
172.2374, 35.02528
172.7195, 34.92123
173.2016, 34.83365
173.6837, 34.72746
174.1658, 34.68263
174.6479, 34.76971
175.1301, 34.96250
175.6122, 35.16271
176.0943, 35.35979
176.5764, 35.54692
177.0585, 35.52022
177.5406, 34.91507
178.0228, 34.42094
178.5049, 34.44609
178.9870, 34.92334
179.4691, 35.49000
179.9512, 35.81311
180.4333, 35.85794
180.9155, 35.81100
181.3976, 35.52599
181.8797, 35.26906
182.3618, 35.16178
182.8439, 35.21405
183.3260, 35.36896
183.8082, 35.58619
184.2903, 35.97919
184.7724, 36.11500
185.2545, 35.78900
185.7366, 35.41061
186.2187, 35.24864
186.7009, 35.34802
187.1830, 35.56329
187.6651, 35.68214
188.1472, 35.60564
188.6293, 35.64595
189.1114, 35.96027
189.5936, 36.29988
190.0757, 36.38115
190.5578, 36.13612
191.0399, 35.83044
191.5220, 35.92017
192.0041, 36.60712
192.4863, 37.12773
192.9684, 37.37082
193.4505, 37.41351
193.9326, 37.31271
194.4147, 37.06087
194.8968, 36.76682
195.3790, 36.57421
195.8611, 36.43878
196.3432, 36.52118
196.8253, 37.04799
197.3074, 37.82181
197.7895, 38.38872
198.2717, 38.55945
198.7538, 38.60571
199.2359, 38.89832
199.7180, 39.44153
200.2001, 39.96721
200.6822, 40.29923
201.1644, 40.48120
201.6465, 40.73788
202.1286, 41.21465
202.6107, 41.66907
203.0928, 41.86733
203.5749, 41.81227
204.0571, 41.70379
204.5392, 41.60564
205.0213, 41.52066
205.5034, 41.72801
205.9855, 42.58867
206.4676, 43.50601
206.9497, 44.10287
207.4319, 44.36673
207.9140, 44.52600
208.3961, 44.74424
208.8782, 44.99428
209.3603, 45.47908
209.8424, 46.62605
210.3246, 47.71631
210.8067, 48.31313
211.2888, 48.41419
211.7709, 48.39071
212.2530, 48.72993
212.7351, 49.62251
213.2173, 50.26280
213.6994, 50.53762
214.1815, 50.65952
214.6636, 50.72002
215.1457, 50.74158
215.6278, 50.71226
216.1100, 50.61587
216.5921, 50.44521
217.0742, 50.21370
217.5563, 49.91786
218.0384, 49.57865
218.5205, 49.23029
219.0027, 48.86856
219.4848, 48.42637
219.9669, 47.78748
220.4490, 46.74318
220.9311, 46.05751
221.4132, 46.01508
221.8954, 46.09454
222.3775, 45.89678
222.8596, 45.35849
223.3417, 44.70390
223.8238, 44.20550
224.3059, 43.89384
224.7881, 43.71773
225.2702, 43.74462
225.7523, 43.86326
226.2344, 44.06416
226.7165, 44.33053
227.1986, 44.45574
227.6807, 44.10138
228.1629, 43.10421
228.6450, 42.49657
229.1271, 42.63668
229.6092, 43.04711
230.0913, 43.29302
230.5734, 43.29966
231.0556, 43.10405
231.5377, 42.61781
232.0198, 41.84441
232.5019, 41.37378
232.9840, 41.63296
233.4661, 42.10455
233.9483, 42.04274
234.4304, 41.26680
234.9125, 40.48234
235.3946, 40.59019
235.8767, 41.36129
236.3588, 41.80917
236.8410, 41.49296
237.3231, 40.77373
237.8052, 40.14990
238.2873, 39.64787
238.7694, 39.26874
239.2515, 39.11957
239.7337, 39.10060
240.2158, 38.98295
240.6979, 38.62850
241.1800, 38.13987
241.6621, 37.67085
242.1442, 37.17153
242.6264, 36.83593
243.1085, 36.95075
243.5906, 37.28632
244.0727, 37.46887
244.5548, 37.31311
245.0369, 36.92399
245.5191, 36.52660
246.0012, 36.15000
246.4833, 35.69194
246.9654, 34.92709
247.4475, 34.09885
247.9296, 33.57056
248.4117, 33.58957
248.8939, 33.90827
249.3760, 33.95356
249.8581, 33.59815
250.3402, 33.22948
250.8223, 32.95570
251.3044, 32.75551
251.7866, 32.60614
252.2687, 32.49402
252.7508, 32.43715
253.2329, 32.52518
253.7150, 32.95692
254.1971, 33.10756
254.6793, 32.53448
255.1614, 31.78534
255.6435, 31.44864
256.1256, 31.78055
256.6077, 32.42206
257.0898, 32.58852
257.5720, 31.97122
258.0541, 31.47007
258.5362, 31.22375
259.0183, 31.13033
259.5004, 31.14404
259.9825, 31.24355
260.4647, 31.35711
260.9468, 31.32270
261.4289, 30.95988
261.9110, 30.81521
262.3931, 31.08290
262.8752, 31.44566
263.3574, 31.68725
263.8395, 31.74147
264.3216, 31.64355
264.8037, 31.42034
265.2858, 30.91840
265.7679, 30.60884
266.2501, 30.52795
266.7322, 30.58056
267.2143, 30.76773
267.6964, 31.05661
268.1785, 31.33170
268.6606, 31.43087
269.1428, 31.27730
269.6249, 31.13605
270.1070, 30.96742
270.5891, 30.83783
271.0712, 30.81667
271.5533, 30.89271
272.0355, 30.96637
272.5176, 30.89265
272.9997, 30.54456
273.4818, 30.63228
273.9639, 31.53553
274.4460, 32.45293
274.9282, 32.94575
275.4103, 33.03661
275.8924, 33.00118
276.3745, 33.07993
276.8566, 33.28409
277.3387, 33.50542
277.8208, 33.72939
278.3029, 33.98014
278.7851, 34.31995
279.2672, 34.70655
279.7493, 34.99540
280.2314, 35.04583
280.7135, 34.87558
281.1956, 35.07682
281.6778, 35.91224
282.1599, 36.76164
282.6420, 37.51545
283.1241, 38.12313
283.6062, 38.45545
284.0883, 38.38847
284.5705, 38.04124
285.0526, 38.12655
285.5347, 38.94831
286.0168, 39.77480
286.4989, 40.45514
286.9810, 41.02405
287.4632, 41.53353
287.9453, 42.00129
288.4274, 42.45115
288.9095, 42.96366
289.3916, 43.63255
289.8737, 44.21923
290.3559, 44.48121
290.8380, 44.69732
291.3201, 45.26324
291.8022, 46.32279
292.2843, 47.69047
292.7664, 49.06834
293.2486, 50.42367
293.7307, 51.85475
294.2128, 53.64166
294.6949, 55.38404
295.1770, 56.55200
295.6591, 57.03156
296.1413, 57.29493
296.6234, 58.00064
297.1055, 59.37895
297.5876, 60.18664
298.0697, 59.98518
298.5518, 59.44510
299.0340, 59.16030
299.5161, 59.19238
299.9982, 59.20434
300.4803, 58.88856
300.9624, 58.20219
301.4445, 57.43291
301.9267, 56.67273
302.4088, 55.76559
302.8909, 54.46583
303.3730, 52.84651
303.8551, 51.33618
304.3372, 50.25076
304.8194, 49.55299
305.3015, 48.77227
305.7836, 47.68353
306.2657, 46.73619
306.7478, 46.13445
307.2299, 45.84610
307.7121, 45.77891
308.1942, 45.90926
308.6763, 46.20453
309.1584, 46.56770
309.6405, 47.17267
310.1227, 47.58018
310.6048, 47.66097
311.0869, 47.44726
311.5690, 46.94585
312.0511, 46.12661
312.5332, 45.13935
313.0154, 44.28196
313.4975, 43.58220
313.9796, 42.88865
314.4617, 42.19172
314.9438, 41.47861
315.4259, 40.73971
315.9081, 39.97683
316.3902, 39.14452
316.8723, 38.09578
317.3544, 36.73467
317.8365, 35.83104
318.3186, 35.72766
318.8007, 35.93344
319.2828, 36.12817
319.7650, 36.25028
320.2471, 36.12861
320.7292, 35.53398
321.2113, 34.46165
321.6934, 33.66193
322.1755, 33.26151
322.6577, 33.00880
323.1398, 32.78889
323.6219, 32.59005
324.1040, 32.39716
324.5861, 32.20180
325.0682, 32.00559
325.5504, 31.82428
326.0325, 31.66548
326.5146, 31.50965
326.9967, 31.28456
327.4788, 31.05960
327.9609, 31.00397
328.4431, 31.21400
328.9252, 31.56547
329.4073, 31.76964
329.8894, 31.79977
330.3715, 31.77152
330.8536, 31.74499
331.3358, 31.65607
331.8179, 31.34995
332.3000, 30.78227
332.7821, 30.21626
333.2642, 30.01554
333.7463, 30.30210
334.2285, 30.55619
334.7106, 30.81285
335.1927, 30.99646
335.6748, 30.98699
336.1569, 30.79977
336.6390, 30.63887
337.1212, 30.70708
337.6033, 31.01719
338.0854, 31.14856
338.5675, 30.99566
339.0496, 30.79050
339.5317, 30.58465
340.0139, 30.41331
340.4960, 30.36440
340.9781, 30.50454
341.4602, 30.79061
341.9423, 31.00708
342.4244, 31.10233
342.9066, 31.20103
343.3887, 31.30931
343.8708, 31.44147
344.3529, 31.64899
344.8350, 31.95394
345.3171, 32.26085
345.7993, 32.38679
346.2814, 32.23729
346.7635, 32.04255
347.2456, 31.64622
347.7277, 31.30182
348.2098, 31.28744
348.6920, 31.61899
349.1741, 32.03263
349.6562, 32.21425
350.1383, 32.07737
350.6204, 32.15942
351.1025, 32.87317
351.5847, 33.39270
352.0668, 33.11340
352.5489, 32.24586
353.0310, 31.46330
353.5131, 31.27024
353.9952, 31.59461
354.4774, 31.68453
354.9595, 31.22058
355.4416, 30.89373
355.9237, 30.90604
356.4058, 31.11326
356.8879, 31.32392
357.3701, 31.45220
357.8522, 31.52680
358.3343, 31.62001
358.8164, 31.81250
359.2985, 31.89016
359.7806, 31.73266
360.2627, 31.54544
360.7448, 31.54997
361.2270, 31.75049
361.7091, 31.91065
362.1912, 31.70701
362.6733, 30.99078
363.1554, 30.57694
363.6375, 30.65286
364.1197, 30.82940
364.6018, 31.01262
365.0839, 31.16874
365.5660, 31.26823
366.0481, 31.29039
366.5302, 31.23779
367.0124, 31.12398
367.4945, 30.84204
367.9766, 30.64008
368.4587, 30.72338
368.9408, 30.85016
369.4229, 30.73003
369.9051, 30.24381
370.3872, 29.52005
370.8693, 28.73164
371.3514, 27.72204
371.8335, 27.07347
372.3156, 27.06810
372.7978, 27.25648
373.2799, 27.46435
373.7620, 27.62119
374.2441, 27.61627
374.7262, 27.19396
375.2083, 26.31809
375.6905, 25.90604
376.1726, 26.50387
376.6547, 26.95518
377.1368, 26.65456
377.6189, 25.84491
378.1010, 25.04002
378.5832, 24.46231
379.0653, 24.12335
379.5474, 24.12990
380.0295, 24.67444
380.5116, 25.05327
380.9937, 24.82499
381.4759, 24.39100
381.9580, 24.12971
382.4401, 24.14492
382.9222, 24.26587
383.4043, 24.30605
383.8864, 24.26665
384.3686, 24.29586
384.8507, 24.52786
385.3328, 24.72348
385.8149, 24.68204
386.2970, 24.41892
386.7791, 24.08280
387.2613, 23.51487
387.7434, 22.96019
388.2255, 23.16455
388.7076, 24.41910
389.1897, 25.59529
389.6718, 25.70962
390.1540, 25.18100
390.6361, 24.81634
391.1182, 24.85086
391.6003, 25.02375
392.0824, 25.12463
392.5645, 25.15923
393.0467, 25.16776
393.5288, 25.14841
394.0109, 25.13140
394.4930, 25.14159
394.9751, 25.13634
395.4572, 25.29826
395.9394, 25.78427
396.4215, 26.46130
396.9036, 27.09634
397.3857, 27.64223
397.8678, 28.19915
398.3499, 28.91801
398.8321, 29.81046
399.3142, 30.51693
399.7963, 30.83146
400.2784, 31.11749
400.7605, 31.70856
401.2426, 32.53004
401.7247, 33.19475
402.2068, 33.42440
402.6890, 33.36477
403.1711, 33.67419
403.6532, 34.85372
404.1353, 35.71961
404.6174, 35.92239
405.0995, 35.75621
405.5817, 35.46740
406.0638, 35.15248
406.5459, 35.01086
407.0280, 35.37696
407.5101, 36.54246
407.9922, 37.27523
408.4744, 37.16431
408.9565, 37.04217
409.4386, 37.44365
409.9207, 38.25687
410.4028, 39.02924
410.8849, 39.44068
411.3671, 39.53336
411.8492, 39.64539
412.3313, 39.70763
412.8134, 39.88459
413.2955, 40.28435
413.7776, 40.76681
414.2598, 41.12550
414.7419, 41.30754
415.2240, 41.53775
415.7061, 42.22565
416.1882, 43.57577
416.6703, 44.67883
417.1525, 45.15078
417.6346, 45.65851
418.1167, 46.59670
418.5988, 47.86253
419.0809, 49.03479
419.5630, 49.75556
420.0452, 50.16536
420.5273, 50.89318
421.0094, 52.04669
421.4915, 53.29190
421.9736, 54.70096
422.4557, 56.03623
422.9379, 56.95819
423.4200, 57.32594
423.9021, 57.55860
424.3842, 58.27923
424.8663, 59.44440
425.3484, 59.96406
425.8306, 59.35247
426.3127, 58.33688
426.7948, 57.56355
427.2769, 56.99956
427.7590, 56.42443
428.2411, 55.77289
428.7233, 55.04200
429.2054, 54.19734
429.6875, 53.22355
430.1696, 52.27646
430.6517, 51.43419
431.1339, 50.70366
431.6160, 50.08039
432.0981, 49.67033
432.5802, 49.19868
433.0623, 48.60965
433.5444, 47.85574
434.0266, 46.76154
434.5087, 45.24614
434.9908, 43.60678
435.4729, 42.27580
435.9550, 41.37422
436.4371, 40.23215
436.9193, 38.57018
437.4014, 36.86881
437.8835, 35.52319
438.3656, 34.47003
438.8477, 33.31975
439.3298, 31.76499
439.8120, 29.96778
440.2941, 28.84487
440.7762, 29.18483
441.2583, 29.22588
441.7404, 28.57516
442.2225, 27.65561
442.7046, 26.85770
443.1867, 26.29975
443.6689, 25.91582
444.1510, 25.65587
444.6331, 25.56672
445.1152, 25.36241
445.5973, 24.95274
446.0794, 24.51610
446.5616, 24.06419
447.0437, 23.63858
447.5258, 23.30304
448.0079, 23.10523
448.4900, 22.99767
448.9721, 22.86090
449.4543, 22.67537
449.9364, 22.51773
450.4185, 22.37836
450.9006, 22.29205
451.3827, 22.34356
451.8648, 22.52246
452.3470, 22.62737
452.8291, 22.38821
453.3112, 21.91656
453.7933, 21.75160
454.2754, 22.03873
454.7575, 22.35326
455.2397, 22.40723
455.7218, 22.29755
456.2039, 22.17252
456.6860, 22.08047
457.1681, 21.95900
457.6502, 21.67148
458.1324, 21.28209
458.6145, 21.10544
459.0966, 21.29465
459.5787, 21.63849
460.0608, 21.83450
460.5429, 21.88135
461.0251, 21.89160
461.5072, 21.78324
461.9893, 21.71652
462.4714, 21.96223
462.9535, 22.45197
463.4356, 22.70188
463.9178, 22.31594
464.3999, 21.47240
464.8820, 21.15439
465.3641, 21.86552
465.8462, 22.41984
466.3283, 22.62413
466.8105, 22.61059
467.2926, 22.46332
467.7747, 22.22929
468.2568, 22.01888
468.7389, 21.97450
469.2210, 22.12962
469.7032, 22.22663
470.1853, 22.24955
470.6674, 22.22888
471.1495, 22.11560
471.6316, 21.97659
472.1137, 21.94007
472.5959, 22.07900
473.0780, 22.26118
473.5601, 22.23147
474.0422, 21.95526
474.5243, 21.61176
475.0064, 21.00141
475.4886, 20.53086
475.9707, 20.54443
476.4528, 20.97429
476.9349, 21.40066
477.4170, 21.58502
477.8991, 21.58231
478.3813, 21.46127
478.8634, 21.18325
479.3455, 21.03251
479.8276, 21.25294
480.3097, 21.64989
480.7918, 21.86354
481.2740, 21.82192
481.7561, 21.76014
482.2382, 21.81775
482.7203, 21.93078
483.2024, 21.98859
483.6845, 21.97003
484.1666, 21.87809
484.6487, 21.67676
485.1309, 21.36449
485.6130, 21.23721
486.0951, 21.36361
486.5772, 21.58805
487.0593, 22.00646
487.5414, 22.44736
488.0236, 22.56515
488.5057, 22.22394
488.9878, 21.67676
489.4699, 21.37969
489.9520, 21.47333
490.4341, 21.47055
490.9163, 21.33554
491.3984, 21.15487
491.8805, 20.91895
492.3626, 20.67434
492.8447, 20.51741
493.3268, 20.51914
493.8090, 20.62857
494.2911, 20.68790
494.7732, 20.65617
495.2553, 20.68598
495.7374, 20.97001
496.2195, 21.21771
496.7017, 21.15580
497.1838, 20.79366
497.6659, 20.46373
498.1480, 20.45628
498.6301, 20.65562
499.1122, 20.73218
499.5944, 20.65062
500.0765, 20.56503
500.5586, 20.61973
501.0407, 20.70621
501.5228, 20.56650
502.0049, 20.00042
502.4871, 19.61663
502.9692, 19.94209
503.4513, 20.59746
503.9334, 20.86828
504.4155, 20.59586
504.8976, 20.13526
505.3798, 19.77511
505.8619, 19.51081
506.3440, 19.62246
506.8261, 20.68485
507.3082, 21.44556
507.7903, 21.20000
508.2725, 20.42583
508.7546, 19.84872
509.2367, 19.74344
509.7188, 19.93652
510.2009, 20.19503
510.6830, 20.60405
511.1652, 20.79047
511.6473, 20.48962
512.1294, 20.22747
512.6115, 20.24192
513.0936, 20.44509
513.5757, 20.64284
514.0579, 20.74051
514.5400, 20.77335
515.0221, 20.80871
515.5042, 20.85221
515.9863, 20.85646
516.4684, 20.81026
516.9506, 20.71744
517.4327, 20.56130
517.9148, 20.35390
518.3969, 20.18093
518.8790, 20.12989
519.3611, 20.10277
519.8433, 19.87242
520.3254, 19.46914
520.8075, 19.36982
521.2896, 19.92018
521.7717, 20.77731
522.2538, 21.10783
522.7360, 20.77701
523.2181, 20.43316
523.7002, 20.08443
524.1823, 19.83517
524.6644, 19.88667
525.1465, 20.17165
525.6287, 20.33765
526.1108, 20.10514
526.5929, 19.57095
527.0750, 19.23516
527.5571, 19.09590
528.0392, 19.19019
528.5214, 19.77378
529.0035, 20.40413
529.4856, 20.70815
529.9677, 20.65647
530.4498, 20.47993
530.9319, 20.38071
531.4141, 20.33368
531.8962, 20.13510
532.3783, 19.63435
532.8604, 19.33471
533.3425, 19.57818
533.8246, 20.07665
534.3068, 20.59754
534.7889, 21.12519
535.2710, 21.53724
535.7531, 21.72056
536.2352, 21.73956
536.7173, 21.73040
537.1995, 21.71098
537.6816, 21.63680
538.1637, 21.40304
538.6458, 21.08526
539.1279, 21.10742
539.6100, 21.86804
540.0922, 22.44899
540.5743, 22.55398
541.0564, 22.35839
541.5385, 21.98519
542.0206, 21.50384
542.5027, 21.10992
542.9849, 21.03883
543.4670, 21.30184
543.9491, 21.38095
544.4312, 20.85414
544.9133, 20.65778
545.3954, 21.37522
545.8775, 22.31822
546.3596, 22.62423
546.8417, 22.10005
547.3239, 21.42356
547.8060, 21.33849
548.2881, 21.79791
548.7702, 22.30413
549.2523, 22.95196
549.7344, 23.39259
550.2166, 23.17213
550.6987, 22.66076
551.1808, 22.44369
551.6629, 22.71750
552.1450, 23.06063
552.6271, 23.14024
553.1093, 23.11393
553.5914, 23.35554
554.0735, 23.94522
554.5556, 24.58281
555.0377, 25.00299
555.5198, 25.20842
556.0020, 25.36700
556.4841, 25.41767
556.9662, 25.50228
557.4483, 25.53646
557.9304, 25.68234
558.4125, 26.25876
558.8947, 27.28131
559.3768, 28.26532
559.8589, 28.57738
560.3410, 28.18966
560.8231, 28.35712
561.3052, 29.63286
561.7874, 30.65713
562.2695, 30.69766
562.7516, 30.42730
563.2337, 30.66237
563.7158, 31.61834
564.1979, 32.76577
564.6801, 33.71133
565.1622, 34.48509
565.6443, 35.11399
566.1264, 35.54393
566.6085, 36.15078
567.0906, 37.25953
567.5728, 38.75556
568.0549, 40.15215
568.5370, 41.50707
569.0191, 42.67417
569.5012, 43.33485
569.9833, 43.91144
570.4655, 45.08568
570.9476, 46.87074
571.4297, 48.55275
571.9118, 49.42474
572.3939, 49.57928
572.8760, 50.17036
573.3582, 51.59986
573.8403, 52.93671
574.3224, 53.81358
574.8045, 54.70839
575.2866, 56.18855
575.7687, 58.24840
576.2509, 60.22071
576.7330, 61.50362
577.2151, 62.24370
577.6972, 62.97074
578.1793, 63.66496
578.6614, 64.43472
579.1436, 65.39131
579.6257, 66.40247
580.1078, 67.24785
580.5899, 67.88673
581.0720, 68.58529
581.5541, 69.64056
582.0363, 70.68523
582.5184, 71.30408
583.0005, 71.49625
583.4826, 71.47348
583.9647, 71.34338
584.4468, 71.12190
584.9290, 70.85513
585.4111, 70.53458
585.8932, 70.17558
586.3753, 69.91147
586.8574, 69.49536
587.3395, 68.75343
587.8217, 67.72114
588.3038, 66.51324
588.7859, 65.17087
589.2680, 63.76723
589.7501, 62.52364
590.2322, 61.48879
590.7144, 60.21643
591.1965, 58.34368
591.6786, 56.51550
592.1607, 55.34551
592.6428, 54.71210
593.1249, 54.07287
593.6071, 53.12705
594.0892, 52.23565
594.5713, 51.76765
595.0534, 51.60610
595.5355, 51.37806
596.0176, 50.95014
596.4998, 50.59428
596.9819, 50.72680
597.4640, 51.51913
597.9461, 51.72322
598.4282, 50.68856
598.9103, 49.89943
599.3925, 50.07274
599.8746, 50.67373
600.3567, 50.97733
600.8388, 50.76548
601.3209, 50.33912
601.8030, 50.06111
602.2852, 49.91735
602.7673, 49.60970
603.2494, 49.17604
603.7315, 48.48768
604.2136, 47.26845
604.6957, 45.83186
605.1779, 44.59762
605.6600, 43.62128
606.1421, 42.78235
606.6242, 42.08172
607.1063, 41.44726
607.5884, 40.81085
608.0706, 40.15551
608.5527, 39.40279
609.0348, 38.48210
609.5169, 37.46490
609.9990, 36.58974
610.4811, 35.92878
610.9633, 35.32050
611.4454, 34.87746
611.9275, 34.38832
612.4096, 33.65109
612.8917, 32.74216
613.3738, 31.89935
613.8560, 31.26285
614.3381, 30.76348
614.8202, 30.28154
615.3023, 29.81714
615.7844, 29.33116
616.2665, 28.81192
616.7487, 28.27022
617.2308, 27.67842
617.7129, 27.05964
618.1950, 26.51882
618.6771, 26.10571
619.1592, 25.74722
619.6414, 25.41943
620.1235, 25.11112
620.6056, 24.75500
621.0877, 24.34428
621.5698, 24.06172
622.0519, 24.14455
622.5341, 24.59734
623.0162, 24.73873
623.4983, 24.25920
623.9804, 23.85155
624.4625, 23.66569
624.9446, 23.57776
625.4268, 23.47589
625.9089, 23.34354
626.3910, 23.22960
626.8730, 23.28113
627.3552, 23.35282
627.8373, 22.95330
628.3194, 22.03046
628.8015, 21.34662
629.2836, 21.29810
629.7657, 21.52571
630.2479, 21.45062
630.7300, 21.05196
631.2121, 20.69517
631.6942, 20.30883
632.1763, 20.09535
632.6584, 20.30359
633.1406, 20.76788
633.6227, 21.19962
634.1048, 21.47438
634.5869, 21.50389
635.0690, 21.05271
635.5511, 19.98473
636.0333, 19.39960
636.5154, 19.57371
636.9975, 19.87007
637.4796, 20.18195
637.9617, 20.41135
638.4438, 20.38135
638.9260, 20.02990
639.4081, 19.70292
639.8902, 19.66863
640.3723, 19.81061
640.8544, 19.91436
641.3365, 19.96589
641.8187, 20.08849
642.3008, 20.39515
642.7829, 20.74928
643.2650, 20.80026
643.7471, 20.31569
644.2292, 19.96071
644.7114, 19.77082
645.1935, 19.67623
645.6756, 19.65179
646.1577, 19.68885
646.6398, 19.81324
647.1219, 20.04538
647.6041, 20.24747
648.0862, 20.16190
648.5683, 19.79532
649.0504, 19.55411
649.5325, 19.49989
650.0146, 19.52453
650.4968, 19.60131
650.9789, 19.69945
651.4610, 19.74636
651.9431, 19.71124
652.4252, 19.68253
652.9073, 19.66179
653.3895, 19.68516
653.8716, 19.86298
654.3537, 20.14987
654.8358, 20.29792
655.3179, 20.12968
655.8000, 19.79191
656.2822, 19.73257
656.7643, 20.16104
657.2464, 20.33426
657.7285, 19.90822
658.2106, 19.48605
658.6927, 19.37169
659.1749, 19.46434
659.6570, 19.49971
660.1391, 19.33357
660.6212, 19.23321
661.1033, 19.58375
661.5854, 20.17685
662.0676, 20.38858
662.5497, 20.10943
663.0318, 19.87847
663.5139, 20.14347
663.9960, 20.76369
664.4781, 21.04258
664.9603, 20.72029
665.4424, 20.40766
665.9245, 20.07214
666.4066, 19.79629
666.8887, 19.66371
667.3708, 19.64169
667.8530, 19.60343
668.3351, 19.44880
668.8172, 19.35841
669.2993, 19.79020
669.7814, 20.70593
670.2635, 21.07276
670.7457, 20.54468
671.2278, 19.92010
671.7099, 19.85076
672.1920, 20.20238
672.6741, 20.36924
673.1563, 20.21186
673.6384, 20.07375
674.1205, 20.08171
674.6026, 20.13828
675.0847, 20.14948
675.5668, 20.11139
676.0490, 20.06133
676.5311, 20.01867
677.0132, 19.99886
677.4953, 20.05705
677.9774, 20.22122
678.4595, 20.33249
678.9417, 20.38596
679.4238, 20.36264
679.9059, 20.12470
680.3880, 19.81988
680.8701, 19.82068
681.3522, 20.38605
681.8344, 20.88735
682.3165, 20.81691
682.7986, 20.52433
683.2807, 20.59465
683.7628, 21.04112
684.2449, 21.37532
684.7271, 21.23736
685.2092, 20.82219
685.6913, 20.78402
686.1734, 21.40694
686.6555, 21.74918
687.1376, 21.59413
687.6198, 21.30371
688.1019, 20.94662
688.5840, 20.59316
689.0661, 20.36476
689.5482, 20.32174
690.0303, 20.34410
690.5125, 20.29491
690.9946, 20.24410
691.4767, 20.38940
691.9588, 20.74666
692.4409, 21.06639
692.9230, 21.17493
693.4052, 21.15891
693.8873, 21.28964
694.3694, 21.84610
694.8515, 22.02866
695.3336, 21.37257
695.8157, 20.83823
696.2979, 21.12879
696.7800, 21.83892
697.2621, 22.11629
697.7442, 21.60882
698.2263, 21.01579
698.7084, 21.19611
699.1906, 21.87494
699.6727, 22.06590
700.1548, 21.65039
700.6369, 21.32705
701.1190, 21.52338
701.6011, 22.02012
702.0833, 22.30989
702.5654, 22.34480
703.0475, 22.26526
703.5296, 21.93648
704.0117, 21.63180
704.4938, 21.50842
704.9760, 21.50312
705.4581, 21.46881
705.9402, 21.36016
706.4223, 21.32862
706.9044, 21.64350
707.3865, 22.19432
707.8687, 22.46312
708.3508, 22.40694
708.8329, 22.26463
709.3149, 22.10425
709.7971, 21.95777
710.2792, 21.84589
710.7613, 21.72283
711.2434, 21.87216
711.7255, 22.61193
712.2076, 23.31205
712.6898, 23.70255
713.1719, 23.83543
713.6540, 23.76627
714.1361, 23.53066
714.6182, 23.23879
715.1003, 22.97524
715.5825, 22.74863
716.0646, 22.58485
716.5467, 22.48033
717.0288, 22.47674
717.5109, 22.62757
717.9930, 22.83494
718.4752, 22.99059
718.9573, 23.09568
719.4394, 23.17125
719.9215, 23.17051
720.4036, 23.19617
720.8857, 23.33698
721.3679, 23.50286
721.8500, 23.55112
722.3321, 23.48454
722.8142, 23.46044
723.2963, 23.61320
723.7784, 23.88837
724.2606, 24.18204
724.7427, 24.52305
725.2248, 24.57712
725.7069, 24.11304
726.1890, 23.62217
726.6711, 23.62657
727.1533, 23.99935
727.6354, 24.11662
728.1175, 23.60317
728.5996, 23.29763
729.0817, 23.56348
729.5638, 24.06860
730.0460, 24.58909
730.5281, 25.04239
731.0102, 25.35230
731.4923, 25.48142
731.9744, 25.40125
732.4565, 24.90688
732.9387, 23.98370
733.4208, 23.59065
733.9029, 24.00798
734.3850, 24.48626
734.8671, 24.53591
735.3492, 24.33050
735.8314, 24.29487
736.3135, 24.42315
736.7956, 24.73250
737.2777, 25.50000
737.7598, 26.20363
738.2419, 26.47137
738.7241, 26.38353
739.2062, 26.11752
739.6883, 25.74843
740.1704, 25.38821
740.6525, 25.17978
741.1346, 25.10953
741.6168, 25.01261
742.0989, 24.82595
742.5810, 24.96712
743.0631, 25.83053
743.5452, 26.86368
744.0273, 27.17819
744.5095, 26.72157
744.9916, 26.49864
745.4737, 26.77650
745.9558, 27.09028
746.4379, 27.33699
746.9200, 27.45682
747.4022, 27.30423
747.8843, 26.91573
748.3664, 26.57631
748.8485, 26.48749
749.3306, 26.63006
749.8127, 27.09233
750.2949, 27.87703
750.7770, 28.27019
751.2591, 28.02209
751.7412, 27.60675
752.2233, 27.37863
752.7054, 27.33303
753.1876, 27.41176
753.6697, 27.87196
754.1518, 28.08459
754.6339, 27.69521
755.1160, 27.26474
755.5981, 27.17786
756.0803, 27.41094
756.5624, 27.83636
757.0445, 28.42422
757.5266, 28.98020
758.0087, 29.23913
758.4908, 29.26290
758.9730, 29.24851
759.4551, 29.20470
759.9372, 29.29074
760.4193, 29.63749
760.9014, 30.07939
761.3835, 30.27683
761.8657, 30.08856
762.3478, 30.13519
762.8299, 30.76882
763.3120, 31.20725
763.7941, 31.09844
764.2762, 30.69826
764.7584, 30.19954
765.2405, 29.68989
765.7226, 29.42219
766.2047, 29.59366
766.6868, 30.08936
767.1689, 30.97784
767.6511, 32.09352
768.1332, 32.63700
768.6153, 32.38579
769.0974, 31.82992
769.5795, 31.37920
770.0616, 31.05300
770.5438, 31.04078
771.0259, 31.46795
771.5080, 31.99212
771.9901, 32.80696
772.4722, 33.49234
772.9543, 33.71914
773.4365, 33.63250
773.9186, 33.58092
774.4007, 33.65640
774.8828, 33.80935
775.3649, 34.10622
775.8470, 34.40528
776.3292, 34.40816
776.8113, 34.19304
777.2934, 34.19788
777.7755, 34.64032
778.2576, 35.26816
778.7397, 35.67881
779.2219, 35.85997
779.7040, 35.97241
780.1861, 35.92623
780.6682, 35.99618
781.1503, 36.29881
781.6324, 36.75575
782.1146, 37.36364
782.5967, 38.11087
783.0788, 38.64204
783.5609, 38.67517
784.0430, 38.69225
784.5251, 38.94571
785.0073, 39.33965
785.4894, 39.77702
785.9715, 40.21783
786.4536, 40.57347
786.9357, 40.73138
787.4178, 40.90722
787.9000, 41.81067
788.3821, 43.42787
788.8642, 44.02942
789.3463, 43.04782
789.8284, 42.19708
790.3105, 42.60710
790.7927, 43.94252
791.2747, 45.33615
791.7568, 47.00982
792.2390, 48.19860
792.7211, 48.39530
793.2032, 48.59318
793.6853, 49.23807
794.1674, 50.22219
794.6495, 51.41730
795.1317, 52.76369
795.6138, 54.08598
796.0959, 55.15424
796.5780, 56.16119
797.0601, 57.36831
797.5422, 58.79640
798.0244, 60.53975
798.5065, 62.63645
798.9886, 64.90612
799.4707, 67.17744
799.9528, 69.47483
800.4349, 71.85556
800.9171, 74.18472
801.3992, 76.88172
801.8813, 80.13567
802.3634, 83.62845
802.8455, 87.06721
803.3276, 90.64021
803.8098, 94.73734
804.2919, 99.49606
804.7740, 104.5173
805.2561, 109.3783
805.7382, 114.5263
806.2203, 120.4342
806.7025, 127.0018
807.1846, 134.1966
807.6667, 141.9133
808.1488, 149.4705
808.6309, 155.7798
809.1130, 161.1859
809.5952, 167.8276
810.0773, 175.8403
810.5594, 184.4584
811.0415, 193.4435
811.5236, 202.9506
812.0057, 213.1673
812.4879, 224.0716
812.9700, 235.3097
813.4521, 246.1869
813.9342, 258.2947
814.4163, 271.7768
814.8984, 286.6205
815.3806, 302.8472
815.8627, 320.3031
816.3448, 338.9428
816.8269, 358.7687
817.3090, 378.7179
817.7911, 397.9144
818.2733, 416.2589
818.7554, 433.9404
819.2375, 450.7361
819.7196, 465.7717
820.2017, 478.8515
820.6838, 488.2391
821.1660, 491.6732
821.6481, 489.2107
822.1302, 483.4013
822.6123, 474.1933
823.0944, 461.5872
823.5765, 444.1800
824.0587, 424.6453
824.5408, 404.1091
825.0229, 383.0975
825.5050, 363.2191
825.9871, 344.8124
826.4692, 327.6105
826.9514, 311.2418
827.4335, 296.1525
827.9156, 282.9235
828.3977, 271.3573
828.8798, 260.9290
829.3619, 251.3934
829.8441, 242.9889
830.3262, 235.9917
830.8083, 230.3289
831.2904, 225.7716
831.7725, 222.3379
832.2546, 219.9546
832.7368, 218.7197
833.2189, 218.0902
833.7010, 217.4450
834.1831, 216.8568
834.6652, 217.1567
835.1473, 218.2641
835.6295, 220.4310
836.1116, 224.4385
836.5937, 228.6551
837.0758, 231.7253
837.5579, 234.4699
838.0400, 238.7061
838.5222, 245.0410
839.0043, 251.8132
839.4864, 258.1848
839.9685, 264.6004
840.4506, 271.1948
840.9327, 278.2650
841.4149, 286.4908
841.8970, 296.0014
842.3791, 306.2057
842.8612, 316.3936
843.3433, 326.7822
843.8254, 338.0414
844.3076, 350.1162
844.7897, 362.8704
845.2718, 376.1143
845.7539, 390.3280
846.2360, 405.9580
846.7181, 422.7017
847.2003, 439.4616
847.6824, 456.0638
848.1645, 472.9059
848.6466, 490.4770
849.1287, 507.7761
849.6108, 525.1618
850.0930, 541.7136
850.5751, 556.5226
851.0572, 569.3959
851.5393, 580.1338
852.0214, 590.4279
852.5035, 596.8828
852.9857, 595.8240
853.4678, 589.1752
853.9499, 580.3564
854.4320, 569.8750
854.9141, 555.8661
855.3962, 536.9851
855.8784, 514.9323
856.3605, 493.2794
856.8426, 471.9461
857.3247, 448.8578
857.8068, 423.4973
858.2889, 398.6996
858.7711, 375.8107
859.2532, 354.4097
859.7353, 333.6828
860.2174, 313.5704
860.6995, 294.9264
861.1816, 277.7086
861.6638, 261.9665
862.1459, 248.0800
862.6280, 235.2889
863.1101, 223.0403
863.5922, 211.3086
864.0743, 200.2978
864.5565, 189.8920
865.0386, 180.4327
865.5207, 172.3872
866.0028, 165.2503
866.4849, 158.6866
866.9670, 152.5124
867.4492, 146.4619
867.9313, 140.4645
868.4134, 134.9319
868.8955, 130.4590
869.3776, 125.9740
869.8597, 122.1719
870.3419, 119.0968
870.8240, 116.0285
871.3061, 114.2221
871.7882, 112.5528
872.2703, 110.0251
872.7524, 106.9597
873.2346, 104.6356
873.7166, 103.2737
874.1987, 102.2140
874.6808, 101.4266
875.1630, 100.9962
875.6451, 101.0775
876.1272, 101.4708
876.6093, 102.0572
877.0914, 102.8065
877.5735, 103.2331
878.0557, 103.0556
878.5378, 102.6403
879.0199, 102.1719
879.5020, 101.6021
879.9841, 101.0423
880.4662, 100.3376
880.9484, 98.99094
881.4305, 96.71780
881.9126, 93.79225
882.3947, 90.36679
882.8768, 86.59304
883.3589, 82.93922
883.8411, 79.43179
884.3232, 76.03655
884.8053, 72.75267
885.2874, 69.54585
885.7695, 66.33050
886.2516, 63.15665
886.7338, 60.72158
887.2159, 59.25210
887.6980, 57.87873
888.1801, 56.50636
888.6622, 55.13984
889.1443, 53.65077
889.6265, 52.18784
890.1086, 51.11593
890.5907, 50.56285
891.0728, 50.01030
891.5549, 49.30680
892.0370, 48.67233
892.5192, 48.23974
893.0013, 47.92172
893.4834, 47.58918
893.9655, 47.24424
894.4476, 47.03642
894.9297, 47.15131
895.4119, 47.24584
895.8940, 46.88406
896.3761, 46.33949
896.8582, 45.99977
897.3403, 45.93282
897.8224, 46.23881
898.3046, 46.96220
898.7867, 47.73186
899.2688, 48.01109
899.7509, 47.88482
900.2330, 47.78542
900.7151, 47.68678
901.1973, 48.17460
901.6794, 49.52871
902.1615, 51.03567
902.6436, 52.06538
903.1257, 52.74619
903.6078, 53.63325
904.0900, 54.82161
904.5721, 56.02468
905.0542, 57.23059
905.5363, 58.46507
906.0184, 59.87902
906.5005, 61.23878
906.9827, 62.05214
907.4648, 62.31450
907.9469, 63.21342
908.4290, 65.39481
908.9111, 67.80955
909.3932, 70.18026
909.8754, 72.42848
910.3575, 74.22954
910.8396, 75.87495
911.3217, 78.14146
911.8038, 81.34962
912.2859, 85.03606
912.7681, 88.96309
913.2502, 93.02689
913.7323, 97.23328
914.2144, 101.4048
914.6965, 105.0374
915.1786, 108.0135
915.6608, 110.7454
916.1429, 113.7501
916.6250, 116.3712
917.1071, 116.9031
917.5892, 115.3416
918.0714, 112.5835
918.5535, 108.6289
919.0356, 103.7229
919.5177, 97.74338
919.9998, 91.26280
920.4819, 85.04465
920.9641, 79.00230
921.4462, 73.86783
921.9283, 70.03519
922.4104, 66.44290
922.8925, 62.74502
923.3746, 59.40442
923.8568, 56.80311
924.3389, 54.78172
924.8210, 52.97839
925.3031, 51.38915
925.7852, 49.90161
926.2673, 48.27844
926.7495, 46.98795
927.2316, 46.50781
927.7137, 46.38960
928.1958, 46.11872
928.6779, 45.62043
929.1600, 45.00878
929.6422, 44.19031
930.1243, 43.62426
930.6064, 43.87687
931.0885, 44.54945
931.5706, 45.06330
932.0527, 45.42097
932.5349, 45.87231
933.0170, 46.49817
933.4991, 47.05882
933.9812, 47.26754
934.4633, 47.23641
934.9454, 47.19202
935.4276, 47.16621
935.9097, 47.56313
936.3918, 48.47248
936.8739, 49.43614
937.3560, 50.16282
937.8381, 50.75880
938.3203, 51.43480
938.8024, 52.19513
939.2845, 53.00368
939.7666, 53.84517
940.2487, 54.77755
940.7308, 55.81145
941.2130, 56.96723
941.6951, 58.32234
942.1772, 59.82701
942.6593, 61.20948
943.1414, 62.25761
943.6235, 63.57029
944.1057, 65.47469
944.5878, 67.30020
945.0699, 68.62614
945.5520, 69.78577
946.0341, 71.21902
946.5162, 72.94358
946.9984, 74.57535
947.4805, 75.86018
947.9626, 77.19933
948.4447, 78.94901
948.9268, 80.69601
949.4089, 81.87486
949.8911, 82.74479
950.3732, 84.02184
950.8553, 85.92702
951.3374, 87.87017
951.8195, 89.39892
952.3016, 90.69231
952.7838, 92.04685
953.2659, 93.34619
953.7480, 94.34903
954.2301, 95.01299
954.7122, 95.36270
955.1943, 95.40600
955.6764, 95.23679
956.1585, 94.97675
956.6406, 94.62904
957.1227, 94.26929
957.6049, 93.88609
958.0870, 93.12196
958.5691, 91.84203
959.0512, 90.50088
959.5333, 89.53872
960.0154, 88.76443
960.4976, 87.57986
960.9797, 85.97066
961.4618, 83.93738
961.9439, 81.28188
962.4260, 78.75269
962.9081, 76.65622
963.3903, 74.85709
963.8724, 73.27668
964.3545, 71.89867
964.8366, 70.28298
965.3187, 68.50023
965.8008, 66.36721
966.2830, 63.32226
966.7651, 60.54956
967.2472, 58.67989
967.7293, 57.37657
968.2114, 56.24231
968.6935, 55.24911
969.1757, 54.04417
969.6578, 52.33229
970.1399, 50.68263
970.6220, 49.31871
971.1041, 48.09005
971.5862, 46.88862
972.0684, 45.71733
972.5505, 44.64561
973.0326, 43.70424
973.5147, 42.69402
973.9968, 41.45945
974.4789, 40.15009
974.9611, 38.72083
975.4432, 37.39848
975.9253, 36.58980
976.4074, 36.23455
976.8895, 35.94981
977.3716, 35.56662
977.8538, 34.99834
978.3359, 33.93921
978.8180, 32.75130
979.3001, 32.18346
979.7822, 32.05124
980.2643, 31.64350
980.7465, 30.83026
981.2286, 30.10880
981.7107, 29.85012
982.1928, 29.85744
982.6749, 29.84365
983.1570, 29.78296
983.6392, 29.47210
984.1213, 28.91195
984.6034, 28.37028
985.0855, 27.93229
985.5676, 27.65658
986.0497, 27.64683
986.5319, 27.77749
987.0140, 27.51846
987.4961, 26.79431
987.9782, 26.28838
988.4603, 26.08185
988.9424, 25.97307
989.4246, 25.92515
989.9067, 25.82952
990.3888, 25.50337
990.8709, 24.97769
991.3530, 24.75548
991.8351, 25.08956
992.3173, 25.12834
992.7994, 24.47909
993.2815, 24.00175
993.7636, 24.32944
994.2457, 24.95202
994.7278, 25.07494
995.2100, 24.66491
995.6921, 24.28680
996.1742, 23.93237
996.6563, 23.63066
997.1384, 23.30850
997.6205, 23.12104
998.1027, 23.31968
998.5848, 23.65357
999.0669, 23.60569
999.5490, 23.07274
1000.031, 22.87439
1000.513, 23.74989
1000.995, 24.30404
1001.477, 23.62770
1001.960, 22.71175
1002.442, 22.46391
1002.924, 22.67176
1003.406, 22.67838
1003.888, 22.29952
1004.370, 21.96965
1004.852, 21.89460
1005.334, 21.95761
1005.817, 22.18614
1006.299, 22.43342
1006.781, 22.52601
1007.263, 22.47065
1007.745, 22.34114
1008.227, 22.15971
1008.709, 22.01314
1009.191, 21.98013
1009.673, 22.01049
1010.156, 22.09897
1010.638, 22.18740
1011.120, 22.12360
1011.602, 21.93933
1012.084, 21.90496
1012.566, 22.18084
1013.048, 22.36550
1013.530, 21.77981
1014.013, 20.90967
1014.495, 20.60433
1014.977, 20.83334
1015.459, 21.70875
1015.941, 23.07619
1016.423, 23.83912
1016.905, 23.26836
1017.387, 22.10246
1017.869, 21.38689
1018.352, 21.02645
1018.834, 20.60833
1019.316, 20.18688
1019.798, 20.36481
1020.280, 21.25834
1020.762, 21.87015
1021.244, 21.41725
1021.726, 20.49847
1022.208, 20.38339
1022.691, 20.98898
1023.173, 21.25189
1023.655, 21.14732
1024.137, 21.00074
1024.619, 20.89445
1025.101, 20.85267
1025.583, 20.81248
1026.065, 21.00671
1026.547, 20.89662
1027.030, 21.05000
1027.512, 21.26118
1027.994, 21.22809
1028.476, 21.68719
1028.958, 21.77386
1029.440, 21.67814
1029.922, 21.58429
1030.404, 21.41280
1030.887, 20.80808
1031.369, 19.49059
1031.851, 19.06755
1032.333, 19.91602
1032.815, 20.57257
1033.297, 20.53509
1033.779, 20.26937
1034.261, 20.17871
1034.744, 20.19960
1035.226, 20.07770
1035.708, 19.67947
1036.190, 19.54829
1036.672, 19.81076
1037.154, 20.11247
1037.636, 20.44776
1038.118, 20.65346
1038.600, 20.46177
1039.083, 20.02583
1039.565, 20.01271
1040.047, 20.86263
1040.529, 21.04685
1041.011, 19.83572
1041.493, 18.98450
1041.975, 19.19098
1042.457, 19.77695
1042.939, 20.37708
1043.422, 20.88195
1043.904, 20.81824
1044.386, 19.78837
1044.868, 19.15170
1045.350, 19.20256
1045.832, 19.34369
1046.314, 19.37019
1046.796, 19.43464
1047.279, 19.80126
1047.761, 20.32093
1048.243, 20.46686
1048.725, 20.05832
1049.207, 19.67108
1049.689, 19.37163
1050.171, 19.11489
1050.653, 18.87067
1051.135, 18.67301
1051.618, 18.59040
1052.100, 18.57595
1052.582, 18.47270
1053.064, 18.21354
1053.546, 18.03164
1054.028, 17.95273
1054.510, 17.98931
1054.992, 18.25788
1055.474, 18.55036
1055.957, 18.69208
1056.439, 18.69888
1056.921, 18.67002
1057.403, 18.65222
1057.885, 18.45201
1058.367, 17.65155
1058.849, 17.11160
1059.331, 17.39716
1059.814, 17.96279
1060.296, 18.48300
1060.778, 18.82273
1061.260, 18.68430
1061.742, 17.90722
1062.224, 17.45514
1062.706, 18.03047
1063.188, 18.53708
1063.671, 18.34213
1064.153, 17.94940
1064.635, 17.72240
1065.117, 17.71353
1065.599, 18.03844
1066.081, 18.75497
1066.563, 19.11289
1067.045, 18.53847
1067.527, 17.89374
1068.010, 17.45491
1068.492, 17.25526
1068.974, 17.45170
1069.456, 17.86105
1069.938, 18.08618
1070.420, 18.05070
1070.902, 18.19901
1071.384, 19.13150
1071.866, 19.75651
1072.349, 19.26038
1072.831, 18.49650
1073.313, 18.17248
1073.795, 18.14191
1074.277, 17.99861
1074.759, 17.68181
1075.241, 17.49547
1075.723, 17.60386
1076.206, 17.81974
1076.688, 18.16075
1077.170, 18.46811
1077.652, 18.66766
1078.134, 18.71635
1078.616, 18.45396
1079.098, 17.93251
1079.580, 17.65927
1080.062, 18.01940
1080.545, 18.31488
1081.027, 18.20047
1081.509, 17.90738
1081.991, 17.41139
1082.473, 16.96514
1082.955, 16.95467
1083.437, 17.35339
1083.919, 17.76277
1084.401, 18.10634
1084.884, 18.28054
1085.366, 17.97259
1085.848, 17.76607
1086.330, 18.40912
1086.812, 19.14538
1087.294, 18.78913
1087.776, 17.60224
1088.258, 17.03829
1088.740, 17.72824
1089.223, 18.26267
1089.705, 17.85721
1090.187, 17.35822
1090.669, 16.94116
1091.151, 16.93888
1091.633, 18.20143
1092.115, 20.08954
1092.597, 20.73463
1093.080, 19.53556
1093.562, 18.35274
1094.044, 17.81930
1094.526, 17.53565
1095.008, 17.49963
1095.490, 17.47103
1095.972, 17.17047
1096.454, 16.74154
1096.937, 16.47477
1097.419, 16.42419
1097.901, 16.56559
1098.383, 17.15320
1098.865, 17.57331
1099.347, 17.44000
1099.829, 17.23543
1100.311, 17.38674
1100.793, 17.66359
1101.276, 17.61529
1101.758, 17.22180
1102.240, 16.99938
1102.722, 17.25287
1103.204, 17.42158
1103.686, 17.25514
1104.168, 17.10378
1104.650, 17.23809
1105.132, 17.44689
1105.615, 17.43965
1106.097, 17.24131
1106.579, 17.11290
1107.061, 17.08653
1107.543, 17.14852
1108.025, 17.29741
1108.507, 17.53264
1108.989, 18.09086
1109.472, 18.54056
1109.954, 18.32199
1110.436, 17.66504
1110.918, 17.36942
1111.400, 17.61839
1111.882, 17.78982
1112.364, 17.78877
1112.846, 17.77700
1113.328, 17.70416
1113.811, 17.72008
1114.293, 18.16868
1114.775, 18.69373
1115.257, 18.43408
1115.739, 17.19296
1116.221, 16.68872
1116.703, 17.62588
1117.185, 18.10339
1117.667, 17.60099
1118.150, 17.01503
1118.632, 16.69748
1119.114, 16.63397
1119.596, 16.89676
1120.078, 17.44810
1120.560, 17.68136
1121.042, 17.46538
1121.524, 17.24115
1122.007, 16.99323
1122.489, 16.80582
1122.971, 16.66949
1123.453, 16.68133
1123.935, 16.98525
1124.417, 17.48803
1124.899, 17.84710
1125.381, 18.05838
1125.864, 18.13821
1126.346, 18.05881
1126.828, 17.94250
1127.310, 17.80008
1127.792, 17.71360
1128.274, 17.78523
1128.756, 17.85129
1129.238, 17.52127
1129.720, 16.81649
1130.203, 16.59292
1130.685, 16.90183
1131.167, 17.09937
1131.649, 17.06157
1132.131, 17.14361
1132.613, 17.54229
1133.095, 18.04200
1133.577, 18.41647
1134.059, 18.60640
1134.542, 18.25680
1135.024, 17.43110
1135.506, 16.92607
1135.988, 16.80383
1136.470, 16.98260
1136.952, 17.42806
1137.434, 17.80465
1137.916, 17.82679
1138.399, 17.62262
1138.881, 17.32206
1139.363, 17.01798
1139.845, 17.14625
1140.327, 17.57944
1140.809, 17.63144
1141.291, 17.24584
1141.773, 17.08040
1142.255, 17.50188
1142.738, 18.06716
1143.220, 18.30725
1143.702, 18.31548
1144.184, 18.20044
1144.666, 17.99560
1145.148, 17.72798
1145.630, 17.44019
1146.112, 17.22095
1146.594, 17.10348
1147.077, 17.09462
1147.559, 17.18954
1148.041, 17.41286
1148.523, 18.00774
1149.005, 18.56378
1149.487, 18.47318
1149.969, 18.02206
1150.451, 17.72052
1150.934, 17.67078
1151.416, 17.83145
1151.898, 18.26821
1152.380, 18.55496
1152.862, 18.29409
1153.344, 17.97816
1153.826, 17.95642
1154.308, 18.03997
1154.791, 17.96021
1155.273, 17.81588
1155.755, 17.95519
1156.237, 18.46901
1156.719, 18.74842
1157.201, 18.31832
1157.683, 18.05698
1158.165, 18.50426
1158.647, 18.89293
1159.130, 18.56146
1159.612, 18.00558
1160.094, 18.01623
1160.576, 18.53267
1161.058, 18.65724
1161.540, 17.98301
1162.022, 17.59726
1162.504, 17.80965
1162.986, 17.84266
1163.469, 17.19769
1163.951, 16.67673
1164.433, 17.01693
1164.915, 17.84573
1165.397, 18.32409
1165.879, 18.44288
1166.361, 18.23575
1166.843, 17.54018
1167.325, 17.14890
1167.808, 17.25599
1168.290, 17.36828
1168.772, 17.21650
1169.254, 17.06180
1169.736, 17.22347
1170.218, 17.63196
1170.700, 18.07824
1171.182, 18.55396
1171.665, 18.69397
1172.147, 18.48869
1172.629, 18.33268
1173.111, 18.33138
1173.593, 18.15908
1174.075, 17.55705
1174.557, 16.95265
1175.039, 17.13865
1175.521, 17.78572
1176.004, 17.93307
1176.486, 17.74499
1176.968, 17.77694
1177.450, 18.01055
1177.932, 17.92403
1178.414, 17.37317
1178.896, 17.04031
1179.378, 17.62028
1179.860, 18.33897
1180.343, 18.36205
1180.825, 18.00311
1181.307, 17.49301
1181.789, 16.99013
1182.271, 16.71119
1182.753, 16.67438
1183.235, 16.79645
1183.717, 17.06623
1184.200, 17.35892
1184.682, 17.76141
1185.164, 17.97713
1185.646, 17.55718
1186.128, 17.14071
1186.610, 17.49981
1187.092, 18.18448
1187.574, 18.22238
1188.057, 17.53921
1188.539, 17.15276
1189.021, 17.34060
1189.503, 17.64930
1189.985, 18.34625
1190.467, 18.74295
1190.949, 18.48519
1191.431, 17.94619
1191.913, 17.29811
1192.396, 16.68732
1192.878, 16.54935
1193.360, 16.96988
1193.842, 17.16160
1194.324, 17.03829
1194.806, 17.00253
1195.288, 17.11711
1195.770, 17.35863
1196.252, 17.77353
1196.735, 18.04527
1197.217, 17.74349
1197.699, 17.11349
1198.181, 16.96597
1198.663, 17.24935
1199.145, 17.47203
1199.627, 17.63263
1200.109, 18.04730
1200.592, 18.72793
1201.074, 18.99761
1201.556, 18.44586
1202.038, 17.67232
1202.520, 17.29604
1203.002, 17.21672
1203.484, 17.33984
1203.966, 17.59451
1204.448, 17.97550
1204.931, 18.34421
1205.413, 18.31875
1205.895, 17.87913
1206.377, 17.53267
1206.859, 17.58457
1207.341, 17.64904
1207.823, 17.36612
1208.305, 17.15055
1208.787, 17.33332
1209.270, 17.70150
1209.752, 18.16582
1210.234, 18.57692
1210.716, 18.59810
1211.198, 18.15088
1211.680, 17.85163
1212.162, 17.89529
1212.644, 17.92889
1213.127, 18.06909
1213.609, 17.95492
1214.091, 17.11692
1214.573, 16.37077
1215.055, 16.58423
1215.537, 17.46428
1216.019, 18.15085
1216.501, 18.66779
1216.984, 18.71624
1217.466, 18.21430
1217.948, 17.76620
1218.430, 17.46571
1218.912, 17.31990
1219.394, 17.33694
1219.876, 17.48170
1220.358, 17.75015
1220.840, 18.03544
1221.323, 18.06411
1221.805, 17.90324
1222.287, 17.73461
1222.769, 17.58972
1223.251, 17.52246
1223.733, 17.54717
1224.215, 17.69659
1224.697, 17.98742
1225.179, 18.24494
1225.662, 18.41337
1226.144, 18.37738
1226.626, 17.74964
1227.108, 17.11287
1227.590, 17.20868
1228.072, 17.68596
1228.554, 17.89949
1229.036, 17.81387
1229.519, 17.83945
1230.001, 18.20465
1230.483, 18.27214
1230.965, 17.48915
1231.447, 16.95042
1231.929, 17.09696
1232.411, 17.49277
1232.893, 18.12918
1233.375, 18.61943
1233.858, 18.29322
1234.340, 17.27691
1234.822, 16.70397
1235.304, 16.63260
1235.786, 16.79082
1236.268, 17.25176
1236.750, 17.39303
1237.232, 17.02330
1237.714, 16.62105
1238.197, 16.49089
1238.679, 16.47626
1239.161, 16.34883
1239.643, 16.17552
1240.125, 16.09750
1240.607, 16.13504
1241.089, 16.41253
1241.571, 16.85324
1242.054, 17.26891
1242.536, 17.56624
1243.018, 17.51587
1243.500, 16.93138
1243.982, 16.47370
1244.464, 16.83987
1244.946, 17.28641
1245.428, 17.22853
1245.910, 16.99042
1246.393, 16.89550
1246.875, 16.86837
1247.357, 16.69208
1247.839, 16.37462
1248.321, 16.21577
1248.803, 16.31030
1249.285, 16.45558
1249.767, 16.69573
1250.250, 16.89880
1250.732, 17.08578
1251.214, 17.12615
1251.696, 16.86969
1252.178, 16.54430
1252.660, 16.50326
1253.142, 16.68512
1253.624, 16.73714
1254.106, 16.66341
1254.589, 16.69903
1255.071, 16.84139
1255.553, 16.85252
1256.035, 16.68221
1256.517, 16.42899
1256.999, 16.14590
1257.481, 15.97893
1257.963, 16.17172
1258.445, 16.10438
1258.928, 16.49249
1259.410, 16.44376
1259.892, 16.74442
1260.374, 17.15479
1260.856, 17.12220
1261.338, 16.68340
1261.820, 16.37411
1262.302, 16.34555
1262.785, 16.50439
1263.267, 17.19516
1263.749, 17.53628
1264.231, 16.89344
1264.713, 16.23350
1265.195, 16.07392
1265.677, 16.22793
1266.159, 16.59362
1266.641, 17.06036
1267.124, 17.16757
1267.606, 16.87314
1268.088, 16.50488
1268.570, 16.03473
1269.052, 15.86927
1269.534, 16.08470
1270.016, 16.07609
1270.498, 15.56649
1270.980, 15.27608
1271.463, 16.02289
1271.945, 16.95876
1272.427, 16.54621
1272.909, 15.52260
1273.391, 15.07668
1273.873, 15.06363
1274.355, 15.23335
1274.837, 15.45410
1275.320, 15.49354
1275.802, 15.30619
1276.284, 15.23777
1276.766, 15.52481
1277.248, 15.79018
1277.730, 15.97395
1278.212, 16.02893
1278.694, 15.72848
1279.177, 15.49656
1279.659, 15.80701
1280.141, 16.34088
1280.623, 16.52894
1281.105, 16.37562
1281.587, 15.83527
1282.069, 15.93425
1282.551, 16.00261
1283.033, 15.67309
1283.516, 16.34316
1283.998, 16.26057
1284.480, 16.04829
1284.962, 16.09394
1285.444, 16.21669
1285.926, 16.23743
##END=



