##NAMES=Forsterite
##RRUFFID=R060551
##IDEAL CHEMISTRY=Mg_2_SiO_4_
##LOCALITY=Kohiston, Pakistan
##OWNER=RRUFF
##SOURCE=Gemological Institute of America
##DESCRIPTION=Pale green fragment
##STATUS=The identification of this mineral has been confirmed by X-ray diffraction and chemical analysis
##URL=rruff.info/R060551
##MEASURED CHEMISTRY=(Mg_1.82_Fe_0.18_)_Î£=2_Si_1.00_O_4_; trace amounts of Mn
91.62726, 0.0000000E+00
92.10938, 2.856550
92.59149, 2.842679
93.07361, 2.847897
93.55573, 2.870728
94.03784, 2.892833
94.51996, 2.905310
95.00208, 2.905848
95.48419, 2.882767
95.96631, 2.794190
96.44843, 2.686411
96.93054, 2.706126
97.41266, 2.865639
97.89478, 3.085365
98.37689, 3.315366
98.85901, 3.553270
99.34113, 3.687493
99.82324, 3.637658
100.3054, 3.404351
100.7875, 3.196704
101.2696, 3.006986
101.7517, 2.852958
102.2338, 2.763020
102.7159, 2.740064
103.1981, 2.775700
103.6802, 2.898888
104.1623, 3.183556
104.6444, 3.302797
105.1265, 3.155754
105.6086, 2.841968
106.0908, 2.752283
106.5729, 3.046835
107.0550, 3.379076
107.5371, 3.550507
108.0192, 3.473966
108.5013, 3.366027
108.9835, 3.178848
109.4656, 2.920988
109.9477, 2.849383
110.4298, 3.222911
110.9119, 3.639879
111.3940, 3.832858
111.8762, 3.388519
112.3583, 3.129200
112.8404, 3.256102
113.3225, 3.815134
113.8046, 4.330452
114.2867, 4.790106
114.7689, 5.157792
115.2510, 5.392155
115.7331, 5.381603
116.2152, 5.325883
116.6973, 5.280063
117.1794, 5.237430
117.6616, 5.260297
118.1437, 5.401948
118.6258, 5.622283
119.1079, 5.849764
119.5900, 6.021840
120.0721, 6.214225
120.5543, 6.497393
121.0364, 6.930282
121.5185, 7.333525
122.0006, 7.563725
122.4827, 7.669620
122.9648, 7.794881
123.4470, 7.994277
123.9291, 8.265355
124.4112, 8.620956
124.8933, 9.118641
125.3754, 9.619646
125.8575, 9.932364
126.3397, 10.09037
126.8218, 10.30105
127.3039, 10.78380
127.7860, 11.42574
128.2681, 11.99111
128.7502, 12.38245
129.2324, 12.68610
129.7145, 13.06989
130.1966, 13.53603
130.6787, 13.94942
131.1608, 14.16084
131.6429, 14.19698
132.1251, 14.19355
132.6072, 14.13916
133.0893, 14.08123
133.5714, 14.20054
134.0535, 14.51566
134.5356, 14.92287
135.0178, 15.33785
135.4999, 15.76042
135.9820, 16.09434
136.4641, 16.18699
136.9462, 16.05620
137.4283, 16.38633
137.9105, 17.32254
138.3926, 18.46823
138.8747, 19.13110
139.3568, 19.22766
139.8389, 19.20971
140.3210, 19.26511
140.8032, 19.41455
141.2853, 19.50665
141.7674, 19.46514
142.2495, 19.41216
142.7316, 19.65569
143.2137, 20.25677
143.6959, 20.80176
144.1780, 21.19768
144.6601, 21.37981
145.1422, 21.60925
145.6243, 21.93999
146.1064, 22.32426
146.5886, 22.59019
147.0707, 22.71966
147.5528, 22.75712
148.0349, 22.72942
148.5170, 22.68762
148.9991, 22.49873
149.4813, 21.94184
149.9634, 21.10269
150.4455, 20.85853
150.9276, 21.98634
151.4097, 23.17115
151.8918, 23.58962
152.3740, 22.42117
152.8561, 21.45368
153.3382, 20.84721
153.8203, 20.59718
154.3024, 20.53464
154.7845, 20.93748
155.2667, 21.36972
155.7488, 21.50913
156.2309, 21.00704
156.7130, 20.51482
157.1951, 20.17254
157.6772, 19.98993
158.1594, 19.84858
158.6415, 19.68332
159.1236, 19.56411
159.6057, 19.55935
160.0878, 19.78766
160.5699, 20.03972
161.0521, 20.24615
161.5342, 20.39725
162.0163, 20.53814
162.4984, 20.76650
162.9805, 20.97414
163.4626, 21.02399
163.9448, 20.69818
164.4269, 20.33245
164.9090, 20.09910
165.3911, 20.02567
165.8732, 20.01711
166.3553, 20.06820
166.8375, 20.14844
167.3196, 20.20741
167.8017, 20.14865
168.2838, 20.10612
168.7659, 20.21087
169.2480, 20.52293
169.7302, 20.80229
170.2123, 20.88654
170.6944, 20.81760
171.1765, 20.68930
171.6586, 20.43023
172.1407, 20.19130
172.6229, 20.13932
173.1050, 20.33795
173.5871, 20.60808
174.0692, 20.80275
174.5513, 20.94201
175.0334, 21.08260
175.5156, 21.33617
175.9977, 21.59093
176.4798, 21.65449
176.9619, 21.43486
177.4440, 21.16134
177.9261, 21.05594
178.4083, 21.10715
178.8904, 21.27369
179.3725, 21.66723
179.8546, 22.14214
180.3367, 22.39635
180.8188, 22.32680
181.3010, 22.10287
181.7831, 21.89785
182.2652, 21.71995
182.7473, 21.62203
183.2294, 21.79283
183.7115, 22.09025
184.1937, 22.06958
184.6758, 21.50410
185.1579, 20.75112
185.6400, 20.47270
186.1221, 20.65298
186.6042, 20.85635
187.0864, 20.50207
187.5685, 19.79531
188.0506, 19.73534
188.5327, 20.80645
189.0148, 22.40263
189.4969, 23.27946
189.9791, 23.42131
190.4612, 23.09171
190.9433, 22.30203
191.4254, 21.12535
191.9075, 20.11174
192.3896, 19.36822
192.8718, 18.88909
193.3539, 18.71199
193.8360, 18.86570
194.3181, 19.07951
194.8002, 19.07230
195.2823, 18.85109
195.7645, 18.73047
196.2466, 18.80340
196.7287, 19.02639
197.2108, 19.22136
197.6929, 19.37824
198.1750, 19.55118
198.6572, 19.85243
199.1393, 20.29568
199.6214, 20.55098
200.1035, 20.47830
200.5856, 20.14428
201.0677, 19.93129
201.5499, 19.83747
202.0320, 19.86250
202.5141, 19.99582
202.9962, 20.23091
203.4783, 20.64171
203.9604, 21.33240
204.4426, 22.24434
204.9247, 22.84827
205.4068, 23.06973
205.8889, 23.15775
206.3710, 23.32627
206.8531, 23.56846
207.3353, 23.92875
207.8174, 24.43301
208.2995, 25.07370
208.7816, 25.74881
209.2637, 26.44214
209.7458, 27.18686
210.2280, 28.04571
210.7101, 29.07224
211.1922, 30.00533
211.6743, 30.72630
212.1564, 31.24318
212.6385, 32.03211
213.1207, 33.17228
213.6028, 34.44057
214.0849, 35.59131
214.5670, 36.54697
215.0491, 37.59711
215.5313, 38.86665
216.0134, 40.35745
216.4955, 41.56792
216.9776, 42.38603
217.4597, 43.09264
217.9418, 43.99181
218.4240, 45.12340
218.9061, 46.33175
219.3882, 47.67152
219.8703, 49.13500
220.3524, 50.20246
220.8345, 50.67304
221.3167, 50.98147
221.7988, 51.63078
222.2809, 52.89379
222.7630, 53.85599
223.2451, 54.34826
223.7272, 54.37346
224.2094, 53.94947
224.6915, 52.89156
225.1736, 51.58337
225.6557, 50.45999
226.1378, 49.68040
226.6199, 48.68907
227.1021, 47.26012
227.5842, 45.37757
228.0663, 43.96373
228.5484, 43.20205
229.0305, 42.69143
229.5126, 42.06297
229.9948, 41.27303
230.4769, 40.44920
230.9590, 39.54935
231.4411, 38.57801
231.9232, 37.85739
232.4053, 37.47050
232.8875, 37.23643
233.3696, 37.02291
233.8517, 36.93171
234.3338, 36.65034
234.8159, 36.03837
235.2980, 35.10209
235.7802, 34.45857
236.2623, 34.30250
236.7444, 34.22839
237.2265, 33.90133
237.7086, 33.23362
238.1907, 32.47486
238.6729, 31.59098
239.1550, 30.60064
239.6371, 29.85641
240.1192, 29.54000
240.6013, 29.26527
241.0834, 28.71621
241.5656, 27.74521
242.0477, 26.79681
242.5298, 25.87991
243.0119, 25.01019
243.4940, 24.37475
243.9761, 24.11468
244.4583, 23.92181
244.9404, 23.57086
245.4225, 22.97065
245.9046, 22.39205
246.3867, 21.85369
246.8688, 21.35561
247.3510, 20.89518
247.8331, 20.45829
248.3152, 20.07724
248.7973, 19.77984
249.2794, 19.60466
249.7615, 19.43345
250.2437, 19.27590
250.7258, 19.11739
251.2079, 18.87361
251.6900, 18.45577
252.1721, 18.07881
252.6542, 17.89635
253.1364, 18.06179
253.6185, 18.04573
254.1006, 17.70171
254.5827, 17.16569
255.0648, 16.96018
255.5469, 17.26430
256.0291, 17.61320
256.5112, 17.77034
256.9933, 17.68790
257.4754, 17.52099
257.9575, 17.21971
258.4396, 16.85392
258.9218, 16.63174
259.4039, 16.58109
259.8860, 16.61917
260.3681, 16.71345
260.8502, 16.87379
261.3323, 17.07910
261.8145, 17.38837
262.2966, 17.70635
262.7787, 17.80354
263.2608, 17.58148
263.7429, 17.34603
264.2250, 17.23499
264.7072, 17.29615
265.1893, 17.28118
265.6714, 17.15051
266.1535, 16.97680
266.6356, 16.88180
267.1177, 16.86134
267.5999, 16.93182
268.0820, 17.14675
268.5641, 17.55226
269.0462, 17.74860
269.5283, 17.66595
270.0104, 17.46380
270.4926, 17.40870
270.9747, 17.57673
271.4568, 17.61105
271.9389, 17.27414
272.4210, 16.53891
272.9031, 16.40999
273.3853, 17.07178
273.8674, 18.00883
274.3495, 18.57108
274.8316, 18.71725
275.3137, 18.71326
275.7958, 18.54371
276.2780, 18.24082
276.7601, 18.28913
277.2422, 18.78590
277.7243, 19.38367
278.2064, 19.67883
278.6885, 19.62558
279.1707, 19.66998
279.6528, 19.92607
280.1349, 20.36349
280.6170, 20.84006
281.0991, 21.36360
281.5812, 21.89779
282.0634, 22.34774
282.5455, 22.71231
283.0276, 23.28330
283.5097, 24.16127
283.9918, 25.25629
284.4739, 26.31931
284.9561, 27.35736
285.4382, 28.31399
285.9203, 29.08760
286.4024, 29.68827
286.8845, 30.42242
287.3666, 31.36844
287.8488, 32.41050
288.3309, 33.19769
288.8130, 33.71891
289.2951, 34.42863
289.7772, 35.76229
290.2593, 37.59442
290.7415, 39.23115
291.2236, 40.52969
291.7057, 41.75185
292.1878, 43.30408
292.6699, 45.17124
293.1520, 47.17524
293.6342, 49.16778
294.1163, 51.21275
294.5984, 53.36981
295.0805, 55.60678
295.5626, 58.19741
296.0447, 61.69609
296.5269, 65.96060
297.0090, 70.31664
297.4911, 74.24892
297.9732, 78.06495
298.4553, 82.42742
298.9374, 87.35998
299.4196, 92.45230
299.9017, 97.53036
300.3838, 102.4251
300.8659, 106.6332
301.3480, 110.1255
301.8301, 112.6916
302.3123, 114.0524
302.7944, 114.2202
303.2765, 113.1919
303.7586, 110.7455
304.2407, 107.1396
304.7228, 102.7273
305.2050, 97.29892
305.6871, 91.45669
306.1692, 85.72540
306.6513, 80.11454
307.1334, 75.16369
307.6155, 71.28078
308.0977, 68.18940
308.5798, 65.53902
309.0619, 63.25216
309.5440, 61.32035
310.0261, 59.68433
310.5082, 58.37952
310.9904, 57.51812
311.4725, 57.28584
311.9546, 57.44650
312.4367, 57.78599
312.9188, 58.24974
313.4009, 58.94622
313.8831, 60.17501
314.3652, 61.66297
314.8473, 62.91325
315.3294, 63.83502
315.8115, 64.38020
316.2936, 64.49557
316.7758, 64.15690
317.2579, 63.53384
317.7400, 62.43909
318.2221, 61.17493
318.7042, 60.10355
319.1863, 59.20212
319.6685, 58.64012
320.1506, 58.51270
320.6327, 58.82505
321.1148, 59.41245
321.5969, 60.49681
322.0790, 61.69447
322.5612, 62.70890
323.0433, 63.28471
323.5254, 63.85912
324.0075, 64.55107
324.4896, 65.34476
324.9717, 66.08337
325.4539, 67.13555
325.9360, 67.86655
326.4181, 67.91268
326.9002, 67.01027
327.3823, 65.72774
327.8644, 63.93781
328.3466, 61.76918
328.8287, 59.61492
329.3108, 57.27419
329.7929, 55.11621
330.2750, 53.34654
330.7571, 52.17985
331.2393, 50.84637
331.7214, 49.04313
332.2035, 47.17954
332.6856, 45.96461
333.1677, 45.79474
333.6498, 45.68612
334.1320, 45.38464
334.6141, 44.87382
335.0962, 44.34807
335.5783, 43.82306
336.0604, 43.26694
336.5425, 42.65237
337.0247, 42.00896
337.5068, 41.22331
337.9889, 40.23638
338.4710, 39.07347
338.9531, 37.92814
339.4352, 36.81554
339.9174, 35.66673
340.3995, 34.46017
340.8816, 33.19703
341.3637, 31.77968
341.8458, 30.10408
342.3279, 28.33171
342.8101, 26.75791
343.2922, 25.38738
343.7743, 24.26851
344.2564, 23.52668
344.7385, 23.13578
345.2206, 22.72510
345.7028, 22.28503
346.1849, 21.78397
346.6670, 21.07273
347.1491, 20.17525
347.6312, 19.46591
348.1133, 19.20949
348.5955, 19.27186
349.0776, 19.16784
349.5597, 18.87842
350.0418, 18.61147
350.5239, 18.66596
351.0060, 18.93350
351.4882, 19.06411
351.9703, 18.85955
352.4524, 18.53211
352.9345, 18.42174
353.4166, 18.50809
353.8987, 18.60813
354.3809, 18.59264
354.8630, 18.50306
355.3451, 18.38624
355.8272, 18.21944
356.3093, 18.09781
356.7914, 18.12925
357.2736, 18.27816
357.7557, 18.44752
358.2378, 18.62696
358.7199, 18.77741
359.2020, 18.84217
359.6841, 18.79536
360.1663, 18.77835
360.6484, 18.94514
361.1305, 19.17418
361.6126, 19.29495
362.0947, 19.17245
362.5768, 18.99054
363.0590, 18.75284
363.5411, 18.46721
364.0232, 18.39775
364.5053, 18.76549
364.9874, 19.31200
365.4695, 19.83653
365.9517, 20.35278
366.4338, 20.78353
366.9159, 21.01796
367.3980, 21.13016
367.8801, 21.41598
368.3622, 22.24467
368.8444, 22.98730
369.3265, 23.34696
369.8086, 23.00244
370.2907, 22.83816
370.7728, 23.04177
371.2549, 23.36689
371.7371, 23.41276
372.2192, 23.09919
372.7013, 22.61086
373.1834, 21.96726
373.6655, 21.14837
374.1476, 20.32200
374.6298, 19.42375
375.1119, 18.61984
375.5940, 18.10192
376.0761, 17.95972
376.5582, 17.83796
377.0403, 17.70025
377.5225, 17.53703
378.0046, 17.26700
378.4867, 16.85654
378.9688, 16.48239
379.4509, 16.27628
379.9330, 16.24269
380.4152, 16.23139
380.8973, 16.25680
381.3794, 16.24860
381.8615, 16.04770
382.3436, 15.65635
382.8257, 15.28773
383.3079, 15.02026
383.7900, 14.84708
384.2721, 14.76099
384.7542, 14.76968
385.2363, 14.78585
385.7184, 14.74495
386.2006, 14.64503
386.6827, 14.46034
387.1648, 14.07859
387.6469, 13.72127
388.1290, 13.76706
388.6111, 14.14389
389.0933, 14.44124
389.5754, 14.24707
390.0575, 13.88657
390.5396, 13.76103
391.0217, 13.99223
391.5038, 14.29918
391.9860, 14.53761
392.4681, 14.70822
392.9502, 14.81488
393.4323, 14.79393
393.9144, 14.75828
394.3965, 14.75269
394.8787, 14.77798
395.3608, 14.88618
395.8429, 15.20749
396.3250, 15.56744
396.8071, 15.81147
397.2892, 15.67986
397.7714, 15.67387
398.2535, 15.96194
398.7356, 16.48848
399.2177, 16.97668
399.6998, 17.40764
400.1819, 17.78705
400.6641, 18.09318
401.1462, 18.16880
401.6283, 18.50003
402.1104, 19.20743
402.5925, 20.11382
403.0746, 20.96913
403.5568, 21.77077
404.0389, 22.52265
404.5210, 23.20166
405.0031, 23.80749
405.4852, 24.48425
405.9673, 25.22462
406.4495, 26.05652
406.9316, 27.08278
407.4137, 28.36788
407.8958, 29.35190
408.3779, 29.86293
408.8600, 30.11908
409.3422, 30.68841
409.8243, 31.58658
410.3064, 32.51529
410.7885, 33.12908
411.2706, 33.58991
411.7527, 34.76274
412.2349, 36.76585
412.7170, 39.01232
413.1991, 40.81297
413.6812, 42.28151
414.1633, 43.73700
414.6454, 45.31881
415.1276, 46.92984
415.6097, 48.57809
416.0918, 50.20048
416.5739, 51.44766
417.0560, 51.81445
417.5381, 51.77596
418.0203, 51.90543
418.5024, 52.37732
418.9845, 52.87099
419.4666, 53.17215
419.9487, 53.35185
420.4308, 53.53617
420.9130, 53.46496
421.3951, 53.67272
421.8772, 54.53809
422.3593, 56.11369
422.8414, 57.68689
423.3235, 58.59310
423.8057, 59.66442
424.2878, 61.55916
424.7699, 65.64122
425.2520, 69.07687
425.7341, 71.01974
426.2162, 71.93510
426.6984, 73.63139
427.1805, 76.61771
427.6626, 79.78296
428.1447, 82.84469
428.6268, 85.95605
429.1089, 88.36502
429.5911, 90.21809
430.0732, 91.23791
430.5553, 91.07007
431.0374, 89.60859
431.5195, 87.38274
432.0016, 84.46816
432.4838, 80.87344
432.9659, 76.38831
433.4480, 70.87688
433.9301, 65.32763
434.4122, 60.28541
434.8943, 55.76915
435.3765, 52.01863
435.8586, 49.17350
436.3407, 46.72861
436.8228, 43.91857
437.3049, 40.85979
437.7870, 38.11845
438.2692, 36.12731
438.7513, 34.49340
439.2334, 32.60954
439.7155, 30.49693
440.1976, 28.52862
440.6797, 27.05876
441.1619, 25.85537
441.6440, 24.62629
442.1261, 23.25767
442.6082, 21.95593
443.0903, 20.79016
443.5724, 19.78111
444.0546, 18.97396
444.5367, 18.55156
445.0188, 18.19551
445.5009, 17.73334
445.9830, 17.13473
446.4651, 16.60612
446.9473, 16.18911
447.4294, 15.85489
447.9115, 15.58459
448.3936, 15.50215
448.8757, 15.32018
449.3578, 14.92105
449.8400, 14.40633
450.3221, 14.11383
450.8042, 14.17036
451.2863, 14.24825
451.7684, 14.22670
452.2505, 14.10128
452.7327, 13.88111
453.2148, 13.51469
453.6969, 13.15047
454.1790, 13.00382
454.6611, 13.08653
455.1432, 13.14612
455.6254, 13.13333
456.1075, 13.05223
456.5896, 12.88865
457.0717, 12.64322
457.5538, 12.40596
458.0359, 12.22085
458.5181, 12.08933
459.0002, 12.01631
459.4823, 12.00479
459.9644, 12.03818
460.4465, 12.13225
460.9286, 12.25714
461.4108, 12.35491
461.8929, 12.43073
462.3750, 12.44765
462.8571, 12.31511
463.3392, 12.07454
463.8214, 11.92487
464.3035, 11.96579
464.7856, 12.12479
465.2677, 12.38775
465.7498, 12.83473
466.2319, 13.15207
466.7141, 13.18196
467.1962, 13.06621
467.6783, 12.98663
468.1604, 13.04597
468.6425, 13.04963
469.1246, 12.89401
469.6068, 12.60764
470.0889, 12.55730
470.5710, 12.92121
471.0531, 13.27765
471.5352, 13.37156
472.0173, 13.10061
472.4995, 12.94450
472.9816, 12.93090
473.4637, 13.00523
473.9458, 13.11670
474.4279, 13.27389
474.9100, 13.33350
475.3922, 13.18496
475.8743, 12.93428
476.3564, 12.95523
476.8385, 13.24477
477.3206, 13.51849
477.8027, 13.48344
478.2849, 13.28591
478.7670, 13.26101
479.2491, 13.49024
479.7312, 13.72991
480.2133, 13.73343
480.6954, 13.58251
481.1776, 13.42897
481.6597, 13.31315
482.1418, 13.23696
482.6239, 13.20978
483.1060, 13.22772
483.5881, 13.26484
484.0703, 13.37732
484.5524, 13.45903
485.0345, 13.42998
485.5166, 13.20360
485.9987, 13.03689
486.4808, 12.95626
486.9630, 12.95925
487.4451, 13.05105
487.9272, 13.42759
488.4093, 13.60478
488.8914, 13.37245
489.3735, 12.81002
489.8557, 12.68937
490.3378, 13.20195
490.8199, 13.72068
491.3020, 13.83848
491.7841, 13.52142
492.2662, 13.26085
492.7484, 13.07673
493.2305, 12.94389
493.7126, 12.83484
494.1947, 12.74958
494.6768, 12.69733
495.1589, 12.67689
495.6411, 12.69538
496.1232, 12.80429
496.6053, 12.98609
497.0874, 13.11639
497.5695, 13.05536
498.0516, 12.93053
498.5338, 12.89944
499.0159, 12.99476
499.4980, 13.09303
499.9801, 13.14142
500.4622, 13.14282
500.9443, 13.10121
501.4265, 12.94080
501.9086, 12.81999
502.3907, 12.78688
502.8728, 12.83228
503.3549, 12.91351
503.8370, 13.14923
504.3192, 13.30470
504.8013, 13.26996
505.2834, 12.98199
505.7655, 12.77627
506.2476, 12.63042
506.7297, 12.59136
507.2119, 12.75181
507.6940, 13.19339
508.1761, 13.48774
508.6582, 13.54642
509.1403, 13.44878
509.6224, 13.36186
510.1046, 13.28498
510.5867, 13.24256
511.0688, 13.23838
511.5509, 13.27827
512.0330, 13.39756
512.5151, 13.59848
512.9973, 13.80913
513.4794, 14.00185
513.9615, 14.15725
514.4436, 14.24135
514.9257, 14.23643
515.4078, 14.18279
515.8900, 14.02642
516.3721, 13.84942
516.8542, 13.80735
517.3363, 14.08040
517.8184, 14.38571
518.3005, 14.63382
518.7827, 14.81848
519.2648, 14.90240
519.7469, 14.73848
520.2290, 14.57872
520.7111, 14.55144
521.1932, 14.63557
521.6754, 14.91916
522.1575, 15.54869
522.6396, 16.25990
523.1217, 16.62711
523.6038, 16.52526
524.0859, 16.54620
524.5681, 16.84805
525.0502, 17.36674
525.5323, 17.91044
526.0144, 18.48330
526.4965, 19.04211
526.9786, 19.54487
527.4608, 20.01887
527.9429, 20.48646
528.4250, 20.93895
528.9071, 21.55669
529.3892, 22.67666
529.8713, 24.04357
530.3535, 25.20675
530.8356, 25.93054
531.3177, 26.58776
531.7998, 27.38447
532.2819, 28.30182
532.7640, 29.25642
533.2462, 30.10140
533.7283, 31.10243
534.2104, 32.40548
534.6925, 34.02483
535.1746, 35.74372
535.6567, 37.56773
536.1389, 39.46476
536.6210, 41.34412
537.1031, 43.05758
537.5852, 45.19576
538.0673, 48.01768
538.5494, 51.05639
539.0316, 53.48269
539.5137, 55.21632
539.9958, 57.06620
540.4779, 59.42641
540.9600, 61.99193
541.4421, 63.98493
541.9243, 65.39350
542.4064, 66.02102
542.8885, 65.58858
543.3706, 64.30651
543.8527, 62.55225
544.3348, 60.36132
544.8170, 57.64412
545.2991, 53.83434
545.7812, 49.64735
546.2633, 45.93456
546.7454, 43.23877
547.2275, 40.72643
547.7097, 37.94496
548.1918, 35.08403
548.6739, 32.63148
549.1560, 30.67032
549.6381, 29.12274
550.1202, 28.10253
550.6024, 27.62381
551.0845, 27.02010
551.5666, 26.17912
552.0487, 25.36133
552.5308, 24.75970
553.0129, 24.41453
553.4951, 24.03645
553.9772, 23.59303
554.4593, 23.15972
554.9414, 22.85073
555.4235, 22.65855
555.9056, 22.49565
556.3878, 22.34043
556.8699, 22.19775
557.3520, 22.07574
557.8341, 21.97475
558.3162, 21.89914
558.7983, 21.73996
559.2805, 21.67672
559.7626, 21.95432
560.2447, 22.59385
560.7268, 23.18958
561.2089, 23.51413
561.6910, 23.74111
562.1732, 24.01052
562.6553, 24.38784
563.1374, 24.74023
563.6195, 24.99033
564.1016, 25.22610
564.5837, 25.57129
565.0659, 26.01285
565.5480, 26.59882
566.0301, 27.36679
566.5122, 28.28443
566.9943, 29.19032
567.4764, 30.08020
567.9586, 30.94330
568.4407, 31.70471
568.9228, 32.40340
569.4049, 33.30285
569.8870, 34.40812
570.3691, 35.62395
570.8513, 36.86987
571.3334, 38.15494
571.8155, 39.43641
572.2976, 40.70056
572.7797, 42.02322
573.2618, 43.53813
573.7440, 45.14815
574.2261, 46.71334
574.7082, 48.00713
575.1903, 49.40618
575.6724, 51.11854
576.1545, 53.09718
576.6367, 54.92310
577.1188, 56.38651
577.6009, 57.84765
578.0830, 59.52029
578.5651, 61.50756
579.0472, 63.09706
579.5294, 64.21145
580.0115, 65.09980
580.4936, 65.96542
580.9757, 66.81341
581.4578, 67.83202
581.9399, 69.16084
582.4221, 70.40284
582.9042, 70.80568
583.3863, 70.54304
583.8684, 70.35020
584.3505, 70.69181
584.8326, 71.14005
585.3148, 71.10472
585.7969, 70.71651
586.2790, 70.57941
586.7611, 71.11817
587.2432, 71.93300
587.7253, 72.88046
588.2075, 74.03047
588.6896, 74.77138
589.1717, 74.71937
589.6538, 74.37840
590.1359, 74.11582
590.6180, 73.85438
591.1002, 73.85093
591.5823, 74.26768
592.0644, 74.80605
592.5465, 74.81345
593.0286, 74.15464
593.5107, 74.02412
593.9929, 74.90328
594.4750, 76.41899
594.9571, 77.54573
595.4392, 78.33818
595.9213, 79.39225
596.4034, 81.18761
596.8856, 83.40864
597.3677, 85.58751
597.8498, 87.70840
598.3319, 90.11667
598.8140, 93.22118
599.2961, 96.56731
599.7783, 99.80067
600.2604, 102.8603
600.7425, 105.8005
601.2246, 108.7110
601.7067, 111.5044
602.1888, 114.0519
602.6710, 116.4485
603.1531, 118.4820
603.6352, 120.1446
604.1173, 121.4165
604.5994, 122.2648
605.0815, 122.7220
605.5637, 122.5295
606.0458, 121.4425
606.5279, 119.6316
607.0100, 117.7852
607.4921, 115.9260
607.9742, 113.5816
608.4564, 110.3312
608.9385, 106.4187
609.4206, 102.1249
609.9027, 97.37723
610.3848, 92.79708
610.8669, 89.13699
611.3491, 85.69180
611.8312, 81.65463
612.3133, 76.00399
612.7954, 70.89635
613.2775, 66.96124
613.7596, 63.84048
614.2418, 60.79765
614.7239, 57.77790
615.2060, 54.96582
615.6881, 52.36794
616.1702, 49.97857
616.6523, 47.72183
617.1345, 45.57415
617.6166, 43.58392
618.0987, 41.80846
618.5808, 40.21210
619.0629, 38.67395
619.5450, 37.19361
620.0272, 35.73967
620.5093, 34.20277
620.9914, 32.70484
621.4735, 31.44528
621.9556, 30.48003
622.4377, 29.65881
622.9199, 28.96165
623.4020, 28.32876
623.8841, 27.69355
624.3662, 26.96323
624.8483, 26.31498
625.3304, 25.81585
625.8126, 25.40627
626.2947, 24.95099
626.7768, 24.42526
627.2589, 23.92322
627.7410, 23.48306
628.2231, 23.08878
628.7053, 22.64486
629.1874, 22.14691
629.6695, 21.66954
630.1516, 21.25973
630.6337, 20.90754
631.1158, 20.60027
631.5980, 20.33980
632.0801, 20.04923
632.5622, 19.67078
633.0443, 19.23167
633.5264, 18.72648
634.0085, 18.06651
634.4907, 17.58303
634.9728, 17.60791
635.4549, 17.78796
635.9370, 17.70399
636.4191, 17.00871
636.9012, 16.47142
637.3834, 16.19151
637.8655, 16.09480
638.3476, 16.03639
638.8297, 16.03406
639.3118, 15.98674
639.7939, 15.85033
640.2761, 15.64852
640.7582, 15.44748
641.2403, 15.24669
641.7224, 15.07771
642.2045, 14.99880
642.6866, 14.94064
643.1688, 14.79576
643.6509, 14.55939
644.1330, 14.32926
644.6151, 14.14157
645.0972, 13.99339
645.5793, 13.88865
646.0615, 13.84459
646.5436, 13.80122
647.0257, 13.77398
647.5078, 13.72887
647.9899, 13.61877
648.4720, 13.37119
648.9542, 13.25586
649.4363, 13.35241
649.9184, 13.52880
650.4005, 13.51499
650.8826, 13.31495
651.3647, 13.16231
651.8469, 13.16073
652.3290, 13.22287
652.8111, 13.16527
653.2932, 13.02643
653.7753, 12.96889
654.2574, 13.19526
654.7396, 13.44819
655.2217, 13.53617
655.7038, 13.45639
656.1859, 13.32258
656.6680, 13.05224
657.1501, 12.83129
657.6323, 12.80510
658.1144, 13.06174
658.5965, 13.09203
659.0786, 12.75276
659.5607, 12.39814
660.0428, 12.39567
660.5250, 12.77548
661.0071, 12.91300
661.4892, 12.70355
661.9713, 12.40691
662.4534, 12.36789
662.9355, 12.51347
663.4177, 12.63486
663.8998, 12.64632
664.3819, 12.65707
664.8640, 12.83063
665.3461, 13.06257
665.8282, 13.15119
666.3104, 12.84914
666.7925, 12.57752
667.2746, 12.48989
667.7567, 12.56249
668.2388, 12.63074
668.7209, 12.74538
669.2031, 12.76900
669.6852, 12.60870
670.1673, 12.28630
670.6494, 12.13580
671.1315, 12.16938
671.6136, 12.27304
672.0958, 12.40706
672.5779, 12.54550
673.0600, 12.58439
673.5421, 12.51400
674.0242, 12.47931
674.5063, 12.66357
674.9885, 12.91184
675.4706, 13.04746
675.9527, 13.00588
676.4348, 12.93872
676.9169, 12.87044
677.3990, 12.81408
677.8812, 12.78451
678.3633, 12.77845
678.8454, 12.81187
679.3275, 12.92059
679.8096, 13.03925
680.2917, 13.02244
680.7739, 12.85955
681.2560, 12.72985
681.7381, 12.67714
682.2202, 12.69694
682.7023, 12.80334
683.1844, 12.98244
683.6666, 13.17390
684.1487, 13.43641
684.6308, 13.62892
685.1129, 13.54998
685.5950, 13.26264
686.0771, 13.13099
686.5593, 13.47044
687.0414, 13.82556
687.5235, 13.95643
688.0056, 13.84094
688.4877, 13.81916
688.9698, 13.93751
689.4520, 14.06636
689.9341, 14.13981
690.4162, 14.15751
690.8983, 14.05851
691.3804, 13.82042
691.8625, 13.60381
692.3447, 13.56556
692.8268, 13.66638
693.3089, 13.86012
693.7910, 14.16824
694.2731, 14.43386
694.7552, 14.53577
695.2374, 14.53860
695.7195, 14.51641
696.2016, 14.40346
696.6837, 14.37550
697.1658, 14.53773
697.6479, 14.76548
698.1301, 14.86735
698.6122, 14.79547
699.0943, 14.73451
699.5764, 14.72360
700.0585, 14.74109
700.5406, 14.70218
701.0228, 14.62044
701.5049, 14.64603
701.9870, 14.93579
702.4691, 15.29642
702.9512, 15.44728
703.4333, 15.43737
703.9155, 15.45119
704.3976, 15.63007
704.8797, 15.81328
705.3618, 15.90586
705.8439, 15.90476
706.3260, 15.91896
706.8082, 15.91403
707.2903, 15.98094
707.7724, 16.19992
708.2545, 16.58780
708.7366, 16.76068
709.2188, 16.67917
709.7009, 16.55939
710.1830, 16.57221
710.6651, 16.69002
711.1472, 16.85394
711.6293, 17.06399
712.1115, 17.22751
712.5936, 17.21642
713.0757, 17.14529
713.5578, 17.15081
714.0399, 17.29974
714.5220, 17.42056
715.0042, 17.36178
715.4863, 17.30518
715.9684, 17.46156
716.4505, 18.02421
716.9326, 18.35181
717.4147, 18.30765
717.8969, 18.13388
718.3790, 18.25653
718.8611, 18.65870
719.3432, 18.93875
719.8253, 18.96179
720.3074, 18.89170
720.7896, 18.93398
721.2717, 19.05538
721.7538, 19.18064
722.2359, 19.29453
722.7180, 19.38541
723.2001, 19.39198
723.6823, 19.36461
724.1644, 19.45565
724.6465, 19.80872
725.1286, 20.13115
725.6107, 20.37372
726.0928, 20.53277
726.5750, 20.56369
727.0571, 20.44313
727.5392, 20.33899
728.0213, 20.29452
728.5034, 20.33606
728.9855, 20.58278
729.4677, 21.00860
729.9498, 21.42966
730.4319, 21.82640
730.9140, 22.08887
731.3961, 22.02822
731.8782, 21.64083
732.3604, 21.42982
732.8425, 21.71446
733.3246, 22.06532
733.8067, 22.24052
734.2888, 22.18933
734.7709, 22.32722
735.2531, 22.74854
735.7352, 23.11744
736.2173, 23.07064
736.6994, 22.69786
737.1815, 22.60263
737.6636, 22.83671
738.1458, 23.16596
738.6279, 23.44482
739.1100, 23.65661
739.5921, 23.74824
740.0742, 23.65951
740.5563, 23.64470
741.0385, 23.90817
741.5206, 24.23588
742.0027, 24.40712
742.4848, 24.25024
742.9669, 24.26152
743.4490, 24.50824
743.9312, 24.84818
744.4133, 25.13634
744.8954, 25.37085
745.3775, 25.42680
745.8596, 25.20672
746.3417, 25.02785
746.8239, 25.47433
747.3060, 26.23261
747.7881, 26.67418
748.2702, 26.34715
748.7523, 26.01053
749.2344, 26.01002
749.7166, 26.24470
750.1987, 26.53436
750.6808, 26.92122
751.1629, 27.27124
751.6450, 27.55590
752.1271, 27.79812
752.6093, 28.05259
753.0914, 28.32401
753.5735, 28.53923
754.0556, 28.62185
754.5377, 28.69634
755.0198, 29.03358
755.5020, 29.55247
755.9841, 29.98820
756.4662, 30.18530
756.9483, 30.29122
757.4304, 30.32723
757.9125, 30.33144
758.3947, 30.45032
758.8768, 30.91084
759.3589, 31.22955
759.8410, 31.18830
760.3231, 30.89710
760.8052, 30.99926
761.2874, 31.54817
761.7695, 32.11489
762.2516, 32.53274
762.7337, 32.81823
763.2158, 32.94821
763.6979, 32.95729
764.1801, 33.03270
764.6622, 33.24917
765.1443, 33.60186
765.6264, 34.17242
766.1085, 34.94250
766.5906, 35.55054
767.0728, 35.78556
767.5549, 36.01228
768.0370, 36.39589
768.5191, 36.92960
769.0012, 37.20324
769.4833, 37.15664
769.9655, 37.19859
770.4476, 37.71992
770.9297, 38.51339
771.4118, 39.02690
771.8939, 39.26311
772.3760, 39.48736
772.8582, 39.89867
773.3403, 40.35101
773.8224, 40.71676
774.3045, 40.96886
774.7866, 41.27866
775.2687, 41.64508
775.7509, 42.10262
776.2330, 42.70553
776.7151, 43.48367
777.1972, 44.12033
777.6793, 44.61042
778.1614, 45.00417
778.6436, 45.25064
779.1257, 45.44529
779.6078, 45.82426
780.0899, 46.41066
780.5720, 47.05485
781.0541, 47.66044
781.5363, 48.28710
782.0184, 48.99324
782.5005, 49.82764
782.9826, 50.59722
783.4647, 51.25721
783.9468, 51.88770
784.4290, 52.53974
784.9111, 53.21833
785.3932, 53.86993
785.8753, 54.46143
786.3574, 55.16779
786.8395, 56.37932
787.3217, 57.77703
787.8038, 58.58372
788.2859, 58.59106
788.7680, 58.84464
789.2501, 60.19410
789.7322, 61.94367
790.2144, 63.53573
790.6965, 64.86224
791.1786, 66.01137
791.6607, 66.72988
792.1428, 67.57873
792.6249, 69.16737
793.1071, 71.54594
793.5892, 73.48999
794.0713, 74.89227
794.5534, 76.14686
795.0355, 77.50301
795.5176, 79.06180
795.9998, 81.00694
796.4819, 83.38371
796.9640, 86.07333
797.4461, 89.24734
797.9282, 92.60067
798.4103, 95.84090
798.8925, 98.84470
799.3746, 102.0192
799.8567, 105.2256
800.3388, 108.7620
800.8209, 112.9676
801.3030, 117.7969
801.7852, 122.5315
802.2673, 127.0567
802.7494, 132.0954
803.2315, 138.3394
803.7136, 145.5190
804.1957, 153.2097
804.6779, 161.3450
805.1600, 170.1852
805.6421, 179.7102
806.1242, 190.0960
806.6063, 201.3875
807.0884, 213.4543
807.5706, 226.7924
808.0527, 241.3853
808.5348, 257.3906
809.0169, 275.4870
809.4990, 295.3275
809.9811, 315.5886
810.4633, 336.0925
810.9454, 357.5941
811.4275, 380.7396
811.9096, 405.5851
812.3917, 431.8403
812.8738, 459.4064
813.3560, 488.9733
813.8381, 520.2688
814.3202, 553.9459
814.8023, 590.5528
815.2844, 629.6201
815.7665, 672.5133
816.2487, 719.5069
816.7308, 769.9843
817.2129, 824.0529
817.6950, 881.5659
818.1771, 942.4370
818.6592, 1006.375
819.1414, 1073.325
819.6235, 1148.205
820.1056, 1223.550
820.5877, 1293.749
821.0698, 1358.172
821.5519, 1415.568
822.0341, 1469.892
822.5162, 1511.530
822.9983, 1534.628
823.4804, 1539.174
823.9625, 1524.805
824.4446, 1491.288
824.9268, 1441.649
825.4089, 1373.436
825.8910, 1293.194
826.3731, 1209.662
826.8552, 1122.029
827.3373, 1038.151
827.8195, 958.1297
828.3016, 884.4291
828.7837, 817.0605
829.2658, 756.6727
829.7479, 702.1000
830.2300, 654.4359
830.7122, 612.0687
831.1943, 574.8495
831.6764, 542.3113
832.1585, 514.4496
832.6406, 491.3105
833.1227, 471.2151
833.6049, 453.8017
834.0870, 438.7555
834.5691, 425.5161
835.0512, 414.1142
835.5333, 404.7072
836.0154, 397.5752
836.4976, 391.6611
836.9797, 386.2904
837.4618, 381.4376
837.9439, 378.7989
838.4260, 378.4072
838.9081, 378.7886
839.3903, 378.1173
839.8724, 377.9930
840.3545, 380.7321
840.8366, 386.3033
841.3187, 393.3296
841.8008, 400.8607
842.2830, 409.9616
842.7651, 421.4041
843.2472, 435.1098
843.7293, 449.0370
844.2114, 462.5779
844.6935, 478.3754
845.1757, 497.9317
845.6578, 520.5693
846.1399, 545.0701
846.6220, 571.3853
847.1041, 599.2305
847.5862, 627.0931
848.0684, 657.6121
848.5505, 693.2021
849.0326, 733.1023
849.5147, 774.9320
849.9968, 818.3986
850.4789, 863.0402
850.9611, 909.1780
851.4432, 956.1912
851.9253, 1002.901
852.4074, 1049.207
852.8895, 1092.230
853.3716, 1131.038
853.8538, 1164.295
854.3359, 1191.901
854.8180, 1212.351
855.3001, 1221.764
855.7822, 1219.757
856.2643, 1205.383
856.7465, 1175.472
857.2286, 1134.239
857.7107, 1087.503
858.1928, 1034.610
858.6749, 977.9409
859.1570, 916.5026
859.6392, 853.5528
860.1213, 793.7389
860.6034, 737.3031
861.0855, 685.0162
861.5676, 636.6871
862.0497, 592.4066
862.5319, 553.6586
863.0140, 518.7081
863.4961, 486.0590
863.9782, 454.6271
864.4603, 426.3528
864.9424, 401.3691
865.4246, 378.6958
865.9067, 356.7526
866.3888, 335.7938
866.8709, 316.1332
867.3530, 297.8824
867.8351, 280.9920
868.3173, 265.2910
868.7994, 250.5467
869.2815, 236.4245
869.7636, 222.4702
870.2457, 209.9710
870.7278, 199.1380
871.2100, 189.5084
871.6921, 180.8977
872.1742, 173.4109
872.6563, 166.7656
873.1384, 161.0209
873.6205, 155.7465
874.1027, 150.3862
874.5848, 145.3780
875.0669, 141.4935
875.5490, 138.8113
876.0311, 136.3605
876.5132, 133.4793
876.9954, 131.0958
877.4775, 129.7269
877.9596, 129.3421
878.4417, 128.6438
878.9238, 127.5206
879.4059, 126.7540
879.8881, 127.2462
880.3702, 128.1651
880.8523, 127.9356
881.3344, 126.6511
881.8165, 124.7097
882.2986, 122.2026
882.7808, 119.1833
883.2629, 115.7794
883.7450, 111.8825
884.2271, 107.1109
884.7092, 101.0693
885.1913, 95.26747
885.6735, 90.06353
886.1556, 85.36203
886.6377, 80.97001
887.1198, 76.94642
887.6019, 73.22491
888.0840, 69.83735
888.5662, 66.68086
889.0483, 63.57056
889.5304, 60.67534
890.0125, 58.33056
890.4946, 56.78835
890.9767, 55.34078
891.4589, 53.94739
891.9410, 52.61558
892.4231, 51.31172
892.9052, 50.04650
893.3873, 48.94414
893.8694, 48.02961
894.3516, 47.16344
894.8337, 46.11427
895.3158, 45.11364
895.7979, 44.44774
896.2800, 44.33580
896.7621, 43.98698
897.2443, 43.22182
897.7264, 42.39108
898.2085, 41.71821
898.6906, 41.20237
899.1727, 40.73198
899.6548, 40.31055
900.1370, 39.99659
900.6191, 39.93420
901.1012, 39.93946
901.5833, 39.78833
902.0654, 39.49400
902.5475, 39.29645
903.0297, 39.24369
903.5118, 39.32806
903.9939, 39.57282
904.4760, 39.95027
904.9581, 40.33155
905.4402, 40.71587
905.9224, 41.19227
906.4045, 41.84078
906.8866, 42.56353
907.3687, 43.19799
907.8508, 43.81889
908.3329, 44.57938
908.8151, 45.65213
909.2972, 46.71403
909.7793, 47.51635
910.2614, 48.38774
910.7435, 49.91713
911.2256, 52.16669
911.7078, 54.25301
912.1899, 55.99445
912.6720, 57.78333
913.1541, 60.02845
913.6362, 62.64450
914.1183, 65.45811
914.6005, 68.35815
915.0826, 71.72987
915.5647, 76.08408
916.0468, 80.64855
916.5289, 84.97414
917.0110, 89.10115
917.4932, 92.93360
917.9753, 96.58009
918.4574, 99.20070
918.9395, 100.1893
919.4216, 99.71449
919.9037, 98.05622
920.3859, 95.19344
920.8680, 90.95727
921.3501, 84.18053
921.8322, 77.09970
922.3143, 70.36074
922.7964, 64.09048
923.2786, 58.56164
923.7607, 53.75721
924.2428, 49.85048
924.7249, 47.11347
925.2070, 45.08348
925.6891, 43.17468
926.1713, 41.42151
926.6534, 39.92049
927.1355, 38.73574
927.6176, 37.77577
928.0997, 37.12827
928.5818, 36.62602
929.0640, 36.03265
929.5461, 35.28549
930.0282, 34.83821
930.5103, 34.78065
930.9924, 34.85535
931.4745, 34.78396
931.9567, 34.64470
932.4388, 34.52020
932.9209, 34.40231
933.4030, 34.49452
933.8851, 35.12231
934.3672, 35.76774
934.8494, 36.09951
935.3315, 36.10774
935.8136, 36.20503
936.2957, 36.38630
936.7778, 36.70061
937.2599, 37.26411
937.7421, 37.93330
938.2242, 38.42363
938.7063, 38.81159
939.1884, 39.40603
939.6705, 40.57059
940.1526, 41.67918
940.6348, 42.43244
941.1169, 43.04880
941.5990, 44.07887
942.0811, 45.57008
942.5632, 46.78235
943.0453, 47.41550
943.5275, 48.03645
944.0096, 49.43248
944.4917, 51.30154
944.9738, 53.17091
945.4559, 54.90280
945.9380, 56.67025
946.4202, 58.37259
946.9023, 60.28463
947.3844, 62.63404
947.8665, 65.46191
948.3486, 68.35777
948.8307, 71.32861
949.3129, 74.19205
949.7950, 76.37656
950.2771, 78.65745
950.7592, 82.18028
951.2413, 86.82073
951.7234, 90.99268
952.2056, 93.41123
952.6877, 96.28159
953.1698, 100.2726
953.6519, 105.1373
954.1340, 110.1217
954.6161, 115.2431
955.0983, 120.3932
955.5804, 125.5837
956.0625, 130.6776
956.5446, 135.4427
957.0267, 140.0299
957.5089, 144.6665
957.9910, 149.4934
958.4731, 154.3020
958.9552, 159.4272
959.4373, 164.1056
959.9194, 167.6360
960.4016, 170.0642
960.8837, 171.7842
961.3658, 172.8044
961.8479, 173.1959
962.3300, 173.2035
962.8121, 172.4451
963.2943, 170.4906
963.7764, 167.2935
964.2585, 163.7061
964.7406, 159.8083
965.2227, 155.5857
965.7048, 150.9324
966.1870, 146.0483
966.6691, 141.2685
967.1512, 136.5240
967.6333, 131.6359
968.1154, 126.4458
968.5975, 121.1279
969.0797, 115.4096
969.5618, 109.7467
970.0439, 104.6503
970.5260, 100.3338
971.0081, 96.15462
971.4902, 92.15990
971.9724, 88.14392
972.4545, 83.70708
972.9366, 79.13767
973.4187, 75.38877
973.9008, 72.54768
974.3829, 69.73338
974.8651, 66.28709
975.3472, 62.99009
975.8293, 60.26777
976.3114, 58.08541
976.7935, 56.02076
977.2756, 54.08844
977.7578, 52.16397
978.2399, 50.19401
978.7220, 48.20451
979.2041, 46.20291
979.6862, 44.24598
980.1683, 42.46304
980.6505, 40.78695
981.1326, 39.42727
981.6147, 38.55347
982.0968, 37.85582
982.5789, 36.97775
983.0610, 35.91780
983.5432, 34.94416
984.0253, 34.07160
984.5074, 33.23579
984.9895, 32.26164
985.4716, 31.35708
985.9537, 30.78160
986.4359, 30.56637
986.9180, 30.30009
987.4001, 29.90404
987.8822, 29.51080
988.3643, 29.20414
988.8464, 28.91916
989.3286, 28.35503
989.8107, 27.59453
990.2928, 27.05454
990.7749, 27.05615
991.2570, 27.11306
991.7391, 26.91037
992.2213, 26.57268
992.7034, 26.28532
993.1855, 26.11011
993.6676, 25.82165
994.1497, 25.36953
994.6318, 24.93427
995.1140, 24.72766
995.5961, 24.66770
996.0782, 24.59766
996.5603, 24.50387
997.0424, 24.39502
997.5245, 24.38227
998.0067, 24.23370
998.4888, 23.74670
998.9709, 23.04204
999.4530, 22.68476
999.9351, 22.69803
1000.417, 22.67828
1000.899, 22.46711
1001.381, 22.20466
1001.864, 22.04822
1002.346, 21.95655
1002.828, 21.86814
1003.310, 21.78862
1003.792, 21.66918
1004.274, 21.48818
1004.756, 21.29498
1005.238, 21.13030
1005.721, 20.99105
1006.203, 20.85381
1006.685, 20.71758
1007.167, 20.54189
1007.649, 20.17681
1008.131, 19.87569
1008.613, 19.86884
1009.095, 20.10511
1009.577, 20.25871
1010.060, 20.35904
1010.542, 20.23029
1011.024, 19.73217
1011.506, 19.19542
1011.988, 19.25465
1012.470, 19.65747
1012.952, 19.86495
1013.434, 19.69387
1013.917, 19.49138
1014.399, 19.30752
1014.881, 19.21515
1015.363, 19.30440
1015.845, 19.58051
1016.327, 19.66392
1016.809, 19.55154
1017.291, 19.39437
1017.773, 19.23432
1018.256, 19.12103
1018.738, 19.15403
1019.220, 19.27372
1019.702, 19.30197
1020.184, 19.10674
1020.666, 18.99322
1021.148, 19.02362
1021.630, 19.10565
1022.112, 19.12396
1022.595, 19.07961
1023.077, 18.93944
1023.559, 18.68372
1024.041, 18.51053
1024.523, 18.63196
1025.005, 18.79963
1025.487, 18.81121
1025.969, 18.68270
1026.452, 18.74896
1026.934, 19.05007
1027.416, 19.20486
1027.898, 18.96804
1028.380, 18.59331
1028.862, 18.40394
1029.344, 18.35625
1029.826, 18.36621
1030.308, 18.52292
1030.791, 18.56144
1031.273, 18.40158
1031.755, 18.20676
1032.237, 18.15131
1032.719, 18.21243
1033.201, 18.22179
1033.683, 18.17321
1034.165, 18.11305
1034.647, 18.05460
1035.130, 18.01240
1035.612, 18.00953
1036.094, 18.03480
1036.576, 18.02026
1037.058, 17.94430
1037.540, 17.94379
1038.022, 18.09216
1038.504, 18.22608
1038.987, 18.05005
1039.469, 17.71864
1039.951, 17.49262
1040.433, 17.46422
1040.915, 17.43215
1041.397, 17.34893
1041.879, 17.25507
1042.361, 17.16059
1042.844, 17.07208
1043.326, 17.02129
1043.808, 17.01316
1044.290, 17.08518
1044.772, 17.39358
1045.254, 17.64972
1045.736, 17.62009
1046.218, 17.42472
1046.700, 17.32030
1047.183, 17.37785
1047.665, 17.29025
1048.147, 16.99697
1048.629, 16.70318
1049.111, 16.61871
1049.593, 16.67819
1050.075, 16.83879
1050.557, 17.08521
1051.040, 17.18259
1051.522, 16.96727
1052.004, 16.67448
1052.486, 16.31223
1052.968, 15.95741
1053.450, 15.91388
1053.932, 16.11396
1054.414, 16.12009
1054.896, 15.70507
1055.379, 15.33740
1055.861, 15.41574
1056.343, 15.65107
1056.825, 15.73802
1057.307, 15.62017
1057.789, 15.66795
1058.271, 15.91792
1058.753, 16.11938
1059.235, 16.09440
1059.718, 15.92906
1060.200, 15.64851
1060.682, 15.33008
1061.164, 15.18798
1061.646, 15.54431
1062.128, 15.72063
1062.610, 15.58552
1063.092, 15.31107
1063.574, 15.07965
1064.057, 14.89328
1064.539, 14.76431
1065.021, 14.69380
1065.503, 14.66424
1065.985, 14.70025
1066.467, 14.73945
1066.949, 14.70334
1067.431, 14.63425
1067.914, 14.78251
1068.396, 15.18841
1068.878, 15.33288
1069.360, 14.96516
1069.842, 14.54524
1070.324, 14.74601
1070.806, 15.16014
1071.288, 15.23378
1071.771, 14.71136
1072.253, 14.30641
1072.735, 14.01317
1073.217, 13.92020
1073.699, 14.20039
1074.181, 14.67764
1074.663, 14.79598
1075.145, 14.65355
1075.627, 14.59311
1076.110, 14.89601
1076.592, 15.14712
1077.074, 15.22369
1077.556, 15.18145
1078.038, 15.04854
1078.520, 14.82548
1079.002, 14.63047
1079.484, 14.47077
1079.967, 14.41507
1080.449, 14.63823
1080.931, 14.88529
1081.413, 14.90563
1081.895, 15.06858
1082.377, 15.20703
1082.859, 15.15340
1083.341, 15.35757
1083.823, 15.26529
1084.306, 15.08481
1084.788, 15.15305
1085.270, 15.30581
1085.752, 15.26297
1086.234, 14.92556
1086.716, 14.67395
1087.198, 14.53163
1087.680, 14.55501
1088.162, 14.86888
1088.645, 15.31889
1089.127, 15.33185
1089.609, 15.01528
1090.091, 14.79842
1090.573, 14.96304
1091.055, 15.09000
1091.537, 14.89610
1092.019, 14.64559
1092.501, 14.63336
1092.984, 14.89675
1093.466, 14.91226
1093.948, 14.67014
1094.430, 14.43959
1094.912, 14.39043
1095.394, 14.44807
1095.876, 14.62490
1096.358, 14.85626
1096.841, 14.93326
1097.323, 14.75181
1097.805, 14.74261
1098.287, 15.00974
1098.769, 15.27844
1099.251, 15.15183
1099.733, 14.85450
1100.215, 14.73696
1100.698, 14.83182
1101.180, 14.94455
1101.662, 15.03675
1102.144, 15.12341
1102.626, 15.19195
1103.108, 15.27712
1103.590, 15.52258
1104.072, 15.85288
1104.554, 16.02331
1105.037, 15.95375
1105.519, 15.77191
1106.001, 15.34214
1106.483, 15.01011
1106.965, 15.06701
1107.447, 15.46704
1107.929, 15.51431
1108.411, 15.23182
1108.894, 15.00210
1109.376, 15.05357
1109.858, 15.17810
1110.340, 15.19301
1110.822, 15.19498
1111.304, 15.34869
1111.786, 15.76284
1112.268, 15.90987
1112.750, 15.74205
1113.233, 15.57051
1113.715, 15.73256
1114.197, 15.95934
1114.679, 15.87849
1115.161, 15.56797
1115.643, 15.34833
1116.125, 15.33649
1116.607, 15.30926
1117.089, 15.24282
1117.572, 15.14911
1118.054, 14.97878
1118.536, 14.81216
1119.018, 14.85181
1119.500, 15.11099
1119.982, 15.36417
1120.464, 15.51972
1120.946, 15.66576
1121.428, 15.85890
1121.911, 16.03224
1122.393, 15.96538
1122.875, 15.72694
1123.357, 15.65976
1123.839, 15.90004
1124.321, 16.03428
1124.803, 15.59777
1125.285, 15.18348
1125.768, 15.23132
1126.250, 15.67505
1126.732, 15.85559
1127.214, 15.78091
1127.696, 15.64829
1128.178, 15.49147
1128.660, 15.39358
1129.142, 15.49045
1129.625, 15.65204
1130.107, 15.71869
1130.589, 15.67708
1131.071, 15.55333
1131.553, 15.32700
1132.035, 15.17326
1132.517, 15.27603
1132.999, 15.46303
1133.481, 15.57651
1133.964, 15.60811
1134.446, 15.52675
1134.928, 15.19935
1135.410, 15.02124
1135.892, 15.02114
1136.374, 15.14169
1136.856, 15.40516
1137.338, 15.71041
1137.821, 15.86267
1138.303, 15.87406
1138.785, 15.88361
1139.267, 15.94392
1139.749, 16.00054
1140.231, 16.06171
1140.713, 16.08803
1141.195, 15.97096
1141.677, 15.77812
1142.160, 15.70767
1142.642, 15.78636
1143.124, 15.88418
1143.606, 16.05273
1144.088, 16.07382
1144.570, 15.75395
1145.052, 15.31422
1145.534, 15.46638
1146.016, 16.09186
1146.499, 16.53795
1146.981, 16.62862
1147.463, 16.60207
1147.945, 16.59413
1148.427, 16.51617
1148.909, 16.23057
1149.391, 15.80061
1149.873, 15.87521
1150.355, 16.42527
1150.838, 16.81574
1151.320, 16.73109
1151.802, 16.56643
1152.284, 16.63456
1152.766, 16.77905
1153.248, 16.81522
1153.730, 16.71699
1154.212, 16.72558
1154.695, 16.85142
1155.177, 16.93962
1155.659, 16.85468
1156.141, 16.73898
1156.623, 16.76633
1157.105, 16.84928
1157.587, 16.82125
1158.069, 16.63967
1158.552, 16.44549
1159.034, 16.23604
1159.516, 16.03829
1159.998, 15.81022
1160.480, 15.65184
1160.962, 15.72106
1161.444, 15.96960
1161.926, 16.24546
1162.408, 16.66838
1162.891, 16.75688
1163.373, 16.37779
1163.855, 15.94203
1164.337, 15.90013
1164.819, 16.08929
1165.301, 16.29787
1165.783, 16.49660
1166.265, 16.62484
1166.748, 16.69699
1167.230, 16.62678
1167.712, 16.33467
1168.194, 16.02103
1168.676, 16.05528
1169.158, 16.25866
1169.640, 16.23466
1170.122, 15.93548
1170.604, 15.66803
1171.087, 15.41693
1171.569, 15.38904
1172.051, 15.71611
1172.533, 16.20723
1173.015, 16.55189
1173.497, 16.73129
1173.979, 16.64257
1174.461, 16.20929
1174.943, 15.87914
1175.426, 15.98265
1175.908, 16.03539
1176.390, 15.80030
1176.872, 15.39836
1177.354, 15.19879
1177.836, 15.17554
1178.318, 15.24968
1178.800, 15.43222
1179.282, 15.60153
1179.765, 15.77810
1180.247, 15.83809
1180.729, 15.65278
1181.211, 15.29089
1181.693, 15.15909
1182.175, 15.22173
1182.657, 15.28579
1183.139, 15.26939
1183.622, 15.24555
1184.104, 15.24739
1184.586, 15.25774
1185.068, 15.25375
1185.550, 15.23904
1186.032, 15.31139
1186.514, 15.45766
1186.996, 15.56354
1187.479, 15.59069
1187.961, 15.53251
1188.443, 15.25126
1188.925, 14.97685
1189.407, 14.98140
1189.889, 15.27551
1190.371, 15.46467
1190.853, 15.54550
1191.335, 15.59186
1191.818, 15.74913
1192.300, 15.77900
1192.782, 15.28243
1193.264, 14.71417
1193.746, 14.82864
1194.228, 15.66771
1194.710, 16.11623
1195.192, 16.10732
1195.675, 15.94474
1196.157, 15.76751
1196.639, 15.58488
1197.121, 15.30450
1197.603, 15.06048
1198.085, 15.18543
1198.567, 15.70682
1199.049, 16.02028
1199.531, 16.06346
1200.014, 15.97381
1200.496, 15.68356
1200.978, 15.46554
1201.460, 15.61009
1201.942, 15.96881
1202.424, 16.08837
1202.906, 15.95687
1203.388, 15.90285
1203.870, 15.98571
1204.353, 16.06452
1204.835, 16.04269
1205.317, 15.94774
1205.799, 15.74042
1206.281, 15.47713
1206.763, 15.34907
1207.245, 15.35602
1207.727, 15.58795
1208.209, 16.11740
1208.692, 16.53355
1209.174, 16.28911
1209.656, 15.93106
1210.138, 15.99002
1210.620, 16.37171
1211.102, 16.43904
1211.584, 16.18043
1212.066, 16.00524
1212.549, 16.03160
1213.031, 16.15068
1213.513, 16.31460
1213.995, 16.49378
1214.477, 16.68909
1214.959, 16.88752
1215.441, 16.96187
1215.923, 16.91159
1216.406, 16.86124
1216.888, 16.87234
1217.370, 16.83345
1217.852, 16.51383
1218.334, 16.20755
1218.816, 16.23358
1219.298, 16.57043
1219.780, 16.77038
1220.262, 16.83347
1220.745, 16.72833
1221.227, 16.32366
1221.709, 16.02408
1222.191, 16.29607
1222.673, 16.71809
1223.155, 16.86525
1223.637, 16.73735
1224.119, 16.70690
1224.602, 16.76909
1225.084, 16.84740
1225.566, 16.91680
1226.048, 16.97435
1226.530, 17.05553
1227.012, 17.09196
1227.494, 17.00384
1227.976, 16.79220
1228.458, 16.66050
1228.941, 16.60251
1229.423, 16.53579
1229.905, 16.40809
1230.387, 16.27827
1230.869, 16.08438
1231.351, 15.98818
1231.833, 16.18892
1232.315, 16.68239
1232.797, 16.94468
1233.280, 16.98265
1233.762, 16.87472
1234.244, 16.52269
1234.726, 16.21214
1235.208, 16.11791
1235.690, 16.11352
1236.172, 16.10652
1236.654, 16.09482
1237.136, 15.98303
1237.619, 15.78927
1238.101, 15.63623
1238.583, 15.60782
1239.065, 15.61405
1239.547, 15.60672
1240.029, 15.63256
1240.511, 15.79063
1240.993, 16.04368
1241.476, 16.02516
1241.958, 15.77209
1242.440, 15.53009
1242.922, 15.44066
1243.404, 15.34979
1243.886, 15.18878
1244.368, 15.03843
1244.850, 15.00118
1245.333, 15.04487
1245.815, 15.00398
1246.297, 14.89924
1246.779, 14.85454
1247.261, 15.01696
1247.743, 15.11900
1248.225, 15.11010
1248.707, 15.03266
1249.189, 14.90851
1249.672, 14.75502
1250.154, 14.60534
1250.636, 14.46581
1251.118, 14.36244
1251.600, 14.27403
1252.082, 14.29251
1252.564, 14.48399
1253.046, 14.66174
1253.529, 14.61569
1254.011, 14.42512
1254.493, 14.20646
1254.975, 13.97888
1255.457, 13.79105
1255.939, 13.59868
1256.421, 13.58930
1256.903, 13.84840
1257.385, 14.07095
1257.868, 13.82259
1258.350, 13.43147
1258.832, 13.45001
1259.314, 13.78014
1259.796, 13.91620
1260.278, 13.69787
1260.760, 13.56784
1261.242, 13.58110
1261.724, 13.61542
1262.207, 13.54408
1262.689, 13.44113
1263.171, 13.39175
1263.653, 13.38229
1264.135, 13.35043
1264.617, 13.28992
1265.099, 13.21219
1265.581, 13.11211
1266.063, 13.05799
1266.546, 13.16932
1267.028, 13.29603
1267.510, 13.33707
1267.992, 13.28460
1268.474, 13.09742
1268.956, 12.74687
1269.438, 12.68912
1269.920, 12.96781
1270.403, 13.22247
1270.885, 13.15658
1271.367, 13.00737
1271.849, 12.89614
1272.331, 12.80799
1272.813, 12.70858
1273.295, 12.60057
1273.777, 12.53429
1274.260, 12.51136
1274.742, 12.48856
1275.224, 12.40670
1275.706, 12.36415
1276.188, 12.42162
1276.670, 12.50937
1277.152, 12.52512
1277.634, 12.48500
1278.116, 12.45878
1278.599, 12.44761
1279.081, 12.41468
1279.563, 12.27729
1280.045, 12.22147
1280.527, 12.32367
1281.009, 12.44514
1281.491, 12.34662
1281.973, 12.15873
1282.456, 12.23766
1282.938, 12.15718
1283.420, 12.06518
1283.902, 12.21467
1284.384, 12.00365
1284.866, 12.12863
1285.348, 12.34210
1285.830, 12.41581
1286.313, 12.38278
1286.795, 12.26116
1287.277, 12.06728
1287.759, 11.84312
1288.241, 11.51836
1288.723, 11.49181
1289.205, 11.85433
1289.687, 12.15186
1290.169, 11.84263
1290.651, 11.41900
1291.134, 11.34501
1291.616, 11.51354
1292.098, 11.54826
1292.580, 11.42566
1293.062, 11.49406
1293.544, 11.78212
1294.026, 11.97776
1294.508, 11.74800
1294.990, 11.47740
1295.473, 11.36805
1295.955, 11.36754
1296.437, 11.46461
1296.919, 11.63235
1297.401, 11.57232
1297.883, 11.29958
1298.365, 11.16061
1298.847, 11.57559
1299.330, 11.80795
1299.812, 11.54376
1300.294, 11.21995
1300.776, 11.47476
1301.258, 12.03010
1301.740, 12.04815
1302.222, 11.61845
1302.704, 11.32731
1303.187, 11.54096
1303.669, 11.67270
1304.151, 11.68767
##END=



