##NAMES=Forsterite
##RRUFFID=R100101
##IDEAL CHEMISTRY=Mg_2_SiO_4_
##LOCALITY=Yancey County,  North Carolina, USA
##OWNER=RRUFF
##SOURCE=American Museum of Natural History
##DESCRIPTION=Pale green consolidated aggregate of grains
##STATUS=The identification of this mineral is confirmed by single-crystal X-ray diffraction and chemical analysis.
##URL=rruff.info/R100101
##MEASURED CHEMISTRY=(Mg_1.809_Fe_0.183_Ni_0.008_Mn_0.003_)_Î£=2.003_Si_0.999_O_4_
140.2270, 39.18654
140.7091, 39.83239
141.1912, 40.39604
141.6733, 40.71940
142.1555, 40.79212
142.6376, 40.56610
143.1197, 39.51094
143.6018, 38.73230
144.0839, 38.47514
144.5660, 38.55695
145.0482, 38.71167
145.5303, 38.80532
146.0124, 38.82255
146.4945, 38.64737
146.9766, 38.01683
147.4587, 37.49382
147.9409, 37.45193
148.4230, 37.78685
148.9051, 37.97869
149.3872, 37.53951
149.8693, 36.63939
150.3514, 36.27213
150.8336, 37.05943
151.3157, 38.01395
151.7978, 38.13475
152.2799, 37.29528
152.7620, 36.39529
153.2441, 36.21663
153.7263, 36.44564
154.2084, 36.57990
154.6905, 36.39483
155.1726, 36.01282
155.6547, 35.68854
156.1368, 35.41252
156.6190, 35.22602
157.1011, 35.19185
157.5832, 35.24854
158.0653, 35.27478
158.5474, 35.17004
159.0295, 34.94814
159.5117, 34.79911
159.9938, 34.85237
160.4759, 34.84897
160.9580, 34.66639
161.4401, 34.34356
161.9222, 33.98742
162.4044, 33.66750
162.8865, 33.35551
163.3686, 33.25316
163.8507, 33.49574
164.3328, 33.81244
164.8149, 34.15545
165.2971, 34.48444
165.7792, 34.73321
166.2613, 34.84872
166.7434, 34.90237
167.2255, 34.52361
167.7076, 33.14783
168.1898, 31.78022
168.6719, 31.23419
169.1540, 31.63602
169.6361, 32.40320
170.1182, 32.71566
170.6003, 32.32345
171.0825, 32.08271
171.5646, 32.13234
172.0467, 32.31196
172.5288, 32.43995
173.0109, 32.46223
173.4930, 32.44285
173.9752, 32.50213
174.4573, 32.65858
174.9394, 32.76006
175.4215, 32.75699
175.9036, 32.66720
176.3857, 32.53016
176.8679, 32.35442
177.3500, 32.13088
177.8321, 31.82492
178.3142, 31.42135
178.7963, 31.07449
179.2784, 30.93082
179.7606, 30.95855
180.2427, 30.89617
180.7248, 30.55952
181.2069, 30.21112
181.6890, 30.12760
182.1711, 30.33910
182.6533, 30.55705
183.1354, 30.44147
183.6175, 29.93138
184.0996, 29.57211
184.5817, 29.67910
185.0638, 29.86234
185.5460, 29.90265
186.0281, 29.75284
186.5102, 29.50742
186.9923, 29.30131
187.4744, 29.16995
187.9565, 28.98010
188.4387, 28.52017
188.9208, 28.11705
189.4029, 28.08867
189.8850, 28.51265
190.3671, 29.11261
190.8492, 29.36138
191.3314, 29.03683
191.8135, 28.68152
192.2956, 28.13081
192.7777, 27.66411
193.2598, 27.58889
193.7419, 28.01698
194.2241, 28.74020
194.7062, 29.25666
195.1883, 29.42779
195.6704, 29.52376
196.1525, 29.40000
196.6346, 29.25171
197.1168, 29.40101
197.5989, 30.00677
198.0810, 30.79471
198.5631, 30.93503
199.0452, 29.68497
199.5273, 28.80972
200.0095, 28.81733
200.4916, 29.34866
200.9737, 29.81548
201.4558, 29.94964
201.9379, 29.88052
202.4200, 30.00855
202.9022, 30.52793
203.3843, 30.87811
203.8664, 30.71163
204.3485, 30.20167
204.8306, 29.82574
205.3127, 29.79744
205.7949, 30.02432
206.2770, 30.28119
206.7591, 30.59450
207.2412, 30.88245
207.7233, 31.08777
208.2054, 31.22131
208.6876, 31.33544
209.1697, 31.40416
209.6518, 31.50632
210.1339, 31.73753
210.6160, 32.11249
211.0981, 32.58191
211.5803, 33.19888
212.0624, 33.96362
212.5445, 34.51741
213.0266, 34.43734
213.5087, 34.26723
213.9908, 34.57546
214.4730, 35.50463
214.9551, 36.57000
215.4372, 37.24516
215.9193, 37.49128
216.4014, 37.60557
216.8836, 37.39913
217.3657, 37.24501
217.8478, 37.47101
218.3299, 38.16114
218.8120, 38.99281
219.2941, 39.53046
219.7763, 39.71493
220.2584, 39.78791
220.7405, 39.54908
221.2226, 39.36908
221.7047, 39.60466
222.1868, 40.33340
222.6690, 41.19735
223.1511, 41.61945
223.6332, 41.43398
224.1153, 41.15792
224.5974, 40.84804
225.0795, 40.48349
225.5617, 39.96729
226.0438, 39.29810
226.5259, 38.66851
227.0080, 38.47711
227.4901, 39.24698
227.9722, 39.47783
228.4544, 38.71913
228.9365, 37.72982
229.4186, 37.09572
229.9007, 36.98091
230.3828, 37.15467
230.8649, 37.21319
231.3471, 36.95803
231.8292, 36.91985
232.3113, 37.39713
232.7934, 37.90028
233.2755, 37.96680
233.7576, 37.48821
234.2398, 36.77046
234.7219, 36.32547
235.2040, 36.35761
235.6861, 36.32089
236.1682, 36.06196
236.6503, 35.81666
237.1325, 35.90724
237.6146, 36.39711
238.0967, 36.91668
238.5788, 36.88448
239.0609, 35.95701
239.5430, 35.24343
240.0252, 35.01699
240.5073, 34.90428
240.9894, 34.44358
241.4715, 33.52543
241.9536, 32.58663
242.4357, 32.28892
242.9179, 32.85482
243.4000, 33.06615
243.8821, 32.63217
244.3642, 31.87097
244.8463, 31.05235
245.3284, 30.21650
245.8106, 29.47602
246.2927, 28.95326
246.7748, 28.64253
247.2569, 28.56968
247.7390, 29.01207
248.2211, 29.57827
248.7033, 29.77665
249.1854, 29.51185
249.6675, 29.05659
250.1496, 28.63600
250.6317, 28.24353
251.1138, 27.86456
251.5960, 27.43208
252.0781, 27.03699
252.5602, 26.82986
253.0423, 26.85277
253.5244, 26.90494
254.0065, 26.79599
254.4887, 26.57706
254.9708, 26.38164
255.4529, 26.27894
255.9350, 26.20404
256.4171, 26.08547
256.8992, 25.93073
257.3813, 25.68840
257.8635, 25.13438
258.3456, 24.47747
258.8277, 24.09896
259.3098, 24.22007
259.7919, 24.61325
260.2740, 25.00480
260.7562, 25.41887
261.2383, 25.72539
261.7204, 25.87141
262.2025, 25.85732
262.6846, 25.60236
263.1667, 24.89874
263.6489, 24.16943
264.1310, 24.14874
264.6131, 25.04551
265.0952, 25.74069
265.5773, 25.50422
266.0594, 24.89851
266.5416, 24.39657
267.0237, 24.10682
267.5058, 24.00622
267.9879, 24.11901
268.4700, 24.50302
268.9521, 24.83222
269.4343, 25.08155
269.9164, 25.18316
270.3985, 24.97433
270.8806, 24.38581
271.3627, 23.78473
271.8448, 23.70203
272.3270, 24.26359
272.8091, 24.68384
273.2912, 24.65006
273.7733, 24.49191
274.2554, 24.39418
274.7375, 24.38952
275.2197, 24.41292
275.7018, 24.37614
276.1839, 24.25976
276.6660, 24.20987
277.1481, 24.30465
277.6302, 24.43295
278.1124, 24.53040
278.5945, 24.59908
279.0766, 24.69605
279.5587, 24.90423
280.0408, 25.24460
280.5229, 25.51128
281.0051, 25.63774
281.4872, 25.73253
281.9693, 25.72302
282.4514, 25.69046
282.9335, 25.87515
283.4156, 26.63417
283.8978, 27.99142
284.3799, 28.78290
284.8620, 28.34672
285.3441, 27.97845
285.8262, 28.16847
286.3083, 28.77655
286.7905, 29.45790
287.2726, 30.00751
287.7547, 30.41789
288.2368, 30.57046
288.7189, 29.94991
289.2010, 29.70329
289.6832, 30.39266
290.1653, 31.58907
290.6474, 32.62611
291.1295, 33.08741
291.6116, 33.15425
292.0938, 33.56680
292.5759, 34.54922
293.0580, 35.58488
293.5401, 36.57655
294.0222, 37.55842
294.5043, 38.54473
294.9865, 39.53916
295.4686, 40.58860
295.9507, 41.77893
296.4328, 42.96041
296.9149, 44.60012
297.3970, 47.08678
297.8792, 49.79105
298.3613, 52.16322
298.8434, 54.04395
299.3255, 55.64077
299.8076, 57.31968
300.2897, 59.25378
300.7719, 60.85853
301.2540, 62.44391
301.7361, 63.52019
302.2182, 63.72544
302.7003, 63.02697
303.1824, 61.70864
303.6646, 60.01197
304.1467, 57.78589
304.6288, 55.74839
305.1109, 54.20121
305.5930, 52.55659
306.0751, 50.37425
306.5573, 47.78782
307.0394, 45.32549
307.5215, 43.48917
308.0036, 42.31035
308.4857, 41.16005
308.9678, 39.88092
309.4500, 38.78746
309.9321, 38.03157
310.4142, 37.53121
310.8963, 37.10784
311.3784, 36.63055
311.8605, 36.12537
312.3427, 35.79907
312.8248, 35.58128
313.3069, 35.66249
313.7890, 36.38012
314.2711, 37.31934
314.7532, 37.97525
315.2354, 38.09558
315.7175, 37.78092
316.1996, 37.28764
316.6817, 36.38583
317.1638, 35.67157
317.6459, 35.30146
318.1281, 35.07461
318.6102, 34.81716
319.0923, 34.47341
319.5744, 34.10352
320.0565, 33.79427
320.5386, 33.51548
321.0208, 33.38026
321.5029, 33.38074
321.9850, 33.50900
322.4671, 33.86505
322.9492, 34.40097
323.4313, 34.86951
323.9135, 34.95489
324.3956, 34.54102
324.8777, 34.33350
325.3598, 34.57092
325.8419, 34.79322
326.3240, 34.96660
326.8062, 34.98884
327.2883, 34.63669
327.7704, 33.62701
328.2525, 32.02557
328.7346, 30.98910
329.2167, 31.19940
329.6989, 31.22330
330.1810, 30.51176
330.6631, 29.43942
331.1452, 28.56490
331.6273, 28.18537
332.1094, 28.20358
332.5916, 28.34689
333.0737, 28.75707
333.5558, 29.04554
334.0379, 29.16500
334.5200, 29.14496
335.0021, 28.93916
335.4843, 28.54334
335.9664, 28.15238
336.4485, 28.13153
336.9306, 28.66256
337.4127, 29.01951
337.8948, 29.18814
338.3770, 29.13210
338.8591, 28.70842
339.3412, 27.96589
339.8233, 27.20057
340.3055, 26.72256
340.7876, 26.56423
341.2697, 26.38561
341.7518, 26.21607
342.2339, 25.99276
342.7160, 25.58585
343.1982, 25.09920
343.6803, 24.78474
344.1624, 24.88530
344.6445, 25.28341
345.1266, 25.37534
345.6087, 25.00875
346.0909, 24.56523
346.5730, 23.97544
347.0551, 23.45821
347.5372, 23.36825
348.0193, 23.92279
348.5014, 24.70789
348.9836, 24.93321
349.4657, 24.42980
349.9478, 23.92865
350.4299, 23.52994
350.9120, 23.26003
351.3941, 23.20025
351.8763, 23.35890
352.3584, 23.55618
352.8405, 23.58149
353.3226, 23.42792
353.8047, 23.35714
354.2868, 23.43010
354.7690, 23.57323
355.2511, 23.79150
355.7332, 24.05273
356.2153, 24.23448
356.6974, 24.20075
357.1795, 24.01451
357.6617, 23.94055
358.1438, 24.05252
358.6259, 24.12854
359.1080, 23.98727
359.5901, 23.74003
360.0722, 23.57394
360.5544, 23.61363
361.0365, 23.69580
361.5186, 23.54104
362.0007, 23.10936
362.4828, 22.76577
362.9649, 22.74029
363.4471, 22.83583
363.9292, 22.80878
364.4113, 22.60349
364.8934, 22.41771
365.3755, 22.44157
365.8576, 22.63366
366.3398, 22.75990
366.8219, 22.74273
367.3040, 22.67959
367.7861, 22.64606
368.2682, 22.64290
368.7503, 22.72303
369.2325, 22.98795
369.7146, 23.32686
370.1967, 23.56375
370.6788, 23.68622
371.1609, 23.69259
371.6430, 23.55248
372.1252, 23.28735
372.6073, 22.97445
373.0894, 22.63941
373.5715, 22.24728
374.0536, 21.65692
374.5357, 20.93078
375.0179, 20.46497
375.5000, 20.54457
375.9821, 20.92822
376.4642, 21.03992
376.9463, 20.82202
377.4284, 20.51505
377.9106, 20.05228
378.3927, 19.59134
378.8748, 19.49228
379.3569, 19.88857
379.8390, 20.35741
380.3211, 20.29673
380.8033, 19.56989
381.2854, 19.12071
381.7675, 19.21477
382.2496, 19.46822
382.7317, 19.63373
383.2138, 19.67722
383.6960, 19.59638
384.1781, 19.36388
384.6602, 18.99613
385.1423, 18.72800
385.6244, 18.52212
386.1065, 18.43351
386.5887, 18.66029
387.0708, 18.98523
387.5529, 18.95309
388.0350, 18.34313
388.5171, 17.52535
388.9992, 17.32444
389.4814, 18.42924
389.9635, 19.11273
390.4456, 19.08569
390.9277, 18.83706
391.4098, 18.80608
391.8919, 19.02382
392.3741, 19.15694
392.8562, 18.79443
393.3383, 17.79892
393.8204, 17.36969
394.3025, 17.97034
394.7846, 18.61302
395.2668, 18.97958
395.7489, 19.14168
396.2310, 19.30169
396.7131, 19.58654
397.1952, 19.91945
397.6773, 20.01870
398.1595, 19.68480
398.6416, 19.44241
399.1237, 19.32213
399.6058, 19.33004
400.0879, 19.51994
400.5700, 19.88487
401.0522, 20.28223
401.5343, 20.53767
402.0164, 20.62707
402.4985, 20.70720
402.9806, 20.73003
403.4627, 20.79721
403.9449, 20.96845
404.4270, 21.22084
404.9091, 21.48807
405.3912, 21.71396
405.8733, 21.93307
406.3554, 22.31477
406.8376, 23.03754
407.3197, 23.47672
407.8018, 22.94242
408.2839, 22.20518
408.7660, 22.14100
409.2481, 23.04544
409.7303, 24.14166
410.2124, 24.55839
410.6945, 24.35191
411.1766, 24.43377
411.6587, 25.11189
412.1408, 25.99804
412.6230, 26.73362
413.1051, 27.33602
413.5872, 27.92775
414.0693, 28.61974
414.5514, 29.31159
415.0335, 29.85002
415.5157, 30.22674
415.9978, 30.43508
416.4799, 30.34095
416.9620, 30.09417
417.4441, 30.15856
417.9262, 30.81968
418.4084, 31.43660
418.8905, 31.51288
419.3726, 31.25790
419.8547, 31.23167
420.3368, 31.64913
420.8189, 32.28664
421.3011, 32.76932
421.7832, 33.01939
422.2653, 33.45142
422.7474, 34.30438
423.2295, 35.22573
423.7116, 35.80426
424.1938, 36.07802
424.6759, 36.53733
425.1580, 37.61439
425.6401, 39.26125
426.1222, 40.61703
426.6043, 41.35896
427.0865, 42.23096
427.5686, 43.59912
428.0507, 45.15471
428.5328, 46.46039
429.0149, 47.35192
429.4970, 47.98580
429.9792, 48.63519
430.4613, 49.31198
430.9434, 49.98642
431.4255, 50.96909
431.9076, 51.68895
432.3897, 51.72041
432.8719, 51.17222
433.3540, 50.47301
433.8361, 49.94601
434.3182, 49.56600
434.8003, 49.15339
435.2824, 48.79625
435.7646, 48.25823
436.2467, 47.47356
436.7288, 46.51111
437.2109, 45.45257
437.6930, 44.32355
438.1751, 43.07799
438.6573, 41.62234
439.1394, 39.94314
439.6215, 38.23325
440.1036, 36.46478
440.5857, 34.72638
441.0678, 33.01556
441.5500, 31.36077
442.0321, 29.86478
442.5142, 28.59861
442.9963, 27.51028
443.4784, 26.52266
443.9605, 25.64809
444.4427, 24.77146
444.9248, 23.78898
445.4069, 22.80000
445.8890, 21.95661
446.3711, 21.23979
446.8532, 20.73084
447.3354, 20.65665
447.8175, 20.80424
448.2996, 20.66721
448.7817, 20.10387
449.2638, 19.43947
449.7459, 19.02184
450.2281, 18.86967
450.7102, 18.71295
451.1923, 18.55466
451.6744, 18.37797
452.1565, 18.09328
452.6386, 17.77172
453.1208, 17.64056
453.6029, 17.83546
454.0850, 18.23596
454.5671, 18.51070
455.0492, 18.77001
455.5313, 18.72443
456.0135, 18.04117
456.4956, 17.27387
456.9777, 16.88280
457.4598, 16.90943
457.9419, 17.08644
458.4240, 17.17177
458.9062, 17.16417
459.3883, 17.14146
459.8704, 17.12975
460.3525, 17.06905
460.8346, 16.89461
461.3167, 16.68308
461.7989, 16.54468
462.2810, 16.52221
462.7631, 16.53015
463.2452, 16.41385
463.7273, 16.13887
464.2094, 15.94304
464.6916, 15.86411
465.1737, 15.87177
465.6558, 16.05956
466.1379, 16.34138
466.6200, 16.42242
467.1021, 15.93560
467.5843, 15.23568
468.0664, 15.09410
468.5485, 15.58219
469.0306, 16.11832
469.5127, 16.51285
469.9948, 16.75651
470.4770, 16.83504
470.9591, 16.71632
471.4412, 16.55217
471.9233, 16.45505
472.4054, 16.35495
472.8875, 16.05337
473.3697, 15.49749
473.8518, 15.01630
474.3339, 14.89900
474.8160, 15.16353
475.2981, 15.57126
475.7802, 16.49027
476.2624, 17.16220
476.7445, 17.09577
477.2266, 16.56645
477.7087, 16.05745
478.1908, 15.75441
478.6729, 15.65349
479.1551, 15.77229
479.6372, 16.30180
480.1193, 16.59776
480.6014, 16.57744
481.0835, 16.43302
481.5656, 16.13999
482.0478, 15.80809
482.5299, 15.70204
483.0120, 16.03994
483.4941, 16.64911
483.9762, 16.83542
484.4583, 16.34546
484.9405, 15.94633
485.4226, 15.81844
485.9047, 15.80920
486.3868, 15.80388
486.8689, 15.78872
487.3510, 15.83046
487.8332, 16.05965
488.3153, 16.41277
488.7974, 16.57564
489.2795, 16.50288
489.7616, 16.32187
490.2437, 16.02266
490.7259, 15.68406
491.2080, 15.41754
491.6901, 15.22620
492.1722, 15.14735
492.6543, 15.23445
493.1364, 15.45769
493.6186, 15.78332
494.1007, 16.24850
494.5828, 16.62126
495.0649, 16.58661
495.5470, 16.09422
496.0291, 15.73594
496.5113, 15.58625
496.9934, 15.52195
497.4755, 15.46505
497.9576, 15.43523
498.4397, 15.50541
498.9218, 15.71444
499.4040, 15.99939
499.8861, 16.22702
500.3682, 16.45971
500.8503, 16.50129
501.3324, 16.27170
501.8145, 15.94362
502.2967, 15.50493
502.7788, 15.04899
503.2609, 14.81267
503.7430, 15.01410
504.2251, 15.49696
504.7072, 15.60873
505.1894, 15.11975
505.6715, 14.78806
506.1536, 14.87815
506.6357, 15.14992
507.1178, 15.48658
507.5999, 15.85736
508.0821, 16.14115
508.5642, 16.19930
509.0463, 16.10263
509.5284, 16.06110
510.0105, 16.09533
510.4926, 16.14668
510.9748, 16.19284
511.4569, 16.22657
511.9390, 16.22894
512.4211, 16.17100
512.9032, 16.13287
513.3853, 16.27851
513.8674, 16.43683
514.3495, 16.17228
514.8317, 15.38863
515.3138, 14.72966
515.7959, 14.93791
516.2780, 16.10914
516.7601, 16.67829
517.2422, 16.23194
517.7244, 15.75287
518.2065, 15.51743
518.6886, 15.47352
519.1707, 15.55111
519.6528, 15.71696
520.1349, 15.90712
520.6171, 15.99448
521.0992, 15.90750
521.5813, 16.01157
522.0634, 16.55610
522.5455, 17.04948
523.0276, 17.30443
523.5098, 17.38128
523.9919, 17.40540
524.4740, 17.42962
524.9561, 17.43289
525.4382, 17.30804
525.9203, 17.04929
526.4025, 17.08923
526.8846, 17.73746
527.3667, 18.43536
527.8488, 18.55414
528.3309, 18.19260
528.8130, 17.99178
529.2952, 18.27663
529.7773, 18.69535
530.2594, 19.05977
530.7415, 19.30673
531.2236, 19.07291
531.7057, 18.05883
532.1879, 16.88853
532.6700, 16.81594
533.1521, 18.52587
533.6342, 19.81555
534.1163, 20.30581
534.5984, 20.65194
535.0806, 21.27393
535.5627, 22.12967
536.0448, 22.98130
536.5269, 23.67985
537.0090, 24.26646
537.4911, 24.84854
537.9733, 25.42048
538.4554, 26.01233
538.9375, 26.69770
539.4196, 27.34555
539.9017, 27.85969
540.3839, 28.25606
540.8660, 28.62870
541.3481, 29.04520
541.8302, 29.47542
542.3123, 29.95787
542.7944, 30.54956
543.2766, 30.68468
543.7587, 30.03879
544.2408, 28.87774
544.7229, 27.50509
545.2050, 25.85436
545.6871, 24.56004
546.1693, 24.06465
546.6514, 23.90081
547.1335, 23.66403
547.6156, 23.29047
548.0977, 22.63589
548.5798, 21.54585
549.0620, 20.21666
549.5441, 19.31866
550.0262, 19.03497
550.5083, 18.97947
550.9904, 19.50364
551.4725, 19.98885
551.9547, 19.89110
552.4368, 19.27906
552.9189, 18.59575
553.4010, 18.14181
553.8831, 17.90892
554.3652, 17.90618
554.8474, 18.24087
555.3295, 18.53478
555.8116, 18.74134
556.2937, 18.83628
556.7758, 18.72793
557.2579, 18.43755
557.7401, 18.20613
558.2222, 18.15687
558.7043, 18.26399
559.1864, 18.55612
559.6685, 19.03289
560.1506, 19.38677
560.6328, 19.41597
561.1149, 19.27846
561.5970, 19.32076
562.0791, 19.56589
562.5612, 19.86652
563.0433, 20.30686
563.5255, 20.70838
564.0076, 20.79108
564.4897, 20.66021
564.9718, 20.78763
565.4539, 21.50546
565.9360, 22.60176
566.4182, 23.35287
566.9003, 23.61609
567.3824, 23.79972
567.8645, 23.78049
568.3466, 23.82920
568.8287, 24.08896
569.3109, 24.57143
569.7930, 25.25847
570.2751, 26.23460
570.7572, 27.31386
571.2393, 28.01687
571.7214, 28.29378
572.2036, 28.79552
572.6857, 29.89282
573.1678, 31.11234
573.6499, 31.73068
574.1320, 31.76338
574.6141, 32.31467
575.0963, 34.19044
575.5784, 36.30161
576.0605, 37.65224
576.5426, 38.40023
577.0247, 39.20744
577.5068, 40.36798
577.9890, 41.75167
578.4711, 43.11848
578.9532, 44.44164
579.4353, 45.81837
579.9174, 47.16243
580.3995, 48.63895
580.8817, 50.61202
581.3638, 52.72338
581.8459, 54.23605
582.3280, 54.76426
582.8101, 54.87895
583.2922, 55.69892
583.7744, 57.32600
584.2565, 58.05788
584.7386, 57.20406
585.2207, 56.07473
585.7029, 55.67512
586.1850, 55.72957
586.6671, 55.53690
587.1492, 54.87675
587.6313, 53.99102
588.1135, 52.97697
588.5956, 51.87824
589.0777, 50.78480
589.5598, 49.72014
590.0419, 48.68738
590.5240, 47.67035
591.0062, 46.66273
591.4883, 45.91499
591.9704, 45.79033
592.4525, 45.45400
592.9346, 44.37893
593.4167, 43.14849
593.8989, 42.47622
594.3810, 42.49194
594.8631, 42.70978
595.3452, 42.60332
595.8273, 42.21742
596.3094, 42.04042
596.7916, 42.01497
597.2737, 42.32804
597.7558, 43.33250
598.2379, 44.59253
598.7200, 45.68574
599.2021, 46.56524
599.6843, 47.30597
600.1664, 47.84729
600.6485, 48.32436
601.1306, 48.95079
601.6127, 49.72495
602.0948, 50.50865
602.5770, 51.23589
603.0591, 51.89370
603.5412, 52.44841
604.0233, 52.92470
604.5054, 53.23798
604.9875, 53.38750
605.4697, 53.37878
605.9518, 53.16840
606.4339, 52.80312
606.9160, 52.42735
607.3981, 52.15095
607.8802, 51.77687
608.3624, 50.90740
608.8445, 49.51595
609.3266, 47.79482
609.8087, 45.40283
610.2908, 43.17681
610.7729, 41.88313
611.2551, 41.24048
611.7372, 40.40755
612.2193, 39.10365
612.7014, 37.63271
613.1835, 36.09580
613.6656, 34.56905
614.1478, 33.25936
614.6299, 32.22104
615.1120, 31.21744
615.5941, 29.96897
616.0762, 28.47099
616.5583, 27.38413
617.0405, 27.07284
617.5226, 26.71035
618.0047, 26.15967
618.4868, 25.49585
618.9689, 24.72025
619.4510, 23.88153
619.9332, 23.18517
620.4153, 22.89998
620.8974, 22.87376
621.3795, 22.49039
621.8616, 21.64775
622.3438, 21.00585
622.8259, 20.92497
623.3080, 21.06578
623.7901, 21.01335
624.2722, 20.77039
624.7543, 20.34969
625.2365, 19.44467
625.7186, 18.62032
626.2007, 18.50270
626.6828, 18.86547
627.1649, 19.01081
627.6470, 18.64067
628.1292, 18.07778
628.6113, 17.85263
629.0934, 18.06438
629.5755, 18.19846
630.0576, 18.29363
630.5397, 18.26019
631.0219, 17.92141
631.5040, 17.49352
631.9861, 17.31195
632.4682, 17.48157
632.9503, 17.66525
633.4324, 17.47774
633.9146, 17.05645
634.3967, 16.89051
634.8788, 17.05112
635.3609, 17.14850
635.8430, 16.91613
636.3251, 16.48233
636.8073, 16.21565
637.2894, 16.12666
637.7715, 16.14013
638.2536, 16.44089
638.7357, 16.67962
639.2178, 16.49127
639.7000, 15.99686
640.1821, 15.60747
640.6642, 15.55321
641.1463, 15.65697
641.6284, 15.50130
642.1105, 14.98169
642.5927, 14.79338
643.0748, 15.34047
643.5569, 15.78503
644.0390, 15.48302
644.5211, 14.78545
645.0032, 14.42480
645.4854, 14.68121
645.9675, 15.03448
646.4496, 15.15138
646.9317, 15.12185
647.4138, 15.09908
647.8959, 15.10817
648.3781, 15.14407
648.8602, 15.22014
649.3423, 15.30415
649.8244, 15.23575
650.3065, 14.77801
650.7886, 14.52607
651.2708, 14.64527
651.7529, 14.84071
652.2350, 14.90559
652.7171, 14.87393
653.1992, 14.90937
653.6813, 15.12293
654.1635, 15.38336
654.6456, 15.49642
655.1277, 15.46853
655.6098, 15.33355
656.0919, 15.01514
656.5740, 14.83730
657.0562, 15.20528
657.5383, 16.00856
658.0204, 16.42019
658.5025, 16.13057
658.9846, 15.83356
659.4667, 15.76180
659.9489, 15.76022
660.4310, 15.66189
660.9131, 15.45621
661.3952, 15.21824
661.8773, 14.97983
662.3594, 14.79346
662.8416, 14.88856
663.3237, 15.40392
663.8058, 15.67395
664.2879, 15.27074
664.7700, 14.91561
665.2521, 15.30632
665.7343, 16.18962
666.2164, 16.67858
666.6985, 16.27687
667.1806, 15.74458
667.6627, 15.61697
668.1448, 15.73978
668.6270, 15.83193
669.1091, 15.83453
669.5912, 15.82250
670.0733, 15.87747
670.5554, 15.96838
671.0375, 15.85122
671.5197, 15.23267
672.0018, 14.89530
672.4839, 15.19308
672.9660, 15.54238
673.4481, 15.45986
673.9302, 15.05738
674.4124, 14.81505
674.8945, 15.01495
675.3766, 15.42025
675.8587, 15.86077
676.3408, 16.27591
676.8229, 16.31172
677.3051, 15.84000
677.7872, 15.32506
678.2693, 15.19645
678.7514, 15.41286
679.2335, 15.49711
679.7156, 15.30218
680.1978, 15.18736
680.6799, 15.23512
681.1620, 15.35852
681.6441, 15.50885
682.1262, 15.66683
682.6083, 15.82961
683.0905, 16.03440
683.5726, 16.15463
684.0547, 15.78077
684.5368, 14.91584
685.0189, 14.63688
685.5010, 15.38845
685.9832, 16.21202
686.4653, 16.19289
686.9474, 15.52976
687.4295, 15.27945
687.9116, 15.84761
688.3937, 16.30877
688.8759, 16.42555
689.3580, 16.28910
689.8401, 15.80075
690.3222, 15.10770
690.8043, 14.72609
691.2864, 15.03253
691.7686, 15.70805
692.2507, 15.96181
692.7328, 15.72114
693.2149, 15.50976
693.6970, 15.34159
694.1791, 15.29537
694.6613, 15.56667
695.1434, 15.98349
695.6255, 16.13879
696.1076, 15.83904
696.5897, 15.54350
697.0718, 15.44732
697.5540, 15.47721
698.0361, 15.56854
698.5182, 15.70211
699.0003, 15.86537
699.4824, 16.05679
699.9645, 16.23747
700.4467, 16.28943
700.9288, 16.15243
701.4109, 16.11230
701.8930, 16.23708
702.3751, 16.39975
702.8572, 16.56610
703.3394, 16.71684
703.8215, 16.83041
704.3036, 16.91610
704.7857, 16.90608
705.2678, 16.67568
705.7499, 16.37245
706.2321, 16.19732
706.7142, 16.15244
707.1963, 16.13888
707.6784, 16.10168
708.1605, 16.08852
708.6426, 16.22310
709.1248, 16.60938
709.6069, 16.77139
710.0890, 16.61149
710.5711, 16.33117
711.0532, 15.81318
711.5353, 15.30314
712.0175, 15.18894
712.4996, 15.56299
712.9817, 15.88669
713.4638, 15.63176
713.9459, 15.24290
714.4280, 15.43000
714.9102, 16.10489
715.3923, 16.72123
715.8744, 17.05543
716.3565, 17.15256
716.8386, 17.02841
717.3207, 16.60852
717.8029, 16.51407
718.2850, 17.15574
718.7671, 17.61609
719.2492, 17.57545
719.7313, 17.33195
720.2134, 17.16130
720.6956, 17.10250
721.1777, 17.07326
721.6598, 16.97279
722.1419, 16.91104
722.6240, 17.09218
723.1061, 17.44883
723.5883, 17.72117
724.0704, 17.83367
724.5525, 17.82792
725.0346, 17.73306
725.5167, 17.55222
725.9988, 17.40332
726.4810, 17.20548
726.9631, 17.16293
727.4452, 17.36259
727.9273, 17.66714
728.4094, 18.08826
728.8915, 18.53533
729.3737, 18.72091
729.8558, 18.39486
730.3379, 17.95811
730.8200, 17.84847
731.3021, 17.96848
731.7842, 18.03347
732.2664, 17.99517
732.7485, 18.01941
733.2306, 18.25088
733.7127, 18.62033
734.1948, 18.86001
734.6769, 18.99633
735.1591, 18.94644
735.6412, 18.50531
736.1233, 18.09612
736.6054, 17.91927
737.0875, 17.93292
737.5696, 18.06857
738.0518, 18.33158
738.5339, 18.55336
739.0160, 18.54870
739.4981, 18.43196
739.9802, 18.43123
740.4623, 18.54632
740.9445, 18.62161
741.4266, 18.57582
741.9087, 18.46295
742.3908, 18.36997
742.8729, 18.27848
743.3550, 18.28612
743.8372, 18.47468
744.3193, 18.66712
744.8014, 18.81942
745.2835, 18.94971
745.7656, 19.09554
746.2477, 19.25686
746.7299, 19.35570
747.2120, 19.35691
747.6941, 19.26868
748.1762, 18.95984
748.6583, 18.56525
749.1404, 18.59072
749.6226, 19.17160
750.1047, 19.79168
750.5868, 19.90210
751.0689, 19.55851
751.5510, 19.36831
752.0331, 19.34900
752.5153, 19.45286
752.9974, 19.86133
753.4795, 20.22587
753.9616, 20.23521
754.4437, 20.00994
754.9258, 19.98101
755.4080, 20.46799
755.8901, 20.81129
756.3722, 20.31793
756.8543, 19.51509
757.3364, 19.18395
757.8185, 19.37884
758.3007, 19.80408
758.7828, 20.30216
759.2649, 20.80189
759.7470, 21.16620
760.2291, 21.40837
760.7112, 21.42950
761.1934, 20.96578
761.6755, 20.68979
762.1576, 21.17813
762.6397, 21.90904
763.1218, 22.18368
763.6039, 21.89431
764.0861, 21.64188
764.5682, 21.78214
765.0503, 21.89976
765.5324, 21.44099
766.0145, 20.77269
766.4966, 20.73345
766.9788, 21.50427
767.4609, 22.38376
767.9430, 22.64300
768.4251, 22.41049
768.9072, 22.32285
769.3893, 22.39239
769.8715, 22.55891
770.3536, 22.88440
770.8357, 23.19386
771.3178, 23.27844
771.7999, 23.18991
772.2820, 23.19927
772.7642, 23.47607
773.2463, 23.64319
773.7284, 23.48646
774.2105, 23.26493
774.6926, 23.19937
775.1747, 23.28082
775.6569, 23.40315
776.1390, 23.51385
776.6211, 23.64239
777.1032, 23.87879
777.5853, 24.18371
778.0674, 24.28970
778.5496, 24.14840
779.0317, 24.07129
779.5138, 24.21913
779.9959, 24.50573
780.4780, 24.79140
780.9601, 25.08590
781.4423, 25.33822
781.9244, 25.75846
782.4065, 25.88682
782.8886, 25.11452
783.3707, 24.26063
783.8528, 24.37888
784.3350, 25.45620
784.8171, 26.39367
785.2992, 26.41932
785.7813, 26.07920
786.2634, 25.93918
786.7455, 26.03078
787.2277, 26.63679
787.7098, 27.79426
788.1919, 28.64895
788.6740, 28.43168
789.1561, 27.53398
789.6382, 27.46178
790.1204, 28.77366
790.6025, 29.55203
791.0846, 29.08115
791.5667, 28.74758
792.0488, 29.34938
792.5309, 30.40150
793.0131, 31.11840
793.4952, 31.32956
793.9773, 31.52498
794.4594, 31.96251
794.9415, 32.46071
795.4236, 32.77331
795.9058, 33.02010
796.3879, 33.54232
796.8700, 34.42340
797.3521, 35.35670
797.8342, 36.00617
798.3163, 36.44722
798.7985, 37.05601
799.2806, 37.83400
799.7627, 38.77542
800.2448, 39.89650
800.7269, 41.16722
801.2090, 42.68508
801.6912, 44.35869
802.1733, 45.72753
802.6554, 46.56108
803.1375, 47.45596
803.6196, 48.24404
804.1017, 49.37444
804.5839, 51.26230
805.0660, 53.72978
805.5481, 56.38801
806.0302, 59.10595
806.5123, 61.86308
806.9944, 64.49265
807.4766, 67.18582
807.9587, 70.45017
808.4408, 74.27512
808.9229, 78.52128
809.4050, 83.19949
809.8871, 87.73302
810.3693, 91.26736
810.8514, 93.82797
811.3335, 97.77200
811.8156, 103.9469
812.2977, 110.1213
812.7798, 115.6741
813.2620, 121.4020
813.7441, 127.5923
814.2262, 134.3693
814.7083, 141.9841
815.1904, 150.4044
815.6725, 159.9409
816.1547, 171.2765
816.6368, 183.5312
817.1189, 195.5623
817.6010, 207.6084
818.0831, 220.5450
818.5652, 234.7510
819.0474, 249.8283
819.5295, 265.3932
820.0116, 281.3970
820.4937, 297.7956
820.9758, 314.9816
821.4579, 330.2880
821.9401, 343.1808
822.4222, 353.3856
822.9043, 361.1097
823.3864, 366.1629
823.8685, 366.4176
824.3506, 361.0638
824.8328, 352.3393
825.3149, 339.5718
825.7970, 324.4371
826.2791, 307.0826
826.7612, 288.4551
827.2433, 269.9895
827.7255, 251.9900
828.2076, 235.2868
828.6897, 220.7916
829.1718, 207.9086
829.6539, 195.5884
830.1360, 183.9320
830.6182, 173.5549
831.1003, 164.7265
831.5824, 157.1973
832.0645, 150.7713
832.5466, 145.3880
833.0287, 140.7862
833.5109, 137.0730
833.9930, 133.8564
834.4751, 130.9716
834.9572, 128.6832
835.4393, 127.2964
835.9214, 126.6951
836.4036, 126.6186
836.8857, 127.1416
837.3678, 128.0027
837.8499, 129.3546
838.3320, 130.8200
838.8141, 131.8932
839.2963, 132.9395
839.7784, 134.6447
840.2605, 137.2203
840.7426, 140.3530
841.2247, 143.6726
841.7068, 147.4141
842.1890, 152.0773
842.6711, 157.6254
843.1532, 163.7496
843.6353, 170.3970
844.1174, 177.2447
844.5995, 183.8266
845.0817, 190.5211
845.5638, 198.8763
846.0459, 209.3887
846.5280, 220.0931
847.0101, 229.9906
847.4922, 241.1230
847.9744, 254.8102
848.4565, 270.2402
848.9386, 286.3100
849.4207, 302.8983
849.9028, 320.2035
850.3849, 338.1370
850.8671, 356.8761
851.3492, 377.2193
851.8313, 398.0387
852.3134, 418.3838
852.7955, 437.7220
853.2776, 455.7549
853.7598, 472.6812
854.2419, 487.2695
854.7240, 498.2993
855.2061, 505.5446
855.6882, 507.8448
856.1703, 505.0732
856.6525, 497.5796
857.1346, 485.4742
857.6167, 469.2142
858.0988, 449.5557
858.5809, 426.0341
859.0630, 402.1164
859.5452, 377.4231
860.0273, 353.0416
860.5094, 328.9420
860.9915, 305.7065
861.4736, 283.5490
861.9557, 262.6643
862.4379, 243.8481
862.9200, 227.7009
863.4021, 213.0818
863.8842, 200.0189
864.3663, 188.0742
864.8484, 176.9815
865.3306, 166.6545
865.8127, 156.7419
866.2948, 147.1786
866.7769, 138.4639
867.2590, 131.4120
867.7411, 125.5389
868.2233, 119.9382
868.7054, 114.6326
869.1875, 109.8873
869.6696, 105.7671
870.1517, 102.1561
870.6339, 98.98722
871.1160, 96.21571
871.5981, 93.57889
872.0802, 90.88418
872.5623, 89.05097
873.0444, 88.65221
873.5266, 88.31905
874.0087, 86.84923
874.4908, 85.16325
874.9729, 85.13216
875.4550, 87.13913
875.9371, 88.59243
876.4193, 88.42922
876.9014, 88.50428
877.3835, 89.42472
877.8656, 91.08098
878.3477, 93.60306
878.8298, 96.75139
879.3120, 99.81516
879.7941, 102.5125
880.2762, 104.7781
880.7583, 106.7935
881.2404, 108.2042
881.7225, 108.3071
882.2047, 107.1578
882.6868, 105.3339
883.1689, 103.0794
883.6510, 100.0359
884.1331, 95.58579
884.6152, 89.90237
885.0974, 84.37186
885.5795, 79.01704
886.0616, 73.79614
886.5437, 68.67973
887.0258, 63.73192
887.5079, 58.87875
887.9901, 54.26616
888.4722, 50.45270
888.9543, 47.65673
889.4364, 45.24469
889.9185, 43.40025
890.4006, 41.73040
890.8828, 39.92021
891.3649, 38.28567
891.8470, 37.43618
892.3291, 37.34176
892.8112, 36.78112
893.2933, 34.58131
893.7755, 32.54560
894.2576, 32.08672
894.7397, 32.25822
895.2218, 31.86632
895.7039, 30.92697
896.1860, 30.09228
896.6682, 29.67019
897.1503, 29.08284
897.6324, 29.01521
898.1145, 28.55529
898.5966, 28.44828
899.0787, 28.65488
899.5609, 28.66392
900.0430, 28.30177
900.5251, 27.90695
901.0072, 27.82745
901.4893, 27.97083
901.9714, 27.82392
902.4536, 27.17199
902.9357, 27.06634
903.4178, 27.94699
903.8999, 28.75422
904.3820, 28.85512
904.8641, 28.58188
905.3463, 28.55804
905.8284, 28.85697
906.3105, 28.80661
906.7926, 27.66987
907.2747, 27.06426
907.7568, 28.00224
908.2390, 29.25350
908.7211, 29.71838
909.2032, 29.52257
909.6853, 29.34800
910.1674, 29.37600
910.6495, 29.70012
911.1317, 30.61098
911.6138, 31.67687
912.0959, 32.30824
912.5780, 32.70216
913.0601, 33.37803
913.5422, 34.47424
914.0244, 35.76019
914.5065, 37.03882
914.9886, 38.37907
915.4707, 40.05530
915.9528, 41.97493
916.4349, 43.48747
916.9171, 44.48962
917.3992, 45.65793
917.8813, 47.42368
918.3634, 49.32601
918.8455, 50.70763
919.3276, 51.60570
919.8098, 51.21135
920.2919, 49.06454
920.7740, 46.79638
921.2561, 44.81936
921.7382, 42.78353
922.2203, 40.26945
922.7025, 37.44622
923.1846, 34.94578
923.6667, 32.76148
924.1488, 30.89102
924.6309, 29.30776
925.1130, 28.06750
925.5952, 27.47462
926.0773, 27.06128
926.5594, 26.08656
927.0415, 24.61476
927.5236, 23.71121
928.0057, 24.22289
928.4879, 24.83545
928.9700, 24.67931
929.4521, 24.16363
929.9342, 23.58222
930.4163, 23.09985
930.8984, 23.06693
931.3806, 23.59019
931.8627, 24.10522
932.3448, 23.91874
932.8269, 23.40452
933.3090, 23.34423
933.7911, 23.65419
934.2733, 24.06087
934.7554, 24.48992
935.2375, 24.67009
935.7196, 24.38416
936.2017, 23.90669
936.6838, 23.85178
937.1660, 24.24544
937.6481, 24.49893
938.1302, 24.55629
938.6123, 24.72999
939.0944, 25.18074
939.5765, 25.65363
940.0587, 25.81748
940.5408, 25.76394
941.0229, 26.16003
941.5050, 27.35938
941.9871, 28.35937
942.4692, 29.09300
942.9514, 29.66082
943.4335, 29.95078
943.9156, 30.17718
944.3977, 30.57852
944.8798, 31.17068
945.3619, 31.95582
945.8441, 33.26863
946.3262, 34.33416
946.8083, 34.56813
947.2904, 34.70904
947.7725, 35.35847
948.2546, 36.44133
948.7368, 37.73538
949.2189, 39.18756
949.7010, 40.43318
950.1831, 40.94625
950.6652, 41.41566
951.1473, 42.57307
951.6295, 44.18398
952.1116, 45.84241
952.5937, 47.47305
953.0758, 49.09314
953.5579, 50.70617
954.0400, 52.45607
954.5222, 54.88440
955.0043, 57.54036
955.4864, 58.76978
955.9685, 58.77129
956.4506, 59.45375
956.9327, 61.38599
957.4149, 63.77508
957.8970, 65.98812
958.3791, 68.00266
958.8612, 69.82996
959.3433, 71.48013
959.8254, 72.67495
960.3076, 73.35184
960.7897, 73.77914
961.2718, 74.09930
961.7539, 74.15138
962.2360, 73.69279
962.7181, 72.74197
963.2003, 71.77718
963.6824, 70.91767
964.1645, 69.79328
964.6466, 68.20377
965.1287, 66.55138
965.6108, 65.15305
966.0930, 63.78082
966.5751, 62.10460
967.0572, 60.11369
967.5393, 57.89433
968.0214, 55.31570
968.5035, 52.70227
968.9857, 49.86750
969.4678, 47.27132
969.9499, 45.37279
970.4320, 43.94372
970.9141, 42.43375
971.3962, 40.72482
971.8784, 38.93182
972.3605, 36.77753
972.8426, 34.93187
973.3247, 34.17796
973.8068, 33.80944
974.2889, 32.90366
974.7711, 31.45547
975.2532, 29.94150
975.7353, 28.54645
976.2174, 27.38086
976.6995, 26.62689
977.1816, 26.10594
977.6638, 25.65055
978.1459, 25.19925
978.6280, 24.62744
979.1101, 23.91610
979.5922, 23.14136
980.0743, 22.33696
980.5565, 21.60094
981.0386, 21.10943
981.5207, 20.82482
982.0028, 20.67056
982.4849, 20.61859
982.9670, 20.48972
983.4492, 20.22401
983.9313, 19.81632
984.4134, 19.21152
984.8955, 18.55312
985.3776, 18.36166
985.8597, 18.65560
986.3419, 18.84181
986.8240, 18.89625
987.3061, 18.64163
987.7882, 17.88688
988.2703, 17.14299
988.7524, 17.09033
989.2346, 17.63420
989.7167, 17.74715
990.1988, 17.24185
990.6809, 16.87401
991.1630, 16.73679
991.6451, 16.71071
992.1273, 16.84508
992.6094, 16.95852
993.0915, 16.71187
993.5736, 16.07047
994.0557, 15.73198
994.5378, 15.89598
995.0200, 16.07569
995.5021, 16.35044
995.9842, 16.49781
996.4663, 16.31705
996.9484, 15.96566
997.4305, 15.66062
997.9127, 15.40805
998.3948, 15.35859
998.8769, 15.81801
999.3590, 16.10743
999.8411, 15.91011
1000.323, 15.56580
1000.805, 15.33051
1001.287, 15.15752
1001.770, 14.82187
1002.252, 14.24653
1002.734, 14.06022
1003.216, 15.00233
1003.698, 15.84988
1004.180, 15.68344
1004.662, 15.19656
1005.144, 15.23907
1005.627, 15.65000
1006.109, 15.71348
1006.591, 15.16561
1007.073, 14.59028
1007.555, 14.30227
1008.037, 14.26219
1008.519, 14.61194
1009.001, 15.09520
1009.483, 15.27397
1009.966, 15.17064
1010.448, 15.14775
1010.930, 15.38567
1011.412, 15.51369
1011.894, 14.95649
1012.376, 14.19218
1012.858, 14.02159
1013.340, 14.24661
1013.823, 14.29290
1014.305, 14.10668
1014.787, 14.05266
1015.269, 14.34438
1015.751, 14.78245
1016.233, 15.17178
1016.715, 15.47189
1017.197, 15.55430
1017.679, 15.43764
1018.162, 15.20622
1018.644, 14.88287
1019.126, 14.43944
1019.608, 13.82910
1020.090, 13.31588
1020.572, 13.48837
1021.054, 14.21761
1021.536, 14.56354
1022.018, 14.53086
1022.501, 14.45743
1022.983, 14.42128
1023.465, 14.44449
1023.947, 14.55595
1024.429, 14.68959
1024.911, 14.70647
1025.393, 14.60498
1025.875, 14.41774
1026.358, 14.11919
1026.840, 13.95244
1027.322, 13.99034
1027.804, 14.13130
1028.286, 14.30423
1028.768, 14.51438
1029.250, 14.83229
1029.732, 15.33275
1030.214, 15.28553
1030.697, 14.47298
1031.179, 13.88252
1031.661, 13.85055
1032.143, 13.91078
1032.625, 13.64959
1033.107, 13.24656
1033.589, 13.25377
1034.071, 13.83783
1034.553, 14.05166
1035.036, 13.64131
1035.518, 13.43140
1036.000, 13.79333
1036.482, 14.17428
1036.964, 14.06762
1037.446, 13.67597
1037.928, 13.63226
1038.410, 14.14289
1038.893, 14.26745
1039.375, 13.71272
1039.857, 13.23670
1040.339, 12.96704
1040.821, 12.88752
1041.303, 13.15189
1041.785, 13.57512
1042.267, 13.55760
1042.750, 12.81701
1043.232, 12.57792
1043.714, 13.42046
1044.196, 13.99640
1044.678, 13.74972
1045.160, 13.36775
1045.642, 13.34217
1046.124, 13.56892
1046.606, 13.80101
1047.089, 14.06502
1047.571, 14.15134
1048.053, 13.85108
1048.535, 13.62219
1049.017, 13.77246
1049.499, 13.86738
1049.981, 13.31644
1050.463, 12.52526
1050.945, 12.52672
1051.428, 13.62053
1051.910, 14.28076
1052.392, 13.96960
1052.874, 13.52239
1053.356, 13.05161
1053.838, 12.68673
1054.320, 12.61689
1054.802, 12.69324
1055.285, 12.54948
1055.767, 12.09384
1056.249, 11.93134
1056.731, 12.42641
1057.213, 12.96760
1057.695, 13.44509
1058.177, 13.77522
1058.659, 13.87059
1059.141, 13.78532
1059.624, 13.56638
1060.106, 13.22283
1060.588, 13.03281
1061.070, 13.26093
1061.552, 13.42341
1062.034, 13.26898
1062.516, 13.03461
1062.998, 12.84163
1063.480, 12.73085
1063.963, 12.84860
1064.445, 13.18207
1064.927, 13.18888
1065.409, 12.22820
1065.891, 11.50299
1066.373, 11.66798
1066.855, 12.09435
1067.337, 12.44316
1067.820, 12.64802
1068.302, 12.60748
1068.784, 12.34858
1069.266, 12.18758
1069.748, 12.31781
1070.230, 12.43724
1070.712, 12.36859
1071.194, 12.28436
1071.677, 12.32289
1072.159, 12.42514
1072.641, 12.52527
1073.123, 12.59648
1073.605, 12.55959
1074.087, 12.28599
1074.569, 12.14166
1075.051, 12.55950
1075.533, 12.88993
1076.016, 12.51200
1076.498, 11.86432
1076.980, 11.45955
1077.462, 11.37241
1077.944, 11.57802
1078.426, 12.18408
1078.908, 12.66173
1079.390, 12.68957
1079.873, 12.59481
1080.355, 12.62326
1080.837, 12.62554
1081.319, 12.34051
1081.801, 11.86383
1082.283, 11.52817
1082.765, 11.42834
1083.247, 11.48436
1083.729, 11.80659
1084.212, 12.09840
1084.694, 12.11810
1085.176, 12.07689
1085.658, 12.21901
1086.140, 12.48184
1086.622, 12.69135
1087.104, 12.80991
1087.586, 12.78422
1088.068, 12.45347
1088.551, 12.14999
1089.033, 12.11823
1089.515, 12.11281
1089.997, 11.81116
1090.479, 11.41327
1090.961, 11.35212
1091.443, 11.68831
1091.925, 12.00858
1092.408, 12.20842
1092.890, 12.29521
1093.372, 12.15836
1093.854, 12.02614
1094.336, 12.20349
1094.818, 12.41710
1095.300, 12.07202
1095.782, 11.24285
1096.265, 10.97955
1096.747, 12.01651
1097.229, 12.81218
1097.711, 12.70981
1098.193, 12.38288
1098.675, 12.09088
1099.157, 11.88711
1099.639, 11.81057
1100.121, 11.85361
1100.604, 11.99590
1101.086, 12.31167
1101.568, 12.48011
1102.050, 12.30855
1102.532, 12.10892
1103.014, 11.90867
1103.496, 11.83290
1103.978, 12.08909
1104.460, 12.53808
1104.943, 12.83655
1105.425, 12.93985
1105.907, 12.87242
1106.389, 12.32175
1106.871, 12.03702
1107.353, 12.46638
1107.835, 12.99980
1108.317, 13.35188
1108.800, 13.46071
1109.282, 13.09374
1109.764, 12.20371
1110.246, 11.84099
1110.728, 12.82538
1111.210, 13.24988
1111.692, 12.29401
1112.174, 11.37941
1112.656, 11.22355
1113.139, 11.45460
1113.621, 11.64504
1114.103, 11.79610
1114.585, 12.00695
1115.067, 12.41993
1115.549, 12.63568
1116.031, 12.59123
1116.513, 12.43225
1116.995, 12.06208
1117.478, 11.74436
1117.960, 11.72026
1118.442, 11.92950
1118.924, 12.19188
1119.406, 12.53885
1119.888, 12.83007
1120.370, 13.19508
1120.852, 13.19725
1121.335, 12.47014
1121.817, 11.85974
1122.299, 12.03342
1122.781, 12.53443
1123.263, 12.48339
1123.745, 11.86188
1124.227, 11.68306
1124.709, 12.11685
1125.192, 12.39340
1125.674, 12.41480
1126.156, 12.25433
1126.638, 11.86174
1127.120, 11.51018
1127.602, 11.53157
1128.084, 11.86831
1128.566, 12.31660
1129.048, 12.94048
1129.531, 12.98872
1130.013, 12.31418
1130.495, 11.96124
1130.977, 12.30374
1131.459, 12.75575
1131.941, 12.86361
1132.423, 12.68785
1132.905, 12.29046
1133.387, 11.69510
1133.870, 11.20030
1134.352, 10.81455
1134.834, 10.93343
1135.316, 11.62294
1135.798, 12.18236
1136.280, 12.22738
1136.762, 12.00751
1137.244, 11.78651
1137.727, 11.60730
1138.209, 11.58173
1138.691, 11.71266
1139.173, 12.14360
1139.655, 12.78959
1140.137, 13.10228
1140.619, 12.90053
1141.101, 12.40023
1141.583, 11.66621
1142.066, 11.10449
1142.548, 11.60457
1143.030, 12.59442
1143.512, 12.91260
1143.994, 12.69556
1144.476, 12.41769
1144.958, 12.20398
1145.440, 12.05224
1145.922, 11.95987
1146.405, 11.94241
1146.887, 12.05786
1147.369, 12.21409
1147.851, 12.28517
1148.333, 12.34174
1148.815, 12.53862
1149.297, 12.80632
1149.779, 12.97641
1150.262, 12.98996
1150.744, 12.78797
1151.226, 12.16635
1151.708, 11.60431
1152.190, 11.43044
1152.672, 11.42894
1153.154, 11.43102
1153.636, 11.47493
1154.119, 11.63798
1154.601, 11.91831
1155.083, 12.29921
1155.565, 12.88389
1156.047, 13.18512
1156.529, 12.82976
1157.011, 12.43275
1157.493, 12.22701
1157.975, 12.12427
1158.458, 11.98402
1158.940, 11.90696
1159.422, 12.21314
1159.904, 12.98002
1160.386, 13.32034
1160.868, 12.72312
1161.350, 12.36815
1161.832, 12.61396
1162.314, 12.81659
1162.797, 12.67159
1163.279, 12.39297
1163.761, 12.13354
1164.243, 11.94291
1164.725, 12.09516
1165.207, 12.78446
1165.689, 13.11038
1166.171, 12.92124
1166.654, 12.83111
1167.136, 13.01928
1167.618, 13.24583
1168.100, 13.38383
1168.582, 13.39151
1169.064, 13.18403
1169.546, 12.78031
1170.028, 12.24952
1170.510, 11.57588
1170.993, 11.57235
1171.475, 12.33645
1171.957, 13.04212
1172.439, 13.39230
1172.921, 13.22754
1173.403, 12.31101
1173.885, 11.14405
1174.367, 10.67498
1174.849, 10.80254
1175.332, 11.33554
1175.814, 12.14992
1176.296, 12.90041
1176.778, 13.48218
1177.260, 13.72769
1177.742, 13.55950
1178.224, 13.28379
1178.706, 13.27260
1179.189, 13.22647
1179.671, 12.50651
1180.153, 11.67425
1180.635, 11.63353
1181.117, 12.16550
1181.599, 12.76286
1182.081, 13.23395
1182.563, 13.34323
1183.046, 12.87536
1183.528, 12.37904
1184.010, 12.07572
1184.492, 11.97221
1184.974, 12.18457
1185.456, 12.50664
1185.938, 12.82037
1186.420, 13.04157
1186.902, 12.98204
1187.385, 12.59401
1187.867, 12.33162
1188.349, 12.35833
1188.831, 12.40304
1189.313, 12.42251
1189.795, 12.44082
1190.277, 12.39626
1190.759, 12.42198
1191.241, 12.77867
1191.724, 13.30552
1192.206, 13.34699
1192.688, 12.76673
1193.170, 12.27804
1193.652, 11.90356
1194.134, 11.52636
1194.616, 11.05054
1195.098, 10.84409
1195.581, 11.17571
1196.063, 11.68615
1196.545, 11.87099
1197.027, 11.82382
1197.509, 11.98549
1197.991, 12.33585
1198.473, 12.54252
1198.955, 12.58807
1199.438, 12.53858
1199.920, 12.41289
1200.402, 12.15794
1200.884, 11.72240
1201.366, 11.33329
1201.848, 11.25727
1202.330, 11.45857
1202.812, 12.13884
1203.294, 12.91739
1203.776, 12.85036
1204.259, 12.17000
1204.741, 11.84265
1205.223, 12.09401
1205.705, 12.30195
1206.187, 12.08542
1206.669, 11.80254
1207.151, 11.51847
1207.633, 11.46523
1208.116, 12.13091
1208.598, 12.89458
1209.080, 12.96136
1209.562, 12.52181
1210.044, 12.21328
1210.526, 12.14534
1211.008, 12.22807
1211.490, 12.73038
1211.973, 12.94744
1212.455, 12.54151
1212.937, 12.07784
1213.419, 11.65782
1213.901, 11.44250
1214.383, 11.65230
1214.865, 12.17800
1215.347, 12.68447
1215.829, 13.22009
1216.312, 13.34961
1216.794, 12.96157
1217.276, 12.71834
1217.758, 12.73592
1218.240, 12.95491
1218.722, 13.39492
1219.204, 13.66341
1219.686, 13.25958
1220.168, 12.50269
1220.651, 12.21037
1221.133, 12.27774
1221.615, 12.31426
1222.097, 12.30711
1222.579, 12.28595
1223.061, 12.26347
1223.543, 12.27682
1224.025, 12.34292
1224.508, 12.37047
1224.990, 12.19406
1225.472, 12.04664
1225.954, 12.24802
1226.436, 12.53354
1226.918, 12.59263
1227.400, 12.51638
1227.882, 12.47353
1228.365, 12.49092
1228.847, 12.55593
1229.329, 12.70685
1229.811, 12.72604
1230.293, 12.32036
1230.775, 12.09858
1231.257, 12.51947
1231.739, 12.90234
1232.221, 12.73901
1232.703, 12.33616
1233.186, 12.01205
1233.668, 11.79656
1234.150, 11.94776
1234.632, 11.88157
1235.114, 11.87350
1235.596, 12.27625
1236.078, 12.07012
1236.560, 12.55102
1237.043, 13.05169
1237.525, 13.21370
1238.007, 12.98922
1238.489, 12.15221
1238.971, 11.13818
1239.453, 11.31273
1239.935, 12.29229
1240.417, 12.88725
1240.900, 13.05492
1241.382, 12.88406
1241.864, 12.48438
1242.346, 12.21073
1242.828, 12.23720
1243.310, 12.35998
1243.792, 12.52360
1244.274, 12.58983
1244.756, 12.33146
1245.239, 12.03462
1245.721, 12.03961
1246.203, 12.15833
1246.685, 12.04453
1247.167, 11.72133
1247.649, 11.49180
1248.131, 11.36842
1248.613, 11.46759
1249.095, 12.12573
1249.578, 12.50681
1250.060, 12.28596
1250.542, 12.05594
1251.024, 12.14588
1251.506, 12.32411
1251.988, 12.32281
1252.470, 12.17063
1252.952, 11.92291
1253.435, 11.99113
1253.917, 11.59635
1254.399, 11.99324
1254.881, 12.22609
1255.363, 12.20562
1255.845, 12.19139
1256.327, 12.29991
1256.809, 12.28893
1257.292, 11.86135
1257.774, 11.35539
1258.256, 11.19833
1258.738, 11.28782
1259.220, 11.60295
1259.702, 11.98306
1260.184, 12.23654
1260.666, 12.30855
1261.148, 12.10231
1261.630, 11.58873
1262.113, 11.19713
1262.595, 10.99934
1263.077, 11.07276
1263.559, 11.76434
1264.041, 12.33098
1264.523, 12.45546
1265.005, 12.23971
1265.487, 11.59799
1265.970, 10.79823
1266.452, 10.45605
1266.934, 10.57451
1267.416, 10.91509
1267.898, 11.52714
1268.380, 11.99210
1268.862, 12.26869
1269.344, 12.45638
1269.827, 12.59008
1270.309, 12.41768
1270.791, 11.71360
1271.273, 10.99337
1271.755, 11.12829
1272.237, 11.64116
1272.719, 11.71546
1273.201, 11.48658
1273.683, 10.98352
1274.166, 10.46380
1274.648, 10.49062
1275.130, 11.08415
1275.612, 11.75552
1276.094, 12.39512
1276.576, 12.78331
1277.058, 12.68154
1277.540, 12.51905
1278.022, 12.46977
1278.505, 12.40261
1278.987, 12.21090
1279.469, 11.96288
1279.951, 11.66595
1280.433, 11.39920
1280.915, 11.54278
1281.397, 12.19162
1281.879, 12.52551
1282.362, 12.53141
1282.844, 12.32902
1283.326, 11.93379
1283.808, 11.49400
1284.290, 11.07286
1284.772, 10.88571
1285.254, 11.09761
1285.736, 11.70746
##END=



