##NAMES=Forsterite
##RRUFFID=R060539
##IDEAL CHEMISTRY=Mg_2_SiO_4_
##LOCALITY=Sri Lanka
##OWNER=RRUFF
##SOURCE=Gemological Institute of America
##DESCRIPTION=Brown cut gemstone
##STATUS=The identification of this mineral has been confirmed by X-ray diffraction and chemical analysis
##URL=rruff.info/R060539
##MEASURED CHEMISTRY=(Mg_1.67_Fe_0.33_)_Î£=2_Si_1.00_O_4_; trace amounts of Mn and Ca
92.10938, 3.853311
92.59149, 3.657252
93.07361, 3.732717
93.55573, 4.058127
94.03784, 4.364494
94.51996, 4.407393
95.00208, 4.237551
95.48419, 4.028338
95.96631, 3.762200
96.44843, 3.507041
96.93054, 3.485324
97.41266, 3.719688
97.89478, 4.066627
98.37689, 4.393136
98.85901, 4.694236
99.34113, 4.933192
99.82324, 5.121934
100.3054, 5.258979
100.7875, 5.193970
101.2696, 4.860016
101.7517, 4.409998
102.2338, 4.117637
102.7159, 4.010836
103.1981, 3.988788
103.6802, 4.025050
104.1623, 4.155651
104.6444, 4.216004
105.1265, 4.134787
105.6086, 3.983557
106.0908, 4.064471
106.5729, 4.607567
107.0550, 5.112030
107.5371, 5.269280
108.0192, 4.710199
108.5013, 4.358830
108.9835, 4.347969
109.4656, 4.667750
109.9477, 4.952496
110.4298, 5.162931
110.9119, 5.360451
111.3940, 5.592421
111.8762, 5.799614
112.3583, 6.099303
112.8404, 6.543271
113.3225, 7.145232
113.8046, 7.734841
114.2867, 8.297978
114.7689, 8.839693
115.2510, 9.361054
115.7331, 9.965542
116.2152, 10.47014
116.6973, 10.71644
117.1794, 10.58764
117.6616, 10.65782
118.1437, 11.39526
118.6258, 12.44970
119.1079, 13.21624
119.5900, 13.13548
120.0721, 12.89043
120.5543, 12.93226
121.0364, 13.38067
121.5185, 14.00182
122.0006, 14.66965
122.4827, 15.40061
122.9648, 16.25178
123.4470, 17.42564
123.9291, 18.66850
124.4112, 19.65734
124.8933, 20.18662
125.3754, 20.63960
125.8575, 21.43784
126.3397, 22.53519
126.8218, 23.65272
127.3039, 24.51994
127.7860, 25.25363
128.2681, 26.08745
128.7502, 27.12659
129.2324, 28.27678
129.7145, 29.45013
130.1966, 30.65327
130.6787, 31.66404
131.1608, 32.17083
131.6429, 32.25484
132.1251, 32.33419
132.6072, 32.50816
133.0893, 32.78324
133.5714, 33.20781
134.0535, 33.79616
134.5356, 34.46849
135.0178, 35.20062
135.4999, 35.99361
135.9820, 36.61384
136.4641, 36.74528
136.9462, 36.42292
137.4283, 36.96725
137.9105, 38.60791
138.3926, 40.71734
138.8747, 42.22330
139.3568, 43.02930
139.8389, 43.68681
140.3210, 44.47416
140.8032, 45.47953
141.2853, 46.10094
141.7674, 46.08080
142.2495, 45.82779
142.7316, 46.36385
143.2137, 47.89748
143.6959, 49.26299
144.1780, 50.14796
144.6601, 50.36481
145.1422, 50.65405
145.6243, 51.08747
146.1064, 51.60924
146.5886, 52.02445
147.0707, 52.33297
147.5528, 52.54128
148.0349, 52.64127
148.5170, 52.53937
148.9991, 52.48018
149.4813, 52.48235
149.9634, 52.54065
150.4455, 52.61974
150.9276, 52.89987
151.4097, 53.07880
151.8918, 52.96973
152.3740, 52.23812
152.8561, 51.60188
153.3382, 51.15666
153.8203, 50.89844
154.3024, 50.62476
154.7845, 50.37013
155.2667, 50.07290
155.7488, 49.68180
156.2309, 48.90279
156.7130, 48.32336
157.1951, 48.19516
157.6772, 48.54842
158.1594, 48.70916
158.6415, 48.42776
159.1236, 47.93346
159.6057, 47.44810
160.0878, 46.76750
160.5699, 46.33842
161.0521, 46.47659
161.5342, 47.28846
162.0163, 47.84718
162.4984, 47.64068
162.9805, 47.04773
163.4626, 46.54677
163.9448, 46.29936
164.4269, 46.19108
164.9090, 46.24107
165.3911, 46.51100
165.8732, 46.59650
166.3553, 46.05688
166.8375, 45.22463
167.3196, 44.64912
167.8017, 44.72793
168.2838, 45.05490
168.7659, 45.37659
169.2480, 45.68850
169.7302, 45.88889
170.2123, 45.85986
170.6944, 45.66402
171.1765, 45.44376
171.6586, 45.24792
172.1407, 45.07268
172.6229, 44.87529
173.1050, 44.59553
173.5871, 44.44928
174.0692, 44.74556
174.5513, 45.35772
175.0334, 45.90871
175.5156, 46.17519
175.9977, 46.24809
176.4798, 46.25065
176.9619, 46.20898
177.4440, 46.09541
177.9261, 45.70407
178.4083, 45.13884
178.8904, 44.86450
179.3725, 45.48828
179.8546, 46.58559
180.3367, 47.31879
180.8188, 47.46038
181.3010, 47.31441
181.7831, 47.16414
182.2652, 47.03210
182.7473, 47.09254
183.2294, 47.72212
183.7115, 48.67009
184.1937, 49.16566
184.6758, 48.88739
185.1579, 48.30145
185.6400, 48.24037
186.1221, 48.68679
186.6042, 49.22570
187.0864, 49.57635
187.5685, 49.75486
188.0506, 49.79927
188.5327, 49.67158
189.0148, 49.45792
189.4969, 49.29004
189.9791, 49.16386
190.4612, 49.20092
190.9433, 49.66213
191.4254, 50.47298
191.9075, 51.00047
192.3896, 50.98827
192.8718, 50.65394
193.3539, 50.65340
193.8360, 51.01820
194.3181, 51.46578
194.8002, 51.70541
195.2823, 51.74602
195.7645, 51.90331
196.2466, 52.27925
196.7287, 52.81927
197.2108, 53.29633
197.6929, 53.69399
198.1750, 54.09867
198.6572, 54.59849
199.1393, 55.19406
199.6214, 55.79741
200.1035, 56.35907
200.5856, 56.90678
201.0677, 57.61800
201.5499, 58.53734
202.0320, 59.48516
202.5141, 60.25972
202.9962, 60.83379
203.4783, 61.45014
203.9604, 62.13691
204.4426, 62.90587
204.9247, 63.88451
205.4068, 65.10838
205.8889, 66.43119
206.3710, 67.71201
206.8531, 68.94533
207.3353, 70.15624
207.8174, 71.27235
208.2995, 72.32679
208.7816, 73.86340
209.2637, 76.06109
209.7458, 78.36042
210.2280, 80.16994
210.7101, 81.39719
211.1922, 82.46207
211.6743, 83.39279
212.1564, 84.19113
212.6385, 85.21609
213.1207, 86.55199
213.6028, 87.95790
214.0849, 89.22988
214.5670, 90.41212
215.0491, 91.28191
215.5313, 91.73914
216.0134, 91.78713
216.4955, 91.81318
216.9776, 91.89555
217.4597, 91.85033
217.9418, 91.44469
218.4239, 90.54277
218.9061, 89.64997
219.3882, 88.90351
219.8703, 88.31184
220.3524, 87.54272
220.8345, 86.56223
221.3166, 85.45662
221.7988, 84.22709
222.2809, 82.67093
222.7630, 81.51537
223.2451, 81.12058
223.7272, 81.50202
224.2093, 81.11494
224.6915, 79.42547
225.1736, 77.56159
225.6557, 76.83115
226.1378, 78.06556
226.6199, 78.59544
227.1020, 77.64202
227.5842, 75.18703
228.0663, 73.51237
228.5484, 72.88483
229.0305, 72.72664
229.5126, 72.52280
229.9947, 72.27583
230.4769, 71.97395
230.9590, 71.57817
231.4411, 71.09023
231.9232, 70.72549
232.4053, 70.57283
232.8874, 70.44320
233.3696, 70.16070
233.8517, 69.64257
234.3338, 69.13704
234.8159, 68.70358
235.2980, 68.33604
235.7801, 67.90376
236.2623, 67.46520
236.7444, 66.90044
237.2265, 66.05647
237.7086, 64.63309
238.1907, 63.53374
238.6728, 63.04168
239.1550, 63.10278
239.6371, 62.75398
240.1192, 61.77966
240.6013, 60.63826
241.0834, 59.69819
241.5655, 59.07740
242.0477, 58.44334
242.5298, 57.76542
243.0119, 57.04231
243.4940, 56.25851
243.9761, 55.37336
244.4582, 54.47438
244.9404, 53.61096
245.4225, 52.73107
245.9046, 51.99744
246.3867, 51.48644
246.8688, 51.15372
247.3509, 50.67716
247.8331, 49.95089
248.3152, 49.21716
248.7973, 48.65129
249.2794, 48.38939
249.7615, 47.98688
250.2436, 47.30158
250.7258, 46.43649
251.2079, 45.89899
251.6900, 45.78126
252.1721, 45.85983
252.6542, 46.06950
253.1363, 46.62651
253.6185, 46.76340
254.1006, 46.20111
254.5827, 45.20904
255.0648, 44.82304
255.5469, 45.41250
256.0291, 46.01917
256.5112, 46.11416
256.9933, 45.45081
257.4754, 44.88848
257.9575, 44.43670
258.4396, 44.10860
258.9218, 44.00737
259.4039, 44.32690
259.8860, 44.51765
260.3681, 44.22516
260.8502, 43.09913
261.3323, 42.55108
261.8145, 42.79382
262.2966, 43.50213
262.7787, 43.98414
263.2608, 44.18079
263.7429, 44.27357
264.2250, 44.32281
264.7072, 44.31208
265.1893, 44.31392
265.6714, 44.31824
266.1535, 44.34198
266.6356, 44.43045
267.1177, 44.62057
267.5999, 44.77501
268.0820, 44.79676
268.5641, 44.63891
269.0462, 44.75432
269.5283, 45.30201
270.0104, 45.92901
270.4926, 46.06951
270.9747, 45.58022
271.4568, 45.10615
271.9389, 44.77447
272.4210, 44.57468
272.9031, 44.92522
273.3853, 46.02388
273.8674, 47.31994
274.3495, 48.04769
274.8316, 48.10123
275.3137, 48.15781
275.7958, 48.36934
276.2780, 48.73619
276.7601, 49.30350
277.2422, 50.11671
277.7243, 51.01136
278.2064, 51.84369
278.6885, 52.61802
279.1707, 53.27513
279.6528, 53.74564
280.1349, 54.08757
280.6170, 54.56568
281.0991, 55.15791
281.5812, 55.98059
282.0634, 57.26685
282.5455, 59.05192
283.0276, 60.54446
283.5097, 61.50893
283.9918, 62.13573
284.4739, 62.97402
284.9561, 64.02171
285.4382, 65.29681
285.9203, 66.86478
286.4024, 68.70049
286.8845, 70.64555
287.3666, 72.69431
287.8488, 74.78326
288.3309, 76.71104
288.8130, 78.47119
289.2951, 80.30055
289.7772, 82.36475
290.2593, 84.62563
290.7415, 86.97697
291.2236, 89.37488
291.7057, 91.87720
292.1878, 94.43127
292.6699, 97.06864
293.1520, 100.1898
293.6342, 104.2589
294.1163, 109.0200
294.5984, 113.5065
295.0805, 117.7121
295.5626, 121.6294
296.0447, 125.2926
296.5269, 128.7095
297.0090, 131.9286
297.4911, 134.9930
297.9732, 137.8611
298.4553, 140.5210
298.9374, 143.0038
299.4196, 144.8138
299.9017, 145.3786
300.3838, 144.8398
300.8659, 143.5553
301.3480, 141.6084
301.8301, 139.0275
302.3123, 135.6637
302.7944, 131.5125
303.2765, 127.2626
303.7586, 123.3455
304.2407, 119.7121
304.7228, 116.1701
305.2050, 112.6086
305.6871, 109.1999
306.1692, 106.2580
306.6513, 103.7130
307.1334, 101.4113
307.6155, 99.13036
308.0977, 97.04278
308.5798, 95.33735
309.0619, 93.97921
309.5440, 93.11670
310.0261, 93.27666
310.5082, 94.11403
310.9904, 94.57909
311.4725, 93.95619
311.9546, 92.79025
312.4367, 91.54182
312.9188, 90.28716
313.4009, 88.96017
313.8831, 87.60574
314.3652, 86.16183
314.8473, 84.49214
315.3294, 82.29890
315.8115, 80.01859
316.2936, 77.88924
316.7758, 75.93400
317.2579, 74.14283
317.7400, 72.51189
318.2221, 71.03341
318.7042, 69.66225
319.1863, 68.51599
319.6685, 67.35906
320.1506, 66.07394
320.6327, 64.65378
321.1148, 63.26294
321.5969, 61.80381
322.0790, 60.47514
322.5612, 59.41009
323.0433, 59.09153
323.5254, 58.57862
324.0075, 57.59735
324.4896, 56.18954
324.9717, 54.74535
325.4539, 53.01779
325.9360, 51.46543
326.4181, 50.36637
326.9002, 50.14501
327.3823, 49.85282
327.8644, 49.37880
328.3466, 48.78567
328.8287, 48.26545
329.3108, 47.90873
329.7929, 47.54498
330.2750, 47.10571
330.7571, 46.48577
331.2393, 46.01454
331.7214, 45.69891
332.2035, 45.52874
332.6856, 45.51499
333.1677, 45.88251
333.6498, 46.07425
334.1320, 45.84894
334.6141, 45.11593
335.0962, 44.72668
335.5783, 44.81552
336.0604, 45.10888
336.5425, 45.34429
337.0247, 45.54145
337.5068, 45.62323
337.9889, 45.52599
338.4710, 45.28315
338.9531, 45.18353
339.4352, 45.25028
339.9173, 45.40586
340.3994, 45.62674
340.8816, 45.94334
341.3637, 46.12659
341.8458, 46.09726
342.3279, 45.96204
342.8100, 46.01732
343.2921, 46.28448
343.7743, 46.59608
344.2564, 46.87735
344.7385, 47.12852
345.2206, 47.29395
345.7027, 47.35490
346.1848, 47.37367
346.6670, 47.40582
347.1491, 47.45739
347.6312, 47.62488
348.1133, 48.03441
348.5954, 48.59769
349.0775, 49.04224
349.5597, 49.37243
350.0418, 49.57490
350.5239, 49.60634
351.0060, 49.49460
351.4881, 49.31079
351.9702, 48.99528
352.4524, 48.68938
352.9345, 48.65428
353.4166, 48.86583
353.8987, 49.10667
354.3808, 49.18556
354.8629, 49.19847
355.3451, 49.30774
355.8272, 49.60769
356.3093, 49.88501
356.7914, 49.89393
357.2735, 49.71772
357.7556, 49.58244
358.2378, 49.72535
358.7199, 49.89352
359.2020, 49.77996
359.6841, 49.26625
360.1662, 48.96662
360.6483, 49.35498
361.1305, 50.14274
361.6126, 50.92511
362.0947, 51.69448
362.5768, 52.30139
363.0589, 52.53020
363.5410, 52.38947
364.0232, 52.53601
364.5053, 53.54987
364.9874, 54.74229
365.4695, 55.57816
365.9516, 55.82177
366.4337, 55.83942
366.9159, 55.66126
367.3980, 55.30372
367.8801, 54.82827
368.3622, 54.24986
368.8443, 53.55359
369.3264, 52.71043
369.8086, 51.52679
370.2907, 50.54045
370.7728, 49.87413
371.2549, 49.36694
371.7370, 48.76948
372.2191, 48.09735
372.7013, 47.30622
373.1834, 46.35541
373.6655, 45.21549
374.1476, 44.15138
374.6297, 43.15577
375.1118, 42.27476
375.5940, 41.59725
376.0761, 41.22188
376.5582, 40.75241
377.0403, 40.09722
377.5224, 39.30478
378.0045, 38.52659
378.4867, 37.75054
378.9688, 37.08593
379.4509, 36.61972
379.9330, 36.35756
380.4151, 36.20202
380.8972, 36.18813
381.3794, 36.19525
381.8615, 36.02394
382.3436, 35.67289
382.8257, 35.22785
383.3078, 34.59736
383.7899, 33.89214
384.2721, 33.49965
384.7542, 33.43824
385.2363, 33.51670
385.7184, 33.65122
386.2005, 33.78366
386.6826, 33.72857
387.1648, 33.23054
387.6469, 32.72788
388.1290, 32.91579
388.6111, 33.67968
389.0932, 34.36639
389.5753, 34.48740
390.0575, 34.32518
390.5396, 34.16371
391.0217, 33.97974
391.5038, 34.02457
391.9859, 34.65236
392.4680, 35.61460
392.9502, 36.46824
393.4323, 36.96595
393.9144, 37.33479
394.3965, 37.63041
394.8786, 37.84985
395.3607, 38.23162
395.8429, 38.88092
396.3250, 39.72511
396.8071, 40.70050
397.2892, 41.67997
397.7713, 42.91670
398.2534, 44.67370
398.7356, 46.80930
399.2177, 48.60161
399.6998, 49.68000
400.1819, 50.64276
400.6640, 51.72941
401.1461, 52.90705
401.6283, 54.29203
402.1104, 56.11742
402.5925, 58.03954
403.0746, 59.55312
403.5567, 60.50989
404.0388, 61.32730
404.5210, 62.13174
405.0031, 62.92331
405.4852, 63.39362
405.9673, 63.35525
406.4494, 63.35111
406.9315, 63.92690
407.4137, 65.17874
407.8958, 66.24681
408.3779, 66.92740
408.8600, 67.43660
409.3421, 68.43916
409.8242, 69.97340
410.3064, 71.31808
410.7885, 71.99295
411.2706, 72.12107
411.7527, 72.22177
412.2348, 72.29057
412.7169, 72.48292
413.1991, 73.15565
413.6812, 74.13988
414.1633, 74.83093
414.6454, 74.64803
415.1275, 74.32777
415.6096, 74.98160
416.0918, 76.49438
416.5739, 78.06939
417.0560, 79.09276
417.5381, 79.90491
418.0202, 80.91283
418.5023, 82.22141
418.9845, 83.66431
419.4666, 85.14592
419.9487, 86.68266
420.4308, 88.26934
420.9129, 89.69380
421.3951, 91.36004
421.8772, 93.69396
422.3593, 96.74610
422.8414, 99.43539
423.3235, 101.2354
423.8056, 102.6617
424.2878, 104.1058
424.7699, 106.1987
425.2520, 107.6488
425.7341, 108.0832
426.2162, 107.7075
426.6983, 107.2755
427.1805, 107.0284
427.6626, 106.4525
428.1447, 105.2973
428.6268, 103.4139
429.1089, 101.5094
429.5910, 99.54350
430.0732, 97.57241
430.5553, 95.58666
431.0374, 93.52625
431.5195, 91.70112
432.0016, 90.20815
432.4837, 88.99182
432.9659, 87.87986
433.4480, 86.94061
433.9301, 85.67667
434.4122, 83.65253
434.8943, 80.94392
435.3764, 78.01708
435.8586, 74.84428
436.3407, 71.70127
436.8228, 69.05959
437.3049, 66.80451
437.7870, 64.50975
438.2691, 61.90277
438.7513, 59.15761
439.2334, 56.41801
439.7155, 53.69999
440.1976, 51.25489
440.6797, 49.43151
441.1618, 47.92176
441.6440, 46.31443
442.1261, 44.35965
442.6082, 42.60474
443.0903, 41.47685
443.5724, 40.78353
444.0545, 40.10993
444.5367, 39.35089
445.0188, 38.53176
445.5009, 37.63000
445.9830, 36.63774
446.4651, 35.68439
446.9472, 34.55898
447.4294, 33.60353
447.9115, 33.11903
448.3936, 33.78716
448.8757, 34.09089
449.3578, 33.74869
449.8399, 32.96444
450.3221, 32.41619
450.8042, 32.21819
451.2863, 32.07610
451.7684, 31.88981
452.2505, 31.66718
452.7326, 31.30558
453.2148, 30.70131
453.6969, 30.15311
454.1790, 30.12985
454.6611, 30.66917
455.1432, 31.03352
455.6253, 31.00134
456.1075, 30.72193
456.5896, 30.55645
457.0717, 30.50276
457.5538, 30.53895
458.0359, 30.68011
458.5180, 30.89539
459.0002, 31.15986
459.4823, 31.49041
459.9644, 31.71781
460.4465, 31.54117
460.9286, 31.14961
461.4107, 30.90850
461.8929, 31.12451
462.3750, 31.40030
462.8571, 31.39947
463.3392, 31.18255
463.8213, 31.03001
464.3034, 31.03685
464.7856, 31.17895
465.2677, 31.48624
465.7498, 32.07963
466.2319, 32.50803
466.7140, 32.52341
467.1961, 32.35735
467.6783, 32.30685
468.1604, 32.57736
468.6425, 32.77480
469.1246, 32.77917
469.6067, 32.61525
470.0888, 32.59720
470.5710, 32.84135
471.0531, 33.07196
471.5352, 33.15476
472.0173, 33.09525
472.4994, 32.81812
472.9815, 32.19404
473.4637, 31.53337
473.9458, 31.42816
474.4279, 31.92271
474.9100, 32.24081
475.3921, 32.03712
475.8742, 31.52377
476.3564, 31.40775
476.8385, 31.68460
477.3206, 31.92925
477.8027, 31.64343
478.2848, 31.11584
478.7669, 31.01986
479.2491, 31.52651
479.7312, 32.10607
480.2133, 32.28129
480.6954, 32.16555
481.1775, 31.96971
481.6596, 31.63652
482.1418, 31.37610
482.6239, 31.40042
483.1060, 31.66153
483.5881, 31.82120
484.0702, 31.64178
484.5523, 31.39439
485.0345, 31.24122
485.5166, 31.22629
485.9987, 31.26175
486.4808, 31.39040
486.9629, 31.54595
487.4450, 31.63980
487.9272, 31.67227
488.4093, 31.64606
488.8914, 31.58331
489.3735, 31.47073
489.8556, 31.14721
490.3377, 30.44335
490.8199, 29.89747
491.3020, 29.94661
491.7841, 30.65990
492.2662, 31.04108
492.7483, 31.00598
493.2304, 30.76822
493.7126, 30.59030
494.1947, 30.46485
494.6768, 30.33693
495.1589, 30.12168
495.6410, 29.95623
496.1231, 30.26725
496.6053, 30.95853
497.0874, 31.37307
497.5695, 30.72008
498.0516, 29.74554
498.5337, 29.37344
499.0158, 29.80174
499.4980, 30.27008
499.9801, 30.35090
500.4622, 30.19980
500.9443, 30.00158
501.4264, 29.70041
501.9085, 29.48456
502.3907, 29.40314
502.8728, 29.45122
503.3549, 29.59996
503.8370, 30.08376
504.3191, 30.44740
504.8012, 30.46495
505.2834, 29.99410
505.7655, 29.82901
506.2476, 30.12786
506.7297, 30.55309
507.2118, 30.77938
507.6939, 30.76508
508.1761, 30.71041
508.6582, 30.63333
509.1403, 30.54255
509.6224, 30.45494
510.1045, 30.37008
510.5866, 30.29770
511.0688, 30.19963
511.5509, 30.11872
512.0330, 30.19062
512.5151, 30.41776
512.9973, 30.74051
513.4794, 31.27816
513.9615, 31.83612
514.4436, 32.08204
514.9257, 31.86070
515.4078, 31.50154
515.8900, 31.15076
516.3721, 30.84225
516.8542, 30.63790
517.3363, 30.59681
517.8184, 30.62818
518.3005, 30.73887
518.7827, 30.92294
519.2648, 31.01860
519.7469, 30.97076
520.2290, 30.84702
520.7111, 30.66376
521.1932, 30.27691
521.6754, 30.14874
522.1575, 30.40120
522.6396, 30.81046
523.1217, 31.08692
523.6038, 31.24841
524.0859, 31.18233
524.5681, 30.75569
525.0502, 30.12652
525.5323, 29.86321
526.0144, 29.97875
526.4965, 30.22651
526.9786, 30.61618
527.4608, 31.01636
527.9429, 30.93673
528.4250, 30.31235
528.9071, 29.65072
529.3892, 29.42287
529.8713, 29.47675
530.3535, 29.56938
530.8356, 29.61060
531.3177, 29.69826
531.7998, 29.97511
532.2819, 30.35155
532.7640, 30.60069
533.2462, 30.52401
533.7283, 30.41871
534.2104, 30.38333
534.6925, 30.42174
535.1746, 30.57103
535.6567, 30.94245
536.1389, 31.34018
536.6210, 31.63035
537.1031, 31.72194
537.5852, 31.94044
538.0673, 32.38634
538.5494, 32.87385
539.0316, 33.05645
539.5137, 32.88334
539.9958, 32.76342
540.4779, 32.81907
540.9600, 33.01235
541.4421, 33.31029
541.9243, 33.70148
542.4064, 33.93662
542.8885, 33.68931
543.3706, 33.20803
543.8527, 32.96745
544.3348, 33.02091
544.8170, 33.13577
545.2991, 33.17267
545.7812, 33.14760
546.2633, 33.07098
546.7454, 32.83127
547.2275, 32.69666
547.7097, 32.82655
548.1918, 33.14347
548.6739, 33.46365
549.1560, 33.71814
549.6381, 34.00473
550.1202, 34.38098
550.6024, 34.85227
551.0845, 35.22054
551.5666, 35.39275
552.0487, 35.58842
552.5308, 35.97036
553.0129, 36.58859
553.4951, 37.10215
553.9772, 37.44793
554.4593, 37.79346
554.9414, 38.45106
555.4235, 39.38495
555.9056, 40.16011
556.3878, 40.56691
556.8699, 40.83318
557.3520, 41.31256
557.8341, 41.97740
558.3162, 42.70215
558.7983, 43.39552
559.2805, 44.12518
559.7626, 44.96959
560.2447, 45.93208
560.7268, 46.93004
561.2089, 47.90699
561.6910, 48.92156
562.1732, 50.03606
562.6553, 51.40421
563.1374, 52.62873
563.6195, 53.35773
564.1016, 54.01267
564.5837, 55.23829
565.0659, 57.32334
565.5480, 59.48318
566.0301, 61.61181
566.5122, 63.67757
566.9943, 65.35222
567.4764, 66.48804
567.9586, 67.87844
568.4407, 70.07822
568.9228, 72.94758
569.4049, 75.81606
569.8870, 78.65075
570.3691, 81.44598
570.8513, 83.97388
571.3334, 86.48005
571.8155, 89.40065
572.2976, 93.06331
572.7797, 96.72433
573.2618, 99.75150
573.7440, 102.4168
574.2261, 105.2801
574.7082, 108.7096
575.1903, 112.1960
575.6724, 115.4490
576.1545, 118.4988
576.6367, 121.6816
577.1188, 125.2386
577.6009, 128.6878
578.0830, 131.9169
578.5651, 134.9484
579.0472, 137.4643
579.5294, 139.2370
580.0115, 140.9580
580.4936, 143.5175
580.9757, 146.9660
581.4578, 149.7667
581.9399, 151.5964
582.4221, 152.9427
582.9042, 154.6227
583.3863, 156.5008
583.8684, 158.1253
584.3505, 159.5002
584.8326, 160.3694
585.3148, 160.1491
585.7969, 159.0606
586.2789, 158.1322
586.7610, 158.3996
587.2432, 158.6286
587.7253, 157.9562
588.2074, 156.1755
588.6895, 154.2699
589.1716, 152.4837
589.6537, 150.5984
590.1359, 148.4534
590.6180, 145.9459
591.1001, 143.3272
591.5822, 140.4731
592.0643, 137.6646
592.5464, 135.3247
593.0286, 133.4338
593.5107, 132.1986
593.9928, 131.8055
594.4749, 132.0069
594.9570, 132.2342
595.4391, 132.4892
595.9213, 132.7804
596.4034, 132.9878
596.8855, 133.2978
597.3676, 134.0483
597.8497, 135.2476
598.3318, 136.4597
598.8140, 137.5771
599.2961, 138.4738
599.7782, 139.0498
600.2603, 139.2709
600.7424, 139.1972
601.2245, 138.5941
601.7067, 137.7895
602.1888, 137.2624
602.6709, 137.5950
603.1530, 137.2069
603.6351, 135.7654
604.1172, 133.5176
604.5994, 131.1958
605.0815, 128.8587
605.5636, 126.2349
606.0457, 123.1156
606.5278, 119.6421
607.0099, 116.1895
607.4921, 112.8166
607.9742, 109.4925
608.4563, 106.3402
608.9384, 103.2133
609.4205, 99.85770
609.9026, 96.14970
610.3848, 92.71285
610.8669, 90.33304
611.3490, 88.25484
611.8311, 85.64380
612.3132, 81.67237
612.7953, 78.01575
613.2775, 75.07952
613.7596, 72.67992
614.2417, 70.42820
614.7238, 68.34892
615.2059, 66.39933
615.6880, 64.53728
616.1702, 62.77632
616.6523, 61.18344
617.1344, 59.77108
617.6165, 58.36343
618.0986, 56.80284
618.5807, 55.15899
619.0629, 53.74437
619.5450, 52.56285
620.0271, 51.37889
620.5092, 49.91572
620.9913, 48.36048
621.4734, 46.95728
621.9556, 45.71572
622.4377, 44.74781
622.9198, 44.31104
623.4019, 44.08919
623.8840, 43.71790
624.3661, 43.00246
624.8483, 42.26423
625.3304, 41.54031
625.8125, 40.82419
626.2946, 40.09106
626.7767, 39.31945
627.2589, 38.59928
627.7410, 37.97031
628.2231, 37.41438
628.7052, 36.85480
629.1873, 36.29573
629.6694, 35.67903
630.1516, 34.82643
630.6337, 33.91538
631.1158, 33.45300
631.5979, 33.46140
632.0800, 33.40364
632.5621, 32.69698
633.0443, 31.79232
633.5264, 31.20226
634.0085, 31.13695
634.4906, 31.08492
634.9727, 30.87684
635.4548, 30.57314
635.9370, 30.24249
636.4191, 29.80100
636.9012, 29.45868
637.3833, 29.26198
637.8654, 29.16422
638.3475, 29.06866
638.8297, 28.97872
639.3118, 28.87837
639.7939, 28.77190
640.2760, 28.64642
640.7581, 28.43494
641.2402, 28.14206
641.7224, 27.88572
642.2045, 27.74080
642.6866, 27.67017
643.1687, 27.64762
643.6508, 27.66945
644.1329, 27.66396
644.6151, 27.51748
645.0972, 27.37194
645.5793, 27.36917
646.0614, 27.64783
646.5435, 27.77097
647.0256, 27.53822
647.5078, 27.20230
647.9899, 27.00117
648.4720, 27.01166
648.9541, 26.94963
649.4362, 26.75388
649.9183, 26.51180
650.4005, 26.40811
650.8826, 26.43948
651.3647, 26.39590
651.8468, 26.14982
652.3289, 25.84706
652.8110, 25.72823
653.2932, 25.77100
653.7753, 25.88845
654.2574, 26.12634
654.7395, 26.34689
655.2216, 26.41664
655.7037, 26.34087
656.1859, 26.29658
656.6680, 26.42098
657.1501, 26.52326
657.6322, 26.47907
658.1143, 26.23990
658.5964, 26.08018
659.0786, 26.04103
659.5607, 26.01970
660.0428, 25.90586
660.5249, 25.69017
661.0070, 25.57355
661.4891, 25.58877
661.9713, 25.66057
662.4534, 25.65913
662.9355, 25.63434
663.4176, 25.75310
663.8997, 26.18060
664.3818, 26.55886
664.8640, 26.48103
665.3461, 26.14445
665.8282, 25.93629
666.3103, 26.17096
666.7924, 26.36700
667.2745, 26.32660
667.7567, 26.09176
668.2388, 25.93419
668.7209, 25.86128
669.2030, 25.85523
669.6851, 25.91677
670.1672, 26.04383
670.6494, 26.19351
671.1315, 26.36376
671.6136, 26.57654
672.0957, 26.93207
672.5778, 27.33790
673.0599, 27.46895
673.5421, 27.29796
674.0242, 27.15847
674.5063, 27.48913
674.9884, 27.90718
675.4705, 27.92241
675.9526, 27.21604
676.4348, 26.73781
676.9169, 27.01185
677.3990, 27.58092
677.8811, 27.93192
678.3632, 27.83040
678.8453, 27.91199
679.3275, 28.31540
679.8096, 28.84018
680.2917, 29.11335
680.7738, 29.12034
681.2559, 29.02869
681.7380, 28.82869
682.2202, 28.62896
682.7023, 28.62271
683.1844, 28.79785
683.6665, 29.10517
684.1486, 29.73826
684.6307, 30.32099
685.1129, 30.50247
685.5950, 30.34011
686.0771, 30.20719
686.5592, 30.18901
687.0413, 30.26618
687.5234, 30.46779
688.0056, 30.80390
688.4877, 31.06854
688.9698, 31.24007
689.4519, 31.37745
689.9340, 31.50766
690.4161, 31.62979
690.8983, 31.83597
691.3804, 32.16074
691.8625, 32.35942
692.3446, 31.96448
692.8267, 31.31161
693.3088, 31.11317
693.7910, 31.58525
694.2731, 32.14921
694.7552, 32.46660
695.2373, 32.62249
695.7194, 32.71454
696.2015, 32.68230
696.6837, 32.69694
697.1658, 32.87600
697.6479, 33.07685
698.1300, 33.05299
698.6121, 32.67443
699.0942, 32.44767
699.5764, 32.49523
700.0585, 32.72759
700.5406, 32.98919
701.0227, 33.26950
701.5048, 33.45562
701.9869, 33.46587
702.4691, 33.38052
702.9512, 33.24663
703.4333, 33.09527
703.9154, 33.04618
704.3975, 33.18099
704.8796, 33.41258
705.3618, 33.80144
705.8439, 34.34010
706.3260, 34.54337
706.8081, 33.98073
707.2902, 33.56184
707.7723, 33.79409
708.2545, 34.72911
708.7366, 35.09857
709.2187, 34.79822
709.7008, 34.40004
710.1829, 34.39026
710.6650, 34.66299
711.1472, 34.90878
711.6293, 35.10179
712.1114, 35.24573
712.5935, 35.34148
713.0756, 35.39273
713.5577, 35.38171
714.0399, 35.24261
714.5220, 35.21227
715.0041, 35.43645
715.4862, 35.76607
715.9683, 36.04696
716.4504, 36.26922
716.9326, 36.46942
717.4147, 36.68034
717.8968, 36.82794
718.3789, 36.71491
718.8610, 36.35871
719.3431, 36.17693
719.8253, 36.31359
720.3074, 36.58372
720.7895, 36.76274
721.2716, 36.88042
721.7537, 37.01115
722.2358, 37.33028
722.7180, 37.52568
723.2001, 37.20275
723.6822, 36.60706
724.1643, 36.49223
724.6464, 37.46309
725.1285, 38.29463
725.6107, 38.67991
726.0928, 38.70307
726.5749, 38.76697
727.0570, 38.88137
727.5391, 38.96908
728.0212, 38.91393
728.5034, 38.83131
728.9855, 39.10791
729.4676, 39.69544
729.9497, 40.24610
730.4318, 40.58124
730.9139, 40.73890
731.3961, 40.68403
731.8782, 40.42028
732.3603, 40.24383
732.8424, 40.22573
733.3245, 40.33601
733.8066, 40.56965
734.2888, 40.94859
734.7709, 41.32340
735.2530, 41.70436
735.7351, 42.06039
736.2172, 42.37863
736.6993, 42.65444
737.1815, 42.83377
737.6636, 42.90548
738.1457, 42.98152
738.6278, 43.11220
739.1099, 43.33055
739.5920, 43.72731
740.0742, 44.40160
740.5563, 44.93760
741.0384, 45.10603
741.5205, 45.09489
742.0026, 45.07590
742.4847, 44.98515
742.9669, 45.03989
743.4490, 45.30198
743.9311, 45.63425
744.4132, 45.84501
744.8953, 45.93886
745.3774, 46.08642
745.8596, 46.31010
746.3417, 46.62760
746.8238, 47.18230
747.3059, 47.82995
747.7880, 48.28242
748.2701, 48.36449
748.7523, 48.34051
749.2344, 48.20593
749.7165, 48.07413
750.1986, 48.16454
750.6807, 48.83141
751.1628, 49.19145
751.6450, 48.88525
752.1271, 48.34544
752.6092, 48.72284
753.0913, 50.07981
753.5734, 51.37280
754.0555, 52.28775
754.5377, 52.87718
755.0198, 53.07160
755.5019, 52.97459
755.9840, 52.90641
756.4661, 52.98681
756.9482, 53.17370
757.4304, 53.49831
757.9125, 53.91765
758.3946, 54.29109
758.8767, 54.50102
759.3588, 54.77796
759.8409, 55.21293
760.3231, 55.76213
760.8052, 56.18239
761.2873, 56.45490
761.7694, 56.73478
762.2515, 57.12093
762.7336, 57.56270
763.2158, 57.89251
763.6979, 58.15029
764.1800, 58.54308
764.6621, 59.40835
765.1442, 60.27796
765.6263, 60.70128
766.1085, 60.69741
766.5906, 61.03196
767.0727, 62.32861
767.5548, 63.44198
768.0369, 63.88387
768.5190, 63.66881
769.0012, 63.50588
769.4833, 63.35530
769.9654, 63.50154
770.4475, 64.40051
770.9296, 65.69509
771.4117, 66.39365
771.8939, 66.51032
772.3760, 66.65195
772.8581, 67.25546
773.3402, 68.02258
773.8223, 68.76424
774.3044, 69.46968
774.7866, 70.04958
775.2687, 70.32674
775.7508, 70.64727
776.2329, 71.18386
776.7150, 71.95104
777.1971, 72.89937
777.6793, 74.10503
778.1614, 75.10258
778.6435, 75.22990
779.1256, 74.89937
779.6077, 75.04164
780.0898, 75.73659
780.5720, 76.76032
781.0541, 78.30553
781.5362, 79.90141
782.0183, 81.09878
782.5004, 81.71148
782.9825, 82.45555
783.4647, 83.43578
783.9468, 84.51945
784.4289, 85.63428
784.9110, 86.79346
785.3931, 87.89657
785.8752, 88.91355
786.3574, 89.97302
786.8395, 91.32209
787.3216, 92.77033
787.8037, 93.83980
788.2858, 94.37810
788.7679, 95.18150
789.2501, 96.95615
789.7322, 99.07305
790.2143, 101.0189
790.6964, 102.6009
791.1785, 104.2427
791.6606, 105.9505
792.1428, 107.7086
792.6249, 109.4404
793.1070, 111.1498
793.5891, 113.1845
794.0712, 115.5958
794.5533, 118.2652
795.0355, 121.0932
795.5176, 124.1248
795.9997, 127.5158
796.4818, 131.3669
796.9639, 135.1944
797.4460, 138.5326
797.9282, 141.9112
798.4103, 145.8495
798.8924, 150.7343
799.3745, 155.3866
799.8566, 159.2995
800.3387, 163.7089
800.8209, 170.0690
801.3030, 178.2217
801.7851, 186.0108
802.2672, 193.1770
802.7493, 200.7434
803.2314, 209.6749
803.7136, 219.6113
804.1957, 229.8752
804.6778, 240.1395
805.1599, 251.7307
805.6420, 265.1526
806.1241, 280.1461
806.6063, 296.3805
807.0884, 313.9027
807.5705, 332.6294
808.0526, 352.6665
808.5347, 373.7866
809.0168, 395.6864
809.4990, 418.5630
809.9811, 443.7174
810.4632, 471.5057
810.9453, 500.9074
811.4274, 531.0316
811.9095, 562.8160
812.3917, 596.7316
812.8738, 632.6375
813.3559, 671.9227
813.8380, 714.5699
814.3201, 760.8871
814.8022, 811.6258
815.2844, 866.6478
815.7665, 924.2246
816.2486, 984.4960
816.7307, 1047.245
817.2128, 1114.418
817.6949, 1184.231
818.1771, 1254.098
818.6592, 1323.786
819.1413, 1388.920
819.6234, 1449.894
820.1055, 1503.879
820.5876, 1549.433
821.0698, 1588.836
821.5519, 1610.973
822.0340, 1615.134
822.5161, 1602.947
822.9982, 1573.406
823.4803, 1526.769
823.9625, 1473.993
824.4446, 1415.260
824.9267, 1352.116
825.4088, 1284.006
825.8909, 1213.439
826.3730, 1144.816
826.8552, 1077.299
827.3373, 1015.211
827.8194, 960.2295
828.3015, 910.6888
828.7836, 864.1143
829.2657, 820.2960
829.7479, 783.0209
830.2300, 753.7559
830.7121, 728.2792
831.1942, 703.3754
831.6763, 679.8113
832.1584, 661.0834
832.6406, 647.3837
833.1227, 636.3984
833.6048, 627.0236
834.0869, 619.5530
834.5690, 613.8807
835.0511, 609.9612
835.5333, 608.7965
836.0154, 610.6212
836.4975, 614.6367
836.9796, 620.3314
837.4617, 627.8041
837.9438, 637.9671
838.4260, 650.8759
838.9081, 665.6005
839.3902, 681.0177
839.8723, 698.1120
840.3544, 718.3594
840.8365, 741.6361
841.3187, 766.2096
841.8008, 789.2184
842.2829, 815.0273
842.7650, 846.0432
843.2471, 882.1778
843.7292, 919.7814
844.2114, 958.4938
844.6935, 999.9011
845.1756, 1044.837
845.6577, 1092.917
846.1398, 1144.265
846.6219, 1198.864
847.1041, 1256.614
847.5862, 1318.873
848.0683, 1382.998
848.5504, 1448.332
849.0325, 1513.923
849.5146, 1578.501
849.9968, 1643.474
850.4789, 1704.371
850.9610, 1761.189
851.4431, 1812.566
851.9252, 1854.581
852.4073, 1887.187
852.8895, 1909.105
853.3716, 1920.449
853.8537, 1919.460
854.3358, 1902.932
854.8179, 1872.088
855.3000, 1830.314
855.7822, 1775.898
856.2643, 1713.441
856.7464, 1641.601
857.2285, 1564.065
857.7106, 1485.817
858.1927, 1406.269
858.6749, 1327.295
859.1570, 1248.119
859.6391, 1170.543
860.1212, 1097.879
860.6033, 1029.912
861.0854, 966.3604
861.5676, 906.8165
862.0497, 851.1006
862.5318, 800.0967
863.0139, 752.8124
863.4960, 709.0841
863.9781, 668.2202
864.4603, 630.6982
864.9424, 596.2776
865.4245, 564.6031
865.9066, 534.5038
866.3887, 506.3788
866.8708, 481.1102
867.3530, 459.0574
867.8351, 439.0924
868.3172, 419.7938
868.7993, 401.7841
869.2814, 385.8054
869.7635, 372.2655
870.2457, 359.4820
870.7278, 346.8902
871.2099, 335.3293
871.6920, 325.6501
872.1741, 318.0063
872.6563, 310.5979
873.1384, 303.3770
873.6205, 297.2254
874.1026, 293.3110
874.5847, 290.6642
875.0668, 287.9978
875.5490, 285.2401
876.0311, 283.3626
876.5132, 283.2387
876.9953, 283.6199
877.4774, 284.0024
877.9595, 284.3790
878.4417, 284.6696
878.9238, 284.9664
879.4059, 284.6384
879.8880, 283.4547
880.3701, 281.3603
880.8522, 278.5069
881.3344, 274.7194
881.8165, 269.2475
882.2986, 261.0573
882.7807, 251.7176
883.2628, 241.7466
883.7449, 231.2303
884.2271, 220.5687
884.7092, 209.6650
885.1913, 198.8273
885.6734, 187.9369
886.1555, 177.4162
886.6376, 167.9429
887.1198, 159.6774
887.6019, 152.6221
888.0840, 147.1281
888.5661, 142.3416
889.0482, 137.9174
889.5303, 133.7786
890.0125, 129.8670
890.4946, 125.9790
890.9767, 122.5815
891.4588, 119.6932
891.9409, 117.2718
892.4230, 115.2493
892.9052, 113.6090
893.3873, 112.3731
893.8694, 111.5838
894.3515, 110.8470
894.8336, 109.7834
895.3157, 108.6201
895.7979, 107.5558
896.2800, 106.5877
896.7621, 105.8841
897.2442, 105.4748
897.7263, 105.2864
898.2084, 105.2952
898.6906, 105.4975
899.1727, 105.7860
899.6548, 106.1583
900.1369, 106.7278
900.6190, 107.6317
901.1011, 108.7383
901.5833, 109.8977
902.0654, 111.0988
902.5475, 112.4704
903.0296, 113.9066
903.5117, 115.6872
903.9938, 117.9427
904.4760, 120.5862
904.9581, 123.2033
905.4402, 125.7898
905.9223, 128.8215
906.4044, 132.6493
906.8865, 136.9355
907.3687, 141.3146
907.8508, 145.8468
908.3329, 150.5738
908.8150, 155.3256
909.2971, 160.5171
909.7792, 166.0758
910.2614, 172.1989
910.7435, 179.2210
911.2256, 187.1630
911.7077, 195.7536
912.1898, 205.0467
912.6719, 214.9734
913.1541, 225.4531
913.6362, 236.4349
914.1183, 247.9615
914.6004, 260.3829
915.0825, 272.0961
915.5646, 283.1733
916.0468, 292.8283
916.5289, 300.8965
917.0110, 307.7003
917.4931, 310.3367
917.9752, 308.7218
918.4573, 303.8425
918.9395, 296.3547
919.4216, 286.1446
919.9037, 272.2606
920.3858, 254.9657
920.8679, 237.3290
921.3500, 219.3876
921.8322, 202.4992
922.3143, 186.8178
922.7964, 172.6119
923.2785, 160.8280
923.7606, 151.6401
924.2427, 143.4830
924.7249, 135.7922
925.2070, 128.9070
925.6891, 123.7421
926.1712, 119.8907
926.6533, 116.5045
927.1354, 113.2007
927.6176, 110.3754
928.0997, 108.1980
928.5818, 106.5134
929.0639, 105.1709
929.5460, 104.1801
930.0281, 103.4037
930.5103, 102.8140
930.9924, 102.5255
931.4745, 102.8963
931.9566, 103.5771
932.4387, 103.9740
932.9208, 103.9490
933.4030, 103.9985
933.8851, 104.0310
934.3672, 104.4786
934.8493, 105.6576
935.3314, 107.6062
935.8135, 109.3554
936.2957, 110.8933
936.7778, 112.3366
937.2599, 113.3800
937.7420, 114.5912
938.2241, 117.2647
938.7062, 121.0009
939.1884, 124.2637
939.6705, 125.5782
940.1526, 127.3273
940.6347, 130.4513
941.1168, 134.3966
941.5989, 137.7568
942.0811, 140.4196
942.5632, 143.8139
943.0453, 148.4792
943.5274, 153.3826
944.0095, 157.2043
944.4916, 160.5041
944.9738, 164.1537
945.4559, 168.2480
945.9380, 172.9950
946.4201, 179.1051
946.9022, 185.4200
947.3843, 190.9689
947.8665, 195.6705
948.3486, 201.0736
948.8307, 207.2386
949.3128, 213.3242
949.7949, 218.3865
950.2770, 223.2014
950.7592, 228.5751
951.2413, 234.5112
951.7234, 240.4684
952.2055, 246.5677
952.6876, 252.3508
953.1697, 257.8035
953.6519, 262.8128
954.1340, 267.0564
954.6161, 270.5424
955.0982, 273.0195
955.5803, 274.2004
956.0624, 274.7359
956.5446, 275.3441
957.0267, 275.7122
957.5088, 275.3653
957.9909, 274.0528
958.4730, 272.1359
958.9551, 269.5677
959.4373, 266.4979
959.9194, 262.9412
960.4015, 258.9386
960.8836, 255.0222
961.3657, 251.2690
961.8478, 246.8490
962.3300, 240.5403
962.8121, 233.7805
963.2942, 227.8849
963.7763, 222.9344
964.2584, 217.7337
964.7405, 212.2193
965.2227, 206.6045
965.7048, 200.9800
966.1869, 194.9786
966.6690, 189.2144
967.1511, 182.7141
967.6332, 176.2996
968.1154, 169.9470
968.5975, 163.9353
969.0796, 158.5422
969.5617, 153.5185
970.0438, 148.2231
970.5259, 142.4082
971.0081, 137.0774
971.4902, 132.3885
971.9723, 128.0143
972.4544, 123.6802
972.9365, 119.4010
973.4186, 115.3971
973.9008, 111.6833
974.3829, 108.0859
974.8650, 104.4728
975.3471, 101.0617
975.8292, 97.98267
976.3113, 95.21349
976.7935, 92.34412
977.2756, 89.31420
977.7577, 86.69131
978.2398, 84.90205
978.7219, 83.44074
979.2040, 81.51945
979.6862, 79.35373
980.1683, 77.41608
980.6504, 76.07143
981.1325, 74.67595
981.6146, 73.00963
982.0967, 71.31482
982.5789, 69.85457
983.0610, 68.62854
983.5431, 67.58272
984.0252, 66.71486
984.5073, 65.85004
984.9894, 64.78942
985.4716, 63.66468
985.9537, 62.62911
986.4358, 61.70065
986.9179, 60.65564
987.4000, 59.25306
987.8821, 58.10472
988.3643, 57.48857
988.8464, 57.26842
989.3285, 57.12872
989.8106, 57.03200
990.2927, 56.78401
990.7748, 56.21673
991.2570, 55.60389
991.7391, 55.16673
992.2212, 54.77539
992.7033, 54.20868
993.1854, 53.36142
993.6675, 52.59284
994.1497, 51.89906
994.6318, 51.33316
995.1139, 51.11436
995.5960, 51.01805
996.0781, 50.44091
996.5602, 49.36916
997.0424, 48.57946
997.5245, 48.86750
998.0066, 49.05928
998.4887, 48.49972
998.9708, 47.40395
999.4529, 46.75875
999.9351, 46.59430
1000.417, 46.39668
1000.899, 45.94133
1001.381, 45.47157
1001.864, 45.36768
1002.346, 45.41601
1002.828, 45.27528
1003.310, 44.74676
1003.792, 44.22373
1004.274, 43.72491
1004.756, 43.25410
1005.238, 42.78578
1005.720, 42.33683
1006.203, 41.98025
1006.685, 41.72849
1007.167, 41.65008
1007.649, 41.96117
1008.131, 42.31270
1008.613, 42.45718
1009.095, 42.41791
1009.577, 42.44207
1010.060, 42.63477
1010.542, 42.51955
1011.024, 41.86220
1011.506, 41.10566
1011.988, 41.09699
1012.470, 41.50131
1012.952, 41.58596
1013.434, 41.06127
1013.916, 40.57880
1014.399, 40.39215
1014.881, 40.34094
1015.363, 40.36264
1015.845, 40.46122
1016.327, 40.38643
1016.809, 40.13612
1017.291, 39.86390
1017.773, 39.60467
1018.255, 39.42358
1018.738, 39.43639
1019.220, 39.57904
1019.702, 39.66277
1020.184, 39.61592
1020.666, 39.57072
1021.148, 39.53618
1021.630, 39.51912
1022.112, 39.57101
1022.595, 39.64952
1023.077, 39.57530
1023.559, 39.30357
1024.041, 39.08924
1024.523, 39.14322
1025.005, 39.26146
1025.487, 39.32892
1025.969, 39.34201
1026.452, 39.22898
1026.934, 38.97438
1027.416, 38.72060
1027.898, 38.53260
1028.380, 38.37565
1028.862, 38.14333
1029.344, 37.91947
1029.826, 37.86079
1030.308, 38.33123
1030.791, 38.49334
1031.273, 38.15400
1031.755, 37.68054
1032.237, 37.44528
1032.719, 37.40789
1033.201, 37.25652
1033.683, 36.98301
1034.165, 36.76804
1034.647, 36.73014
1035.130, 36.79748
1035.612, 37.00998
1036.094, 37.30461
1036.576, 37.38735
1037.058, 37.21504
1037.540, 37.00522
1038.022, 36.79485
1038.504, 36.61226
1038.987, 36.52367
1039.469, 36.48392
1039.951, 36.44941
1040.433, 36.47898
1040.915, 36.24445
1041.397, 35.37278
1041.879, 34.59579
1042.361, 34.38841
1042.844, 34.65444
1043.326, 34.58820
1043.808, 34.23074
1044.290, 33.96203
1044.772, 34.14263
1045.254, 34.31613
1045.736, 34.15541
1046.218, 33.79522
1046.700, 33.50902
1047.182, 33.32313
1047.665, 33.15197
1048.147, 32.98864
1048.629, 32.84983
1049.111, 32.68589
1049.593, 32.58837
1050.075, 32.83311
1050.557, 33.41685
1051.039, 33.66862
1051.522, 33.06443
1052.004, 32.43687
1052.486, 31.99344
1052.968, 31.71451
1053.450, 31.58562
1053.932, 31.58454
1054.414, 31.58218
1054.896, 31.54603
1055.379, 31.48216
1055.861, 31.38790
1056.343, 31.27195
1056.825, 31.10612
1057.307, 30.83624
1057.789, 30.91720
1058.271, 31.42887
1058.753, 31.82354
1059.235, 31.61875
1059.718, 31.15665
1060.200, 30.92607
1060.682, 30.85636
1061.164, 30.74530
1061.646, 30.44543
1062.128, 30.22236
1062.610, 30.14359
1063.092, 30.10438
1063.574, 29.89879
1064.057, 29.60568
1064.539, 29.68191
1065.021, 30.17498
1065.503, 30.48087
1065.985, 29.87200
1066.467, 29.29178
1066.949, 29.51007
1067.431, 30.25866
1067.914, 30.33191
1068.396, 29.65697
1068.878, 29.08490
1069.360, 28.83667
1069.842, 28.84243
1070.324, 29.29698
1070.806, 29.82194
1071.288, 29.85160
1071.771, 28.98378
1072.253, 28.60629
1072.735, 28.96244
1073.217, 29.37799
1073.699, 29.42630
1074.181, 29.23121
1074.663, 29.11013
1075.145, 29.05627
1075.627, 29.05009
1076.109, 29.08944
1076.592, 29.16984
1077.074, 29.39349
1077.556, 29.57807
1078.038, 29.44320
1078.520, 28.99388
1079.002, 28.84202
1079.484, 29.03535
1079.966, 29.17524
1080.448, 28.70867
1080.931, 28.27048
1081.413, 28.46153
1081.895, 29.19200
1082.377, 29.66227
1082.859, 29.86104
1083.341, 29.77945
1083.823, 29.31711
1084.305, 28.84105
1084.788, 28.96508
1085.270, 29.37254
1085.752, 29.58700
1086.234, 29.50168
1086.716, 29.32774
1087.198, 28.98229
1087.680, 28.76154
1088.162, 28.89834
1088.645, 29.21300
1089.127, 28.98284
1089.609, 28.37094
1090.091, 28.03043
1090.573, 28.48614
1091.055, 28.85052
1091.537, 28.49492
1092.019, 28.02928
1092.501, 28.14774
1092.984, 28.94729
1093.466, 29.06815
1093.948, 28.48460
1094.430, 27.93683
1094.912, 27.95892
1095.394, 28.22029
1095.876, 28.63138
1096.358, 29.04970
1096.840, 29.01706
1097.323, 28.24721
1097.805, 27.91061
1098.287, 28.23990
1098.769, 28.72927
1099.251, 28.74570
1099.733, 28.56138
1100.215, 28.62579
1100.697, 28.97900
1101.180, 29.26053
1101.662, 29.35727
1102.144, 29.39447
1102.626, 29.35600
1103.108, 29.33370
1103.590, 29.66453
1104.072, 30.19602
1104.554, 30.41695
1105.036, 30.12149
1105.519, 29.76277
1106.001, 29.46164
1106.483, 29.26931
1106.965, 29.24146
1107.447, 29.36361
1107.929, 29.45952
1108.411, 29.52442
1108.893, 29.47725
1109.375, 29.16428
1109.858, 28.87479
1110.340, 28.84058
1110.822, 28.96753
1111.304, 29.13749
1111.786, 29.40010
1112.268, 29.46303
1112.750, 29.28959
1113.232, 29.12766
1113.715, 29.21957
1114.197, 29.39603
1114.679, 29.48118
1115.161, 29.47236
1115.643, 29.37383
1116.125, 29.02535
1116.607, 28.92631
1117.089, 29.21899
1117.572, 29.59268
1118.054, 29.65423
1118.536, 29.50379
1119.018, 29.30885
1119.500, 29.09198
1119.982, 28.96754
1120.464, 28.95088
1120.946, 29.09957
1121.428, 29.54975
1121.911, 30.06972
1122.393, 30.00485
1122.875, 29.50137
1123.357, 29.20531
1123.839, 29.28321
1124.321, 29.49915
1124.803, 29.94856
1125.285, 30.26266
1125.767, 30.12303
1126.250, 29.60774
1126.732, 29.56325
1127.214, 29.96691
1127.696, 30.19761
1128.178, 29.85202
1128.660, 29.50431
1129.142, 29.79981
1129.624, 30.28146
1130.107, 30.32644
1130.589, 29.74929
1131.071, 29.59400
1131.553, 29.92252
1132.035, 30.17760
1132.517, 29.77468
1132.999, 29.26300
1133.481, 29.41284
1133.964, 29.94873
1134.446, 30.22617
1134.928, 29.92542
1135.410, 29.79759
1135.892, 29.90890
1136.374, 30.10757
1136.856, 30.34640
1137.338, 30.51887
1137.820, 30.30333
1138.302, 29.78370
1138.785, 29.51232
1139.267, 29.97219
1139.749, 30.27826
1140.231, 30.23214
1140.713, 30.05103
1141.195, 30.07175
1141.677, 30.21621
1142.159, 30.23447
1142.642, 30.09188
1143.124, 30.03086
1143.606, 30.26430
1144.088, 30.48140
1144.570, 30.52489
1145.052, 30.49676
1145.534, 30.71574
1146.016, 31.13170
1146.499, 31.48289
1146.981, 31.72373
1147.463, 31.80158
1147.945, 31.57926
1148.427, 31.27140
1148.909, 30.99257
1149.391, 30.75561
1149.873, 30.68139
1150.355, 30.76434
1150.838, 30.90670
1151.320, 31.14073
1151.802, 31.27891
1152.284, 31.01469
1152.766, 30.67772
1153.248, 30.67874
1153.730, 31.09188
1154.212, 31.18414
1154.694, 30.92999
1155.177, 30.69147
1155.659, 30.73128
1156.141, 30.82537
1156.623, 30.74810
1157.105, 30.57457
1157.587, 30.44136
1158.069, 30.37401
1158.551, 30.29935
1159.034, 30.21441
1159.516, 30.12893
1159.998, 30.02397
1160.480, 29.94208
1160.962, 29.95992
1161.444, 30.04781
1161.926, 30.10713
1162.408, 30.14518
1162.891, 30.08827
1163.373, 29.89273
1163.855, 29.71952
1164.337, 29.79254
1164.819, 29.97640
1165.301, 30.04151
1165.783, 29.99193
1166.265, 29.99165
1166.747, 30.25247
1167.229, 30.23264
1167.712, 29.73080
1168.194, 29.12156
1168.676, 28.94403
1169.158, 29.06381
1169.640, 29.25444
1170.122, 29.48764
1170.604, 29.60120
1171.086, 29.37746
1171.569, 29.27040
1172.051, 29.50458
1172.533, 29.79380
1173.015, 29.30814
1173.497, 28.41507
1173.979, 28.22950
1174.461, 29.10794
1174.943, 29.81614
1175.426, 29.78551
1175.908, 29.57647
1176.390, 29.37149
1176.872, 29.17133
1177.354, 28.92913
1177.836, 28.68833
1178.318, 28.61708
1178.800, 28.81908
1179.282, 29.03583
1179.765, 29.24911
1180.247, 29.33786
1180.729, 29.20016
1181.211, 28.87953
1181.693, 28.55743
1182.175, 28.26114
1182.657, 28.13231
1183.139, 28.29044
1183.621, 28.51395
1184.104, 28.77505
1184.586, 28.98969
1185.068, 29.09619
1185.550, 29.09521
1186.032, 28.91220
1186.514, 28.58407
1186.996, 28.42921
1187.478, 28.93781
1187.961, 29.28944
1188.443, 28.80048
1188.925, 28.14707
1189.407, 28.08056
1189.889, 28.62216
1190.371, 29.05277
1190.853, 29.35462
1191.335, 29.44219
1191.818, 29.04731
1192.300, 28.65982
1192.782, 28.59259
1193.264, 28.44261
1193.746, 28.70467
1194.228, 28.61889
1194.710, 28.80563
1195.192, 29.28234
1195.674, 29.65381
1196.156, 29.60272
1196.639, 29.38805
1197.121, 28.97686
1197.603, 28.59126
1198.085, 28.78355
1198.567, 29.60203
1199.049, 29.91592
1199.531, 29.59531
1200.013, 29.20457
1200.496, 29.11939
1200.978, 29.19218
1201.460, 29.42623
1201.942, 29.71919
1202.424, 29.77127
1202.906, 29.57202
1203.388, 29.37492
1203.870, 29.20450
1204.353, 29.18958
1204.835, 29.67102
1205.317, 30.15280
1205.799, 30.16686
1206.281, 29.83566
1206.763, 29.57212
1207.245, 29.37045
1207.727, 29.52109
1208.209, 30.15872
1208.692, 30.69986
1209.174, 30.49340
1209.656, 30.08801
1210.138, 29.92303
1210.620, 29.97535
1211.102, 30.08379
1211.584, 30.25346
1212.066, 30.23275
1212.548, 29.89678
1213.031, 29.57360
1213.513, 29.54428
1213.995, 29.64916
1214.477, 29.79220
1214.959, 29.95214
1215.441, 29.98784
1215.923, 29.89846
1216.405, 29.79361
1216.888, 29.69638
1217.370, 29.63773
1217.852, 29.70914
1218.334, 29.78243
1218.816, 29.68165
1219.298, 29.42466
1219.780, 29.56501
1220.262, 30.09523
1220.745, 30.32136
1221.227, 29.81564
1221.709, 29.32361
1222.191, 29.60747
1222.673, 30.05594
1223.155, 30.02878
1223.637, 29.52876
1224.119, 29.28752
1224.601, 29.29646
1225.083, 29.45194
1225.566, 29.83196
1226.048, 30.11368
1226.530, 29.92898
1227.012, 29.63642
1227.494, 29.62278
1227.976, 29.88980
1228.458, 30.06812
1228.940, 30.14108
1229.423, 29.84817
1229.905, 28.58701
1230.387, 27.65296
1230.869, 28.26102
1231.351, 29.24864
1231.833, 29.44434
1232.315, 28.85658
1232.797, 28.59877
1233.280, 28.63987
1233.762, 28.67972
1234.244, 28.49441
1234.726, 28.35572
1235.208, 28.47382
1235.690, 28.64612
1236.172, 28.71666
1236.654, 28.68427
1237.136, 28.41349
1237.619, 27.95397
1238.101, 27.64542
1238.583, 27.81453
1239.065, 27.99865
1239.547, 28.06799
1240.029, 28.03016
1240.511, 27.81556
1240.993, 27.46662
1241.475, 27.44057
1241.958, 27.67228
1242.440, 27.75140
1242.922, 27.24604
1243.404, 26.86444
1243.886, 26.87120
1244.368, 26.99918
1244.850, 27.01337
1245.332, 26.92887
1245.815, 26.76906
1246.297, 26.56317
1246.779, 26.44519
1247.261, 26.61213
1247.743, 26.67518
1248.225, 26.50596
1248.707, 26.30952
1249.189, 26.38330
1249.672, 26.57502
1250.154, 26.34711
1250.636, 25.79635
1251.118, 25.43588
1251.600, 25.71392
1252.082, 25.81009
1252.564, 25.55900
1253.046, 25.25177
1253.528, 25.25289
1254.010, 25.38720
1254.493, 25.29463
1254.975, 25.00990
1255.457, 24.74739
1255.939, 24.53079
1256.421, 24.39508
1256.903, 24.33165
1257.385, 24.38963
1257.867, 24.78945
1258.350, 25.23562
1258.832, 25.19953
1259.314, 24.79706
1259.796, 24.59078
1260.278, 24.72097
1260.760, 24.88217
1261.242, 25.07679
1261.724, 25.14506
1262.207, 24.74489
1262.689, 24.28781
1263.171, 24.31391
1263.653, 24.68304
1264.135, 24.81686
1264.617, 24.63348
1265.099, 24.50546
1265.581, 24.46889
1266.063, 24.47485
1266.546, 24.58389
1267.028, 24.62294
1267.510, 24.36428
1267.992, 23.93845
1268.474, 23.67303
1268.956, 23.57113
1269.438, 23.62753
1269.920, 23.84420
1270.402, 24.03214
1270.885, 24.04478
1271.367, 23.98746
1271.849, 23.87453
1272.331, 23.75917
1272.813, 23.72726
1273.295, 23.77395
1273.777, 23.88167
1274.259, 24.03838
1274.742, 24.02053
1275.224, 23.48115
1275.706, 22.99671
1276.188, 22.73222
1276.670, 22.68970
1277.152, 23.03303
1277.634, 23.61565
1278.116, 23.76369
1278.599, 23.47576
1279.081, 23.17093
1279.563, 22.92741
1280.045, 22.85979
1280.527, 23.03784
1281.009, 23.29480
1281.491, 23.47021
1281.973, 23.54483
1282.455, 23.40096
1282.938, 23.08688
1283.420, 22.91172
1283.902, 23.05349
1284.384, 23.16841
1284.866, 23.22117
1285.348, 23.22503
1285.830, 23.16150
1286.312, 23.07877
1286.794, 23.11599
1287.277, 23.20448
1287.759, 22.96392
1288.241, 22.13174
1288.723, 21.95575
1289.205, 22.65234
1289.687, 23.36657
1290.169, 23.31144
1290.651, 22.97466
1291.134, 22.72675
1291.616, 22.56317
1292.098, 22.41086
1292.580, 22.26880
1293.062, 22.12101
1293.544, 21.96519
1294.026, 21.92107
1294.508, 22.27747
1294.990, 22.55194
1295.473, 22.32019
1295.955, 21.92209
1296.437, 21.81976
1296.919, 21.97601
1297.401, 22.12604
1297.883, 22.24391
1298.365, 22.25176
1298.847, 21.95686
1299.329, 21.75072
1299.812, 21.71474
1300.294, 21.82149
1300.776, 22.15268
1301.258, 22.57356
1301.740, 22.65398
1302.222, 22.45860
1302.704, 22.37086
1303.186, 22.73746
1303.669, 22.89140
1304.151, 22.79168
1304.633, 22.44134
##END=



