##NAMES=Forsterite
##RRUFFID=R040018
##IDEAL CHEMISTRY=Mg_2_SiO_4_
##LOCALITY=Trudy's mine, San Carlos, Gila County, Arizona, USA
##OWNER=RRUFF
##SOURCE=Bob Downs
##DESCRIPTION=Green fragments from xenoliths in a basalt flow
##STATUS=The identification of this mineral has been confirmed by X-ray diffraction and chemical analysis
##URL=rruff.info/R040018
##MEASURED CHEMISTRY=(Mg_1.81_Fe_0.18_Ni_0.01_)_Î£=2_Si_1.00_O_4_; trace amounts of Mn and Ca
127.6365, 840.4424
128.1186, 843.0729
128.6008, 861.6040
129.0829, 884.6742
129.5650, 895.8420
130.0471, 895.6489
130.5292, 890.3141
131.0113, 882.5951
131.4935, 873.3301
131.9756, 866.2586
132.4577, 863.5109
132.9398, 863.2013
133.4219, 858.7820
133.9040, 849.4767
134.3862, 841.6558
134.8683, 843.3009
135.3504, 854.1719
135.8325, 865.3483
136.3146, 873.4754
136.7967, 879.0421
137.2789, 887.9312
137.7610, 901.1427
138.2431, 915.4247
138.7252, 927.7454
139.2073, 938.9077
139.6894, 944.6085
140.1716, 942.1214
140.6537, 930.1594
141.1358, 919.5210
141.6179, 909.9930
142.1000, 901.7140
142.5821, 894.5955
143.0643, 887.2520
143.5464, 883.7480
144.0285, 887.5160
144.5106, 905.3422
144.9927, 912.0753
145.4748, 902.3478
145.9570, 882.5231
146.4391, 871.6036
146.9212, 874.6548
147.4033, 880.2405
147.8854, 883.0374
148.3675, 880.0299
148.8497, 878.9601
149.3318, 881.1646
149.8139, 885.8141
150.2960, 888.7858
150.7781, 887.2739
151.2602, 886.0964
151.7424, 887.8563
152.2245, 901.0602
152.7066, 907.5348
153.1887, 901.3524
153.6708, 884.0446
154.1529, 874.1213
154.6351, 880.9537
155.1172, 890.6456
155.5993, 893.8922
156.0814, 878.1017
156.5635, 867.6279
157.0456, 871.0331
157.5278, 888.3378
158.0099, 899.8080
158.4920, 898.4242
158.9741, 891.0724
159.4562, 883.8988
159.9383, 874.9038
160.4205, 869.4235
160.9026, 871.2837
161.3847, 881.1534
161.8668, 888.7048
162.3489, 887.7487
162.8310, 883.3478
163.3132, 881.3932
163.7953, 888.1340
164.2774, 894.5165
164.7595, 894.2791
165.2416, 885.6650
165.7237, 879.7823
166.2059, 885.5415
166.6880, 896.9467
167.1701, 904.8854
167.6522, 901.7633
168.1343, 896.1256
168.6164, 893.9549
169.0986, 896.2426
169.5807, 900.3818
170.0628, 907.7878
170.5449, 915.8293
171.0270, 919.2482
171.5091, 910.7975
171.9913, 898.7809
172.4734, 891.4790
172.9555, 890.8226
173.4376, 892.1240
173.9197, 891.1950
174.4018, 888.9564
174.8840, 887.9344
175.3661, 890.8836
175.8482, 895.4626
176.3303, 898.3289
176.8124, 898.3167
177.2945, 898.0955
177.7767, 901.6779
178.2588, 908.0335
178.7409, 912.7562
179.2230, 910.8226
179.7051, 905.6760
180.1872, 904.2556
180.6694, 909.0692
181.1515, 915.5292
181.6336, 917.3168
182.1157, 914.8470
182.5978, 911.0558
183.0799, 906.3489
183.5621, 901.7327
184.0442, 900.2866
184.5263, 903.3958
185.0084, 908.8089
185.4905, 913.4795
185.9726, 917.3569
186.4547, 919.7772
186.9369, 920.2277
187.4190, 918.8029
187.9011, 915.5820
188.3832, 909.7338
188.8653, 902.8688
189.3474, 898.1946
189.8296, 895.6794
190.3117, 895.1572
190.7938, 897.1155
191.2759, 901.2905
191.7580, 905.7816
192.2401, 910.9023
192.7223, 915.7142
193.2044, 917.1375
193.6865, 914.9219
194.1686, 911.3457
194.6507, 907.0806
195.1328, 902.2780
195.6150, 901.4232
196.0971, 906.6017
196.5792, 916.2792
197.0613, 925.4121
197.5434, 934.3998
198.0255, 940.8326
198.5077, 940.3484
198.9898, 932.5620
199.4719, 927.8644
199.9540, 929.8537
200.4361, 936.9979
200.9182, 940.4061
201.4004, 939.0095
201.8825, 937.0931
202.3646, 939.2891
202.8467, 946.0425
203.3288, 953.1824
203.8109, 960.4069
204.2931, 967.3987
204.7752, 970.3914
205.2573, 967.7694
205.7394, 965.0217
206.2215, 968.9798
206.7036, 981.2516
207.1858, 991.4064
207.6679, 996.0573
208.1500, 995.7020
208.6321, 998.5563
209.1142, 1005.999
209.5963, 1014.064
210.0785, 1017.984
210.5606, 1016.403
211.0427, 1015.468
211.5248, 1015.686
212.0069, 1017.150
212.4890, 1025.093
212.9712, 1042.067
213.4533, 1061.664
213.9354, 1076.414
214.4175, 1085.013
214.8996, 1093.203
215.3817, 1102.983
215.8639, 1114.285
216.3460, 1121.792
216.8281, 1124.078
217.3102, 1124.459
217.7923, 1126.428
218.2744, 1130.163
218.7566, 1135.120
219.2387, 1141.490
219.7208, 1149.381
220.2029, 1156.262
220.6850, 1162.124
221.1671, 1166.909
221.6493, 1170.832
222.1314, 1175.066
222.6135, 1175.678
223.0956, 1170.737
223.5777, 1159.875
224.0598, 1151.334
224.5420, 1145.702
225.0241, 1141.654
225.5062, 1138.262
225.9883, 1137.411
226.4704, 1133.130
226.9525, 1123.237
227.4347, 1107.290
227.9168, 1093.194
228.3989, 1080.128
228.8810, 1069.769
229.3631, 1064.691
229.8452, 1068.189
230.3274, 1070.294
230.8095, 1068.345
231.2916, 1062.127
231.7737, 1058.306
232.2558, 1058.762
232.7379, 1059.676
233.2201, 1056.957
233.7022, 1048.551
234.1843, 1040.477
234.6664, 1033.218
235.1485, 1026.788
235.6306, 1024.520
236.1128, 1029.059
236.5949, 1035.025
237.0770, 1037.505
237.5591, 1035.941
238.0412, 1031.896
238.5233, 1024.897
239.0055, 1014.918
239.4876, 1005.960
239.9697, 997.3365
240.4518, 990.3895
240.9339, 986.7579
241.4160, 988.9589
241.8982, 989.4523
242.3803, 986.1910
242.8624, 979.3251
243.3445, 974.8419
243.8266, 973.5438
244.3087, 973.6580
244.7909, 973.9114
245.2730, 974.8333
245.7551, 974.7362
246.2372, 972.8107
246.7193, 969.2775
247.2014, 967.9546
247.6836, 972.5754
248.1657, 974.8794
248.6478, 966.6751
249.1299, 937.9637
249.6120, 920.8875
250.0941, 923.6066
250.5762, 943.0364
251.0584, 953.9708
251.5405, 952.4496
252.0226, 947.6328
252.5047, 945.8812
252.9868, 948.7423
253.4689, 950.9515
253.9511, 951.4000
254.4332, 950.6805
254.9153, 952.5541
255.3974, 959.2145
255.8795, 965.1208
256.3617, 966.1818
256.8438, 959.7013
257.3259, 955.6722
257.8080, 956.0059
258.2901, 959.2729
258.7722, 959.5975
259.2544, 955.3447
259.7365, 950.8693
260.2186, 947.9730
260.7007, 945.7767
261.1828, 948.5988
261.6649, 960.2461
262.1471, 975.8721
262.6292, 979.8550
263.1113, 966.6794
263.5934, 952.9247
264.0755, 947.0809
264.5576, 950.9755
265.0398, 956.4023
265.5219, 964.2795
266.0040, 972.8931
266.4861, 978.5125
266.9682, 980.7736
267.4503, 980.8640
267.9325, 978.1686
268.4146, 971.0363
268.8967, 969.3065
269.3788, 975.0554
269.8609, 984.1365
270.3430, 988.2878
270.8252, 986.1327
271.3073, 983.6503
271.7894, 983.6678
272.2715, 986.5869
272.7536, 987.1558
273.2357, 984.2370
273.7179, 980.5911
274.2000, 980.7848
274.6821, 985.6273
275.1642, 990.7126
275.6463, 994.9562
276.1284, 998.3539
276.6106, 998.8345
277.0927, 995.0957
277.5748, 991.2596
278.0569, 993.7992
278.5390, 1003.725
279.0211, 1011.548
279.5032, 1013.460
279.9854, 1010.264
280.4675, 1008.819
280.9496, 1008.933
281.4317, 1011.461
281.9138, 1018.524
282.3959, 1030.348
282.8781, 1040.882
283.3602, 1048.741
283.8423, 1054.121
284.3244, 1057.115
284.8065, 1057.431
285.2886, 1057.325
285.7708, 1058.559
286.2529, 1061.114
286.7350, 1064.991
287.2171, 1071.006
287.6992, 1077.782
288.1813, 1080.623
288.6635, 1079.317
289.1456, 1078.170
289.6277, 1081.320
290.1098, 1088.043
290.5919, 1092.756
291.0740, 1093.279
291.5562, 1093.388
292.0383, 1102.386
292.5204, 1119.874
293.0025, 1135.782
293.4846, 1141.527
293.9667, 1140.126
294.4489, 1142.119
294.9310, 1148.995
295.4131, 1158.897
295.8952, 1170.605
296.3773, 1183.633
296.8594, 1195.093
297.3416, 1201.416
297.8237, 1205.309
298.3058, 1212.994
298.7879, 1225.242
299.2700, 1239.887
299.7521, 1256.338
300.2343, 1273.474
300.7164, 1286.856
301.1985, 1294.801
301.6806, 1297.690
302.1627, 1294.805
302.6448, 1285.799
303.1270, 1275.372
303.6091, 1266.885
304.0912, 1260.166
304.5733, 1254.466
305.0554, 1251.932
305.5375, 1248.993
306.0197, 1239.828
306.5018, 1224.911
306.9839, 1211.948
307.4660, 1208.406
307.9481, 1210.122
308.4302, 1211.115
308.9124, 1207.652
309.3945, 1204.651
309.8766, 1206.928
310.3587, 1213.670
310.8408, 1220.473
311.3229, 1222.752
311.8051, 1224.670
312.2872, 1230.897
312.7693, 1245.509
313.2514, 1259.624
313.7335, 1267.893
314.2156, 1271.518
314.6978, 1274.164
315.1799, 1278.721
315.6620, 1282.207
316.1441, 1281.830
316.6262, 1275.559
317.1083, 1269.765
317.5905, 1266.842
318.0726, 1266.232
318.5547, 1266.949
319.0368, 1268.812
319.5189, 1271.810
320.0010, 1276.383
320.4832, 1283.045
320.9653, 1288.820
321.4474, 1292.078
321.9295, 1294.278
322.4116, 1297.136
322.8937, 1300.073
323.3759, 1304.661
323.8580, 1313.553
324.3401, 1327.171
324.8222, 1334.970
325.3043, 1330.516
325.7864, 1322.333
326.2686, 1316.992
326.7507, 1320.935
327.2328, 1321.316
327.7149, 1314.639
328.1970, 1301.699
328.6791, 1290.807
329.1613, 1282.661
329.6434, 1276.180
330.1255, 1270.932
330.6076, 1268.830
331.0897, 1265.094
331.5718, 1257.876
332.0540, 1249.018
332.5361, 1243.893
333.0182, 1244.839
333.5003, 1246.399
333.9824, 1246.644
334.4645, 1245.730
334.9467, 1242.896
335.4288, 1237.260
335.9109, 1230.354
336.3930, 1225.186
336.8751, 1223.250
337.3572, 1219.336
337.8394, 1210.605
338.3215, 1196.719
338.8036, 1188.490
339.2857, 1188.535
339.7678, 1189.668
340.2499, 1182.487
340.7321, 1165.110
341.2142, 1151.830
341.6963, 1147.928
342.1784, 1150.479
342.6605, 1144.648
343.1426, 1128.954
343.6248, 1112.025
344.1069, 1099.705
344.5890, 1092.113
345.0711, 1090.577
345.5532, 1097.827
346.0353, 1107.707
346.5175, 1104.844
346.9996, 1089.428
347.4817, 1075.737
347.9638, 1074.372
348.4459, 1082.096
348.9280, 1087.369
349.4102, 1089.242
349.8923, 1089.026
350.3744, 1087.573
350.8565, 1085.205
351.3386, 1083.134
351.8207, 1081.352
352.3029, 1080.450
352.7850, 1081.257
353.2671, 1083.792
353.7492, 1088.107
354.2313, 1097.579
354.7134, 1108.412
355.1956, 1113.714
355.6777, 1106.714
356.1598, 1097.423
356.6419, 1095.755
357.1240, 1100.515
357.6061, 1105.278
358.0883, 1104.749
358.5704, 1102.974
359.0525, 1104.531
359.5346, 1112.790
360.0167, 1119.664
360.4988, 1118.660
360.9810, 1112.717
361.4631, 1108.293
361.9452, 1106.904
362.4273, 1108.610
362.9094, 1114.107
363.3915, 1124.206
363.8737, 1134.534
364.3558, 1144.011
364.8379, 1152.736
365.3200, 1160.775
365.8021, 1167.677
366.2842, 1174.371
366.7664, 1182.283
367.2485, 1191.506
367.7306, 1196.373
368.2127, 1191.731
368.6948, 1185.349
369.1769, 1182.359
369.6591, 1187.533
370.1412, 1190.540
370.6233, 1191.921
371.1054, 1190.995
371.5875, 1184.581
372.0696, 1166.812
372.5518, 1150.787
373.0339, 1142.562
373.5160, 1146.048
373.9981, 1146.151
374.4802, 1142.368
374.9623, 1135.593
375.4445, 1126.465
375.9266, 1112.977
376.4087, 1102.559
376.8908, 1098.248
377.3729, 1099.778
377.8550, 1099.446
378.3372, 1096.545
378.8193, 1093.668
379.3014, 1094.000
379.7835, 1097.744
380.2656, 1100.124
380.7477, 1099.942
381.2299, 1098.107
381.7120, 1097.040
382.1941, 1096.770
382.6762, 1095.944
383.1583, 1092.620
383.6404, 1087.762
384.1226, 1085.531
384.6047, 1086.666
385.0868, 1089.210
385.5689, 1091.831
386.0510, 1094.064
386.5331, 1094.244
387.0153, 1089.303
387.4974, 1082.801
387.9795, 1080.294
388.4616, 1081.850
388.9437, 1083.997
389.4258, 1083.836
389.9080, 1082.638
390.3901, 1082.232
390.8722, 1083.565
391.3543, 1085.426
391.8364, 1086.471
392.3185, 1087.163
392.8007, 1089.242
393.2828, 1095.692
393.7649, 1102.446
394.2470, 1106.431
394.7291, 1106.382
395.2112, 1105.680
395.6934, 1105.692
396.1755, 1105.724
396.6576, 1104.751
397.1397, 1098.968
397.6218, 1095.488
398.1039, 1097.550
398.5861, 1105.808
399.0682, 1113.096
399.5503, 1117.250
400.0324, 1121.104
400.5145, 1126.773
400.9966, 1137.348
401.4788, 1145.457
401.9609, 1149.712
402.4430, 1151.071
402.9251, 1153.111
403.4072, 1155.681
403.8893, 1159.208
404.3714, 1164.124
404.8535, 1171.024
405.3357, 1177.120
405.8178, 1182.734
406.2999, 1187.021
406.7820, 1188.351
407.2641, 1186.280
407.7462, 1183.609
408.2284, 1180.227
408.7105, 1176.928
409.1926, 1178.890
409.6747, 1186.944
410.1568, 1194.158
410.6389, 1192.435
411.1211, 1183.748
411.6032, 1179.506
412.0853, 1182.275
412.5674, 1188.919
413.0495, 1194.687
413.5316, 1200.090
414.0138, 1207.490
414.4959, 1220.558
414.9780, 1235.698
415.4601, 1247.568
415.9422, 1255.949
416.4243, 1261.582
416.9065, 1262.462
417.3886, 1261.596
417.8707, 1263.489
418.3528, 1272.601
418.8349, 1282.186
419.3170, 1286.752
419.7992, 1287.665
420.2813, 1291.071
420.7634, 1302.167
421.2455, 1315.084
421.7276, 1325.368
422.2097, 1330.027
422.6919, 1337.803
423.1740, 1352.800
423.6561, 1371.811
424.1382, 1390.309
424.6203, 1406.524
425.1024, 1422.757
425.5846, 1440.229
426.0667, 1459.058
426.5488, 1475.937
427.0309, 1492.483
427.5130, 1505.835
427.9951, 1513.779
428.4773, 1514.256
428.9594, 1513.797
429.4415, 1512.856
429.9236, 1511.271
430.4057, 1510.132
430.8878, 1512.199
431.3700, 1506.021
431.8521, 1482.927
432.3342, 1442.934
432.8163, 1412.661
433.2984, 1393.578
433.7805, 1379.111
434.2627, 1361.915
434.7448, 1342.384
435.2269, 1324.506
435.7090, 1309.101
436.1911, 1295.820
436.6732, 1285.128
437.1554, 1276.592
437.6375, 1267.143
438.1196, 1252.357
438.6017, 1235.982
439.0838, 1225.259
439.5659, 1222.017
440.0481, 1218.634
440.5302, 1205.658
441.0123, 1188.508
441.4944, 1176.282
441.9765, 1175.945
442.4586, 1178.986
442.9408, 1182.066
443.4229, 1184.708
443.9050, 1184.103
444.3871, 1175.581
444.8692, 1165.750
445.3513, 1159.016
445.8335, 1157.520
446.3156, 1156.560
446.7977, 1155.333
447.2798, 1154.124
447.7619, 1153.450
448.2440, 1154.190
448.7262, 1154.525
449.2083, 1153.636
449.6904, 1151.375
450.1725, 1151.010
450.6546, 1154.392
451.1367, 1157.373
451.6189, 1156.765
452.1010, 1151.890
452.5831, 1144.749
453.0652, 1132.889
453.5473, 1121.218
454.0294, 1123.284
454.5116, 1141.088
454.9937, 1156.513
455.4758, 1159.727
455.9579, 1153.116
456.4400, 1150.745
456.9221, 1152.989
457.4043, 1155.690
457.8864, 1153.776
458.3685, 1148.939
458.8506, 1146.249
459.3327, 1147.664
459.8148, 1150.588
460.2970, 1151.818
460.7791, 1151.932
461.2612, 1152.815
461.7433, 1156.271
462.2254, 1160.493
462.7076, 1164.219
463.1897, 1167.448
463.6718, 1169.321
464.1539, 1169.073
464.6360, 1167.405
465.1181, 1165.004
465.6003, 1158.212
466.0824, 1154.890
466.5645, 1159.871
467.0466, 1170.635
467.5287, 1177.492
468.0108, 1175.904
468.4930, 1173.319
468.9751, 1172.485
469.4572, 1174.190
469.9393, 1174.488
470.4214, 1171.769
470.9035, 1169.087
471.3857, 1170.390
471.8678, 1177.651
472.3499, 1182.516
472.8320, 1183.066
473.3141, 1180.486
473.7962, 1178.533
474.2784, 1177.148
474.7605, 1176.891
475.2426, 1178.653
475.7247, 1182.064
476.2068, 1185.094
476.6889, 1187.835
477.1711, 1189.346
477.6532, 1188.070
478.1353, 1184.680
478.6174, 1180.655
479.0995, 1174.052
479.5816, 1169.765
480.0638, 1176.676
480.5459, 1191.657
481.0280, 1202.965
481.5101, 1200.733
481.9922, 1194.207
482.4743, 1190.175
482.9565, 1189.396
483.4386, 1191.246
483.9207, 1198.718
484.4028, 1207.332
484.8849, 1212.380
485.3670, 1211.666
485.8492, 1208.625
486.3313, 1201.046
486.8134, 1190.726
487.2955, 1186.605
487.7776, 1193.508
488.2597, 1200.965
488.7419, 1204.912
489.2240, 1204.690
489.7061, 1203.847
490.1882, 1201.774
490.6703, 1199.987
491.1524, 1200.827
491.6346, 1204.875
492.1167, 1206.677
492.5988, 1204.270
493.0809, 1199.845
493.5630, 1198.964
494.0451, 1201.542
494.5273, 1205.605
495.0094, 1213.297
495.4915, 1221.115
495.9736, 1219.414
496.4557, 1207.331
496.9378, 1194.149
497.4200, 1187.278
497.9021, 1184.912
498.3842, 1184.353
498.8663, 1184.027
499.3484, 1186.380
499.8305, 1196.032
500.3127, 1209.791
500.7948, 1219.498
501.2769, 1219.391
501.7590, 1217.077
502.2411, 1215.728
502.7232, 1215.625
503.2054, 1216.166
503.6875, 1218.311
504.1696, 1220.404
504.6517, 1221.184
505.1338, 1219.856
505.6159, 1218.503
506.0981, 1216.763
506.5802, 1215.260
507.0623, 1215.930
507.5444, 1219.848
508.0265, 1222.298
508.5086, 1219.903
508.9908, 1213.926
509.4729, 1216.779
509.9550, 1229.629
510.4371, 1242.081
510.9192, 1243.837
511.4013, 1237.234
511.8835, 1230.414
512.3655, 1223.798
512.8477, 1219.835
513.3298, 1224.437
513.8119, 1234.056
514.2940, 1240.229
514.7761, 1235.256
515.2582, 1228.353
515.7404, 1225.937
516.2225, 1227.839
516.7046, 1231.971
517.1867, 1241.746
517.6688, 1250.429
518.1509, 1252.388
518.6331, 1241.620
519.1152, 1236.987
519.5973, 1247.719
520.0794, 1263.827
520.5615, 1272.381
521.0436, 1266.969
521.5258, 1264.064
522.0079, 1267.077
522.4900, 1274.647
522.9721, 1279.986
523.4542, 1282.206
523.9363, 1284.491
524.4185, 1288.232
524.9006, 1293.459
525.3827, 1300.583
525.8648, 1310.040
526.3469, 1319.470
526.8290, 1325.303
527.3112, 1328.719
527.7933, 1334.639
528.2754, 1345.538
528.7575, 1357.169
529.2396, 1364.010
529.7217, 1367.436
530.2039, 1371.340
530.6860, 1377.149
531.1681, 1384.644
531.6502, 1393.737
532.1323, 1404.460
532.6144, 1416.873
533.0966, 1432.985
533.5787, 1449.577
534.0608, 1464.472
534.5429, 1475.054
535.0250, 1487.441
535.5071, 1503.033
535.9893, 1520.193
536.4714, 1536.267
536.9535, 1550.678
537.4356, 1564.897
537.9177, 1578.173
538.3998, 1591.373
538.8820, 1610.862
539.3641, 1638.351
539.8462, 1663.224
540.3283, 1678.385
540.8104, 1684.625
541.2925, 1687.446
541.7747, 1686.949
542.2568, 1683.620
542.7389, 1679.762
543.2210, 1673.437
543.7031, 1659.508
544.1852, 1634.041
544.6674, 1604.647
545.1495, 1576.769
545.6316, 1550.544
546.1137, 1526.300
546.5958, 1506.377
547.0779, 1486.621
547.5601, 1463.088
548.0422, 1435.418
548.5243, 1413.371
549.0064, 1403.164
549.4885, 1396.288
549.9706, 1387.104
550.4528, 1370.486
550.9349, 1361.462
551.4170, 1363.869
551.8991, 1370.647
552.3812, 1370.453
552.8633, 1360.745
553.3455, 1354.785
553.8276, 1357.383
554.3097, 1365.018
554.7918, 1365.556
555.2739, 1359.005
555.7560, 1352.070
556.2382, 1348.351
556.7203, 1347.267
557.2024, 1348.077
557.6845, 1350.807
558.1666, 1353.677
558.6487, 1354.402
559.1309, 1354.686
559.6130, 1356.917
560.0951, 1362.917
560.5772, 1368.548
561.0593, 1371.693
561.5414, 1373.156
562.0236, 1374.323
562.5057, 1371.980
562.9878, 1373.053
563.4699, 1382.192
563.9520, 1398.151
564.4341, 1408.088
564.9163, 1408.620
565.3984, 1407.844
565.8805, 1409.198
566.3626, 1412.595
566.8447, 1419.516
567.3268, 1430.951
567.8090, 1443.355
568.2911, 1452.142
568.7732, 1457.844
569.2553, 1464.753
569.7374, 1474.388
570.2195, 1484.464
570.7017, 1490.409
571.1838, 1494.068
571.6659, 1501.105
572.1480, 1516.409
572.6301, 1534.845
573.1122, 1553.779
573.5944, 1572.847
574.0765, 1588.525
574.5586, 1594.126
575.0407, 1599.641
575.5228, 1612.276
576.0049, 1637.067
576.4871, 1656.804
576.9692, 1666.726
577.4513, 1673.313
577.9334, 1683.036
578.4155, 1698.221
578.8976, 1710.488
579.3798, 1717.869
579.8619, 1722.583
580.3440, 1730.220
580.8261, 1741.069
581.3082, 1750.919
581.7903, 1758.154
582.2725, 1762.997
582.7546, 1764.176
583.2367, 1762.125
583.7188, 1762.836
584.2009, 1773.045
584.6830, 1787.643
585.1652, 1801.084
585.6473, 1813.212
586.1294, 1820.422
586.6115, 1817.466
587.0936, 1809.973
587.5757, 1803.887
588.0579, 1801.518
588.5400, 1799.694
589.0221, 1800.937
589.5042, 1802.016
589.9863, 1795.463
590.4684, 1777.279
590.9506, 1757.877
591.4327, 1738.775
591.9148, 1720.382
592.3969, 1707.746
592.8790, 1702.615
593.3611, 1695.832
593.8433, 1679.162
594.3254, 1655.155
594.8075, 1635.867
595.2896, 1621.859
595.7717, 1611.901
596.2538, 1606.681
596.7360, 1604.310
597.2181, 1601.121
597.7002, 1595.339
598.1823, 1590.588
598.6644, 1589.744
599.1465, 1591.531
599.6287, 1593.761
600.1108, 1594.545
600.5929, 1596.865
601.0750, 1603.374
601.5571, 1613.145
602.0392, 1618.762
602.5214, 1618.441
603.0035, 1616.263
603.4856, 1613.223
603.9677, 1609.070
604.4498, 1607.640
604.9319, 1609.776
605.4141, 1611.904
605.8962, 1610.820
606.3783, 1606.769
606.8604, 1601.153
607.3425, 1593.816
607.8246, 1586.174
608.3068, 1580.363
608.7889, 1575.534
609.2710, 1569.990
609.7531, 1563.054
610.2352, 1555.314
610.7173, 1546.141
611.1995, 1536.366
611.6816, 1528.158
612.1637, 1525.398
612.6458, 1521.231
613.1279, 1511.797
613.6100, 1496.884
614.0922, 1485.014
614.5743, 1476.852
615.0564, 1470.712
615.5385, 1465.409
616.0206, 1460.466
616.5027, 1460.082
616.9849, 1465.883
617.4670, 1471.372
617.9491, 1466.771
618.4312, 1454.417
618.9133, 1446.639
619.3954, 1446.476
619.8776, 1450.011
620.3597, 1455.243
620.8418, 1460.501
621.3239, 1462.024
621.8060, 1454.330
622.2881, 1446.087
622.7703, 1442.200
623.2524, 1441.956
623.7345, 1442.245
624.2166, 1442.629
624.6987, 1443.042
625.1808, 1443.565
625.6630, 1444.237
626.1451, 1444.158
626.6272, 1442.702
627.1093, 1441.473
627.5914, 1441.845
628.0735, 1443.969
628.5557, 1445.720
629.0378, 1447.317
629.5199, 1447.299
630.0020, 1440.833
630.4841, 1431.023
630.9662, 1428.761
631.4484, 1440.242
631.9305, 1452.802
632.4126, 1452.673
632.8947, 1444.696
633.3768, 1438.608
633.8589, 1439.202
634.3411, 1441.745
634.8232, 1446.192
635.3053, 1451.658
635.7874, 1453.136
636.2695, 1445.848
636.7516, 1439.220
637.2338, 1436.407
637.7159, 1437.491
638.1980, 1439.983
638.6801, 1444.543
639.1622, 1448.535
639.6443, 1449.579
640.1265, 1447.946
640.6086, 1445.848
641.0907, 1443.199
641.5728, 1441.618
642.0549, 1443.466
642.5370, 1447.472
643.0192, 1451.636
643.5013, 1456.465
643.9834, 1459.270
644.4655, 1457.510
644.9476, 1452.810
645.4297, 1447.853
645.9119, 1440.053
646.3940, 1435.822
646.8761, 1439.887
647.3582, 1449.375
647.8403, 1452.717
648.3224, 1446.117
648.8046, 1441.050
649.2867, 1442.632
649.7688, 1449.918
650.2509, 1453.734
650.7330, 1453.919
651.2151, 1452.653
651.6973, 1450.232
652.1794, 1447.756
652.6615, 1448.688
653.1436, 1453.439
653.6257, 1457.870
654.1078, 1457.627
654.5900, 1455.806
655.0721, 1455.854
655.5542, 1459.321
656.0363, 1463.132
656.5184, 1466.871
657.0005, 1470.198
657.4827, 1472.765
657.9648, 1475.570
658.4469, 1475.682
658.9290, 1471.255
659.4111, 1464.765
659.8932, 1462.409
660.3754, 1464.530
660.8575, 1467.902
661.3396, 1471.861
661.8217, 1475.917
662.3038, 1478.723
662.7859, 1480.403
663.2681, 1481.872
663.7502, 1484.873
664.2323, 1487.168
664.7144, 1485.131
665.1965, 1478.871
665.6786, 1475.384
666.1608, 1480.614
666.6429, 1487.401
667.1250, 1491.151
667.6071, 1490.007
668.0892, 1489.833
668.5714, 1491.687
669.0535, 1493.410
669.5356, 1492.306
670.0177, 1487.480
670.4998, 1486.652
670.9819, 1491.540
671.4641, 1498.012
671.9462, 1499.613
672.4283, 1497.503
672.9104, 1496.294
673.3925, 1497.423
673.8746, 1499.851
674.3568, 1503.419
674.8389, 1507.416
675.3210, 1510.301
675.8031, 1510.504
676.2852, 1510.354
676.7673, 1510.801
677.2495, 1511.718
677.7316, 1512.212
678.2137, 1512.210
678.6958, 1511.752
679.1779, 1510.047
679.6600, 1507.305
680.1422, 1509.769
680.6243, 1518.503
681.1064, 1526.428
681.5885, 1527.990
682.0706, 1524.895
682.5527, 1521.920
683.0349, 1519.247
683.5170, 1518.434
683.9991, 1523.285
684.4812, 1529.380
684.9633, 1531.323
685.4454, 1526.546
685.9276, 1522.579
686.4097, 1521.163
686.8918, 1522.259
687.3739, 1526.067
687.8560, 1535.224
688.3381, 1542.189
688.8203, 1546.192
689.3024, 1548.220
689.7845, 1549.848
690.2666, 1551.082
690.7487, 1551.434
691.2308, 1550.063
691.7130, 1548.747
692.1951, 1551.248
692.6772, 1556.650
693.1593, 1561.702
693.6414, 1565.701
694.1235, 1567.983
694.6057, 1566.636
695.0878, 1562.711
695.5699, 1560.540
696.0520, 1564.561
696.5341, 1567.632
697.0162, 1565.177
697.4984, 1557.360
697.9805, 1556.868
698.4626, 1567.463
698.9447, 1577.780
699.4268, 1580.293
699.9089, 1575.550
700.3911, 1574.595
700.8732, 1577.696
701.3553, 1581.225
701.8374, 1581.070
702.3195, 1579.449
702.8016, 1581.031
703.2838, 1587.097
703.7659, 1591.406
704.2480, 1587.898
704.7301, 1581.939
705.2122, 1578.398
705.6943, 1576.298
706.1765, 1580.253
706.6586, 1596.335
707.1407, 1614.371
707.6228, 1621.523
708.1049, 1614.620
708.5870, 1609.863
709.0692, 1609.902
709.5513, 1612.589
710.0334, 1614.463
710.5155, 1615.693
710.9976, 1617.205
711.4797, 1619.730
711.9618, 1622.113
712.4439, 1622.789
712.9260, 1622.365
713.4081, 1622.324
713.8903, 1623.026
714.3724, 1624.468
714.8545, 1626.606
715.3366, 1629.526
715.8187, 1633.606
716.3008, 1640.588
716.7830, 1645.692
717.2651, 1646.350
717.7472, 1643.467
718.2293, 1645.226
718.7114, 1651.965
719.1935, 1657.781
719.6757, 1657.816
720.1578, 1654.700
720.6399, 1652.919
721.1220, 1652.657
721.6041, 1653.982
722.0862, 1657.879
722.5684, 1662.663
723.0505, 1667.512
723.5326, 1672.626
724.0147, 1675.868
724.4968, 1674.724
724.9789, 1673.460
725.4611, 1675.114
725.9432, 1681.057
726.4253, 1684.348
726.9074, 1684.475
727.3895, 1683.531
727.8716, 1682.982
728.3538, 1683.187
728.8359, 1686.443
729.3180, 1694.082
729.8001, 1700.470
730.2822, 1697.718
730.7643, 1691.607
731.2465, 1690.119
731.7286, 1699.335
732.2107, 1707.362
732.6928, 1709.110
733.1749, 1708.362
733.6570, 1711.179
734.1392, 1720.427
734.6213, 1726.556
735.1034, 1727.689
735.5855, 1725.649
736.0676, 1723.467
736.5497, 1721.205
737.0319, 1720.056
737.5140, 1720.885
737.9961, 1722.399
738.4782, 1721.612
738.9603, 1720.102
739.4424, 1721.917
739.9246, 1732.699
740.4067, 1743.445
740.8888, 1751.429
741.3709, 1756.201
741.8530, 1756.021
742.3351, 1745.308
742.8173, 1738.701
743.2994, 1742.373
743.7815, 1753.529
744.2636, 1755.114
744.7457, 1746.248
745.2278, 1739.864
745.7100, 1746.581
746.1921, 1759.511
746.6742, 1765.049
747.1563, 1764.052
747.6384, 1762.590
748.1205, 1762.698
748.6027, 1764.816
749.0848, 1770.615
749.5669, 1780.321
750.0490, 1786.560
750.5311, 1785.106
751.0132, 1783.771
751.4954, 1786.702
751.9775, 1794.425
752.4596, 1798.774
752.9417, 1799.449
753.4238, 1798.431
753.9059, 1796.010
754.3881, 1793.297
754.8702, 1793.193
755.3523, 1795.938
755.8344, 1800.261
756.3165, 1806.615
756.7986, 1813.262
757.2808, 1818.606
757.7629, 1822.240
758.2450, 1825.447
758.7271, 1827.348
759.2092, 1829.840
759.6913, 1834.573
760.1735, 1842.346
760.6556, 1848.909
761.1377, 1854.058
761.6198, 1858.236
762.1019, 1862.212
762.5840, 1865.627
763.0662, 1866.712
763.5483, 1864.659
764.0304, 1862.965
764.5125, 1863.533
764.9946, 1866.563
765.4767, 1872.784
765.9589, 1887.029
766.4410, 1896.203
766.9231, 1893.369
767.4052, 1887.417
767.8873, 1888.117
768.3694, 1897.884
768.8516, 1904.446
769.3337, 1905.487
769.8158, 1905.305
770.2979, 1911.022
770.7800, 1921.052
771.2621, 1929.880
771.7443, 1936.439
772.2264, 1940.442
772.7085, 1939.114
773.1906, 1935.796
773.6727, 1935.478
774.1548, 1940.850
774.6370, 1947.928
775.1191, 1959.534
775.6012, 1970.944
776.0833, 1973.118
776.5654, 1962.772
777.0475, 1957.283
777.5297, 1960.570
778.0118, 1968.952
778.4939, 1977.166
778.9760, 1984.991
779.4581, 1991.317
779.9402, 1993.379
780.4224, 1997.123
780.9045, 2010.835
781.3866, 2028.983
781.8687, 2041.088
782.3508, 2036.452
782.8329, 2035.000
783.3151, 2042.622
783.7972, 2054.846
784.2793, 2061.014
784.7614, 2059.505
785.2435, 2060.906
785.7256, 2069.515
786.2078, 2080.834
786.6899, 2083.079
787.1720, 2079.544
787.6541, 2082.007
788.1362, 2103.475
788.6183, 2125.351
789.1005, 2132.889
789.5826, 2131.216
790.0647, 2132.886
790.5468, 2143.867
791.0289, 2154.668
791.5110, 2162.764
791.9932, 2169.527
792.4753, 2178.726
792.9574, 2190.522
793.4395, 2203.771
793.9216, 2217.963
794.4037, 2233.710
794.8859, 2253.737
795.3680, 2276.562
795.8501, 2296.616
796.3322, 2307.161
796.8143, 2318.345
797.2964, 2336.278
797.7786, 2359.650
798.2607, 2383.045
798.7428, 2405.199
799.2249, 2428.219
799.7070, 2451.762
800.1891, 2476.756
800.6713, 2506.167
801.1534, 2539.899
801.6355, 2580.598
802.1176, 2632.930
802.5997, 2689.457
803.0818, 2736.256
803.5640, 2777.604
804.0461, 2826.472
804.5282, 2891.337
805.0103, 2962.089
805.4924, 3032.202
805.9745, 3104.659
806.4567, 3192.992
806.9388, 3300.369
807.4209, 3414.599
807.9030, 3532.044
808.3851, 3653.997
808.8672, 3783.965
809.3494, 3921.934
809.8315, 4068.609
810.3136, 4223.287
810.7957, 4385.648
811.2778, 4556.964
811.7599, 4735.341
812.2421, 4915.532
812.7242, 5088.715
813.2063, 5271.126
813.6884, 5466.572
814.1705, 5675.795
814.6526, 5897.474
815.1348, 6132.472
815.6169, 6383.999
816.0990, 6655.562
816.5811, 6944.523
817.0632, 7250.118
817.5453, 7570.541
818.0275, 7892.047
818.5096, 8210.339
818.9917, 8524.896
819.4738, 8843.638
819.9559, 9159.158
820.4380, 9446.029
820.9202, 9723.498
821.4023, 9945.813
821.8844, 10109.15
822.3665, 10206.88
822.8486, 10216.99
823.3307, 10139.34
823.8129, 9976.643
824.2950, 9715.313
824.7771, 9389.957
825.2592, 9030.743
825.7413, 8647.745
826.2234, 8248.840
826.7056, 7807.934
827.1877, 7385.216
827.6698, 6992.468
828.1519, 6635.458
828.6340, 6311.334
829.1161, 6025.744
829.5983, 5764.605
830.0804, 5525.037
830.5625, 5309.963
831.0446, 5123.780
831.5267, 4966.357
832.0089, 4828.731
832.4910, 4712.087
832.9731, 4609.427
833.4552, 4513.911
833.9373, 4428.298
834.4194, 4357.298
834.9016, 4304.748
835.3837, 4263.166
835.8658, 4231.215
836.3479, 4208.663
836.8300, 4195.918
837.3121, 4193.253
837.7943, 4198.993
838.2764, 4213.902
838.7585, 4234.142
839.2406, 4251.778
839.7227, 4271.295
840.2048, 4301.565
840.6870, 4345.662
841.1691, 4400.513
841.6512, 4467.347
842.1333, 4543.363
842.6154, 4625.616
843.0975, 4714.935
843.5797, 4806.707
844.0618, 4899.019
844.5439, 4997.387
845.0260, 5107.153
845.5081, 5228.031
845.9902, 5356.684
846.4724, 5492.542
846.9545, 5636.618
847.4366, 5789.046
847.9187, 5951.251
848.4008, 6124.164
848.8829, 6313.573
849.3651, 6501.294
849.8472, 6685.212
850.3293, 6867.060
850.8114, 7050.435
851.2935, 7237.069
851.7756, 7412.366
852.2578, 7576.659
852.7399, 7718.004
853.2220, 7832.182
853.7041, 7915.028
854.1862, 7962.548
854.6683, 7974.099
855.1505, 7940.491
855.6326, 7849.629
856.1147, 7716.729
856.5968, 7549.631
857.0789, 7348.746
857.5610, 7115.856
858.0432, 6844.412
858.5253, 6567.219
859.0074, 6303.663
859.4895, 6052.263
859.9716, 5802.521
860.4537, 5553.452
860.9359, 5317.845
861.4180, 5097.080
861.9001, 4895.409
862.3822, 4715.447
862.8643, 4558.196
863.3464, 4410.419
863.8286, 4272.131
864.3107, 4144.255
864.7928, 4029.765
865.2749, 3926.325
865.7570, 3827.933
866.2391, 3733.982
866.7213, 3648.023
867.2034, 3574.628
867.6855, 3506.622
868.1676, 3431.828
868.6497, 3354.370
869.1318, 3288.393
869.6140, 3245.315
870.0961, 3205.294
870.5782, 3162.089
871.0603, 3118.603
871.5424, 3083.162
872.0245, 3056.668
872.5067, 3028.816
872.9888, 2994.958
873.4709, 2961.601
873.9530, 2937.922
874.4351, 2922.192
874.9172, 2911.254
875.3994, 2907.091
875.8815, 2902.480
876.3636, 2893.387
876.8457, 2882.959
877.3278, 2875.197
877.8099, 2869.724
878.2921, 2869.155
878.7742, 2875.587
879.2563, 2882.399
879.7384, 2880.597
880.2205, 2872.434
880.7026, 2864.548
881.1848, 2858.542
881.6669, 2850.341
882.1490, 2838.176
882.6311, 2821.956
883.1132, 2801.010
883.5953, 2773.774
884.0775, 2745.739
884.5596, 2715.681
885.0417, 2686.914
885.5238, 2662.323
886.0059, 2641.435
886.4880, 2622.362
886.9702, 2605.174
887.4523, 2589.034
887.9344, 2572.796
888.4165, 2557.767
888.8986, 2545.941
889.3807, 2537.322
889.8629, 2527.606
890.3450, 2513.869
890.8271, 2502.644
891.3092, 2497.524
891.7913, 2496.975
892.2734, 2491.788
892.7556, 2482.320
893.2377, 2475.107
893.7198, 2474.642
894.2019, 2477.298
894.6840, 2478.673
895.1661, 2479.972
895.6483, 2484.504
896.1304, 2499.332
896.6125, 2509.753
897.0946, 2511.162
897.5767, 2507.507
898.0588, 2507.414
898.5410, 2511.049
899.0231, 2512.874
899.5052, 2510.775
899.9873, 2508.647
900.4694, 2510.950
900.9515, 2516.746
901.4337, 2524.529
901.9158, 2534.172
902.3979, 2545.163
902.8800, 2558.513
903.3621, 2572.263
903.8442, 2584.512
904.3264, 2594.568
904.8085, 2606.808
905.2906, 2621.601
905.7727, 2638.398
906.2548, 2656.914
906.7369, 2677.263
907.2191, 2700.270
907.7012, 2726.012
908.1833, 2750.062
908.6654, 2768.411
909.1475, 2785.984
909.6296, 2804.581
910.1118, 2824.167
910.5939, 2850.792
911.0760, 2885.558
911.5581, 2920.937
912.0402, 2951.616
912.5223, 2980.888
913.0045, 3013.174
913.4866, 3049.364
913.9687, 3091.306
914.4508, 3144.643
914.9329, 3198.922
915.4150, 3251.724
915.8972, 3301.947
916.3793, 3347.319
916.8614, 3387.616
917.3435, 3423.568
917.8256, 3457.938
918.3077, 3482.365
918.7899, 3483.548
919.2720, 3464.093
919.7541, 3429.870
920.2362, 3381.618
920.7183, 3320.828
921.2004, 3237.021
921.6826, 3147.207
922.1647, 3067.530
922.6468, 2999.993
923.1289, 2936.437
923.6110, 2875.534
924.0931, 2822.637
924.5753, 2786.763
925.0574, 2762.641
925.5395, 2739.424
926.0216, 2716.276
926.5037, 2697.240
926.9858, 2685.067
927.4680, 2676.921
927.9501, 2672.389
928.4322, 2671.020
928.9143, 2668.766
929.3964, 2665.125
929.8785, 2662.476
930.3607, 2662.249
930.8428, 2663.328
931.3249, 2664.202
931.8070, 2664.335
932.2891, 2662.028
932.7712, 2649.560
933.2534, 2642.144
933.7355, 2650.321
934.2176, 2666.677
934.6997, 2676.366
935.1818, 2677.469
935.6639, 2678.401
936.1461, 2679.663
936.6282, 2682.980
937.1103, 2692.455
937.5924, 2705.413
938.0745, 2715.755
938.5566, 2722.118
939.0388, 2727.579
939.5209, 2732.606
940.0030, 2738.077
940.4851, 2744.006
940.9672, 2749.836
941.4493, 2760.980
941.9315, 2778.625
942.4136, 2795.380
942.8957, 2804.366
943.3778, 2809.738
943.8599, 2819.919
944.3420, 2834.366
944.8242, 2850.089
945.3063, 2865.999
945.7884, 2882.414
946.2705, 2900.254
946.7526, 2918.671
947.2347, 2934.482
947.7169, 2946.780
948.1990, 2963.655
948.6811, 2989.110
949.1632, 3015.721
949.6453, 3029.441
950.1274, 3037.320
950.6096, 3052.505
951.0917, 3081.485
951.5738, 3111.667
952.0559, 3140.773
952.5380, 3168.383
953.0201, 3194.071
953.5023, 3217.752
953.9844, 3239.309
954.4665, 3258.298
954.9486, 3277.537
955.4307, 3299.854
955.9128, 3323.437
956.3950, 3346.552
956.8771, 3368.995
957.3591, 3389.707
957.8412, 3411.699
958.3234, 3427.869
958.8055, 3435.867
959.2876, 3436.943
959.7697, 3434.723
960.2518, 3429.260
960.7339, 3423.698
961.2161, 3419.881
961.6982, 3415.010
962.1803, 3405.344
962.6624, 3392.726
963.1445, 3379.928
963.6266, 3368.659
964.1088, 3355.710
964.5909, 3341.962
965.0730, 3324.977
965.5551, 3299.647
966.0372, 3267.624
966.5193, 3244.359
967.0015, 3231.206
967.4836, 3218.840
967.9657, 3202.554
968.4478, 3182.225
968.9299, 3155.597
969.4120, 3122.832
969.8942, 3096.014
970.3763, 3076.678
970.8584, 3060.818
971.3405, 3048.010
971.8226, 3036.718
972.3047, 3021.349
972.7869, 3003.187
973.2690, 2987.302
973.7511, 2977.225
974.2332, 2967.909
974.7153, 2956.504
975.1974, 2944.168
975.6796, 2932.115
976.1617, 2919.633
976.6438, 2909.327
977.1259, 2900.902
977.6080, 2896.377
978.0901, 2902.183
978.5723, 2912.250
979.0544, 2912.878
979.5365, 2902.931
980.0186, 2893.553
980.5007, 2890.670
980.9828, 2889.364
981.4650, 2886.789
981.9471, 2883.445
982.4292, 2883.658
982.9113, 2887.867
983.3934, 2890.410
983.8755, 2888.263
984.3577, 2884.516
984.8398, 2883.579
985.3219, 2884.005
985.8040, 2883.080
986.2861, 2876.282
986.7682, 2873.801
987.2504, 2880.800
987.7325, 2888.021
988.2146, 2882.717
988.6967, 2866.034
989.1788, 2863.743
989.6609, 2877.929
990.1431, 2892.520
990.6252, 2891.858
991.1073, 2888.269
991.5894, 2894.450
992.0715, 2910.471
992.5536, 2918.584
993.0358, 2914.144
993.5179, 2909.396
994.0000, 2907.216
994.4821, 2908.355
994.9642, 2917.357
995.4464, 2931.580
995.9285, 2942.254
996.4106, 2945.538
996.8927, 2945.694
997.3748, 2940.344
997.8569, 2935.648
998.3391, 2939.284
998.8212, 2955.795
999.3033, 2963.833
999.7854, 2961.853
1000.268, 2957.816
1000.750, 2957.092
1001.232, 2959.449
1001.714, 2966.952
1002.196, 2978.483
1002.678, 2985.542
1003.160, 2977.625
1003.642, 2973.295
1004.124, 2979.489
1004.607, 2992.363
1005.089, 3002.163
1005.571, 3008.903
1006.053, 3010.389
1006.535, 3003.734
1007.017, 2998.427
1007.499, 3005.764
1007.981, 3018.278
1008.464, 3027.412
1008.946, 3030.480
1009.428, 3032.249
1009.910, 3032.216
1010.392, 3032.022
1010.874, 3033.257
1011.356, 3035.272
1011.838, 3034.826
1012.320, 3032.556
1012.803, 3031.960
1013.285, 3034.502
1013.767, 3039.799
1014.249, 3050.727
1014.731, 3063.605
1015.213, 3069.909
1015.695, 3068.499
1016.177, 3067.090
1016.659, 3066.372
1017.142, 3068.393
1017.624, 3078.959
1018.106, 3092.258
1018.588, 3099.953
1019.070, 3099.945
1019.552, 3099.038
1020.034, 3096.874
1020.516, 3096.373
1020.999, 3098.908
1021.481, 3104.234
1021.963, 3111.321
1022.445, 3120.047
1022.927, 3129.594
1023.409, 3141.727
1023.891, 3152.000
1024.373, 3157.017
1024.855, 3158.290
1025.338, 3158.191
1025.820, 3155.643
1026.302, 3155.367
1026.784, 3157.724
1027.266, 3162.140
1027.748, 3169.623
1028.230, 3178.143
1028.712, 3183.398
1029.195, 3185.241
1029.677, 3188.084
1030.159, 3193.053
1030.641, 3200.433
1031.123, 3211.912
1031.605, 3225.225
1032.087, 3232.593
1032.569, 3234.130
1033.052, 3232.260
1033.534, 3225.921
1034.016, 3221.054
1034.498, 3224.424
1034.980, 3231.630
1035.462, 3237.557
1035.944, 3241.526
1036.426, 3243.879
1036.908, 3243.914
1037.391, 3244.342
1037.873, 3247.177
1038.355, 3251.854
1038.837, 3256.922
1039.319, 3262.473
1039.801, 3268.708
1040.283, 3277.814
1040.765, 3285.038
1041.247, 3287.564
1041.730, 3288.142
1042.212, 3291.522
1042.694, 3297.728
1043.176, 3302.055
1043.658, 3303.468
1044.140, 3306.012
1044.622, 3316.794
1045.104, 3328.262
1045.587, 3331.841
1046.069, 3326.050
1046.551, 3324.120
1047.033, 3327.336
1047.515, 3332.453
1047.997, 3338.499
1048.479, 3345.402
1048.961, 3354.368
1049.443, 3363.963
1049.926, 3370.350
1050.408, 3369.267
1050.890, 3369.925
1051.372, 3379.734
1051.854, 3389.212
1052.336, 3388.171
1052.818, 3375.411
1053.300, 3379.688
1053.782, 3401.374
1054.265, 3420.831
1054.747, 3422.161
1055.229, 3416.853
1055.711, 3411.430
1056.193, 3407.414
1056.675, 3409.785
1057.157, 3423.372
1057.639, 3429.743
1058.122, 3423.066
1058.604, 3415.647
1059.086, 3429.400
1059.568, 3453.497
1060.050, 3465.293
1060.532, 3460.197
1061.014, 3455.979
1061.496, 3460.891
1061.979, 3466.818
1062.461, 3470.368
1062.943, 3472.117
1063.425, 3474.513
1063.907, 3477.667
1064.389, 3482.265
1064.871, 3489.346
1065.353, 3496.715
1065.835, 3503.077
1066.318, 3508.577
1066.800, 3513.713
1067.282, 3519.297
1067.764, 3521.396
1068.246, 3519.021
1068.728, 3517.628
1069.210, 3521.495
1069.692, 3528.885
1070.174, 3538.861
1070.657, 3550.122
1071.139, 3558.321
1071.621, 3557.828
1072.103, 3560.043
1072.585, 3568.991
1073.067, 3578.610
1073.549, 3576.217
1074.031, 3565.977
1074.514, 3568.284
1074.996, 3586.557
1075.478, 3603.414
1075.960, 3603.831
1076.442, 3602.873
1076.924, 3611.174
1077.406, 3626.962
1077.888, 3638.706
1078.370, 3646.369
1078.853, 3651.157
1079.335, 3652.007
1079.817, 3653.360
1080.299, 3663.928
1080.781, 3676.398
1081.263, 3679.972
1081.745, 3666.522
1082.227, 3661.624
1082.709, 3667.985
1083.192, 3676.193
1083.674, 3679.771
1084.156, 3680.941
1084.638, 3684.955
1085.120, 3691.519
1085.602, 3699.680
1086.084, 3715.644
1086.566, 3724.040
1087.048, 3715.319
1087.531, 3703.708
1088.013, 3707.708
1088.495, 3725.796
1088.977, 3740.596
1089.459, 3750.865
1089.941, 3757.554
1090.423, 3758.062
1090.905, 3758.229
1091.388, 3761.834
1091.870, 3768.496
1092.352, 3776.479
1092.834, 3786.352
1093.316, 3793.626
1093.798, 3796.958
1094.280, 3798.578
1094.762, 3799.424
1095.245, 3801.015
1095.727, 3805.626
1096.209, 3814.112
1096.691, 3822.418
1097.173, 3831.355
1097.655, 3837.257
1098.137, 3837.224
1098.619, 3834.260
1099.101, 3833.969
1099.583, 3836.662
1100.066, 3843.415
1100.548, 3858.325
1101.030, 3870.750
1101.512, 3877.454
1101.994, 3881.143
1102.476, 3882.283
1102.958, 3881.313
1103.440, 3886.473
1103.923, 3897.117
1104.405, 3906.070
1104.887, 3904.887
1105.369, 3905.247
1105.851, 3916.618
1106.333, 3933.091
1106.815, 3942.244
1107.297, 3942.379
1107.780, 3948.630
1108.262, 3963.352
1108.744, 3976.762
1109.226, 3976.679
1109.708, 3973.270
1110.190, 3977.750
1110.672, 3989.811
1111.154, 3997.942
1111.636, 3999.650
1112.119, 4002.746
1112.601, 4009.462
1113.083, 4017.480
1113.565, 4024.368
1114.047, 4029.867
1114.529, 4032.684
1115.011, 4031.889
1115.493, 4034.134
1115.975, 4044.821
1116.458, 4052.545
1116.940, 4050.353
1117.422, 4043.083
1117.904, 4048.374
1118.386, 4062.507
1118.868, 4072.466
1119.350, 4069.585
1119.832, 4069.595
1120.315, 4082.717
1120.797, 4098.415
1121.279, 4109.011
1121.761, 4114.519
1122.243, 4116.955
1122.725, 4116.681
1123.207, 4119.649
1123.689, 4132.891
1124.172, 4146.906
1124.654, 4156.227
1125.136, 4161.771
1125.618, 4164.454
1126.100, 4162.215
1126.582, 4170.274
1127.064, 4190.910
1127.546, 4209.282
1128.028, 4206.147
1128.510, 4199.144
1128.993, 4210.785
1129.475, 4236.588
1129.957, 4248.480
1130.439, 4237.645
1130.921, 4233.756
1131.403, 4243.564
1131.885, 4256.271
1132.367, 4255.452
1132.850, 4249.390
1133.332, 4251.878
1133.814, 4264.701
1134.296, 4276.496
1134.778, 4284.652
1135.260, 4291.516
1135.742, 4296.979
1136.224, 4302.523
1136.707, 4313.399
1137.189, 4326.842
1137.671, 4334.614
1138.153, 4332.773
1138.635, 4334.088
1139.117, 4348.450
1139.599, 4361.763
1140.081, 4366.798
1140.563, 4365.195
1141.046, 4363.336
1141.528, 4361.981
1142.010, 4365.218
1142.492, 4377.093
1142.974, 4389.580
1143.456, 4397.998
1143.938, 4405.522
1144.420, 4415.036
1144.902, 4426.694
1145.385, 4439.020
1145.867, 4451.732
1146.349, 4460.022
1146.831, 4455.361
1147.313, 4450.779
1147.795, 4455.075
1148.277, 4465.654
1148.759, 4478.495
1149.242, 4494.799
1149.724, 4505.327
1150.206, 4509.185
1150.688, 4512.769
1151.170, 4522.309
1151.652, 4533.106
1152.134, 4541.086
1152.616, 4546.582
1153.099, 4551.333
1153.581, 4555.757
1154.063, 4557.911
1154.545, 4556.569
1155.027, 4557.235
1155.509, 4569.411
1155.991, 4585.075
1156.473, 4592.866
1156.955, 4592.622
1157.438, 4596.712
1157.920, 4609.237
1158.402, 4618.716
1158.884, 4621.479
1159.366, 4622.309
1159.848, 4628.039
1160.330, 4636.912
1160.812, 4646.833
1161.294, 4657.859
1161.777, 4665.125
1162.259, 4664.401
1162.741, 4665.834
1163.223, 4673.173
1163.705, 4684.545
1164.187, 4697.367
1164.669, 4710.575
1165.151, 4722.073
1165.634, 4731.303
1166.116, 4738.501
1166.598, 4741.675
1167.080, 4745.743
1167.562, 4754.043
1168.044, 4764.777
1168.526, 4771.599
1169.008, 4775.198
1169.490, 4777.896
1169.973, 4779.833
1170.455, 4782.687
1170.937, 4787.397
1171.419, 4793.078
1171.901, 4799.448
1172.383, 4806.385
1172.865, 4812.556
1173.347, 4818.238
1173.829, 4825.524
1174.312, 4837.200
1174.794, 4848.526
1175.276, 4856.601
1175.758, 4864.153
1176.240, 4873.952
1176.722, 4885.873
1177.204, 4899.786
1177.686, 4915.008
1178.169, 4924.528
1178.651, 4915.836
1179.133, 4909.067
1179.615, 4917.959
1180.097, 4933.555
1180.579, 4942.981
1181.061, 4946.034
1181.543, 4949.155
1182.026, 4952.827
1182.508, 4959.860
1182.990, 4975.061
1183.472, 4991.549
1183.954, 5007.486
1184.436, 5020.321
1184.918, 5023.332
1185.400, 5015.784
1185.882, 5012.983
1186.365, 5017.071
1186.847, 5024.300
1187.329, 5031.652
1187.811, 5041.056
1188.293, 5057.129
1188.775, 5076.635
1189.257, 5086.502
1189.739, 5085.995
1190.221, 5085.929
1190.704, 5088.263
1191.186, 5092.402
1191.668, 5096.069
1192.150, 5102.515
1192.632, 5117.145
1193.114, 5138.433
1193.596, 5152.356
1194.078, 5158.034
1194.561, 5164.209
1195.043, 5173.082
1195.525, 5183.383
1196.007, 5196.733
1196.489, 5208.765
1196.971, 5212.332
1197.453, 5225.722
1197.935, 5216.250
1198.417, 5241.672
1198.900, 5259.679
1199.382, 5259.691
1199.864, 5254.199
1200.346, 5251.544
1200.828, 5253.771
1201.310, 5266.147
1201.792, 5290.845
1202.274, 5301.990
1202.756, 5297.330
1203.239, 5299.303
1203.721, 5322.023
1204.203, 5348.172
1204.685, 5357.589
1205.167, 5359.200
1205.649, 5365.830
1206.131, 5381.050
1206.613, 5385.028
1207.096, 5375.569
1207.578, 5373.891
1208.060, 5397.703
1208.542, 5426.731
1209.024, 5438.683
1209.506, 5440.937
1209.988, 5444.531
1210.470, 5451.771
1210.953, 5454.737
1211.435, 5452.561
1211.917, 5454.099
1212.399, 5467.872
1212.881, 5485.487
1213.363, 5500.018
1213.845, 5511.673
1214.327, 5520.706
1214.809, 5525.790
1215.292, 5532.636
1215.774, 5540.826
1216.256, 5553.736
1216.738, 5579.929
1217.220, 5606.144
1217.702, 5619.086
1218.184, 5622.811
1218.666, 5626.036
1219.148, 5628.068
1219.631, 5635.435
1220.113, 5648.958
1220.595, 5662.262
1221.077, 5668.800
1221.559, 5674.233
1222.041, 5684.723
1222.523, 5698.056
1223.005, 5708.061
1223.488, 5713.247
1223.970, 5723.641
1224.452, 5740.748
1224.934, 5754.378
1225.416, 5750.578
1225.898, 5745.171
1226.380, 5753.607
1226.862, 5770.993
1227.344, 5781.297
1227.827, 5782.501
1228.309, 5790.667
1228.791, 5807.819
1229.273, 5823.207
1229.755, 5825.377
1230.237, 5824.501
1230.719, 5827.366
1231.201, 5833.927
1231.683, 5843.406
1232.166, 5856.229
1232.648, 5865.692
1233.130, 5870.797
1233.612, 5877.488
1234.094, 5894.300
1234.576, 5910.952
1235.058, 5917.851
1235.540, 5919.077
1236.023, 5925.371
1236.505, 5936.882
1236.987, 5945.636
1237.469, 5950.493
1237.951, 5955.897
1238.433, 5964.194
1238.915, 5975.390
1239.397, 5994.612
1239.880, 6014.987
1240.362, 6016.376
1240.844, 6000.789
1241.326, 5999.925
1241.808, 6019.376
1242.290, 6042.731
1242.772, 6062.141
1243.254, 6078.376
1243.736, 6092.544
1244.219, 6103.673
1244.701, 6106.155
1245.183, 6102.252
1245.665, 6109.731
1246.147, 6132.089
1246.629, 6153.620
1247.111, 6164.544
1247.593, 6173.687
1248.075, 6185.963
1248.558, 6192.163
1249.040, 6204.388
1249.522, 6205.147
1250.004, 6208.214
1250.486, 6214.834
1250.968, 6224.759
1251.450, 6242.171
1251.932, 6257.784
1252.415, 6268.411
1252.897, 6275.595
1253.379, 6280.578
1253.861, 6284.837
1254.343, 6292.410
1254.825, 6304.003
1255.307, 6317.359
1255.789, 6334.619
1256.271, 6348.391
1256.754, 6354.374
1257.236, 6359.003
1257.718, 6377.336
1258.200, 6401.879
1258.682, 6416.468
1259.164, 6417.400
1259.646, 6425.663
1260.128, 6449.156
1260.610, 6468.261
1261.093, 6476.108
1261.575, 6478.804
1262.057, 6483.858
1262.539, 6490.675
1263.021, 6498.208
1263.503, 6506.351
1263.985, 6517.753
1264.467, 6535.042
1264.950, 6545.843
1265.432, 6544.532
1265.914, 6541.554
1266.396, 6549.138
1266.878, 6563.216
1267.360, 6581.586
1267.842, 6603.785
1268.324, 6616.238
1268.807, 6617.277
1269.289, 6621.144
1269.771, 6631.601
1270.253, 6647.068
1270.735, 6671.938
1271.217, 6696.717
1271.699, 6710.749
1272.181, 6715.702
1272.663, 6720.518
1273.146, 6725.257
1273.628, 6736.073
1274.110, 6756.410
1274.592, 6774.937
1275.074, 6780.464
1275.556, 6784.177
1276.038, 6794.711
1276.520, 6809.636
1277.002, 6817.794
1277.485, 6820.982
1277.967, 6831.479
1278.449, 6853.711
1278.931, 6874.389
1279.413, 6886.639
1279.895, 6894.638
1280.377, 6897.922
1280.859, 6900.363
1281.342, 6914.149
1281.824, 6935.349
1282.306, 6952.057
1282.788, 6960.431
1283.270, 6973.465
1283.752, 7002.404
1284.234, 7023.918
1284.716, 7026.740
1285.198, 7024.038
1285.681, 7045.042
1286.163, 7076.071
1286.645, 7090.233
1287.127, 7081.300
1287.609, 7083.315
1288.091, 7102.753
1288.573, 7122.613
1289.055, 7138.530
1289.537, 7150.787
1290.020, 7155.831
1290.502, 7159.828
1290.984, 7171.935
1291.466, 7192.897
1291.948, 7205.154
1292.430, 7207.397
1292.912, 7210.275
1293.394, 7215.754
1293.877, 7226.174
1294.359, 7250.087
1294.841, 7274.763
1295.323, 7286.785
1295.805, 7289.978
1296.287, 7298.001
1296.769, 7310.774
1297.251, 7326.796
1297.734, 7346.501
1298.216, 7363.326
1298.698, 7368.291
1299.180, 7374.880
1299.662, 7392.262
1300.144, 7413.805
1300.626, 7420.923
1301.108, 7418.681
1301.590, 7426.483
1302.073, 7447.778
1302.555, 7470.773
1303.037, 7494.837
1303.519, 7513.971
1304.001, 7523.763
1304.483, 7530.802
1304.965, 7544.245
##END=



