##NAMES=Forsterite
##RRUFFID=R060535
##IDEAL CHEMISTRY=Mg_2_SiO_4_
##LOCALITY=unknown
##OWNER=RRUFF
##SOURCE=Gemological Institute of America
##DESCRIPTION=Transparent brown gemstone
##STATUS=The identification of this mineral has been confirmed by X-ray diffraction and chemical analysis
##URL=rruff.info/R060535
##MEASURED CHEMISTRY=(Mg_1.81_Fe_0.18_Ni_0.01_)_Î£=2_Si_1.00_O_4_
92.20605, 52.10101
92.68817, 52.54951
93.17029, 53.10461
93.65240, 53.05350
94.13452, 52.82315
94.61664, 52.51111
95.09875, 52.24357
95.58087, 51.92890
96.06299, 51.14069
96.54510, 49.44494
97.02722, 47.91559
97.50933, 46.70929
97.99145, 45.80634
98.47356, 45.20304
98.95568, 44.90019
99.43780, 44.83570
99.91991, 44.51798
100.4020, 43.83230
100.8841, 43.08864
101.3663, 42.40990
101.8484, 41.78715
102.3305, 41.11587
102.8126, 40.23507
103.2947, 39.02105
103.7768, 38.29599
104.2590, 38.52980
104.7411, 39.02371
105.2232, 38.96901
105.7053, 38.11381
106.1874, 37.04128
106.6695, 36.50924
107.1517, 36.45964
107.6338, 36.51377
108.1159, 36.53020
108.5980, 36.51628
109.0801, 36.53306
109.5622, 36.73826
110.0444, 36.82963
110.5265, 36.52328
111.0086, 35.78666
111.4907, 34.92822
111.9728, 34.26654
112.4549, 33.82118
112.9371, 33.52808
113.4192, 33.35141
113.9013, 33.31301
114.3834, 33.51449
114.8655, 33.99255
115.3476, 34.58064
115.8298, 34.82354
116.3119, 34.39363
116.7940, 33.98597
117.2761, 33.60661
117.7582, 33.30358
118.2403, 33.15131
118.7225, 33.20553
119.2046, 33.43974
119.6867, 33.54158
120.1688, 33.42071
120.6509, 33.28811
121.1330, 33.22833
121.6152, 33.22714
122.0973, 33.20872
122.5794, 33.09510
123.0615, 32.89558
123.5436, 32.80536
124.0257, 32.89095
124.5079, 33.04717
124.9900, 33.16584
125.4721, 33.22848
125.9542, 33.31893
126.4363, 33.56267
126.9184, 33.90125
127.4006, 34.19948
127.8827, 34.43394
128.3648, 34.59163
128.8469, 34.61972
129.3290, 34.46223
129.8111, 34.23199
130.2932, 34.01204
130.7754, 33.79227
131.2575, 33.53576
131.7396, 33.15638
132.2217, 32.62027
132.7038, 32.27193
133.1859, 32.24337
133.6681, 32.32024
134.1502, 32.42909
134.6323, 32.55778
135.1144, 32.73018
135.5965, 33.01306
136.0786, 33.60535
136.5608, 33.88045
137.0429, 33.68043
137.5250, 33.32185
138.0071, 33.00311
138.4892, 32.79377
138.9713, 32.68346
139.4535, 32.66005
139.9356, 32.85331
140.4177, 32.95411
140.8998, 32.94087
141.3819, 32.82730
141.8640, 32.58751
142.3462, 32.17886
142.8283, 31.71755
143.3104, 31.55427
143.7925, 31.78439
144.2746, 32.06287
144.7567, 32.26470
145.2388, 32.40203
145.7210, 32.53820
146.2031, 32.74752
146.6852, 32.93643
147.1673, 32.94278
147.6494, 32.68472
148.1315, 32.35431
148.6137, 32.11263
149.0958, 31.96278
149.5779, 31.87912
150.0600, 31.76038
150.5421, 31.73462
151.0242, 32.02096
151.5064, 32.83609
151.9885, 33.80441
152.4706, 34.08005
152.9527, 33.22461
153.4348, 32.48317
153.9169, 32.34279
154.3991, 32.49583
154.8812, 32.54491
155.3633, 32.23386
155.8454, 31.65752
156.3275, 31.40603
156.8096, 31.93966
157.2918, 32.33947
157.7739, 32.34215
158.2560, 32.08110
158.7381, 31.79533
159.2202, 31.65463
159.7023, 31.66061
160.1845, 31.75998
160.6666, 32.02391
161.1487, 32.29824
161.6308, 32.62873
162.1129, 32.94784
162.5950, 33.05613
163.0772, 32.73348
163.5593, 31.89854
164.0414, 31.35365
164.5235, 31.24193
165.0056, 31.28333
165.4877, 31.32030
165.9698, 31.33120
166.4520, 31.33224
166.9341, 31.33010
167.4162, 31.32615
167.8983, 31.36103
168.3804, 31.46689
168.8625, 31.60331
169.3447, 31.75772
169.8268, 31.95783
170.3089, 32.05703
170.7910, 31.79892
171.2731, 31.28025
171.7552, 30.84372
172.2374, 30.60594
172.7195, 30.55041
173.2016, 30.66160
173.6837, 31.04677
174.1658, 31.43609
174.6479, 31.65843
175.1301, 31.73075
175.6122, 31.71621
176.0943, 31.62698
176.5764, 31.46674
177.0585, 31.32774
177.5406, 31.19827
178.0228, 31.11253
178.5049, 31.06672
178.9870, 31.07122
179.4691, 31.15702
179.9512, 31.41397
180.4333, 31.92619
180.9155, 32.21639
181.3976, 32.13386
181.8797, 31.95729
182.3618, 31.77149
182.8439, 31.60354
183.3260, 31.46509
183.8082, 31.37180
184.2903, 31.33594
184.7724, 31.31882
185.2545, 31.32059
185.7366, 31.33632
186.2187, 31.36008
186.7009, 31.39205
187.1830, 31.44575
187.6651, 31.55634
188.1472, 31.86860
188.6293, 31.89585
189.1114, 31.31470
189.5936, 30.63888
190.0757, 30.33410
190.5578, 30.52308
191.0399, 30.97332
191.5220, 31.34855
192.0041, 31.66212
192.4863, 31.85270
192.9684, 31.88645
193.4505, 31.80062
193.9326, 31.60357
194.4147, 31.27454
194.8968, 30.92978
195.3790, 30.76081
195.8611, 30.74665
196.3432, 30.85745
196.8253, 31.19444
197.3074, 31.64673
197.7895, 31.96917
198.2717, 32.07684
198.7538, 32.06311
199.2359, 32.07534
199.7180, 32.12238
200.2001, 32.06852
200.6822, 31.66432
201.1644, 31.03118
201.6465, 30.80759
202.1286, 31.40026
202.6107, 32.16393
203.0928, 32.49278
203.5749, 32.38691
204.0571, 32.17678
204.5392, 32.06182
205.0213, 32.04198
205.5034, 32.16304
205.9855, 32.59778
206.4676, 33.04338
206.9497, 33.30356
207.4319, 33.37370
207.9140, 33.38403
208.3961, 33.41492
208.8782, 33.43968
209.3603, 33.65689
209.8424, 34.38916
210.3246, 35.09886
210.8067, 35.48279
211.2888, 35.53098
211.7709, 35.47188
212.2530, 35.56332
212.7351, 35.82742
213.2173, 36.17915
213.6994, 36.64476
214.1815, 37.16436
214.6636, 37.72604
215.1457, 38.31732
215.6278, 38.92223
216.1100, 39.53508
216.5921, 40.22785
217.0742, 40.73120
217.5563, 40.98934
218.0384, 41.14516
218.5205, 41.22163
219.0027, 41.25555
219.4848, 41.35473
219.9669, 41.67116
220.4490, 42.30855
220.9311, 42.92810
221.4132, 43.68709
221.8954, 44.33163
222.3775, 44.66777
222.8596, 44.66530
223.3417, 44.43080
223.8238, 44.07869
224.3059, 43.53344
224.7881, 43.07866
225.2702, 42.79753
225.7523, 42.55497
226.2344, 42.27007
226.7165, 41.92133
227.1986, 41.46439
227.6807, 40.80014
228.1629, 39.85899
228.6450, 39.09081
229.1271, 38.60247
229.6092, 38.26049
230.0913, 37.97868
230.5734, 37.74596
231.0556, 37.47099
231.5377, 36.96048
232.0198, 36.21704
232.5019, 35.78365
232.9840, 36.11266
233.4661, 36.64399
233.9483, 36.58341
234.4304, 35.74398
234.9125, 34.83610
235.3946, 34.69523
235.8767, 35.13326
236.3588, 35.36399
236.8410, 34.99157
237.3231, 34.36356
237.8052, 34.03721
238.2873, 34.13113
238.7694, 34.24591
239.2515, 33.96530
239.7337, 33.45171
240.2158, 33.06102
240.6979, 33.03063
241.1800, 33.17207
241.6621, 33.11753
242.1442, 32.79952
242.6264, 32.45501
243.1085, 32.22014
243.5906, 32.06171
244.0727, 31.94182
244.5548, 31.89683
245.0369, 31.85928
245.5191, 31.66747
246.0012, 31.26452
246.4833, 30.83957
246.9654, 30.36606
247.4475, 29.95348
247.9296, 29.78539
248.4117, 30.01197
248.8939, 30.45754
249.3760, 30.75832
249.8581, 30.94502
250.3402, 30.89376
250.8223, 30.39855
251.3044, 29.73514
251.7866, 29.20425
252.2687, 28.93789
252.7508, 28.85812
253.2329, 28.79170
253.7150, 28.73164
254.1971, 28.70317
254.6793, 28.73564
255.1614, 28.78650
255.6435, 28.81012
256.1256, 28.78669
256.6077, 28.74392
257.0898, 28.75787
257.5720, 28.92499
258.0541, 28.94843
258.5362, 28.61948
259.0183, 28.24343
259.5004, 28.13519
259.9825, 28.39499
260.4647, 28.78281
260.9468, 28.79516
261.4289, 28.03358
261.9110, 27.69632
262.3931, 28.18657
262.8752, 28.85692
263.3574, 29.19433
263.8395, 29.07044
264.3216, 28.72668
264.8037, 28.56089
265.2858, 28.75945
265.7679, 28.75449
266.2501, 28.32277
266.7322, 27.87382
267.2143, 27.72633
267.6964, 27.91545
268.1785, 28.21681
268.6606, 28.31664
269.1428, 28.06636
269.6249, 28.00747
270.1070, 28.30042
270.5891, 28.62040
271.0712, 28.83394
271.5533, 28.89384
272.0355, 28.73642
272.5176, 28.21278
272.9997, 27.07402
273.4818, 26.71079
273.9639, 27.65919
274.4460, 28.75054
274.9282, 29.44207
275.4103, 29.70206
275.8924, 29.71481
276.3745, 29.61487
276.8566, 29.37234
277.3387, 29.31692
277.8208, 29.53775
278.3029, 29.81162
278.7851, 30.10737
279.2672, 30.38428
279.7493, 30.54752
280.2314, 30.50643
280.7135, 30.27247
281.1956, 30.20544
281.6778, 30.47030
282.1599, 30.69320
282.6420, 30.70712
283.1241, 30.58003
283.6062, 30.46792
284.0883, 30.46105
284.5705, 30.54686
285.0526, 30.65647
285.5347, 30.74626
286.0168, 30.90442
286.4989, 31.23118
286.9810, 31.62943
287.4632, 31.93624
287.9453, 32.07413
288.4274, 32.08110
288.9095, 32.05902
289.3916, 31.99922
289.8737, 31.92617
290.3559, 31.78328
290.8380, 31.64689
291.3201, 31.61235
291.8022, 31.71138
292.2843, 31.93890
292.7664, 32.32719
293.2486, 33.03364
293.7307, 33.51402
294.2128, 33.48074
294.6949, 33.30441
295.1770, 33.38738
295.6591, 33.82446
296.1413, 34.44864
296.6234, 35.07912
297.1055, 35.73840
297.5876, 36.28662
298.0697, 36.66041
298.5518, 36.95809
299.0340, 37.23657
299.5161, 37.50916
299.9982, 37.82196
300.4803, 38.24210
300.9624, 38.78237
301.4445, 39.18595
301.9267, 39.47136
302.4088, 39.60759
302.8909, 39.51336
303.3730, 39.21957
303.8551, 38.91005
304.3372, 38.72632
304.8194, 38.64174
305.3015, 38.42293
305.7836, 37.91396
306.2657, 37.43810
306.7478, 37.14863
307.2299, 37.01739
307.7121, 36.93504
308.1942, 36.82167
308.6763, 36.74623
309.1584, 36.96677
309.6405, 37.67803
310.1227, 38.32769
310.6048, 38.65200
311.0869, 38.80260
311.5690, 39.06890
312.0511, 39.56720
312.5332, 40.19249
313.0154, 40.75722
313.4975, 41.29962
313.9796, 41.70085
314.4617, 41.94301
314.9438, 42.02831
315.4259, 41.91217
315.9081, 41.57555
316.3902, 41.18005
316.8723, 40.91683
317.3544, 40.80091
317.8365, 40.74145
318.3186, 40.73689
318.8007, 40.78315
319.2828, 40.82924
319.7650, 40.88268
320.2471, 41.09734
320.7292, 41.64563
321.2113, 42.53790
321.6934, 43.34886
322.1755, 44.13025
322.6577, 44.79410
323.1398, 45.21569
323.6219, 45.44418
324.1040, 45.72910
324.5861, 46.27511
325.0682, 46.97399
325.5504, 47.26756
326.0325, 46.90532
326.5146, 46.48882
326.9967, 46.25039
327.4788, 46.10888
327.9609, 45.90504
328.4431, 45.57854
328.9252, 45.13062
329.4073, 44.52308
329.8894, 43.60637
330.3715, 42.87281
330.8536, 42.60566
331.3358, 42.50151
331.8179, 42.06715
332.3000, 41.16681
332.7821, 40.29729
333.2642, 40.18337
333.7463, 41.13982
334.2285, 41.72551
334.7106, 41.71598
335.1927, 41.44041
335.6748, 41.11186
336.1569, 40.76905
336.6390, 40.40137
337.1212, 39.98787
337.6033, 39.52516
338.0854, 39.16586
338.5675, 39.18658
339.0496, 39.03333
339.5317, 38.32232
340.0139, 37.19155
340.4960, 36.05566
340.9781, 35.15476
341.4602, 34.44868
341.9423, 33.75399
342.4244, 33.02492
342.9066, 32.36056
343.3887, 31.75876
343.8708, 31.23889
344.3529, 30.85396
344.8350, 30.62764
345.3171, 30.48905
345.7993, 30.30754
346.2814, 30.06611
346.7635, 29.80298
347.2456, 29.36193
347.7277, 28.99628
348.2098, 29.00921
348.6920, 29.40924
349.1741, 29.87363
349.6562, 30.03391
350.1383, 29.81932
350.6204, 29.63425
351.1025, 29.39008
351.5847, 29.24918
352.0668, 29.35409
352.5489, 29.64378
353.0310, 29.94467
353.5131, 30.13399
353.9952, 30.22002
354.4774, 30.28954
354.9595, 30.25892
355.4416, 30.30800
355.9237, 30.45855
356.4058, 30.71278
356.8879, 31.11524
357.3701, 31.68661
357.8522, 32.31405
358.3343, 32.74746
358.8164, 32.97297
359.2985, 32.99080
359.7806, 32.44958
360.2627, 31.94855
360.7448, 32.08442
361.2270, 32.88743
361.7091, 33.80256
362.1912, 34.12843
362.6733, 33.65031
363.1554, 33.54013
363.6375, 33.92873
364.1197, 34.52995
364.6018, 35.38521
365.0839, 36.37123
365.5660, 37.21905
366.0481, 37.70788
366.5302, 37.90198
367.0124, 38.30980
367.4945, 39.18430
367.9766, 39.94988
368.4587, 40.53844
368.9408, 40.94361
369.4229, 41.18512
369.9051, 41.27124
370.3872, 41.14629
370.8693, 40.64797
371.3514, 39.58928
371.8335, 38.63646
372.3156, 37.98070
372.7978, 37.36316
373.2799, 36.61000
373.7620, 35.71087
374.2441, 34.76260
374.7262, 33.79034
375.2083, 32.78117
375.6905, 32.09166
376.1726, 32.01559
376.6547, 31.94098
377.1368, 31.66550
377.6189, 31.19038
378.1010, 30.50919
378.5832, 29.48928
379.0653, 28.35709
379.5474, 27.76569
380.0295, 27.90857
380.5116, 28.08704
380.9937, 28.07625
381.4759, 27.95473
381.9580, 27.77009
382.4401, 27.52454
382.9222, 27.27694
383.4043, 27.09149
383.8864, 26.96737
384.3686, 26.87613
384.8507, 26.89961
385.3328, 26.85247
385.8149, 26.50703
386.2970, 25.90660
386.7791, 25.41745
387.2613, 25.23315
387.7434, 25.30818
388.2255, 25.62806
388.7076, 26.30567
389.1897, 26.83330
389.6718, 26.59207
390.1540, 25.95722
390.6361, 25.71053
391.1182, 26.34544
391.6003, 27.06672
392.0824, 27.02256
392.5645, 26.31002
393.0467, 25.81496
393.5288, 26.00035
394.0109, 26.51036
394.4930, 26.66053
394.9751, 26.36005
395.4572, 26.09811
395.9394, 26.03939
396.4215, 26.14921
396.9036, 26.42136
397.3857, 26.87439
397.8678, 27.32018
398.3499, 27.53702
398.8321, 27.50658
399.3142, 27.57310
399.7963, 27.92258
400.2784, 28.23386
400.7605, 28.16156
401.2426, 27.80728
401.7247, 27.61162
402.2068, 27.83109
402.6890, 28.41631
403.1711, 29.16479
403.6532, 30.30031
404.1353, 31.29498
404.6174, 32.09688
405.0995, 32.69323
405.5817, 33.01112
406.0638, 33.03949
406.5459, 32.94136
407.0280, 32.97025
407.5101, 33.28279
407.9922, 33.18983
408.4744, 32.35995
408.9565, 31.47605
409.4386, 30.93157
409.9207, 30.67156
410.4028, 30.40847
410.8849, 29.92215
411.3671, 29.25849
411.8492, 28.75767
412.3313, 28.52874
412.8134, 28.34277
413.2955, 28.08524
413.7776, 27.89248
414.2598, 27.97568
414.7419, 28.38701
415.2240, 28.87903
415.7061, 29.03079
416.1882, 28.68705
416.6703, 28.54908
417.1525, 28.78370
417.6346, 29.11855
418.1167, 29.48913
418.5988, 29.86447
419.0809, 30.19077
419.5630, 30.42706
420.0452, 30.58706
420.5273, 30.72788
421.0094, 30.83645
421.4915, 30.95262
421.9736, 31.04562
422.4557, 31.17242
422.9379, 31.35869
423.4200, 31.58534
423.9021, 32.01474
424.3842, 32.99574
424.8663, 34.49249
425.3484, 35.62463
425.8306, 36.04949
426.3127, 36.24926
426.7948, 36.69833
427.2769, 37.35054
427.7590, 37.90655
428.2411, 38.12444
428.7233, 38.21905
429.2054, 38.62870
429.6875, 39.40797
430.1696, 39.94045
430.6517, 39.84428
431.1339, 39.19176
431.6160, 38.35558
432.0981, 37.24595
432.5802, 36.09548
433.0623, 34.97835
433.5444, 33.91313
434.0266, 32.91739
434.5087, 31.99515
434.9908, 31.18675
435.4729, 30.56928
435.9550, 30.19360
436.4371, 29.80740
436.9193, 29.36192
437.4014, 28.93619
437.8835, 28.65030
438.3656, 28.45319
438.8477, 28.12519
439.3298, 27.49386
439.8120, 26.64873
440.2941, 26.08891
440.7762, 25.99828
441.2583, 25.97113
441.7404, 26.04588
442.2225, 26.12589
442.7046, 26.11423
443.1867, 25.98805
443.6689, 25.79267
444.1510, 25.58628
444.6331, 25.37477
445.1152, 25.11920
445.5973, 24.65940
446.0794, 24.31662
446.5616, 24.26607
447.0437, 24.41109
447.5258, 24.57319
448.0079, 24.66100
448.4900, 24.68247
448.9721, 24.63648
449.4543, 24.47499
449.9364, 24.38533
450.4185, 24.43746
450.9006, 24.56035
451.3827, 24.78343
451.8648, 25.08487
452.3470, 25.24602
452.8291, 24.95466
453.3112, 24.34655
453.7933, 24.06214
454.2754, 24.24519
454.7575, 24.49150
455.2397, 24.51933
455.7218, 24.42980
456.2039, 24.39105
456.6860, 24.46732
457.1681, 24.56442
457.6502, 24.60926
458.1324, 24.60806
458.6145, 24.58578
459.0966, 24.54362
459.5787, 24.49710
460.0608, 24.46094
460.5429, 24.42919
461.0251, 24.44568
461.5072, 24.61814
461.9893, 24.77344
462.4714, 24.71946
462.9535, 24.47563
463.4356, 24.21087
463.9178, 24.01296
464.3999, 23.90181
464.8820, 23.99077
465.3641, 24.58491
465.8462, 24.97613
466.3283, 24.95092
466.8105, 24.73592
467.2926, 24.50874
467.7747, 24.33937
468.2568, 24.31980
468.7389, 24.60592
469.2210, 25.29101
469.7032, 25.67312
470.1853, 25.52086
470.6674, 25.29907
471.1495, 25.07228
471.6316, 24.88230
472.1137, 24.78895
472.5959, 24.82678
473.0780, 24.92854
473.5601, 24.98797
474.0422, 25.02226
474.5243, 24.93696
475.0064, 24.48641
475.4886, 24.10184
475.9707, 24.16181
476.4528, 24.58564
476.9349, 24.88840
477.4170, 24.60004
477.8991, 24.01812
478.3813, 23.85945
478.8634, 24.18865
479.3455, 24.56772
479.8276, 24.80639
480.3097, 24.94011
480.7918, 25.03086
481.2740, 25.06079
481.7561, 25.10562
482.2382, 25.22984
482.7203, 25.38902
483.2024, 25.51907
483.6845, 25.61006
484.1666, 25.61394
484.6487, 25.45282
485.1309, 25.12070
485.6130, 24.91198
486.0951, 24.91023
486.5772, 24.93455
487.0593, 24.88623
487.5414, 24.81408
488.0236, 24.82984
488.5057, 24.97756
488.9878, 25.16976
489.4699, 25.25130
489.9520, 25.18732
490.4341, 25.09269
490.9163, 24.95815
491.3984, 24.80728
491.8805, 24.61830
492.3626, 24.42329
492.8447, 24.28812
493.3268, 24.25484
493.8090, 24.30945
494.2911, 24.42985
494.7732, 24.66312
495.2553, 24.83361
495.7374, 24.91859
496.2195, 24.91121
496.7017, 24.68906
497.1838, 24.28940
497.6659, 24.07920
498.1480, 24.56633
498.6301, 25.42318
499.1122, 25.64975
499.5944, 25.08064
500.0765, 24.50230
500.5586, 24.38905
501.0407, 24.56046
501.5228, 24.61940
502.0049, 24.46918
502.4871, 24.37291
502.9692, 24.55006
503.4513, 24.84754
503.9334, 24.96564
504.4155, 24.83703
504.8976, 24.65270
505.3798, 24.58495
505.8619, 24.63897
506.3440, 24.79667
506.8261, 25.26360
507.3082, 25.59628
507.7903, 25.57627
508.2725, 25.33317
508.7546, 25.03816
509.2367, 24.76152
509.7188, 24.53980
510.2009, 24.43867
510.6830, 24.48706
511.1652, 24.55838
511.6473, 24.56398
512.1294, 24.68085
512.6115, 25.09656
513.0936, 25.66387
513.5757, 26.08555
514.0579, 26.19171
514.5400, 26.13441
515.0221, 26.21354
515.5042, 26.46104
515.9863, 26.60168
516.4684, 26.53878
516.9506, 26.37555
517.4327, 26.13407
517.9148, 25.84438
518.3969, 25.71061
518.8790, 25.93900
519.3611, 26.30105
519.8433, 26.45132
520.3254, 26.40801
520.8075, 26.51030
521.2896, 26.95695
521.7717, 27.60570
522.2538, 28.11938
522.7360, 28.46070
523.2181, 28.81028
523.7002, 29.25463
524.1823, 29.67883
524.6644, 29.90360
525.1465, 29.97494
525.6287, 30.18637
526.1108, 30.78921
526.5929, 31.65614
527.0750, 32.10674
527.5571, 31.63102
528.0392, 31.45946
528.5214, 31.87262
529.0035, 32.49691
529.4856, 33.09019
529.9677, 33.58788
530.4498, 33.97065
530.9319, 34.14685
531.4141, 34.18030
531.8962, 34.47709
532.3783, 35.09295
532.8604, 35.84318
533.3425, 36.66175
533.8246, 37.56911
534.3068, 38.66645
534.7889, 40.00787
535.2710, 41.24121
535.7531, 41.91327
536.2352, 42.35957
536.7173, 43.40688
537.1995, 45.19908
537.6816, 47.05713
538.1637, 48.46204
538.6458, 49.49333
539.1279, 50.64219
539.6100, 52.12929
540.0922, 53.45860
540.5743, 54.58766
541.0564, 55.44479
541.5385, 55.99841
542.0206, 56.21813
542.5027, 55.97077
542.9849, 55.08085
543.4670, 53.53675
543.9491, 51.86450
544.4312, 50.01184
544.9133, 48.09434
545.3954, 46.08199
545.8775, 44.04683
546.3596, 42.02543
546.8417, 40.03865
547.3239, 38.21349
547.8060, 36.69814
548.2881, 35.48219
548.7702, 34.54665
549.2523, 33.98903
549.7344, 33.50318
550.2166, 32.89363
550.6987, 32.23905
551.1808, 31.65082
551.6629, 31.14066
552.1450, 30.71930
552.6271, 30.40144
553.1093, 30.17443
553.5914, 30.02446
554.0735, 29.95002
554.5556, 29.90915
555.0377, 29.87574
555.5198, 29.84823
556.0020, 29.75618
556.4841, 29.60800
556.9662, 29.39642
557.4483, 28.97761
557.9304, 28.55906
558.4125, 28.44948
558.8947, 28.69307
559.3768, 29.00083
559.8589, 29.01402
560.3410, 28.72083
560.8231, 28.69767
561.3052, 29.35484
561.7874, 29.66993
562.2695, 28.95568
562.7516, 27.93992
563.2337, 27.47191
563.7158, 27.77230
564.1979, 28.39430
564.6801, 29.08780
565.1622, 29.80058
565.6443, 30.33889
566.1264, 30.66294
566.6085, 30.92522
567.0906, 31.20598
567.5728, 31.51057
568.0549, 31.85564
568.5370, 32.32290
569.0191, 32.70256
569.5012, 32.75209
569.9833, 32.75884
570.4655, 33.14297
570.9476, 33.92999
571.4297, 34.77650
571.9118, 35.37162
572.3939, 35.73470
572.8760, 36.07829
573.3582, 36.20841
573.8403, 36.60042
574.3224, 37.56062
574.8045, 38.64080
575.2866, 39.38494
575.7687, 39.77387
576.2509, 40.20512
576.7330, 41.16517
577.2151, 42.44122
577.6972, 43.07990
578.1793, 42.87370
578.6614, 42.94293
579.1436, 44.01712
579.6257, 45.49190
580.1078, 46.44372
580.5899, 46.77387
581.0720, 47.08846
581.5541, 47.50233
582.0363, 48.08638
582.5184, 49.05332
583.0005, 50.32693
583.4826, 51.43339
583.9647, 52.04692
584.4468, 52.40834
584.9290, 53.23473
585.4111, 55.00624
585.8932, 56.50690
586.3753, 57.81438
586.8574, 58.81063
587.3395, 59.27934
587.8217, 59.36777
588.3038, 59.50161
588.7859, 59.99388
589.2680, 60.51943
589.7501, 60.36207
590.2322, 59.46669
590.7144, 58.24779
591.1965, 56.65165
591.6786, 54.89661
592.1607, 53.23878
592.6428, 51.62368
593.1249, 49.79635
593.6071, 47.41923
594.0892, 45.03422
594.5713, 43.05925
595.0534, 41.45945
595.5355, 40.12783
596.0176, 39.03712
596.4998, 38.19847
596.9819, 37.68427
597.4640, 37.60815
597.9461, 37.13578
598.4282, 35.77549
598.9103, 34.64132
599.3925, 34.19983
599.8746, 34.14858
600.3567, 34.11866
600.8388, 33.98259
601.3209, 33.74395
601.8030, 33.34753
602.2852, 32.80378
602.7673, 32.43896
603.2494, 32.36042
603.7315, 32.23518
604.2136, 31.71282
604.6957, 31.11398
605.1779, 30.94469
605.6600, 31.38053
606.1421, 31.72532
606.6242, 31.47395
607.1063, 30.99686
607.5884, 30.92126
608.0706, 31.24675
608.5527, 31.35585
609.0348, 30.78117
609.5169, 29.78947
609.9990, 29.30780
610.4811, 29.84357
610.9633, 30.16475
611.4454, 30.01900
611.9275, 29.87214
612.4096, 30.23198
612.8917, 30.87052
613.3738, 31.05579
613.8560, 30.27075
614.3381, 29.03432
614.8202, 28.37208
615.3023, 28.32822
615.7844, 28.24984
616.2665, 28.01180
616.7487, 27.69712
617.2308, 27.35149
617.7129, 26.98471
618.1950, 26.63991
618.6771, 26.26053
619.1592, 25.97233
619.6414, 25.86594
620.1235, 25.90167
620.6056, 26.04664
621.0877, 26.28265
621.5698, 26.48933
622.0519, 26.53988
622.5341, 26.43381
623.0162, 26.27498
623.4983, 25.92156
623.9804, 25.70073
624.4625, 25.73719
624.9446, 25.88258
625.4268, 26.03971
625.9089, 26.17373
626.3910, 26.23107
626.8731, 26.21128
627.3552, 26.07383
627.8373, 25.59180
628.3194, 24.71784
628.8015, 24.15343
629.2836, 24.29281
629.7657, 24.74305
630.2479, 24.87645
630.7300, 24.67077
631.2121, 24.50775
631.6942, 24.46229
632.1763, 24.45752
632.6584, 24.45846
633.1406, 24.45913
633.6227, 24.44395
634.1048, 24.40836
634.5869, 24.39356
635.0690, 24.48420
635.5511, 24.71399
636.0333, 24.80753
636.5154, 24.66919
636.9975, 24.52249
637.4796, 24.49317
637.9617, 24.48452
638.4438, 24.33553
638.9260, 23.99464
639.4081, 23.72268
639.8902, 23.68782
640.3723, 23.84829
640.8544, 24.25314
641.3365, 24.87872
641.8187, 25.23850
642.3008, 24.99840
642.7829, 24.40948
643.2650, 24.09794
643.7471, 24.26648
644.2292, 24.33979
644.7114, 24.14703
645.1935, 24.02122
645.6756, 24.28782
646.1577, 24.75003
646.6398, 24.96572
647.1219, 24.72191
647.6041, 24.27728
648.0862, 23.95847
648.5683, 23.76611
649.0504, 23.76333
649.5325, 24.00684
650.0146, 24.32983
650.4968, 24.70984
650.9789, 25.07350
651.4610, 25.24478
651.9431, 25.15280
652.4252, 24.99972
652.9073, 24.79335
653.3895, 24.60926
653.8716, 24.57411
654.3537, 24.66352
654.8358, 24.70675
655.3179, 24.58621
655.8000, 24.37956
656.2822, 24.32453
656.7643, 24.53626
657.2464, 24.60655
657.7285, 24.33049
658.2106, 24.07092
658.6927, 23.98027
659.1749, 24.03247
659.6570, 24.16377
660.1391, 24.37486
660.6212, 24.59672
661.1033, 24.79587
661.5854, 24.95392
662.0676, 25.00040
662.5497, 24.92138
663.0318, 24.83788
663.5139, 24.83813
663.9960, 24.90790
664.4781, 24.97719
664.9603, 25.14945
665.4424, 25.17430
665.9245, 24.93534
666.4066, 24.63713
666.8887, 24.34571
667.3708, 24.12150
667.8530, 24.08152
668.3351, 24.31180
668.8172, 24.67551
669.2993, 25.01587
669.7814, 25.32553
670.2635, 25.38938
670.7457, 25.10549
671.2278, 24.74388
671.7099, 24.47269
672.1920, 24.29740
672.6741, 24.22249
673.1563, 24.30989
673.6384, 24.40045
674.1205, 24.46488
674.6026, 24.49897
675.0847, 24.48627
675.5668, 24.43624
676.0490, 24.38054
676.5311, 24.33653
677.0132, 24.31252
677.4953, 24.33397
677.9774, 24.40983
678.4595, 24.48608
678.9417, 24.52804
679.4238, 24.60723
679.9059, 24.85730
680.3880, 25.16611
680.8701, 25.25607
681.3522, 24.95440
681.8344, 24.66719
682.3165, 24.69426
682.7986, 24.85063
683.2807, 24.80312
683.7628, 24.55576
684.2449, 24.45365
684.7271, 24.75697
685.2092, 25.30765
685.6913, 25.59833
686.1734, 25.51615
686.6555, 25.43360
687.1376, 25.31382
687.6198, 25.25367
688.1019, 25.35737
688.5840, 25.54452
689.0661, 25.65987
689.5482, 25.65318
690.0303, 25.55978
690.5125, 25.34100
690.9946, 25.07363
691.4767, 24.93622
691.9588, 24.94717
692.4409, 24.99978
692.9230, 25.01998
693.4052, 25.04289
693.8873, 25.18724
694.3694, 25.69899
694.8515, 25.87249
695.3336, 25.26509
695.8157, 24.78992
696.2979, 25.11470
696.7800, 25.85523
697.2621, 26.21700
697.7442, 25.87704
698.2263, 25.42762
698.7084, 25.59778
699.1906, 26.15339
699.6727, 26.27820
700.1548, 25.87992
700.6369, 25.39707
701.1190, 25.01145
701.6011, 24.77124
702.0833, 24.82657
702.5654, 25.41418
703.0475, 25.73553
703.5296, 25.46394
704.0117, 25.24519
704.4938, 25.55644
704.9760, 26.10877
705.4581, 26.35870
705.9402, 26.12839
706.4223, 25.80230
706.9044, 25.82709
707.3865, 26.12251
707.8687, 26.34302
708.3508, 26.48001
708.8329, 26.52452
709.3149, 26.45930
709.7971, 26.31236
710.2792, 26.07310
710.7613, 25.66604
711.2434, 25.57484
711.7255, 26.01048
712.2076, 26.57937
712.6898, 27.32406
713.1719, 27.97973
713.6540, 28.08920
714.1361, 27.58267
714.6182, 26.96804
715.1003, 26.75100
715.5825, 26.84693
716.0646, 26.89152
716.5467, 26.87557
717.0288, 26.86835
717.5109, 26.87884
717.9930, 26.92662
718.4752, 27.07427
718.9573, 27.31794
719.4394, 27.45233
719.9215, 27.24442
720.4036, 27.17335
720.8857, 27.59059
721.3679, 28.17211
721.8500, 28.54585
722.3321, 28.64271
722.8142, 28.56156
723.2963, 28.31321
723.7784, 28.03425
724.2606, 28.20587
724.7427, 28.89609
725.2248, 29.36166
725.7069, 29.37035
726.1890, 29.24146
726.6711, 29.27452
727.1533, 29.41494
727.6354, 29.39451
728.1175, 29.01182
728.5996, 28.72177
729.0817, 28.63357
729.5638, 28.71638
730.0460, 29.02225
730.5281, 29.48169
731.0102, 29.90915
731.4923, 30.20247
731.9744, 30.36683
732.4565, 30.37188
732.9387, 30.21354
733.4208, 30.13823
733.9029, 30.22528
734.3850, 30.24653
734.8671, 29.94302
735.3492, 29.51553
735.8314, 29.46992
736.3135, 29.93506
736.7956, 30.40812
737.2777, 30.91818
737.7598, 31.28566
738.2419, 31.27557
738.7241, 31.04535
739.2062, 30.93689
739.6883, 31.07607
740.1704, 31.28145
740.6525, 31.28990
741.1346, 31.14005
741.6168, 31.14996
742.0989, 31.32654
742.5810, 31.66018
743.0631, 32.27673
743.5452, 32.90923
744.0273, 33.10295
744.5095, 32.82445
744.9916, 32.70559
745.4737, 32.90551
745.9558, 33.15082
746.4379, 33.39193
746.9200, 33.57690
747.4022, 33.61294
747.8843, 33.51118
748.3664, 33.40204
748.8485, 33.34618
749.3306, 33.40309
749.8127, 33.86084
750.2949, 34.72263
750.7770, 35.11487
751.2591, 34.73450
751.7412, 34.15074
752.2233, 33.77549
752.7054, 33.61324
753.1876, 33.66330
753.6697, 34.16098
754.1518, 34.52062
754.6339, 34.67816
755.1160, 34.66383
755.5981, 34.36390
756.0803, 33.92503
756.5624, 33.68144
757.0445, 33.79536
757.5266, 34.04679
758.0087, 34.25320
758.4908, 34.37614
758.9730, 34.14750
759.4551, 33.51785
759.9372, 33.15796
760.4193, 33.51159
760.9014, 34.17234
761.3835, 34.32359
761.8657, 33.68993
762.3478, 33.47648
762.8299, 34.06299
763.3120, 34.59288
763.7941, 34.78804
764.2762, 34.76115
764.7584, 34.59293
765.2405, 34.32962
765.7226, 34.14050
766.2047, 34.19585
766.6868, 34.35384
767.1689, 34.36884
767.6511, 34.29409
768.1332, 34.40114
768.6153, 34.77027
769.0974, 35.12780
769.5795, 35.19401
770.0616, 35.01635
770.5438, 34.97845
771.0259, 35.13162
771.5080, 35.33577
771.9901, 35.58094
772.4722, 35.86778
772.9543, 36.20136
773.4365, 36.57513
773.9186, 36.99830
774.4007, 37.52147
774.8828, 37.93609
775.3649, 38.02079
775.8470, 37.95754
776.3292, 37.98611
776.8113, 38.11524
777.2934, 38.27565
777.7755, 38.43640
778.2576, 38.58225
778.7397, 38.67747
779.2219, 38.71391
779.7040, 38.81819
780.1861, 39.06170
780.6682, 39.22382
781.1503, 39.12199
781.6324, 38.97431
782.1146, 39.06420
782.5967, 39.38199
783.0788, 39.54979
783.5609, 39.25745
784.0430, 39.03899
784.5251, 39.21133
785.0073, 39.61031
785.4894, 40.11482
785.9715, 40.63253
786.4536, 40.91929
786.9357, 40.75346
787.4178, 40.39137
787.9000, 40.37010
788.3821, 40.68847
788.8642, 41.23407
789.3463, 42.07932
789.8284, 42.84093
790.3105, 43.20962
790.7927, 43.33965
791.2748, 43.68119
791.7568, 44.43800
792.2390, 44.89004
792.7211, 44.55330
793.2032, 44.37696
793.6853, 44.86460
794.1674, 45.79931
794.6495, 46.93427
795.1317, 48.17057
795.6138, 49.28732
796.0959, 49.91553
796.5780, 50.41899
797.0601, 51.54897
797.5422, 53.16422
798.0244, 54.42152
798.5065, 55.07499
798.9886, 55.71239
799.4707, 56.88995
799.9528, 58.55621
800.4349, 60.28302
800.9171, 62.05568
801.3992, 63.92857
801.8813, 65.68813
802.3634, 67.76423
802.8455, 70.50463
803.3276, 73.69102
803.8098, 76.78091
804.2919, 79.50791
804.7740, 82.69814
805.2561, 86.73774
805.7382, 91.43383
806.2203, 96.86218
806.7025, 102.7302
807.1846, 108.4033
807.6667, 113.6311
808.1488, 118.9028
808.6309, 124.7478
809.1130, 131.1280
809.5952, 137.8591
810.0773, 145.0982
810.5594, 151.8270
811.0415, 157.3807
811.5236, 162.9541
812.0057, 169.6659
812.4879, 177.4683
812.9700, 185.6370
813.4521, 194.2105
813.9342, 203.0388
814.4163, 211.4720
814.8984, 220.6772
815.3806, 231.5838
815.8627, 243.8611
816.3448, 256.5203
816.8269, 269.0941
817.3090, 282.6939
817.7911, 298.8185
818.2733, 316.3602
818.7554, 333.0880
819.2375, 349.0391
819.7196, 365.6153
820.2017, 383.4696
820.6838, 400.7145
821.1660, 415.3020
821.6481, 427.2012
822.1302, 434.9132
822.6123, 438.9330
823.0944, 437.7865
823.5765, 430.2373
824.0587, 418.1260
824.5408, 401.8170
825.0229, 382.1463
825.5050, 361.6132
825.9871, 340.4557
826.4692, 319.0306
826.9514, 296.4667
827.4335, 274.3926
827.9156, 253.9162
828.3977, 235.3370
828.8798, 219.0742
829.3619, 205.1944
829.8441, 193.0790
830.3262, 182.1072
830.8083, 172.2871
831.2904, 163.6497
831.7725, 156.2355
832.2546, 150.0251
832.7368, 145.1517
833.2189, 141.0288
833.7010, 137.0145
834.1831, 133.1694
834.6652, 129.9601
835.1473, 127.5874
835.6295, 125.5827
836.1116, 123.6978
836.5937, 122.3681
837.0758, 121.9673
837.5579, 122.2598
838.0400, 122.8122
838.5222, 123.5706
839.0043, 124.3329
839.4864, 124.7938
839.9685, 125.3772
840.4506, 126.4936
840.9327, 128.0809
841.4149, 130.0402
841.8970, 132.2933
842.3791, 134.5140
842.8612, 136.1688
843.3433, 137.7022
843.8254, 140.8459
844.3076, 145.6475
844.7897, 150.0183
845.2718, 153.3757
845.7539, 156.7112
846.2360, 160.6399
846.7181, 165.1505
847.2003, 170.1928
847.6824, 175.7617
848.1645, 181.8680
848.6466, 188.6263
849.1287, 195.7880
849.6108, 203.4952
850.0930, 211.4519
850.5751, 219.4339
851.0572, 227.3674
851.5393, 234.8879
852.0214, 241.9602
852.5035, 248.4418
852.9857, 254.8791
853.4678, 260.4423
853.9499, 263.6408
854.4320, 264.2961
854.9141, 263.2348
855.3962, 261.0459
855.8784, 257.2875
856.3605, 250.9974
856.8426, 242.1989
857.3247, 231.6273
857.8068, 219.0082
858.2889, 206.4312
858.7711, 194.8879
859.2532, 184.0090
859.7353, 173.0865
860.2174, 162.0039
860.6995, 151.9212
861.1816, 143.1122
861.6638, 134.9052
862.1459, 126.9884
862.6280, 119.7406
863.1101, 113.6032
863.5922, 108.3916
864.0743, 103.5228
864.5565, 98.74873
865.0386, 94.31622
865.5207, 90.43198
866.0028, 86.94850
866.4849, 83.91109
866.9670, 81.11915
867.4492, 78.07355
867.9313, 74.61958
868.4134, 71.27024
868.8955, 68.65776
869.3776, 66.04212
869.8597, 63.82836
870.3419, 62.11769
870.8240, 60.39597
871.3061, 59.55882
871.7882, 58.80172
872.2703, 57.41681
872.7524, 55.62233
873.2346, 54.29534
873.7167, 53.70034
874.1987, 53.04668
874.6808, 52.19114
875.1630, 51.44508
875.6451, 50.89100
876.1272, 50.52732
876.6093, 50.40685
877.0914, 50.52864
877.5735, 50.57752
878.0557, 50.47728
878.5378, 50.24107
879.0199, 49.77975
879.5020, 49.24468
879.9841, 48.84179
880.4662, 48.55864
880.9484, 48.23948
881.4305, 47.80026
881.9126, 47.29297
882.3947, 46.82288
882.8768, 46.33315
883.3589, 45.66338
883.8411, 44.80562
884.3232, 43.69978
884.8053, 42.29063
885.2874, 40.94639
885.7695, 40.13948
886.2516, 39.81781
886.7338, 39.41042
887.2159, 38.89944
887.6980, 38.34285
888.1801, 37.66323
888.6622, 37.05496
889.1443, 36.62080
889.6265, 36.35758
890.1086, 36.29200
890.5907, 36.54234
891.0728, 36.60608
891.5549, 36.22153
892.0370, 35.85063
892.5192, 35.67644
893.0013, 35.66597
893.4834, 35.79272
893.9655, 36.03339
894.4476, 36.34306
894.9297, 36.84472
895.4119, 37.15146
895.8940, 36.62548
896.3761, 35.78920
896.8582, 35.52274
897.3403, 35.84269
897.8224, 36.40453
898.3046, 37.04421
898.7867, 37.58097
899.2688, 37.66529
899.7509, 37.41353
900.2330, 37.60347
900.7151, 38.26015
901.1973, 38.92238
901.6794, 39.47532
902.1615, 39.97226
902.6436, 40.38832
903.1257, 40.82384
903.6078, 41.72969
904.0900, 43.35234
904.5721, 44.93800
905.0542, 46.57594
905.5363, 48.05708
906.0184, 49.27939
906.5005, 50.31324
906.9827, 51.11878
907.4648, 51.70595
907.9469, 52.60640
908.4290, 54.03956
908.9111, 55.68935
909.3932, 57.64838
909.8754, 59.57253
910.3575, 60.91342
910.8396, 61.94297
911.3217, 63.47056
911.8038, 65.82861
912.2859, 68.58596
912.7681, 71.59691
913.2502, 74.63975
913.7323, 77.26077
914.2144, 79.58617
914.6965, 81.98112
915.1786, 84.58242
915.6608, 87.73170
916.1429, 91.89487
916.6250, 96.41795
917.1071, 99.82877
917.5892, 102.1305
918.0714, 102.9214
918.5535, 102.0937
919.0356, 100.2261
919.5177, 97.69454
919.9998, 94.01579
920.4819, 88.19411
920.9641, 79.95957
921.4462, 72.87014
921.9283, 67.20625
922.4104, 62.21296
922.8925, 57.83044
923.3746, 54.03354
923.8568, 50.97318
924.3389, 48.48671
924.8210, 46.18851
925.3031, 44.00061
925.7852, 42.14109
926.2673, 40.79073
926.7495, 39.65205
927.2316, 38.60203
927.7137, 37.64798
928.1958, 36.84991
928.6779, 36.18486
929.1600, 35.49021
929.6422, 34.55989
930.1243, 33.85374
930.6064, 33.97331
931.0885, 34.46331
931.5706, 34.70044
932.0527, 34.65058
932.5349, 34.37690
933.0170, 33.92412
933.4991, 33.52111
933.9812, 33.44430
934.4633, 33.58036
934.9454, 33.61668
935.4276, 33.55828
935.9097, 33.43135
936.3918, 33.23510
936.8739, 33.08802
937.3560, 33.06589
937.8381, 33.13791
938.3203, 33.22650
938.8024, 33.31083
939.2845, 33.61439
939.7666, 34.24666
940.2487, 34.82110
940.7308, 35.26999
941.2130, 35.57269
941.6951, 35.65708
942.1772, 35.56904
942.6593, 35.56372
943.1414, 35.59986
943.6235, 35.78706
944.1057, 36.14552
944.5878, 36.63745
945.0699, 37.35157
945.5520, 38.12739
946.0341, 38.74797
946.5162, 39.21021
946.9984, 39.72234
947.4805, 40.47921
947.9626, 41.14208
948.4447, 41.40292
948.9268, 41.60468
949.4089, 42.10852
949.8911, 42.82619
950.3732, 43.50901
950.8553, 44.07407
951.3374, 44.56169
951.8195, 44.94282
952.3016, 45.31668
952.7838, 45.84641
953.2659, 46.46586
953.7480, 47.05382
954.2301, 47.57572
954.7122, 47.93545
955.1943, 48.05730
955.6765, 48.25374
956.1586, 49.16571
956.6406, 50.59811
957.1227, 51.55736
957.6049, 52.03811
958.0870, 52.21832
958.5691, 52.11703
959.0512, 52.10395
959.5333, 52.55553
960.0154, 53.25542
960.4976, 53.47828
960.9797, 53.20421
961.4618, 52.47009
961.9439, 50.99306
962.4260, 49.87260
962.9081, 49.78378
963.3903, 49.95856
963.8724, 49.46929
964.3545, 48.34807
964.8366, 47.29808
965.3187, 46.43474
965.8008, 45.46287
966.2830, 44.31865
966.7651, 43.12138
967.2472, 41.74594
967.7293, 40.43303
968.2114, 39.58729
968.6935, 39.24910
969.1757, 38.90759
969.6578, 38.59558
970.1399, 38.08091
970.6220, 37.04366
971.1041, 35.97550
971.5862, 35.34861
972.0684, 35.02386
972.5505, 34.61383
973.0326, 34.00454
973.5147, 33.41200
973.9968, 33.05552
974.4789, 32.67044
974.9611, 31.89433
975.4432, 31.02233
975.9253, 30.49708
976.4074, 30.33294
976.8895, 30.35162
977.3716, 30.49611
977.8538, 30.48914
978.3359, 29.86608
978.8180, 28.98575
979.3001, 28.46342
979.7822, 28.25048
980.2643, 28.13738
980.7465, 28.06680
981.2286, 28.07211
981.7107, 28.19045
982.1928, 28.33565
982.6749, 28.34069
983.1570, 28.22349
983.6392, 28.06959
984.1213, 27.88623
984.6034, 27.73351
985.0855, 27.63268
985.5676, 27.57377
986.0497, 27.56161
986.5319, 27.56176
987.0140, 27.42832
987.4961, 27.14003
987.9782, 26.85820
988.4603, 26.54749
988.9424, 26.46674
989.4246, 26.86930
989.9067, 27.25496
990.3888, 26.91307
990.8709, 25.91588
991.3530, 25.41545
991.8351, 25.68336
992.3173, 25.81814
992.7994, 25.55832
993.2815, 25.43402
993.7636, 25.90215
994.2457, 26.54044
994.7278, 26.65967
995.2100, 26.22016
995.6921, 25.89415
996.1742, 25.64657
996.6563, 25.57474
997.1384, 25.84902
997.6205, 26.14449
998.1027, 26.30792
998.5848, 26.34329
999.0669, 26.19458
999.5490, 25.82952
1000.031, 25.73263
1000.513, 26.42608
1000.995, 26.89047
1001.477, 26.43715
1001.960, 25.83514
1002.442, 25.82190
1002.924, 26.19040
1003.406, 26.33287
1003.888, 26.07606
1004.370, 25.86971
1004.852, 25.99837
1005.334, 26.19037
1005.817, 26.27683
1006.299, 26.30537
1006.781, 26.34063
1007.263, 26.38201
1007.745, 26.39816
1008.227, 26.37664
1008.709, 26.33252
1009.191, 26.28263
1009.673, 26.21265
1010.156, 26.03011
1010.638, 25.84722
1011.120, 25.92352
1011.602, 26.23115
1012.084, 26.49562
1012.566, 26.57535
1013.048, 26.54307
1013.530, 26.49140
1014.013, 26.37769
1014.495, 25.96650
1014.977, 25.43460
1015.459, 25.42761
1015.941, 25.99398
1016.423, 26.52384
1016.905, 26.64026
1017.387, 26.45587
1017.869, 26.04683
1018.352, 25.48933
1018.834, 24.97713
1019.316, 24.55914
1019.798, 24.64326
1020.280, 25.30701
1020.762, 25.85768
1021.244, 25.76321
1021.726, 26.12931
1022.208, 25.47229
1022.691, 25.99372
1023.173, 25.94602
1023.655, 25.29420
1024.137, 24.98106
1024.619, 25.29191
1025.101, 25.79518
1025.583, 26.18226
1026.065, 26.42506
1026.547, 26.40639
1027.030, 26.09848
1027.512, 25.88092
1027.994, 25.75338
1028.476, 25.74907
1028.958, 25.91215
1029.440, 26.10637
1029.922, 26.26934
1030.404, 26.30803
1030.887, 25.81784
1031.369, 24.51694
1031.851, 24.00878
1032.333, 24.60911
1032.815, 25.09122
1033.297, 25.03428
1033.779, 24.82625
1034.261, 24.78787
1034.744, 24.88824
1035.226, 25.02110
1035.708, 25.21364
1036.190, 25.35180
1036.672, 25.37191
1037.154, 25.46734
1037.636, 25.61474
1038.118, 26.11265
1038.600, 25.92307
1039.083, 26.15835
1039.565, 26.32860
1040.047, 26.16956
1040.529, 26.56949
1041.011, 26.50558
1041.493, 26.20557
1041.975, 25.29481
1042.457, 24.55101
1042.939, 24.96079
1043.422, 26.11989
1043.904, 26.45500
1044.386, 25.38550
1044.868, 24.86365
1045.350, 25.49270
1045.832, 26.00174
1046.314, 25.80003
1046.796, 25.49378
1047.279, 25.72208
1047.761, 26.29737
1048.243, 26.51027
1048.725, 26.15332
1049.207, 25.86049
1049.689, 25.66810
1050.171, 25.61013
1050.653, 25.88836
1051.135, 26.14515
1051.618, 26.03662
1052.100, 25.64350
1052.582, 25.22415
1053.064, 24.74170
1053.546, 24.51471
1054.028, 24.83115
1054.510, 25.13870
1054.992, 25.06267
1055.474, 25.00452
1055.957, 25.55347
1056.439, 26.40197
1056.921, 26.55309
1057.403, 25.60095
1057.885, 25.09898
1058.367, 26.03785
1058.849, 26.82600
1059.331, 26.59868
1059.814, 26.03631
1060.296, 25.71989
1060.778, 25.61736
1061.260, 25.48807
1061.742, 25.26521
1062.224, 25.14754
1062.706, 25.30786
1063.188, 25.45698
1063.671, 25.47009
1064.153, 25.40199
1064.635, 25.18033
1065.117, 24.95523
1065.599, 25.13106
1066.081, 25.82873
1066.563, 26.22175
1067.045, 25.74155
1067.527, 25.19369
1068.010, 24.86304
1068.492, 24.73040
1068.974, 24.89298
1069.456, 25.19476
1069.938, 25.29942
1070.420, 25.14319
1070.902, 25.13869
1071.384, 25.77332
1071.866, 26.19371
1072.349, 25.69233
1072.831, 25.07290
1073.313, 25.14945
1073.795, 25.57560
1074.277, 25.59011
1074.759, 25.08152
1075.241, 24.64394
1075.723, 24.48326
1076.206, 24.51029
1076.688, 24.82914
1077.170, 25.17559
1077.652, 25.35385
1078.134, 25.39943
1078.616, 25.34417
1079.098, 25.22595
1079.580, 25.23369
1080.062, 25.59430
1080.545, 25.80978
1081.027, 25.57542
1081.509, 25.17523
1081.991, 24.55236
1082.473, 24.05920
1082.955, 24.31298
1083.437, 25.22172
1083.919, 25.93938
1084.401, 26.18815
1084.884, 26.16863
1085.366, 25.66052
1085.848, 25.25393
1086.330, 25.68164
1086.812, 26.21891
1087.294, 25.70859
1087.776, 24.41935
1088.258, 23.80142
1088.740, 24.47244
1089.223, 25.08706
1089.705, 24.97486
1090.187, 24.77477
1090.669, 24.77763
1091.151, 24.95228
1091.633, 25.36188
1092.115, 25.88246
1092.597, 26.23331
1093.080, 26.35957
1093.562, 26.22475
1094.044, 25.49971
1094.526, 24.91008
1095.008, 24.96459
1095.490, 25.16773
1095.972, 25.08715
1096.454, 24.80254
1096.937, 24.49821
1097.419, 24.20392
1097.901, 24.13036
1098.383, 24.56651
1098.865, 24.92888
1099.347, 24.95621
1099.829, 24.89405
1100.311, 24.92061
1100.793, 24.97924
1101.276, 24.93220
1101.758, 24.77761
1102.240, 24.72351
1102.722, 24.90981
1103.204, 25.06759
1103.686, 25.29703
1104.168, 25.29806
1104.650, 24.53339
1105.132, 23.69291
1105.615, 23.77752
1106.097, 24.64701
1106.579, 25.10098
1107.061, 24.62582
1107.543, 24.44267
1108.025, 25.00460
1108.507, 25.55855
1108.989, 25.93155
1109.472, 26.06717
1109.954, 25.71976
1110.436, 25.10748
1110.918, 24.97436
1111.400, 25.59507
1111.882, 25.93295
1112.364, 25.61871
1112.846, 25.42330
1113.328, 25.57359
1113.811, 25.85467
1114.293, 26.32099
1114.775, 26.74260
1115.257, 26.56166
1115.739, 25.64425
1116.221, 25.15530
1116.703, 25.41061
1117.185, 25.56334
1117.667, 25.46491
1118.150, 25.31983
1118.632, 25.24231
1119.114, 25.15940
1119.596, 24.91691
1120.078, 24.54166
1120.560, 24.47327
1121.042, 24.86766
1121.524, 25.20510
1122.007, 25.54307
1122.489, 25.61711
1122.971, 25.14038
1123.453, 24.69879
1123.935, 24.95221
1124.417, 25.66706
1124.899, 25.95389
1125.381, 25.71749
1125.864, 25.47308
1126.346, 25.18367
1126.828, 25.02121
1127.310, 25.02111
1127.792, 25.22254
1128.274, 25.74252
1128.756, 26.28226
1129.238, 26.17462
1129.720, 25.44598
1130.203, 25.18028
1130.685, 25.43086
1131.167, 25.51030
1131.649, 25.27588
1132.131, 25.23745
1132.613, 25.68215
1133.095, 26.25670
1133.577, 26.54562
1134.059, 26.55062
1134.542, 26.11941
1135.024, 25.32131
1135.506, 25.16135
1135.988, 25.67810
1136.470, 25.99578
1136.952, 25.82099
1137.434, 25.56685
1137.916, 25.58562
1138.399, 25.71626
1138.881, 25.63588
1139.363, 25.41712
1139.845, 25.29782
1140.327, 25.27228
1140.809, 25.25411
1141.291, 25.24283
1141.773, 25.38449
1142.255, 25.76624
1142.738, 26.16789
1143.220, 26.38384
1143.702, 26.41498
1144.184, 26.17581
1144.666, 25.78761
1145.148, 25.47655
1145.630, 25.26496
1146.112, 25.07214
1146.594, 24.88829
1147.077, 24.91037
1147.559, 25.39220
1148.041, 25.92586
1148.523, 26.17345
1149.005, 26.20195
1149.487, 25.90944
1149.969, 25.54207
1150.451, 25.59522
1150.934, 26.04424
1151.416, 26.37386
1151.898, 26.35398
1152.380, 26.24982
1152.862, 26.17341
1153.344, 26.11083
1153.826, 26.04120
1154.308, 25.98982
1154.791, 25.93656
1155.273, 25.93641
1155.755, 26.18155
1156.237, 26.73225
1156.719, 27.01654
1157.201, 26.62435
1157.683, 26.29317
1158.165, 26.36224
1158.647, 26.42512
1159.130, 26.10083
1159.612, 25.69915
1160.094, 25.69479
1160.576, 26.05807
1161.058, 26.32001
1161.540, 26.54358
1162.022, 26.48894
1162.504, 25.92444
1162.986, 25.41923
1163.469, 24.95483
1163.951, 24.84571
1164.433, 25.52823
1164.915, 26.60968
1165.397, 27.19322
1165.879, 27.25778
1166.361, 26.96660
1166.843, 26.14507
1167.325, 25.61438
1167.808, 25.50640
1168.290, 25.68821
1168.772, 26.17588
1169.254, 26.65007
1169.736, 26.70524
1170.218, 26.46438
1170.700, 26.41822
1171.182, 26.56160
1171.665, 26.66019
1172.147, 26.70270
1172.629, 26.74670
1173.111, 26.80663
1173.593, 26.75241
1174.075, 26.47451
1174.557, 26.20249
1175.039, 26.39862
1175.521, 26.20570
1176.004, 26.76591
1176.486, 26.40429
1176.968, 26.55070
1177.450, 27.12120
1177.932, 27.20197
1178.414, 26.50912
1178.896, 25.87743
1179.378, 26.01999
1179.860, 26.40904
1180.343, 26.62547
1180.825, 26.61242
1181.307, 26.01846
1181.789, 25.27691
1182.271, 25.29103
1182.753, 25.97901
1183.235, 26.41598
1183.717, 26.22290
1184.200, 25.94987
1184.682, 25.79950
1185.164, 25.75688
1185.646, 25.82851
1186.128, 25.99025
1186.610, 26.35417
1187.092, 26.73560
1187.574, 26.75478
1188.057, 26.38851
1188.539, 26.14566
1189.021, 26.13095
1189.503, 26.20560
1189.985, 26.45435
1190.467, 26.66354
1190.949, 26.84226
1191.431, 26.85220
1191.913, 26.40617
1192.396, 25.78203
1192.878, 25.79501
1193.360, 26.58571
1193.842, 26.83268
1194.324, 26.32412
1194.806, 26.07942
1195.288, 26.31193
1195.770, 26.59820
1196.252, 26.75494
1196.735, 26.75743
1197.217, 26.52688
1197.699, 26.20648
1198.181, 26.32702
1198.663, 26.82373
1199.145, 27.13235
1199.627, 27.23110
1200.109, 27.17573
1200.592, 26.98477
1201.074, 26.63693
1201.556, 26.10878
1202.038, 25.70194
1202.520, 25.85153
1203.002, 26.27579
1203.484, 26.58654
1203.966, 26.79059
1204.448, 26.89595
1204.931, 26.90688
1205.413, 26.77129
1205.895, 26.51943
1206.377, 26.42429
1206.859, 26.75326
1207.341, 26.87864
1207.823, 25.99381
1208.305, 25.24407
1208.787, 25.58165
1209.270, 26.34815
1209.752, 27.06487
1210.234, 27.53539
1210.716, 27.34383
1211.198, 26.36623
1211.680, 25.88496
1212.162, 26.54840
1212.644, 27.00323
1213.127, 27.08390
1213.609, 26.88073
1214.091, 26.07019
1214.573, 25.42525
1215.055, 25.83503
1215.537, 26.91472
1216.019, 27.48286
1216.501, 27.50342
1216.984, 27.30113
1217.466, 26.83560
1217.948, 26.37529
1218.430, 25.94239
1218.912, 25.78628
1219.394, 26.04728
1219.876, 26.43228
1220.358, 26.61075
1220.840, 26.69360
1221.323, 27.07240
1221.805, 27.54919
1222.287, 27.29071
1222.769, 26.52110
1223.251, 26.12993
1223.733, 26.25155
1224.215, 26.56099
1224.697, 26.90679
1225.179, 27.20828
1225.662, 27.47128
1226.144, 27.57500
1226.626, 27.28440
1227.108, 26.88575
1227.590, 26.67498
1228.072, 26.58506
1228.554, 26.43874
1229.036, 26.24538
1229.519, 26.18785
1230.001, 26.35174
1230.483, 26.52430
1230.965, 26.71782
1231.447, 26.82902
1231.929, 26.71928
1232.411, 26.63843
1232.893, 26.83027
1233.375, 27.06583
1233.858, 27.00340
1234.340, 26.67649
1234.822, 26.36412
1235.304, 26.02789
1235.786, 25.90980
1236.268, 26.05700
1236.750, 26.20818
1237.232, 26.31453
1237.714, 26.18233
1238.197, 25.64831
1238.679, 25.12656
1239.161, 25.25169
1239.643, 25.77352
1240.125, 26.06343
1240.607, 26.17044
1241.089, 26.18969
1241.571, 26.17462
1242.054, 26.27711
1242.536, 26.50161
1243.018, 26.63605
1243.500, 26.54422
1243.982, 26.53162
1244.464, 27.05649
1244.946, 27.48163
1245.428, 27.14163
1245.910, 26.62919
1246.393, 26.58689
1246.875, 26.78130
1247.357, 26.71668
1247.839, 26.37106
1248.321, 26.12222
1248.803, 26.00727
1249.285, 26.03180
1249.767, 26.34814
1250.250, 26.55025
1250.732, 26.51255
1251.214, 26.39624
1251.696, 26.27345
1252.178, 26.17419
1252.660, 26.14752
1253.142, 26.18078
1253.624, 26.17511
1254.106, 26.13480
1254.589, 26.36778
1255.071, 26.85368
1255.553, 27.01202
1256.035, 26.72951
1256.517, 26.40979
1256.999, 26.28202
1257.481, 26.28281
1257.963, 26.43525
1258.445, 26.56914
1258.928, 26.30506
1259.410, 26.54871
1259.892, 26.20260
1260.374, 26.69052
1260.856, 26.92549
1261.338, 26.86525
1261.820, 26.76624
1262.302, 26.68991
1262.785, 26.66074
1263.267, 26.71068
1263.749, 26.77423
1264.231, 26.92937
1264.713, 26.97497
1265.195, 26.68024
1265.677, 26.33187
1266.159, 26.28856
1266.641, 26.45255
1267.124, 26.40212
1267.606, 26.07499
1268.088, 26.10438
1268.570, 26.54926
1269.052, 26.63785
1269.534, 26.23207
1270.016, 25.86357
1270.498, 25.76891
1270.980, 25.87172
1271.463, 26.14433
1271.945, 26.42130
1272.427, 26.46506
1272.909, 26.31371
1273.391, 25.91742
1273.873, 25.44193
1274.355, 25.15601
1274.837, 25.07596
1275.320, 25.14630
1275.802, 25.34077
1276.284, 25.50574
1276.766, 25.51525
1277.248, 25.59579
1277.730, 25.91961
1278.212, 26.20805
1278.694, 26.35384
1279.177, 26.38311
1279.659, 26.29988
1280.141, 26.13742
1280.623, 25.95577
1281.105, 25.75413
1281.587, 25.46482
1282.069, 25.03994
1282.551, 24.95308
1283.033, 25.25130
1283.516, 25.57538
1283.998, 25.82722
1284.480, 25.97135
1284.962, 25.97814
1285.444, 25.99076
1285.926, 26.15466
1286.408, 26.47235
##END=



