##NAMES=Forsterite
##RRUFFID=R040057
##IDEAL CHEMISTRY=Mg_2_SiO_4_
##LOCALITY=Trudy's mine, San Carlos, Gila County, Arizona, USA
##OWNER=RRUFF
##SOURCE=Bob Downs
##DESCRIPTION=Dark green crystal fragments from xenoliths in a basalt flow
##STATUS=The identification of this mineral has been confirmed by X-ray diffraction and chemical analysis
##URL=rruff.info/R040057
##MEASURED CHEMISTRY=(Mg_1.67_Fe_0.32_Ni_0.01_)_Î£=2_Si_1.00_O_4_; trace amounts of Mn and Ca
91.72394, 0.0000000E+00
92.20605, 79.56301
92.68817, 80.37244
93.17029, 81.27590
93.65240, 81.30148
94.13452, 80.92661
94.61664, 80.07791
95.09875, 78.81934
95.58087, 77.25478
96.06299, 75.40459
96.54510, 72.88330
97.02721, 70.64652
97.50933, 68.94445
97.99145, 67.62691
98.47356, 66.52341
98.95568, 65.50688
99.43780, 64.48775
99.91991, 63.18053
100.4020, 61.36212
100.8841, 59.55383
101.3663, 57.92106
101.8484, 56.46780
102.3305, 55.13125
102.8126, 53.82427
103.2947, 52.50481
103.7768, 51.53072
104.2590, 51.22571
104.7411, 51.10264
105.2232, 50.61542
105.7053, 49.59938
106.1874, 48.40498
106.6695, 47.47881
107.1517, 46.79229
107.6338, 46.12676
108.1159, 45.38353
108.5980, 44.57499
109.0801, 43.73750
109.5622, 42.68743
110.0444, 41.80554
110.5265, 41.43892
111.0086, 41.62289
111.4907, 41.99806
111.9728, 42.21246
112.4549, 42.28060
112.9371, 42.11540
113.4192, 41.40310
113.9013, 40.63892
114.3834, 40.22836
114.8655, 40.32779
115.3476, 40.72490
115.8298, 40.85419
116.3119, 40.47446
116.7940, 40.09311
117.2761, 39.64983
117.7582, 39.25840
118.2403, 39.09684
118.7225, 39.29239
119.2046, 39.79453
119.6867, 40.00019
120.1688, 39.62078
120.6509, 39.29732
121.1330, 39.37305
121.6152, 39.74960
122.0973, 40.00303
122.5794, 39.72307
123.0615, 38.93565
123.5436, 38.56250
124.0257, 38.92583
124.5079, 39.51879
124.9900, 39.89678
125.4721, 40.01661
125.9542, 39.98501
126.4363, 39.76732
126.9184, 39.44841
127.4006, 39.25205
127.8827, 39.43988
128.3648, 39.83667
128.8469, 39.82946
129.3290, 38.96669
129.8111, 38.26727
130.2932, 38.53283
130.7754, 39.52929
131.2575, 40.42801
131.7396, 40.40094
132.2217, 39.30226
132.7038, 38.60300
133.1859, 38.67933
133.6681, 38.92830
134.1502, 39.13717
134.6323, 39.26892
135.1144, 39.38807
135.5965, 39.60366
136.0786, 40.06762
136.5608, 40.30451
137.0429, 40.06075
137.5250, 39.78331
138.0071, 39.88339
138.4892, 40.46444
138.9713, 41.24240
139.4535, 41.61745
139.9356, 41.27030
140.4177, 40.93792
140.8998, 40.70402
141.3819, 40.49603
141.8640, 40.14937
142.3462, 39.54392
142.8283, 38.88520
143.3104, 38.81767
143.7925, 39.65771
144.2746, 40.40196
144.7567, 40.56514
145.2388, 40.25725
145.7210, 39.94192
146.2031, 39.81956
146.6852, 39.84563
147.1673, 39.90400
147.6494, 40.01487
148.1315, 40.12226
148.6137, 40.18616
149.0958, 40.20949
149.5779, 40.16759
150.0600, 39.89677
150.5421, 39.60462
151.0242, 39.53061
151.5064, 39.82780
151.9885, 40.28483
152.4706, 40.42601
152.9527, 40.00050
153.4348, 39.73569
153.9169, 40.12728
154.3991, 40.71245
154.8812, 40.87936
155.3633, 40.21400
155.8454, 38.89249
156.3275, 37.99972
156.8096, 38.08843
157.2918, 38.06656
157.7739, 37.59235
158.2560, 36.85314
158.7381, 36.20198
159.2202, 35.91014
159.7023, 35.98895
160.1845, 36.00521
160.6666, 35.83955
161.1487, 35.73271
161.6308, 35.83234
162.1129, 36.09113
162.5950, 36.34454
163.0772, 36.46111
163.5593, 36.42818
164.0414, 36.22356
164.5235, 35.72752
165.0056, 35.16791
165.4877, 34.64956
165.9698, 34.19271
166.4520, 33.85889
166.9341, 33.73501
167.4162, 33.82686
167.8983, 33.97819
168.3804, 34.24345
168.8625, 34.53325
169.3447, 34.78887
169.8268, 35.04144
170.3089, 35.10172
170.7910, 34.54439
171.2731, 33.55106
171.7552, 32.81868
172.2374, 32.81739
172.7195, 33.29800
173.2016, 33.53095
173.6837, 33.29293
174.1658, 33.01399
174.6479, 33.03175
175.1301, 33.28524
175.6122, 33.54232
176.0943, 33.72932
176.5764, 33.83797
177.0585, 33.60910
177.5406, 32.47047
178.0228, 31.50769
178.5049, 31.37045
178.9870, 31.94870
179.4691, 32.65937
179.9512, 32.93649
180.4333, 32.68480
180.9155, 32.43007
181.3976, 32.25779
181.8797, 32.01506
182.3618, 31.50278
182.8439, 30.77674
183.3260, 30.14552
183.8082, 30.04561
184.2903, 30.83468
184.7724, 31.21478
185.2545, 30.95713
185.7366, 30.55033
186.2187, 30.26813
186.7009, 30.17620
187.1830, 30.20582
187.6651, 30.26898
188.1472, 30.42571
188.6293, 30.47812
189.1114, 30.37534
189.5936, 30.20188
190.0757, 29.96415
190.5578, 29.67257
191.0399, 29.46973
191.5220, 29.62619
192.0041, 30.31850
192.4863, 30.87915
192.9684, 31.31064
193.4505, 31.54811
193.9326, 31.39715
194.4147, 30.72986
194.8968, 29.95818
195.3790, 29.85283
195.8611, 30.44180
196.3432, 31.01786
196.8253, 31.39617
197.3074, 31.60979
197.7895, 31.70258
198.2717, 31.62797
198.7538, 31.53790
199.2359, 31.67214
199.7180, 32.03947
200.2001, 32.32587
200.6822, 32.27221
201.1644, 31.96128
201.6465, 31.81895
202.1286, 32.07487
202.6107, 32.37653
203.0928, 32.33923
203.5749, 31.96840
204.0571, 31.65724
204.5392, 31.74391
205.0213, 32.22288
205.5034, 32.71875
205.9855, 33.33073
206.4676, 33.79224
206.9497, 33.79893
207.4319, 33.38774
207.9140, 33.02796
208.3961, 33.29701
208.8782, 34.33714
209.3603, 35.10531
209.8424, 35.13306
210.3246, 35.13312
210.8067, 35.52190
211.2888, 36.30291
211.7709, 37.12474
212.2530, 37.51526
212.7351, 37.26198
213.2173, 37.24322
213.6994, 37.65625
214.1815, 38.14350
214.6636, 38.50905
215.1457, 38.72887
215.6278, 38.91646
216.1100, 39.25125
216.5921, 39.92804
217.0742, 40.24012
217.5563, 39.98956
218.0384, 39.60403
218.5205, 39.30861
219.0027, 39.16053
219.4848, 39.12298
219.9669, 39.16030
220.4490, 39.33881
220.9311, 39.42104
221.4132, 39.30966
221.8954, 39.17884
222.3775, 39.15412
222.8596, 39.25811
223.3417, 39.43316
223.8238, 39.60759
224.3059, 39.77302
224.7881, 39.96794
225.2702, 40.21950
225.7523, 40.48402
226.2344, 40.75624
226.7165, 41.02995
227.1986, 41.22218
227.6807, 41.18153
228.1629, 40.82080
228.6450, 40.70250
229.1271, 41.05122
229.6092, 41.56269
230.0913, 41.96975
230.5734, 42.22787
231.0556, 42.31884
231.5377, 42.12273
232.0198, 41.64310
232.5019, 41.35011
232.9840, 41.53226
233.4661, 41.84972
233.9483, 41.79341
234.4304, 41.23179
234.9125, 40.70463
235.3946, 40.88423
235.8767, 41.60346
236.3588, 42.18451
236.8410, 42.55324
237.3231, 42.65229
237.8052, 42.29215
238.2873, 41.33242
238.7694, 40.35268
239.2515, 39.85529
239.7337, 39.68978
240.2158, 39.56461
240.6979, 39.34414
241.1800, 39.11037
241.6621, 39.05993
242.1442, 39.28281
242.6264, 39.44721
243.1085, 39.36182
243.5906, 39.08186
244.0727, 38.65152
244.5548, 37.96411
245.0369, 37.19204
245.5191, 36.76564
246.0012, 36.87234
246.4833, 36.87874
246.9654, 36.30811
247.4475, 35.50153
247.9296, 34.92270
248.4117, 34.81602
248.8939, 35.00744
249.3760, 35.11124
249.8581, 35.09536
250.3402, 35.05424
250.8223, 35.12543
251.3044, 35.15963
251.7866, 34.92249
252.2687, 34.24597
252.7508, 33.41381
253.2329, 33.14290
253.7150, 33.85851
254.1971, 34.26433
254.6793, 33.66716
255.1614, 32.82642
255.6435, 32.58603
256.1256, 33.31798
256.6077, 34.44810
257.0898, 34.71320
257.5720, 33.57903
258.0541, 32.59581
258.5362, 31.95611
259.0183, 31.56613
259.5004, 31.41479
259.9825, 31.48933
260.4647, 31.64171
260.9468, 31.54888
261.4289, 30.89866
261.9110, 30.63842
262.3931, 31.11202
262.8752, 31.75510
263.3574, 32.11687
263.8395, 32.08604
264.3216, 31.88053
264.8037, 31.87527
265.2858, 32.32405
265.7679, 32.44609
266.2501, 31.93901
266.7322, 31.36817
267.2143, 31.13305
267.6964, 31.29533
268.1785, 31.63944
268.6606, 31.88579
269.1428, 31.99535
269.6249, 32.09932
270.1070, 32.16277
270.5891, 32.24787
271.0712, 32.45453
271.5533, 32.75426
272.0355, 32.95950
272.5176, 32.79216
272.9997, 31.99813
273.4818, 31.98622
273.9639, 33.37407
274.4460, 34.84102
274.9282, 35.72840
275.4103, 36.03048
275.8924, 36.03715
276.3745, 35.95341
276.8566, 35.72325
277.3387, 35.98766
277.8208, 37.06982
278.3029, 38.21164
278.7851, 39.13976
279.2672, 39.85362
279.7493, 40.41803
280.2314, 40.84926
280.7135, 41.15859
281.1956, 41.75604
281.6778, 42.74065
282.1599, 43.84435
282.6420, 45.18171
283.1241, 46.57331
283.6062, 47.56300
284.0883, 47.79697
284.5705, 47.51125
285.0526, 48.10654
285.5347, 50.46180
286.0168, 52.53694
286.4989, 53.64588
286.9810, 54.18540
287.4632, 54.81821
287.9453, 55.84917
288.4274, 57.17849
288.9095, 58.55339
289.3916, 59.92457
289.8737, 61.39909
290.3559, 62.95813
290.8380, 64.63457
291.3201, 66.45461
291.8022, 68.42692
292.2843, 70.55644
292.7664, 72.93030
293.2486, 75.73750
293.7307, 78.30460
294.2128, 80.30601
294.6949, 82.15646
295.1770, 84.39400
295.6591, 87.14947
296.1413, 89.95875
296.6234, 92.26696
297.1055, 93.99766
297.5876, 95.36681
298.0697, 96.53310
298.5518, 97.24513
299.0340, 97.30494
299.5161, 96.68555
299.9982, 95.40862
300.4803, 93.37702
300.9624, 90.49496
301.4445, 87.79219
301.9267, 85.59293
302.4088, 83.32858
302.8909, 80.42200
303.3730, 76.98206
303.8551, 73.72630
304.3372, 71.17516
304.8194, 69.27310
305.3015, 67.26756
305.7836, 65.02972
306.2657, 62.81685
306.7478, 60.62988
307.2299, 58.54463
307.7121, 56.78159
308.1942, 55.47253
308.6763, 54.55278
309.1584, 53.83362
309.6405, 53.44376
310.1227, 53.01587
310.6048, 52.43597
311.0869, 51.73822
311.5690, 50.95465
312.0511, 50.07380
312.5332, 49.20195
313.0154, 48.58274
313.4975, 48.26958
313.9796, 47.97935
314.4617, 47.73188
314.9438, 47.45034
315.4259, 47.03804
315.9081, 46.47276
316.3902, 45.77063
316.8723, 44.89445
317.3544, 43.78971
317.8365, 42.86838
318.3186, 42.09948
318.8007, 41.56706
319.2828, 41.52365
319.7650, 41.94780
320.2471, 42.25773
320.7292, 41.90284
321.2113, 40.86054
321.6934, 39.99461
322.1755, 39.50146
322.6577, 39.00507
323.1398, 38.19334
323.6219, 37.13961
324.1040, 36.19936
324.5861, 35.63071
325.0682, 35.34028
325.5504, 34.86262
326.0325, 33.98553
326.5146, 33.18493
326.9967, 32.62647
327.4788, 32.26347
327.9609, 32.01451
328.4431, 31.86163
328.9252, 31.75877
329.4073, 31.57801
329.8894, 31.19543
330.3715, 31.00618
330.8536, 31.37703
331.3358, 31.87192
331.8179, 31.84367
332.3000, 31.11642
332.7821, 30.19604
333.2642, 29.75618
333.7463, 29.96124
334.2285, 30.10568
334.7106, 30.16539
335.1927, 30.15883
335.6748, 30.04969
336.1569, 29.85684
336.6390, 29.72305
337.1212, 29.80380
337.6033, 30.11088
338.0854, 30.21669
338.5675, 29.89375
339.0496, 29.61316
339.5317, 29.63936
340.0139, 29.90701
340.4960, 30.22766
340.9781, 30.51597
341.4602, 30.73985
341.9423, 30.71345
342.4244, 30.15560
342.9066, 29.72475
343.3887, 29.65088
343.8708, 29.75909
344.3529, 29.79676
344.8350, 29.66650
345.3171, 29.44835
345.7993, 29.29417
346.2814, 29.26527
346.7635, 29.19757
347.2456, 28.98235
347.7277, 28.79434
348.2098, 28.83160
348.6920, 29.10299
349.1741, 29.41052
349.6562, 29.51958
350.1383, 29.36723
350.6204, 29.33471
351.1025, 29.64536
351.5847, 29.85203
352.0668, 29.65324
352.5489, 29.14156
353.0310, 28.63288
353.5131, 28.37095
353.9952, 28.31388
354.4774, 28.01069
354.9595, 27.04102
355.4416, 26.31454
355.9237, 26.18519
356.4058, 26.35097
356.8879, 26.38486
357.3701, 26.09481
357.8522, 25.62966
358.3343, 25.33572
358.8164, 25.38560
359.2985, 25.34631
359.7806, 25.10112
360.2627, 24.84193
360.7448, 24.82753
361.2270, 25.04322
361.7091, 25.13836
362.1912, 24.63165
362.6733, 23.29996
363.1554, 22.36039
363.6375, 21.76522
364.1197, 21.57429
364.6018, 22.17921
365.0839, 23.24060
365.5660, 23.96814
366.0481, 23.73320
366.5302, 22.68980
367.0124, 22.03673
367.4945, 22.06075
367.9766, 22.13571
368.4587, 22.20581
368.9408, 22.23001
369.4229, 22.15569
369.9051, 21.96084
370.3872, 21.69967
370.8693, 21.45017
371.3514, 21.16041
371.8335, 21.02677
372.3156, 21.15491
372.7978, 21.37218
373.2799, 21.66384
373.7620, 21.98080
374.2441, 22.15151
374.7262, 21.84071
375.2083, 21.00577
375.6905, 20.71479
376.1726, 21.54258
376.6547, 22.28177
377.1368, 22.39758
377.6189, 22.03983
378.1010, 21.52192
378.5832, 20.91068
379.0653, 20.33617
379.5474, 20.19617
380.0295, 20.65739
380.5116, 21.11648
380.9937, 21.40208
381.4759, 21.54982
381.9580, 21.55913
382.4401, 21.41721
382.9222, 21.21786
383.4043, 21.01874
383.8864, 20.82034
384.3686, 20.76266
384.8507, 20.96202
385.3328, 21.22661
385.8149, 21.45920
386.2970, 21.64043
386.7791, 21.63443
387.2613, 21.02819
387.7434, 20.21741
388.2255, 20.30816
388.7076, 21.63766
389.1897, 22.95269
389.6718, 23.20812
390.1540, 22.82058
390.6361, 22.58814
391.1182, 22.69599
391.6003, 22.98316
392.0824, 23.38091
392.5645, 23.87036
393.0467, 24.26737
393.5288, 24.48887
394.0109, 24.57813
394.4930, 24.58981
394.9751, 24.47028
395.4572, 24.47587
395.9394, 24.74496
396.4215, 25.19389
396.9036, 25.69057
397.3857, 26.21427
397.8678, 26.77001
398.3499, 27.38921
398.8321, 28.07594
399.3142, 28.68260
399.7963, 29.13983
400.2784, 29.57226
400.7605, 30.03863
401.2426, 30.55214
401.7247, 31.14422
402.2068, 31.83901
402.6890, 32.62132
403.1711, 33.41397
403.6532, 34.09911
404.1353, 34.93813
404.6174, 36.16341
405.0995, 37.49543
405.5817, 38.51360
406.0638, 39.10663
406.5459, 39.61692
407.0280, 40.55436
407.5101, 42.14545
407.9922, 43.42630
408.4744, 44.20356
408.9565, 44.88138
409.4386, 45.80387
409.9207, 46.84643
410.4028, 47.58865
410.8849, 47.70893
411.3671, 47.28825
411.8492, 46.96648
412.3313, 47.03352
412.8134, 46.82638
413.2955, 46.05053
413.7776, 45.05831
414.2598, 44.17604
414.7419, 43.52135
415.2240, 43.08235
415.7061, 42.88485
416.1882, 43.01706
416.6703, 43.07957
417.1525, 42.83142
417.6346, 42.70553
418.1167, 42.98306
418.5988, 43.57905
419.0809, 44.18554
419.5630, 44.59385
420.0452, 44.84080
420.5273, 45.06547
421.0094, 45.19693
421.4915, 45.45966
421.9736, 46.07907
422.4557, 46.80367
422.9379, 47.33974
423.4200, 47.58847
423.9021, 47.75608
424.3842, 48.13811
424.8663, 48.71497
425.3484, 48.97260
425.8306, 48.55822
426.3127, 48.10931
426.7948, 48.39119
427.2769, 49.25708
427.7590, 49.72439
428.2411, 48.95387
428.7233, 47.71222
429.2054, 47.31334
429.6875, 47.86698
430.1696, 48.30146
430.6517, 47.89084
431.1339, 46.88870
431.6160, 46.17551
432.0981, 46.02882
432.5802, 45.73426
433.0623, 44.81721
433.5444, 43.51208
434.0266, 42.30751
434.5087, 41.36193
434.9908, 40.50214
435.4729, 39.52936
435.9550, 38.45984
436.4371, 37.13976
436.9193, 35.28902
437.4014, 33.40761
437.8835, 31.85726
438.3656, 30.60944
438.8477, 29.41347
439.3298, 28.08047
439.8120, 26.69481
440.2941, 25.74796
440.7762, 25.73201
441.2583, 25.54762
441.7404, 24.93193
442.2225, 24.17643
442.7046, 23.57925
443.1867, 23.21679
443.6689, 22.96426
444.1510, 22.66509
444.6331, 22.29627
445.1152, 21.99281
445.5973, 21.58068
446.0794, 21.41234
446.5616, 21.95126
447.0437, 22.78954
447.5258, 23.15052
448.0079, 22.54344
448.4900, 21.34197
448.9721, 20.42536
449.4543, 19.80058
449.9364, 19.44729
450.4185, 19.59954
450.9006, 19.86112
451.3827, 19.96956
451.8648, 19.89570
452.3470, 19.76003
452.8291, 19.62189
453.3112, 19.49319
453.7933, 19.43782
454.2754, 19.47781
454.7575, 19.54668
455.2397, 19.68472
455.7218, 19.81011
456.2039, 19.74686
456.6860, 19.33005
457.1681, 18.89607
457.6502, 18.73234
458.1324, 18.79860
458.6145, 18.92551
459.0966, 19.08621
459.5787, 19.23012
460.0608, 19.24601
460.5429, 19.11542
461.0251, 19.08198
461.5072, 19.32782
461.9893, 19.59318
462.4714, 19.64781
462.9535, 19.48923
463.4356, 19.19866
463.9178, 18.77999
464.3999, 18.30476
464.8820, 18.16661
465.3641, 18.64424
465.8462, 19.07720
466.3283, 19.40285
466.8105, 19.62841
467.2926, 19.72427
467.7747, 19.70248
468.2568, 19.67294
468.7389, 19.78882
469.2210, 20.10263
469.7032, 20.21542
470.1853, 20.06396
470.6674, 19.77003
471.1495, 19.13897
471.6316, 18.43756
472.1137, 18.13228
472.5959, 18.47223
473.0780, 19.10158
473.5601, 19.33072
474.0422, 19.06088
474.5243, 18.81199
475.0064, 18.61422
475.4886, 18.51934
475.9707, 18.65086
476.4528, 18.95284
476.9349, 19.14866
477.4170, 18.99485
477.8991, 18.63099
478.3813, 18.33965
478.8634, 18.11080
479.3455, 18.03277
479.8276, 18.23517
480.3097, 18.58513
480.7918, 18.84360
481.2740, 18.98691
481.7561, 19.07771
482.2382, 19.10717
482.7203, 19.11461
483.2024, 19.19423
483.6845, 19.36884
484.1666, 19.52863
484.6487, 19.56450
485.1309, 19.46987
485.6130, 19.38666
486.0951, 19.31443
486.5772, 19.25328
487.0593, 19.18635
487.5414, 19.13336
488.0236, 19.15408
488.5057, 19.27182
488.9878, 19.39709
489.4699, 19.35706
489.9520, 19.02411
490.4341, 18.84048
490.9163, 18.85593
491.3984, 18.94745
491.8805, 19.12599
492.3626, 19.32876
492.8447, 19.42929
493.3268, 19.33718
493.8090, 19.11235
494.2911, 18.91818
494.7732, 18.74277
495.2553, 18.63228
495.7374, 18.71564
496.2195, 18.78634
496.7017, 18.59976
497.1838, 18.17993
497.6659, 17.92808
498.1480, 18.36175
498.6301, 19.16297
499.1122, 19.37082
499.5944, 18.83453
500.0765, 18.25854
500.5586, 18.00965
501.0407, 18.00529
501.5228, 18.06469
502.0049, 18.20337
502.4871, 18.35067
502.9692, 18.54322
503.4513, 18.70360
503.9334, 18.64700
504.4155, 18.33010
504.8976, 17.97379
505.3798, 17.77106
505.8619, 17.72626
506.3440, 17.88371
506.8261, 18.60088
507.3082, 19.10318
507.7903, 18.97855
508.2725, 18.49215
508.7546, 17.99941
509.2367, 17.64427
509.7188, 17.48082
510.2009, 17.66743
510.6830, 18.43389
511.1652, 18.77135
511.6473, 18.15107
512.1294, 17.62393
512.6115, 17.67686
513.0936, 18.12160
513.5757, 18.55723
514.0579, 18.79985
514.5400, 18.87654
515.0221, 18.78888
515.5042, 18.50369
515.9863, 18.30463
516.4684, 18.27844
516.9506, 18.34251
517.4327, 18.43514
517.9148, 18.55249
518.3969, 18.67533
518.8790, 18.87024
519.3611, 19.02428
519.8433, 18.89296
520.3254, 18.50653
520.8075, 18.32455
521.2896, 18.63473
521.7717, 19.20441
522.2538, 19.49090
522.7360, 19.45843
523.2181, 19.32399
523.7002, 18.93575
524.1823, 18.58965
524.6644, 18.66431
525.1465, 19.09031
525.6287, 19.40270
526.1108, 19.23887
526.5929, 18.71139
527.0750, 18.40588
527.5571, 18.35970
528.0392, 18.51324
528.5214, 19.13981
529.0035, 19.76079
529.4856, 19.90362
529.9677, 19.57255
530.4498, 19.21237
530.9319, 19.26516
531.4141, 19.63802
531.8962, 19.69738
532.3783, 19.21188
532.8604, 18.95090
533.3425, 19.44794
533.8246, 20.24442
534.3068, 20.93598
534.7889, 21.47594
535.2710, 21.81131
535.7531, 21.74960
536.2352, 21.49095
536.7173, 21.49772
537.1995, 21.84407
537.6816, 22.24557
538.1637, 22.50390
538.6458, 22.63490
539.1279, 22.75129
539.6100, 22.78121
540.0922, 22.88580
540.5743, 23.33955
541.0564, 23.78797
541.5385, 23.70759
542.0206, 23.03536
542.5027, 22.20703
542.9849, 21.67193
543.4670, 21.43629
543.9491, 21.21136
544.4312, 20.83788
544.9133, 20.68033
545.3954, 21.02883
545.8775, 21.52145
546.3596, 21.71016
546.8417, 21.49355
547.3239, 21.21419
547.8060, 21.27015
548.2881, 21.62935
548.7702, 21.92158
549.2523, 22.13665
549.7344, 22.26923
550.2166, 22.19823
550.6987, 22.06982
551.1808, 22.13922
551.6629, 22.53431
552.1450, 22.93055
552.6271, 23.09346
553.1093, 23.11902
553.5914, 23.19990
554.0735, 23.37465
554.5556, 23.60788
555.0377, 23.89411
555.5198, 24.23038
556.0020, 24.40714
556.4841, 24.23552
556.9662, 24.15705
557.4483, 24.26576
557.9304, 24.54148
558.4125, 25.01178
558.8947, 25.65656
559.3768, 26.30766
559.8589, 26.74767
560.3410, 26.96497
560.8231, 27.40522
561.3052, 28.34432
561.7874, 29.09369
562.2695, 29.30688
562.7516, 29.29877
563.2337, 29.39481
563.7158, 29.66828
564.1979, 30.13760
564.6801, 30.89725
565.1622, 31.86966
565.6443, 32.79377
566.1264, 33.63735
566.6085, 34.47991
567.0906, 35.36105
567.5728, 36.28961
568.0549, 37.29202
568.5370, 38.51184
569.0191, 39.57999
569.5012, 40.15467
569.9833, 40.61448
570.4655, 41.52198
570.9476, 42.90729
571.4297, 44.26453
571.9118, 45.06893
572.3939, 45.40675
572.8760, 46.36201
573.3582, 48.63264
573.8403, 50.58464
574.3224, 51.86882
574.8045, 52.84615
575.2866, 53.73743
575.7687, 54.63092
576.2509, 55.66417
576.7330, 57.05489
577.2151, 58.68081
577.6972, 60.08844
578.1793, 61.27723
578.6614, 62.23323
579.1436, 62.78653
579.6257, 63.19085
580.1078, 63.85286
580.5899, 64.83807
581.0720, 65.72678
581.5541, 66.40813
582.0363, 66.88341
582.5184, 67.08000
583.0005, 67.04235
583.4826, 66.98836
583.9647, 67.02948
584.4468, 67.18359
584.9290, 67.50600
585.4111, 68.13227
585.8932, 68.72442
586.3753, 69.17040
586.8574, 69.68370
587.3395, 70.42467
587.8217, 71.35311
588.3038, 72.30076
588.7859, 73.13304
589.2680, 74.01385
589.7501, 75.37540
590.2322, 77.31282
590.7144, 79.04899
591.1965, 80.24971
591.6786, 81.41421
592.1607, 82.96416
592.6428, 84.83692
593.1249, 86.74586
593.6071, 88.43685
594.0892, 90.27065
594.5713, 92.78879
595.0534, 95.68127
595.5355, 97.97745
596.0176, 99.31429
596.4998, 100.4439
596.9819, 102.4236
597.4640, 105.5426
597.9461, 107.7200
598.4282, 108.5476
598.9103, 109.0523
599.3925, 109.5580
599.8746, 109.9416
600.3567, 109.9646
600.8388, 109.5708
601.3209, 109.0096
601.8030, 108.6934
602.2852, 108.5866
602.7673, 107.8508
603.2494, 106.4271
603.7315, 104.4827
604.2136, 101.8545
604.6957, 98.84002
605.1779, 95.81936
605.6600, 92.79664
606.1421, 89.87393
606.6242, 87.19994
607.1063, 84.59221
607.5884, 81.78306
608.0706, 78.76877
608.5527, 75.69426
609.0348, 72.63281
609.5169, 69.65028
609.9990, 66.95275
610.4811, 64.86172
610.9633, 62.60535
611.4454, 59.81555
611.9275, 57.17595
612.4096, 55.31474
612.8917, 54.00890
613.3738, 52.51162
613.8560, 50.32513
614.3381, 47.86448
614.8202, 45.93779
615.3023, 44.57209
615.7844, 43.26051
616.2665, 41.89222
616.7487, 40.55771
617.2308, 39.36551
617.7129, 38.27340
618.1950, 37.12633
618.6771, 35.79382
619.1592, 34.50056
619.6414, 33.26274
620.1235, 32.18832
620.6056, 31.59900
621.0877, 31.54823
621.5698, 31.52113
622.0519, 30.94367
622.5341, 29.80863
623.0162, 28.95142
623.4983, 28.66945
623.9804, 28.29427
624.4625, 27.56603
624.9446, 26.79601
625.4268, 26.28251
625.9089, 26.06357
626.3910, 25.97220
626.8730, 26.02404
627.3552, 26.07385
627.8373, 25.66746
628.3194, 24.76590
628.8015, 23.90011
629.2836, 23.22777
629.7657, 22.74695
630.2479, 22.50665
630.7300, 22.52260
631.2121, 22.51710
631.6942, 22.49711
632.1763, 22.39924
632.6584, 22.16626
633.1406, 21.82566
633.6227, 21.39407
634.1048, 20.88581
634.5869, 20.42603
635.0690, 20.22622
635.5511, 20.33118
636.0333, 20.36838
636.5154, 20.22787
636.9975, 20.17442
637.4796, 20.43143
637.9617, 20.76519
638.4438, 20.87841
638.9260, 20.70111
639.4081, 20.38683
639.8902, 19.91039
640.3723, 19.41629
640.8544, 19.19335
641.3365, 19.25652
641.8187, 19.40443
642.3008, 19.56084
642.7829, 19.67011
643.2650, 19.58318
643.7471, 19.13348
644.2292, 18.80212
644.7114, 18.52232
645.1935, 18.42280
645.6756, 18.77195
646.1577, 19.32944
646.6398, 19.57482
647.1219, 19.25283
647.6041, 18.73355
648.0862, 18.61402
648.5683, 18.88404
649.0504, 18.90892
649.5325, 18.52180
650.0146, 18.12350
650.4968, 17.96474
650.9789, 17.98484
651.4610, 18.06018
651.9431, 18.19235
652.4252, 18.35645
652.9073, 18.59834
653.3895, 18.83308
653.8716, 18.95218
654.3537, 18.96044
654.8358, 18.94453
655.3179, 18.96353
655.8000, 18.98176
656.2822, 18.87588
656.7643, 18.54049
657.2464, 18.35132
657.7285, 18.51403
658.2106, 18.66236
658.6927, 18.58161
659.1749, 18.36609
659.6570, 18.22602
660.1391, 18.22451
660.6212, 18.34008
661.1033, 18.67528
661.5854, 19.10150
662.0676, 19.21409
662.5497, 18.94041
663.0318, 18.70875
663.5139, 18.87922
663.9960, 19.33348
664.4781, 19.48655
664.9603, 19.02680
665.4424, 18.69252
665.9245, 18.60225
666.4066, 18.56546
666.8887, 18.44456
667.3708, 18.25813
667.8530, 18.08256
668.3351, 17.94175
668.8172, 17.89176
669.2993, 18.10463
669.7814, 18.56255
670.2635, 18.79006
670.7457, 18.63924
671.2278, 18.43470
671.7099, 18.42181
672.1920, 18.56454
672.6741, 18.69204
673.1563, 18.80651
673.6384, 18.89794
674.1205, 19.09656
674.6026, 19.18075
675.0847, 18.73743
675.5668, 17.91129
676.0490, 17.38731
676.5311, 17.64569
677.0132, 18.35015
677.4953, 18.60948
677.9774, 18.29676
678.4595, 18.15307
678.9417, 18.38949
679.4238, 18.65860
679.9059, 18.62761
680.3880, 18.47554
680.8701, 18.65787
681.3522, 19.51797
681.8344, 20.20463
682.3165, 20.00966
682.7986, 19.43671
683.2807, 19.23753
683.7628, 19.47442
684.2449, 19.79047
684.7271, 19.95704
685.2092, 19.99220
685.6913, 19.93669
686.1734, 19.70091
686.6555, 19.58200
687.1376, 19.81363
687.6198, 19.95325
688.1019, 19.67320
688.5840, 19.16952
689.0661, 18.84921
689.5482, 18.87149
690.0303, 19.01877
690.5125, 19.13792
690.9946, 19.23854
691.4767, 19.34010
691.9588, 19.44556
692.4409, 19.55250
692.9230, 19.66416
693.4052, 19.77075
693.8873, 19.85334
694.3694, 20.03799
694.8515, 19.95526
695.3336, 19.11110
695.8157, 18.51617
696.2979, 18.97979
696.7800, 19.98896
697.2621, 20.52443
697.7442, 20.18052
698.2263, 19.61853
698.7084, 19.51959
699.1906, 19.75534
699.6727, 19.89401
700.1548, 19.89089
700.6369, 19.91151
701.1190, 20.04440
701.6011, 20.26660
702.0833, 20.55461
702.5654, 21.09885
703.0475, 21.23400
703.5296, 20.47386
704.0117, 19.78739
704.4938, 19.70647
704.9760, 20.03992
705.4581, 20.46760
705.9402, 20.87022
706.4223, 21.19750
706.9044, 21.41128
707.3865, 21.50170
707.8687, 21.34891
708.3508, 20.89724
708.8329, 20.62404
709.3149, 20.83580
709.7971, 21.24047
710.2792, 21.28206
710.7613, 20.83985
711.2434, 20.71195
711.7255, 21.19327
712.2076, 21.74341
712.6898, 22.18957
713.1719, 22.49376
713.6540, 22.56428
714.1361, 22.40742
714.6182, 22.25493
715.1003, 22.39808
715.5825, 22.73208
716.0646, 22.76280
716.5467, 22.43986
717.0288, 22.16961
717.5109, 22.08901
717.9930, 22.11956
718.4752, 22.18380
718.9573, 22.28054
719.4394, 22.38974
719.9215, 22.50389
720.4036, 22.63676
720.8857, 22.81981
721.3679, 23.01069
721.8500, 23.17414
722.3321, 23.29458
722.8142, 23.34518
723.2963, 23.28597
723.7784, 23.16590
724.2606, 23.14276
724.7427, 23.23141
725.2248, 23.25404
725.7069, 23.11183
726.1890, 23.00160
726.6711, 23.17382
727.1533, 23.54641
727.6354, 23.70953
728.1175, 23.38364
728.5996, 23.19844
729.0817, 23.46301
729.5638, 23.86677
730.0460, 24.11541
730.5281, 24.20532
731.0102, 24.29289
731.4923, 24.47929
731.9744, 24.65645
732.4565, 24.57386
732.9387, 24.22443
733.4208, 24.02405
733.9029, 24.04595
734.3850, 24.14052
734.8671, 24.25219
735.3492, 24.36021
735.8314, 24.39192
736.3135, 24.25718
736.7956, 24.30103
737.2777, 24.79728
737.7598, 25.31117
738.2419, 25.53389
738.7241, 25.53015
739.2062, 25.45940
739.6883, 25.38674
740.1704, 25.34396
740.6525, 25.39779
741.1346, 25.52965
741.6168, 25.54549
742.0989, 25.39190
742.5810, 25.40260
743.0631, 25.81567
743.5452, 26.34890
744.0273, 26.55637
744.5095, 26.41308
744.9916, 26.39104
745.4737, 26.71813
745.9558, 26.95674
746.4379, 26.85061
746.9200, 26.58689
747.4022, 26.36914
747.8843, 26.25223
748.3664, 26.20967
748.8485, 26.17052
749.3306, 26.25189
749.8127, 26.90358
750.2949, 28.12995
750.7770, 28.85924
751.2591, 28.72361
751.7412, 28.42264
752.2233, 28.60254
752.7054, 29.16550
753.1876, 29.38521
753.6697, 28.95891
754.1518, 28.64696
754.6339, 28.65093
755.1160, 28.71329
755.5981, 28.55449
756.0803, 28.29777
756.5624, 28.28663
757.0445, 28.68672
757.5266, 29.29101
758.0087, 30.01273
758.4908, 30.73759
758.9730, 30.89106
759.4551, 30.39710
759.9372, 29.98474
760.4193, 30.04613
760.9014, 30.38553
761.3835, 30.63113
761.8657, 30.73985
762.3478, 30.90092
762.8299, 31.16007
763.3120, 31.41318
763.7941, 31.65248
764.2762, 31.85089
764.7584, 31.92255
765.2405, 31.88279
765.7226, 31.95997
766.2047, 32.45611
766.6868, 33.05743
767.1689, 33.24017
767.6511, 33.10675
768.1332, 33.11468
768.6153, 33.39012
769.0974, 33.70604
769.5795, 33.84689
770.0616, 33.83301
770.5438, 33.81161
771.0259, 33.66408
771.5080, 33.72496
771.9901, 34.23426
772.4722, 34.75396
772.9543, 35.00953
773.4365, 35.08035
773.9186, 35.16643
774.4007, 35.30315
774.8828, 35.53590
775.3649, 35.95307
775.8470, 36.45134
776.3292, 36.89775
776.8113, 37.28498
777.2934, 37.64861
777.7755, 38.00766
778.2576, 38.34729
778.7397, 38.65495
779.2219, 38.93861
779.7040, 39.06697
780.1861, 38.87410
780.6682, 38.87112
781.1503, 39.41155
781.6324, 40.10989
782.1146, 40.54704
782.5967, 40.72816
783.0788, 40.91347
783.5609, 40.89138
784.0430, 41.19500
784.5251, 42.41896
785.0073, 43.98002
785.4894, 45.12478
785.9715, 45.74935
786.4536, 46.11512
786.9357, 46.35922
787.4178, 46.59376
787.9000, 47.05360
788.3821, 47.73644
788.8642, 48.60972
789.3463, 49.75057
789.8284, 50.77678
790.3105, 51.29882
790.7927, 51.58874
791.2747, 52.44376
791.7568, 54.20956
792.2390, 55.65450
792.7211, 56.15066
793.2032, 56.90990
793.6853, 58.82613
794.1674, 61.26418
794.6495, 63.26103
795.1317, 64.60211
795.6138, 65.87153
796.0959, 67.31827
796.5780, 69.09768
797.0601, 71.73758
797.5422, 75.03478
798.0244, 77.69821
798.5065, 79.34473
798.9886, 81.06332
799.4707, 83.88814
799.9528, 87.72137
800.4349, 91.71361
800.9171, 95.78245
801.3992, 100.1999
801.8813, 105.0471
802.3634, 110.1967
802.8455, 115.3857
803.3276, 120.8481
803.8098, 127.0211
804.2919, 134.0109
804.7740, 141.5863
805.2561, 149.5256
805.7382, 158.0028
806.2203, 167.4107
806.7025, 177.4567
807.1846, 187.5508
807.6667, 197.4178
808.1488, 207.3240
808.6309, 217.3739
809.1130, 227.7021
809.5952, 239.2043
810.0773, 252.1320
810.5594, 264.9220
811.0415, 276.6829
811.5236, 288.8677
812.0057, 302.7544
812.4879, 318.3377
812.9700, 335.1360
813.4521, 353.1373
813.9342, 372.2390
814.4163, 391.9464
814.8984, 413.1089
815.3806, 436.5705
815.8627, 461.7715
816.3448, 487.7211
816.8269, 514.0472
817.3090, 540.0214
817.7911, 565.6666
818.2733, 589.8903
818.7554, 610.7740
819.2375, 628.1895
819.7196, 642.6283
820.2017, 654.4349
820.6838, 661.2881
821.1660, 660.2970
821.6481, 651.4874
822.1302, 636.6429
822.6123, 613.9505
823.0944, 588.7579
823.5765, 560.8936
824.0587, 532.0515
824.5408, 503.0188
825.0229, 474.1188
825.5050, 446.3402
825.9871, 419.5247
826.4692, 394.7461
826.9514, 372.2443
827.4335, 351.9580
827.9156, 333.9578
828.3977, 318.1897
828.8798, 304.7240
829.3619, 293.5009
829.8441, 283.9427
830.3262, 275.6933
830.8083, 268.5329
831.2904, 261.4031
831.7725, 254.3517
832.2546, 248.8786
832.7368, 245.6180
833.2189, 243.4940
833.7010, 241.2817
834.1831, 239.1235
834.6652, 238.5912
835.1473, 240.2743
835.6295, 242.6907
836.1116, 245.9279
836.5937, 249.5964
837.0758, 253.3949
837.5579, 257.5102
838.0400, 262.2980
838.5222, 267.8015
839.0043, 274.1830
839.4864, 281.8450
839.9685, 290.2043
840.4506, 298.6546
840.9327, 307.3447
841.4149, 316.6772
841.8970, 326.7542
842.3791, 337.4493
842.8612, 348.3831
843.3433, 359.8968
843.8254, 373.2946
844.3076, 388.5552
844.7897, 404.0497
845.2718, 419.1161
845.7539, 435.2577
846.2360, 453.8778
846.7181, 474.2024
847.2003, 493.4575
847.6824, 510.6061
848.1645, 528.5782
848.6466, 548.3347
849.1287, 567.8514
849.6108, 587.5108
850.0930, 605.8962
850.5751, 621.7750
851.0572, 634.8226
851.5393, 644.0321
852.0214, 648.9575
852.5035, 649.8074
852.9857, 646.8287
853.4678, 639.9374
853.9499, 628.7721
854.4320, 613.4903
854.9141, 594.4156
855.3962, 571.7398
855.8784, 546.4319
856.3605, 520.3232
856.8426, 493.3937
857.3247, 466.2465
857.8068, 438.7816
858.2889, 412.2945
858.7711, 387.4408
859.2532, 364.0688
859.7353, 341.7478
860.2174, 321.1193
860.6995, 301.9847
861.1816, 283.7694
861.6638, 267.6759
862.1459, 252.3776
862.6280, 238.0000
863.1101, 224.5962
863.5922, 212.1650
864.0743, 200.7625
864.5565, 190.1910
865.0386, 180.9418
865.5207, 174.0681
866.0028, 168.1822
866.4849, 161.7592
866.9670, 154.8853
867.4492, 148.2276
867.9313, 142.0700
868.4134, 136.5887
868.8955, 132.0925
869.3776, 128.4401
869.8597, 125.0149
870.3419, 121.8215
870.8240, 119.4803
871.3061, 118.3026
871.7882, 117.1986
872.2703, 115.1965
872.7524, 112.6133
873.2346, 110.6914
873.7166, 109.4429
874.1987, 108.8329
874.6808, 109.1655
875.1630, 109.8158
875.6451, 110.9242
876.1272, 112.0310
876.6093, 112.3884
877.0914, 111.9428
877.5735, 111.9825
878.0557, 113.5992
878.5378, 115.0789
879.0199, 115.6695
879.5020, 115.4060
879.9841, 114.3431
880.4662, 112.5046
880.9484, 109.8617
881.4305, 106.3613
881.9126, 102.2724
882.3947, 97.84602
882.8768, 93.11243
883.3589, 88.08611
883.8411, 82.81368
884.3232, 77.68275
884.8053, 72.82755
885.2874, 68.48392
885.7695, 65.02244
886.2516, 62.36058
886.7338, 59.60604
887.2159, 56.60991
887.6980, 53.93879
888.1801, 51.69503
888.6622, 49.76435
889.1443, 48.14067
889.6265, 46.74748
890.1086, 45.38286
890.5907, 43.99811
891.0728, 42.78869
891.5549, 41.72776
892.0370, 40.90209
892.5192, 40.61879
893.0013, 40.43977
893.4834, 39.69989
893.9655, 38.44876
894.4476, 37.51793
894.9297, 37.57002
895.4119, 37.71283
895.8940, 36.95167
896.3761, 35.79372
896.8582, 35.07513
897.3403, 34.82909
897.8224, 34.75646
898.3046, 34.71783
898.7867, 34.62249
899.2688, 34.33370
899.7509, 33.87788
900.2330, 33.39054
900.7151, 32.86766
901.1973, 32.37598
901.6794, 31.89474
902.1615, 31.60700
902.6436, 31.74412
903.1257, 32.16734
903.6078, 32.26775
904.0900, 31.87558
904.5721, 31.51627
905.0542, 31.10625
905.5363, 30.84107
906.0184, 30.97731
906.5005, 31.18986
906.9827, 30.99084
907.4648, 30.36557
907.9469, 30.03439
908.4290, 30.39585
908.9111, 30.80308
909.3932, 31.05805
909.8754, 31.17143
910.3575, 31.00926
910.8396, 30.73376
911.3217, 30.75869
911.8038, 31.26390
912.2859, 31.92703
912.7681, 32.61497
913.2502, 33.19165
913.7323, 33.42747
914.2144, 33.35807
914.6965, 33.05161
915.1786, 32.55627
915.6608, 32.11417
916.1429, 31.93126
916.6250, 31.93580
917.1071, 32.01796
917.5892, 32.17809
918.0714, 31.92555
918.5535, 31.11752
919.0356, 30.48879
919.5177, 30.51760
919.9998, 30.65433
920.4819, 29.96746
920.9641, 28.34851
921.4462, 27.43210
921.9283, 27.67928
922.4104, 27.84929
922.8925, 27.63112
923.3746, 27.37408
923.8568, 27.33531
924.3389, 27.41504
924.8210, 27.37355
925.3031, 27.17618
925.7852, 26.89059
926.2673, 26.34893
926.7495, 25.92682
927.2316, 25.96094
927.7137, 26.16265
928.1958, 26.13484
928.6779, 25.87245
929.1600, 25.66984
929.6422, 25.64325
930.1243, 25.80689
930.6064, 26.27383
931.0885, 26.88409
931.5706, 27.38801
932.0527, 27.80612
932.5349, 28.33483
933.0170, 29.02983
933.4991, 29.59951
933.9812, 29.64619
934.4633, 29.39311
934.9454, 29.51890
935.4276, 29.98483
935.9097, 30.41852
936.3918, 30.75327
936.8739, 30.96162
937.3560, 30.97593
937.8381, 31.00154
938.3203, 31.48127
938.8024, 32.46679
939.2845, 33.48538
939.7666, 34.51402
940.2487, 35.66877
940.7308, 37.19918
941.2130, 38.59214
941.6951, 39.24685
942.1772, 39.32890
942.6593, 39.77364
943.1414, 40.65935
943.6235, 41.75260
944.1057, 43.17223
944.5878, 44.65162
945.0699, 46.14997
945.5520, 47.59834
946.0341, 48.88177
946.5162, 50.00910
946.9984, 51.15425
947.4805, 52.32855
947.9626, 53.60365
948.4447, 55.06600
948.9268, 56.59017
949.4089, 58.00595
949.8911, 59.38761
950.3732, 61.02619
950.8553, 62.99956
951.3374, 64.78761
951.8195, 65.74444
952.3016, 66.47019
952.7838, 67.97643
953.2659, 69.82160
953.7480, 70.91943
954.2301, 71.19864
954.7122, 71.38211
955.1943, 71.89001
955.6764, 72.52036
956.1585, 73.04899
956.6406, 73.43851
957.1227, 73.40120
957.6049, 72.94974
958.0870, 72.72529
958.5691, 72.95741
959.0512, 72.93226
959.5333, 71.96962
960.0154, 70.36502
960.4976, 69.19226
960.9797, 68.59576
961.4618, 67.62932
961.9439, 66.15556
962.4260, 64.58463
962.9081, 63.00994
963.3903, 61.52906
963.8724, 60.28026
964.3545, 59.25544
964.8366, 58.23326
965.3187, 57.60524
965.8008, 56.35324
966.2830, 53.67293
966.7651, 51.20602
967.2472, 49.95134
967.7293, 49.26507
968.2114, 48.14323
968.6935, 46.48687
969.1757, 45.07700
969.6578, 44.27347
970.1399, 43.48522
970.6220, 42.50145
971.1041, 41.44887
971.5862, 40.36426
972.0684, 39.32481
972.5505, 38.53632
973.0326, 38.08052
973.5147, 37.45680
973.9968, 36.19771
974.4789, 34.83363
974.9611, 33.74748
975.4432, 32.88835
975.9253, 32.16656
976.4074, 31.57408
976.8895, 31.20652
977.3716, 31.14726
977.8538, 30.99343
978.3359, 30.11721
978.8180, 28.96662
979.3001, 28.35151
979.7822, 28.16763
980.2643, 28.01001
980.7465, 27.77836
981.2286, 27.58371
981.7107, 27.51484
982.1928, 27.49330
982.6749, 27.40289
983.1570, 27.23449
983.6392, 26.90305
984.1213, 26.41095
984.6034, 25.88018
985.0855, 25.34033
985.5676, 24.95290
986.0497, 24.91960
986.5319, 24.56054
987.0140, 24.34320
987.4961, 24.31266
987.9782, 23.98552
988.4603, 24.06135
988.9424, 24.18473
989.4246, 24.26780
989.9067, 24.18863
990.3888, 23.72051
990.8709, 22.90949
991.3530, 22.48559
991.8351, 22.68730
992.3173, 22.72047
992.7994, 22.32914
993.2815, 22.04110
993.7636, 22.25142
994.2457, 22.63662
994.7278, 22.70250
995.2100, 22.43203
995.6921, 22.11648
996.1742, 21.71390
996.6563, 21.32998
997.1384, 20.84871
997.6205, 20.52694
998.1027, 20.63709
998.5848, 20.96459
999.0669, 21.16194
999.5490, 21.18545
1000.031, 21.09951
1000.513, 20.89217
1000.995, 20.61399
1001.477, 20.11142
1001.960, 19.69763
1002.442, 19.71515
1002.924, 20.02396
1003.406, 20.29469
1003.888, 20.44288
1004.370, 20.52023
1004.852, 20.60306
1005.334, 20.56855
1005.817, 20.17925
1006.299, 19.72433
1006.781, 19.61566
1007.263, 19.77657
1007.745, 19.83449
1008.227, 19.63956
1008.709, 19.40019
1009.191, 19.27041
1009.673, 19.19513
1010.156, 19.18200
1010.638, 19.14831
1011.120, 18.82989
1011.602, 18.30920
1012.084, 18.10489
1012.566, 18.50994
1013.048, 18.98651
1013.530, 18.86105
1014.013, 18.42233
1014.495, 18.10606
1014.977, 17.97014
1015.459, 18.27750
1015.941, 18.99072
1016.423, 19.53423
1016.905, 19.54483
1017.387, 19.20899
1017.869, 18.64700
1018.352, 17.99144
1018.834, 17.80449
1019.316, 18.03294
1019.798, 18.26580
1020.280, 18.39290
1020.762, 18.25075
1021.244, 17.66035
1021.726, 17.01358
1022.208, 17.27678
1022.691, 18.33353
1023.173, 18.63019
1023.655, 18.12155
1024.137, 17.75769
1024.619, 17.81045
1025.101, 17.99606
1025.583, 18.10337
1026.065, 18.14072
1026.547, 18.09228
1027.030, 17.93694
1027.512, 18.03075
1027.994, 18.46261
1028.476, 18.63721
1028.958, 18.31239
1029.440, 17.91729
1029.922, 17.87918
1030.404, 17.99634
1030.887, 17.50182
1031.369, 17.43714
1031.851, 17.55491
1032.333, 16.81683
1032.815, 17.58896
1033.297, 17.16108
1033.779, 16.55789
1034.261, 16.76216
1034.744, 17.49663
1035.226, 17.72955
1035.708, 17.28531
1036.190, 16.84325
1036.672, 16.26838
1037.154, 15.95740
1037.636, 16.14394
1038.118, 16.50409
1038.600, 16.78302
1039.083, 16.99376
1039.565, 17.21010
1040.047, 17.12328
1040.529, 17.57904
1041.011, 16.80317
1041.493, 16.17247
1041.975, 15.90751
1042.457, 15.92035
1042.939, 16.34871
1043.422, 17.00549
1043.904, 17.15258
1044.386, 16.48616
1044.868, 16.03157
1045.350, 15.95247
1045.832, 15.93218
1046.314, 15.82247
1046.796, 15.77746
1047.279, 16.03535
1047.761, 16.47342
1048.243, 16.67240
1048.725, 16.55852
1049.207, 16.31510
1049.689, 15.73698
1050.171, 15.32292
1050.653, 15.43550
1051.135, 15.62949
1051.618, 15.51063
1052.100, 15.13657
1052.582, 14.71213
1053.064, 14.17954
1053.546, 13.92692
1054.028, 14.27111
1054.510, 14.61577
1054.992, 14.76502
1055.474, 14.76850
1055.957, 14.57817
1056.439, 14.30130
1056.921, 14.23726
1057.403, 14.50901
1057.885, 14.64287
1058.367, 14.26602
1058.849, 14.02276
1059.331, 14.39719
1059.814, 14.86656
1060.296, 14.93195
1060.778, 14.69294
1061.260, 14.45466
1061.742, 14.26050
1062.224, 14.23860
1062.706, 14.66762
1063.188, 14.98380
1063.671, 14.77514
1064.153, 14.46228
1064.635, 14.41361
1065.117, 14.58513
1065.599, 14.86823
1066.081, 15.25761
1066.563, 15.37618
1067.045, 14.80290
1067.527, 14.27180
1068.010, 14.13542
1068.492, 14.20134
1068.974, 14.40387
1069.456, 14.63117
1069.938, 14.66247
1070.420, 14.45803
1070.902, 14.37334
1071.384, 14.78577
1071.866, 15.05744
1072.349, 14.60889
1072.831, 14.13756
1073.313, 14.45002
1073.795, 15.10427
1074.277, 15.18132
1074.759, 14.54810
1075.241, 13.93566
1075.723, 13.53875
1076.206, 13.38868
1076.688, 13.60597
1077.170, 13.97334
1077.652, 14.46480
1078.134, 14.90940
1078.616, 15.02164
1079.098, 14.79865
1079.580, 14.56848
1080.062, 14.46928
1080.545, 14.36681
1081.027, 14.27243
1081.509, 14.07249
1081.991, 13.42388
1082.473, 12.76303
1082.955, 12.76350
1083.437, 13.40780
1083.919, 14.11944
1084.401, 14.83225
1084.884, 15.23528
1085.366, 14.90277
1085.848, 14.51644
1086.330, 14.71657
1086.812, 15.01244
1087.294, 14.57033
1087.776, 13.60557
1088.258, 13.24652
1088.740, 14.01011
1089.223, 14.66412
1089.705, 14.59815
1090.187, 14.39115
1090.669, 14.18071
1091.151, 14.16281
1091.633, 14.77677
1092.115, 15.71299
1092.597, 16.06723
1093.080, 15.55697
1093.562, 15.00648
1094.044, 14.64469
1094.526, 14.41149
1095.008, 14.37783
1095.490, 14.37653
1095.972, 14.30809
1096.454, 14.14270
1096.937, 13.76736
1097.419, 13.15182
1097.901, 12.81879
1098.383, 13.10399
1098.865, 13.46253
1099.347, 13.73425
1099.829, 13.97933
1100.311, 14.32659
1100.793, 14.63640
1101.276, 14.62021
1101.758, 14.27793
1102.240, 14.09142
1102.722, 14.38966
1103.204, 14.53790
1103.686, 14.18176
1104.168, 13.86842
1104.650, 14.00430
1105.132, 14.28731
1105.615, 14.28036
1106.097, 14.03293
1106.579, 14.01693
1107.061, 14.47719
1107.543, 14.79779
1108.025, 14.71514
1108.507, 14.68870
1108.989, 15.20280
1109.472, 15.60101
1109.954, 15.00708
1110.436, 13.79141
1110.918, 13.25986
1111.400, 13.76989
1111.882, 14.04871
1112.364, 13.60117
1112.846, 13.47414
1113.328, 14.23704
1113.811, 15.07894
1114.293, 15.55616
1114.775, 15.67817
1115.257, 15.34544
1115.739, 14.42598
1116.221, 14.08062
1116.703, 14.94132
1117.185, 15.29693
1117.667, 14.57464
1118.150, 13.83359
1118.632, 13.57222
1119.114, 13.61467
1119.596, 13.77810
1120.078, 14.04775
1120.560, 14.18984
1121.042, 14.13826
1121.524, 14.12590
1122.007, 14.21232
1122.489, 14.22000
1122.971, 13.99923
1123.453, 13.82469
1123.935, 14.00613
1124.417, 14.43334
1124.899, 14.68804
1125.381, 14.72990
1125.864, 14.80602
1126.346, 14.96608
1126.828, 14.94323
1127.310, 14.60254
1127.792, 14.30881
1128.274, 14.36685
1128.756, 14.54304
1129.238, 14.31629
1129.720, 13.70741
1130.203, 13.57703
1130.685, 13.97847
1131.167, 14.23487
1131.649, 14.21559
1132.131, 14.30031
1132.613, 14.70282
1133.095, 15.15051
1133.577, 15.29430
1134.059, 15.19703
1134.542, 15.11129
1135.024, 15.02329
1135.506, 14.64474
1135.988, 13.99228
1136.470, 13.86492
1136.952, 14.52356
1137.434, 15.24491
1137.916, 15.43773
1138.399, 15.25309
1138.881, 14.82219
1139.363, 14.28059
1139.845, 14.14915
1140.327, 14.34719
1140.809, 14.42432
1141.291, 14.32455
1141.773, 14.40283
1142.255, 14.86423
1142.738, 15.30400
1143.220, 15.15381
1143.702, 14.74108
1144.184, 14.63830
1144.666, 14.69811
1145.148, 14.60991
1145.630, 14.38098
1146.112, 14.11910
1146.594, 13.88431
1147.077, 13.86926
1147.559, 14.31303
1148.041, 14.84306
1148.523, 15.19098
1149.005, 15.34460
1149.487, 15.17067
1149.969, 14.84528
1150.451, 14.69028
1150.934, 14.72355
1151.416, 14.72045
1151.898, 14.56607
1152.380, 14.45326
1152.862, 14.57289
1153.344, 14.67871
1153.826, 14.54475
1154.308, 14.35780
1154.791, 14.31511
1155.273, 14.39552
1155.755, 14.53915
1156.237, 14.74455
1156.719, 14.78130
1157.201, 14.35722
1157.683, 14.07774
1158.165, 14.24961
1158.647, 14.48000
1159.130, 14.50253
1159.612, 14.45282
1160.094, 14.57823
1160.576, 14.85082
1161.058, 14.90862
1161.540, 14.60674
1162.022, 14.32237
1162.504, 13.97861
1162.986, 13.76892
1163.469, 13.67348
1163.951, 13.84239
1164.433, 14.57262
1164.915, 15.52619
1165.397, 15.90208
1165.879, 15.65344
1166.361, 15.27861
1166.843, 14.69577
1167.325, 14.28701
1167.808, 14.09973
1168.290, 14.15675
1168.772, 14.54761
1169.254, 14.91155
1169.736, 14.76877
1170.218, 14.30439
1170.700, 14.31123
1171.182, 14.77298
1171.665, 14.95115
1172.147, 14.81585
1172.629, 14.73919
1173.111, 14.82076
1173.593, 14.76766
1174.075, 14.35396
1174.557, 13.90161
1175.039, 13.95889
1175.521, 14.34514
1176.004, 14.61450
1176.486, 14.76092
1176.968, 14.72692
1177.450, 14.54553
1177.932, 14.30845
1178.414, 14.07512
1178.896, 14.11146
1179.378, 14.81442
1179.860, 15.49597
1180.343, 15.28416
1180.825, 14.69335
1181.307, 14.25874
1181.789, 14.00555
1182.271, 13.88564
1182.753, 13.90143
1183.235, 14.14889
1183.717, 14.71901
1184.200, 15.15540
1184.682, 15.13905
1185.164, 15.01965
1185.646, 14.93232
1186.128, 14.88657
1186.610, 14.95760
1187.092, 15.04021
1187.574, 14.88874
1188.057, 14.49314
1188.539, 14.29288
1189.021, 14.41253
1189.503, 14.64419
1189.985, 15.14992
1190.467, 15.52612
1190.949, 15.68705
1191.431, 15.59300
1191.913, 15.02061
1192.396, 14.25711
1192.878, 14.12587
1193.360, 14.74564
1193.842, 15.02878
1194.324, 14.86995
1194.806, 14.75591
1195.288, 14.75493
1195.770, 14.86296
1196.252, 14.83803
1196.735, 14.95881
1197.217, 14.92439
1197.699, 15.08773
1198.181, 15.11100
1198.663, 14.97508
1199.145, 15.26359
1199.627, 15.23762
1200.109, 15.22610
1200.592, 15.30098
1201.074, 15.33002
1201.556, 15.23492
1202.038, 15.08699
1202.520, 14.93218
1203.002, 14.80943
1203.484, 14.75252
1203.966, 14.78981
1204.448, 15.09043
1204.931, 15.50336
1205.413, 15.57682
1205.895, 15.26681
1206.377, 15.08496
1206.859, 15.38890
1207.341, 15.58448
1207.823, 15.00320
1208.305, 14.52593
1208.787, 14.93902
1209.270, 15.63812
1209.752, 16.11837
1210.234, 16.29034
1210.716, 15.97865
1211.198, 15.10630
1211.680, 14.68933
1212.162, 15.32031
1212.644, 15.72494
1213.127, 15.74421
1213.609, 15.46682
1214.091, 14.53800
1214.573, 13.79863
1215.055, 14.21065
1215.537, 15.36411
1216.019, 16.00109
1216.501, 16.08418
1216.984, 15.95006
1217.466, 15.55615
1217.948, 15.22367
1218.430, 15.00772
1218.912, 14.84508
1219.394, 14.69981
1219.876, 14.67345
1220.358, 14.92505
1220.840, 14.76356
1221.323, 15.16764
1221.805, 14.80294
1222.287, 14.79152
1222.769, 15.05220
1223.251, 15.15393
1223.733, 15.06672
1224.215, 15.14065
1224.697, 15.54203
1225.179, 15.94566
1225.662, 16.22684
1226.144, 16.21584
1226.626, 15.37848
1227.108, 14.50414
1227.590, 14.54900
1228.072, 15.11220
1228.554, 15.49661
1229.036, 15.61367
1229.519, 15.67950
1230.001, 15.77286
1230.483, 15.73457
1230.965, 15.47435
1231.447, 15.15096
1231.929, 14.52252
1232.411, 14.18297
1232.893, 14.82102
1233.375, 15.67416
1233.858, 15.54919
1234.340, 14.59958
1234.822, 14.22819
1235.304, 14.57053
1235.786, 14.89300
1236.268, 15.21571
1236.750, 15.20039
1237.232, 14.72495
1237.714, 14.23762
1238.197, 14.01927
1238.679, 13.96552
1239.161, 13.94583
1239.643, 13.95883
1240.125, 14.01672
1240.607, 14.10000
1241.089, 14.14647
1241.571, 14.16416
1242.054, 14.20792
1242.536, 14.28007
1243.018, 14.30513
1243.500, 14.23254
1243.982, 14.18829
1244.464, 14.33589
1244.946, 14.46751
1245.428, 14.30952
1245.910, 14.16359
1246.393, 14.48750
1246.875, 14.96209
1247.357, 14.94753
1247.839, 14.43787
1248.321, 14.10028
1248.803, 14.12797
1249.285, 14.12138
1249.767, 14.02782
1250.250, 13.94206
1250.732, 13.85248
1251.214, 13.83787
1251.696, 13.97209
1252.178, 14.16878
1252.660, 14.31360
1253.142, 14.39884
1253.624, 14.35195
1254.106, 14.17701
1254.589, 14.09899
1255.071, 14.12495
1255.553, 14.21112
1256.035, 14.32814
1256.517, 14.27197
1256.999, 13.92131
1257.481, 13.55684
1257.963, 13.48660
1258.445, 13.57701
1258.928, 13.64541
1259.410, 13.76340
1259.892, 14.20071
1260.374, 14.68320
1260.856, 14.60244
1261.338, 14.02094
1261.820, 13.59837
1262.302, 13.51880
1262.785, 13.68082
1263.267, 14.46593
1263.749, 14.89876
1264.231, 14.34401
1264.713, 13.72781
1265.195, 13.54011
1265.677, 13.61410
1266.159, 13.85635
1266.641, 14.17087
1267.124, 14.14365
1267.606, 13.71783
1268.088, 13.37681
1268.570, 13.10898
1269.052, 13.14079
1269.534, 13.51898
1270.016, 13.58780
1270.498, 13.04789
1270.980, 12.58737
1271.463, 12.90471
1271.945, 13.54230
1272.427, 13.92136
1272.909, 14.01475
1273.391, 13.58796
1273.873, 12.94265
1274.355, 12.60595
1274.837, 12.58084
1275.320, 12.66560
1275.802, 12.79323
1276.284, 12.84342
1276.766, 12.67079
1277.248, 12.57970
1277.730, 12.77159
1278.212, 12.93851
1278.694, 12.84546
1279.177, 12.75902
1279.659, 12.99998
1280.141, 13.33251
1280.623, 13.30176
1281.105, 12.92427
1281.587, 12.47751
1282.069, 11.87324
1282.551, 12.07625
1283.033, 13.21057
1283.516, 13.78193
1283.998, 13.39267
1284.480, 13.03166
1284.962, 13.32329
1285.444, 13.79864
1285.926, 13.99035
##END=



