##NAMES=Forsterite
##RRUFFID=R040057
##IDEAL CHEMISTRY=Mg_2_SiO_4_
##LOCALITY=Trudy's mine, San Carlos, Gila County, Arizona, USA
##OWNER=RRUFF
##SOURCE=Bob Downs
##DESCRIPTION=Dark green crystal fragments from xenoliths in a basalt flow
##STATUS=The identification of this mineral has been confirmed by X-ray diffraction and chemical analysis
##URL=rruff.info/R040057
##MEASURED CHEMISTRY=(Mg_1.67_Fe_0.32_Ni_0.01_)_Î£=2_Si_1.00_O_4_; trace amounts of Mn and Ca
92.10938, 3.828207
92.59149, 3.758313
93.07361, 3.787072
93.55573, 3.906415
94.03784, 4.015471
94.51996, 4.043126
95.00208, 3.993108
95.48419, 3.874558
95.96631, 3.631971
96.44843, 3.333242
96.93054, 3.168872
97.41266, 3.145208
97.89478, 3.229538
98.37689, 3.433554
98.85901, 3.755756
99.34113, 4.037096
99.82324, 4.237957
100.3054, 4.356761
100.7875, 4.309859
101.2696, 4.035992
101.7517, 3.675323
102.2338, 3.491717
102.7159, 3.529883
103.1981, 3.621800
103.6802, 3.708685
104.1623, 3.817988
104.6444, 3.819724
105.1265, 3.629108
105.6086, 3.332920
106.0908, 3.272664
106.5729, 3.602679
107.0550, 3.988939
107.5371, 4.241407
108.0192, 4.295715
108.5013, 4.311984
108.9835, 4.223198
109.4656, 4.039732
109.9477, 4.092698
110.4298, 4.632926
110.9119, 5.271850
111.3940, 5.755507
111.8762, 5.940105
112.3583, 6.102629
112.8404, 6.236523
113.3225, 6.324148
113.8046, 6.586032
114.2867, 7.289051
114.7689, 8.109254
115.2510, 8.688373
115.7331, 8.694277
116.2152, 8.663370
116.6973, 8.822534
117.1794, 9.247744
117.6616, 9.623162
118.1437, 9.745854
118.6258, 9.753245
119.1079, 9.868451
119.5900, 10.28217
120.0721, 10.77248
120.5543, 11.18296
121.0364, 11.45269
121.5185, 11.72882
122.0006, 12.05560
122.4827, 12.45334
122.9648, 12.98446
123.4470, 13.84020
123.9291, 14.78780
124.4112, 15.54967
124.8933, 16.00161
125.3754, 16.34184
125.8575, 16.67745
126.3397, 17.03259
126.8218, 17.55819
127.3039, 18.52339
127.7860, 19.73096
128.2681, 20.76348
128.7502, 21.42629
129.2324, 21.91048
129.7145, 22.57153
130.1966, 23.41306
130.6787, 24.19493
131.1608, 24.63855
131.6429, 24.79872
132.1251, 24.96759
132.6072, 25.27268
133.0893, 25.65766
133.5714, 25.89855
134.0535, 25.96207
134.5356, 26.03441
135.0178, 26.38253
135.4999, 27.01133
135.9820, 27.64173
136.4641, 28.07239
136.9462, 28.32183
137.4283, 29.03111
137.9105, 30.33472
138.3926, 31.87164
138.8747, 33.04247
139.3568, 33.81827
139.8389, 34.39106
140.3210, 34.78482
140.8032, 34.94474
141.2853, 35.23282
141.7674, 35.67576
142.2495, 36.23246
142.7316, 36.75695
143.2137, 37.07844
143.6959, 37.26999
144.1780, 37.60271
144.6601, 38.16935
145.1422, 38.65550
145.6243, 39.05730
146.1064, 39.37880
146.5886, 39.63960
147.0707, 39.82389
147.5528, 39.96836
148.0349, 40.10153
148.5170, 40.36770
148.9991, 40.40065
149.4813, 40.02978
149.9634, 39.31955
150.4455, 38.90438
150.9276, 39.03704
151.4097, 39.28225
151.8918, 39.37088
152.3740, 39.29673
152.8561, 39.08562
153.3382, 38.65769
153.8203, 38.02269
154.3024, 37.51815
154.7845, 37.27163
155.2667, 37.11141
155.7488, 36.90514
156.2309, 36.55677
156.7130, 36.24466
157.1951, 36.07491
157.6772, 36.06355
158.1594, 35.87323
158.6415, 35.11741
159.1236, 34.27549
159.6057, 33.81421
160.0878, 34.30456
160.5699, 34.78731
161.0521, 34.89326
161.5342, 34.55733
162.0163, 34.21439
162.4984, 34.01513
162.9805, 33.89565
163.4626, 33.77529
163.9448, 33.67442
164.4269, 33.52928
164.9090, 33.29205
165.3911, 32.94545
165.8732, 32.58422
166.3553, 32.15501
166.8375, 31.75150
167.3196, 31.52912
167.8017, 31.74303
168.2838, 32.04654
168.7659, 32.17395
169.2480, 32.05912
169.7302, 31.90614
170.2123, 31.86833
170.6944, 31.89561
171.1765, 31.87676
171.6586, 31.78386
172.1407, 31.60336
172.6229, 31.27726
173.1050, 30.73221
173.5871, 30.23035
174.0692, 30.01406
174.5513, 30.03214
175.0334, 30.14017
175.5156, 30.38058
175.9977, 30.62465
176.4798, 30.64222
176.9619, 30.30646
177.4440, 29.94297
177.9261, 29.94271
178.4083, 30.24608
178.8904, 30.60121
179.3725, 30.90740
179.8546, 31.14198
180.3367, 31.25962
180.8188, 31.26246
181.3010, 31.13227
181.7831, 30.71243
182.2652, 30.05352
182.7473, 29.52676
183.2294, 29.50870
183.7115, 29.84623
184.1937, 30.10562
184.6758, 30.16361
185.1579, 30.15088
185.6400, 30.33414
186.1221, 30.70341
186.6042, 31.05737
187.0864, 31.22051
187.5685, 31.22619
188.0506, 31.20935
188.5327, 31.19098
189.0148, 31.17427
189.4969, 31.13459
189.9791, 31.06785
190.4612, 31.07806
190.9433, 31.33054
191.4254, 31.78563
191.9075, 32.11205
192.3896, 32.19044
192.8718, 32.11162
193.3539, 32.15163
193.8360, 32.32417
194.3181, 32.50986
194.8002, 32.54198
195.2823, 32.42769
195.7645, 32.49097
196.2466, 32.86378
196.7287, 33.45771
197.2108, 33.90735
197.6929, 34.19042
198.1750, 34.42857
198.6572, 34.73986
199.1393, 35.12658
199.6214, 35.49359
200.1035, 35.79559
200.5856, 36.05574
201.0677, 36.41072
201.5499, 36.87757
202.0320, 37.38765
202.5141, 37.89267
202.9962, 38.39986
203.4783, 38.83609
203.9604, 39.12643
204.4426, 39.31151
204.9247, 39.78823
205.4068, 40.64742
205.8889, 41.56244
206.3710, 42.13076
206.8531, 42.24192
207.3353, 42.58270
207.8174, 43.35872
208.2995, 44.53698
208.7816, 45.70432
209.2637, 46.88699
209.7458, 47.98574
210.2280, 48.86383
210.7101, 49.46099
211.1922, 50.05609
211.6743, 50.70451
212.1564, 51.39996
212.6385, 52.16352
213.1207, 53.04577
213.6028, 53.90047
214.0849, 54.56076
214.5670, 54.96882
215.0491, 55.34547
215.5313, 55.77020
216.0134, 56.24240
216.4955, 56.48655
216.9776, 56.42119
217.4597, 56.24332
217.9418, 56.18176
218.4239, 56.34147
218.9061, 56.34428
219.3882, 56.08625
219.8703, 55.56853
220.3524, 54.99773
220.8345, 54.33966
221.3166, 53.67817
221.7988, 53.08248
222.2809, 52.55040
222.7630, 52.10669
223.2451, 51.80009
223.7272, 51.63143
224.2093, 51.33186
224.6915, 50.81158
225.1736, 50.25647
225.6557, 49.86442
226.1378, 49.67543
226.6199, 49.55481
227.1020, 49.51202
227.5842, 49.54749
228.0663, 49.47908
228.5484, 49.30806
229.0305, 49.03015
229.5126, 48.59618
229.9947, 47.80931
230.4769, 47.27639
230.9590, 47.18012
231.4411, 47.52010
231.9232, 47.72126
232.4053, 47.83407
232.8874, 47.75588
233.3696, 47.32103
233.8517, 46.13825
234.3338, 45.38540
234.8159, 45.40725
235.2980, 46.18311
235.7801, 46.59150
236.2623, 46.47427
236.7444, 46.16286
237.2265, 45.96036
237.7086, 46.08768
238.1907, 45.87527
238.6728, 45.06291
239.1550, 43.70586
239.6371, 42.78730
240.1192, 42.53431
240.6013, 42.46342
241.0834, 42.21368
241.5655, 41.77008
242.0477, 41.16525
242.5298, 40.27398
243.0119, 39.15593
243.4940, 38.46815
243.9761, 38.47174
244.4582, 38.59639
244.9404, 38.42017
245.4225, 37.75166
245.9046, 37.16743
246.3867, 36.74539
246.8688, 36.46240
247.3509, 36.15329
247.8331, 35.77809
248.3152, 35.42834
248.7973, 35.17887
249.2794, 35.12185
249.7615, 34.95895
250.2436, 34.60411
250.7258, 34.11850
251.2079, 33.80600
251.6900, 33.74279
252.1721, 33.74464
252.6542, 33.71062
253.1363, 33.63596
253.6185, 33.53724
254.1006, 33.41460
254.5827, 33.26941
255.0648, 33.10582
255.5469, 32.92100
256.0291, 32.72591
256.5112, 32.52486
256.9933, 32.31209
257.4754, 32.09962
257.9575, 31.85725
258.4396, 31.62447
258.9218, 31.54220
259.4039, 31.70296
259.8860, 31.84388
260.3681, 31.81143
260.8502, 31.48386
261.3323, 31.35696
261.8145, 31.52285
262.2966, 31.83933
262.7787, 31.99849
263.2608, 31.95825
263.7429, 31.84632
264.2250, 31.67376
264.7072, 31.37723
265.1893, 31.30132
265.6714, 31.53260
266.1535, 31.91029
266.6356, 32.13419
267.1177, 32.14485
267.5999, 32.16441
268.0820, 32.29361
268.5641, 32.56002
269.0462, 32.71709
269.5283, 32.70137
270.0104, 32.65873
270.4926, 32.85500
270.9747, 33.39751
271.4568, 33.80399
271.9389, 33.83880
272.4210, 33.48466
272.9031, 33.47285
273.3853, 33.91365
273.8674, 34.49978
274.3495, 34.79584
274.8316, 34.72984
275.3137, 34.75871
275.7958, 35.02070
276.2780, 35.50078
276.7601, 36.01820
277.2422, 36.58385
277.7243, 37.15717
278.2064, 37.65965
278.6885, 38.06802
279.1707, 38.61407
279.6528, 39.39442
280.1349, 40.35594
280.6170, 41.16211
281.0991, 41.74566
281.5812, 42.45041
282.0634, 43.66356
282.5455, 45.41651
283.0276, 47.03313
283.5097, 48.37150
283.9918, 49.50058
284.4739, 50.58023
284.9561, 51.59060
285.4382, 52.69933
285.9203, 54.05706
286.4024, 55.64239
286.8845, 57.31452
287.3666, 59.04802
287.8488, 60.83452
288.3309, 62.59984
288.8130, 64.33932
289.2951, 66.21944
289.7772, 68.34091
290.2593, 70.68204
290.7415, 73.26311
291.2236, 76.08562
291.7057, 79.07966
292.1878, 82.15390
292.6699, 85.30375
293.1520, 88.48223
293.6342, 91.47829
294.1163, 94.46008
294.5984, 97.98711
295.0805, 102.2194
295.5626, 106.5641
296.0447, 110.4331
296.5269, 113.8491
297.0090, 116.9319
297.4911, 119.6780
297.9732, 122.1274
298.4553, 124.4105
298.9374, 126.5523
299.4196, 128.1680
299.9017, 128.9722
300.3838, 128.9361
300.8659, 127.9423
301.3480, 125.6455
301.8301, 122.5140
302.3123, 119.1242
302.7944, 115.4541
303.2765, 111.7105
303.7586, 108.0564
304.2407, 104.4254
304.7228, 100.5839
305.2050, 96.30245
305.6871, 91.97007
306.1692, 88.05009
306.6513, 84.49312
307.1334, 81.34769
307.6155, 78.59237
308.0977, 76.24471
308.5798, 74.36284
309.0619, 73.10018
309.5440, 72.01308
310.0261, 70.72628
310.5082, 69.31181
310.9904, 67.99461
311.4725, 66.80138
311.9546, 65.79619
312.4367, 65.08985
312.9188, 64.80138
313.4009, 64.48985
313.8831, 63.86384
314.3652, 63.03270
314.8473, 62.19488
315.3294, 61.32819
315.8115, 60.54953
316.2936, 59.93505
316.7758, 59.50102
317.2579, 59.17195
317.7400, 59.00808
318.2221, 58.90247
318.7042, 58.71572
319.1863, 58.52160
319.6685, 58.13334
320.1506, 57.42524
320.6327, 56.38999
321.1148, 55.29627
321.5969, 54.06957
322.0790, 52.90128
322.5612, 51.92359
323.0433, 51.29731
323.5254, 50.73827
324.0075, 50.29568
324.4896, 49.92196
324.9717, 49.29351
325.4539, 48.15090
325.9360, 46.87255
326.4181, 45.67653
326.9002, 44.35567
327.3823, 43.39146
327.8644, 43.00123
328.3466, 43.01554
328.8287, 42.91575
329.3108, 42.51503
329.7929, 42.15143
330.2750, 41.97343
330.7571, 42.14204
331.2393, 42.11598
331.7214, 41.70030
332.2035, 41.16085
332.6856, 40.94743
333.1677, 41.30760
333.6498, 41.63188
334.1320, 41.74992
334.6141, 41.63384
335.0962, 41.51587
335.5783, 41.39354
336.0604, 41.27203
336.5425, 41.15849
337.0247, 41.06318
337.5068, 40.95098
337.9889, 40.81807
338.4710, 40.66361
338.9531, 40.46667
339.4352, 40.20827
339.9173, 39.94779
340.3994, 39.78318
340.8816, 39.76209
341.3637, 39.48423
341.8458, 38.77711
342.3279, 37.88358
342.8100, 37.45210
343.2921, 37.54009
343.7743, 37.72893
344.2564, 37.83308
344.7385, 37.84949
345.2206, 37.66013
345.7027, 37.20050
346.1848, 36.67653
346.6670, 36.42197
347.1491, 36.42210
347.6312, 36.45356
348.1133, 36.46745
348.5954, 36.43735
349.0775, 36.21240
349.5597, 35.76772
350.0418, 35.36613
350.5239, 35.35096
351.0060, 35.61323
351.4881, 35.82752
351.9702, 35.95153
352.4524, 35.92112
352.9345, 35.57802
353.4166, 34.94685
353.8987, 34.24377
354.3808, 33.52568
354.8629, 32.86779
355.3451, 32.43985
355.8272, 32.38091
356.3093, 32.33882
356.7914, 31.93137
357.2735, 31.27397
357.7556, 30.69002
358.2378, 30.54756
358.7199, 30.44285
359.2020, 29.94687
359.6841, 28.92308
360.1662, 28.02869
360.6483, 27.80044
361.1305, 27.89350
361.6126, 27.82405
362.0947, 27.21315
362.5768, 26.57508
363.0589, 26.13225
363.5410, 25.89227
364.0232, 25.73838
364.5053, 25.71070
364.9874, 25.71158
365.4695, 25.66521
365.9516, 25.52564
366.4337, 25.37130
366.9159, 25.18569
367.3980, 24.98787
367.8801, 24.85278
368.3622, 24.85252
368.8443, 24.86827
369.3264, 24.85476
369.8086, 24.83674
370.2907, 24.73677
370.7728, 24.50056
371.2549, 24.19946
371.7370, 23.95115
372.2191, 23.78382
372.7013, 23.62876
373.1834, 23.45959
373.6655, 23.26713
374.1476, 23.14982
374.6297, 23.14746
375.1118, 23.17469
375.5940, 23.15876
376.0761, 23.10542
376.5582, 22.98927
377.0403, 22.79029
377.5224, 22.52823
378.0045, 22.26066
378.4867, 21.97330
378.9688, 21.75095
379.4509, 21.68356
379.9330, 21.77532
380.4151, 21.81871
380.8972, 21.80211
381.3794, 21.72233
381.8615, 21.52181
382.3436, 21.20313
382.8257, 20.97336
383.3078, 20.96882
383.7899, 21.12662
384.2721, 21.23734
384.7542, 21.29792
385.2363, 21.33599
385.7184, 21.41839
386.2005, 21.50358
386.6826, 21.46166
387.1648, 21.13137
387.6469, 20.78357
388.1290, 20.81776
388.6111, 21.17834
389.0932, 21.54520
389.5753, 21.69947
390.0575, 21.75078
390.5396, 21.84236
391.0217, 22.02436
391.5038, 22.17367
391.9859, 22.08131
392.4680, 21.90554
392.9502, 21.93550
393.4323, 22.48465
393.9144, 23.13157
394.3965, 23.64755
394.8786, 24.01800
395.3607, 24.30057
395.8429, 24.38447
396.3250, 24.45560
396.8071, 24.68012
397.2892, 25.11425
397.7713, 25.68579
398.2534, 26.46835
398.7356, 27.40752
399.2177, 28.22663
399.6998, 28.73954
400.1819, 29.25613
400.6640, 29.91681
401.1461, 30.81121
401.6283, 31.65625
402.1104, 32.31352
402.5925, 32.98330
403.0746, 34.01760
403.5567, 35.66152
404.0388, 37.22679
404.5210, 38.52899
405.0031, 39.56766
405.4852, 40.55661
405.9673, 41.44672
406.4494, 42.38762
406.9315, 43.53218
407.4137, 44.91374
407.8958, 46.28620
408.3779, 47.63164
408.8600, 48.93285
409.3421, 50.17926
409.8242, 51.37138
410.3064, 52.40356
410.7885, 53.21477
411.2706, 53.82270
411.7527, 54.30912
412.2348, 54.68993
412.7169, 54.89579
413.1991, 54.85024
413.6812, 54.56108
414.1633, 54.04710
414.6454, 53.21293
415.1275, 52.23790
415.6096, 51.21329
416.0918, 50.19336
416.5739, 49.50802
417.0560, 49.63408
417.5381, 50.12210
418.0202, 50.42041
418.5023, 50.33370
418.9845, 50.26799
419.4666, 50.46979
419.9487, 50.87453
420.4308, 51.35557
420.9129, 51.87381
421.3951, 52.45070
421.8772, 53.11362
422.3593, 53.85577
422.8414, 54.64132
423.3235, 55.50183
423.8056, 56.37490
424.2878, 57.20133
424.7699, 58.18367
425.2520, 58.87644
425.7341, 59.04533
426.2162, 58.84385
426.6983, 58.83075
427.1805, 59.04974
427.6626, 59.40923
428.1447, 59.93588
428.6268, 60.75478
429.1089, 61.24570
429.5910, 61.27421
430.0732, 61.12063
430.5553, 61.18135
431.0374, 61.56274
431.5195, 61.72949
432.0016, 61.52479
432.4837, 61.01294
432.9659, 60.55050
433.4480, 60.18095
433.9301, 59.58775
434.4122, 58.52375
434.8943, 57.02150
435.3764, 55.25531
435.8586, 53.18357
436.3407, 51.04171
436.8228, 49.18251
437.3049, 47.54219
437.7870, 45.89339
438.2691, 44.14680
438.7513, 42.30997
439.2334, 40.26371
439.7155, 38.03416
440.1976, 36.04983
440.6797, 34.79010
441.1618, 33.88862
441.6440, 32.89269
442.1261, 31.63535
442.6082, 30.38970
443.0903, 29.26957
443.5724, 28.27876
444.0545, 27.42583
444.5367, 26.78681
445.0188, 26.22509
445.5009, 25.68553
445.9830, 25.17343
446.4651, 24.63810
446.9472, 23.93810
447.4294, 23.27832
447.9115, 22.83943
448.3936, 22.94573
448.8757, 22.87304
449.3578, 22.41743
449.8399, 21.74367
450.3221, 21.41940
450.8042, 21.69617
451.2863, 21.91938
451.7684, 21.77327
452.2505, 21.16177
452.7326, 20.81637
453.2148, 20.81236
453.6969, 20.94346
454.1790, 20.98344
454.6611, 20.93164
455.1432, 20.81112
455.6253, 20.58694
456.1075, 20.32998
456.5896, 20.27330
457.0717, 20.41129
457.5538, 20.52916
458.0359, 20.39900
458.5180, 20.15319
459.0002, 20.14228
459.4823, 20.42669
459.9644, 20.73031
460.4465, 20.74277
460.9286, 20.57994
461.4107, 20.46203
461.8929, 20.51956
462.3750, 20.61483
462.8571, 20.66325
463.3392, 20.66662
463.8213, 20.62991
464.3034, 20.43357
464.7856, 20.28068
465.2677, 20.34344
465.7498, 20.75868
466.2319, 21.07521
466.7140, 21.09728
467.1961, 20.98732
467.6783, 20.95375
468.1604, 21.14361
468.6425, 21.27401
469.1246, 21.25636
469.6067, 21.10942
470.0888, 21.06960
470.5710, 21.21837
471.0531, 21.36269
471.5352, 21.38746
472.0173, 21.24915
472.4994, 21.15226
472.9815, 21.11158
473.4637, 21.09649
473.9458, 21.06576
474.4279, 21.01983
474.9100, 20.94654
475.3921, 20.80677
475.8742, 20.65218
476.3564, 20.70318
476.8385, 20.95688
477.3206, 21.13698
477.8027, 20.87277
478.2848, 20.40515
478.7669, 20.28464
479.2491, 20.64168
479.7312, 21.09494
480.2133, 21.34871
480.6954, 21.43241
481.1775, 21.40082
481.6596, 21.15048
482.1418, 20.89820
482.6239, 20.79582
483.1060, 20.82508
483.5881, 20.85147
484.0702, 20.75586
484.5523, 20.68683
485.0345, 20.77759
485.5166, 21.23996
485.9987, 21.42529
486.4808, 20.92911
486.9629, 20.21148
487.4450, 19.91284
487.9272, 20.47142
488.4093, 20.82416
488.8914, 20.68313
489.3735, 20.12670
489.8556, 19.87803
490.3377, 20.01483
490.8199, 20.27351
491.3020, 20.54395
491.7841, 20.84068
492.2662, 20.96268
492.7483, 20.86973
493.2304, 20.68931
493.7126, 20.55465
494.1947, 20.47152
494.6768, 20.52719
495.1589, 20.88085
495.6410, 21.26870
496.1231, 21.10927
496.6053, 20.48110
497.0874, 19.92246
497.5695, 19.80339
498.0516, 19.92232
498.5337, 20.07821
499.0158, 20.25894
499.4980, 20.38695
499.9801, 20.38680
500.4622, 20.31832
500.9443, 20.25217
501.4264, 20.21668
501.9085, 20.18169
502.3907, 20.08475
502.8728, 19.96656
503.3549, 19.99078
503.8370, 20.41628
504.3191, 20.76905
504.8012, 20.85359
505.2834, 20.59233
505.7655, 20.39405
506.2476, 20.20451
506.7297, 20.13817
507.2118, 20.37617
507.6939, 21.04475
508.1761, 21.47745
508.6582, 21.52567
509.1403, 21.33465
509.6224, 21.22678
510.1045, 21.20250
510.5866, 21.23722
511.0688, 21.34025
511.5509, 21.49206
512.0330, 21.65376
512.5151, 21.82699
512.9973, 21.95244
513.4794, 21.95497
513.9615, 21.88475
514.4436, 21.80820
514.9257, 21.71186
515.4078, 21.67986
515.8900, 21.83031
516.3721, 22.08529
516.8542, 22.29525
517.3363, 22.36108
517.8184, 22.41272
518.3005, 22.51017
518.7827, 22.65427
519.2648, 22.78279
519.7469, 22.92940
520.2290, 23.02310
520.7111, 23.00372
521.1932, 22.69425
521.6754, 22.65774
522.1575, 23.03985
522.6396, 23.57466
523.1217, 23.87718
523.6038, 23.89727
524.0859, 23.85535
524.5681, 23.74841
525.0502, 23.64039
525.5323, 23.79608
526.0144, 24.22886
526.4965, 24.70320
526.9786, 25.11655
527.4608, 25.45871
527.9429, 25.64430
528.4250, 25.65436
528.9071, 25.70098
529.3892, 26.05802
529.8713, 26.57049
530.3535, 26.96671
530.8356, 27.06824
531.3177, 27.18412
531.7998, 27.49481
532.2819, 27.97537
532.7640, 28.54943
533.2462, 29.32424
533.7283, 30.07436
534.2104, 30.64006
534.6925, 30.97208
535.1746, 31.56754
535.6567, 32.76308
536.1389, 34.00060
536.6210, 34.91826
537.1031, 35.38592
537.5852, 35.86366
538.0673, 36.39978
538.5494, 36.91922
539.0316, 37.27056
539.5137, 37.42572
539.9958, 37.64069
540.4779, 38.05464
540.9600, 38.54836
541.4421, 38.92878
541.9243, 39.17728
542.4064, 38.82055
542.8885, 37.12189
543.3706, 34.70565
543.8527, 32.67699
544.3348, 31.13539
544.8170, 29.88384
545.2991, 28.74821
545.7812, 27.82115
546.2633, 27.22910
546.7454, 27.31852
547.2275, 27.34301
547.7097, 26.84801
548.1918, 26.06032
548.6739, 25.51643
549.1560, 25.52153
549.6381, 25.58475
550.1202, 25.54711
550.6024, 25.40166
551.0845, 25.34158
551.5666, 25.38409
552.0487, 25.48937
552.5308, 25.66453
553.0129, 25.95107
553.4951, 26.03922
553.9772, 25.83030
554.4593, 25.60772
554.9414, 25.85443
555.4235, 26.52472
555.9056, 27.07504
556.3878, 27.30209
556.8699, 27.36767
557.3520, 27.50987
557.8341, 27.71805
558.3162, 27.94461
558.7983, 28.04700
559.2805, 28.22589
559.7626, 28.69786
560.2447, 29.47971
560.7268, 30.36734
561.2089, 31.51419
561.6910, 32.58726
562.1732, 33.30151
562.6553, 33.24330
563.1374, 33.38095
563.6195, 33.95590
564.1016, 34.75797
564.5837, 35.45601
565.0659, 35.84891
565.5480, 36.53246
566.0301, 37.71158
566.5122, 39.27688
566.9943, 40.62715
567.4764, 41.68993
567.9586, 42.83372
568.4407, 44.34973
568.9228, 46.14604
569.4049, 47.73926
569.8870, 49.09742
570.3691, 50.36412
570.8513, 51.51811
571.3334, 52.69874
571.8155, 54.14382
572.2976, 55.98411
572.7797, 57.96913
573.2618, 60.12093
573.7440, 62.26671
574.2261, 64.14438
574.7082, 65.38808
575.1903, 66.59154
575.6724, 67.91762
576.1545, 69.36993
576.6367, 70.94478
577.1188, 72.75748
577.6009, 74.55889
578.0830, 76.28771
578.5651, 77.94942
579.0472, 79.45766
579.5294, 80.81467
580.0115, 82.04790
580.4936, 83.24323
580.9757, 84.41550
581.4578, 85.33244
581.9399, 85.98354
582.4221, 86.31650
582.9042, 86.14082
583.3863, 85.54511
583.8684, 84.88094
584.3505, 84.19362
584.8326, 83.59158
585.3148, 83.23443
585.7969, 83.07967
586.2789, 82.94991
586.7610, 82.55588
587.2432, 82.30059
587.7253, 82.49564
588.2074, 83.23286
588.6895, 84.00972
589.1716, 84.68867
589.6537, 85.39945
590.1359, 86.23363
590.6180, 87.20023
591.1001, 88.27036
591.5822, 89.40927
592.0643, 90.66813
592.5464, 92.05582
593.0286, 93.52721
593.5107, 95.51106
593.9928, 98.29253
594.4749, 101.5373
594.9570, 104.5236
595.4391, 107.2289
595.9213, 109.5419
596.4034, 111.0739
596.8855, 112.3507
597.3676, 114.1517
597.8497, 116.5056
598.3318, 118.8632
598.8140, 121.0830
599.2961, 123.0054
599.7782, 124.5029
600.2603, 125.5070
600.7424, 126.1809
601.2245, 126.6305
601.7067, 126.7373
602.1888, 126.3452
602.6709, 125.1706
603.1530, 123.9793
603.6351, 122.9840
604.1172, 121.9955
604.5994, 120.4896
605.0815, 118.4786
605.5636, 115.9490
606.0457, 112.6869
606.5278, 108.9313
607.0099, 105.5600
607.4921, 102.6178
607.9742, 99.53153
608.4563, 95.63271
608.9384, 91.44395
609.4205, 87.88746
609.9026, 85.11240
610.3848, 82.39401
610.8669, 79.18595
611.3490, 75.83480
611.8311, 72.66249
612.3132, 69.88610
612.7953, 67.15170
613.2775, 64.37834
613.7596, 61.63470
614.2417, 58.99666
614.7238, 56.37914
615.2059, 54.04288
615.6880, 52.00863
616.1702, 50.27454
616.6523, 48.86460
617.1344, 47.82048
617.6165, 46.76644
618.0986, 45.47285
618.5807, 43.99400
619.0629, 42.51499
619.5450, 41.03714
620.0271, 39.59716
620.5092, 38.10890
620.9913, 36.71806
621.4734, 35.69328
621.9556, 35.15845
622.4377, 34.67838
622.9198, 34.03445
623.4019, 33.30268
623.8840, 32.57402
624.3661, 31.84214
624.8483, 31.13499
625.3304, 30.48658
625.8125, 29.85912
626.2946, 29.13054
626.7767, 28.16381
627.2589, 27.44233
627.7410, 27.19868
628.2231, 27.30966
628.7052, 27.13437
629.1873, 26.66201
629.6694, 26.07345
630.1516, 25.40751
630.6337, 24.72592
631.1158, 24.15614
631.5979, 23.70805
632.0800, 23.34420
632.5621, 23.11907
633.0443, 22.92467
633.5264, 22.60885
634.0085, 22.03919
634.4906, 21.63076
634.9727, 21.68131
635.4548, 21.91436
635.9370, 22.00647
636.4191, 21.88625
636.9012, 21.66974
637.3833, 21.30823
637.8654, 20.87984
638.3475, 20.58470
638.8297, 20.44715
639.3118, 20.33111
639.7939, 20.18577
640.2760, 20.10579
640.7581, 19.95643
641.2402, 19.95394
641.7224, 19.93718
642.2045, 19.87999
642.6866, 19.76151
643.1687, 19.49435
643.6508, 19.07845
644.1329, 18.77071
644.6151, 18.84380
645.0972, 19.00445
645.5793, 19.00795
646.0614, 18.73770
646.5435, 18.51050
647.0256, 18.36731
647.5078, 18.28902
647.9899, 18.27184
648.4720, 18.36350
648.9541, 18.38387
649.4362, 18.27683
649.9183, 18.13627
650.4005, 18.18217
650.8826, 18.40890
651.3647, 18.51918
651.8468, 18.36932
652.3289, 18.09249
652.8110, 17.85231
653.2932, 17.66646
653.7753, 17.62049
654.2574, 17.94413
654.7395, 18.28110
655.2216, 18.33559
655.7037, 18.11094
656.1859, 17.88448
656.6680, 17.66967
657.1501, 17.53200
657.6322, 17.53858
658.1143, 17.74541
658.5964, 17.82969
659.0786, 17.73794
659.5607, 17.60398
660.0428, 17.54623
660.5249, 17.56994
661.0070, 17.57051
661.4891, 17.53052
661.9713, 17.49445
662.4534, 17.49423
662.9355, 17.54315
663.4176, 17.70722
663.8997, 18.12412
664.3818, 18.44986
664.8640, 18.17517
665.3461, 17.62084
665.8282, 17.41247
666.3103, 18.32528
666.7924, 19.03552
667.2745, 18.96599
667.7567, 18.25116
668.2388, 17.76162
668.7209, 17.55905
669.2030, 17.48951
669.6851, 17.53412
670.1672, 17.68144
670.6494, 17.73980
671.1315, 17.69313
671.6136, 17.68181
672.0957, 17.87478
672.5778, 18.17739
673.0599, 18.30003
673.5421, 18.22160
674.0242, 18.11135
674.5063, 18.09251
674.9884, 18.11788
675.4705, 18.13690
675.9526, 18.13699
676.4348, 18.13751
676.9169, 18.15574
677.3990, 18.17241
677.8811, 18.16246
678.3632, 18.08019
678.8453, 18.05621
679.3275, 18.12171
679.8096, 18.23118
680.2917, 18.28359
680.7738, 18.27021
681.2559, 18.33787
681.7380, 18.57745
682.2202, 18.85905
682.7023, 18.86900
683.1844, 18.68029
683.6665, 18.58345
684.1486, 18.89074
684.6307, 19.22199
685.1129, 19.23397
685.5950, 18.97538
686.0771, 18.76227
686.5592, 18.70592
687.0413, 18.71758
687.5234, 18.75347
688.0056, 18.80561
688.4877, 18.96353
688.9698, 19.30044
689.4519, 19.61159
689.9340, 19.75546
690.4161, 19.72910
690.8983, 19.70591
691.3804, 19.68920
691.8625, 19.67518
692.3446, 19.64727
692.8267, 19.62203
693.3088, 19.62523
693.7910, 19.65474
694.2731, 19.74498
694.7552, 20.00891
695.2373, 20.31050
695.7194, 20.49114
696.2015, 20.37093
696.6837, 20.30684
697.1658, 20.35931
697.6479, 20.49015
698.1300, 20.66887
698.6121, 20.95662
699.0942, 21.10032
699.5764, 20.99594
700.0585, 20.77411
700.5406, 20.75160
701.0227, 20.91253
701.5048, 21.08927
701.9869, 21.22466
702.4691, 21.32230
702.9512, 21.38626
703.4333, 21.41683
703.9154, 21.41402
704.3975, 21.28204
704.8796, 21.20269
705.3618, 21.32421
705.8439, 21.64819
706.3260, 21.85203
706.8081, 21.77330
707.2902, 21.73895
707.7723, 21.92559
708.2545, 22.35145
708.7366, 22.58456
709.2187, 22.58548
709.7008, 22.57074
710.1829, 22.78999
710.6650, 23.13757
711.1472, 23.23979
711.6293, 23.05038
712.1114, 22.83729
712.5935, 22.79805
713.0756, 22.86115
713.5577, 22.94540
714.0399, 23.02245
714.5220, 23.15414
715.0041, 23.42759
715.4862, 23.72751
715.9683, 23.93409
716.4504, 24.00474
716.9326, 24.06671
717.4147, 24.11420
717.8968, 24.17505
718.3789, 24.34480
718.8610, 24.61285
719.3431, 24.68653
719.8253, 24.40762
720.3074, 24.07990
720.7895, 24.22184
721.2716, 24.63015
721.7537, 24.83877
722.2358, 24.31481
722.7180, 23.86431
723.2001, 23.99852
723.6822, 24.53819
724.1643, 24.94391
724.6464, 24.96931
725.1285, 25.07423
725.6107, 25.41621
726.0928, 25.92054
726.5749, 26.22877
727.0570, 26.32011
727.5391, 26.31832
728.0212, 26.22755
728.5034, 26.10356
728.9855, 26.10895
729.4676, 26.23114
729.9497, 26.37850
730.4318, 26.58392
730.9139, 26.72062
731.3961, 26.57426
731.8782, 26.14041
732.3603, 25.97133
732.8424, 26.53867
733.3245, 27.14357
733.8066, 27.39601
734.2888, 27.21130
734.7709, 27.23941
735.2530, 27.55275
735.7351, 27.89150
736.2172, 28.02351
736.6993, 27.98754
737.1815, 28.04263
737.6636, 28.21060
738.1457, 28.39711
738.6278, 28.51249
739.1099, 28.59406
739.5920, 28.67109
740.0742, 28.72410
740.5563, 28.86970
741.0384, 29.25795
741.5205, 29.70393
742.0026, 30.02073
742.4847, 30.09268
742.9669, 30.25109
743.4490, 30.55024
743.9311, 30.87346
744.4132, 31.04691
744.8953, 31.07592
745.3774, 31.17448
745.8596, 31.39280
746.3417, 31.66166
746.8238, 31.94571
747.3059, 32.20812
747.7880, 32.36633
748.2701, 32.29775
748.7523, 32.25843
749.2344, 32.41740
749.7165, 32.67943
750.1986, 32.86320
750.6807, 32.82027
751.1628, 32.89878
751.6450, 33.17573
752.1271, 33.58287
752.6092, 33.96476
753.0913, 34.32373
753.5734, 34.64249
754.0555, 34.87905
754.5377, 35.10936
755.0198, 35.52809
755.5019, 36.05827
755.9840, 36.44588
756.4661, 36.49439
756.9482, 36.43744
757.4304, 36.32772
757.9125, 36.21107
758.3946, 36.24691
758.8767, 36.48898
759.3588, 36.86495
759.8409, 37.42151
760.3231, 38.10175
760.8052, 38.57754
761.2873, 38.81585
761.7694, 39.09069
762.2515, 39.63772
762.7336, 40.27377
763.2158, 40.51553
763.6979, 40.43121
764.1800, 40.39070
764.6621, 40.62033
765.1442, 40.96777
765.6263, 41.41466
766.1085, 41.93995
766.5906, 42.24157
767.0727, 42.00816
767.5548, 41.82749
768.0369, 41.95542
768.5190, 42.38302
769.0012, 42.58949
769.4833, 42.51513
769.9654, 42.56837
770.4475, 43.10538
770.9296, 43.95991
771.4117, 44.79393
771.8939, 45.58553
772.3760, 46.16397
772.8581, 46.24024
773.3402, 46.17884
773.8223, 46.24551
774.3044, 46.47672
774.7866, 46.74852
775.2687, 46.97996
775.7508, 47.31353
776.2329, 47.86274
776.7150, 48.66507
777.1971, 49.31093
777.6793, 49.78746
778.1614, 50.19436
778.6435, 50.61778
779.1256, 51.02948
779.6077, 51.32630
780.0898, 51.49826
780.5720, 51.71544
781.0541, 52.02730
781.5362, 52.48161
782.0183, 53.17224
782.5004, 54.23469
782.9825, 55.05110
783.4647, 55.32805
783.9468, 55.62234
784.4289, 56.40031
784.9110, 57.76984
785.3931, 58.62300
785.8752, 58.83580
786.3574, 59.06438
786.8395, 60.16843
787.3216, 61.70455
787.8037, 62.68185
788.2858, 62.87600
788.7679, 63.19122
789.2501, 64.26266
789.7322, 65.64732
790.2143, 66.97695
790.6964, 68.09618
791.1785, 69.38274
791.6606, 70.86895
792.1428, 72.47964
792.6249, 74.16508
793.1070, 75.94219
793.5891, 77.67361
794.0712, 79.33911
794.5533, 81.12826
795.0355, 83.50680
795.5176, 86.08802
795.9997, 88.07488
796.4818, 89.12719
796.9639, 90.56882
797.4460, 93.23829
797.9282, 96.50503
798.4103, 99.79643
798.8924, 103.0101
799.3745, 106.4461
799.8566, 110.0457
800.3387, 113.8927
800.8209, 117.8957
801.3030, 122.0967
801.7851, 127.1311
802.2672, 133.1971
802.7493, 139.5253
803.2314, 144.6763
803.7136, 149.8409
804.1957, 156.6660
804.6778, 165.9124
805.1599, 175.5919
805.6420, 184.8067
806.1241, 194.3240
806.6063, 204.6940
807.0884, 215.6813
807.5705, 228.3007
808.0526, 242.7952
808.5347, 258.4269
809.0168, 274.5163
809.4990, 291.1651
809.9811, 309.1357
810.4632, 328.6494
810.9453, 349.0814
811.4274, 369.7917
811.9095, 391.5405
812.3917, 414.8134
812.8738, 439.6876
813.3559, 466.5483
813.8380, 495.1100
814.3201, 525.9880
814.8022, 559.9941
815.2844, 597.0618
815.7665, 636.1464
816.2486, 677.6405
816.7307, 719.8087
817.2128, 761.4063
817.6949, 802.7429
818.1771, 845.1592
818.6592, 888.9681
819.1413, 930.9153
819.6234, 972.6791
820.1055, 1009.825
820.5876, 1038.948
821.0698, 1059.456
821.5519, 1070.655
822.0340, 1072.677
822.5161, 1065.128
822.9982, 1046.720
823.4803, 1017.534
823.9625, 982.2307
824.4446, 940.6661
824.9267, 895.8212
825.4088, 848.8170
825.8909, 801.0709
826.3730, 755.4374
826.8552, 711.4648
827.3373, 670.8699
827.8194, 634.1925
828.3015, 600.8918
828.7836, 569.7422
829.2657, 540.7160
829.7479, 515.4084
830.2300, 494.4484
830.7121, 476.5597
831.1942, 461.4807
831.6763, 448.8399
832.1584, 437.8220
832.6406, 428.4291
833.1227, 421.0505
833.6048, 416.8095
834.0869, 414.2393
834.5690, 411.8153
835.0511, 409.1441
835.5333, 409.1302
836.0154, 412.4403
836.4975, 417.5914
836.9796, 423.7970
837.4617, 431.1559
837.9438, 440.5316
838.4260, 451.9950
838.9081, 464.3046
839.3902, 475.5838
839.8723, 487.7165
840.3544, 503.1152
840.8365, 521.7906
841.3187, 542.7333
841.8008, 566.1957
842.2829, 590.8965
842.7650, 615.7767
843.2471, 641.1190
843.7292, 669.0958
844.2114, 699.7321
844.6935, 732.9797
845.1756, 769.2361
845.6577, 807.8539
846.1398, 847.9401
846.6219, 889.5402
847.1041, 932.9113
847.5862, 978.2670
848.0683, 1025.380
848.5504, 1075.252
849.0325, 1126.856
849.5146, 1177.516
849.9968, 1228.495
850.4789, 1275.460
850.9610, 1317.653
851.4431, 1354.826
851.9252, 1387.022
852.4073, 1414.137
852.8895, 1432.885
853.3716, 1442.362
853.8537, 1441.697
854.3358, 1428.315
854.8179, 1403.727
855.3000, 1371.888
855.7822, 1333.261
856.2643, 1288.184
856.7464, 1235.131
857.2285, 1176.708
857.7106, 1115.816
858.1927, 1051.319
858.6749, 988.7778
859.1570, 928.7853
859.6391, 871.1863
860.1212, 816.1755
860.6033, 763.9022
861.0854, 714.9026
861.5676, 668.9821
862.0497, 626.1554
862.5318, 587.5065
863.0139, 551.7966
863.4960, 518.1492
863.9781, 485.1988
864.4603, 455.8006
864.9424, 430.0175
865.4245, 407.1190
865.9066, 386.0091
866.3887, 366.7832
866.8708, 349.0457
867.3530, 332.8575
867.8351, 317.7998
868.3172, 302.6793
868.7993, 288.5553
869.2814, 276.6598
869.7635, 267.6691
870.2457, 259.2199
870.7278, 250.8567
871.2099, 243.1167
871.6920, 236.4699
872.1741, 231.0044
872.6563, 226.2254
873.1384, 222.1708
873.6205, 218.5602
874.1026, 214.7535
874.5847, 211.4619
875.0668, 210.0390
875.5490, 210.5655
876.0311, 210.8267
876.5132, 209.2908
876.9953, 208.0304
877.4774, 208.1136
877.9595, 209.4924
878.4417, 210.7137
878.9238, 211.8683
879.4059, 212.3333
879.8880, 211.7241
880.3701, 210.2109
880.8522, 208.3884
881.3344, 206.0421
881.8165, 202.2543
882.2986, 195.9389
882.7807, 188.6734
883.2628, 181.3220
883.7449, 173.6487
884.2271, 164.6941
884.7092, 153.6654
885.1913, 143.6423
885.6734, 135.5161
886.1555, 128.7216
886.6376, 122.1800
887.1198, 116.0029
887.6019, 110.1488
888.0840, 104.4840
888.5661, 99.36452
889.0482, 95.11430
889.5303, 91.51051
890.0125, 88.27787
890.4946, 85.33944
890.9767, 82.77837
891.4588, 80.65369
891.9409, 78.78812
892.4230, 76.94511
892.9052, 75.12415
893.3873, 73.34093
893.8694, 71.55421
894.3515, 69.97929
894.8336, 68.93702
895.3157, 68.11466
895.7979, 67.16941
896.2800, 65.93448
896.7621, 65.00471
897.2442, 64.61958
897.7263, 64.26804
898.2084, 63.52721
898.6906, 62.42299
899.1727, 61.81866
899.6548, 61.72267
900.1369, 61.60166
900.6190, 60.91198
901.1011, 60.09509
901.5833, 59.71461
902.0654, 59.74251
902.5475, 59.51991
903.0296, 58.32475
903.5117, 57.50453
903.9938, 57.62827
904.4760, 58.44286
904.9581, 58.78519
905.4402, 58.64706
905.9223, 58.41965
906.4044, 58.17788
906.8865, 58.03485
907.3687, 58.15801
907.8508, 58.48628
908.3329, 58.88252
908.8150, 59.34885
909.2971, 59.81631
909.7792, 60.25051
910.2614, 60.69231
910.7435, 61.19720
911.2256, 61.76481
911.7077, 62.40367
912.1898, 63.11849
912.6719, 63.92223
913.1541, 64.90764
913.6362, 65.95731
914.1183, 66.89410
914.6004, 67.68108
915.0825, 68.35194
915.5646, 68.77662
916.0468, 69.20300
916.5289, 69.87501
917.0110, 70.89310
917.4931, 71.39573
917.9752, 71.38039
918.4573, 70.90151
918.9395, 69.73764
919.4216, 68.26696
919.9037, 67.18398
920.3858, 66.43674
920.8679, 65.35722
921.3500, 63.23699
921.8322, 61.16262
922.3143, 59.54990
922.7964, 58.35453
923.2785, 57.32561
923.7606, 56.46878
924.2427, 55.73824
924.7249, 55.13842
925.2070, 54.63736
925.6891, 54.14870
926.1712, 53.72997
926.6533, 53.51565
927.1354, 53.64281
927.6176, 53.87965
928.0997, 54.28869
928.5818, 54.70696
929.0639, 54.88867
929.5460, 54.76215
930.0281, 54.82824
930.5103, 55.13610
930.9924, 55.65281
931.4745, 56.48843
931.9566, 57.44459
932.4387, 58.13647
932.9208, 58.43928
933.4030, 58.98225
933.8851, 60.33994
934.3672, 61.71032
934.8493, 62.51390
935.3314, 62.72483
935.8135, 63.53180
936.2957, 64.98217
936.7778, 66.60433
937.2599, 68.21486
937.7420, 69.76890
938.2241, 71.12009
938.7062, 72.35181
939.1884, 73.80814
939.6705, 75.69437
940.1526, 77.75697
940.6347, 79.92023
941.1168, 82.20309
941.5989, 84.59966
942.0811, 87.09433
942.5632, 89.83115
943.0453, 92.94157
943.5274, 95.99037
944.0095, 98.28284
944.4916, 100.2673
944.9738, 102.7169
945.4559, 106.0589
945.9380, 109.2848
946.4201, 111.8721
946.9022, 114.5489
947.3843, 117.8285
947.8665, 121.7569
948.3486, 125.9139
948.8307, 130.3122
949.3128, 134.6620
949.7949, 138.7956
950.2770, 142.7336
950.7592, 146.2657
951.2413, 149.4644
951.7234, 152.8419
952.2055, 157.0271
952.6876, 160.8317
953.1697, 163.8616
953.6519, 166.2977
954.1340, 168.9112
954.6161, 171.6726
955.0982, 173.5784
955.5803, 174.0400
956.0624, 173.9699
956.5446, 174.3313
957.0267, 174.7511
957.5088, 174.6653
957.9909, 173.8764
958.4730, 172.5834
958.9551, 170.6398
959.4373, 168.4208
959.9194, 166.3193
960.4015, 164.2851
960.8836, 161.9088
961.3657, 159.1800
961.8478, 156.1125
962.3300, 152.7479
962.8121, 149.0608
963.2942, 144.8532
963.7763, 140.1117
964.2584, 136.0841
964.7405, 133.2116
965.2227, 130.3262
965.7048, 127.0123
966.1869, 123.4011
966.6690, 119.5889
967.1511, 115.6107
967.6332, 111.7007
968.1154, 107.8976
968.5975, 104.2097
969.0796, 100.6456
969.5617, 97.18030
970.0438, 93.61995
970.5259, 89.87680
971.0081, 86.32323
971.4902, 82.98911
971.9723, 79.90416
972.4544, 77.20336
972.9365, 74.77879
973.4186, 72.53289
973.9008, 70.45022
974.3829, 68.35399
974.8650, 66.10633
975.3471, 63.89970
975.8292, 61.78619
976.3113, 59.78174
976.7935, 57.95427
977.2756, 56.29463
977.7577, 54.91043
978.2398, 53.99719
978.7219, 53.20913
979.2040, 51.96548
979.6862, 50.45542
980.1683, 49.09257
980.6504, 48.04829
981.1325, 47.11724
981.6146, 46.29046
982.0967, 45.51366
982.5789, 44.71356
983.0610, 43.88923
983.5431, 43.16281
984.0252, 42.54025
984.5073, 41.96115
984.9894, 41.37989
985.4716, 40.79688
985.9537, 40.17612
986.4358, 39.51162
986.9179, 39.02362
987.4000, 38.88812
987.8821, 38.64103
988.3643, 38.03001
988.8464, 37.23763
989.3285, 36.94332
989.8106, 37.03703
990.2927, 36.97191
990.7748, 36.44153
991.2570, 35.80240
991.7391, 35.19231
992.2212, 34.65396
992.7033, 34.22692
993.1854, 33.89814
993.6675, 33.72370
994.1497, 33.74144
994.6318, 33.79878
995.1139, 33.82654
995.5960, 33.75346
996.0781, 33.35658
996.5602, 32.63453
997.0424, 31.97139
997.5245, 31.47788
998.0066, 31.16194
998.4887, 31.14015
998.9708, 31.29374
999.4529, 31.02593
999.9351, 30.31089
1000.417, 29.65338
1000.899, 29.22352
1001.381, 28.91766
1001.864, 28.57803
1002.346, 28.28009
1002.828, 28.15562
1003.310, 28.38687
1003.792, 28.51597
1004.274, 28.45650
1004.756, 28.36728
1005.238, 28.45738
1005.720, 28.66897
1006.203, 28.46163
1006.685, 27.85071
1007.167, 27.33493
1007.649, 27.36551
1008.131, 27.51048
1008.613, 27.46963
1009.095, 27.27496
1009.577, 27.20009
1010.060, 27.32268
1010.542, 27.31917
1011.024, 27.07882
1011.506, 26.75232
1011.988, 26.54949
1012.470, 26.44963
1012.952, 26.42597
1013.434, 26.49591
1013.916, 26.55846
1014.399, 26.66261
1014.881, 26.66102
1015.363, 26.38981
1015.845, 25.84122
1016.327, 25.67435
1016.809, 25.89767
1017.291, 26.10630
1017.773, 25.99914
1018.255, 25.78838
1018.738, 25.66514
1019.220, 25.60992
1019.702, 25.55645
1020.184, 25.46027
1020.666, 25.42111
1021.148, 25.46113
1021.630, 25.54568
1022.112, 25.65340
1022.595, 25.76260
1023.077, 25.78626
1023.559, 25.70457
1024.041, 25.61503
1024.523, 25.54011
1025.005, 25.51033
1025.487, 25.59522
1025.969, 25.77678
1026.452, 25.76646
1026.934, 25.55314
1027.416, 25.22353
1027.898, 24.71442
1028.380, 24.23749
1028.862, 24.08613
1029.344, 24.19720
1029.826, 24.45134
1030.308, 25.22712
1030.791, 25.49996
1031.273, 24.93832
1031.755, 24.22782
1032.237, 24.12736
1032.719, 24.52439
1033.201, 24.50484
1033.683, 24.05040
1034.165, 23.70953
1034.647, 24.06002
1035.130, 24.46117
1035.612, 24.44153
1036.094, 24.08628
1036.576, 23.93860
1037.058, 24.05671
1037.540, 24.14328
1038.022, 24.13708
1038.504, 24.04194
1038.987, 23.74636
1039.469, 23.40450
1039.951, 23.32818
1040.433, 23.73302
1040.915, 23.86172
1041.397, 23.38032
1041.879, 22.78422
1042.361, 22.28747
1042.844, 21.90276
1043.326, 21.71005
1043.808, 21.70380
1044.290, 21.81846
1044.772, 22.20172
1045.254, 22.50583
1045.736, 22.45270
1046.218, 22.18204
1046.700, 21.98848
1047.182, 21.93343
1047.665, 21.75438
1048.147, 21.39207
1048.629, 21.06614
1049.111, 21.03493
1049.593, 21.17957
1050.075, 21.37529
1050.557, 21.59974
1051.039, 21.64524
1051.522, 21.26254
1052.004, 20.89585
1052.486, 20.64889
1052.968, 20.52375
1053.450, 20.64381
1053.932, 20.93488
1054.414, 20.90827
1054.896, 20.28831
1055.379, 19.68160
1055.861, 19.52358
1056.343, 19.57195
1056.825, 19.58918
1057.307, 19.54954
1057.789, 19.57472
1058.271, 19.67897
1058.753, 19.76515
1059.235, 19.75206
1059.718, 19.69299
1060.200, 19.70352
1060.682, 19.73375
1061.164, 19.64391
1061.646, 19.23856
1062.128, 18.91451
1062.610, 18.71637
1063.092, 18.62484
1063.574, 18.65035
1064.057, 18.76522
1064.539, 18.84653
1065.021, 18.88218
1065.503, 18.90847
1065.985, 19.01480
1066.467, 19.05690
1066.949, 18.88478
1067.431, 18.57032
1067.914, 18.40322
1068.396, 18.39347
1068.878, 18.41894
1069.360, 18.43613
1069.842, 18.49613
1070.324, 18.80148
1070.806, 19.11903
1071.288, 19.09094
1071.771, 18.43784
1072.253, 18.14138
1072.735, 18.35786
1073.217, 18.66301
1073.699, 18.84136
1074.181, 18.89731
1074.663, 18.77535
1075.145, 18.53123
1075.627, 18.36621
1076.109, 18.42144
1076.592, 18.50605
1077.074, 18.58723
1077.556, 18.64865
1078.038, 18.65490
1078.520, 18.60726
1079.002, 18.63096
1079.484, 18.73602
1079.966, 18.81722
1080.448, 18.69278
1080.931, 18.59605
1081.413, 18.78303
1081.895, 19.19534
1082.377, 19.39025
1082.859, 19.33306
1083.341, 19.15573
1083.823, 18.83152
1084.305, 18.55727
1084.788, 18.74692
1085.270, 19.11090
1085.752, 19.14861
1086.234, 18.67793
1086.716, 18.43369
1087.198, 18.66462
1087.680, 18.93575
1088.162, 19.07760
1088.645, 19.09723
1089.127, 18.95188
1089.609, 18.69585
1090.091, 18.54554
1090.573, 18.68098
1091.055, 18.79226
1091.537, 18.70563
1092.019, 18.55414
1092.501, 18.46077
1092.984, 18.42616
1093.466, 18.44770
1093.948, 18.52653
1094.430, 18.60315
1094.912, 18.58949
1095.394, 18.59816
1095.876, 18.80633
1096.358, 19.11160
1096.840, 19.17122
1097.323, 18.83768
1097.805, 18.69664
1098.287, 18.86475
1098.769, 19.08716
1099.251, 19.04531
1099.733, 18.87527
1100.215, 18.78570
1100.697, 18.79645
1101.180, 18.80918
1101.662, 18.77664
1102.144, 18.78074
1102.626, 18.86155
1103.108, 18.97495
1103.590, 18.98062
1104.072, 18.92824
1104.554, 19.00440
1105.036, 19.32093
1105.519, 19.53376
1106.001, 19.40803
1106.483, 19.17365
1106.965, 18.96714
1107.447, 18.79029
1107.929, 18.64839
1108.411, 18.54459
1108.893, 18.51200
1109.375, 18.59503
1109.858, 18.72002
1110.340, 18.90106
1110.822, 19.05485
1111.304, 19.05228
1111.786, 18.82527
1112.268, 18.67571
1112.750, 18.60714
1113.232, 18.61940
1113.715, 18.82186
1114.197, 19.02671
1114.679, 18.93505
1115.161, 18.63735
1115.643, 18.49146
1116.125, 18.67621
1116.607, 18.78469
1117.089, 18.73118
1117.572, 18.67306
1118.054, 18.89771
1118.536, 19.23944
1119.018, 19.29755
1119.500, 19.04357
1119.982, 18.86213
1120.464, 18.91437
1120.946, 19.06446
1121.428, 19.33652
1121.911, 19.62069
1122.393, 19.55590
1122.875, 19.25358
1123.357, 19.28149
1123.839, 19.87709
1124.321, 20.28422
1124.803, 19.87339
1125.285, 19.28112
1125.767, 18.87032
1126.250, 18.65107
1126.732, 18.81775
1127.214, 19.35062
1127.696, 19.71229
1128.178, 19.56822
1128.660, 19.37478
1129.142, 19.63459
1129.624, 19.43706
1130.107, 19.36847
1130.589, 19.43035
1131.071, 19.21830
1131.553, 19.38692
1132.035, 19.56485
1132.517, 19.44250
1132.999, 19.24344
1133.481, 19.25089
1133.964, 19.38650
1134.446, 19.46842
1134.928, 19.41884
1135.410, 19.41620
1135.892, 19.48633
1136.374, 19.55289
1136.856, 19.42847
1137.338, 19.30160
1137.820, 19.63799
1138.302, 20.34833
1138.785, 20.80634
1139.267, 20.61927
1139.749, 20.39903
1140.231, 20.23439
1140.713, 20.10420
1141.195, 19.96778
1141.677, 19.84056
1142.159, 19.75808
1142.642, 19.72473
1143.124, 19.74671
1143.606, 19.88961
1144.088, 20.00928
1144.570, 20.00596
1145.052, 19.97225
1145.534, 20.24565
1146.016, 20.74747
1146.499, 21.02398
1146.981, 20.93622
1147.463, 20.74891
1147.945, 20.51091
1148.427, 20.33531
1148.909, 20.32118
1149.391, 20.44238
1149.873, 20.46671
1150.355, 20.39935
1150.838, 20.34562
1151.320, 20.38414
1151.802, 20.37045
1152.284, 19.97404
1152.766, 19.60955
1153.248, 19.83684
1153.730, 20.78861
1154.212, 21.08142
1154.694, 20.66717
1155.177, 20.21782
1155.659, 20.08625
1156.141, 20.13023
1156.623, 20.36227
1157.105, 20.62856
1157.587, 20.62122
1158.069, 20.21531
1158.551, 19.86716
1159.034, 19.57684
1159.516, 19.37870
1159.998, 19.31546
1160.480, 19.34878
1160.962, 19.47637
1161.444, 19.66237
1161.926, 19.79139
1162.408, 19.83947
1162.891, 19.84250
1163.373, 19.78655
1163.855, 19.74124
1164.337, 19.84070
1164.819, 19.96998
1165.301, 19.91293
1165.783, 19.68483
1166.265, 19.49858
1166.747, 19.44481
1167.229, 19.35209
1167.712, 19.14853
1168.194, 18.97872
1168.676, 19.12737
1169.158, 19.44221
1169.640, 19.63467
1170.122, 19.67019
1170.604, 19.55206
1171.086, 18.98702
1171.569, 18.68731
1172.051, 18.94914
1172.533, 19.45156
1173.015, 19.55661
1173.497, 19.35484
1173.979, 19.03683
1174.461, 18.58814
1174.943, 18.37033
1175.426, 18.78092
1175.908, 19.15720
1176.390, 19.22078
1176.872, 19.06729
1177.354, 18.94657
1177.836, 18.88001
1178.318, 18.97307
1178.800, 19.33975
1179.282, 19.61350
1179.765, 19.67103
1180.247, 19.52354
1180.729, 19.07480
1181.211, 18.42957
1181.693, 18.20072
1182.175, 18.33825
1182.657, 18.58215
1183.139, 18.94013
1183.621, 19.18185
1184.104, 19.04377
1184.586, 18.87322
1185.068, 18.99843
1185.550, 19.39132
1186.032, 19.40098
1186.514, 19.07649
1186.996, 18.82286
1187.478, 18.89892
1187.961, 19.05886
1188.443, 19.26464
1188.925, 19.43745
1189.407, 19.48022
1189.889, 19.38794
1190.371, 19.32824
1190.853, 19.30328
1191.335, 19.29769
1191.818, 19.36258
1192.300, 19.37702
1192.782, 19.16733
1193.264, 18.91966
1193.746, 18.92632
1194.228, 19.19970
1194.710, 19.47112
1195.192, 19.72123
1195.674, 19.75349
1196.156, 19.09320
1196.639, 18.50454
1197.121, 18.60381
1197.603, 19.09400
1198.085, 19.33608
1198.567, 19.31701
1199.049, 19.37015
1199.531, 19.53011
1200.013, 19.75188
1200.496, 20.16041
1200.978, 20.46744
1201.460, 20.43202
1201.942, 20.13317
1202.424, 19.73939
1202.906, 19.23721
1203.388, 19.03828
1203.870, 19.22678
1204.353, 19.52167
1204.835, 19.78001
1205.317, 19.96478
1205.799, 20.03534
1206.281, 20.00219
1206.763, 19.83759
1207.245, 19.53182
1207.727, 19.41502
1208.209, 19.58602
1208.692, 19.78458
1209.174, 19.71952
1209.656, 19.63829
1210.138, 19.84714
1210.620, 19.72180
1211.102, 20.22608
1211.584, 19.74656
1212.066, 19.48044
1212.548, 19.64985
1213.031, 19.92810
1213.513, 20.10306
1213.995, 20.20926
1214.477, 20.27358
1214.959, 20.29965
1215.441, 20.28061
1215.923, 20.21635
1216.405, 20.08761
1216.888, 19.84698
1217.370, 19.67290
1217.852, 19.77247
1218.334, 19.97138
1218.816, 20.11853
1219.298, 20.21228
1219.780, 20.30333
1220.262, 20.39027
1220.745, 20.33856
1221.227, 20.01074
1221.709, 19.73016
1222.191, 19.91874
1222.673, 20.14730
1223.155, 19.93087
1223.637, 19.27650
1224.119, 19.00475
1224.601, 19.10141
1225.083, 19.37100
1225.566, 19.86645
1226.048, 20.24714
1226.530, 20.19006
1227.012, 19.95302
1227.494, 19.80288
1227.976, 19.74274
1228.458, 19.63915
1228.940, 19.49319
1229.423, 19.31678
1229.905, 18.97044
1230.387, 18.81414
1230.869, 19.26142
1231.351, 19.85998
1231.833, 20.19647
1232.315, 20.27186
1232.797, 20.17476
1233.280, 19.91939
1233.762, 19.62605
1234.244, 19.28367
1234.726, 19.01340
1235.208, 18.93190
1235.690, 18.91375
1236.172, 18.82673
1236.654, 18.67792
1237.136, 18.71113
1237.619, 18.89523
1238.101, 19.00496
1238.583, 18.87057
1239.065, 18.69561
1239.547, 18.47999
1240.029, 18.32733
1240.511, 18.38376
1240.993, 18.61179
1241.475, 18.73068
1241.958, 18.72683
1242.440, 18.55308
1242.922, 17.88663
1243.404, 17.45128
1243.886, 17.53492
1244.368, 17.81942
1244.850, 18.05028
1245.332, 18.22246
1245.815, 18.33075
1246.297, 18.36472
1246.779, 18.27592
1247.261, 17.90870
1247.743, 17.59096
1248.225, 17.32352
1248.707, 17.21772
1249.189, 17.57661
1249.672, 18.14275
1250.154, 18.06809
1250.636, 17.47822
1251.118, 17.05785
1251.600, 17.29276
1252.082, 17.38154
1252.564, 17.19472
1253.046, 16.91378
1253.528, 16.63879
1254.010, 16.44797
1254.493, 16.61038
1254.975, 17.02688
1255.457, 17.23508
1255.939, 16.92552
1256.421, 16.72170
1256.903, 16.68870
1257.385, 16.73290
1257.867, 16.79758
1258.350, 16.85979
1258.832, 16.90421
1259.314, 16.91835
1259.796, 16.84200
1260.278, 16.60287
1260.760, 16.48794
1261.242, 16.55087
1261.724, 16.60359
1262.207, 16.38277
1262.689, 16.12424
1263.171, 16.15867
1263.653, 16.38286
1264.135, 16.37770
1264.617, 16.05287
1265.099, 15.88021
1265.581, 15.91429
1266.063, 15.99392
1266.546, 15.97293
1267.028, 15.94551
1267.510, 16.01853
1267.992, 16.14008
1268.474, 16.19461
1268.956, 16.18756
1269.438, 15.95036
1269.920, 15.46150
1270.402, 15.15582
1270.885, 15.57728
1271.367, 16.05982
1271.849, 16.24114
1272.331, 16.18915
1272.813, 15.93510
1273.295, 15.50071
1273.777, 15.20893
1274.259, 15.08254
1274.742, 15.06306
1275.224, 15.20869
1275.706, 15.33808
1276.188, 15.37578
1276.670, 15.36903
1277.152, 15.38131
1277.634, 15.40647
1278.116, 15.42590
1278.599, 15.43582
1279.081, 15.41353
1279.563, 15.26736
1280.045, 15.21634
1280.527, 15.34896
1281.009, 15.50617
1281.491, 15.45961
1281.973, 15.29548
1282.455, 15.18762
1282.938, 15.14296
1283.420, 15.12505
1283.902, 15.11894
1284.384, 15.16378
1284.866, 15.28799
1285.348, 15.38560
1285.830, 15.33507
1286.312, 15.18913
1286.794, 14.99444
1287.277, 14.76408
1287.759, 14.52114
1288.241, 14.18759
1288.723, 14.17507
1289.205, 14.57037
1289.687, 14.96498
1290.169, 14.95563
1290.651, 14.82877
1291.134, 14.82857
1291.616, 14.92234
1292.098, 15.00953
1292.580, 15.10312
1293.062, 14.97747
1293.544, 14.61375
1294.026, 14.34507
1294.508, 14.52270
1294.990, 14.74534
1295.473, 14.79768
1295.955, 14.74195
1296.437, 14.61286
1296.919, 14.43111
1297.401, 14.39015
1297.883, 14.49161
1298.365, 14.61922
1298.847, 14.84312
1299.329, 14.88129
1299.812, 14.54529
1300.294, 14.19344
1300.776, 14.37075
1301.258, 14.82088
1301.740, 14.73947
1302.222, 14.23176
1302.704, 13.94437
1303.186, 14.29905
1303.669, 14.61263
1304.151, 14.84581
1304.633, 14.99811
##END=



