##NAMES=Fourmarierite
##RRUFFID=R100187
##IDEAL CHEMISTRY=Pb^2+^_1-x_O_3-2x_(U^6+^O_2_)_4_(OH)_4+2x_&#183;4H_2_O
##LOCALITY=Shinkolobwe mine, Kasolo, Katanga, Congo
##OWNER=RRUFF
##SOURCE=James Shigley
##DESCRIPTION=Orange-yellow blocky to tabular crystals
##STATUS=The identification of this mineral has been confirmed by single-crystal X-ray diffraction.
##URL=rruff.info/R100187
174.9236, 86.46621
175.4057, 85.99224
175.8878, 86.03873
176.3699, 86.58321
176.8520, 88.26990
177.3341, 90.46297
177.8163, 91.77283
178.2984, 90.53916
178.7805, 88.43874
179.2626, 88.35062
179.7447, 90.47401
180.2268, 92.72079
180.7090, 92.63435
181.1911, 90.86136
181.6732, 89.38130
182.1553, 89.47785
182.6374, 90.43962
183.1195, 90.59318
183.6017, 89.76074
184.0838, 88.93253
184.5659, 89.54602
185.0480, 91.30956
185.5301, 92.77788
186.0123, 92.92374
186.4944, 92.19955
186.9765, 92.09405
187.4586, 92.75845
187.9407, 93.65471
188.4228, 93.89570
188.9050, 93.55763
189.3871, 93.48011
189.8692, 94.03985
190.3513, 95.19698
190.8334, 97.06065
191.3155, 99.90628
191.7977, 102.7294
192.2798, 103.7667
192.7619, 103.0287
193.2440, 101.9481
193.7261, 101.2442
194.2082, 100.8773
194.6904, 100.2118
195.1725, 99.03543
195.6546, 97.89433
196.1367, 98.18624
196.6188, 100.0497
197.1009, 101.5251
197.5831, 101.1910
198.0652, 99.05593
198.5473, 97.83582
199.0294, 97.89727
199.5115, 98.62488
199.9937, 98.78262
200.4758, 98.31457
200.9579, 97.64062
201.4400, 96.91328
201.9221, 96.11457
202.4042, 95.42673
202.8864, 94.71422
203.3685, 94.25658
203.8506, 95.00069
204.3327, 97.28955
204.8148, 99.35674
205.2969, 100.2744
205.7791, 99.97726
206.2612, 98.91720
206.7433, 96.80492
207.2254, 94.18479
207.7075, 92.29161
208.1896, 90.98828
208.6718, 90.78918
209.1539, 92.49973
209.6360, 96.78454
210.1181, 99.38245
210.6002, 99.50871
211.0823, 98.12707
211.5645, 98.08643
212.0466, 99.95129
212.5287, 101.8280
213.0108, 102.5876
213.4929, 101.8714
213.9750, 101.5042
214.4572, 101.7107
214.9393, 102.2777
215.4214, 102.5760
215.9035, 102.5288
216.3856, 102.3688
216.8678, 102.1293
217.3499, 101.6144
217.8320, 101.7094
218.3141, 102.7875
218.7962, 104.4003
219.2783, 105.0949
219.7605, 104.5797
220.2426, 103.6611
220.7247, 102.5604
221.2068, 100.7834
221.6889, 100.3272
222.1710, 101.8172
222.6532, 104.5579
223.1353, 106.3406
223.6174, 106.9785
224.0995, 107.0086
224.5816, 106.5050
225.0637, 104.8129
225.5459, 104.3463
226.0280, 105.7791
226.5101, 108.3525
226.9922, 109.6085
227.4743, 108.8056
227.9564, 107.8741
228.4386, 107.7364
228.9207, 108.6286
229.4028, 109.8021
229.8849, 111.6003
230.3670, 113.5866
230.8492, 114.5332
231.3313, 114.0347
231.8134, 113.1012
232.2955, 112.0446
232.7776, 110.4276
233.2597, 109.8219
233.7419, 110.7606
234.2240, 112.5719
234.7061, 113.4400
235.1882, 112.9211
235.6703, 112.1455
236.1524, 111.5326
236.6346, 110.9830
237.1167, 110.8963
237.5988, 111.6427
238.0809, 112.7201
238.5630, 112.8865
239.0451, 111.5582
239.5273, 110.1891
240.0094, 109.3641
240.4915, 109.2481
240.9736, 109.2344
241.4557, 109.2749
241.9378, 109.4338
242.4200, 109.9257
242.9021, 111.2176
243.3842, 112.1163
243.8663, 112.0590
244.3484, 110.5724
244.8306, 109.5921
245.3127, 109.5111
245.7948, 109.7374
246.2769, 109.0358
246.7590, 106.5536
247.2411, 104.6119
247.7233, 104.1724
248.2054, 105.7712
248.6875, 106.8640
249.1696, 107.2522
249.6517, 107.2620
250.1338, 107.4376
250.6160, 107.9658
251.0981, 108.3195
251.5802, 108.2402
252.0623, 107.5643
252.5444, 107.3616
253.0265, 107.9950
253.5087, 108.8064
253.9908, 108.7480
254.4729, 107.2449
254.9550, 106.0465
255.4371, 105.7367
255.9192, 106.4543
256.4014, 106.9675
256.8835, 107.3139
257.3656, 107.4173
257.8477, 107.1519
258.3298, 106.3651
258.8120, 105.5484
259.2941, 104.8329
259.7762, 104.2277
260.2583, 103.4883
260.7404, 102.5241
261.2225, 101.5262
261.7047, 100.6425
262.1868, 99.81590
262.6689, 99.25925
263.1510, 99.10725
263.6331, 99.34367
264.1152, 99.34270
264.5974, 99.06239
265.0795, 98.60716
265.5616, 97.93520
266.0437, 96.74868
266.5258, 96.35574
267.0079, 97.29983
267.4901, 99.36597
267.9722, 100.5309
268.4543, 100.6335
268.9364, 100.1881
269.4185, 99.46898
269.9006, 98.32552
270.3828, 97.62286
270.8649, 97.70152
271.3470, 98.29874
271.8291, 97.94288
272.3112, 96.14988
272.7933, 94.65803
273.2755, 95.16830
273.7576, 98.15072
274.2397, 99.78079
274.7218, 99.26829
275.2039, 97.30215
275.6860, 95.88686
276.1682, 95.03152
276.6503, 94.64246
277.1324, 94.92674
277.6145, 95.98519
278.0966, 96.22836
278.5787, 95.21714
279.0609, 93.70862
279.5430, 93.49462
280.0251, 94.76418
280.5072, 96.19039
280.9893, 97.24385
281.4715, 97.91750
281.9536, 97.75772
282.4357, 96.51787
282.9178, 94.88045
283.3999, 93.91195
283.8820, 93.61770
284.3642, 93.85832
284.8463, 94.81070
285.3284, 96.39385
285.8105, 97.66987
286.2926, 98.65474
286.7747, 99.27827
287.2569, 99.38949
287.7390, 98.99673
288.2211, 98.35098
288.7032, 97.44175
289.1853, 96.34413
289.6674, 95.28930
290.1496, 94.23347
290.6317, 93.46578
291.1138, 93.42991
291.5959, 94.04472
292.0780, 94.75705
292.5602, 95.57400
293.0423, 96.30325
293.5244, 96.25809
294.0065, 95.40524
294.4886, 94.57150
294.9707, 94.65374
295.4529, 95.41323
295.9350, 95.98817
296.4171, 96.14382
296.8992, 96.00808
297.3813, 95.71437
297.8634, 95.28052
298.3456, 94.89330
298.8277, 94.72208
299.3098, 94.70376
299.7919, 94.70095
300.2740, 94.67568
300.7561, 94.67313
301.2383, 94.70110
301.7204, 94.78233
302.2025, 95.02177
302.6846, 95.77026
303.1667, 96.63880
303.6488, 96.96858
304.1310, 96.51883
304.6131, 95.95348
305.0952, 95.96841
305.5773, 96.40398
306.0594, 96.82737
306.5415, 96.96369
307.0237, 96.99637
307.5058, 97.15922
307.9879, 97.50061
308.4700, 97.77505
308.9521, 97.80840
309.4343, 97.64518
309.9164, 97.36876
310.3985, 96.58369
310.8806, 95.98969
311.3627, 96.29323
311.8448, 97.53614
312.3270, 98.75536
312.8091, 99.50240
313.2912, 99.86297
313.7733, 99.93836
314.2554, 99.32117
314.7375, 98.81086
315.2197, 98.91274
315.7018, 99.56458
316.1839, 100.2152
316.6660, 100.6749
317.1481, 100.9998
317.6302, 101.2328
318.1124, 101.4151
318.5945, 101.4732
319.0766, 101.0590
319.5587, 100.4236
320.0408, 100.4245
320.5229, 102.3716
321.0051, 104.2989
321.4872, 104.9631
321.9693, 103.0920
322.4514, 101.9806
322.9335, 103.2160
323.4156, 105.5850
323.8978, 106.7497
324.3799, 104.9167
324.8620, 103.0256
325.3441, 102.1289
325.8262, 102.5620
326.3083, 103.1910
326.7905, 104.0951
327.2726, 105.1004
327.7547, 105.9807
328.2368, 107.2406
328.7189, 107.8463
329.2010, 107.2939
329.6832, 105.4237
330.1653, 104.2267
330.6474, 103.8989
331.1295, 104.1043
331.6116, 104.6054
332.0938, 105.6981
332.5759, 106.6292
333.0580, 107.3727
333.5401, 107.9048
334.0222, 107.9413
334.5043, 107.1187
334.9865, 106.3017
335.4686, 106.0139
335.9507, 106.4161
336.4328, 106.9623
336.9149, 107.8196
337.3970, 108.7149
337.8792, 108.8688
338.3613, 108.1349
338.8434, 107.0870
339.3255, 105.7412
339.8076, 103.9298
340.2898, 103.2492
340.7719, 104.0259
341.2540, 105.3624
341.7361, 105.8017
342.2182, 105.2068
342.7003, 104.9749
343.1825, 105.7897
343.6646, 107.4460
344.1467, 108.5111
344.6288, 108.9469
345.1109, 109.0295
345.5930, 108.9764
346.0752, 108.7945
346.5573, 108.5047
347.0394, 107.9254
347.5215, 107.3982
348.0036, 107.8407
348.4857, 109.2318
348.9679, 110.7417
349.4500, 111.9772
349.9321, 112.8710
350.4142, 113.1157
350.8963, 112.4793
351.3784, 111.6725
351.8606, 111.6635
352.3427, 112.2972
352.8248, 113.0052
353.3069, 113.6568
353.7890, 114.1139
354.2711, 113.9987
354.7533, 113.1944
355.2354, 112.6291
355.7175, 113.2117
356.1996, 114.5710
356.6817, 116.0590
357.1638, 117.7101
357.6460, 119.1627
358.1281, 120.0186
358.6102, 120.3209
359.0923, 120.6796
359.5744, 121.4527
360.0565, 122.4387
360.5387, 123.4489
361.0208, 124.4980
361.5029, 125.4832
361.9850, 126.3965
362.4671, 127.2144
362.9492, 127.8478
363.4314, 128.2863
363.9135, 128.5183
364.3956, 128.4003
364.8777, 127.4635
365.3598, 127.2698
365.8419, 128.6118
366.3241, 130.7877
366.8062, 132.7411
367.2883, 134.7230
367.7704, 136.0851
368.2526, 136.4142
368.7347, 135.4468
369.2168, 134.9619
369.6989, 135.3346
370.1810, 135.9811
370.6631, 136.4183
371.1453, 136.3823
371.6274, 136.5460
372.1095, 137.1736
372.5916, 138.1336
373.0737, 138.5194
373.5558, 138.1422
374.0380, 137.4769
374.5201, 136.7757
375.0022, 136.0883
375.4843, 135.1861
375.9664, 133.9287
376.4485, 132.5699
376.9307, 131.6111
377.4128, 131.1285
377.8949, 130.7773
378.3770, 130.7212
378.8591, 130.8923
379.3412, 129.4323
379.8234, 125.9400
380.3055, 122.2745
380.7876, 120.9510
381.2697, 121.8040
381.7518, 122.0252
382.2339, 120.5748
382.7161, 118.2627
383.1982, 116.9981
383.6803, 116.7635
384.1624, 116.7434
384.6445, 116.2960
385.1266, 115.6077
385.6088, 115.1558
386.0909, 115.0438
386.5730, 115.0821
387.0551, 115.2849
387.5372, 115.5006
388.0193, 115.2895
388.5015, 114.0082
388.9836, 112.4026
389.4657, 111.1658
389.9478, 110.3308
390.4299, 109.9793
390.9120, 110.4644
391.3942, 111.3713
391.8763, 112.1895
392.3584, 113.1781
392.8405, 113.6191
393.3226, 112.6510
393.8047, 110.6344
394.2869, 109.2182
394.7690, 109.6359
395.2511, 110.4504
395.7332, 110.7766
396.2154, 110.3021
396.6975, 109.7031
397.1796, 108.9079
397.6617, 108.1049
398.1438, 107.6195
398.6259, 107.4268
399.1081, 107.6121
399.5902, 108.4228
400.0723, 110.0408
400.5544, 110.9932
401.0365, 110.9423
401.5186, 110.4726
402.0008, 110.0379
402.4829, 109.5805
402.9650, 109.2580
403.4471, 109.0987
403.9292, 109.0863
404.4113, 109.1238
404.8935, 109.1266
405.3756, 109.3700
405.8577, 110.2214
406.3398, 111.8728
406.8219, 112.5099
407.3040, 111.8157
407.7862, 110.6802
408.2683, 110.5027
408.7504, 111.3192
409.2325, 111.9376
409.7146, 111.8681
410.1967, 111.3167
410.6789, 110.9576
411.1610, 110.7977
411.6431, 110.6826
412.1252, 110.3094
412.6073, 109.8630
413.0894, 109.9732
413.5716, 110.9514
414.0537, 112.0965
414.5358, 112.4791
415.0179, 112.2822
415.5000, 112.1186
415.9821, 112.2867
416.4643, 112.6726
416.9464, 113.2405
417.4285, 113.9997
417.9106, 114.6599
418.3927, 114.9456
418.8748, 115.0536
419.3570, 115.2133
419.8391, 115.9831
420.3212, 116.3580
420.8033, 115.5701
421.2854, 113.9011
421.7675, 112.6608
422.2497, 112.5128
422.7318, 112.7028
423.2139, 112.7903
423.6960, 112.4310
424.1781, 112.6194
424.6602, 113.9446
425.1424, 115.7544
425.6245, 117.0950
426.1066, 117.9877
426.5887, 118.3456
427.0709, 117.9184
427.5530, 116.7063
428.0351, 116.0493
428.5172, 116.2686
428.9993, 116.5914
429.4814, 116.3541
429.9636, 115.2678
430.4457, 114.7663
430.9278, 115.0882
431.4099, 115.9351
431.8920, 116.8609
432.3741, 117.9631
432.8563, 118.4317
433.3384, 117.5408
433.8205, 115.5562
434.3026, 114.2878
434.7847, 113.7477
435.2668, 113.7477
435.7490, 114.4301
436.2311, 115.5631
436.7132, 116.3087
437.1953, 116.4529
437.6774, 116.1019
438.1595, 114.9692
438.6417, 113.3179
439.1238, 112.2380
439.6059, 112.8461
440.0880, 114.1251
440.5701, 115.1290
441.0522, 115.7940
441.5344, 115.9065
442.0165, 114.4755
442.4986, 112.6931
442.9807, 112.0302
443.4628, 114.7079
443.9449, 116.8953
444.4271, 116.6579
444.9092, 114.4215
445.3913, 112.6970
445.8734, 112.1447
446.3555, 112.2548
446.8376, 112.8279
447.3198, 114.0559
447.8019, 115.3519
448.2840, 116.9605
448.7661, 118.5099
449.2482, 119.4796
449.7303, 119.7612
450.2125, 119.6114
450.6946, 118.9248
451.1767, 117.7566
451.6588, 116.9389
452.1409, 116.4594
452.6230, 116.3420
453.1052, 116.6705
453.5873, 117.4763
454.0694, 118.3614
454.5515, 119.3055
455.0337, 120.2904
455.5158, 121.3640
455.9979, 122.5120
456.4800, 123.3807
456.9621, 123.7097
457.4442, 123.6954
457.9264, 123.8442
458.4085, 124.1460
458.8906, 124.3284
459.3727, 123.9529
459.8548, 123.3642
460.3369, 123.1174
460.8191, 123.3556
461.3012, 123.9000
461.7833, 124.8610
462.2654, 126.0160
462.7475, 126.8977
463.2296, 127.3196
463.7118, 127.4101
464.1939, 126.8863
464.6760, 125.7142
465.1581, 125.4327
465.6402, 127.1712
466.1223, 129.5789
466.6045, 131.6900
467.0866, 133.8214
467.5687, 135.0813
468.0508, 134.8560
468.5329, 133.7910
469.0150, 133.3306
469.4972, 133.8530
469.9793, 134.4126
470.4614, 134.7063
470.9435, 134.7173
471.4256, 134.8438
471.9077, 135.1614
472.3899, 135.4485
472.8720, 135.2919
473.3541, 134.5868
473.8362, 134.9226
474.3183, 136.9375
474.8004, 139.4387
475.2826, 139.6442
475.7647, 137.7366
476.2468, 136.3146
476.7289, 137.3277
477.2110, 139.6423
477.6931, 140.6552
478.1753, 140.3528
478.6574, 139.7432
479.1395, 139.2175
479.6216, 139.0364
480.1037, 139.7650
480.5858, 142.2619
481.0680, 144.3604
481.5501, 144.1234
482.0322, 142.4212
482.5143, 141.0637
482.9964, 140.8731
483.4786, 141.0928
483.9607, 141.6199
484.4428, 142.4961
484.9249, 142.7167
485.4070, 141.2737
485.8892, 139.6167
486.3713, 138.7900
486.8534, 139.5504
487.3355, 140.0410
487.8176, 140.0176
488.2997, 139.7656
488.7819, 139.9653
489.2640, 140.9366
489.7461, 141.6227
490.2282, 141.5881
490.7103, 140.8834
491.1924, 140.3608
491.6746, 139.9917
492.1567, 139.9001
492.6388, 140.5508
493.1209, 141.7803
493.6030, 141.9978
494.0851, 140.8231
494.5673, 139.0592
495.0494, 137.5392
495.5315, 136.3400
496.0136, 135.7946
496.4957, 137.0059
496.9778, 138.3804
497.4600, 137.6570
497.9421, 135.0783
498.4242, 133.0680
498.9063, 133.8471
499.3884, 135.3824
499.8705, 135.8601
500.3527, 134.5534
500.8348, 133.0999
501.3169, 132.0621
501.7990, 131.2473
502.2811, 130.3772
502.7632, 128.7674
503.2454, 127.7995
503.7275, 128.2786
504.2096, 129.9879
504.6917, 130.5170
505.1738, 129.3510
505.6559, 127.7086
506.1381, 126.1499
506.6202, 124.6218
507.1023, 123.4514
507.5844, 122.7668
508.0665, 122.2145
508.5486, 121.2677
509.0308, 119.9096
509.5129, 118.7224
509.9950, 117.9239
510.4771, 117.3084
510.9592, 116.3574
511.4413, 115.1113
511.9235, 113.9403
512.4056, 113.1846
512.8877, 112.6115
513.3698, 111.8816
513.8519, 110.9683
514.3340, 109.9081
514.8162, 108.6519
515.2983, 107.2926
515.7804, 105.9177
516.2625, 104.1805
516.7446, 102.9086
517.2267, 102.9868
517.7089, 103.8034
518.1910, 103.8508
518.6731, 102.1897
519.1552, 100.2874
519.6373, 98.47914
520.1194, 96.69369
520.6016, 95.67728
521.0837, 95.87660
521.5658, 96.35548
522.0479, 96.35362
522.5300, 95.56526
523.0121, 95.52834
523.4943, 96.68727
523.9764, 98.18034
524.4585, 98.32853
524.9406, 97.10172
525.4227, 95.84352
525.9048, 95.01971
526.3870, 94.50591
526.8691, 94.03153
527.3513, 93.58819
527.8334, 93.08286
528.3155, 92.33192
528.7976, 91.51329
529.2797, 90.94308
529.7618, 90.70840
530.2440, 90.39385
530.7261, 89.44971
531.2082, 88.33279
531.6903, 87.64471
532.1724, 88.07541
532.6545, 88.43062
533.1367, 88.10997
533.6188, 87.36197
534.1009, 87.06773
534.5830, 87.92136
535.0651, 88.71291
535.5472, 89.13108
536.0294, 89.20972
536.5115, 88.58309
536.9936, 86.74367
537.4757, 84.90871
537.9578, 84.16917
538.4399, 84.69149
538.9221, 85.24911
539.4042, 85.76931
539.8863, 86.19416
540.3684, 86.47784
540.8505, 86.60836
541.3326, 86.43881
541.8148, 85.87437
542.2969, 84.99808
542.7790, 83.53172
543.2611, 81.63899
543.7432, 80.55321
544.2253, 81.92119
544.7075, 84.08858
545.1896, 85.40809
545.6717, 85.61899
546.1538, 85.18608
546.6359, 83.70425
547.1180, 81.96178
547.6002, 80.81591
548.0823, 80.84275
548.5644, 81.04549
549.0465, 81.39809
549.5286, 81.80579
550.0107, 81.97739
550.4929, 81.65977
550.9750, 81.49180
551.4571, 81.74992
551.9392, 82.43826
552.4213, 82.91752
552.9034, 83.25417
553.3856, 83.18948
553.8677, 82.29270
554.3498, 80.65401
554.8319, 79.35726
555.3140, 78.51598
555.7961, 78.00829
556.2783, 77.83152
556.7604, 77.87892
557.2425, 77.83573
557.7246, 77.39125
558.2067, 77.01111
558.6888, 77.43062
559.1710, 78.36478
559.6531, 78.83591
560.1352, 77.72498
560.6173, 76.51391
561.0994, 76.22994
561.5815, 77.09743
562.0637, 77.60471
562.5458, 77.29604
563.0279, 76.62125
563.5100, 75.87456
563.9921, 74.62338
564.4742, 74.15085
564.9564, 75.00407
565.4385, 76.23984
565.9206, 76.10837
566.4027, 74.31583
566.8848, 72.59486
567.3669, 71.32581
567.8491, 70.54546
568.3312, 70.54166
568.8133, 71.29192
569.2954, 72.26633
569.7775, 73.45969
570.2596, 74.54674
570.7418, 74.67024
571.2239, 73.74931
571.7060, 72.98071
572.1881, 73.57936
572.6702, 74.68867
573.1523, 75.38220
573.6345, 75.39876
574.1166, 75.01574
574.5987, 73.75461
575.0808, 72.27689
575.5629, 71.66707
576.0450, 73.48786
576.5272, 74.63408
577.0093, 74.25414
577.4914, 72.61375
577.9735, 71.36524
578.4556, 70.40105
578.9377, 70.08186
579.4199, 70.96389
579.9020, 73.07810
580.3841, 73.76589
580.8662, 72.81644
581.3483, 71.57720
581.8304, 71.46892
582.3126, 72.20695
582.7947, 72.84256
583.2768, 73.24069
583.7589, 73.36915
584.2410, 73.22105
584.7231, 72.77492
585.2053, 71.98858
585.6874, 70.14778
586.1696, 68.60556
586.6517, 68.20824
587.1338, 68.77100
587.6159, 69.44743
588.0980, 70.12714
588.5801, 70.77563
589.0623, 71.42306
589.5444, 72.11340
590.0265, 72.50680
590.5086, 72.49676
590.9907, 72.32700
591.4728, 72.15233
591.9550, 71.95881
592.4371, 71.89296
592.9192, 72.00917
593.4013, 72.15840
593.8834, 71.96806
594.3655, 71.54062
594.8477, 71.57288
595.3298, 72.56441
595.8119, 73.77393
596.2940, 74.27418
596.7761, 74.14892
597.2582, 73.69564
597.7404, 72.53135
598.2225, 71.50835
598.7046, 71.47231
599.1867, 72.44744
599.6688, 72.96609
600.1509, 71.87166
600.6331, 70.70439
601.1152, 70.50300
601.5973, 71.89363
602.0794, 72.81870
602.5615, 73.09682
603.0436, 73.07487
603.5258, 73.13069
604.0079, 73.28956
604.4900, 73.34738
604.9721, 73.16661
605.4542, 73.02274
605.9363, 73.84812
606.4185, 75.46353
606.9006, 76.30244
607.3827, 75.00559
607.8648, 72.91264
608.3469, 72.00656
608.8290, 72.12411
609.3112, 72.39725
609.7933, 72.20525
610.2754, 72.04060
610.7575, 72.44581
611.2396, 73.59840
611.7217, 74.27195
612.2039, 73.71906
612.6860, 72.80468
613.1681, 72.13871
613.6502, 71.22702
614.1323, 71.57486
614.6144, 74.08009
615.0966, 77.06803
615.5787, 77.91898
616.0608, 76.23982
616.5429, 74.91991
617.0250, 74.74464
617.5071, 75.19218
617.9893, 75.07094
618.4714, 74.44912
618.9535, 73.86440
619.4356, 73.70778
619.9177, 73.67934
620.3998, 73.27198
620.8820, 72.54606
621.3641, 72.07584
621.8462, 72.07087
622.3283, 72.51762
622.8104, 73.58198
623.2925, 75.57560
623.7747, 77.00134
624.2568, 77.11620
624.7389, 76.84653
625.2210, 76.96217
625.7031, 77.80770
626.1852, 78.27052
626.6674, 78.22523
627.1495, 77.84512
627.6316, 77.25257
628.1137, 76.42104
628.5958, 76.07355
629.0779, 76.59575
629.5601, 77.51851
630.0422, 77.84734
630.5243, 77.71036
631.0064, 77.72441
631.4885, 78.63167
631.9706, 79.57810
632.4528, 79.63295
632.9349, 78.84574
633.4170, 78.09428
633.8991, 77.60036
634.3812, 77.38467
634.8633, 77.44383
635.3455, 77.75944
635.8276, 78.48106
636.3097, 80.21278
636.7918, 81.79012
637.2739, 81.98555
637.7560, 80.17519
638.2382, 79.64014
638.7203, 81.01134
639.2024, 83.02500
639.6845, 83.61056
640.1666, 82.96025
640.6487, 82.67223
641.1309, 83.40960
641.6130, 84.48335
642.0951, 85.00498
642.5772, 85.07719
643.0594, 84.96579
643.5415, 84.44801
644.0236, 84.09551
644.5057, 84.42276
644.9879, 85.34712
645.4700, 85.99441
645.9521, 86.00556
646.4342, 85.83718
646.9163, 85.59023
647.3984, 85.16948
647.8806, 85.36293
648.3627, 86.36437
648.8448, 87.62292
649.3269, 88.92467
649.8090, 90.26517
650.2911, 90.69444
650.7733, 90.04675
651.2554, 88.95577
651.7375, 87.52176
652.2196, 86.24871
652.7017, 86.55501
653.1838, 89.63841
653.6660, 92.81802
654.1481, 94.01625
654.6302, 93.86850
655.1123, 93.50769
655.5944, 92.44568
656.0765, 92.13133
656.5587, 93.76868
657.0408, 96.72996
657.5229, 98.01919
658.0050, 96.45861
658.4871, 95.20949
658.9692, 95.60157
659.4514, 97.41650
659.9335, 98.05315
660.4156, 97.36972
660.8977, 96.66541
661.3798, 96.97913
661.8619, 97.98030
662.3441, 98.77679
662.8262, 99.31213
663.3083, 99.87508
663.7904, 100.6216
664.2725, 101.5568
664.7546, 102.7896
665.2368, 104.6291
665.7189, 105.9817
666.2010, 106.3895
666.6831, 106.1799
667.1652, 105.6492
667.6473, 103.7907
668.1295, 103.4031
668.6116, 105.2877
669.0937, 108.2981
669.5758, 110.1506
670.0579, 110.7505
670.5400, 111.2056
671.0222, 111.8220
671.5043, 112.5086
671.9864, 112.9059
672.4685, 113.1377
672.9506, 113.8264
673.4327, 115.9338
673.9149, 118.1916
674.3970, 119.2896
674.8791, 119.3759
675.3612, 119.6663
675.8433, 120.3612
676.3254, 121.6317
676.8076, 123.8375
677.2897, 127.2555
677.7718, 129.7438
678.2539, 130.6620
678.7360, 131.5128
679.2181, 133.3779
679.7003, 136.3572
680.1824, 139.2937
680.6645, 142.2500
681.1466, 144.7110
681.6287, 145.4167
682.1108, 145.1771
682.5930, 146.3764
683.0751, 149.8072
683.5572, 153.6664
684.0393, 156.4522
684.5214, 158.7218
685.0035, 161.2915
685.4857, 164.9468
685.9678, 168.3162
686.4499, 170.4545
686.9320, 172.1262
687.4141, 175.1302
687.8962, 180.4897
688.3784, 185.1315
688.8605, 187.9373
689.3426, 189.7336
689.8247, 193.8008
690.3068, 200.2836
690.7889, 206.0703
691.2711, 208.8615
691.7532, 210.3205
692.2353, 214.0246
692.7174, 219.6006
693.1995, 224.9030
693.6816, 228.0067
694.1638, 230.7884
694.6459, 234.8539
695.1280, 240.3945
695.6101, 245.3419
696.0922, 248.6222
696.5743, 251.6460
697.0565, 255.2937
697.5386, 259.9491
698.0207, 263.6321
698.5028, 265.9375
698.9849, 268.1390
699.4670, 271.7100
699.9492, 276.4637
700.4313, 280.3958
700.9135, 283.1861
701.3956, 285.4711
701.8777, 288.1783
702.3598, 290.7761
702.8419, 292.3115
703.3240, 292.2473
703.8062, 291.6202
704.2883, 290.3114
704.7704, 288.9525
705.2525, 288.4916
705.7346, 290.7207
706.2167, 291.7307
706.6989, 290.8804
707.1810, 288.7176
707.6631, 286.4063
708.1452, 284.0260
708.6273, 281.2061
709.1094, 277.4553
709.5916, 273.5872
710.0737, 271.9335
710.5558, 272.0801
711.0379, 271.8009
711.5200, 269.3861
712.0021, 266.4060
712.4843, 264.1260
712.9664, 262.4772
713.4485, 260.9804
713.9306, 259.8167
714.4127, 258.4456
714.8948, 256.4730
715.3770, 253.8696
715.8591, 251.7101
716.3412, 250.1590
716.8233, 248.7351
717.3054, 247.1706
717.7875, 245.4661
718.2697, 244.1461
718.7518, 243.2654
719.2339, 241.8989
719.7160, 238.6630
720.1981, 234.6420
720.6802, 231.6611
721.1624, 230.0576
721.6445, 228.4378
722.1266, 225.7477
722.6087, 222.8350
723.0908, 220.5330
723.5729, 219.7674
724.0551, 217.9667
724.5372, 214.3213
725.0193, 210.2790
725.5014, 207.5093
725.9835, 206.3394
726.4656, 204.3171
726.9478, 200.9267
727.4299, 197.2618
727.9120, 195.2083
728.3941, 194.2092
728.8762, 192.4985
729.3583, 189.2301
729.8405, 185.8729
730.3226, 183.8510
730.8047, 182.5119
731.2868, 180.8441
731.7689, 177.9177
732.2510, 175.3336
732.7332, 173.9852
733.2153, 173.1071
733.6974, 170.9258
734.1795, 166.6390
734.6616, 163.3124
735.1437, 161.8988
735.6259, 161.7818
736.1080, 161.7757
736.5901, 161.7958
737.0722, 161.0856
737.5543, 158.8989
738.0364, 156.0851
738.5186, 153.1952
739.0007, 150.4527
739.4828, 148.5582
739.9649, 148.6630
740.4470, 148.8761
740.9291, 148.3483
741.4113, 147.0921
741.8934, 145.8787
742.3755, 144.8345
742.8576, 143.5755
743.3397, 141.6889
743.8218, 139.3637
744.3040, 138.3909
744.7861, 138.8118
745.2682, 139.2707
745.7503, 138.7675
746.2324, 137.7387
746.7145, 136.8637
747.1967, 136.1569
747.6788, 135.4818
748.1609, 134.7437
748.6430, 134.0259
749.1251, 133.3853
749.6072, 132.8430
750.0894, 132.3026
750.5715, 131.9096
751.0536, 131.3270
751.5357, 130.2127
752.0178, 128.4698
752.4999, 127.2502
752.9821, 126.5445
753.4642, 126.3825
753.9463, 127.2352
754.4284, 128.5530
754.9105, 129.2749
755.3926, 129.2696
755.8748, 128.6879
756.3569, 127.0250
756.8390, 125.1846
757.3211, 124.0084
757.8032, 124.0852
758.2853, 123.8082
758.7675, 122.7083
759.2496, 121.6043
759.7318, 121.4600
760.2139, 122.5346
760.6960, 122.3555
761.1781, 120.4150
761.6602, 118.3254
762.1423, 118.2788
762.6245, 119.5965
763.1066, 120.7253
763.5887, 121.4201
764.0708, 121.5462
764.5529, 120.3366
765.0350, 118.7751
765.5172, 118.0284
765.9993, 119.4458
766.4814, 120.2002
766.9635, 119.8585
767.4456, 119.0026
767.9277, 118.3930
768.4099, 118.0771
768.8920, 117.6201
769.3741, 116.9010
769.8562, 116.1403
770.3383, 115.7042
770.8204, 115.4830
771.3026, 115.1779
771.7847, 114.6726
772.2668, 114.1066
772.7489, 113.4140
773.2310, 112.7654
773.7131, 112.4350
774.1953, 112.9082
774.6774, 113.1689
775.1595, 113.2551
775.6416, 112.9923
776.1237, 111.8802
776.6058, 109.7644
777.0880, 107.9803
777.5701, 106.8803
778.0522, 106.2254
778.5343, 105.6217
779.0164, 105.1372
779.4985, 105.0147
779.9807, 106.1064
780.4628, 106.6626
780.9449, 104.7612
781.4270, 101.6450
781.9091, 99.86224
782.3912, 101.2139
782.8734, 102.3681
783.3555, 102.9667
783.8376, 103.0473
784.3197, 102.5001
784.8018, 101.2339
785.2839, 100.4707
785.7661, 100.8808
786.2482, 101.5724
786.7303, 100.8366
787.2124, 99.12118
787.6945, 97.68215
788.1766, 97.26472
788.6588, 97.11031
789.1409, 96.85291
789.6230, 96.54939
790.1051, 96.35929
790.5872, 96.21407
791.0693, 96.32952
791.5515, 96.86175
792.0336, 97.62447
792.5157, 98.06860
792.9978, 98.19357
793.4799, 98.16899
793.9620, 97.88740
794.4442, 97.69129
794.9263, 98.30459
795.4084, 99.43610
795.8905, 100.2804
796.3726, 100.6158
796.8547, 100.4422
797.3369, 99.24706
797.8190, 97.49593
798.3011, 96.77878
798.7832, 97.65044
799.2653, 98.43911
799.7474, 98.57510
800.2296, 98.48383
800.7117, 99.65945
801.1938, 101.9544
801.6759, 103.7632
802.1580, 104.3324
802.6401, 104.1695
803.1223, 103.3836
803.6044, 102.3084
804.0865, 101.8223
804.5686, 102.6453
805.0507, 103.6645
805.5328, 104.4158
806.0150, 105.1169
806.4971, 106.4899
806.9792, 108.8885
807.4613, 110.8032
807.9434, 111.7135
808.4255, 112.0038
808.9077, 112.5588
809.3898, 113.3037
809.8719, 113.8835
810.3540, 113.5845
810.8361, 113.6489
811.3182, 115.4149
811.8004, 118.2744
812.2825, 120.8247
812.7646, 123.0167
813.2467, 124.3976
813.7288, 124.2513
814.2109, 123.5125
814.6931, 124.8987
815.1752, 128.7364
815.6573, 131.7821
816.1394, 132.9780
816.6215, 133.1531
817.1037, 133.4053
817.5858, 133.7570
818.0679, 134.2763
818.5500, 135.2926
819.0322, 136.1547
819.5143, 136.2252
819.9964, 135.9502
820.4785, 136.3387
820.9606, 138.2449
821.4427, 139.2844
821.9249, 139.0079
822.4070, 137.7701
822.8891, 136.2488
823.3712, 134.4367
823.8533, 132.2690
824.3354, 129.7533
824.8176, 126.7846
825.2997, 122.9434
825.7818, 118.6466
826.2639, 114.6897
826.7460, 111.3882
827.2281, 108.3430
827.7103, 105.4888
828.1924, 102.7877
828.6745, 100.1719
829.1566, 97.69619
829.6387, 95.05594
830.1208, 92.03166
830.6030, 89.28706
831.0851, 88.43423
831.5672, 88.75112
832.0493, 88.15530
832.5314, 85.81010
833.0135, 83.21434
833.4957, 80.91176
833.9778, 79.17793
834.4599, 78.31179
834.9420, 79.85323
835.4241, 80.13670
835.9063, 78.76893
836.3884, 76.60901
836.8705, 74.29238
837.3526, 71.85750
837.8347, 71.03682
838.3168, 72.30706
838.7990, 73.69653
839.2811, 72.96010
839.7632, 71.12474
840.2453, 69.57049
840.7274, 68.58275
841.2095, 67.80074
841.6917, 67.43435
842.1738, 66.98134
842.6559, 65.96997
843.1380, 64.06420
843.6201, 62.81952
844.1022, 62.31150
844.5844, 62.20477
845.0665, 62.28983
845.5486, 62.51970
846.0307, 62.82914
846.5128, 63.21881
846.9949, 63.42540
847.4771, 63.57867
847.9592, 63.25954
848.4413, 61.76605
848.9234, 58.53348
849.4055, 57.13131
849.8876, 58.82020
850.3698, 60.45028
850.8519, 59.83870
851.3340, 57.24743
851.8161, 56.18544
852.2982, 56.64393
852.7803, 57.45367
853.2625, 58.32655
853.7446, 58.73100
854.2267, 57.61913
854.7088, 55.16145
855.1909, 53.58683
855.6730, 54.40845
856.1552, 55.47253
856.6373, 56.05355
857.1194, 56.17450
857.6015, 55.97073
858.0836, 55.39117
858.5657, 54.87362
859.0479, 54.75539
859.5300, 54.73596
860.0121, 54.05833
860.4942, 52.93703
860.9763, 52.13046
861.4584, 52.48621
861.9406, 52.78104
862.4227, 52.24453
862.9048, 51.17467
863.3869, 50.70497
863.8690, 51.18151
864.3511, 51.37780
864.8333, 50.94789
865.3154, 50.15599
865.7975, 49.30814
866.2796, 48.52532
866.7617, 48.42558
867.2438, 49.90198
867.7260, 50.97133
868.2081, 49.29426
868.6902, 46.46981
869.1723, 44.96907
869.6544, 46.57071
870.1365, 47.73674
870.6187, 48.16179
871.1008, 48.22308
871.5829, 48.51941
872.0650, 49.01566
872.5471, 48.86223
873.0292, 47.81307
873.5114, 46.71944
873.9935, 46.44025
874.4756, 46.64636
874.9577, 46.97764
875.4399, 47.46877
875.9220, 47.74316
876.4041, 47.42071
876.8862, 47.08922
877.3683, 47.19032
877.8505, 47.84027
878.3326, 48.08086
878.8147, 47.86831
879.2968, 47.56254
879.7789, 47.46620
880.2610, 47.48714
880.7432, 47.47940
881.2253, 47.43340
881.7074, 47.38687
882.1895, 47.41933
882.6716, 47.39846
883.1537, 47.12832
883.6359, 46.64380
884.1180, 46.77932
884.6001, 47.75648
885.0822, 48.41365
885.5643, 47.98162
886.0464, 46.96661
886.5286, 46.66055
887.0107, 46.89183
887.4928, 46.95182
887.9749, 46.13400
888.4570, 45.38709
888.9391, 45.48545
889.4213, 46.04837
889.9034, 45.74568
890.3855, 43.88063
890.8676, 42.83117
891.3497, 43.35548
891.8318, 44.52679
892.3140, 44.37512
892.7961, 43.29250
893.2782, 42.94521
893.7603, 44.26099
894.2424, 45.42643
894.7245, 44.69888
895.2067, 43.20974
895.6888, 42.34167
896.1709, 42.91187
896.6530, 43.12257
897.1351, 42.71481
897.6172, 42.35144
898.0994, 42.98124
898.5815, 44.39635
899.0636, 44.93403
899.5457, 44.39210
900.0278, 43.73956
900.5099, 43.95948
900.9921, 44.30980
901.4742, 43.96474
901.9563, 42.69268
902.4384, 41.91632
902.9205, 41.85327
903.4026, 42.24508
903.8848, 43.39120
904.3669, 45.01448
904.8490, 44.14929
905.3311, 40.92272
905.8132, 38.65358
906.2953, 40.42473
906.7775, 43.28941
907.2596, 44.53121
907.7417, 44.37525
908.2238, 43.78941
908.7059, 42.34332
909.1880, 41.36868
909.6702, 41.26435
910.1523, 41.71129
910.6344, 42.04462
911.1165, 42.26181
911.5986, 42.16721
912.0807, 41.56682
912.5629, 40.98875
913.0450, 41.27097
913.5271, 41.89261
914.0092, 42.06336
914.4913, 41.30104
914.9734, 40.52802
915.4556, 39.54930
915.9377, 38.92586
916.4198, 39.46752
916.9019, 41.30057
917.3840, 41.83891
917.8661, 40.82746
918.3483, 39.68779
918.8304, 39.90747
919.3125, 40.62441
919.7946, 40.67115
920.2767, 39.92266
920.7589, 39.47654
921.2410, 40.01717
921.7231, 40.56805
922.2052, 40.78711
922.6873, 40.68650
923.1694, 40.24806
923.6516, 39.45923
924.1337, 38.88276
924.6158, 38.70786
925.0979, 38.98446
925.5800, 40.31124
926.0621, 42.12881
926.5443, 43.05515
927.0264, 41.40082
927.5085, 40.35854
927.9906, 41.00605
928.4727, 42.28907
928.9548, 42.35070
929.4370, 41.14108
929.9191, 40.15341
930.4012, 39.62926
930.8833, 39.49083
931.3654, 39.93586
931.8475, 40.59447
932.3297, 40.94068
932.8118, 40.77467
933.2939, 40.64849
933.7761, 41.01927
934.2582, 41.12569
934.7403, 40.31767
935.2224, 38.54918
935.7045, 37.73048
936.1866, 37.87820
936.6688, 38.32874
937.1509, 38.75386
937.6330, 39.13263
938.1151, 39.53275
938.5972, 39.89770
939.0793, 39.93401
939.5615, 38.87886
940.0436, 38.35674
940.5257, 39.07409
941.0078, 40.41337
941.4899, 40.51437
941.9720, 39.43565
942.4542, 38.78398
942.9363, 39.16536
943.4184, 39.76235
943.9005, 39.68777
944.3826, 39.26468
944.8647, 38.93858
945.3469, 38.85286
945.8290, 38.79494
946.3111, 38.66283
946.7932, 38.65047
947.2753, 39.08856
947.7574, 39.93285
948.2396, 40.06266
948.7217, 39.43836
949.2038, 38.70597
949.6859, 38.50801
950.1680, 38.32573
950.6501, 37.37665
951.1323, 35.72689
951.6144, 35.22407
952.0965, 37.12169
952.5786, 38.31446
953.0607, 37.49864
953.5428, 35.57458
954.0250, 35.41885
954.5071, 36.74218
954.9892, 37.82017
955.4713, 37.75795
955.9534, 37.61322
956.4355, 38.46553
956.9177, 39.62399
957.3998, 40.06297
957.8819, 39.07541
958.3640, 38.49935
958.8461, 38.45773
959.3282, 38.65733
959.8104, 38.85146
960.2925, 39.02849
960.7746, 39.24304
961.2567, 39.49488
961.7388, 39.35023
962.2209, 37.81540
962.7031, 36.38879
963.1852, 36.25489
963.6673, 37.38269
964.1494, 38.33482
964.6315, 39.19239
965.1136, 39.50139
965.5958, 38.78122
966.0779, 37.74864
966.5600, 38.26809
967.0421, 39.71263
967.5242, 40.33509
968.0063, 38.57720
968.4885, 37.09656
968.9706, 37.17959
969.4527, 37.92394
969.9348, 38.20666
970.4169, 37.88726
970.8990, 37.84461
971.3812, 38.18406
971.8633, 38.49003
972.3454, 38.08331
972.8275, 37.50506
973.3096, 37.75847
973.7917, 38.91190
974.2739, 39.62046
974.7560, 38.58112
975.2381, 37.94850
975.7202, 38.89054
976.2023, 40.89711
976.6844, 41.21528
977.1666, 39.86901
977.6487, 38.62057
978.1308, 38.20833
978.6129, 38.18272
979.0950, 38.09566
979.5771, 38.06499
980.0593, 38.28194
980.5414, 39.39010
981.0235, 39.80880
981.5056, 39.11669
981.9877, 38.25520
982.4698, 38.44160
982.9520, 39.39848
983.4341, 39.03655
983.9162, 37.24543
984.3983, 35.94053
984.8804, 37.39773
985.3625, 39.10707
985.8447, 38.83305
986.3268, 36.65237
986.8089, 36.12333
987.2910, 38.06243
987.7731, 39.31776
988.2552, 38.57747
988.7374, 36.96598
989.2195, 36.94545
989.7016, 37.93708
990.1837, 38.37553
990.6658, 37.21598
991.1479, 36.46430
991.6301, 37.50641
992.1122, 38.99384
992.5944, 39.63051
993.0765, 39.28587
993.5586, 38.67402
994.0407, 37.76381
994.5228, 36.88882
995.0049, 36.08673
995.4871, 35.62540
995.9692, 36.10907
996.4513, 37.39053
996.9334, 38.35471
997.4155, 38.25198
997.8976, 38.30104
998.3798, 38.94381
998.8619, 39.80885
999.3440, 39.85610
999.8261, 39.19478
1000.308, 38.92242
1000.790, 39.44580
1001.272, 40.01549
1001.755, 40.13655
1002.237, 39.89780
1002.719, 39.27222
1003.201, 37.87684
1003.683, 37.54852
1004.165, 38.84985
1004.647, 39.79279
1005.129, 38.47652
1005.612, 35.92931
1006.094, 35.23069
1006.576, 36.09383
1007.058, 37.12863
1007.540, 37.74723
1008.022, 38.25441
1008.504, 38.91285
1008.986, 39.49617
1009.468, 39.59690
1009.951, 39.18373
1010.433, 38.40020
1010.915, 37.13898
1011.397, 36.08994
1011.879, 36.35550
1012.361, 37.11763
1012.843, 37.26804
1013.325, 36.53193
1013.807, 36.20385
1014.290, 36.73065
1014.772, 37.36961
1015.254, 37.93837
1015.736, 38.32633
1016.218, 37.88698
1016.700, 36.77224
1017.182, 35.85046
1017.664, 35.40588
1018.147, 35.40696
1018.629, 36.39062
1019.111, 37.58153
1019.593, 37.71535
1020.075, 36.18376
1020.557, 35.43610
1021.039, 35.70779
1021.521, 36.22994
1022.003, 36.29256
1022.486, 36.09298
1022.968, 35.88927
1023.450, 35.72289
1023.932, 35.80846
1024.414, 36.35931
1024.896, 37.06392
1025.378, 38.02766
1025.860, 38.96747
1026.343, 38.91692
1026.825, 37.95049
1027.307, 37.01086
1027.789, 36.23121
1028.271, 35.95087
1028.753, 37.10506
1029.235, 38.57964
1029.717, 39.08138
1030.199, 38.16706
1030.682, 37.19088
1031.164, 36.10121
1031.646, 35.06732
1032.128, 33.96618
1032.610, 33.06683
1033.092, 33.31887
1033.574, 34.44596
1034.056, 35.42519
1034.539, 35.86414
1035.021, 35.98704
1035.503, 35.64237
1035.985, 35.16240
1036.467, 34.84679
1036.949, 34.68276
1037.431, 35.61303
1037.913, 37.89676
1038.396, 39.61672
1038.878, 38.43894
1039.360, 36.34365
1039.842, 35.02476
1040.324, 34.66813
1040.806, 34.92901
1041.288, 36.11825
1041.770, 37.10596
1042.252, 37.60277
1042.734, 37.61668
1043.217, 36.86716
1043.699, 35.67122
1044.181, 34.90404
1044.663, 35.06900
1045.145, 35.10203
1045.627, 34.14884
1046.109, 33.27335
1046.591, 33.30221
1047.074, 34.26830
1047.556, 35.44065
1048.038, 36.83016
1048.520, 37.84665
1049.002, 37.96486
1049.484, 37.65191
1049.966, 37.17781
1050.448, 36.60154
1050.931, 36.04137
1051.413, 35.34093
1051.895, 35.05052
1052.377, 35.31219
1052.859, 35.79718
1053.341, 36.38084
1053.823, 36.81727
1054.305, 36.20454
1054.787, 34.43620
1055.270, 33.52896
1055.752, 35.44704
1056.234, 37.28167
1056.716, 37.78200
1057.198, 37.23573
1057.680, 36.63037
1058.162, 35.97393
1058.644, 35.36138
1059.126, 34.74027
1059.609, 34.38495
1060.091, 34.92811
1060.573, 35.66377
1061.055, 35.70199
1061.537, 34.68428
1062.019, 34.10247
1062.501, 33.98925
1062.983, 34.19533
1063.466, 34.82142
1063.948, 35.59397
1064.430, 36.08007
1064.912, 36.28532
1065.394, 36.22494
1065.876, 35.86622
1066.358, 35.22937
1066.840, 33.94661
1067.323, 32.83486
1067.805, 33.26009
1068.287, 34.91279
1068.769, 35.32847
1069.251, 34.31988
1069.733, 33.55532
1070.215, 34.60567
1070.697, 35.92693
1071.179, 36.66133
1071.661, 36.78999
1072.144, 36.11671
1072.626, 34.45744
1073.108, 33.23997
1073.590, 32.77792
1074.072, 33.07991
1074.554, 34.98547
1075.036, 37.26814
1075.518, 38.25013
1076.001, 37.39284
1076.483, 36.23036
1076.965, 34.55796
1077.447, 33.32179
1077.929, 33.09026
1078.411, 33.61122
1078.893, 34.27598
1079.375, 35.06855
1079.858, 35.95732
1080.340, 37.53626
1080.822, 38.35581
1081.304, 36.97533
1081.786, 35.30520
1082.268, 35.40302
1082.750, 37.32766
1083.232, 37.24377
1083.714, 35.08746
1084.197, 33.26804
1084.679, 34.00874
1085.161, 35.28732
1085.643, 35.52932
1086.125, 35.04156
1086.607, 35.04316
1087.089, 35.72611
1087.571, 36.35238
1088.054, 36.86156
1088.536, 37.11051
1089.018, 36.84820
1089.500, 36.25669
1089.982, 35.46613
1090.464, 34.48601
1090.946, 33.94394
1091.428, 34.16477
1091.911, 34.51033
1092.393, 34.85088
1092.875, 35.12423
1093.357, 35.23452
1093.839, 35.15194
1094.321, 34.68599
1094.803, 33.54499
1095.285, 32.79736
1095.767, 33.17455
1096.250, 33.95451
1096.732, 34.81889
1097.214, 35.72292
1097.696, 35.81670
1098.178, 35.11747
1098.660, 34.00008
1099.142, 31.94064
1099.624, 30.37911
1100.106, 30.90975
1100.589, 32.47233
1101.071, 33.36235
1101.553, 33.28930
1102.035, 33.26058
1102.517, 33.28896
1102.999, 33.41288
1103.481, 33.67171
1103.963, 34.03955
1104.446, 34.70278
1104.928, 35.48277
1105.410, 35.64846
1105.892, 34.55609
1106.374, 33.60271
1106.856, 32.84490
1107.338, 32.52536
1107.820, 33.47564
1108.302, 35.00240
1108.785, 35.22313
1109.267, 33.92688
1109.749, 32.96655
1110.231, 33.54482
1110.713, 34.12732
1111.195, 34.05441
1111.677, 33.64871
1112.159, 34.07726
1112.641, 35.10764
1113.124, 35.05162
1113.606, 33.11165
1114.088, 31.65351
1114.570, 32.82055
1115.052, 34.68147
1115.534, 35.84108
1116.016, 36.27894
1116.498, 35.91943
1116.981, 34.72257
1117.463, 33.91117
1117.945, 34.33906
1118.427, 34.86925
1118.909, 34.33278
1119.391, 33.19115
1119.873, 31.93510
1120.355, 29.93565
1120.838, 30.38507
1121.320, 33.99105
1121.802, 36.99395
1122.284, 35.73377
1122.766, 32.91723
1123.248, 32.83012
1123.730, 34.61158
1124.212, 35.87633
1124.694, 35.29960
1125.177, 35.17811
1125.659, 35.99757
1126.141, 36.66138
1126.623, 35.65169
1127.105, 33.65438
1127.587, 32.31244
1128.069, 31.72099
1128.551, 31.85197
1129.033, 33.91814
1129.516, 35.07827
1129.998, 34.09688
1130.480, 32.32869
1130.962, 32.16721
1131.444, 33.30736
1131.926, 34.26148
1132.408, 34.83334
1132.890, 34.94539
1133.373, 33.90166
1133.855, 33.04140
1134.337, 33.25654
1134.819, 34.21851
1135.301, 34.94896
1135.783, 35.43294
1136.265, 35.21118
1136.747, 33.92910
1137.229, 32.87879
1137.712, 33.82349
1138.194, 35.01619
1138.676, 34.56673
1139.158, 32.45961
1139.640, 31.45138
1140.122, 31.62531
1140.604, 32.02113
1141.086, 32.24525
1141.569, 32.52471
1142.051, 33.40197
1142.533, 34.36849
1143.015, 34.72085
1143.497, 34.21700
1143.979, 33.41911
1144.461, 32.12761
1144.943, 31.37501
1145.426, 32.28487
1145.908, 33.71703
1146.390, 33.71439
1146.872, 32.83229
1147.354, 32.23248
1147.836, 32.39470
1148.318, 32.65049
1148.800, 32.96331
1149.282, 33.40720
1149.765, 34.32240
1150.247, 35.30936
1150.729, 35.13137
1151.211, 34.12451
1151.693, 33.75071
1152.175, 35.81368
1152.657, 36.70817
1153.139, 35.38061
1153.621, 33.48731
1154.104, 33.17537
1154.586, 33.91601
1155.068, 33.72295
1155.550, 32.59177
1156.032, 31.98254
1156.514, 33.56227
1156.996, 34.54251
1157.478, 33.70471
1157.961, 32.15297
1158.443, 31.90393
1158.925, 32.74813
1159.407, 33.70199
1159.889, 34.64598
1160.371, 34.94490
1160.853, 33.54715
1161.335, 32.08086
1161.818, 31.22949
1162.300, 30.99167
1162.782, 31.68800
1163.264, 33.19474
1163.746, 34.02436
1164.228, 33.81844
1164.710, 33.14148
1165.192, 31.70446
1165.674, 30.57031
1166.156, 30.67402
1166.639, 31.80651
1167.121, 33.01973
1167.603, 34.30081
1168.085, 34.51307
1168.567, 32.88679
1169.049, 31.32009
1169.531, 31.59961
1170.013, 32.64420
1170.496, 33.48564
1170.978, 34.08092
1171.460, 34.35918
1171.942, 34.32721
1172.424, 33.82406
1172.906, 32.36156
1173.388, 31.13560
1173.870, 31.83059
1174.353, 33.25600
1174.835, 33.70147
1175.317, 32.77223
1175.799, 32.83007
1176.281, 34.04427
1176.763, 34.87794
1177.245, 34.07344
1177.727, 32.87504
1178.209, 32.80101
1178.692, 33.28935
1179.174, 33.32439
1179.656, 32.34521
1180.138, 32.26094
1180.620, 33.25549
1181.102, 34.19653
1181.584, 34.16270
1182.066, 33.69116
1182.548, 33.25100
1183.031, 32.94395
1183.513, 33.02651
1183.995, 33.81477
1184.477, 34.33084
1184.959, 34.51571
1185.441, 34.51727
1185.923, 34.46435
1186.405, 34.30988
1186.888, 33.89562
1187.370, 33.31217
1187.852, 32.88701
1188.334, 32.64593
1188.816, 32.69140
1189.298, 33.14148
1189.780, 33.51616
1190.262, 33.10564
1190.745, 32.42231
1191.227, 32.38094
1191.709, 32.86007
1192.191, 32.93806
1192.673, 32.18753
1193.155, 31.45040
1193.637, 30.73158
1194.119, 30.34583
1194.601, 30.81816
1195.084, 31.78965
1195.566, 32.91590
1196.048, 34.08883
1196.530, 34.55918
1197.012, 34.06553
1197.494, 33.01442
1197.976, 31.14524
1198.458, 29.54699
1198.941, 30.29568
1199.423, 32.14537
1199.905, 32.87072
1200.387, 32.26826
1200.869, 31.94779
1201.351, 32.48596
1201.833, 32.76718
1202.315, 32.44152
1202.797, 31.89939
1203.280, 31.82669
1203.762, 31.96204
1204.244, 31.72751
1204.726, 31.00445
1205.208, 30.82616
1205.690, 31.69438
1206.172, 32.42238
1206.654, 32.64015
1207.136, 32.57916
1207.619, 32.57101
1208.101, 32.60653
1208.583, 32.72097
1209.065, 32.96109
1209.547, 32.90344
1210.029, 32.30083
1210.511, 31.83560
1210.993, 31.78614
1211.476, 31.94290
1211.958, 31.96735
1212.440, 31.89744
1212.922, 31.81559
1213.404, 31.76144
1213.886, 31.50106
1214.368, 30.74040
1214.850, 30.44849
1215.333, 31.19025
1215.815, 32.38370
1216.297, 33.26420
1216.779, 33.72670
1217.261, 33.49575
1217.743, 32.27304
1218.225, 31.27673
1218.707, 30.56788
1219.189, 30.21918
1219.672, 30.39141
1220.154, 30.77673
1220.636, 30.61883
1221.118, 30.32051
1221.600, 30.75037
1222.082, 32.69986
1222.564, 33.21626
1223.046, 31.56736
1223.528, 30.36052
1224.011, 31.37265
1224.493, 33.11605
1224.975, 32.90712
1225.457, 31.63935
1225.939, 30.84347
1226.421, 30.92409
1226.903, 31.51283
1227.385, 32.83971
1227.868, 33.81515
1228.350, 33.59246
1228.832, 32.93840
1229.314, 33.14679
1229.796, 33.72016
1230.278, 33.77831
1230.760, 32.89656
1231.242, 32.16041
1231.724, 31.49836
1232.207, 31.32351
1232.689, 32.37584
1233.171, 33.52044
1233.653, 33.00718
1234.135, 31.66601
1234.617, 30.86615
1235.099, 30.74235
1235.581, 31.42660
1236.063, 33.07240
1236.546, 34.42694
1237.028, 34.55500
1237.510, 34.15388
1237.992, 33.93467
1238.474, 33.69927
1238.956, 33.01185
1239.438, 31.53702
1239.920, 31.20322
1240.403, 32.12379
1240.885, 32.67865
1241.367, 31.19342
1241.849, 29.56125
1242.331, 29.19962
1242.813, 29.90482
1243.295, 31.63848
1243.777, 34.98658
1244.260, 35.42387
1244.742, 32.95691
1245.224, 30.73136
1245.706, 31.07395
1246.188, 31.91080
1246.670, 32.03156
1247.152, 31.67291
1247.634, 31.09257
1248.116, 30.21952
1248.599, 30.16734
1249.081, 30.89197
1249.563, 31.67213
1250.045, 32.40991
1250.527, 32.69294
1251.009, 31.79538
1251.491, 30.69633
1251.973, 30.42872
1252.455, 30.95615
1252.938, 31.41586
1253.420, 31.81972
1253.902, 32.34391
1254.384, 33.71949
1254.866, 34.39383
1255.348, 33.18096
1255.830, 31.66890
1256.313, 31.32843
1256.795, 31.95717
1257.277, 32.37968
1257.759, 32.59167
1258.241, 32.64515
1258.723, 32.16162
1259.205, 32.15623
1259.687, 33.17447
1260.169, 34.13993
1260.651, 33.95962
1261.134, 32.99725
1261.616, 32.33905
1262.098, 31.94290
1262.580, 31.59426
1263.062, 31.11826
1263.544, 30.84890
1264.026, 30.82536
1264.508, 30.96614
1264.991, 31.39307
1265.473, 31.83430
1265.955, 31.59977
1266.437, 30.95363
1266.919, 30.60108
1267.401, 30.88821
1267.883, 31.17560
1268.365, 31.42535
1268.848, 31.79100
1269.330, 32.65995
1269.812, 33.49652
1270.294, 33.73671
1270.776, 33.38864
1271.258, 32.29252
1271.740, 29.70975
1272.222, 29.11917
1272.704, 30.78866
1273.187, 32.41668
1273.669, 32.06457
1274.151, 31.31532
1274.633, 31.69031
1275.115, 32.52078
1275.597, 32.66687
1276.079, 31.94515
1276.561, 31.72359
1277.043, 31.99768
1277.526, 32.38859
1278.008, 33.03846
1278.490, 33.30584
1278.972, 32.51423
1279.454, 31.34735
1279.936, 30.38535
1280.418, 29.65228
1280.900, 29.47256
1281.383, 29.83817
1281.865, 30.68408
1282.347, 32.61771
1282.829, 34.13128
1283.311, 34.65916
1283.793, 34.67339
1284.275, 34.37374
1284.757, 33.85070
1285.240, 33.68020
1285.722, 33.63226
1286.204, 32.92886
1286.686, 30.40688
1287.168, 28.78571
1287.650, 28.39681
1288.132, 28.77795
1288.614, 30.04563
1289.096, 31.56331
1289.578, 31.94651
1290.061, 31.58575
1290.543, 31.26498
1291.025, 31.14899
1291.507, 31.23180
1291.989, 31.63559
1292.471, 31.62787
1292.953, 30.35769
1293.435, 29.01270
1293.918, 29.14252
1294.400, 30.06079
1294.882, 30.85112
1295.364, 31.48783
1295.846, 31.47309
1296.328, 30.78624
1296.810, 30.73696
1297.292, 32.44162
1297.775, 34.07702
1298.257, 34.14415
1298.739, 33.52775
1299.221, 33.05847
1299.703, 32.72373
1300.185, 32.35047
1300.667, 31.97686
1301.149, 31.86235
1301.631, 32.24674
1302.114, 32.51762
1302.596, 32.51412
##END=



