##NAMES=Fourmarierite
##RRUFFID=R100187
##IDEAL CHEMISTRY=Pb^2+^_1-x_O_3-2x_(U^6+^O_2_)_4_(OH)_4+2x_&#183;4H_2_O
##LOCALITY=Shinkolobwe mine, Kasolo, Katanga, Congo
##OWNER=RRUFF
##SOURCE=James Shigley
##DESCRIPTION=Orange-yellow blocky to tabular crystals
##STATUS=The identification of this mineral has been confirmed by single-crystal X-ray diffraction.
##URL=rruff.info/R100187
161.4766, 110.7667
161.9587, 111.1212
162.4408, 111.6294
162.9229, 112.6440
163.4050, 113.6298
163.8871, 114.0177
164.3693, 113.6039
164.8514, 112.7067
165.3335, 112.0920
165.8156, 112.1225
166.2977, 111.9317
166.7798, 111.1877
167.2620, 110.2083
167.7441, 109.4517
168.2262, 109.1041
168.7083, 109.1278
169.1904, 109.4981
169.6725, 110.5387
170.1547, 111.2928
170.6368, 111.2903
171.1189, 110.6700
171.6010, 109.8466
172.0831, 108.8128
172.5652, 107.8594
173.0474, 107.5415
173.5295, 108.2183
174.0116, 108.8454
174.4937, 108.3903
174.9758, 106.8555
175.4579, 105.6799
175.9401, 105.7755
176.4222, 106.4359
176.9043, 106.9411
177.3864, 107.1714
177.8685, 107.2055
178.3506, 107.0370
178.8328, 106.5250
179.3149, 106.3315
179.7970, 107.1752
180.2791, 108.2037
180.7612, 108.6218
181.2433, 108.0943
181.7255, 107.0164
182.2076, 106.2156
182.6897, 105.7884
183.1718, 105.4919
183.6539, 105.3875
184.1360, 105.3154
184.6181, 105.0991
185.1003, 104.6469
185.5824, 104.0291
186.0645, 103.4869
186.5466, 102.8249
187.0287, 102.5180
187.5108, 103.0127
187.9930, 103.7894
188.4751, 104.1311
188.9572, 103.6093
189.4393, 102.4381
189.9214, 101.8236
190.4035, 102.1110
190.8857, 102.5706
191.3678, 103.3235
191.8499, 104.1422
192.3320, 104.6424
192.8141, 104.5652
193.2962, 103.9932
193.7784, 103.5538
194.2605, 103.4279
194.7426, 103.2120
195.2247, 102.6241
195.7068, 101.8061
196.1889, 101.1652
196.6711, 100.9625
197.1532, 101.1466
197.6353, 101.3461
198.1174, 101.6498
198.5995, 101.8884
199.0816, 101.9915
199.5638, 101.9575
200.0459, 101.7711
200.5280, 101.3681
201.0101, 100.8084
201.4922, 100.2968
201.9743, 99.75802
202.4565, 99.34926
202.9386, 99.24803
203.4207, 99.46086
203.9028, 99.73823
204.3849, 99.95446
204.8670, 100.1545
205.3492, 100.4315
205.8313, 100.9198
206.3134, 101.3385
206.7955, 101.2957
207.2776, 100.7149
207.7597, 100.0258
208.2419, 98.90960
208.7240, 97.97524
209.2061, 98.02381
209.6882, 99.54673
210.1703, 101.6725
210.6524, 102.8692
211.1346, 102.8170
211.6167, 102.6127
212.0988, 102.4814
212.5809, 102.4348
213.0630, 102.5087
213.5451, 102.7286
214.0273, 103.0287
214.5094, 103.2953
214.9915, 103.6712
215.4736, 103.7164
215.9557, 103.1826
216.4378, 102.4143
216.9200, 101.6453
217.4021, 100.9682
217.8842, 100.5286
218.3663, 100.8034
218.8484, 102.6239
219.3305, 103.9716
219.8127, 104.6073
220.2948, 104.7052
220.7769, 104.3306
221.2590, 103.5121
221.7411, 102.4745
222.2232, 101.8809
222.7054, 101.9980
223.1875, 102.3062
223.6696, 103.0917
224.1517, 103.9413
224.6338, 104.2633
225.1159, 103.7896
225.5980, 102.9054
226.0802, 102.7355
226.5623, 104.5881
227.0444, 105.6003
227.5265, 104.9470
228.0086, 103.5124
228.4907, 102.3378
228.9729, 101.8461
229.4550, 101.9582
229.9371, 102.5554
230.4192, 104.1921
230.9013, 105.4250
231.3834, 105.9403
231.8656, 105.9363
232.3477, 105.5842
232.8298, 104.8860
233.3119, 104.1203
233.7940, 103.9497
234.2761, 104.4965
234.7583, 105.1565
235.2404, 106.0685
235.7225, 106.9537
236.2046, 107.2141
236.6867, 106.5168
237.1688, 105.4687
237.6510, 105.2488
238.1331, 106.0035
238.6152, 106.4926
239.0973, 105.9905
239.5794, 104.9471
240.0615, 104.3751
240.5437, 104.6524
241.0258, 105.2494
241.5079, 105.3972
241.9900, 105.0949
242.4721, 104.9717
242.9542, 105.4497
243.4364, 106.3082
243.9185, 106.9954
244.4006, 107.4123
244.8827, 107.6106
245.3648, 107.6650
245.8469, 107.5826
246.3290, 107.3194
246.8112, 106.7027
247.2933, 105.8759
247.7754, 105.2727
248.2575, 105.0017
248.7396, 104.8848
249.2217, 104.7950
249.7039, 104.7308
250.1860, 104.6918
250.6681, 104.7345
251.1502, 104.8123
251.6323, 104.7491
252.1144, 104.5122
252.5966, 104.1621
253.0787, 103.6816
253.5608, 103.1299
254.0429, 102.6350
254.5250, 102.2824
255.0071, 102.0461
255.4893, 101.8216
255.9714, 101.5977
256.4535, 101.4099
256.9356, 101.3039
257.4177, 101.2344
257.8998, 101.1267
258.3820, 100.9359
258.8641, 100.6797
259.3462, 100.4277
259.8283, 100.2281
260.3104, 99.94490
260.7925, 99.46532
261.2747, 98.90740
261.7568, 98.44554
262.2389, 98.18739
262.7210, 98.03422
263.2031, 97.61198
263.6852, 96.40207
264.1674, 95.86454
264.6495, 96.91028
265.1316, 98.45804
265.6137, 99.25518
266.0958, 98.72745
266.5779, 97.50848
267.0601, 97.19626
267.5422, 98.68994
268.0243, 99.45666
268.5064, 98.56676
268.9885, 97.20768
269.4706, 96.48363
269.9528, 96.77291
270.4349, 97.56557
270.9170, 97.88447
271.3991, 97.45679
271.8812, 97.06468
272.3633, 96.39626
272.8455, 96.00163
273.3276, 96.66805
273.8097, 98.43442
274.2918, 100.2554
274.7739, 100.3649
275.2560, 97.39169
275.7382, 95.62805
276.2202, 95.55064
276.7024, 96.04688
277.1845, 96.58775
277.6666, 97.01067
278.1487, 97.27976
278.6308, 97.33501
279.1129, 97.10571
279.5951, 96.89865
280.0772, 96.56336
280.5593, 96.36790
281.0414, 96.61215
281.5235, 97.19112
282.0056, 97.65827
282.4878, 97.53395
282.9699, 96.67564
283.4520, 96.26797
283.9341, 96.54330
284.4162, 96.96748
284.8983, 97.39377
285.3805, 97.79450
285.8626, 98.19839
286.3447, 98.65522
286.8268, 99.15736
287.3089, 99.27321
287.7910, 98.62512
288.2732, 98.03095
288.7553, 97.92349
289.2374, 98.02946
289.7195, 97.72137
290.2016, 96.56037
290.6837, 94.80724
291.1659, 93.92255
291.6480, 94.49875
292.1301, 95.24731
292.6122, 96.26061
293.0943, 97.24956
293.5764, 97.75151
294.0586, 97.54136
294.5407, 96.91870
295.0228, 96.69509
295.5049, 97.36929
295.9870, 97.84929
296.4691, 98.04643
296.9513, 98.05335
297.4334, 97.92527
297.9155, 97.68751
298.3976, 97.41733
298.8797, 97.24955
299.3618, 97.29278
299.8440, 97.23344
300.3261, 96.85902
300.8082, 96.51627
301.2903, 96.50397
301.7724, 96.86929
302.2545, 97.44509
302.7367, 98.07861
303.2188, 98.85203
303.7009, 99.28488
304.1830, 99.38186
304.6651, 99.17724
305.1472, 98.42472
305.6294, 97.27945
306.1115, 96.38017
306.5936, 96.30338
307.0757, 97.10182
307.5578, 97.85249
308.0399, 98.99936
308.5221, 99.68520
309.0042, 99.16726
309.4863, 97.83863
309.9684, 96.75454
310.4505, 96.63150
310.9326, 97.29563
311.4148, 97.53480
311.8969, 97.05587
312.3790, 96.56552
312.8611, 96.24409
313.3432, 96.01865
313.8253, 95.71397
314.3075, 95.23675
314.7896, 94.73771
315.2717, 94.61422
315.7538, 95.12566
316.2359, 95.64376
316.7180, 96.29546
317.2001, 96.85447
317.6823, 97.05070
318.1644, 96.81027
318.6465, 96.27149
319.1286, 95.57801
319.6107, 94.40659
320.0928, 93.97255
320.5750, 95.04926
321.0571, 96.30608
321.5392, 96.61328
322.0213, 95.90981
322.5034, 95.02134
322.9855, 94.80828
323.4677, 95.42077
323.9498, 95.57527
324.4319, 95.13943
324.9140, 94.44920
325.3961, 93.27642
325.8782, 91.92522
326.3604, 91.23801
326.8425, 91.90491
327.3246, 93.76503
327.8067, 94.99277
328.2888, 95.59173
328.7709, 95.66800
329.2531, 94.83302
329.7352, 93.56111
330.2173, 92.59593
330.6994, 92.29406
331.1815, 92.47025
331.6636, 92.62734
332.1458, 92.67235
332.6279, 92.81833
333.1100, 93.28793
333.5921, 93.75404
334.0742, 93.80373
334.5563, 93.34853
335.0385, 92.75329
335.5206, 92.55933
336.0027, 92.96749
336.4848, 93.28687
336.9669, 93.60523
337.4490, 93.78176
337.9312, 93.68958
338.4133, 93.34730
338.8954, 92.85809
339.3775, 92.26382
339.8596, 91.51126
340.3417, 91.32935
340.8239, 92.11252
341.3060, 92.97005
341.7881, 93.68530
342.2702, 94.23159
342.7523, 94.60779
343.2344, 94.80702
343.7166, 94.84921
344.1987, 94.82813
344.6808, 94.73856
345.1629, 94.58081
345.6450, 94.14268
346.1271, 93.72319
346.6093, 93.69395
347.0914, 94.18130
347.5735, 94.96634
348.0556, 95.64689
348.5377, 96.27127
349.0198, 96.68445
349.5020, 96.90722
349.9841, 96.94211
350.4662, 96.69801
350.9483, 96.22145
351.4304, 95.72280
351.9125, 95.44013
352.3947, 95.41344
352.8768, 95.33973
353.3589, 95.15503
353.8410, 94.98735
354.3231, 94.84739
354.8052, 94.76022
355.2874, 94.77927
355.7695, 94.95927
356.2516, 95.25674
356.7337, 95.41869
357.2158, 95.26242
357.6979, 95.21952
358.1800, 95.44707
358.6621, 95.78617
359.1443, 96.09719
359.6264, 96.32693
360.1085, 96.43121
360.5906, 96.27036
361.0727, 95.63885
361.5548, 95.28822
362.0370, 95.84329
362.5191, 96.27274
363.0012, 95.75842
363.4833, 94.32866
363.9654, 92.79018
364.4475, 91.99275
364.9297, 91.98783
365.4118, 91.85545
365.8939, 91.50074
366.3760, 91.11227
366.8581, 90.71815
367.3402, 90.35061
367.8224, 90.08470
368.3045, 90.02715
368.7866, 90.05221
369.2687, 89.70455
369.7508, 88.68266
370.2329, 87.96993
370.7151, 88.18356
371.1972, 88.70641
371.6793, 88.98050
372.1614, 88.85022
372.6435, 88.40939
373.1256, 87.64673
373.6078, 86.52634
374.0899, 85.63444
374.5720, 85.27524
375.0541, 85.02982
375.5362, 84.58926
376.0183, 83.95617
376.5005, 83.29813
376.9826, 82.48051
377.4647, 81.68912
377.9468, 81.80736
378.4289, 83.41590
378.9110, 84.75395
379.3932, 84.12483
379.8753, 82.43004
380.3574, 81.41387
380.8395, 82.11204
381.3216, 83.26952
381.8037, 83.21451
382.2859, 81.92018
382.7680, 80.75007
383.2501, 80.31609
383.7322, 80.35480
384.2143, 80.36535
384.6964, 80.29103
385.1786, 80.36059
385.6607, 80.88945
386.1428, 81.66665
386.6249, 82.09267
387.1070, 81.96346
387.5891, 81.63944
388.0713, 81.57191
388.5534, 81.73272
389.0355, 81.72601
389.5176, 81.23425
389.9997, 80.68668
390.4818, 80.54078
390.9640, 80.80591
391.4461, 81.20078
391.9282, 81.61298
392.4103, 81.98240
392.8924, 82.05122
393.3745, 81.21221
393.8567, 80.75794
394.3388, 81.55312
394.8209, 83.05074
395.3030, 84.19603
395.7851, 84.60236
396.2672, 84.51574
396.7494, 84.33236
397.2315, 83.92561
397.7136, 83.73955
398.1957, 83.82544
398.6778, 84.11552
399.1599, 84.69117
399.6420, 85.48278
400.1241, 86.14945
400.6063, 86.37089
401.0884, 86.13354
401.5705, 85.93365
402.0526, 85.75208
402.5347, 85.62340
403.0168, 85.56892
403.4990, 85.57315
403.9811, 85.60407
404.4632, 85.64561
404.9453, 85.72456
405.4274, 85.93098
405.9095, 86.53801
406.3917, 86.79044
406.8738, 86.37194
407.3559, 85.84440
407.8380, 85.64260
408.3201, 85.78979
408.8022, 85.97802
409.2844, 85.85985
409.7665, 85.40036
410.2486, 85.20463
410.7307, 85.53003
411.2128, 85.85307
411.6949, 85.95034
412.1771, 85.95634
412.6592, 86.13811
413.1413, 86.66560
413.6234, 87.30791
414.1055, 87.50244
414.5876, 87.04121
415.0698, 86.77001
415.5519, 87.05132
416.0340, 87.48518
416.5161, 87.88769
416.9982, 88.21542
417.4803, 88.34973
417.9625, 88.09135
418.4446, 87.50771
418.9267, 87.06770
419.4088, 86.87047
419.8909, 86.70104
420.3730, 86.45628
420.8552, 86.13792
421.3373, 85.71877
421.8194, 85.01005
422.3015, 84.38204
422.7836, 84.31804
423.2657, 84.81383
423.7479, 85.51963
424.2300, 86.47395
424.7121, 87.40388
425.1942, 87.91659
425.6763, 87.97670
426.1584, 87.83384
426.6406, 87.43668
427.1227, 86.95021
427.6048, 86.68550
428.0869, 86.70406
428.5690, 86.77505
429.0511, 86.61925
429.5333, 86.25991
430.0154, 86.31813
430.4975, 87.24730
430.9796, 88.17008
431.4617, 88.63565
431.9438, 88.70017
432.4260, 88.54000
432.9081, 88.22944
433.3902, 87.77283
433.8723, 87.15733
434.3544, 86.00200
434.8365, 85.34268
435.3187, 85.44186
435.8008, 85.89651
436.2829, 86.55424
436.7650, 87.29201
437.2471, 87.79128
437.7292, 87.69756
438.2114, 86.98631
438.6935, 86.65107
439.1756, 87.24019
439.6577, 87.59849
440.1398, 87.21152
440.6219, 86.51967
441.1040, 86.11453
441.5862, 86.24626
442.0683, 86.74064
442.5504, 87.39668
443.0325, 88.46738
443.5146, 88.92155
443.9967, 87.93193
444.4789, 86.92277
444.9610, 86.62287
445.4431, 86.99073
445.9252, 87.60120
446.4073, 88.18931
446.8894, 88.77357
447.3716, 89.47258
447.8537, 90.41003
448.3358, 91.14807
448.8179, 91.48672
449.3000, 91.52984
449.7821, 91.30819
450.2643, 90.78050
450.7464, 90.21281
451.2285, 89.81493
451.7106, 89.56951
452.1927, 89.38265
452.6748, 89.18839
453.1570, 89.14839
453.6391, 89.50274
454.1212, 90.17687
454.6033, 90.89795
455.0854, 91.84483
455.5675, 92.63124
456.0497, 92.81879
456.5318, 92.47864
457.0139, 92.06692
457.4960, 91.79350
457.9781, 91.62260
458.4602, 91.44759
458.9424, 91.17227
459.4245, 91.08400
459.9066, 91.46739
460.3887, 91.93161
460.8708, 92.03362
461.3529, 91.73283
461.8351, 91.33526
462.3172, 91.12947
462.7993, 91.12540
463.2814, 91.03728
463.7635, 90.75249
464.2456, 90.51841
464.7278, 90.20484
465.2099, 90.04192
465.6920, 90.50921
466.1741, 91.76572
466.6562, 93.16521
467.1383, 93.54053
467.6205, 92.49166
468.1026, 91.66738
468.5847, 91.28464
469.0668, 90.99071
469.5489, 90.60108
470.0310, 90.16795
470.5132, 89.88157
470.9953, 89.91825
471.4774, 90.12238
471.9595, 90.06275
472.4416, 89.65783
472.9237, 89.29703
473.4059, 89.24010
473.8880, 89.21409
474.3701, 88.83371
474.8522, 88.03517
475.3343, 87.55037
475.8164, 88.42245
476.2986, 89.90896
476.7807, 89.92751
477.2628, 87.99920
477.7449, 85.95181
478.2270, 85.18782
478.7091, 85.46505
479.1913, 85.62972
479.6734, 85.68841
480.1555, 85.55367
480.6376, 85.01979
481.1197, 84.27548
481.6018, 83.73950
482.0839, 83.55598
482.5660, 83.51675
483.0482, 83.34311
483.5303, 83.01385
484.0124, 82.59495
484.4945, 81.91403
484.9766, 81.31113
485.4587, 81.07897
485.9409, 81.07159
486.4230, 80.90142
486.9051, 80.33796
487.3872, 79.54312
487.8693, 79.00817
488.3514, 78.95487
488.8336, 78.73682
489.3157, 78.19207
489.7978, 77.58643
490.2799, 77.05539
490.7620, 76.62946
491.2441, 76.33786
491.7263, 76.34688
492.2084, 76.50332
492.6905, 75.99732
493.1726, 74.58570
493.6547, 73.10046
494.1368, 71.56775
494.6190, 70.29662
495.1011, 69.79712
495.5832, 70.25979
496.0653, 70.67933
496.5474, 70.07690
497.0295, 68.82101
497.5117, 68.13939
497.9938, 68.34878
498.4759, 68.54024
498.9580, 67.79715
499.4401, 66.34161
499.9222, 65.40727
500.4044, 65.51704
500.8865, 65.69680
501.3686, 65.35803
501.8507, 64.73527
502.3328, 64.34659
502.8149, 64.37617
503.2971, 64.54289
503.7792, 64.44320
504.2613, 63.97551
504.7434, 63.59283
505.2255, 63.40744
505.7076, 63.18801
506.1898, 62.92218
506.6719, 62.52653
507.1540, 61.75048
507.6361, 60.43208
508.1182, 58.98299
508.6003, 58.45380
509.0825, 59.29346
509.5646, 59.84748
510.0467, 59.84916
510.5288, 59.61770
511.0109, 59.23103
511.4930, 58.74469
511.9752, 58.27750
512.4573, 57.92568
512.9394, 57.62768
513.4215, 57.27345
513.9036, 56.88017
514.3857, 56.28270
514.8679, 55.11367
515.3500, 53.93744
515.8321, 53.61120
516.3142, 54.27441
516.7963, 54.64750
517.2784, 53.90880
517.7606, 52.68299
518.2427, 51.80489
518.7248, 51.34882
519.2069, 51.07190
519.6890, 50.81591
520.1711, 50.60685
520.6533, 50.59175
521.1354, 50.76537
521.6175, 51.10231
522.0996, 52.00144
522.5817, 52.83118
523.0638, 52.79802
523.5460, 51.87283
524.0281, 50.76574
524.5102, 50.16101
524.9923, 50.04449
525.4744, 49.86055
525.9565, 49.55671
526.4387, 49.25275
526.9208, 48.94959
527.4029, 48.66923
527.8850, 48.49868
528.3671, 48.44387
528.8492, 48.27393
529.3314, 47.51396
529.8135, 46.28322
530.2956, 45.89045
530.7777, 46.86118
531.2598, 47.73170
531.7419, 47.13144
532.2241, 45.92607
532.7062, 45.63223
533.1883, 47.05279
533.6704, 48.34350
534.1525, 48.07422
534.6346, 46.75388
535.1168, 45.44073
535.5989, 44.33680
536.0810, 43.67144
536.5631, 43.81145
537.0452, 44.80601
537.5273, 45.30965
538.0095, 44.87174
538.4916, 44.49424
538.9737, 44.70377
539.4558, 45.15449
539.9379, 45.33906
540.4200, 45.08853
540.9022, 44.52892
541.3843, 43.71524
541.8664, 42.46621
542.3485, 42.00026
542.8306, 43.17597
543.3127, 44.23305
543.7948, 44.75820
544.2769, 44.77008
544.7590, 44.20948
545.2411, 42.98276
545.7233, 41.69624
546.2054, 41.14220
546.6875, 41.27795
547.1696, 41.52997
547.6517, 41.87873
548.1339, 42.20034
548.6160, 42.34791
549.0981, 42.37936
549.5802, 42.45779
550.0623, 42.66482
550.5444, 42.87071
551.0266, 43.10023
551.5087, 43.25732
551.9908, 43.07249
552.4729, 42.45507
552.9550, 41.65774
553.4371, 40.96526
553.9193, 40.36054
554.4014, 39.97864
554.8835, 39.92240
555.3656, 39.94031
555.8477, 39.99827
556.3298, 40.05328
556.8120, 40.06803
557.2941, 40.02646
557.7762, 39.90635
558.2583, 39.58897
558.7404, 39.00840
559.2225, 38.81543
559.7047, 39.31875
560.1868, 39.83929
560.6689, 40.19498
561.1510, 40.32262
561.6331, 40.02821
562.1152, 39.07141
562.5974, 38.19854
563.0795, 38.41961
563.5616, 39.34473
564.0437, 39.43483
564.5258, 38.25286
565.0079, 36.80312
565.4901, 35.86926
565.9722, 35.49318
566.4543, 35.60394
566.9364, 36.79016
567.4185, 37.78711
567.9006, 37.98442
568.3828, 37.74908
568.8649, 37.55308
569.3470, 37.54123
569.8291, 37.69146
570.3112, 38.01753
570.7933, 38.54284
571.2755, 38.84178
571.7576, 38.80657
572.2397, 38.66506
572.7218, 38.29414
573.2039, 37.93776
573.6860, 38.01245
574.1682, 38.59966
574.6503, 39.00286
575.1324, 38.29264
575.6145, 36.78491
576.0966, 35.89045
576.5787, 35.74652
577.0609, 36.04457
577.5430, 36.95632
578.0251, 38.06989
578.5072, 38.35012
578.9893, 37.27187
579.4714, 36.49994
579.9536, 37.00408
580.4357, 37.98706
580.9178, 38.58228
581.3999, 38.64256
581.8820, 38.21293
582.3641, 37.23919
582.8463, 35.87738
583.3284, 35.02612
583.8105, 34.88017
584.2926, 35.00114
584.7747, 35.68789
585.2568, 36.36365
585.7390, 36.43776
586.2211, 36.01328
586.7032, 35.78298
587.1853, 36.37042
587.6674, 37.41114
588.1495, 37.85569
588.6317, 37.60579
589.1138, 37.37811
589.5959, 37.47641
590.0780, 37.62220
590.5601, 37.41953
591.0422, 36.87563
591.5244, 36.51817
592.0065, 36.46658
592.4886, 36.70198
592.9707, 37.51172
593.4528, 38.63717
593.9349, 39.19813
594.4171, 38.77562
594.8992, 37.81791
595.3813, 37.06715
595.8634, 36.46595
596.3455, 36.26894
596.8276, 36.94610
597.3098, 37.47627
597.7919, 37.13888
598.2740, 36.43633
598.7561, 36.33319
599.2382, 37.24658
599.7203, 38.41176
600.2025, 38.72801
600.6846, 38.22393
601.1667, 37.93377
601.6488, 38.02543
602.1309, 38.20879
602.6130, 38.30641
603.0952, 38.35263
603.5773, 38.42677
604.0594, 38.62681
604.5415, 38.69029
605.0236, 38.35653
605.5057, 37.85006
605.9879, 37.50062
606.4700, 37.36478
606.9521, 37.36573
607.4342, 37.45842
607.9163, 37.62617
608.3984, 37.74541
608.8806, 37.81614
609.3627, 37.83113
609.8448, 37.79110
610.3269, 37.69585
610.8090, 37.32578
611.2911, 36.83758
611.7733, 36.88591
612.2554, 38.22422
612.7375, 40.13462
613.2196, 40.82587
613.7017, 40.17999
614.1838, 39.60127
614.6660, 39.57900
615.1481, 39.70750
615.6302, 39.37047
616.1123, 38.61272
616.5944, 38.31836
617.0765, 39.35471
617.5587, 40.26049
618.0408, 39.68355
618.5229, 38.26578
619.0050, 37.43560
619.4871, 37.69330
619.9692, 38.61985
620.4514, 39.75317
620.9335, 41.20061
621.4156, 42.05924
621.8977, 41.77348
622.3798, 41.53541
622.8619, 41.75364
623.3441, 42.12675
623.8262, 42.34325
624.3083, 42.32313
624.7904, 42.06272
625.2725, 41.19499
625.7546, 40.12168
626.2367, 40.19169
626.7188, 41.58539
627.2009, 42.75222
627.6830, 42.76159
628.1652, 42.14048
628.6473, 42.14103
629.1294, 42.97954
629.6115, 43.61634
630.0936, 43.89959
630.5757, 43.93425
631.0579, 43.67016
631.5400, 43.22677
632.0221, 42.79936
632.5042, 42.47929
632.9863, 42.40388
633.4684, 42.99836
633.9506, 44.53709
634.4327, 45.35209
634.9148, 44.71267
635.3969, 44.15326
635.8790, 44.67828
636.3611, 45.72280
636.8433, 46.22949
637.3254, 45.74119
637.8075, 45.30928
638.2896, 45.90777
638.7717, 47.03254
639.2538, 47.76058
639.7360, 47.95723
640.2181, 47.74424
640.7002, 47.07309
641.1823, 46.17599
641.6644, 46.00261
642.1465, 47.44927
642.6287, 48.39879
643.1108, 48.52850
643.5929, 48.41313
644.0750, 48.29628
644.5571, 48.27380
645.0392, 48.45777
645.5214, 48.92437
646.0035, 49.57752
646.4856, 50.43093
646.9677, 51.48142
647.4498, 51.82865
647.9319, 51.04446
648.4141, 50.07617
648.8962, 49.47586
649.3783, 49.31432
649.8604, 49.91757
650.3425, 52.12923
650.8246, 53.99475
651.3068, 54.63833
651.7889, 54.56520
652.2710, 54.05586
652.7531, 53.35637
653.2352, 53.27134
653.7173, 54.56234
654.1995, 56.74704
654.6816, 57.71087
655.1637, 56.80572
655.6458, 56.22421
656.1279, 56.69199
656.6100, 57.25843
657.0922, 57.12020
657.5743, 56.57943
658.0564, 56.76862
658.5385, 58.63898
659.0206, 60.68263
659.5027, 61.30778
659.9849, 60.95022
660.4670, 60.74649
660.9491, 60.94586
661.4312, 61.67582
661.9133, 63.21062
662.3954, 65.44901
662.8776, 66.90685
663.3597, 67.19926
663.8418, 67.19164
664.3239, 66.43787
664.8060, 65.80911
665.2881, 66.07588
665.7703, 67.17544
666.2524, 68.52882
666.7345, 69.86819
667.2166, 71.11367
667.6987, 72.11800
668.1808, 72.88505
668.6630, 73.52973
669.1451, 74.02127
669.6272, 74.52706
670.1093, 75.23783
670.5914, 76.13228
671.0735, 76.89504
671.5557, 77.10659
672.0378, 77.69172
672.5199, 79.33202
673.0020, 81.26553
673.4841, 82.61456
673.9662, 83.31914
674.4484, 83.90403
674.9305, 84.73740
675.4126, 85.82355
675.8947, 87.29604
676.3768, 89.33757
676.8589, 90.94139
677.3411, 91.71366
677.8232, 92.20543
678.3053, 92.71851
678.7874, 93.30876
679.2695, 94.20173
679.7516, 95.72506
680.2338, 97.21427
680.7159, 98.26660
681.1980, 99.03556
681.6801, 99.73090
682.1622, 100.4039
682.6443, 101.0667
683.1265, 101.7046
683.6086, 102.3710
684.0907, 103.3910
684.5728, 105.1129
685.0549, 106.4181
685.5370, 106.3194
686.0192, 106.5012
686.5013, 108.4303
686.9834, 111.4640
687.4655, 113.6280
687.9476, 113.7928
688.4297, 113.5653
688.9119, 114.5515
689.3940, 116.1974
689.8761, 117.0460
690.3582, 116.8698
690.8403, 116.8997
691.3224, 118.2750
691.8046, 120.4894
692.2867, 121.0848
692.7688, 118.2290
693.2509, 116.7048
693.7330, 117.6945
694.2151, 119.0681
694.6973, 119.5689
695.1794, 119.4126
695.6615, 119.4091
696.1436, 119.9674
696.6257, 120.5787
697.1078, 120.6230
697.5900, 120.2496
698.0721, 120.0222
698.5542, 120.0364
699.0363, 119.9369
699.5184, 119.4695
700.0005, 118.7138
700.4827, 117.9399
700.9648, 116.7623
701.4469, 116.2251
701.9290, 117.1120
702.4111, 117.9176
702.8932, 117.5842
703.3754, 116.5027
703.8575, 115.6438
704.3396, 115.4330
704.8217, 115.2594
705.3038, 114.1529
705.7859, 112.3982
706.2681, 111.4915
706.7502, 111.6769
707.2323, 111.8176
707.7144, 111.2178
708.1965, 110.2250
708.6786, 109.6885
709.1607, 109.8994
709.6428, 109.6888
710.1249, 108.5698
710.6071, 107.4154
711.0892, 106.6900
711.5713, 106.2855
712.0534, 106.0966
712.5355, 106.0540
713.0176, 105.7557
713.4998, 104.4778
713.9819, 102.4847
714.4640, 101.3005
714.9461, 101.0911
715.4282, 100.7414
715.9103, 99.65479
716.3925, 98.33906
716.8746, 97.63625
717.3567, 97.62949
717.8388, 97.43050
718.3209, 96.76219
718.8030, 96.11048
719.2852, 96.01353
719.7673, 95.93339
720.2494, 94.84734
720.7315, 92.69741
721.2136, 90.77855
721.6957, 90.46247
722.1779, 91.23091
722.6600, 91.13780
723.1421, 90.05664
723.6242, 89.25708
724.1063, 89.29279
724.5884, 89.43301
725.0706, 88.83247
725.5527, 87.54790
726.0348, 86.43070
726.5169, 85.59892
726.9990, 84.84472
727.4811, 84.16903
727.9633, 83.49052
728.4454, 82.76163
728.9275, 81.95682
729.4096, 80.96505
729.8917, 79.60825
730.3738, 78.28799
730.8560, 78.08919
731.3381, 79.05954
731.8202, 79.42524
732.3023, 78.77016
732.7844, 77.79076
733.2665, 76.91528
733.7487, 76.12585
734.2308, 75.30827
734.7129, 74.16008
735.1950, 73.55930
735.6771, 74.24754
736.1592, 75.07124
736.6414, 75.22305
737.1235, 74.72941
737.6056, 73.80784
738.0877, 72.53770
738.5698, 71.23686
739.0519, 70.25974
739.5341, 69.61736
740.0162, 69.53347
740.4983, 70.17834
740.9804, 70.60782
741.4625, 70.22703
741.9446, 69.47535
742.4268, 69.17925
742.9089, 69.42152
743.3910, 69.62827
743.8731, 69.88923
744.3552, 69.95788
744.8373, 69.66053
745.3195, 69.12126
745.8016, 68.49433
746.2837, 67.82883
746.7658, 67.10306
747.2479, 66.18893
747.7300, 65.26170
748.2122, 64.84637
748.6943, 64.94886
749.1764, 65.23219
749.6585, 65.68450
750.1406, 66.07657
750.6227, 66.20397
751.1049, 66.06158
751.5870, 65.64865
752.0691, 64.50385
752.5512, 63.73291
753.0333, 63.87268
753.5154, 64.19176
753.9976, 64.06034
754.4797, 63.53902
754.9618, 63.10308
755.4439, 63.07111
755.9260, 62.94096
756.4081, 61.57832
756.8903, 59.48292
757.3724, 59.00314
757.8545, 60.50686
758.3366, 62.14466
758.8187, 62.86381
759.3008, 62.83797
759.7830, 62.46602
760.2651, 61.48890
760.7472, 60.77668
761.2293, 60.60135
761.7114, 60.37210
762.1935, 59.62565
762.6757, 58.78650
763.1578, 58.51745
763.6399, 58.94693
764.1220, 59.39309
764.6041, 59.29190
765.0862, 59.46733
765.5684, 58.94605
766.0505, 59.16392
766.5326, 59.07872
767.0147, 58.51376
767.4968, 57.68768
767.9789, 56.76097
768.4611, 55.75870
768.9432, 55.45436
769.4253, 56.39447
769.9074, 57.09752
770.3895, 57.24853
770.8716, 57.18158
771.3538, 57.18755
771.8359, 57.16341
772.3180, 56.70563
772.8001, 55.43585
773.2822, 54.22042
773.7643, 53.59724
774.2465, 53.42533
774.7286, 53.78487
775.2107, 54.47317
775.6928, 54.55217
776.1749, 53.44563
776.6570, 51.93217
777.1392, 51.62858
777.6213, 52.75751
778.1034, 53.46438
778.5855, 53.57765
779.0676, 53.57161
779.5497, 53.61561
780.0319, 53.67111
780.5140, 53.78154
780.9961, 53.97677
781.4782, 53.74415
781.9603, 52.32671
782.4424, 51.12358
782.9246, 51.28391
783.4067, 52.01878
783.8888, 52.09266
784.3709, 51.33139
784.8530, 50.45444
785.3351, 49.98342
785.8173, 49.87394
786.2994, 50.11266
786.7815, 50.69950
787.2636, 51.20573
787.7457, 51.57190
788.2278, 51.78219
788.7100, 51.78090
789.1921, 51.62102
789.6742, 51.50378
790.1563, 51.34557
790.6384, 51.38083
791.1205, 51.93037
791.6026, 52.36674
792.0847, 52.14708
792.5668, 51.63977
793.0490, 51.51511
793.5311, 51.96472
794.0132, 52.51012
794.4953, 52.66456
794.9774, 52.70201
795.4595, 53.18826
795.9417, 54.04878
796.4238, 54.79549
796.9059, 55.27484
797.3880, 55.51461
797.8701, 55.48326
798.3522, 55.21855
798.8344, 55.34151
799.3165, 55.95218
799.7986, 56.75727
800.2807, 57.94210
800.7628, 59.10001
801.2449, 60.03105
801.7271, 60.73370
802.2092, 61.17906
802.6913, 61.21006
803.1734, 61.36131
803.6555, 62.23167
804.1376, 63.12547
804.6198, 62.94189
805.1019, 62.10238
805.5840, 62.10094
806.0661, 63.56673
806.5482, 65.39096
807.0303, 66.16146
807.5125, 65.94617
807.9946, 65.10982
808.4767, 63.39886
808.9588, 62.55836
809.4409, 63.51382
809.9230, 65.02428
810.4052, 65.85456
810.8873, 65.98270
811.3694, 65.44090
811.8515, 63.50794
812.3336, 61.89873
812.8157, 61.13354
813.2979, 60.66788
813.7800, 60.08150
814.2621, 59.41792
814.7442, 58.97100
815.2263, 58.91626
815.7084, 58.83870
816.1906, 58.39892
816.6727, 57.62568
817.1548, 56.38448
817.6369, 54.77716
818.1190, 53.60115
818.6011, 53.25352
819.0833, 53.03940
819.5654, 51.87111
820.0475, 49.69224
820.5296, 48.12162
821.0117, 47.28649
821.4938, 46.78984
821.9760, 47.01859
822.4581, 47.12106
822.9402, 46.24760
823.4223, 44.59929
823.9044, 43.13293
824.3865, 41.89837
824.8687, 41.07415
825.3508, 41.03821
825.8329, 41.20511
826.3150, 41.09920
826.7971, 40.67652
827.2792, 39.92494
827.7614, 38.82967
828.2435, 37.80249
828.7256, 37.50871
829.2077, 37.70533
829.6898, 37.44474
830.1719, 36.70455
830.6541, 35.74477
831.1362, 34.54525
831.6183, 33.62369
832.1004, 33.72464
832.5825, 34.82472
833.0646, 35.20530
833.5468, 34.31130
834.0289, 33.54930
834.5110, 33.21011
834.9931, 32.93396
835.4752, 32.41411
835.9573, 31.78248
836.4395, 31.41595
836.9216, 31.49538
837.4037, 31.55760
837.8858, 31.25716
838.3679, 30.89569
838.8500, 30.80136
839.3322, 30.91544
839.8143, 31.03531
840.2964, 31.08995
840.7785, 31.16664
841.2606, 31.50368
841.7427, 31.88525
842.2249, 31.15354
842.7070, 29.23199
843.1891, 28.28177
843.6712, 29.13378
844.1533, 30.05728
844.6354, 29.43546
845.1176, 27.67147
845.5997, 26.75568
846.0818, 27.40629
846.5639, 27.78379
847.0460, 27.99801
847.5281, 27.83371
848.0103, 26.74595
848.4924, 25.40805
848.9745, 24.85001
849.4566, 25.27312
849.9387, 25.88716
850.4208, 26.63615
850.9030, 27.07692
851.3851, 26.47348
851.8672, 25.37371
852.3493, 24.92270
852.8314, 25.25755
853.3135, 25.55419
853.7957, 25.16483
854.2778, 24.41319
854.7599, 24.08532
855.2420, 24.16751
855.7241, 23.94949
856.2062, 23.28121
856.6884, 22.69357
857.1705, 22.48301
857.6526, 22.51859
858.1347, 22.60353
858.6168, 22.81879
859.0989, 22.70838
859.5811, 21.74997
860.0632, 21.14866
860.5453, 21.71256
861.0274, 22.33991
861.5095, 21.84103
861.9916, 20.43015
862.4738, 19.39199
862.9559, 19.26143
863.4380, 19.42138
863.9201, 19.55461
864.4022, 19.70546
864.8843, 20.02555
865.3665, 20.41503
865.8486, 20.52018
866.3307, 20.19960
866.8128, 19.75574
867.2949, 19.56186
867.7770, 19.56174
868.2592, 19.49591
868.7413, 19.36283
869.2234, 19.27987
869.7055, 19.27207
870.1876, 19.37309
870.6697, 19.67968
871.1519, 20.10376
871.6340, 20.11960
872.1161, 19.34838
872.5981, 18.89650
873.0803, 18.99300
873.5624, 19.22613
874.0445, 19.60748
874.5266, 19.94004
875.0087, 19.92355
875.4908, 19.50563
875.9730, 19.01751
876.4551, 18.34123
876.9372, 17.88183
877.4193, 18.09653
877.9014, 18.56664
878.3835, 18.70928
878.8657, 18.50131
879.3478, 18.31932
879.8299, 18.41209
880.3120, 18.52835
880.7941, 18.23922
881.2762, 18.14500
881.7584, 17.94323
882.2405, 17.47381
882.7226, 17.30433
883.2047, 16.66586
883.6868, 16.03241
884.1689, 16.12264
884.6511, 16.90062
885.1332, 17.12826
885.6153, 16.49276
886.0974, 16.19483
886.5795, 16.74592
887.0616, 17.33872
887.5438, 17.26716
888.0259, 16.76040
888.5080, 16.53900
888.9901, 16.83705
889.4722, 16.89678
889.9543, 16.32376
890.4365, 15.79872
890.9186, 15.72464
891.4007, 15.89425
891.8828, 16.01740
892.3649, 16.04820
892.8470, 16.11287
893.3292, 16.46058
893.8113, 16.64761
894.2934, 16.01035
894.7755, 15.01824
895.2576, 14.42259
895.7397, 14.32323
896.2219, 14.74867
896.7040, 15.73959
897.1861, 16.54338
897.6682, 15.55008
898.1503, 13.14923
898.6324, 12.74328
899.1146, 14.49434
899.5967, 15.98061
900.0788, 16.50960
900.5609, 16.36734
901.0430, 15.68514
901.5251, 14.60485
902.0073, 14.03141
902.4894, 14.24766
902.9715, 14.38751
903.4536, 14.39128
903.9357, 14.33243
904.4178, 14.05724
904.9000, 13.83216
905.3821, 14.23760
905.8642, 15.37729
906.3463, 15.79096
906.8284, 14.43798
907.3105, 13.11574
907.7927, 12.49864
908.2748, 12.43929
908.7569, 13.10411
909.2390, 14.15479
909.7211, 14.64259
910.2032, 14.05810
910.6854, 13.34508
911.1675, 13.48500
911.6496, 13.99314
912.1317, 14.04871
912.6138, 13.74363
913.0959, 13.55600
913.5781, 13.62614
914.0602, 13.75387
914.5423, 13.76415
915.0244, 13.67092
915.5065, 13.47505
915.9886, 13.17459
916.4708, 12.97311
916.9529, 12.86491
917.4350, 13.08303
917.9171, 13.92317
918.3992, 14.84655
918.8813, 14.79230
919.3635, 13.52004
919.8456, 13.16681
920.3277, 14.68182
920.8098, 15.55505
921.2919, 14.68106
921.7740, 13.50836
922.2562, 12.98347
922.7383, 12.97436
923.2204, 13.05342
923.7025, 13.21477
924.1846, 13.34984
924.6667, 13.39715
925.1489, 13.44689
925.6310, 13.71356
926.1131, 13.93049
926.5952, 13.61246
927.0773, 12.78524
927.5594, 12.10567
928.0416, 11.96064
928.5237, 12.06679
929.0058, 12.22176
929.4879, 12.42856
929.9700, 12.76404
930.4521, 13.16350
930.9343, 13.34375
931.4164, 13.19567
931.8985, 13.06516
932.3806, 13.52215
932.8627, 13.16242
933.3448, 14.04117
933.8270, 12.99947
934.3091, 12.44945
934.7912, 12.69528
935.2733, 13.12986
935.7554, 13.36000
936.2375, 13.39620
936.7197, 13.20582
937.2018, 12.69313
937.6839, 12.51924
938.1660, 12.78443
938.6481, 13.16011
939.1302, 13.73807
939.6124, 14.13563
940.0945, 13.83109
940.5766, 12.92446
941.0587, 12.35661
941.5408, 12.57655
942.0229, 12.43261
942.5051, 11.26064
942.9872, 10.38464
943.4693, 10.85610
943.9514, 11.80119
944.4335, 11.87891
944.9156, 10.96808
945.3978, 10.37766
945.8799, 10.80699
946.3620, 11.35512
946.8441, 11.45362
947.3262, 11.52604
947.8083, 12.21208
948.2905, 13.23379
948.7726, 13.75897
949.2547, 13.47769
949.7368, 12.99418
950.2189, 12.71769
950.7010, 12.60045
951.1832, 12.62718
951.6653, 12.74805
952.1474, 12.98120
952.6295, 13.24114
953.1116, 12.97394
953.5938, 11.74135
954.0759, 10.35955
954.5580, 10.39747
955.0400, 11.53660
955.5222, 12.03728
956.0043, 11.85300
956.4864, 11.61459
956.9685, 11.50336
957.4506, 11.67223
957.9327, 12.37501
958.4149, 13.35352
958.8970, 13.35844
959.3791, 12.08476
959.8612, 11.41307
960.3433, 11.65309
960.8254, 12.01881
961.3076, 12.17817
961.7897, 12.25258
962.2718, 12.45925
962.7539, 12.80789
963.2360, 12.77101
963.7181, 11.74002
964.2003, 11.26907
964.6824, 12.02289
965.1645, 12.79941
965.6466, 12.81766
966.1287, 12.49508
966.6108, 12.66253
967.0930, 13.47888
967.5751, 13.85943
968.0572, 13.23265
968.5393, 12.56249
969.0214, 12.11131
969.5035, 11.88094
969.9857, 11.91196
970.4678, 12.14964
970.9499, 12.53750
971.4320, 13.10550
971.9141, 13.43784
972.3962, 13.06536
972.8784, 12.57175
973.3605, 12.62794
973.8426, 12.83647
974.3247, 12.30505
974.8068, 11.17344
975.2889, 10.67250
975.7711, 11.60394
976.2532, 12.70931
976.7353, 12.31374
977.2174, 11.26359
977.6995, 11.26498
978.1816, 12.04663
978.6638, 12.30041
979.1459, 11.72393
979.6280, 11.18416
980.1101, 11.43248
980.5922, 11.98809
981.0743, 11.63521
981.5565, 10.61993
982.0386, 10.64403
982.5207, 11.79207
983.0028, 12.66656
983.4849, 12.72356
983.9670, 12.32518
984.4492, 11.81720
984.9313, 11.24129
985.4134, 10.73799
985.8955, 10.26499
986.3776, 10.24290
986.8597, 10.80725
987.3419, 11.49565
987.8240, 12.16432
988.3061, 12.69258
988.7882, 12.87649
989.2703, 12.71758
989.7524, 12.63080
990.2346, 12.61911
990.7167, 12.68347
991.1988, 12.95133
991.6809, 13.11378
992.1630, 12.93073
992.6451, 12.56642
993.1273, 12.25965
993.6094, 11.97663
994.0915, 12.00050
994.5736, 13.03651
995.0557, 13.40191
995.5378, 11.92915
996.0200, 10.51771
996.5021, 10.62457
996.9842, 11.65886
997.4663, 12.37244
997.9484, 12.56261
998.4305, 12.71613
998.9127, 13.08976
999.3948, 13.27800
999.8769, 13.09955
1000.359, 12.66083
1000.841, 11.82628
1001.323, 10.85790
1001.805, 10.40182
1002.287, 10.69982
1002.770, 11.08217
1003.252, 11.19973
1003.734, 11.28422
1004.216, 11.53725
1004.698, 11.84218
1005.180, 12.10396
1005.662, 12.26132
1006.144, 12.16514
1006.627, 11.71539
1007.109, 11.27038
1007.591, 11.07485
1008.073, 11.08647
1008.555, 11.46144
1009.037, 11.93062
1009.519, 11.88065
1010.001, 11.32400
1010.483, 10.87522
1010.966, 10.89741
1011.448, 11.08444
1011.930, 11.09229
1012.412, 10.99949
1012.894, 10.90070
1013.376, 10.84311
1013.858, 10.97795
1014.340, 11.32420
1014.823, 11.76765
1015.305, 12.25766
1015.787, 12.64011
1016.269, 12.60034
1016.751, 12.23922
1017.233, 11.80232
1017.715, 11.36597
1018.197, 11.54891
1018.679, 12.50379
1019.162, 13.26850
1019.644, 13.03421
1020.126, 12.17395
1020.608, 11.43628
1021.090, 10.83019
1021.572, 10.43889
1022.054, 10.26545
1022.536, 10.38690
1023.018, 10.86553
1023.501, 11.31810
1023.983, 11.39549
1024.465, 11.19722
1024.947, 11.00263
1025.429, 10.80205
1025.911, 10.69201
1026.393, 10.63141
1026.875, 11.00296
1027.358, 12.13692
1027.840, 13.08744
1028.322, 12.85238
1028.804, 11.74455
1029.286, 11.03086
1029.768, 10.73433
1030.250, 10.76795
1030.732, 11.26675
1031.214, 11.73416
1031.697, 12.06982
1032.179, 12.16191
1032.661, 11.78978
1033.143, 11.09705
1033.625, 10.84999
1034.107, 11.39505
1034.589, 11.48309
1035.071, 10.76013
1035.553, 10.19967
1036.036, 10.09264
1036.518, 10.35858
1037.000, 11.10729
1037.482, 12.19090
1037.964, 12.73428
1038.446, 12.34802
1038.928, 12.18681
1039.410, 12.64884
1039.893, 12.79388
1040.375, 11.83086
1040.857, 10.79128
1041.339, 10.83964
1041.821, 11.74632
1042.303, 12.27690
1042.785, 12.45676
1043.267, 12.17181
1043.750, 10.50884
1044.232, 9.511398
1044.714, 10.56128
1045.196, 12.09125
1045.678, 12.59498
1046.160, 12.20591
1046.642, 11.80224
1047.124, 11.40753
1047.606, 11.13156
1048.089, 11.00200
1048.571, 10.97906
1049.053, 11.21906
1049.535, 11.42313
1050.017, 11.18959
1050.499, 10.64976
1050.981, 10.37434
1051.463, 10.50787
1051.945, 10.76137
1052.428, 11.19132
1052.910, 11.58802
1053.392, 11.93074
1053.874, 12.13792
1054.356, 12.10310
1054.838, 11.86513
1055.320, 11.52314
1055.802, 10.98015
1056.285, 10.74409
1056.767, 11.50370
1057.249, 11.94594
1057.731, 10.82319
1058.213, 9.551752
1058.695, 9.818268
1059.177, 11.17899
1059.659, 11.95968
1060.141, 11.69072
1060.624, 11.23732
1061.106, 10.67990
1061.588, 10.27808
1062.070, 10.04773
1062.552, 10.12802
1063.034, 10.97425
1063.516, 12.19362
1063.998, 12.77389
1064.480, 12.43221
1064.963, 11.79067
1065.445, 10.53546
1065.927, 9.727031
1066.409, 10.33041
1066.891, 11.30437
1067.373, 11.63037
1067.855, 11.47239
1068.337, 11.51233
1068.820, 11.93549
1069.302, 12.08128
1069.784, 11.18727
1070.266, 10.54469
1070.748, 11.30047
1071.230, 12.20553
1071.712, 11.86489
1072.194, 10.82053
1072.677, 10.47042
1073.159, 11.10536
1073.641, 11.58088
1074.123, 11.09894
1074.605, 10.72076
1075.087, 11.10708
1075.569, 11.71960
1076.051, 12.27848
1076.533, 12.63004
1077.016, 12.54353
1077.498, 12.00390
1077.980, 11.34777
1078.462, 10.43699
1078.944, 9.843495
1079.426, 10.03171
1079.908, 10.46003
1080.390, 10.79865
1080.872, 11.01781
1081.354, 11.13164
1081.837, 11.14271
1082.319, 11.04082
1082.801, 10.73161
1083.283, 10.48640
1083.765, 10.29984
1084.247, 10.36109
1084.729, 11.20907
1085.211, 12.14609
1085.694, 12.15155
1086.176, 11.27084
1086.658, 10.35127
1087.140, 9.528676
1087.622, 9.099091
1088.104, 9.466494
1088.586, 9.946783
1089.068, 10.08347
1089.551, 10.10622
1090.033, 10.40578
1090.515, 10.86340
1090.997, 10.89692
1091.479, 10.18846
1091.961, 9.802264
1092.443, 10.57580
1092.925, 11.24084
1093.407, 10.91471
1093.890, 10.34645
1094.372, 10.20945
1094.854, 10.47438
1095.336, 11.03874
1095.818, 11.97258
1096.300, 12.26881
1096.782, 10.82739
1097.264, 9.722632
1097.746, 10.10737
1098.229, 10.82121
1098.711, 10.96657
1099.193, 10.74168
1099.675, 10.69795
1100.157, 10.91145
1100.639, 10.77007
1101.121, 9.217813
1101.603, 8.587209
1102.086, 10.47814
1102.568, 12.43592
1103.050, 12.96031
1103.532, 12.59075
1104.014, 12.00918
1104.496, 11.32076
1104.978, 10.82598
1105.460, 10.69923
1105.943, 10.56138
1106.425, 10.45432
1106.907, 10.20282
1107.389, 9.056035
1107.871, 8.230100
1108.353, 9.725507
1108.835, 12.81281
1109.317, 13.82745
1109.799, 11.15916
1110.281, 9.749356
1110.764, 11.03211
1111.246, 12.17505
1111.728, 12.20762
1112.210, 11.95511
1112.692, 12.21873
1113.174, 11.69390
1113.656, 12.33276
1114.138, 10.91423
1114.621, 10.07932
1115.103, 9.972877
1115.585, 10.24519
1116.067, 11.39308
1116.549, 12.15598
1117.031, 11.40913
1117.513, 10.14197
1117.995, 10.03859
1118.478, 11.11613
1118.960, 11.75972
1119.442, 11.85127
1119.924, 11.75115
1120.406, 11.29453
1120.888, 11.06594
1121.370, 11.42092
1121.852, 11.96773
1122.334, 12.33086
1122.817, 12.47259
1123.299, 12.07614
1123.781, 12.15285
1124.263, 12.19224
1124.745, 11.51591
1125.227, 12.02114
1125.709, 11.27433
1126.191, 10.36517
1126.673, 10.20770
1127.156, 9.890833
1127.638, 9.838923
1128.120, 10.11178
1128.602, 10.22934
1129.084, 10.90081
1129.566, 11.32040
1130.048, 11.31279
1130.530, 11.12403
1131.013, 10.85429
1131.495, 10.72795
1131.977, 11.20706
1132.459, 10.91742
1132.941, 10.68574
1133.423, 10.78907
1133.905, 10.05846
1134.387, 9.825713
1134.870, 9.914791
1135.352, 10.25628
1135.834, 10.72903
1136.316, 11.26213
1136.798, 11.72479
1137.280, 11.64938
1137.762, 11.29096
1138.244, 11.83985
1138.726, 13.03637
1139.208, 13.23719
1139.691, 12.18226
1140.173, 11.23479
1140.655, 11.25906
1141.137, 10.75531
1141.619, 11.36669
1142.101, 10.95847
1142.583, 11.40931
1143.065, 12.21181
1143.548, 11.96854
1144.030, 10.87184
1144.512, 10.40758
1144.994, 11.12129
1145.476, 11.94579
1145.958, 12.11291
1146.440, 11.88457
1146.922, 11.31411
1147.405, 10.66573
1147.887, 10.11470
1148.369, 9.817636
1148.851, 10.19697
1149.333, 11.17755
1149.815, 11.89340
1150.297, 11.97206
1150.779, 11.61622
1151.261, 10.36401
1151.744, 9.358586
1152.226, 9.680156
1152.708, 10.55427
1153.190, 11.18935
1153.672, 11.47527
1154.154, 11.37782
1154.636, 10.80003
1155.118, 10.47699
1155.600, 10.70702
1156.083, 11.11246
1156.565, 11.84000
1157.047, 12.41610
1157.529, 12.56745
1158.011, 12.32714
1158.493, 11.50087
1158.975, 10.11384
1159.457, 9.670271
1159.940, 11.28358
1160.422, 12.15811
1160.904, 11.60256
1161.386, 11.18972
1161.868, 11.63315
1162.350, 12.21651
1162.832, 12.29100
1163.314, 11.99596
1163.796, 11.75928
1164.279, 11.59727
1164.761, 11.37617
1165.243, 11.00463
1165.725, 10.92816
1166.207, 11.31254
1166.689, 11.73961
1167.171, 11.99450
1167.653, 12.07265
1168.135, 11.89493
1168.618, 11.57993
1169.100, 11.98525
1169.582, 13.09024
1170.064, 13.28033
1170.546, 12.44176
1171.028, 11.86656
1171.510, 11.98394
1171.992, 12.12303
1172.474, 11.71885
1172.957, 11.14657
1173.439, 11.10150
1173.921, 11.40167
1174.403, 11.51686
1174.885, 11.49371
1175.367, 11.55073
1175.849, 11.69201
1176.331, 11.76478
1176.814, 11.69942
1177.296, 11.46398
1177.778, 10.92887
1178.260, 10.34595
1178.742, 9.852169
1179.224, 9.607188
1179.706, 9.905258
1180.188, 10.59495
1180.671, 11.50740
1181.153, 12.48338
1181.635, 13.09592
1182.117, 13.19038
1182.599, 12.78107
1183.081, 11.10523
1183.563, 9.841607
1184.045, 10.56083
1184.527, 11.75496
1185.010, 11.89247
1185.492, 11.28288
1185.974, 10.87482
1186.456, 10.80155
1186.938, 10.88419
1187.420, 11.37386
1187.902, 11.59098
1188.384, 11.16032
1188.866, 10.76531
1189.349, 10.70406
1189.831, 10.81293
1190.313, 10.91886
1190.795, 11.05590
1191.277, 11.38979
1191.759, 12.01786
1192.241, 12.41223
1192.723, 12.56586
1193.206, 12.47585
1193.688, 12.08639
1194.170, 11.65935
1194.652, 11.33027
1195.134, 11.11434
1195.616, 11.06048
1196.098, 11.11264
1196.580, 10.99271
1197.063, 10.73108
1197.545, 10.70730
1198.027, 10.90130
1198.509, 10.69122
1198.991, 9.969531
1199.473, 9.772123
1199.955, 10.87278
1200.437, 12.32798
1200.919, 13.06919
1201.401, 13.22566
1201.884, 12.79090
1202.366, 12.06803
1202.848, 11.57586
1203.330, 11.35484
1203.812, 11.34930
1204.294, 11.50725
1204.776, 11.52273
1205.258, 10.96252
1205.741, 10.71647
1206.223, 11.97769
1206.705, 13.10385
1207.187, 12.29414
1207.669, 11.00348
1208.151, 11.38208
1208.633, 12.91646
1209.115, 13.30328
1209.598, 11.88164
1210.080, 10.96007
1210.562, 11.03853
1211.044, 11.41220
1211.526, 12.33633
1212.008, 13.03694
1212.490, 13.04727
1212.972, 12.76820
1213.454, 12.63453
1213.937, 12.62597
1214.419, 12.67459
1214.901, 12.84378
1215.383, 12.65120
1215.865, 11.95275
1216.347, 11.92628
1216.829, 12.96142
1217.311, 13.51472
1217.793, 12.62634
1218.276, 11.25451
1218.758, 10.56297
1219.240, 10.53309
1219.722, 11.45372
1220.204, 12.94514
1220.686, 13.60811
1221.168, 13.50312
1221.650, 13.30738
1222.133, 13.18552
1222.615, 12.89838
1223.097, 12.28232
1223.579, 11.73960
1224.061, 11.90158
1224.543, 12.02671
1225.025, 10.94285
1225.507, 9.772328
1225.990, 9.885248
1226.472, 10.97067
1226.954, 12.59885
1227.436, 14.45755
1227.918, 14.93307
1228.400, 12.51241
1228.882, 10.90413
1229.364, 11.63093
1229.846, 12.45003
1230.328, 12.55715
1230.811, 12.36269
1231.293, 12.03395
1231.775, 11.73507
1232.257, 11.81735
1232.739, 12.27702
1233.221, 12.57580
1233.703, 12.73862
1234.185, 12.55942
1234.668, 11.92041
1235.150, 11.53025
1235.632, 11.62330
1236.114, 12.01865
1236.596, 12.60411
1237.078, 13.26771
1237.560, 14.03745
1238.042, 14.64529
1238.525, 13.80962
1239.007, 12.12450
1239.489, 11.58007
1239.971, 12.09671
1240.453, 12.41622
1240.935, 12.20107
1241.417, 12.13964
1241.899, 12.72846
1242.381, 13.34623
1242.864, 13.46901
1243.346, 13.45118
1243.828, 13.73600
1244.310, 13.92407
1244.792, 13.35294
1245.274, 12.38029
1245.756, 11.89365
1246.238, 12.01977
1246.720, 12.04041
1247.203, 11.59772
1247.685, 11.44762
1248.167, 11.83290
1248.649, 12.22911
1249.131, 12.51782
1249.613, 12.69402
1250.095, 12.70240
1250.577, 12.67337
1251.059, 12.88751
1251.542, 13.31367
1252.024, 13.59752
1252.506, 13.73958
1252.988, 13.70877
1253.470, 13.49658
1253.952, 12.84316
1254.434, 11.73138
1254.916, 11.10525
1255.399, 11.67839
1255.881, 12.59783
1256.363, 12.72179
1256.845, 12.59860
1257.327, 13.25895
1257.809, 14.04464
1258.291, 13.68570
1258.773, 12.67512
1259.255, 12.36132
1259.738, 12.91234
1260.220, 13.37564
1260.702, 13.44617
1261.184, 13.31261
1261.666, 12.88947
1262.148, 12.46903
1262.630, 11.98551
1263.112, 11.73910
1263.594, 11.99704
1264.077, 12.57985
1264.559, 13.32432
1265.041, 14.16937
1265.523, 14.54638
1266.005, 14.36710
1266.487, 14.25226
1266.969, 14.24353
1267.451, 14.07576
1267.934, 13.68889
1268.416, 12.95798
1268.898, 11.77910
1269.380, 10.73793
1269.862, 10.50427
1270.344, 10.88260
1270.826, 11.86502
1271.308, 12.98956
1271.791, 13.26429
1272.273, 13.01396
1272.755, 13.02460
1273.237, 13.35784
1273.719, 13.70049
1274.201, 13.97076
1274.683, 13.84045
1275.165, 12.61868
1275.647, 11.75067
1276.130, 11.89877
1276.612, 12.40899
1277.094, 13.32125
1277.576, 14.03121
1278.058, 13.64489
1278.540, 12.69257
1279.022, 12.72589
1279.504, 13.85352
1279.986, 14.38011
1280.469, 14.20944
1280.951, 14.11567
1281.433, 14.20214
1281.915, 14.10712
1282.397, 13.69679
1282.879, 13.38783
1283.361, 13.52741
1283.843, 13.81413
1284.326, 13.89131
1284.808, 13.75716
##END=



