##NAMES=Frankamenite
##RRUFFID=R060100
##IDEAL CHEMISTRY=K_3_Na_3_Ca_5_Si_12_O_30_(F,OH)_4_&#183;H_2_O
##LOCALITY=Murun Massif, Sakka, Yakutia, Russia
##OWNER=RRUFF
##SOURCE=University of Arizona Mineral Museum
##DESCRIPTION=Gray thin laths associated with purple charoite
##STATUS=The identification of this mineral is confirmed by single-crystal X-ray diffraction and chemical analysis.
##URL=rruff.info/R060100
##MEASURED CHEMISTRY=(K_2.95_Na_0.05_)_Σ=3_Na_3.00_(Ca_4.90_Mn_0.10_)_Σ=5_Si_12.00_O_30_F_4.00_
92.02539, 98.91333
92.50751, 96.23579
92.98962, 95.68584
93.47174, 96.50412
93.95386, 98.78467
94.43597, 102.1622
94.91809, 106.8020
95.40021, 112.4106
95.88232, 117.6316
96.36444, 121.8137
96.84656, 126.5087
97.32867, 132.3422
97.81078, 138.9594
98.29290, 145.8606
98.77502, 152.8144
99.25713, 159.9456
99.73925, 164.4202
100.2214, 166.2680
100.7035, 166.4364
101.1856, 165.1870
101.6677, 162.6373
102.1498, 158.8665
102.6320, 153.9112
103.1141, 147.2703
103.5962, 140.2765
104.0783, 132.6750
104.5604, 124.7700
105.0425, 116.8468
105.5247, 108.8824
106.0068, 101.1203
106.4889, 93.91835
106.9710, 87.09127
107.4531, 81.04280
107.9352, 76.04888
108.4173, 72.01863
108.8995, 68.42708
109.3816, 65.09236
109.8637, 62.18188
110.3458, 59.82550
110.8279, 58.05228
111.3100, 56.73315
111.7922, 55.74731
112.2743, 55.13913
112.7564, 54.75408
113.2385, 54.66982
113.7206, 54.70559
114.2027, 54.67524
114.6849, 54.47401
115.1670, 54.21633
115.6491, 54.31800
116.1312, 55.15241
116.6133, 55.94787
117.0954, 56.52551
117.5776, 56.98609
118.0597, 57.46330
118.5418, 58.03077
119.0239, 58.68640
119.5060, 59.75423
119.9881, 61.53613
120.4703, 63.35653
120.9524, 64.91779
121.4345, 66.23833
121.9166, 67.53338
122.3987, 68.97147
122.8808, 70.57941
123.3630, 72.34533
123.8451, 74.24794
124.3272, 76.32162
124.8093, 78.65721
125.2914, 81.31572
125.7735, 83.99773
126.2557, 86.18056
126.7378, 87.98341
127.2199, 90.07337
127.7020, 92.78508
128.1841, 95.98908
128.6662, 99.23935
129.1483, 102.5032
129.6305, 105.7780
130.1126, 109.2208
130.5947, 112.7903
131.0768, 116.0771
131.5589, 118.6807
132.0410, 120.5371
132.5232, 122.2281
133.0053, 123.7563
133.4874, 125.1902
133.9695, 126.6199
134.4516, 128.0418
134.9337, 129.2889
135.4159, 130.0767
135.8980, 130.1088
136.3801, 130.2151
136.8622, 130.6196
137.3443, 131.0137
137.8264, 131.1215
138.3086, 130.8412
138.7907, 130.2833
139.2728, 129.7555
139.7549, 128.9918
140.2370, 128.5746
140.7191, 128.5758
141.2013, 128.9444
141.6834, 129.6418
142.1655, 130.6718
142.6476, 131.9793
143.1297, 133.2949
143.6118, 134.4180
144.0939, 135.7404
144.5761, 137.4817
145.0582, 139.5854
145.5403, 141.8102
146.0224, 144.0381
146.5045, 146.2837
146.9866, 148.5816
147.4688, 150.8841
147.9509, 153.2726
148.4330, 155.8648
148.9151, 158.6965
149.3972, 161.5298
149.8793, 164.5216
150.3615, 167.3933
150.8436, 169.7479
151.3257, 171.4456
151.8078, 172.5296
152.2899, 173.1395
152.7720, 173.5263
153.2542, 172.8528
153.7363, 171.0774
154.2184, 168.2261
154.7005, 164.2756
155.1826, 159.1462
155.6647, 152.8891
156.1469, 146.0824
156.6290, 138.0587
157.1111, 130.1264
157.5932, 122.5942
158.0753, 115.4136
158.5574, 108.4561
159.0396, 101.5580
159.5217, 94.64880
160.0038, 88.51791
160.4859, 83.29925
160.9680, 78.59375
161.4501, 74.30186
161.9323, 70.40305
162.4144, 66.92361
162.8965, 63.94722
163.3786, 61.58824
163.8607, 59.25839
164.3428, 56.80100
164.8250, 54.47868
165.3071, 52.51191
165.7892, 50.92526
166.2713, 49.58170
166.7534, 48.34483
167.2355, 47.22130
167.7177, 46.20290
168.1998, 45.34557
168.6819, 44.56926
169.1640, 43.76563
169.6461, 42.90236
170.1282, 42.05339
170.6104, 41.35174
171.0925, 40.78017
171.5746, 40.16492
172.0567, 39.37375
172.5388, 38.48118
173.0209, 37.69825
173.5031, 37.04795
173.9852, 36.55806
174.4673, 36.26241
174.9494, 36.14336
175.4315, 36.02843
175.9136, 35.75696
176.3958, 35.33689
176.8779, 35.03320
177.3600, 35.02304
177.8421, 35.02367
178.3242, 34.82515
178.8063, 34.44014
179.2885, 34.07878
179.7706, 33.98845
180.2527, 34.24531
180.7348, 34.44360
181.2169, 34.47380
181.6990, 34.50055
182.1812, 34.55787
182.6633, 34.67535
183.1454, 34.92265
183.6275, 35.44442
184.1096, 36.49448
184.5917, 37.27259
185.0738, 37.55508
185.5560, 37.76298
186.0381, 38.18902
186.5202, 38.90610
187.0023, 39.78613
187.4844, 40.61079
187.9665, 41.36815
188.4487, 42.08091
188.9308, 42.78019
189.4129, 43.41800
189.8950, 43.98418
190.3771, 44.47028
190.8592, 44.81059
191.3414, 44.85661
191.8235, 44.52602
192.3056, 44.05184
192.7877, 43.44036
193.2698, 42.70381
193.7519, 41.84087
194.2341, 40.84074
194.7162, 39.74549
195.1983, 38.60940
195.6804, 37.40239
196.1625, 36.25407
196.6446, 35.21863
197.1268, 34.26762
197.6089, 33.30983
198.0910, 32.27022
198.5731, 31.29117
199.0552, 30.60727
199.5373, 30.24607
200.0195, 29.93591
200.5016, 29.52236
200.9837, 29.02807
201.4658, 28.57442
201.9479, 28.20069
202.4300, 27.88086
202.9122, 27.59236
203.3943, 27.33700
203.8764, 27.07645
204.3585, 26.75327
204.8406, 26.36758
205.3227, 26.05837
205.8048, 25.93044
206.2870, 25.84245
206.7691, 25.70400
207.2512, 25.50455
207.7333, 25.26492
208.2154, 24.97492
208.6975, 24.60826
209.1797, 24.34897
209.6618, 24.35879
210.1439, 24.39847
210.6260, 24.31486
211.1081, 24.09065
211.5902, 23.84859
212.0724, 23.76121
212.5545, 23.89281
213.0366, 23.98687
213.5187, 24.03796
214.0008, 24.04143
214.4829, 23.97189
214.9651, 23.83374
215.4472, 23.67541
215.9293, 23.57067
216.4114, 23.55470
216.8935, 23.52141
217.3756, 23.48441
217.8578, 23.42450
218.3399, 23.31345
218.8220, 23.15208
219.3041, 22.97777
219.7862, 22.84657
220.2683, 22.76150
220.7505, 22.72512
221.2326, 22.78112
221.7147, 22.85306
222.1968, 22.87179
222.6789, 22.82465
223.1610, 22.76072
223.6432, 22.75153
224.1253, 22.81681
224.6074, 22.90944
225.0895, 23.10457
225.5716, 23.28599
226.0537, 23.33011
226.5358, 23.21141
227.0180, 23.02216
227.5001, 22.88175
227.9822, 22.79297
228.4643, 22.75941
228.9464, 22.84045
229.4285, 22.95007
229.9107, 22.99530
230.3928, 22.95493
230.8749, 22.86753
231.3570, 22.74319
231.8391, 22.56142
232.3212, 22.54285
232.8034, 22.88052
233.2855, 23.34028
233.7676, 23.61499
234.2497, 23.63534
234.7318, 23.55744
235.2139, 23.51927
235.6961, 23.51777
236.1782, 23.58582
236.6603, 23.80310
237.1424, 24.07374
237.6245, 24.22688
238.1066, 24.20698
238.5888, 24.18973
239.0709, 24.40402
239.5530, 24.77345
240.0351, 25.05466
240.5172, 25.11465
240.9993, 25.04284
241.4815, 25.00372
241.9636, 25.01060
242.4457, 25.04097
242.9278, 25.05383
243.4099, 25.07379
243.8920, 25.16455
244.3742, 25.39732
244.8563, 25.71215
245.3384, 25.97785
245.8205, 26.19450
246.3026, 26.35678
246.7847, 26.42914
247.2668, 26.45451
247.7490, 26.49962
248.2311, 26.59174
248.7132, 26.72419
249.1953, 26.88690
249.6774, 27.09085
250.1595, 27.30388
250.6417, 27.51928
251.1238, 27.73215
251.6059, 27.93322
252.0880, 28.11428
252.5701, 28.28617
253.0522, 28.47967
253.5344, 28.70264
254.0165, 28.93118
254.4986, 29.14088
254.9807, 29.35702
255.4628, 29.62821
255.9449, 29.98721
256.4271, 30.36484
256.9092, 30.58572
257.3913, 30.54313
257.8734, 30.54161
258.3555, 30.54394
258.8376, 30.65241
259.3198, 31.02552
259.8019, 31.72831
260.2840, 32.56393
260.7661, 33.10217
261.2482, 33.14616
261.7303, 33.25637
262.2125, 33.44707
262.6946, 33.74781
263.1767, 34.22029
263.6588, 34.87622
264.1409, 35.60822
264.6230, 36.23981
265.1052, 36.76628
265.5873, 37.18391
266.0694, 37.34859
266.5515, 37.51627
267.0336, 37.90217
267.5157, 38.54026
267.9979, 39.28021
268.4800, 39.91663
268.9621, 40.48256
269.4442, 40.84047
269.9263, 40.89058
270.4084, 40.85057
270.8906, 40.84773
271.3727, 40.90499
271.8548, 40.97882
272.3369, 41.02276
272.8190, 41.05081
273.3011, 40.99266
273.7833, 40.75841
274.2654, 40.53034
274.7475, 40.41860
275.2296, 40.42054
275.7117, 40.46115
276.1938, 40.46383
276.6760, 40.41380
277.1581, 40.42134
277.6402, 40.44016
278.1223, 40.54235
278.6044, 40.80817
279.0865, 41.19976
279.5686, 41.59448
280.0508, 41.89054
280.5329, 42.08437
281.0150, 42.32276
281.4971, 42.63454
281.9792, 42.95206
282.4613, 43.34442
282.9435, 43.72860
283.4256, 43.90131
283.9077, 43.70569
284.3898, 43.19550
284.8719, 42.86784
285.3540, 42.87591
285.8362, 42.86143
286.3183, 42.71756
286.8004, 42.48773
287.2825, 42.26120
287.7646, 42.08656
288.2467, 41.93737
288.7289, 41.71420
289.2110, 41.39015
289.6931, 41.03447
290.1752, 40.61596
290.6573, 40.18386
291.1394, 39.81713
291.6216, 39.54795
292.1037, 39.33675
292.5858, 39.09554
293.0679, 38.77192
293.5500, 38.52306
294.0321, 38.44452
294.5143, 38.41398
294.9964, 38.27297
295.4785, 37.97893
295.9606, 37.65191
296.4427, 37.47179
296.9248, 37.51785
297.4070, 37.47047
297.8891, 37.23585
298.3712, 36.95297
298.8533, 36.74028
299.3354, 36.61687
299.8175, 36.53831
300.2997, 36.46722
300.7818, 36.40612
301.2639, 36.32562
301.7460, 36.28112
302.2281, 36.17600
302.7102, 35.86531
303.1924, 35.38514
303.6745, 34.99070
304.1566, 34.90097
304.6387, 35.10081
305.1208, 35.17511
305.6029, 35.03210
306.0851, 34.86632
306.5672, 34.79192
307.0493, 34.78014
307.5314, 34.71468
308.0135, 34.50671
308.4956, 34.21402
308.9778, 34.09579
309.4599, 34.24789
309.9420, 34.41863
310.4241, 34.55459
310.9062, 34.65156
311.3883, 34.67695
311.8705, 34.60072
312.3526, 34.49818
312.8347, 34.55511
313.3168, 34.84191
313.7989, 35.09241
314.2810, 35.18233
314.7632, 35.23188
315.2453, 35.41919
315.7274, 35.79637
316.2095, 36.25046
316.6916, 36.64723
317.1737, 36.99463
317.6559, 37.23708
318.1380, 37.27258
318.6201, 37.25879
319.1022, 37.30632
319.5843, 37.43782
320.0664, 37.69667
320.5485, 38.15918
321.0306, 38.84444
321.5128, 39.41148
321.9949, 39.77957
322.4770, 40.10420
322.9591, 40.42225
323.4412, 40.76458
323.9233, 41.25018
324.4055, 41.97710
324.8876, 42.91603
325.3697, 43.79305
325.8518, 44.58470
326.3339, 45.35374
326.8160, 46.04873
327.2982, 46.73989
327.7803, 47.60421
328.2624, 48.74363
328.7445, 50.05944
329.2266, 51.30403
329.7087, 52.51780
330.1909, 53.60689
330.6730, 54.46833
331.1551, 55.22109
331.6372, 56.04399
332.1193, 56.99089
332.6014, 57.93157
333.0836, 58.68571
333.5657, 59.20841
334.0478, 59.63329
334.5299, 59.92654
335.0120, 60.14526
335.4941, 60.39014
335.9763, 60.64849
336.4584, 60.74659
336.9405, 60.50298
337.4226, 59.88069
337.9047, 59.25476
338.3868, 58.82753
338.8690, 58.20639
339.3511, 57.05779
339.8332, 55.51630
340.3153, 54.00295
340.7974, 52.77738
341.2795, 51.80595
341.7617, 50.90397
342.2438, 50.19881
342.7259, 49.40607
343.2080, 48.36908
343.6901, 47.22597
344.1722, 46.20720
344.6544, 45.41424
345.1365, 44.73326
345.6186, 43.92961
346.1007, 42.83651
346.5828, 41.87341
347.0649, 41.10105
347.5471, 40.43225
348.0292, 39.84876
348.5113, 39.32624
348.9934, 38.73349
349.4755, 37.88577
349.9576, 36.63478
350.4398, 35.75982
350.9219, 35.54288
351.4040, 35.38267
351.8861, 34.98955
352.3682, 34.37749
352.8503, 33.66870
353.3325, 32.93460
353.8146, 32.19058
354.2967, 31.67516
354.7788, 31.73053
355.2609, 31.62401
355.7430, 31.06516
356.2252, 30.28737
356.7073, 29.63042
357.1894, 29.25791
357.6715, 29.06116
358.1536, 28.75665
358.6357, 28.19047
359.1179, 27.75445
359.5999, 27.58992
360.0821, 27.46966
360.5642, 27.15368
361.0463, 26.62255
361.5284, 26.11083
362.0105, 25.94138
362.4926, 26.24813
362.9748, 26.37886
363.4569, 26.17022
363.9390, 25.95070
364.4211, 25.84212
364.9032, 25.84301
365.3853, 25.91369
365.8675, 26.03608
366.3496, 26.20038
366.8317, 26.30510
367.3138, 26.20466
367.7959, 26.23718
368.2780, 26.54121
368.7602, 26.98851
369.2423, 27.41739
369.7244, 27.75485
370.2065, 28.06337
370.6886, 28.46770
371.1707, 28.98813
371.6529, 29.55681
372.1350, 30.11094
372.6171, 30.74381
373.0992, 31.54902
373.5813, 32.52406
374.0634, 33.57956
374.5456, 34.60487
375.0277, 35.59119
375.5098, 36.68702
375.9919, 37.86291
376.4740, 39.21001
376.9561, 40.75802
377.4383, 42.49956
377.9204, 44.41354
378.4025, 46.57922
378.8846, 48.86976
379.3667, 50.85121
379.8488, 52.27370
380.3310, 54.04341
380.8131, 56.95800
381.2952, 60.20874
381.7773, 62.94357
382.2594, 64.88891
382.7415, 66.56470
383.2237, 68.67421
383.7058, 71.21597
384.1879, 73.16892
384.6700, 74.23390
385.1521, 74.61626
385.6342, 74.64687
386.1164, 74.31386
386.5985, 73.41609
387.0806, 71.57693
387.5627, 69.12413
388.0448, 66.82382
388.5269, 64.77702
389.0091, 62.76921
389.4912, 60.58224
389.9733, 58.30972
390.4554, 56.16166
390.9375, 54.20778
391.4196, 52.36840
391.9018, 50.60172
392.3839, 48.89524
392.8660, 47.18018
393.3481, 45.36087
393.8302, 43.58383
394.3123, 42.12423
394.7945, 41.02806
395.2766, 40.04623
395.7587, 39.09046
396.2408, 38.18574
396.7229, 37.39598
397.2050, 36.73272
397.6872, 36.14164
398.1693, 35.55619
398.6514, 34.97573
399.1335, 34.46325
399.6156, 34.02387
400.0977, 33.64611
400.5798, 33.35964
401.0620, 33.13864
401.5441, 32.87357
402.0262, 32.48063
402.5083, 32.00232
402.9904, 31.66698
403.4725, 31.52110
403.9547, 31.43546
404.4368, 31.36465
404.9189, 31.34903
405.4010, 31.49429
405.8831, 31.82180
406.3652, 32.15788
406.8474, 32.23457
407.3295, 31.92899
407.8116, 31.70951
408.2937, 31.64874
408.7758, 31.59977
409.2579, 31.42950
409.7401, 31.18682
410.2222, 31.06061
410.7043, 31.22016
411.1864, 31.60546
411.6685, 31.68937
412.1506, 31.14699
412.6328, 30.68818
413.1149, 30.48221
413.5970, 30.38242
414.0791, 30.24860
414.5612, 30.02776
415.0433, 29.70847
415.5255, 29.23759
416.0076, 28.53393
416.4897, 27.95289
416.9718, 27.57956
417.4539, 27.28392
417.9360, 27.04451
418.4182, 26.83727
418.9003, 26.61445
419.3824, 26.31923
419.8645, 25.98195
420.3466, 25.73144
420.8287, 25.57573
421.3109, 25.49695
421.7930, 25.53433
422.2751, 25.62004
422.7572, 25.67760
423.2393, 25.68203
423.7214, 25.67454
424.2036, 25.72340
424.6857, 25.82348
425.1678, 25.82568
425.6499, 25.59937
426.1320, 25.39146
426.6141, 25.44160
427.0963, 25.72306
427.5784, 26.03963
428.0605, 26.27444
428.5426, 26.50943
429.0247, 26.91620
429.5068, 27.51992
429.9890, 28.04709
430.4711, 28.22843
430.9532, 28.22886
431.4353, 28.56775
431.9174, 29.45056
432.3995, 30.37008
432.8817, 30.89168
433.3638, 31.28040
433.8459, 32.15822
434.3280, 33.74453
434.8101, 35.65941
435.2922, 37.37383
435.7744, 38.79318
436.2565, 40.40266
436.7386, 42.45784
437.2207, 44.51682
437.7028, 46.34930
438.1849, 47.90766
438.6671, 49.14955
439.1492, 50.03938
439.6313, 50.59752
440.1134, 50.91499
440.5955, 51.31285
441.0776, 51.05460
441.5598, 49.81076
442.0418, 47.99819
442.5240, 45.94316
443.0061, 43.78040
443.4882, 41.59040
443.9703, 39.47898
444.4524, 37.42317
444.9345, 35.53041
445.4167, 33.79154
445.8988, 32.23421
446.3809, 30.89929
446.8630, 29.76466
447.3451, 28.78574
447.8272, 27.96188
448.3094, 27.24895
448.7915, 26.51623
449.2736, 25.70206
449.7557, 25.04756
450.2378, 24.77316
450.7199, 24.56952
451.2021, 24.19056
451.6842, 23.61871
452.1663, 23.06523
452.6484, 22.72238
453.1305, 22.54376
453.6126, 22.31194
454.0948, 21.95704
454.5769, 21.68811
455.0590, 21.72314
455.5411, 21.93334
456.0232, 22.10537
456.5053, 22.17636
456.9875, 22.21820
457.4696, 22.21022
457.9517, 22.19939
458.4338, 22.43098
458.9159, 23.04146
459.3980, 23.82221
459.8802, 24.48154
460.3623, 25.02281
460.8444, 25.49340
461.3265, 25.73100
461.8086, 26.01553
462.2907, 26.70313
462.7729, 27.74046
463.2550, 28.70664
463.7371, 29.32786
464.2192, 29.63703
464.7013, 29.83583
465.1834, 29.98805
465.6656, 29.95913
466.1477, 29.74702
466.6298, 29.33479
467.1119, 28.65529
467.5940, 27.71399
468.0761, 26.66141
468.5583, 25.67297
469.0404, 24.74911
469.5225, 23.83625
470.0046, 22.76602
470.4867, 21.88510
470.9688, 21.42390
471.4510, 21.20149
471.9331, 20.92083
472.4152, 20.43444
472.8973, 19.86522
473.3794, 19.42736
473.8615, 19.11786
474.3437, 18.95640
474.8258, 19.10541
475.3079, 19.28076
475.7900, 19.29620
476.2721, 19.16549
476.7542, 19.02498
477.2364, 18.97574
477.7185, 18.97172
478.2006, 18.90732
478.6827, 18.77789
479.1648, 18.61344
479.6469, 18.40430
480.1291, 18.18030
480.6112, 17.98610
481.0933, 17.80939
481.5754, 17.70312
482.0575, 17.72890
482.5396, 17.83582
483.0217, 17.96008
483.5038, 18.09401
483.9860, 18.14805
484.4681, 18.02271
484.9502, 17.70785
485.4323, 17.39599
485.9144, 17.04899
486.3965, 16.74535
486.8787, 16.47817
487.3608, 16.28391
487.8429, 16.26386
488.3250, 16.45759
488.8071, 16.72224
489.2892, 16.79757
489.7714, 16.59311
490.2535, 16.41638
490.7356, 16.26520
491.2177, 16.13891
491.6998, 16.04727
492.1819, 15.98083
492.6641, 15.91896
493.1462, 15.84821
493.6283, 15.77511
494.1104, 15.71319
494.5925, 15.64935
495.0746, 15.63296
495.5568, 15.78754
496.0389, 15.91532
496.5210, 15.82809
497.0031, 15.53301
497.4852, 15.26271
497.9673, 15.21381
498.4495, 15.31259
498.9316, 15.36905
499.4137, 15.38128
499.8958, 15.32461
500.3779, 15.11020
500.8600, 14.84160
501.3422, 14.74736
501.8243, 14.93707
502.3064, 15.08580
502.7885, 14.96024
503.2706, 14.70262
503.7527, 14.57679
504.2349, 14.64106
504.7170, 14.77511
505.1991, 14.87894
505.6812, 14.95331
506.1633, 14.93343
506.6454, 14.70708
507.1276, 14.52184
507.6097, 14.50164
508.0918, 14.57184
508.5739, 14.61925
509.0560, 14.60097
509.5381, 14.54110
510.0203, 14.47569
510.5024, 14.40343
510.9845, 14.32995
511.4666, 14.12863
511.9487, 14.05267
512.4308, 14.34929
512.9130, 14.82848
513.3951, 15.09901
513.8772, 14.92862
514.3593, 14.55678
514.8414, 14.45106
515.3235, 14.65960
515.8057, 14.75528
516.2878, 14.53358
516.7699, 14.27629
517.2520, 14.24159
517.7341, 14.40201
518.2162, 14.54399
518.6984, 14.59083
519.1805, 14.56341
519.6626, 14.46645
520.1447, 14.30605
520.6268, 14.13928
521.1089, 13.96533
521.5911, 13.83385
522.0732, 13.89374
522.5553, 14.22652
523.0374, 14.47557
523.5195, 14.53155
524.0016, 14.51427
524.4838, 14.53290
524.9659, 14.58583
525.4480, 14.59543
525.9301, 14.49687
526.4122, 14.32138
526.8943, 14.22925
527.3765, 14.26870
527.8586, 14.33008
528.3407, 14.41379
528.8228, 14.50744
529.3049, 14.61110
529.7870, 14.71847
530.2692, 14.80703
530.7513, 14.85165
531.2334, 14.85974
531.7155, 14.88083
532.1976, 14.93329
532.6797, 14.95544
533.1619, 14.86607
533.6440, 14.76020
534.1261, 14.75825
534.6082, 14.89484
535.0903, 14.99719
535.5724, 14.92210
536.0546, 14.73918
536.5367, 14.56957
537.0188, 14.42199
537.5009, 14.37947
537.9830, 14.55946
538.4651, 14.89769
538.9473, 15.03468
539.4294, 14.88149
539.9115, 14.66033
540.3936, 14.31727
540.8757, 13.99339
541.3578, 13.92240
541.8400, 14.12003
542.3221, 14.32512
542.8042, 14.25305
543.2863, 13.89723
543.7684, 13.67381
544.2505, 13.70948
544.7326, 13.73282
545.2147, 13.66163
545.6968, 13.56850
546.1790, 13.55166
546.6611, 13.63058
547.1432, 13.71145
547.6253, 13.67148
548.1074, 13.52502
548.5895, 13.43612
549.0717, 13.40831
549.5538, 13.44438
550.0359, 13.63507
550.5180, 13.86842
551.0001, 13.96288
551.4822, 13.84713
551.9644, 13.69233
552.4465, 13.58961
552.9286, 13.52677
553.4107, 13.50080
553.8928, 13.51301
554.3749, 13.47389
554.8571, 13.27341
555.3392, 12.91989
555.8213, 12.74403
556.3034, 12.88083
556.7855, 13.00237
557.2676, 12.97960
557.7498, 12.91747
558.2319, 12.96712
558.7140, 13.15082
559.1961, 13.33777
559.6782, 13.37220
560.1603, 13.25154
560.6425, 13.19824
561.1246, 13.25469
561.6067, 13.31977
562.0888, 13.36201
562.5709, 13.39502
563.0530, 13.44127
563.5352, 13.50709
564.0173, 13.55573
564.4994, 13.53156
564.9815, 13.46397
565.4636, 13.46821
565.9457, 13.57422
566.4279, 13.64526
566.9100, 13.54160
567.3921, 13.33966
567.8742, 13.31320
568.3563, 13.60545
568.8384, 13.83323
569.3206, 13.79564
569.8027, 13.65856
570.2848, 13.64457
570.7669, 13.77331
571.2490, 13.88817
571.7311, 13.84365
572.2133, 13.65961
572.6954, 13.55510
573.1775, 13.54725
573.6596, 13.60290
574.1417, 13.76855
574.6238, 13.95888
575.1060, 14.09752
575.5881, 14.17865
576.0702, 14.25121
576.5523, 14.36383
577.0344, 14.50001
577.5165, 14.59088
577.9987, 14.62377
578.4808, 14.66763
578.9629, 14.76330
579.4450, 14.87723
579.9271, 14.96489
580.4092, 15.02482
580.8914, 15.06400
581.3735, 15.07010
581.8556, 15.06606
582.3377, 15.05349
582.8198, 15.04641
583.3019, 15.11412
583.7841, 15.30603
584.2662, 15.57665
584.7483, 15.80129
585.2304, 15.94798
585.7125, 16.10002
586.1946, 16.28989
586.6768, 16.45694
587.1589, 16.55143
587.6410, 16.59071
588.1231, 16.61300
588.6052, 16.62586
589.0873, 16.67867
589.5695, 16.91478
590.0516, 17.37326
590.5337, 17.72228
591.0158, 17.79432
591.4979, 17.86421
591.9800, 18.17254
592.4622, 18.67096
592.9443, 19.16432
593.4264, 19.63695
593.9085, 20.04243
594.3906, 20.26387
594.8727, 20.38142
595.3549, 20.62777
595.8370, 21.07895
596.3191, 21.62927
596.8012, 22.14902
597.2833, 22.62262
597.7654, 23.18840
598.2476, 23.90302
598.7297, 24.62919
599.2118, 25.30919
599.6939, 25.98583
600.1760, 26.68675
600.6581, 27.43237
601.1403, 28.29456
601.6224, 29.38718
602.1045, 30.70525
602.5866, 32.04174
603.0687, 33.39505
603.5508, 34.75758
604.0330, 36.00637
604.5151, 37.31264
604.9972, 38.90503
605.4793, 40.85618
605.9614, 42.88579
606.4435, 44.83557
606.9257, 46.80143
607.4078, 48.84935
607.8899, 51.00565
608.3720, 53.40065
608.8541, 56.08340
609.3362, 59.09024
609.8184, 62.57711
610.3005, 66.88105
610.7826, 71.17144
611.2647, 75.11560
611.7468, 79.33260
612.2289, 84.15865
612.7111, 89.60078
613.1932, 95.61221
613.6753, 102.2511
614.1574, 109.2013
614.6395, 116.0220
615.1216, 122.7737
615.6038, 129.1061
616.0859, 135.1481
616.5680, 140.5050
617.0501, 145.1891
617.5322, 149.0467
618.0143, 151.2612
618.4965, 151.6963
618.9786, 150.4251
619.4607, 147.0955
619.9428, 142.1755
620.4249, 136.3276
620.9070, 129.7584
621.3892, 122.7860
621.8713, 115.6451
622.3534, 108.3219
622.8355, 101.7000
623.3176, 95.91762
623.7997, 90.71609
624.2819, 86.08505
624.7640, 82.01009
625.2461, 78.47895
625.7282, 75.52030
626.2103, 73.21448
626.6924, 71.80968
627.1745, 71.05054
627.6566, 70.28506
628.1387, 69.48836
628.6208, 69.01672
629.1030, 68.96704
629.5851, 69.34458
630.0672, 70.23116
630.5493, 71.60806
631.0314, 73.24677
631.5135, 75.18819
631.9957, 77.31587
632.4778, 79.41929
632.9599, 81.68484
633.4420, 84.52376
633.9241, 88.07303
634.4063, 92.10426
634.8884, 96.24506
635.3705, 100.4502
635.8526, 105.2805
636.3347, 110.6532
636.8168, 116.7873
637.2990, 123.6278
637.7811, 131.2267
638.2632, 139.6228
638.7453, 148.7823
639.2274, 158.8999
639.7095, 169.9434
640.1917, 182.0031
640.6738, 195.5842
641.1559, 210.6296
641.6380, 226.4367
642.1201, 242.7205
642.6022, 259.3618
643.0844, 276.3505
643.5665, 294.8073
644.0486, 310.9983
644.5307, 325.7613
645.0128, 337.4494
645.4949, 345.9760
645.9771, 350.6175
646.4592, 350.1992
646.9413, 344.1906
647.4234, 333.3664
647.9055, 317.8770
648.3876, 297.8055
648.8698, 277.2509
649.3519, 256.4494
649.8340, 235.4968
650.3161, 213.7363
650.7982, 192.1133
651.2803, 172.9342
651.7625, 156.6216
652.2446, 142.0983
652.7267, 129.3333
653.2088, 117.9747
653.6909, 107.8340
654.1730, 98.82096
654.6552, 90.79077
655.1373, 83.67403
655.6194, 77.40308
656.1015, 71.77320
656.5836, 66.84991
657.0657, 62.44142
657.5479, 58.65553
658.0300, 55.30173
658.5121, 52.38338
658.9942, 49.83095
659.4763, 47.56293
659.9584, 45.58081
660.4406, 43.74761
660.9227, 41.89935
661.4048, 40.11229
661.8869, 38.57586
662.3690, 37.32338
662.8511, 36.24233
663.3333, 35.27578
663.8154, 34.39791
664.2975, 33.50983
664.7796, 32.54744
665.2617, 31.66758
665.7438, 30.94892
666.2260, 30.24457
666.7081, 29.38535
667.1902, 28.45613
667.6723, 27.71493
668.1544, 27.32016
668.6365, 27.03956
669.1187, 26.46016
669.6008, 25.59990
670.0829, 24.87629
670.5650, 24.37057
671.0471, 23.95336
671.5292, 23.54873
672.0114, 23.16300
672.4935, 22.82347
672.9756, 22.58220
673.4577, 22.29727
673.9398, 21.86206
674.4219, 21.41192
674.9041, 21.07964
675.3862, 20.86272
675.8683, 20.70165
676.3504, 20.56969
676.8325, 20.41282
677.3146, 20.05522
677.7968, 19.41474
678.2789, 18.98461
678.7610, 18.95654
679.2431, 18.96511
679.7252, 18.65825
680.2073, 18.25114
680.6895, 18.26496
681.1716, 19.08678
681.6537, 19.64226
682.1358, 18.99874
682.6179, 17.86375
683.1000, 17.27833
683.5822, 17.30536
684.0643, 17.40259
684.5464, 17.22240
685.0285, 16.86428
685.5106, 16.60972
685.9927, 16.49164
686.4749, 16.40096
686.9570, 16.32796
687.4391, 16.28951
687.9212, 16.34383
688.4033, 16.42695
688.8854, 16.40933
689.3676, 16.22772
689.8497, 16.03919
690.3318, 15.98790
690.8139, 16.02294
691.2960, 16.04304
691.7781, 16.03681
692.2603, 16.01234
692.7424, 15.96933
693.2245, 15.92016
693.7066, 15.89580
694.1887, 15.88937
694.6708, 15.92463
695.1530, 16.09502
695.6351, 16.20781
696.1172, 16.10774
696.5993, 15.90346
697.0814, 15.79745
697.5635, 15.86426
698.0457, 15.96271
698.5278, 15.94910
699.0099, 15.85251
699.4920, 15.77593
699.9741, 15.73056
700.4562, 15.63066
700.9384, 15.40323
701.4205, 15.13034
701.9026, 14.99780
702.3847, 15.09494
702.8668, 15.09276
703.3489, 14.90179
703.8311, 14.69951
704.3132, 14.55115
704.7953, 14.45819
705.2774, 14.43233
705.7595, 14.47131
706.2416, 14.49713
706.7238, 14.38709
707.2059, 14.18781
707.6880, 14.15132
708.1701, 14.31796
708.6522, 14.34044
709.1343, 13.98769
709.6164, 13.51799
710.0985, 13.35118
710.5806, 13.52862
711.0627, 13.67972
711.5449, 13.75713
712.0270, 13.82869
712.5091, 13.99874
712.9912, 14.15100
713.4733, 14.05820
713.9554, 13.70348
714.4376, 13.38886
714.9197, 13.44769
715.4018, 13.76372
715.8839, 13.85856
716.3660, 13.69728
716.8481, 13.56992
717.3303, 13.56843
717.8124, 13.63193
718.2945, 13.71746
718.7766, 13.82067
719.2587, 13.86814
719.7408, 13.85751
720.2230, 13.78523
720.7051, 13.59118
721.1872, 13.36821
721.6693, 13.19971
722.1514, 13.11227
722.6335, 13.13593
723.1157, 13.32396
723.5978, 13.58468
724.0799, 13.63226
724.5620, 13.43491
725.0441, 13.38324
725.5262, 13.66814
726.0084, 13.90264
726.4905, 13.65959
726.9726, 13.08905
727.4547, 12.78619
727.9368, 12.91640
728.4189, 13.10242
728.9011, 13.29454
729.3832, 13.44817
729.8653, 13.48011
730.3474, 13.42810
730.8295, 13.44473
731.3116, 13.62599
731.7938, 13.81889
732.2759, 13.67883
732.7580, 13.19770
733.2401, 13.01606
733.7222, 13.29708
734.2043, 13.58346
734.6865, 13.59838
735.1686, 13.44804
735.6507, 13.37271
736.1328, 13.39586
736.6149, 13.41278
737.0970, 13.40620
737.5792, 13.38286
738.0613, 13.33795
738.5434, 13.28202
739.0255, 13.23335
739.5076, 13.19792
739.9897, 13.16862
740.4719, 13.12023
740.9540, 13.06483
741.4361, 13.11324
741.9182, 13.29608
742.4003, 13.41769
742.8824, 13.36178
743.3646, 13.26151
743.8467, 13.30955
744.3288, 13.50699
744.8109, 13.66451
745.2930, 13.76713
745.7751, 13.82694
746.2573, 13.84435
746.7394, 13.82420
747.2215, 13.72740
747.7036, 13.58182
748.1857, 13.52888
748.6678, 13.70656
749.1500, 13.99533
749.6321, 14.11027
750.1142, 14.05169
750.5963, 14.02629
751.0784, 14.07742
751.5605, 14.16303
752.0427, 14.27200
752.5248, 14.38906
753.0069, 14.43206
753.4890, 14.33808
753.9711, 14.27451
754.4532, 14.26447
754.9354, 14.28940
755.4175, 14.35195
755.8996, 14.43596
756.3817, 14.51341
756.8638, 14.57287
757.3459, 14.62050
757.8281, 14.66959
758.3102, 14.71329
758.7923, 14.71077
759.2744, 14.65617
759.7565, 14.62284
760.2386, 14.63386
760.7208, 14.71074
761.2029, 14.91020
761.6850, 15.29487
762.1671, 15.54470
762.6492, 15.53960
763.1313, 15.55334
763.6135, 15.69661
764.0956, 15.88768
764.5777, 15.95102
765.0598, 15.91405
765.5419, 16.13000
766.0240, 17.16352
766.5062, 18.27925
766.9883, 18.25073
767.4704, 17.34773
767.9525, 16.68889
768.4346, 16.54322
768.9167, 16.60036
769.3989, 16.60591
769.8810, 16.56717
770.3631, 16.53036
770.8452, 16.51615
771.3273, 16.46497
771.8094, 16.39026
772.2916, 16.26206
772.7737, 16.00175
773.2558, 15.68809
773.7379, 15.48965
774.2200, 15.47406
774.7021, 15.48727
775.1843, 15.46706
775.6664, 15.39379
776.1485, 15.17947
776.6306, 14.87369
777.1127, 14.69768
777.5948, 14.75223
778.0770, 14.89423
778.5591, 14.91488
779.0412, 14.81059
779.5233, 14.65104
780.0054, 14.36847
780.4875, 14.17342
780.9697, 14.16437
781.4518, 14.25343
781.9339, 14.40456
782.4160, 14.60214
782.8981, 14.67981
783.3802, 14.48952
783.8624, 14.29436
784.3445, 14.25944
784.8266, 14.27981
785.3087, 14.17466
785.7908, 13.96451
786.2729, 13.87013
786.7551, 14.05674
787.2372, 14.36716
787.7193, 14.44944
788.2014, 14.30716
788.6835, 14.31379
789.1656, 14.56322
789.6478, 14.76565
790.1299, 14.69658
790.6120, 14.49156
791.0941, 14.49132
791.5762, 14.78559
792.0583, 15.00392
792.5404, 15.11490
793.0225, 15.15890
793.5046, 15.09517
793.9868, 15.00543
794.4689, 14.97873
794.9510, 15.04012
795.4331, 15.19266
795.9152, 15.52019
796.3973, 15.88328
796.8795, 16.00201
797.3616, 15.93219
797.8437, 15.95040
798.3258, 16.12684
798.8079, 16.34986
799.2900, 16.51937
799.7722, 16.65253
800.2543, 16.83846
800.7364, 17.08618
801.2185, 17.36923
801.7006, 17.84255
802.1827, 18.19053
802.6649, 18.15910
803.1470, 17.92485
803.6291, 17.83207
804.1112, 17.98502
804.5933, 18.08486
805.0754, 17.92356
805.5576, 17.68518
806.0397, 17.54797
806.5218, 17.48938
807.0039, 17.45310
807.4860, 17.41107
807.9681, 17.27999
808.4503, 16.93340
808.9324, 16.42745
809.4145, 16.08081
809.8966, 15.91685
810.3787, 15.75736
810.8608, 15.55230
811.3430, 15.35108
811.8251, 15.18469
812.3072, 15.05919
812.7893, 15.00505
813.2714, 15.15086
813.7535, 15.17567
814.2357, 14.90037
814.7178, 14.61338
815.1999, 14.50282
815.6820, 14.53989
816.1641, 14.67251
816.6462, 14.88658
817.1284, 15.00900
817.6105, 14.82731
818.0926, 14.46668
818.5747, 14.11215
819.0568, 13.79258
819.5389, 13.64358
820.0211, 13.71922
820.5032, 13.87149
820.9853, 13.91417
821.4674, 13.86676
821.9495, 14.06495
822.4316, 14.78321
822.9138, 15.14420
823.3959, 14.65604
823.8780, 14.10398
824.3601, 14.06430
824.8422, 14.35772
825.3243, 14.49692
825.8065, 14.34620
826.2886, 14.17095
826.7707, 14.05605
827.2528, 13.97308
827.7349, 13.86945
828.2170, 13.78287
828.6992, 13.85338
829.1813, 14.11259
829.6634, 14.29972
830.1455, 14.01767
830.6276, 13.46386
831.1097, 13.36666
831.5919, 13.71759
832.0740, 14.00776
832.5561, 14.09591
833.0382, 14.06611
833.5203, 13.96695
834.0024, 13.82077
834.4846, 13.80064
834.9667, 14.03531
835.4488, 14.18472
835.9309, 14.20522
836.4130, 14.16996
836.8951, 14.08875
837.3773, 13.98681
837.8594, 13.90361
838.3415, 13.84911
838.8236, 13.80095
839.3057, 13.71463
839.7878, 13.65705
840.2700, 13.71831
840.7521, 13.85380
841.2342, 13.97087
841.7163, 14.04202
842.1984, 14.08744
842.6805, 14.13510
843.1627, 14.15682
843.6448, 14.02718
844.1269, 13.73968
844.6090, 13.57793
845.0911, 13.62352
845.5732, 13.68541
846.0554, 13.62827
846.5375, 13.49364
847.0196, 13.39523
847.5017, 13.31120
847.9838, 13.31882
848.4659, 13.56079
848.9481, 13.72565
849.4302, 13.62922
849.9123, 13.42851
850.3944, 13.27992
850.8765, 13.21727
851.3586, 13.27283
851.8408, 13.61135
852.3229, 13.92773
852.8050, 13.89329
853.2871, 13.68766
853.7692, 13.63354
854.2513, 13.75256
854.7335, 13.84937
855.2156, 13.79816
855.6977, 13.67636
856.1798, 13.63449
856.6619, 13.66882
857.1440, 13.64836
857.6262, 13.54556
858.1083, 13.50642
858.5904, 13.61552
859.0725, 13.78743
859.5546, 13.92413
860.0367, 14.03299
860.5189, 14.01329
861.0010, 13.76044
861.4831, 13.52641
861.9652, 13.27435
862.4473, 13.11951
862.9294, 13.21813
863.4116, 13.48228
863.8937, 13.66318
864.3758, 13.67645
864.8579, 13.62919
865.3400, 13.53566
865.8221, 13.45549
866.3043, 13.50770
866.7864, 13.62745
867.2685, 13.58813
867.7506, 13.33404
868.2327, 13.14347
868.7148, 13.37535
869.1970, 13.85359
869.6791, 13.95563
870.1612, 13.68063
870.6433, 13.39746
871.1254, 13.15975
871.6075, 13.03455
872.0897, 13.10270
872.5718, 13.29872
873.0539, 13.40761
873.5360, 13.37121
874.0181, 13.38101
874.5002, 13.55654
874.9823, 13.63857
875.4644, 13.44858
875.9465, 13.17821
876.4286, 13.04553
876.9108, 13.06644
877.3929, 13.11377
877.8750, 13.20814
878.3571, 13.24457
878.8392, 13.05158
879.3214, 12.84072
879.8035, 12.93661
880.2856, 13.26856
880.7677, 13.48681
881.2498, 13.41113
881.7319, 13.22365
882.2141, 13.13125
882.6962, 13.11235
883.1783, 13.11822
883.6604, 13.14183
884.1425, 13.12435
884.6246, 13.03933
885.1068, 12.96781
885.5889, 13.01154
886.0710, 13.14679
886.5531, 13.17393
887.0352, 13.03381
887.5173, 12.96391
887.9995, 13.05974
888.4816, 13.13788
888.9637, 13.04276
889.4458, 12.86447
889.9279, 12.78701
890.4100, 12.83550
890.8922, 12.89559
891.3743, 12.97459
891.8564, 13.03487
892.3385, 13.02509
892.8206, 13.00910
893.3027, 13.10067
893.7849, 13.27214
894.2670, 13.34054
894.7491, 13.18075
895.2312, 12.96052
895.7133, 12.76658
896.1954, 12.64854
896.6776, 12.78274
897.1597, 13.09037
897.6418, 13.20370
898.1239, 12.96858
898.6060, 12.65418
899.0881, 12.61209
899.5703, 12.78096
900.0524, 12.82598
900.5345, 12.73957
901.0166, 12.67521
901.4987, 12.67011
901.9808, 12.68766
902.4630, 12.69918
902.9451, 12.71002
903.4272, 12.74203
903.9093, 12.82345
904.3914, 12.85999
904.8735, 12.80788
905.3557, 12.76530
905.8378, 12.79875
906.3199, 12.83789
906.8020, 12.77377
907.2841, 12.61404
907.7662, 12.54711
908.2484, 12.76281
908.7305, 12.89460
909.2126, 12.72130
909.6947, 12.45804
910.1768, 12.21437
910.6589, 12.06938
911.1411, 12.20830
911.6232, 12.70987
912.1053, 13.14452
912.5874, 13.02223
913.0695, 12.67899
913.5516, 12.63959
914.0338, 12.83081
914.5159, 13.00655
914.9980, 13.10210
915.4801, 13.14600
915.9622, 13.16179
916.4443, 13.13729
916.9265, 12.97923
917.4086, 12.68898
917.8907, 12.73450
918.3728, 13.22515
918.8549, 13.60337
919.3370, 13.59681
919.8192, 13.40644
920.3013, 13.29275
920.7834, 13.25570
921.2655, 13.28163
921.7476, 13.50417
922.2297, 13.55795
922.7119, 13.15597
923.1940, 12.80724
923.6761, 12.89084
924.1582, 13.21448
924.6403, 13.36140
925.1224, 13.23757
925.6046, 13.17978
926.0867, 13.37402
926.5688, 13.53737
927.0509, 13.45715
927.5330, 13.30260
928.0151, 13.29193
928.4973, 13.42195
928.9794, 13.53026
929.4615, 13.52651
929.9436, 13.50824
930.4257, 13.54935
930.9078, 13.63631
931.3900, 13.78737
931.8721, 13.96519
932.3542, 14.05073
932.8363, 14.00930
933.3184, 13.93051
933.8005, 13.87851
934.2827, 13.88220
934.7648, 14.07141
935.2469, 14.41714
935.7290, 14.63624
936.2111, 14.67996
936.6932, 14.64882
937.1754, 14.58279
937.6575, 14.53907
938.1396, 14.63270
938.6217, 14.87669
939.1038, 15.10772
939.5859, 15.35847
940.0681, 15.50448
940.5502, 15.46129
941.0323, 15.37950
941.5144, 15.40281
941.9965, 15.49386
942.4786, 15.48526
942.9608, 15.27644
943.4429, 15.18022
943.9250, 15.29393
944.4071, 15.42216
944.8892, 15.47717
945.3713, 15.51103
945.8535, 15.60334
946.3356, 15.74655
946.8177, 15.83298
947.2998, 15.78609
947.7819, 15.74053
948.2640, 15.77440
948.7462, 15.82733
949.2283, 15.86463
949.7104, 15.86942
950.1925, 15.81434
950.6746, 15.69390
951.1567, 15.54969
951.6389, 15.35416
952.1210, 15.20440
952.6031, 15.33035
953.0852, 15.56644
953.5673, 15.47778
954.0494, 15.07667
954.5316, 14.78858
955.0137, 14.84478
955.4958, 15.04249
955.9779, 15.10886
956.4600, 15.06209
956.9421, 14.96978
957.4242, 14.83507
957.9063, 14.76413
958.3884, 14.79056
958.8705, 14.81045
959.3527, 14.73921
959.8348, 14.60162
960.3169, 14.45817
960.7990, 14.29052
961.2811, 14.21869
961.7632, 14.26646
962.2454, 14.35645
962.7275, 14.50322
963.2096, 14.61746
963.6917, 14.57432
964.1738, 14.39443
964.6559, 14.30823
965.1381, 14.41357
965.6202, 14.45476
966.1023, 14.39000
966.5844, 14.30111
967.0665, 14.19364
967.5486, 14.09869
968.0308, 14.05453
968.5129, 14.06363
968.9950, 14.11076
969.4771, 14.24153
969.9592, 14.34508
970.4413, 14.42473
970.9235, 14.42572
971.4056, 14.20326
971.8877, 13.89740
972.3698, 13.82703
972.8519, 14.07848
973.3340, 14.26263
973.8162, 14.03629
974.2983, 13.78172
974.7804, 13.86752
975.2625, 14.09089
975.7446, 14.15103
976.2267, 14.05136
976.7089, 13.97029
977.1910, 13.99259
977.6731, 14.02709
978.1552, 13.94663
978.6373, 13.83498
979.1194, 13.85408
979.6016, 13.96864
980.0837, 14.07299
980.5658, 14.13841
981.0479, 14.14056
981.5300, 14.05325
982.0121, 13.95754
982.4943, 14.02749
982.9764, 14.22470
983.4585, 14.31405
983.9406, 14.29256
984.4227, 14.31705
984.9048, 14.43731
985.3870, 14.60862
985.8691, 14.79867
986.3512, 14.99227
986.8333, 15.14270
987.3154, 15.24879
987.7975, 15.31436
988.2797, 15.33255
988.7618, 15.33451
989.2439, 15.31973
989.7260, 15.32245
990.2081, 15.39343
990.6902, 15.52092
991.1724, 15.58868
991.6545, 15.54260
992.1366, 15.57073
992.6187, 15.79309
993.1008, 15.92550
993.5829, 15.76569
994.0651, 15.49429
994.5472, 15.35150
995.0293, 15.33884
995.5114, 15.36171
995.9935, 15.43911
996.4756, 15.52224
996.9578, 15.65789
997.4399, 15.74141
997.9220, 15.67867
998.4041, 15.54185
998.8862, 15.42450
999.3683, 15.33704
999.8505, 15.33480
1000.333, 15.58201
1000.815, 15.71907
1001.297, 15.50109
1001.779, 15.22018
1002.261, 15.11602
1002.743, 15.14017
1003.225, 15.16217
1003.707, 15.15032
1004.190, 15.12263
1004.672, 15.07472
1005.154, 15.02915
1005.636, 14.99329
1006.118, 14.97321
1006.600, 14.96498
1007.082, 14.97935
1007.564, 15.06360
1008.046, 15.23678
1008.529, 15.36444
1009.011, 15.31455
1009.493, 15.18895
1009.975, 15.04559
1010.457, 14.93248
1010.939, 14.95864
1011.421, 15.10412
1011.903, 15.23157
1012.385, 15.27271
1012.868, 15.31024
1013.350, 15.44663
1013.832, 15.63426
1014.314, 15.80213
1014.796, 15.94268
1015.278, 16.02419
1015.760, 16.05132
1016.242, 16.08614
1016.725, 16.16608
1017.207, 16.26059
1017.689, 16.34271
1018.171, 16.40055
1018.653, 16.35753
1019.135, 16.23612
1019.617, 16.18487
1020.099, 16.23771
1020.581, 16.39672
1021.064, 16.68359
1021.546, 16.96249
1022.028, 16.94037
1022.510, 16.64859
1022.992, 16.45997
1023.474, 16.37749
1023.956, 16.32621
1024.438, 16.29181
1024.921, 16.22759
1025.403, 16.08077
1025.885, 15.92909
1026.367, 15.99408
1026.849, 16.29992
1027.331, 16.41070
1027.813, 16.29442
1028.295, 16.16151
1028.777, 16.06178
1029.260, 15.98054
1029.742, 15.90214
1030.224, 15.83916
1030.706, 15.83276
1031.188, 15.89434
1031.670, 15.96080
1032.152, 16.06198
1032.634, 16.07199
1033.116, 15.90781
1033.599, 15.73375
1034.081, 15.69084
1034.563, 15.74064
1035.045, 15.76461
1035.527, 15.76062
1036.009, 15.73216
1036.491, 15.62497
1036.973, 15.60048
1037.456, 15.74738
1037.938, 15.93551
1038.420, 16.04708
1038.902, 16.11522
1039.384, 16.26364
1039.866, 16.56024
1040.348, 16.74242
1040.830, 16.72081
1041.313, 16.71206
1041.795, 16.80225
1042.277, 16.89796
1042.759, 16.86107
1043.241, 16.77102
1043.723, 16.89847
1044.205, 17.37055
1044.687, 17.71417
1045.169, 17.88433
1045.651, 17.95763
1046.134, 17.85025
1046.616, 17.74472
1047.098, 17.78864
1047.580, 17.95502
1048.062, 18.16230
1048.544, 18.42910
1049.026, 18.64686
1049.508, 18.74716
1049.991, 18.86579
1050.473, 19.05338
1050.955, 19.27312
1051.437, 19.52106
1051.919, 19.77230
1052.401, 19.97365
1052.883, 20.11516
1053.365, 20.21540
1053.848, 20.25999
1054.330, 20.28770
1054.812, 20.27671
1055.294, 20.28712
1055.776, 20.38447
1056.258, 20.54163
1056.740, 20.69324
1057.222, 20.83323
1057.704, 20.92992
1058.187, 20.73516
1058.669, 20.79942
1059.151, 21.81097
1059.633, 22.78277
1060.115, 22.65099
1060.597, 21.84150
1061.079, 21.42604
1061.561, 21.64308
1062.043, 21.95723
1062.526, 22.34601
1063.008, 22.58815
1063.490, 22.38975
1063.972, 22.17644
1064.454, 22.37254
1064.936, 22.83204
1065.418, 23.18564
1065.900, 23.35680
1066.383, 23.59419
1066.865, 24.10745
1067.347, 24.56266
1067.829, 24.68505
1068.311, 24.79193
1068.793, 25.24060
1069.275, 25.84964
1069.757, 26.21732
1070.240, 26.27753
1070.722, 26.39618
1071.204, 26.85509
1071.686, 27.23515
1072.168, 27.28275
1072.650, 27.22750
1073.132, 27.27924
1073.614, 27.35856
1074.096, 27.25697
1074.578, 26.96939
1075.061, 26.80276
1075.543, 26.99403
1076.025, 27.15386
1076.507, 27.14558
1076.989, 26.98276
1077.471, 26.57266
1077.953, 26.06771
1078.435, 25.65439
1078.918, 25.37548
1079.400, 25.26763
1079.882, 25.44909
1080.364, 25.57892
1080.846, 25.56477
1081.328, 25.36726
1081.810, 24.74607
1082.292, 24.05346
1082.774, 23.82459
1083.257, 24.01541
1083.739, 24.08523
1084.221, 23.79798
1084.703, 23.53733
1085.185, 23.50319
1085.667, 23.52732
1086.149, 23.48774
1086.631, 23.45203
1087.114, 23.57793
1087.596, 23.78759
1088.078, 23.77015
1088.560, 23.37695
1089.042, 23.04826
1089.524, 22.99457
1090.006, 23.02002
1090.488, 23.04630
1090.970, 23.06971
1091.453, 23.10043
1091.935, 23.12757
1092.417, 23.10366
1092.899, 23.00492
1093.381, 22.99718
1093.863, 23.25650
1094.345, 23.47261
1094.827, 23.45739
1095.309, 23.37866
1095.792, 23.33719
1096.274, 23.35928
1096.756, 23.47205
1097.238, 23.67991
1097.720, 23.93978
1098.202, 24.33211
1098.684, 24.64399
1099.166, 24.66958
1099.649, 24.73149
1100.131, 25.12342
1100.613, 25.66004
1101.095, 26.00904
1101.577, 26.16555
1102.059, 26.49604
1102.541, 27.16322
1103.023, 27.88520
1103.505, 28.64203
1103.988, 29.38791
1104.470, 30.04938
1104.952, 30.71767
1105.434, 31.33678
1105.916, 32.02750
1106.398, 33.37013
1106.880, 35.79775
1107.362, 38.04840
1107.844, 39.88940
1108.327, 41.57487
1108.809, 43.02742
1109.291, 44.52410
1109.773, 46.20898
1110.255, 48.14283
1110.737, 50.46214
1111.219, 53.19259
1111.701, 56.24941
1112.184, 59.68264
1112.666, 63.34753
1113.148, 67.17135
1113.630, 71.27932
1114.112, 75.64572
1114.594, 80.37418
1115.076, 85.73470
1115.558, 91.75117
1116.041, 97.97970
1116.523, 104.4399
1117.005, 111.0589
1117.487, 117.9715
1117.969, 124.8412
1118.451, 131.4828
1118.933, 138.0266
1119.415, 144.7341
1119.897, 151.5161
1120.380, 157.7644
1120.862, 163.2925
1121.344, 168.8209
1121.826, 175.0826
1122.308, 179.8746
1122.790, 182.4870
1123.272, 183.2840
1123.754, 182.5978
1124.236, 180.3710
1124.719, 176.3993
1125.201, 170.6096
1125.683, 163.2668
1126.165, 154.1207
1126.647, 144.3009
1127.129, 133.9274
1127.611, 123.4249
1128.093, 112.9977
1128.576, 102.9399
1129.058, 93.79640
1129.540, 85.59257
1130.022, 77.81919
1130.504, 70.47679
1130.986, 64.07509
1131.468, 58.73650
1131.950, 54.14207
1132.432, 50.16749
1132.915, 46.72575
1133.397, 43.77305
1133.879, 41.21454
1134.361, 38.69779
1134.843, 36.22793
1135.325, 34.06689
1135.807, 32.23319
1136.289, 30.75832
1136.771, 29.64522
1137.254, 28.53737
1137.736, 27.10599
1138.218, 25.70081
1138.700, 25.05706
1139.182, 24.94924
1139.664, 24.69875
1140.146, 24.28051
1140.628, 23.63219
1141.111, 22.78481
1141.593, 21.99570
1142.075, 21.39366
1142.557, 20.89694
1143.039, 20.40933
1143.521, 19.96569
1144.003, 19.65418
1144.485, 19.42019
1144.968, 19.15093
1145.450, 18.84899
1145.932, 18.56631
1146.414, 18.31977
1146.896, 18.10657
1147.378, 17.94205
1147.860, 17.77323
1148.342, 17.54433
1148.824, 17.28683
1149.307, 17.00010
1149.789, 16.73023
1150.271, 16.61529
1150.753, 16.60815
1151.235, 16.40288
1151.717, 15.80346
1152.199, 15.34055
1152.681, 15.45231
1153.163, 15.64180
1153.646, 15.55477
1154.128, 15.39789
1154.610, 15.43196
1155.092, 15.57681
1155.574, 15.58864
1156.056, 15.41723
1156.538, 15.28084
1157.020, 15.31288
1157.503, 15.28679
1157.985, 15.04173
1158.467, 14.82534
1158.949, 14.77525
1159.431, 14.84603
1159.913, 15.04842
1160.395, 15.34086
1160.877, 15.40704
1161.359, 15.08389
1161.842, 14.82592
1162.324, 14.64487
1162.806, 14.51766
1163.288, 14.44104
1163.770, 14.41772
1164.252, 14.49185
1164.734, 14.58861
1165.216, 14.52127
1165.698, 14.26773
1166.181, 14.15792
1166.663, 14.23549
1167.145, 14.30195
1167.627, 14.33934
1168.109, 14.32719
1168.591, 14.24673
1169.073, 14.13758
1169.555, 14.03033
1170.037, 13.95173
1170.520, 14.04969
1171.002, 14.31520
1171.484, 14.34091
1171.966, 14.11823
1172.448, 14.06330
1172.930, 14.28321
1173.412, 14.47648
1173.894, 14.43927
1174.377, 14.28709
1174.859, 14.18791
1175.341, 14.11012
1175.823, 13.93121
1176.305, 13.70491
1176.787, 13.58799
1177.269, 13.59180
1177.751, 13.70028
1178.234, 13.89035
1178.716, 14.00299
1179.198, 13.87416
1179.680, 13.70527
1180.162, 13.74742
1180.644, 13.85329
1181.126, 13.84116
1181.608, 13.74912
1182.090, 13.63359
1182.573, 13.52931
1183.055, 13.51075
1183.537, 13.61869
1184.019, 13.71839
1184.501, 13.73093
1184.983, 13.72609
1185.465, 13.76551
1185.947, 13.78284
1186.429, 13.67491
1186.912, 13.52325
1187.394, 13.48903
1187.876, 13.58327
1188.358, 13.65281
1188.840, 13.67920
1189.322, 13.67047
1189.804, 13.61139
1190.286, 13.53675
1190.769, 13.41919
1191.251, 13.33520
1191.733, 13.37812
1192.215, 13.48866
1192.697, 13.49268
1193.179, 13.35629
1193.661, 13.42767
1194.143, 13.78949
1194.625, 14.05802
1195.108, 14.18785
1195.590, 14.14121
1196.072, 13.85040
1196.554, 13.59735
1197.036, 13.74420
1197.518, 14.11200
1198.000, 14.07519
1198.482, 13.70344
1198.964, 13.69178
1199.447, 14.00929
1199.929, 14.12098
1200.411, 13.92321
1200.893, 13.69522
1201.375, 13.59539
1201.857, 13.60660
1202.339, 13.79438
1202.821, 14.00240
1203.304, 13.92365
1203.786, 13.71051
1204.268, 13.64381
1204.750, 13.68426
1205.232, 13.63282
1205.714, 13.46872
1206.196, 13.40517
1206.678, 13.59961
1207.161, 13.75984
1207.643, 13.63332
1208.125, 13.49107
1208.607, 13.54526
1209.089, 13.66225
1209.571, 13.67440
1210.053, 13.63219
1210.535, 13.71210
1211.017, 13.95072
1211.500, 14.06271
1211.982, 13.84448
1212.464, 13.74924
1212.946, 13.97235
1213.428, 14.14849
1213.910, 14.13806
1214.392, 14.02256
1214.874, 13.82102
1215.356, 13.61160
1215.839, 13.67344
1216.321, 14.06536
1216.803, 14.12097
1217.285, 13.77291
1217.767, 13.53404
1218.249, 13.49267
1218.731, 13.55375
1219.213, 13.67877
1219.696, 13.82844
1220.178, 13.97346
1220.660, 14.07804
1221.142, 14.00647
1221.624, 13.83554
1222.106, 13.87069
1222.588, 14.04212
1223.070, 13.99944
1223.552, 13.74667
1224.035, 13.67766
1224.517, 13.97713
1224.999, 14.33652
1225.481, 14.51136
1225.963, 14.61154
1226.445, 14.77732
1226.927, 14.88148
1227.409, 14.72966
1227.891, 14.44888
1228.374, 14.22055
1228.856, 14.08533
1229.338, 14.07623
1229.820, 14.27408
1230.302, 14.35648
1230.784, 14.15371
1231.266, 13.95768
1231.748, 13.85813
1232.231, 13.79474
1232.713, 13.74562
1233.195, 13.69518
1233.677, 13.62024
1234.159, 13.52338
1234.641, 13.41639
1235.123, 13.27397
1235.605, 13.24832
1236.088, 13.35849
1236.570, 13.50866
1237.052, 13.68070
1237.534, 13.82979
1238.016, 13.92805
1238.498, 13.98136
1238.980, 13.98516
1239.462, 13.96504
1239.944, 14.02241
1240.427, 14.10576
1240.909, 13.99850
1241.391, 13.77877
1241.873, 13.79635
1242.355, 14.07758
1242.837, 14.25806
1243.319, 14.13826
1243.801, 13.93701
1244.283, 13.72485
1244.766, 13.60591
1245.248, 13.70726
1245.730, 13.89746
1246.212, 14.12235
1246.694, 14.30068
1247.176, 14.27877
1247.658, 14.06646
1248.140, 13.91671
1248.622, 13.87618
1249.105, 13.87871
1249.587, 13.94284
1250.069, 14.01773
1250.551, 14.14459
1251.033, 14.17600
1251.515, 13.96672
1251.997, 13.70197
1252.479, 13.66336
1252.962, 13.81449
1253.444, 13.96674
1253.926, 14.11959
1254.408, 14.21099
1254.890, 14.24238
1255.372, 14.30163
1255.854, 14.40233
1256.336, 14.42980
1256.818, 14.31544
1257.301, 14.19973
1257.783, 14.26764
1258.265, 14.38680
1258.747, 14.35631
1259.229, 14.27919
1259.711, 14.33703
1260.193, 14.44246
1260.675, 14.38563
1261.157, 14.17890
1261.640, 14.03173
1262.122, 14.01378
1262.604, 14.02747
1263.086, 14.06144
1263.568, 14.09463
1264.050, 14.10535
1264.532, 14.13103
1265.014, 14.21535
1265.497, 14.30520
1265.979, 14.33708
1266.461, 14.32289
1266.943, 14.31832
1267.425, 14.33421
1267.907, 14.24918
1268.389, 14.04153
1268.871, 14.00869
1269.354, 14.20714
1269.836, 14.31969
1270.318, 14.20077
1270.800, 14.02990
1271.282, 13.97065
1271.764, 13.99601
1272.246, 14.12681
1272.728, 14.26756
1273.210, 14.20538
1273.693, 14.04755
1274.175, 13.99894
1274.657, 14.06085
1275.139, 14.15814
1275.621, 14.26439
1276.103, 14.29568
1276.585, 14.10339
1277.067, 14.02023
1277.549, 14.31621
1278.032, 14.54377
1278.514, 14.38659
1278.996, 14.16620
1279.478, 14.15511
1279.960, 14.28030
1280.442, 14.41859
1280.924, 14.56673
1281.406, 14.59671
1281.889, 14.47806
1282.371, 14.51341
1282.853, 14.73724
1283.335, 14.83010
1283.817, 14.70370
1284.299, 14.56001
1284.781, 14.52891
1285.263, 14.53045
1285.745, 14.48191
1286.228, 14.38285
##END=



