##NAMES=Frankamenite
##RRUFFID=R060100
##IDEAL CHEMISTRY=K_3_Na_3_Ca_5_Si_12_O_30_(F,OH)_4_&#183;H_2_O
##LOCALITY=Murun Massif, Sakka, Yakutia, Russia
##OWNER=RRUFF
##SOURCE=University of Arizona Mineral Museum
##DESCRIPTION=Gray thin laths associated with purple charoite
##STATUS=The identification of this mineral is confirmed by single-crystal X-ray diffraction and chemical analysis.
##URL=rruff.info/R060100
##MEASURED CHEMISTRY=(K_2.95_Na_0.05_)_Σ=3_Na_3.00_(Ca_4.90_Mn_0.10_)_Σ=5_Si_12.00_O_30_F_4.00_
89.78156, 0.0000000E+00
90.26367, 38.39501
90.74579, 38.27055
91.22791, 38.37724
91.71002, 38.67985
92.19214, 38.86266
92.67426, 38.55682
93.15638, 37.91504
93.63850, 37.34171
94.12061, 36.88107
94.60273, 36.59539
95.08485, 36.71778
95.56696, 37.29035
96.04908, 37.97840
96.53120, 38.46059
97.01331, 38.72829
97.49543, 38.77095
97.97755, 38.43061
98.45966, 37.74392
98.94178, 37.37786
99.42390, 37.40778
99.90602, 37.65668
100.3881, 37.78939
100.8703, 37.77752
101.3524, 37.75188
101.8345, 37.78205
102.3166, 37.88105
102.7987, 37.97916
103.2808, 38.07074
103.7630, 38.15815
104.2451, 38.23042
104.7272, 38.21571
105.2093, 38.28196
105.6914, 38.57070
106.1735, 39.29513
106.6557, 39.86372
107.1378, 40.08269
107.6199, 39.93376
108.1020, 40.13624
108.5841, 40.69387
109.0662, 41.60484
109.5484, 42.87317
110.0305, 44.57795
110.5126, 46.57441
110.9947, 48.83172
111.4768, 51.36639
111.9590, 54.17855
112.4411, 57.18052
112.9232, 60.50548
113.4053, 64.23473
113.8874, 67.97916
114.3695, 72.48610
114.8517, 78.01293
115.3338, 84.64902
115.8159, 92.12905
116.2980, 100.4176
116.7801, 109.5746
117.2622, 119.6280
117.7444, 130.3848
118.2265, 142.2460
118.7086, 155.4367
119.1907, 170.2645
119.6728, 186.2840
120.1549, 203.3401
120.6371, 221.4268
121.1192, 240.6026
121.6013, 261.1486
122.0834, 282.5428
122.5655, 304.1425
123.0476, 326.0514
123.5298, 347.8279
124.0119, 369.3140
124.4940, 390.4719
124.9761, 410.8548
125.4582, 430.0539
125.9404, 448.0899
126.4225, 464.8181
126.9046, 478.7936
127.3867, 491.8499
127.8688, 506.8290
128.3509, 523.7768
128.8331, 542.2016
129.3152, 561.5457
129.7973, 581.9742
130.2794, 603.7723
130.7615, 626.7037
131.2436, 651.0787
131.7258, 677.8616
132.2079, 707.3097
132.6900, 738.5179
133.1721, 770.6604
133.6542, 803.6102
134.1364, 836.3817
134.6185, 869.1779
135.1006, 902.0630
135.5827, 932.9172
136.0648, 961.6757
136.5469, 988.5578
137.0291, 1014.365
137.5112, 1039.175
137.9933, 1061.876
138.4754, 1081.836
138.9575, 1098.667
139.4396, 1114.113
139.9218, 1128.283
140.4039, 1141.140
140.8860, 1151.677
141.3681, 1158.459
141.8502, 1165.359
142.3323, 1175.362
142.8145, 1189.706
143.2966, 1204.240
143.7787, 1217.860
144.2608, 1230.732
144.7429, 1245.508
145.2250, 1262.844
145.7072, 1281.683
146.1893, 1301.024
146.6714, 1319.958
147.1535, 1340.760
147.6356, 1364.689
148.1178, 1392.544
148.5999, 1417.523
149.0820, 1438.511
149.5641, 1456.984
150.0462, 1474.419
150.5283, 1489.397
151.0105, 1504.529
151.4926, 1507.783
151.9747, 1513.274
152.4568, 1513.303
152.9389, 1506.821
153.4210, 1495.296
153.9032, 1480.517
154.3853, 1460.455
154.8674, 1439.467
155.3495, 1419.118
155.8316, 1399.949
156.3137, 1379.832
156.7959, 1356.704
157.2780, 1332.463
157.7601, 1310.811
158.2422, 1292.301
158.7243, 1276.374
159.2065, 1262.645
159.6886, 1251.667
160.1707, 1241.649
160.6528, 1231.893
161.1349, 1222.630
161.6170, 1214.524
162.0992, 1208.154
162.5813, 1202.758
163.0634, 1197.818
163.5455, 1193.028
164.0276, 1188.897
164.5097, 1185.468
164.9919, 1182.809
165.4740, 1181.222
165.9561, 1181.679
166.4382, 1182.902
166.9203, 1183.710
167.4024, 1183.038
167.8846, 1182.626
168.3667, 1183.762
168.8488, 1186.259
169.3309, 1188.909
169.8130, 1190.898
170.2952, 1192.643
170.7773, 1194.622
171.2594, 1196.595
171.7415, 1199.150
172.2236, 1203.152
172.7057, 1208.498
173.1879, 1213.846
173.6700, 1218.411
174.1521, 1222.265
174.6342, 1225.560
175.1163, 1227.486
175.5984, 1229.318
176.0806, 1232.608
176.5627, 1237.358
177.0448, 1242.730
177.5269, 1248.751
178.0090, 1254.869
178.4911, 1259.935
178.9733, 1262.604
179.4554, 1264.139
179.9375, 1266.419
180.4196, 1269.445
180.9017, 1273.272
181.3838, 1277.570
181.8660, 1282.581
182.3481, 1289.344
182.8302, 1300.397
183.3123, 1313.349
183.7944, 1322.107
184.2766, 1326.135
184.7587, 1328.606
185.2408, 1333.269
185.7229, 1339.842
186.2050, 1346.868
186.6871, 1353.952
187.1693, 1360.996
187.6514, 1367.279
188.1335, 1372.907
188.6156, 1377.627
189.0977, 1381.583
189.5798, 1384.674
190.0620, 1385.696
190.5441, 1384.015
191.0262, 1379.663
191.5083, 1373.023
191.9904, 1363.841
192.4725, 1352.756
192.9547, 1340.332
193.4368, 1326.422
193.9189, 1312.609
194.4010, 1299.754
194.8831, 1287.818
195.3652, 1275.946
195.8474, 1263.828
196.3295, 1252.171
196.8116, 1242.656
197.2937, 1235.487
197.7758, 1228.794
198.2579, 1221.378
198.7401, 1213.200
199.2222, 1205.909
199.7043, 1199.645
200.1864, 1194.389
200.6685, 1190.261
201.1507, 1187.407
201.6328, 1185.033
202.1149, 1182.751
202.5970, 1180.567
203.0791, 1178.301
203.5612, 1175.869
204.0434, 1173.427
204.5255, 1171.487
205.0076, 1170.155
205.4897, 1168.986
205.9718, 1167.672
206.4539, 1166.155
206.9361, 1164.885
207.4182, 1163.849
207.9003, 1163.123
208.3824, 1163.002
208.8645, 1163.670
209.3466, 1164.486
209.8288, 1165.064
210.3109, 1165.356
210.7930, 1165.688
211.2751, 1166.250
211.7572, 1166.834
212.2393, 1166.481
212.7215, 1164.668
213.2036, 1163.055
213.6857, 1162.801
214.1678, 1164.316
214.6499, 1165.772
215.1320, 1166.995
215.6142, 1168.041
216.0963, 1169.237
216.5784, 1170.816
217.0605, 1172.092
217.5426, 1172.507
218.0247, 1171.674
218.5069, 1171.099
218.9890, 1170.873
219.4711, 1171.014
219.9532, 1171.595
220.4353, 1172.679
220.9175, 1174.128
221.3996, 1175.912
221.8817, 1178.101
222.3638, 1180.494
222.8459, 1183.432
223.3280, 1186.614
223.8102, 1188.187
224.2923, 1187.447
224.7744, 1186.214
225.2565, 1185.466
225.7386, 1184.868
226.2207, 1185.604
226.7029, 1188.319
227.1850, 1192.529
227.6671, 1195.622
228.1492, 1197.269
228.6313, 1198.266
229.1134, 1198.956
229.5956, 1198.884
230.0777, 1199.584
230.5598, 1201.487
231.0419, 1204.312
231.5240, 1206.686
232.0062, 1208.462
232.4883, 1210.017
232.9704, 1211.493
233.4525, 1212.560
233.9346, 1214.334
234.4167, 1217.216
234.8989, 1220.904
235.3810, 1223.900
235.8631, 1225.696
236.3452, 1227.491
236.8273, 1230.000
237.3094, 1233.465
237.7916, 1237.060
238.2737, 1240.837
238.7558, 1244.708
239.2379, 1248.439
239.7200, 1252.196
240.2021, 1255.568
240.6843, 1258.272
241.1664, 1259.801
241.6485, 1261.800
242.1306, 1264.557
242.6127, 1267.863
243.0948, 1270.736
243.5770, 1272.744
244.0591, 1274.984
244.5412, 1278.157
245.0233, 1283.233
245.5054, 1287.109
245.9876, 1288.994
246.4697, 1289.724
246.9518, 1292.051
247.4339, 1296.634
247.9160, 1301.850
248.3981, 1306.965
248.8803, 1312.177
249.3624, 1316.756
249.8445, 1320.025
250.3266, 1322.797
250.8087, 1327.600
251.2908, 1335.825
251.7730, 1343.715
252.2551, 1349.275
252.7372, 1351.214
253.2193, 1354.250
253.7014, 1358.772
254.1835, 1364.180
254.6657, 1368.966
255.1478, 1372.547
255.6299, 1376.566
256.1120, 1382.216
256.5941, 1390.852
257.0763, 1396.488
257.5584, 1397.978
258.0405, 1397.275
258.5226, 1398.277
259.0047, 1401.637
259.4868, 1405.398
259.9690, 1408.898
260.4511, 1412.168
260.9332, 1414.890
261.4153, 1416.485
261.8974, 1418.068
262.3795, 1421.676
262.8617, 1428.144
263.3438, 1434.712
263.8259, 1440.723
264.3080, 1446.233
264.7901, 1450.327
265.2722, 1452.446
265.7544, 1453.797
266.2365, 1456.074
266.7186, 1459.461
267.2007, 1463.220
267.6828, 1467.538
268.1649, 1472.617
268.6471, 1475.326
269.1292, 1475.101
269.6113, 1473.499
270.0934, 1472.296
270.5755, 1471.469
271.0576, 1471.112
271.5398, 1471.291
272.0219, 1471.999
272.5040, 1473.012
272.9861, 1474.404
273.4682, 1475.905
273.9503, 1477.422
274.4325, 1479.089
274.9146, 1479.843
275.3967, 1478.903
275.8788, 1476.656
276.3610, 1476.604
276.8431, 1479.260
277.3252, 1482.542
277.8073, 1484.452
278.2894, 1484.867
278.7715, 1485.421
279.2537, 1486.413
279.7358, 1487.829
280.2179, 1489.982
280.7000, 1493.226
281.1821, 1495.702
281.6642, 1495.370
282.1464, 1492.212
282.6285, 1489.878
283.1106, 1489.064
283.5927, 1489.344
284.0748, 1489.778
284.5569, 1490.403
285.0391, 1490.722
285.5212, 1490.287
286.0033, 1489.130
286.4854, 1487.855
286.9675, 1486.547
287.4496, 1485.092
287.9318, 1483.239
288.4139, 1480.961
288.8960, 1478.518
289.3781, 1475.931
289.8602, 1473.254
290.3423, 1470.667
290.8245, 1468.117
291.3066, 1465.884
291.7887, 1464.661
292.2708, 1464.354
292.7529, 1464.030
293.2350, 1463.211
293.7172, 1461.996
294.1993, 1460.607
294.6814, 1458.996
295.1635, 1457.469
295.6456, 1456.212
296.1277, 1455.295
296.6099, 1455.082
297.0920, 1456.297
297.5741, 1458.204
298.0562, 1459.466
298.5383, 1460.055
299.0204, 1459.952
299.5026, 1458.649
299.9847, 1456.588
300.4668, 1454.894
300.9489, 1454.154
301.4311, 1454.002
301.9132, 1453.772
302.3953, 1453.501
302.8774, 1453.944
303.3595, 1456.705
303.8416, 1460.475
304.3238, 1462.935
304.8059, 1462.426
305.2880, 1461.151
305.7701, 1461.356
306.2522, 1462.858
306.7343, 1464.553
307.2165, 1465.522
307.6986, 1466.324
308.1807, 1467.655
308.6628, 1469.751
309.1449, 1472.313
309.6270, 1475.499
310.1092, 1479.072
310.5913, 1482.192
311.0734, 1484.026
311.5555, 1485.395
312.0376, 1486.843
312.5197, 1488.234
313.0019, 1490.328
313.4840, 1494.183
313.9661, 1499.065
314.4482, 1503.515
314.9303, 1506.430
315.4124, 1509.085
315.8946, 1512.172
316.3767, 1515.801
316.8588, 1519.850
317.3409, 1524.935
317.8230, 1530.290
318.3051, 1534.884
318.7873, 1537.360
319.2694, 1540.000
319.7515, 1544.052
320.2336, 1549.709
320.7157, 1554.844
321.1978, 1558.037
321.6800, 1560.764
322.1621, 1564.341
322.6442, 1569.764
323.1263, 1575.281
323.6084, 1579.913
324.0905, 1583.814
324.5727, 1589.506
325.0548, 1599.534
325.5369, 1610.017
326.0190, 1618.594
326.5012, 1622.506
326.9833, 1627.578
327.4654, 1635.166
327.9475, 1644.500
328.4296, 1652.338
328.9117, 1657.866
329.3939, 1662.602
329.8760, 1667.135
330.3581, 1671.235
330.8402, 1675.513
331.3223, 1679.961
331.8044, 1684.562
332.2866, 1689.351
332.7687, 1694.514
333.2508, 1699.470
333.7329, 1704.447
334.2150, 1710.035
334.6971, 1712.525
335.1793, 1710.892
335.6614, 1707.186
336.1435, 1704.151
336.6256, 1702.301
337.1077, 1699.790
337.5898, 1696.162
338.0720, 1691.458
338.5541, 1686.695
339.0362, 1681.847
339.5183, 1677.045
340.0004, 1672.611
340.4825, 1668.650
340.9647, 1664.125
341.4468, 1658.595
341.9289, 1652.546
342.4110, 1647.423
342.8931, 1643.298
343.3752, 1639.772
343.8574, 1636.878
344.3395, 1634.503
344.8216, 1631.562
345.3037, 1627.725
345.7858, 1623.623
346.2679, 1620.338
346.7501, 1617.802
347.2322, 1615.666
347.7143, 1614.009
348.1964, 1612.595
348.6785, 1610.617
349.1607, 1607.963
349.6428, 1605.063
350.1249, 1602.379
350.6070, 1599.838
351.0891, 1597.123
351.5713, 1593.959
352.0534, 1590.683
352.5355, 1587.526
353.0176, 1584.561
353.4997, 1582.281
353.9818, 1581.719
354.4640, 1581.977
354.9461, 1581.598
355.4282, 1579.706
355.9103, 1577.652
356.3924, 1576.753
356.8745, 1576.768
357.3567, 1576.741
357.8388, 1575.616
358.3209, 1574.505
358.8030, 1574.505
359.2851, 1576.192
359.7672, 1577.973
360.2494, 1578.864
360.7315, 1579.271
361.2136, 1579.928
361.6957, 1580.787
362.1778, 1582.226
362.6599, 1584.663
363.1421, 1588.269
363.6242, 1591.641
364.1063, 1593.829
364.5884, 1595.783
365.0705, 1598.456
365.5526, 1602.709
366.0348, 1606.961
366.5169, 1610.818
366.9990, 1614.289
367.4811, 1617.801
367.9632, 1620.817
368.4453, 1624.282
368.9275, 1628.748
369.4096, 1635.456
369.8917, 1641.400
370.3738, 1646.076
370.8559, 1649.992
371.3380, 1654.493
371.8202, 1660.039
372.3023, 1665.612
372.7844, 1670.641
373.2665, 1674.715
373.7487, 1679.967
374.2308, 1687.067
374.7129, 1694.687
375.1950, 1700.976
375.6771, 1705.431
376.1592, 1710.246
376.6414, 1716.072
377.1235, 1722.827
377.6056, 1729.838
378.0877, 1737.187
378.5698, 1744.755
379.0519, 1753.092
379.5341, 1762.151
380.0162, 1769.322
380.4983, 1773.528
380.9804, 1776.300
381.4625, 1781.257
381.9446, 1788.403
382.4268, 1795.088
382.9089, 1799.984
383.3910, 1803.167
383.8731, 1804.931
384.3552, 1805.195
384.8373, 1804.418
385.3195, 1803.181
385.8016, 1801.359
386.2837, 1798.551
386.7658, 1793.528
387.2479, 1787.969
387.7300, 1784.289
388.2122, 1782.426
388.6943, 1780.394
389.1764, 1776.119
389.6585, 1771.028
390.1406, 1766.995
390.6227, 1764.637
391.1049, 1763.317
391.5870, 1763.545
392.0691, 1764.663
392.5512, 1764.695
393.0333, 1761.032
393.5154, 1757.180
393.9976, 1755.549
394.4797, 1757.043
394.9618, 1758.775
395.4439, 1760.043
395.9260, 1760.969
396.4081, 1761.711
396.8903, 1761.891
397.3724, 1762.326
397.8545, 1763.121
398.3366, 1764.273
398.8188, 1766.186
399.3009, 1770.066
399.7830, 1773.934
400.2651, 1776.495
400.7472, 1776.438
401.2293, 1777.041
401.7115, 1778.734
402.1936, 1781.159
402.6757, 1783.138
403.1578, 1784.069
403.6399, 1785.594
404.1220, 1788.724
404.6042, 1794.006
405.0863, 1797.680
405.5684, 1799.384
406.0505, 1799.992
406.5326, 1800.481
407.0147, 1800.826
407.4969, 1801.331
407.9790, 1802.349
408.4611, 1803.549
408.9432, 1803.162
409.4253, 1801.022
409.9074, 1799.172
410.3896, 1799.412
410.8717, 1801.370
411.3538, 1803.600
411.8359, 1806.160
412.3180, 1808.187
412.8001, 1808.065
413.2823, 1806.199
413.7644, 1804.221
414.2465, 1802.330
414.7286, 1801.097
415.2107, 1801.716
415.6928, 1804.279
416.1750, 1806.735
416.6571, 1807.363
417.1392, 1806.961
417.6213, 1806.619
418.1034, 1806.573
418.5855, 1806.814
419.0677, 1807.215
419.5498, 1807.872
420.0319, 1809.118
420.5140, 1811.698
420.9961, 1814.498
421.4782, 1816.758
421.9604, 1817.990
422.4425, 1819.707
422.9246, 1822.898
423.4067, 1826.552
423.8889, 1829.324
424.3710, 1829.247
424.8531, 1830.153
425.3352, 1833.295
425.8173, 1838.678
426.2994, 1843.138
426.7816, 1845.953
427.2637, 1848.538
427.7458, 1851.896
428.2279, 1856.698
428.7100, 1860.648
429.1921, 1863.175
429.6743, 1865.017
430.1564, 1867.954
430.6385, 1872.317
431.1206, 1876.480
431.6027, 1879.459
432.0848, 1881.371
432.5670, 1884.454
433.0491, 1888.816
433.5312, 1893.975
434.0133, 1899.867
434.4954, 1906.339
434.9775, 1912.342
435.4597, 1917.616
435.9418, 1922.313
436.4239, 1926.404
436.9060, 1929.941
437.3881, 1933.455
437.8702, 1938.174
438.3524, 1942.736
438.8345, 1945.124
439.3166, 1945.015
439.7987, 1943.378
440.2808, 1940.495
440.7629, 1936.644
441.2451, 1932.298
441.7272, 1926.668
442.2093, 1921.447
442.6914, 1917.769
443.1735, 1915.449
443.6556, 1913.179
444.1378, 1910.010
444.6199, 1907.081
445.1020, 1905.118
445.5841, 1904.298
446.0662, 1904.372
446.5483, 1905.324
447.0305, 1907.189
447.5126, 1910.065
447.9947, 1914.913
448.4768, 1919.542
448.9590, 1923.325
449.4411, 1926.211
449.9232, 1929.605
450.4053, 1933.611
450.8874, 1937.968
451.3695, 1942.350
451.8517, 1946.613
452.3338, 1951.648
452.8159, 1957.784
453.2980, 1964.324
453.7801, 1969.806
454.2622, 1974.098
454.7444, 1978.480
455.2265, 1982.888
455.7086, 1987.781
456.1907, 1995.434
456.6728, 2006.143
457.1549, 2017.219
457.6371, 2026.221
458.1192, 2033.842
458.6013, 2042.073
459.0834, 2051.558
459.5655, 2061.363
460.0476, 2070.691
460.5298, 2079.542
461.0119, 2087.434
461.4940, 2093.499
461.9761, 2099.149
462.4582, 2106.015
462.9403, 2114.478
463.4225, 2121.345
463.9046, 2126.852
464.3867, 2129.336
464.8688, 2127.116
465.3509, 2117.126
465.8330, 2105.508
466.3152, 2092.899
466.7973, 2079.536
467.2794, 2066.277
467.7615, 2051.681
468.2436, 2038.493
468.7257, 2027.767
469.2079, 2020.115
469.6900, 2012.569
470.1721, 2004.690
470.6542, 1997.442
471.1363, 1991.775
471.6184, 1987.710
472.1006, 1985.255
472.5827, 1984.857
473.0648, 1985.794
473.5469, 1985.986
474.0291, 1985.427
474.5112, 1984.290
474.9933, 1982.131
475.4754, 1979.375
475.9575, 1977.972
476.4396, 1978.086
476.9218, 1978.845
477.4039, 1979.330
477.8860, 1979.740
478.3681, 1980.608
478.8502, 1982.505
479.3323, 1984.396
479.8145, 1984.882
480.2966, 1984.366
480.7787, 1984.359
481.2608, 1985.993
481.7429, 1988.131
482.2250, 1990.131
482.7072, 1991.979
483.1893, 1993.255
483.6714, 1993.658
484.1535, 1993.493
484.6356, 1993.077
485.1177, 1992.303
485.5999, 1991.517
486.0820, 1990.266
486.5641, 1988.981
487.0462, 1989.330
487.5283, 1992.616
488.0104, 1995.858
488.4926, 1997.887
488.9747, 1998.489
489.4568, 1999.161
489.9389, 1999.788
490.4210, 2000.689
490.9031, 2002.403
491.3853, 2005.001
491.8674, 2007.125
492.3495, 2008.336
492.8316, 2009.048
493.3137, 2009.872
493.7958, 2010.849
494.2780, 2012.597
494.7601, 2016.222
495.2422, 2020.650
495.7243, 2023.562
496.2064, 2024.830
496.6885, 2025.951
497.1707, 2027.986
497.6528, 2030.704
498.1349, 2033.910
498.6170, 2038.484
499.0992, 2042.184
499.5813, 2042.911
500.0634, 2041.818
500.5455, 2041.753
501.0276, 2045.029
501.5097, 2048.276
501.9919, 2049.904
502.4740, 2049.480
502.9561, 2049.754
503.4382, 2051.398
503.9203, 2053.491
504.4024, 2055.564
504.8846, 2058.352
505.3667, 2059.361
505.8488, 2057.217
506.3309, 2053.987
506.8130, 2054.563
507.2951, 2059.777
507.7773, 2065.096
508.2594, 2068.904
508.7415, 2071.383
509.2236, 2073.667
509.7057, 2075.762
510.1878, 2077.652
510.6700, 2079.152
511.1521, 2080.448
511.6342, 2082.191
512.1163, 2084.587
512.5984, 2087.018
513.0806, 2088.547
513.5627, 2089.626
514.0448, 2091.194
514.5269, 2094.164
515.0090, 2097.331
515.4911, 2099.671
515.9733, 2101.345
516.4554, 2103.472
516.9375, 2106.705
517.4196, 2110.344
517.9017, 2114.073
518.3839, 2118.143
518.8660, 2121.559
519.3481, 2123.901
519.8302, 2125.652
520.3123, 2127.185
520.7944, 2127.941
521.2766, 2129.597
521.7587, 2132.728
522.2408, 2136.935
522.7229, 2140.831
523.2050, 2144.520
523.6871, 2147.662
524.1693, 2149.531
524.6514, 2150.331
525.1335, 2153.076
525.6156, 2157.946
526.0977, 2163.760
526.5798, 2170.198
527.0620, 2176.746
527.5441, 2181.516
528.0262, 2183.320
528.5083, 2184.682
528.9904, 2188.448
529.4725, 2193.841
529.9547, 2199.000
530.4368, 2202.963
530.9189, 2206.321
531.4010, 2209.051
531.8831, 2211.211
532.3652, 2213.894
532.8474, 2218.802
533.3295, 2223.449
533.8116, 2226.248
534.2937, 2225.715
534.7758, 2225.561
535.2579, 2227.038
535.7401, 2228.407
536.2222, 2226.941
536.7043, 2221.294
537.1864, 2215.971
537.6685, 2211.833
538.1506, 2208.798
538.6328, 2206.734
539.1149, 2205.749
539.5970, 2205.104
540.0791, 2204.145
540.5612, 2203.095
541.0433, 2203.379
541.5255, 2205.173
542.0076, 2206.925
542.4897, 2206.535
542.9718, 2205.032
543.4539, 2204.578
543.9360, 2206.190
544.4182, 2208.188
544.9003, 2208.693
545.3824, 2208.552
545.8645, 2209.677
546.3466, 2214.595
546.8287, 2219.342
547.3109, 2221.649
547.7930, 2221.348
548.2751, 2221.877
548.7572, 2224.812
549.2393, 2227.890
549.7214, 2229.928
550.2036, 2230.682
550.6857, 2230.914
551.1678, 2230.223
551.6499, 2229.475
552.1320, 2230.146
552.6141, 2232.582
553.0963, 2234.260
553.5784, 2234.293
554.0605, 2233.495
554.5426, 2234.113
555.0247, 2236.082
555.5068, 2238.129
555.9890, 2239.219
556.4711, 2239.950
556.9532, 2241.362
557.4353, 2243.483
557.9174, 2245.987
558.3995, 2249.048
558.8817, 2252.117
559.3638, 2254.500
559.8459, 2255.540
560.3281, 2256.823
560.8102, 2259.208
561.2923, 2262.178
561.7744, 2264.901
562.2565, 2267.437
562.7386, 2269.476
563.2208, 2270.493
563.7029, 2270.784
564.1850, 2272.691
564.6671, 2277.449
565.1492, 2281.620
565.6313, 2283.182
566.1135, 2281.863
566.5956, 2281.488
567.0777, 2282.095
567.5598, 2283.524
568.0419, 2285.757
568.5240, 2288.694
569.0062, 2292.138
569.4883, 2296.252
569.9704, 2300.258
570.4525, 2303.131
570.9346, 2305.094
571.4167, 2306.600
571.8989, 2306.868
572.3810, 2307.633
572.8631, 2310.690
573.3452, 2315.643
573.8273, 2319.913
574.3094, 2322.300
574.7916, 2323.905
575.2737, 2325.153
575.7558, 2325.764
576.2379, 2327.053
576.7200, 2329.346
577.2021, 2332.041
577.6843, 2334.488
578.1664, 2336.157
578.6485, 2339.218
579.1306, 2344.448
579.6127, 2350.556
580.0948, 2354.970
580.5770, 2357.663
581.0591, 2360.329
581.5412, 2364.001
582.0233, 2367.841
582.5054, 2369.640
582.9875, 2369.623
583.4697, 2369.664
583.9518, 2370.759
584.4339, 2372.723
584.9160, 2375.401
585.3981, 2378.799
585.8802, 2382.837
586.3624, 2389.180
586.8445, 2395.310
587.3266, 2398.879
587.8087, 2395.845
588.2908, 2394.833
588.7729, 2398.173
589.2551, 2403.761
589.7372, 2408.048
590.2193, 2410.143
590.7014, 2412.687
591.1835, 2416.406
591.6656, 2421.044
592.1478, 2425.151
592.6299, 2428.552
593.1120, 2432.281
593.5941, 2437.122
594.0762, 2442.781
594.5583, 2448.294
595.0405, 2453.577
595.5226, 2458.745
596.0047, 2463.188
596.4868, 2467.798
596.9689, 2474.175
597.4510, 2483.341
597.9332, 2492.664
598.4153, 2500.472
598.8974, 2507.530
599.3795, 2515.219
599.8616, 2524.135
600.3438, 2533.535
600.8259, 2542.995
601.3080, 2552.740
601.7901, 2563.529
602.2722, 2575.384
602.7543, 2588.054
603.2365, 2601.572
603.7186, 2615.793
604.2007, 2630.806
604.6828, 2646.499
605.1649, 2662.563
605.6470, 2678.641
606.1292, 2694.683
606.6113, 2711.477
607.0934, 2728.855
607.5755, 2746.477
608.0576, 2763.836
608.5398, 2781.026
609.0219, 2797.814
609.5040, 2814.153
609.9861, 2830.452
610.4683, 2846.693
610.9504, 2863.107
611.4325, 2880.428
611.9146, 2898.362
612.3967, 2917.627
612.8788, 2940.262
613.3610, 2965.548
613.8431, 2986.569
614.3252, 3002.038
614.8073, 3015.232
615.2894, 3028.280
615.7715, 3041.255
616.2537, 3051.476
616.7358, 3059.057
617.2179, 3063.063
617.7000, 3062.418
618.1821, 3057.236
618.6642, 3047.907
619.1464, 3033.990
619.6285, 3017.131
620.1106, 2997.270
620.5927, 2975.856
621.0748, 2955.495
621.5569, 2935.630
622.0391, 2918.330
622.5212, 2904.410
623.0033, 2893.647
623.4854, 2885.309
623.9675, 2878.380
624.4496, 2875.043
624.9318, 2876.542
625.4139, 2882.831
625.8960, 2889.374
626.3781, 2895.226
626.8602, 2903.456
627.3423, 2915.786
627.8245, 2932.203
628.3066, 2952.238
628.7887, 2975.941
629.2708, 3002.736
629.7529, 3033.245
630.2350, 3066.130
630.7172, 3098.652
631.1993, 3129.258
631.6814, 3161.823
632.1635, 3200.781
632.6456, 3243.350
633.1277, 3285.765
633.6099, 3326.550
634.0920, 3367.120
634.5741, 3408.111
635.0562, 3449.283
635.5383, 3491.080
636.0204, 3532.297
636.5026, 3575.886
636.9847, 3623.112
637.4668, 3673.724
637.9489, 3726.274
638.4310, 3781.696
638.9131, 3837.038
639.3953, 3889.882
639.8774, 3941.478
640.3595, 3997.047
640.8416, 4057.375
641.3237, 4117.524
641.8058, 4173.613
642.2880, 4225.357
642.7701, 4271.917
643.2522, 4315.908
643.7343, 4348.269
644.2164, 4368.860
644.6985, 4374.044
645.1807, 4358.846
645.6628, 4317.777
646.1449, 4260.811
646.6270, 4187.216
647.1091, 4099.616
647.5912, 4005.700
648.0734, 3902.306
648.5555, 3798.970
649.0376, 3695.636
649.5197, 3594.117
650.0018, 3503.358
650.4839, 3422.193
650.9661, 3348.984
651.4482, 3281.815
651.9303, 3221.282
652.4124, 3168.245
652.8945, 3122.704
653.3766, 3083.071
653.8588, 3050.526
654.3409, 3022.210
654.8230, 2995.135
655.3051, 2968.055
655.7872, 2945.017
656.2693, 2928.714
656.7515, 2915.913
657.2336, 2903.383
657.7158, 2890.144
658.1979, 2879.405
658.6800, 2872.089
659.1621, 2866.509
659.6442, 2859.552
660.1263, 2851.186
660.6085, 2843.504
661.0906, 2837.259
661.5727, 2831.942
662.0548, 2826.258
662.5369, 2820.530
663.0190, 2816.026
663.5012, 2814.773
663.9833, 2814.003
664.4654, 2811.683
664.9475, 2807.923
665.4296, 2803.685
665.9117, 2797.831
666.3939, 2792.930
666.8760, 2790.696
667.3581, 2791.617
667.8402, 2791.974
668.3223, 2791.672
668.8044, 2791.027
669.2866, 2790.482
669.7687, 2790.081
670.2508, 2787.728
670.7329, 2782.688
671.2150, 2778.271
671.6971, 2778.799
672.1793, 2782.804
672.6614, 2786.806
673.1435, 2790.485
673.6256, 2792.614
674.1077, 2790.562
674.5898, 2786.727
675.0720, 2784.860
675.5541, 2788.413
676.0362, 2791.516
676.5183, 2792.481
677.0004, 2791.865
677.4825, 2791.155
677.9647, 2790.075
678.4468, 2789.578
678.9289, 2790.001
679.4110, 2791.260
679.8931, 2793.157
680.3752, 2795.769
680.8574, 2797.930
681.3395, 2798.186
681.8216, 2797.733
682.3037, 2799.475
682.7858, 2803.264
683.2679, 2806.796
683.7501, 2808.578
684.2322, 2809.384
684.7143, 2809.640
685.1964, 2809.203
685.6785, 2809.327
686.1606, 2810.153
686.6428, 2811.776
687.1249, 2814.382
687.6070, 2818.913
688.0891, 2822.160
688.5712, 2823.739
689.0533, 2824.723
689.5355, 2826.412
690.0176, 2828.817
690.4997, 2831.333
690.9818, 2834.000
691.4639, 2836.417
691.9460, 2837.629
692.4282, 2838.137
692.9103, 2839.054
693.3924, 2841.403
693.8745, 2843.530
694.3566, 2843.507
694.8387, 2842.512
695.3209, 2843.350
695.8030, 2847.582
696.2851, 2852.698
696.7672, 2858.861
697.2493, 2865.547
697.7314, 2869.562
698.2136, 2870.101
698.6957, 2870.589
699.1778, 2872.730
699.6599, 2876.036
700.1420, 2878.165
700.6241, 2879.196
701.1063, 2880.206
701.5884, 2882.592
702.0705, 2885.078
702.5526, 2885.476
703.0347, 2883.666
703.5168, 2883.022
703.9990, 2886.376
704.4811, 2890.685
704.9632, 2893.925
705.4453, 2895.809
705.9274, 2896.646
706.4095, 2895.249
706.8917, 2894.143
707.3738, 2895.978
707.8560, 2901.186
708.3381, 2904.956
708.8202, 2906.774
709.3023, 2907.706
709.7844, 2908.965
710.2665, 2910.422
710.7487, 2911.521
711.2308, 2911.604
711.7129, 2912.654
712.1950, 2917.500
712.6771, 2924.013
713.1592, 2928.996
713.6414, 2929.940
714.1235, 2930.947
714.6056, 2932.819
715.0877, 2935.339
715.5698, 2938.212
716.0519, 2941.842
716.5341, 2944.499
717.0162, 2945.040
717.4983, 2944.807
717.9804, 2948.178
718.4625, 2954.917
718.9446, 2961.440
719.4268, 2966.199
719.9089, 2969.606
720.3910, 2972.194
720.8731, 2973.922
721.3552, 2974.724
721.8373, 2972.917
722.3195, 2971.643
722.8016, 2973.296
723.2837, 2977.995
723.7658, 2980.871
724.2479, 2980.680
724.7300, 2980.103
725.2122, 2980.161
725.6943, 2980.860
726.1764, 2982.695
726.6585, 2985.846
727.1406, 2989.124
727.6227, 2991.762
728.1049, 2993.828
728.5870, 2995.293
729.0691, 2996.136
729.5512, 2996.886
730.0333, 2997.764
730.5154, 2998.812
730.9976, 2999.976
731.4797, 3001.065
731.9618, 3002.850
732.4439, 3005.923
732.9260, 3009.433
733.4081, 3012.964
733.8903, 3016.895
734.3724, 3019.315
734.8545, 3019.612
735.3366, 3019.606
735.8187, 3021.726
736.3008, 3025.603
736.7830, 3029.589
737.2651, 3033.365
737.7472, 3037.078
738.2293, 3040.663
738.7114, 3044.292
739.1935, 3048.234
739.6757, 3053.894
740.1578, 3058.133
740.6399, 3058.644
741.1220, 3057.531
741.6041, 3058.582
742.0862, 3063.028
742.5684, 3066.841
743.0505, 3069.321
743.5326, 3070.870
744.0147, 3072.142
744.4968, 3073.176
744.9789, 3074.716
745.4611, 3077.337
745.9432, 3080.247
746.4253, 3082.566
746.9074, 3084.377
747.3895, 3085.841
747.8716, 3086.956
748.3538, 3087.912
748.8359, 3088.473
749.3180, 3088.934
749.8001, 3090.531
750.2822, 3093.823
750.7643, 3097.484
751.2465, 3101.508
751.7286, 3105.569
752.2107, 3107.335
752.6928, 3106.765
753.1749, 3106.680
753.6570, 3108.623
754.1392, 3112.042
754.6213, 3116.113
755.1034, 3120.844
755.5855, 3126.198
756.0676, 3134.150
756.5498, 3140.993
757.0319, 3143.695
757.5140, 3141.925
757.9962, 3142.271
758.4783, 3146.392
758.9604, 3150.679
759.4425, 3153.411
759.9246, 3154.602
760.4067, 3156.518
760.8889, 3159.185
761.3710, 3162.224
761.8531, 3165.182
762.3352, 3168.396
762.8173, 3173.556
763.2994, 3180.587
763.7816, 3185.142
764.2637, 3181.642
764.7458, 3176.725
765.2279, 3175.545
765.7100, 3179.512
766.1921, 3182.901
766.6743, 3185.132
767.1564, 3187.067
767.6385, 3189.180
768.1206, 3191.488
768.6027, 3194.183
769.0848, 3197.407
769.5670, 3200.089
770.0491, 3200.266
770.5312, 3199.429
771.0133, 3201.023
771.4954, 3205.664
771.9775, 3209.944
772.4597, 3211.423
772.9418, 3211.727
773.4239, 3212.230
773.9060, 3213.280
774.3881, 3214.063
774.8702, 3214.202
775.3524, 3214.505
775.8345, 3215.888
776.3166, 3218.532
776.7987, 3220.199
777.2808, 3220.539
777.7629, 3221.074
778.2451, 3223.791
778.7272, 3227.829
779.2093, 3231.690
779.6914, 3235.239
780.1735, 3237.733
780.6556, 3236.801
781.1378, 3235.567
781.6199, 3237.202
782.1020, 3245.452
782.5841, 3250.898
783.0662, 3252.265
783.5483, 3252.187
784.0305, 3253.295
784.5126, 3255.599
784.9947, 3259.202
785.4768, 3264.585
785.9589, 3269.050
786.4410, 3267.624
786.9232, 3263.471
787.4053, 3262.593
787.8874, 3267.570
788.3695, 3272.913
788.8516, 3275.415
789.3337, 3277.153
789.8159, 3280.659
790.2980, 3288.394
790.7801, 3293.648
791.2622, 3295.333
791.7443, 3295.651
792.2264, 3297.512
792.7086, 3300.823
793.1907, 3303.540
793.6728, 3305.257
794.1549, 3306.688
794.6370, 3308.635
795.1191, 3310.878
795.6013, 3313.135
796.0834, 3315.660
796.5655, 3317.565
797.0476, 3316.925
797.5297, 3316.327
798.0118, 3319.059
798.4940, 3327.265
798.9761, 3333.902
799.4582, 3338.248
799.9403, 3341.306
800.4224, 3344.372
800.9045, 3347.406
801.3867, 3350.306
801.8688, 3353.052
802.3509, 3355.574
802.8330, 3357.625
803.3151, 3359.431
803.7972, 3361.274
804.2794, 3363.146
804.7615, 3365.190
805.2436, 3368.350
805.7258, 3371.180
806.2079, 3371.745
806.6900, 3368.997
807.1721, 3368.369
807.6542, 3370.872
808.1364, 3374.351
808.6185, 3376.383
809.1006, 3377.033
809.5827, 3376.153
810.0648, 3373.139
810.5469, 3370.528
811.0291, 3369.922
811.5112, 3370.887
811.9933, 3372.954
812.4754, 3377.331
812.9575, 3380.765
813.4396, 3382.961
813.9218, 3384.347
814.4039, 3385.422
814.8860, 3386.237
815.3681, 3386.081
815.8502, 3384.650
816.3323, 3383.384
816.8145, 3384.142
817.2966, 3386.238
817.7787, 3388.427
818.2608, 3390.356
818.7429, 3392.746
819.2250, 3396.024
819.7072, 3399.898
820.1893, 3404.261
820.6714, 3410.477
821.1535, 3413.789
821.6356, 3412.995
822.1177, 3411.409
822.5999, 3413.022
823.0820, 3417.247
823.5641, 3419.981
824.0462, 3420.561
824.5283, 3421.192
825.0104, 3424.221
825.4926, 3428.246
825.9747, 3431.447
826.4568, 3432.942
826.9389, 3435.383
827.4210, 3441.074
827.9031, 3446.547
828.3853, 3449.137
828.8674, 3447.770
829.3495, 3449.000
829.8316, 3453.417
830.3137, 3458.000
830.7958, 3458.977
831.2780, 3458.104
831.7601, 3459.753
832.2422, 3464.528
832.7243, 3468.271
833.2064, 3465.892
833.6885, 3463.228
834.1707, 3465.547
834.6528, 3475.576
835.1349, 3481.247
835.6170, 3480.624
836.0991, 3478.970
836.5812, 3479.929
837.0634, 3483.245
837.5455, 3484.613
838.0276, 3483.970
838.5097, 3484.229
838.9918, 3488.590
839.4739, 3494.376
839.9561, 3498.690
840.4382, 3501.339
840.9203, 3503.736
841.4024, 3506.777
841.8845, 3509.153
842.3666, 3510.119
842.8488, 3509.713
843.3309, 3509.780
843.8130, 3510.320
844.2951, 3511.484
844.7772, 3513.938
845.2593, 3516.967
845.7415, 3518.733
846.2236, 3519.456
846.7057, 3520.136
847.1878, 3520.501
847.6699, 3521.796
848.1520, 3525.754
848.6342, 3531.829
849.1163, 3535.228
849.5984, 3534.491
850.0805, 3533.613
850.5626, 3533.490
851.0447, 3534.316
851.5269, 3537.321
852.0090, 3542.227
852.4911, 3546.923
852.9732, 3550.335
853.4553, 3553.015
853.9374, 3555.151
854.4196, 3556.954
854.9017, 3558.994
855.3839, 3562.290
855.8660, 3564.667
856.3481, 3565.300
856.8302, 3564.999
857.3123, 3565.593
857.7944, 3567.163
858.2766, 3568.677
858.7587, 3569.600
859.2408, 3571.043
859.7229, 3576.427
860.2050, 3583.305
860.6871, 3586.325
861.1693, 3580.532
861.6514, 3575.766
862.1335, 3575.833
862.6156, 3579.063
863.0977, 3583.242
863.5798, 3589.315
864.0620, 3593.422
864.5441, 3594.657
865.0262, 3595.322
865.5083, 3599.360
865.9904, 3605.281
866.4725, 3608.008
866.9547, 3606.036
867.4368, 3604.322
867.9189, 3606.156
868.4010, 3609.993
868.8831, 3614.655
869.3652, 3621.001
869.8474, 3625.462
870.3295, 3627.587
870.8116, 3628.569
871.2937, 3628.833
871.7758, 3628.560
872.2579, 3629.733
872.7401, 3632.454
873.2222, 3635.549
873.7043, 3638.959
874.1864, 3641.722
874.6685, 3642.321
875.1506, 3640.635
875.6328, 3640.016
876.1149, 3642.395
876.5970, 3644.789
877.0791, 3646.059
877.5612, 3646.320
878.0433, 3646.323
878.5255, 3645.988
879.0076, 3647.271
879.4897, 3652.639
879.9718, 3659.438
880.4539, 3664.125
880.9360, 3667.027
881.4182, 3669.239
881.9003, 3670.523
882.3824, 3671.943
882.8645, 3673.722
883.3466, 3675.914
883.8287, 3678.935
884.3109, 3683.058
884.7930, 3686.260
885.2751, 3687.612
885.7572, 3688.432
886.2393, 3691.379
886.7214, 3695.528
887.2036, 3698.484
887.6857, 3698.128
888.1678, 3698.562
888.6499, 3703.505
889.1320, 3709.401
889.6141, 3711.230
890.0963, 3706.365
890.5784, 3704.796
891.0605, 3708.066
891.5426, 3712.545
892.0247, 3713.481
892.5068, 3712.279
892.9890, 3713.111
893.4711, 3716.676
893.9532, 3721.384
894.4353, 3728.041
894.9174, 3734.048
895.3995, 3736.799
895.8817, 3734.869
896.3638, 3735.138
896.8459, 3738.343
897.3280, 3742.136
897.8101, 3744.398
898.2922, 3745.792
898.7744, 3750.573
899.2565, 3758.410
899.7386, 3766.128
900.2207, 3773.225
900.7028, 3778.112
901.1849, 3777.998
901.6671, 3773.820
902.1492, 3772.841
902.6313, 3778.013
903.1134, 3782.496
903.5955, 3784.323
904.0776, 3784.481
904.5598, 3785.884
905.0419, 3788.371
905.5240, 3790.380
906.0062, 3790.953
906.4883, 3791.565
906.9704, 3793.985
907.4525, 3797.253
907.9346, 3799.831
908.4167, 3799.943
908.8989, 3801.336
909.3810, 3804.610
909.8631, 3808.761
910.3452, 3812.855
910.8273, 3816.812
911.3094, 3819.526
911.7916, 3820.706
912.2737, 3821.791
912.7558, 3824.429
913.2379, 3827.495
913.7200, 3829.340
914.2021, 3829.120
914.6843, 3831.263
915.1664, 3838.967
915.6485, 3845.992
916.1306, 3848.710
916.6127, 3847.422
917.0948, 3846.803
917.5770, 3846.865
918.0591, 3847.789
918.5412, 3850.028
919.0233, 3852.932
919.5054, 3856.058
919.9875, 3859.269
920.4697, 3862.229
920.9518, 3865.328
921.4339, 3867.377
921.9160, 3867.460
922.3981, 3866.690
922.8802, 3868.260
923.3624, 3872.052
923.8445, 3875.285
924.3266, 3877.156
924.8087, 3878.188
925.2908, 3878.450
925.7729, 3878.477
926.2551, 3879.038
926.7372, 3880.252
927.2193, 3882.371
927.7014, 3886.401
928.1835, 3890.375
928.6656, 3892.427
929.1478, 3892.606
929.6299, 3892.057
930.1120, 3890.759
930.5941, 3890.704
931.0762, 3894.603
931.5583, 3900.042
932.0405, 3904.178
932.5226, 3906.714
933.0047, 3910.699
933.4868, 3919.608
933.9689, 3926.352
934.4510, 3927.288
934.9332, 3924.013
935.4153, 3925.053
935.8974, 3930.199
936.3795, 3935.853
936.8616, 3940.804
937.3438, 3944.883
937.8259, 3947.679
938.3080, 3949.500
938.7901, 3950.919
939.2722, 3951.669
939.7543, 3952.565
940.2365, 3953.486
940.7186, 3954.824
941.2007, 3957.326
941.6828, 3960.906
942.1649, 3964.442
942.6470, 3967.931
943.1292, 3970.630
943.6113, 3969.631
944.0934, 3968.944
944.5755, 3973.734
945.0576, 3986.301
945.5397, 3994.297
946.0219, 3994.622
946.5040, 3994.140
946.9861, 3996.978
947.4682, 4002.121
947.9503, 4001.950
948.4324, 3997.245
948.9146, 3994.680
949.3967, 4001.352
949.8788, 4008.658
950.3609, 4008.971
950.8430, 4004.785
951.3251, 4003.835
951.8073, 4008.635
952.2894, 4013.293
952.7715, 4017.279
953.2536, 4020.293
953.7357, 4021.637
954.2179, 4021.557
954.7000, 4020.642
955.1821, 4018.667
955.6642, 4017.782
956.1464, 4020.409
956.6285, 4024.231
957.1106, 4027.221
957.5927, 4029.094
958.0748, 4030.430
958.5569, 4030.787
959.0391, 4031.690
959.5212, 4034.813
960.0033, 4039.082
960.4854, 4040.731
960.9675, 4040.281
961.4496, 4040.800
961.9318, 4045.271
962.4139, 4049.733
962.8960, 4051.120
963.3781, 4051.092
963.8602, 4054.983
964.3423, 4064.619
964.8245, 4070.193
965.3066, 4069.079
965.7887, 4065.178
966.2708, 4062.300
966.7529, 4061.237
967.2350, 4064.328
967.7172, 4073.823
968.1993, 4081.372
968.6814, 4082.295
969.1635, 4081.421
969.6456, 4082.055
970.1277, 4084.306
970.6099, 4085.809
971.0920, 4086.376
971.5741, 4087.821
972.0562, 4091.530
972.5383, 4096.617
973.0204, 4102.862
973.5026, 4109.665
973.9847, 4114.977
974.4668, 4117.477
974.9489, 4119.068
975.4310, 4119.794
975.9131, 4120.228
976.3953, 4121.595
976.8774, 4123.877
977.3595, 4126.052
977.8416, 4127.684
978.3237, 4130.174
978.8058, 4136.692
979.2880, 4143.794
979.7701, 4147.436
980.2522, 4145.564
980.7343, 4144.960
981.2164, 4145.976
981.6985, 4148.054
982.1807, 4151.523
982.6628, 4155.745
983.1449, 4157.433
983.6270, 4156.973
984.1091, 4156.953
984.5912, 4158.702
985.0734, 4161.385
985.5555, 4165.380
986.0376, 4169.827
986.5197, 4172.536
987.0018, 4172.889
987.4839, 4173.405
987.9661, 4174.282
988.4482, 4176.091
988.9303, 4180.803
989.4124, 4186.705
989.8945, 4190.129
990.3766, 4190.080
990.8588, 4190.373
991.3409, 4193.690
991.8230, 4196.846
992.3051, 4197.622
992.7872, 4196.177
993.2693, 4196.990
993.7515, 4200.128
994.2336, 4203.158
994.7157, 4203.907
995.1978, 4204.500
995.6799, 4207.891
996.1620, 4212.979
996.6442, 4217.240
997.1263, 4219.727
997.6084, 4221.317
998.0905, 4221.389
998.5726, 4221.448
999.0547, 4223.756
999.5369, 4227.943
1000.019, 4232.159
1000.501, 4236.307
1000.983, 4238.468
1001.465, 4235.173
1001.947, 4231.067
1002.430, 4229.792
1002.912, 4231.663
1003.394, 4233.980
1003.876, 4237.210
1004.358, 4239.464
1004.840, 4239.487
1005.322, 4238.840
1005.804, 4240.758
1006.287, 4244.479
1006.769, 4248.207
1007.251, 4251.771
1007.733, 4254.434
1008.215, 4255.154
1008.697, 4255.460
1009.179, 4256.679
1009.661, 4258.833
1010.143, 4261.674
1010.626, 4265.299
1011.108, 4268.229
1011.590, 4268.067
1012.072, 4267.542
1012.554, 4269.711
1013.036, 4274.369
1013.518, 4278.717
1014.000, 4282.189
1014.483, 4285.661
1014.965, 4289.703
1015.447, 4293.418
1015.929, 4294.276
1016.411, 4293.194
1016.893, 4293.532
1017.375, 4296.369
1017.857, 4299.974
1018.339, 4303.909
1018.822, 4307.663
1019.304, 4310.742
1019.786, 4313.007
1020.268, 4315.497
1020.750, 4318.239
1021.232, 4320.720
1021.714, 4323.132
1022.196, 4324.714
1022.679, 4323.214
1023.161, 4319.831
1023.643, 4318.072
1024.125, 4320.669
1024.607, 4322.993
1025.089, 4324.081
1025.571, 4324.872
1026.053, 4326.747
1026.535, 4329.607
1027.018, 4332.732
1027.500, 4336.099
1027.982, 4339.202
1028.464, 4342.064
1028.946, 4344.220
1029.428, 4344.922
1029.910, 4344.182
1030.392, 4344.166
1030.875, 4344.961
1031.357, 4346.079
1031.839, 4347.425
1032.321, 4348.803
1032.803, 4348.780
1033.285, 4348.667
1033.767, 4351.524
1034.249, 4360.363
1034.731, 4368.000
1035.214, 4373.213
1035.696, 4376.146
1036.178, 4376.030
1036.660, 4372.943
1037.142, 4372.405
1037.624, 4374.396
1038.106, 4376.936
1038.588, 4379.859
1039.071, 4381.818
1039.553, 4380.366
1040.035, 4377.107
1040.517, 4377.625
1040.999, 4384.110
1041.481, 4388.658
1041.963, 4389.544
1042.445, 4389.833
1042.927, 4393.524
1043.410, 4399.604
1043.892, 4406.584
1044.374, 4414.447
1044.856, 4421.120
1045.338, 4426.651
1045.820, 4429.580
1046.302, 4427.616
1046.784, 4422.554
1047.266, 4425.403
1047.749, 4435.351
1048.231, 4442.761
1048.713, 4442.336
1049.195, 4440.519
1049.677, 4442.579
1050.159, 4446.308
1050.641, 4448.570
1051.123, 4448.135
1051.606, 4449.429
1052.088, 4452.949
1052.570, 4456.650
1053.052, 4458.854
1053.534, 4460.305
1054.016, 4462.632
1054.498, 4465.589
1054.980, 4467.792
1055.463, 4468.447
1055.945, 4468.429
1056.427, 4467.182
1056.909, 4466.106
1057.391, 4467.783
1057.873, 4471.907
1058.355, 4476.393
1058.837, 4480.991
1059.319, 4485.134
1059.802, 4487.952
1060.284, 4490.413
1060.766, 4493.400
1061.248, 4496.890
1061.730, 4499.131
1062.212, 4499.527
1062.694, 4502.312
1063.176, 4510.428
1063.658, 4519.280
1064.141, 4520.933
1064.623, 4519.029
1065.105, 4519.784
1065.587, 4525.785
1066.069, 4532.415
1066.551, 4540.202
1067.033, 4546.649
1067.515, 4548.686
1067.998, 4547.611
1068.480, 4550.885
1068.962, 4557.845
1069.444, 4565.007
1069.926, 4571.820
1070.408, 4576.792
1070.890, 4578.187
1071.372, 4577.647
1071.854, 4577.595
1072.337, 4578.219
1072.819, 4577.882
1073.301, 4576.353
1073.783, 4575.292
1074.265, 4577.472
1074.747, 4580.118
1075.229, 4580.295
1075.711, 4577.977
1076.193, 4575.655
1076.676, 4573.304
1077.158, 4571.445
1077.640, 4570.037
1078.122, 4569.482
1078.604, 4571.202
1079.086, 4574.135
1079.568, 4575.996
1080.051, 4576.034
1080.533, 4576.009
1081.015, 4575.988
1081.497, 4576.675
1081.979, 4578.845
1082.461, 4582.123
1082.943, 4583.464
1083.425, 4583.288
1083.907, 4584.500
1084.390, 4589.868
1084.872, 4595.109
1085.354, 4597.533
1085.836, 4598.186
1086.318, 4598.184
1086.800, 4596.606
1087.282, 4598.736
1087.764, 4605.029
1088.246, 4611.702
1088.729, 4616.221
1089.211, 4619.077
1089.693, 4619.839
1090.175, 4619.306
1090.657, 4620.572
1091.139, 4625.013
1091.621, 4629.719
1092.103, 4634.472
1092.586, 4639.076
1093.068, 4643.968
1093.550, 4648.347
1094.032, 4649.603
1094.514, 4647.450
1094.996, 4646.763
1095.478, 4651.492
1095.960, 4656.062
1096.443, 4658.090
1096.925, 4658.609
1097.407, 4660.265
1097.889, 4663.142
1098.371, 4667.742
1098.853, 4674.207
1099.335, 4682.396
1099.817, 4695.196
1100.299, 4707.417
1100.781, 4713.766
1101.264, 4714.105
1101.746, 4716.095
1102.228, 4719.746
1102.710, 4724.807
1103.192, 4731.110
1103.674, 4738.768
1104.156, 4747.694
1104.638, 4758.042
1105.121, 4770.398
1105.603, 4787.347
1106.085, 4800.620
1106.567, 4808.883
1107.049, 4817.545
1107.531, 4831.051
1108.013, 4848.069
1108.495, 4866.490
1108.978, 4886.447
1109.460, 4908.768
1109.942, 4933.829
1110.424, 4961.803
1110.906, 4993.926
1111.388, 5027.333
1111.870, 5057.951
1112.352, 5086.593
1112.834, 5116.701
1113.317, 5148.777
1113.799, 5182.002
1114.281, 5216.299
1114.763, 5251.447
1115.245, 5288.073
1115.727, 5324.624
1116.209, 5355.529
1116.691, 5381.310
1117.173, 5410.616
1117.656, 5446.447
1118.138, 5480.159
1118.620, 5502.775
1119.102, 5521.313
1119.584, 5543.374
1120.066, 5568.926
1120.548, 5584.506
1121.030, 5589.330
1121.513, 5589.894
1121.995, 5589.905
1122.477, 5583.933
1122.959, 5563.261
1123.441, 5533.002
1123.923, 5500.549
1124.405, 5468.682
1124.887, 5428.199
1125.370, 5376.138
1125.852, 5323.570
1126.334, 5277.616
1126.816, 5234.985
1127.298, 5186.989
1127.780, 5136.507
1128.262, 5090.837
1128.744, 5052.369
1129.226, 5019.864
1129.709, 4994.467
1130.191, 4972.003
1130.673, 4947.186
1131.155, 4922.101
1131.637, 4905.615
1132.119, 4896.577
1132.601, 4887.529
1133.083, 4871.792
1133.566, 4859.060
1134.048, 4854.210
1134.530, 4852.450
1135.012, 4847.502
1135.494, 4839.747
1135.976, 4832.303
1136.458, 4825.456
1136.940, 4820.227
1137.422, 4819.428
1137.905, 4818.439
1138.387, 4813.464
1138.869, 4806.407
1139.351, 4801.934
1139.833, 4800.081
1140.315, 4800.111
1140.797, 4802.173
1141.279, 4804.187
1141.761, 4804.173
1142.244, 4803.372
1142.726, 4802.380
1143.208, 4801.394
1143.690, 4802.214
1144.172, 4805.170
1144.654, 4807.583
1145.136, 4808.166
1145.618, 4809.045
1146.101, 4813.937
1146.583, 4819.943
1147.065, 4823.521
1147.547, 4823.579
1148.029, 4822.993
1148.511, 4821.421
1148.993, 4820.556
1149.475, 4821.935
1149.958, 4823.328
1150.440, 4819.037
1150.922, 4812.683
1151.404, 4811.239
1151.886, 4819.912
1152.368, 4825.167
1152.850, 4825.694
1153.332, 4823.943
1153.814, 4819.990
1154.297, 4815.722
1154.779, 4816.627
1155.261, 4821.234
1155.743, 4825.331
1156.225, 4826.894
1156.707, 4828.521
1157.189, 4831.120
1157.671, 4832.938
1158.153, 4832.055
1158.636, 4829.097
1159.118, 4825.717
1159.600, 4822.478
1160.082, 4821.922
1160.564, 4827.459
1161.046, 4833.123
1161.528, 4837.704
1162.010, 4841.253
1162.493, 4843.469
1162.975, 4844.584
1163.457, 4846.240
1163.939, 4848.487
1164.421, 4850.639
1164.903, 4851.009
1165.385, 4852.727
1165.867, 4858.763
1166.349, 4865.874
1166.832, 4868.063
1167.314, 4865.771
1167.796, 4865.209
1168.278, 4867.071
1168.760, 4868.581
1169.242, 4864.859
1169.724, 4863.085
1170.206, 4870.464
1170.688, 4882.461
1171.171, 4887.295
1171.653, 4885.132
1172.135, 4884.599
1172.617, 4887.486
1173.099, 4890.555
1173.581, 4890.970
1174.063, 4890.657
1174.545, 4890.842
1175.028, 4891.591
1175.510, 4893.420
1175.992, 4896.431
1176.474, 4897.936
1176.956, 4896.920
1177.438, 4895.577
1177.920, 4896.061
1178.402, 4897.106
1178.885, 4897.116
1179.367, 4896.148
1179.849, 4898.106
1180.331, 4903.488
1180.813, 4906.601
1181.295, 4904.834
1181.777, 4901.900
1182.259, 4900.658
1182.741, 4901.061
1183.224, 4903.570
1183.706, 4908.455
1184.188, 4912.159
1184.670, 4914.585
1185.152, 4916.662
1185.634, 4918.123
1186.116, 4920.506
1186.598, 4926.775
1187.081, 4934.420
1187.563, 4940.114
1188.045, 4943.572
1188.527, 4943.188
1189.009, 4937.819
1189.491, 4935.209
1189.973, 4941.304
1190.455, 4950.305
1190.938, 4956.632
1191.420, 4960.368
1191.902, 4961.229
1192.384, 4957.184
1192.866, 4956.674
1193.348, 4960.416
1193.830, 4964.542
1194.312, 4966.648
1194.794, 4967.712
1195.276, 4968.529
1195.759, 4969.380
1196.241, 4970.815
1196.723, 4972.938
1197.205, 4975.779
1197.687, 4979.625
1198.169, 4982.784
1198.651, 4982.933
1199.133, 4982.270
1199.616, 4984.086
1200.098, 4987.400
1200.580, 4989.636
1201.062, 4989.571
1201.544, 4990.252
1202.026, 4991.795
1202.508, 4994.045
1202.990, 4997.177
1203.473, 5000.672
1203.955, 5004.291
1204.437, 5007.708
1204.919, 5009.970
1205.401, 5010.619
1205.883, 5011.143
1206.365, 5011.783
1206.847, 5011.870
1207.329, 5009.604
1207.812, 5007.256
1208.294, 5007.834
1208.776, 5011.022
1209.258, 5015.124
1209.740, 5021.124
1210.222, 5024.599
1210.704, 5024.543
1211.186, 5024.365
1211.668, 5028.616
1212.151, 5034.092
1212.633, 5036.478
1213.115, 5036.150
1213.597, 5036.309
1214.079, 5037.237
1214.561, 5038.616
1215.043, 5040.349
1215.525, 5042.569
1216.008, 5046.579
1216.490, 5050.345
1216.972, 5050.073
1217.454, 5046.588
1217.936, 5047.425
1218.418, 5054.651
1218.900, 5059.792
1219.382, 5061.114
1219.865, 5061.554
1220.347, 5064.657
1220.829, 5068.522
1221.311, 5070.750
1221.793, 5071.458
1222.275, 5073.514
1222.757, 5077.588
1223.239, 5080.851
1223.721, 5082.792
1224.203, 5083.823
1224.686, 5083.724
1225.168, 5083.470
1225.650, 5084.412
1226.132, 5086.433
1226.614, 5086.828
1227.096, 5084.893
1227.578, 5085.438
1228.061, 5090.005
1228.543, 5094.634
1229.025, 5092.307
1229.507, 5090.064
1229.989, 5096.851
1230.471, 5111.559
1230.953, 5118.876
1231.435, 5117.892
1231.917, 5117.870
1232.400, 5121.367
1232.882, 5123.981
1233.364, 5119.842
1233.846, 5114.230
1234.328, 5112.106
1234.810, 5113.066
1235.292, 5112.812
1235.774, 5111.224
1236.256, 5113.211
1236.739, 5121.127
1237.221, 5126.935
1237.703, 5119.689
1238.185, 5111.137
1238.667, 5112.293
1239.149, 5120.717
1239.631, 5125.771
1240.113, 5127.472
1240.596, 5127.325
1241.078, 5125.223
1241.560, 5123.854
1242.042, 5124.755
1242.524, 5127.586
1243.006, 5132.938
1243.488, 5139.627
1243.970, 5142.559
1244.453, 5142.374
1244.935, 5144.896
1245.417, 5152.091
1245.899, 5158.594
1246.381, 5159.895
1246.863, 5161.002
1247.345, 5165.277
1247.827, 5171.221
1248.309, 5173.243
1248.792, 5172.267
1249.274, 5172.185
1249.756, 5174.000
1250.238, 5176.366
1250.720, 5179.649
1251.202, 5182.090
1251.684, 5182.473
1252.166, 5181.969
1252.648, 5184.146
1253.131, 5187.943
1253.613, 5190.213
1254.095, 5190.099
1254.577, 5189.434
1255.059, 5187.219
1255.541, 5186.984
1256.023, 5190.688
1256.505, 5196.156
1256.988, 5199.338
1257.470, 5200.750
1257.952, 5200.977
1258.434, 5199.862
1258.916, 5200.564
1259.398, 5203.976
1259.880, 5208.493
1260.362, 5214.313
1260.844, 5219.697
1261.327, 5220.983
1261.809, 5220.281
1262.291, 5220.607
1262.773, 5222.469
1263.255, 5225.703
1263.737, 5231.078
1264.219, 5234.231
1264.701, 5232.596
1265.183, 5231.137
1265.666, 5237.283
1266.148, 5246.378
1266.630, 5252.367
1267.112, 5254.582
1267.594, 5261.713
1268.076, 5275.078
1268.558, 5282.310
1269.040, 5278.351
1269.523, 5272.821
1270.005, 5276.419
1270.487, 5281.862
1270.969, 5281.091
1271.451, 5275.592
1271.933, 5274.940
1272.415, 5279.124
1272.897, 5283.253
1273.380, 5286.196
1273.862, 5288.749
1274.344, 5293.067
1274.826, 5295.430
1275.308, 5292.344
1275.790, 5286.115
1276.272, 5284.050
1276.754, 5285.707
1277.236, 5289.565
1277.719, 5295.748
1278.201, 5299.672
1278.683, 5296.661
1279.165, 5293.438
1279.647, 5292.548
1280.129, 5293.276
1280.611, 5294.183
1281.093, 5295.405
1281.576, 5297.468
1282.058, 5300.519
1282.540, 5303.418
1283.022, 5306.572
1283.504, 5308.068
1283.986, 5306.802
1284.468, 5304.864
1284.950, 5304.753
1285.432, 5306.539
1285.915, 5311.272
1286.397, 5318.881
1286.879, 5324.156
1287.361, 5326.006
1287.843, 5327.682
1288.325, 5329.708
1288.807, 5332.467
1289.289, 5338.077
1289.771, 5343.394
1290.254, 5344.442
1290.736, 5341.597
1291.218, 5339.687
1291.700, 5338.624
1292.182, 5338.701
1292.664, 5339.882
1293.146, 5343.042
1293.628, 5350.835
1294.111, 5358.933
1294.593, 5366.070
1295.075, 5370.567
1295.557, 5366.489
1296.039, 5354.981
1296.521, 5348.426
1297.003, 5348.645
1297.485, 5352.921
1297.968, 5364.456
1298.450, 5371.662
1298.932, 5368.931
1299.414, 5362.716
1299.896, 5362.663
1300.378, 5367.268
1300.860, 5371.780
1301.342, 5375.709
1301.824, 5379.283
##END=



