##NAMES=Franciscanite
##RRUFFID=R060056
##IDEAL CHEMISTRY=Mn^2+^_6_(V^5+^[box])(SiO_4_)_2_O_3_(OH)_3_
##LOCALITY=Pennsylvania mine, Santa Clara County, California, USA
##OWNER=RRUFF
##SOURCE=Marcus Origlieri
##DESCRIPTION=Black to deep red granular massive
##STATUS=The identification of this mineral has been confirmed by X-ray diffraction and chemical analysis
##URL=rruff.info/R060056
##MEASURED CHEMISTRY=Mn^2+^_6.00_(V^5+^_0.86_Fe^3+^_0.10_Ti_0.04_)_Î£=1_(Si_1.00_O_4_)_2_((OH)_3.24_O_2.76_)_6_
110.0098, 208.0174
110.4919, 213.1086
110.9740, 220.9019
111.4561, 231.9829
111.9382, 244.0682
112.4203, 256.2281
112.9025, 268.4564
113.3846, 280.7029
113.8667, 293.3739
114.3488, 305.8561
114.8309, 317.2017
115.3130, 327.0813
115.7952, 335.9967
116.2773, 345.0699
116.7594, 354.9104
117.2415, 363.1334
117.7236, 367.7556
118.2057, 370.6915
118.6879, 374.1517
119.1700, 379.4455
119.6521, 386.3355
120.1342, 392.9083
120.6163, 398.4647
121.0984, 404.3940
121.5805, 411.0568
122.0627, 418.3459
122.5448, 426.0400
123.0269, 434.0515
123.5090, 442.5745
123.9911, 450.0198
124.4732, 456.3367
124.9554, 461.8975
125.4375, 467.0320
125.9196, 471.6907
126.4017, 475.5053
126.8838, 478.0753
127.3659, 479.1923
127.8481, 478.9274
128.3302, 476.9911
128.8123, 473.7918
129.2944, 469.2562
129.7765, 463.0667
130.2586, 456.8261
130.7408, 453.0934
131.2229, 451.6478
131.7050, 451.4599
132.1871, 452.8096
132.6692, 455.2838
133.1513, 457.6451
133.6335, 460.9115
134.1156, 462.2287
134.5977, 459.8721
135.0798, 453.8315
135.5619, 443.4005
136.0440, 426.9184
136.5262, 403.5676
137.0083, 379.4703
137.4904, 354.2090
137.9725, 329.8546
138.4546, 307.6864
138.9367, 288.1617
139.4189, 271.3788
139.9010, 257.7806
140.3831, 248.5905
140.8652, 240.9710
141.3473, 234.6128
141.8294, 229.2961
142.3116, 224.7591
142.7937, 220.8264
143.2758, 217.7320
143.7579, 216.4511
144.2400, 218.8357
144.7221, 221.1923
145.2043, 222.9931
145.6864, 224.4252
146.1685, 225.8765
146.6506, 227.6236
147.1327, 229.6270
147.6148, 231.3442
148.0969, 232.6606
148.5791, 233.8733
149.0612, 234.9413
149.5433, 235.9462
150.0254, 237.2674
150.5075, 239.2760
150.9896, 241.9433
151.4718, 244.4037
151.9539, 246.6965
152.4360, 248.7556
152.9181, 250.6390
153.4002, 252.3834
153.8823, 253.6344
154.3645, 254.1471
154.8466, 253.9571
155.3287, 252.8161
155.8108, 250.7307
156.2929, 247.6243
156.7750, 243.3575
157.2572, 237.9746
157.7393, 231.1080
158.2214, 221.8809
158.7035, 211.1811
159.1856, 201.0256
159.6677, 192.9250
160.1499, 186.7767
160.6320, 180.4392
161.1141, 172.7726
161.5962, 166.1499
162.0783, 161.8218
162.5604, 159.4124
163.0426, 157.7272
163.5247, 155.5919
164.0068, 152.7918
164.4889, 150.7312
164.9710, 150.0445
165.4531, 149.5060
165.9353, 148.4704
166.4174, 146.9512
166.8995, 145.4623
167.3816, 144.7408
167.8637, 145.5016
168.3458, 145.0372
168.8279, 142.5006
169.3101, 139.4836
169.7922, 137.1981
170.2743, 135.8830
170.7564, 134.8665
171.2385, 133.1647
171.7206, 130.5889
172.2028, 127.6316
172.6849, 123.9563
173.1670, 120.0404
173.6491, 116.4937
174.1312, 113.5142
174.6133, 110.7349
175.0955, 107.4208
175.5776, 103.4137
176.0597, 99.79275
176.5418, 97.02583
177.0239, 94.86886
177.5060, 92.70185
177.9882, 90.26637
178.4703, 87.89335
178.9524, 85.95665
179.4345, 84.44501
179.9166, 83.24663
180.3987, 82.48221
180.8809, 82.08110
181.3630, 81.44667
181.8451, 80.08585
182.3272, 78.73488
182.8093, 78.08241
183.2914, 78.20612
183.7736, 78.57848
184.2557, 78.65930
184.7378, 78.38484
185.2199, 78.32347
185.7020, 78.86769
186.1841, 79.51114
186.6663, 79.96104
187.1484, 80.15605
187.6305, 80.23474
188.1126, 80.39014
188.5947, 80.65932
189.0768, 80.90379
189.5589, 80.99887
190.0411, 81.13021
190.5232, 81.43968
191.0053, 81.96867
191.4874, 82.64314
191.9695, 83.30421
192.4516, 83.71285
192.9338, 84.54364
193.4159, 86.19374
193.8980, 88.04732
194.3801, 89.61932
194.8622, 90.72720
195.3443, 91.42448
195.8265, 91.84107
196.3086, 91.71190
196.7907, 91.57858
197.2728, 91.14207
197.7549, 90.80849
198.2370, 91.20145
198.7192, 92.60506
199.2013, 94.52620
199.6834, 95.59008
200.1655, 95.50359
200.6476, 95.06905
201.1297, 94.09381
201.6119, 92.89122
202.0940, 92.00874
202.5761, 91.72028
203.0582, 91.80060
203.5403, 91.60590
204.0224, 90.78475
204.5046, 90.39966
204.9867, 91.06052
205.4688, 92.47366
205.9509, 93.89085
206.4330, 95.02370
206.9151, 95.97036
207.3973, 96.81468
207.8794, 97.28088
208.3615, 98.32091
208.8436, 100.5375
209.3257, 103.8292
209.8078, 107.7159
210.2899, 112.2826
210.7721, 117.1768
211.2542, 121.7423
211.7363, 125.7638
212.2184, 130.2106
212.7005, 136.2277
213.1826, 143.8365
213.6648, 150.8845
214.1469, 156.0881
214.6290, 160.9012
215.1111, 166.5778
215.5932, 173.3380
216.0753, 180.4678
216.5575, 187.4400
217.0396, 194.2845
217.5217, 200.5703
218.0038, 205.2911
218.4859, 209.9654
218.9680, 215.7227
219.4502, 222.7671
219.9323, 230.0489
220.4144, 236.0771
220.8965, 240.2968
221.3786, 245.1570
221.8607, 251.2110
222.3429, 257.8121
222.8250, 264.6079
223.3071, 271.5389
223.7892, 278.6766
224.2713, 286.2397
224.7534, 294.6203
225.2356, 302.5025
225.7177, 309.1622
226.1998, 315.8634
226.6819, 323.6918
227.1640, 332.7535
227.6461, 342.1364
228.1283, 350.3445
228.6104, 356.9162
229.0925, 363.1032
229.5746, 368.3658
230.0567, 373.6505
230.5388, 379.8463
231.0210, 387.0641
231.5031, 394.6014
231.9852, 401.6315
232.4673, 408.8776
232.9494, 413.6696
233.4315, 415.4394
233.9137, 415.3809
234.3958, 414.3569
234.8779, 412.5730
235.3600, 409.7407
235.8421, 405.4214
236.3242, 399.0802
236.8064, 392.1569
237.2885, 384.4147
237.7706, 376.2115
238.2527, 367.6883
238.7348, 358.8957
239.2169, 350.2083
239.6991, 342.1640
240.1812, 334.8260
240.6633, 327.8524
241.1454, 321.0915
241.6275, 314.7521
242.1096, 309.1910
242.5918, 304.4951
243.0739, 299.9106
243.5560, 294.5911
244.0381, 288.4450
244.5202, 282.5360
245.0023, 277.2001
245.4845, 271.9918
245.9666, 266.3500
246.4487, 260.1691
246.9308, 254.0704
247.4129, 248.8634
247.8950, 244.4046
248.3772, 239.5227
248.8593, 233.6791
249.3414, 227.4833
249.8235, 221.6584
250.3056, 216.2788
250.7877, 211.0721
251.2698, 205.8035
251.7520, 200.5569
252.2341, 195.5618
252.7162, 190.8816
253.1983, 186.4793
253.6804, 182.3908
254.1625, 178.6069
254.6447, 175.1043
255.1268, 172.0966
255.6089, 169.3326
256.0910, 166.3127
256.5731, 162.4551
257.0552, 158.5936
257.5374, 156.0561
258.0195, 155.1102
258.5016, 154.1305
258.9837, 151.9973
259.4658, 149.3410
259.9479, 146.8649
260.4301, 144.7979
260.9122, 142.9207
261.3943, 140.9135
261.8764, 138.7115
262.3585, 136.6409
262.8406, 134.8067
263.3228, 133.2022
263.8049, 132.0003
264.2870, 131.3999
264.7691, 130.7163
265.2512, 128.7350
265.7333, 125.0260
266.2155, 122.0792
266.6976, 121.3879
267.1797, 121.3959
267.6618, 120.9997
268.1439, 119.9266
268.6260, 118.7317
269.1082, 118.1806
269.5903, 118.4333
270.0724, 118.4859
270.5545, 118.0821
271.0366, 117.4329
271.5187, 116.5091
272.0009, 115.3440
272.4830, 114.2655
272.9651, 113.8052
273.4472, 114.1693
273.9293, 113.9676
274.4114, 112.4602
274.8936, 110.7703
275.3757, 109.3710
275.8578, 108.3141
276.3399, 107.3982
276.8220, 106.4772
277.3041, 105.5755
277.7863, 104.5207
278.2684, 103.1758
278.7505, 101.7731
279.2326, 100.4449
279.7147, 99.15289
280.1968, 97.73118
280.6789, 95.96376
281.1610, 93.82240
281.6432, 92.06405
282.1253, 91.04515
282.6074, 90.09161
283.0895, 88.90099
283.5716, 87.61334
284.0537, 86.58887
284.5359, 86.15498
285.0180, 86.23318
285.5001, 85.90477
285.9822, 84.66982
286.4643, 83.57297
286.9464, 82.67567
287.4286, 82.10564
287.9107, 82.14964
288.3928, 83.05571
288.8749, 84.50587
289.3570, 85.04399
289.8391, 83.46398
290.3213, 82.53176
290.8034, 83.18916
291.2855, 84.49602
291.7676, 85.36207
292.2497, 85.28298
292.7318, 84.59522
293.2140, 84.13548
293.6961, 83.85931
294.1782, 83.93210
294.6603, 84.72000
295.1424, 85.63312
295.6245, 86.00700
296.1067, 85.67848
296.5888, 85.20076
297.0709, 85.62016
297.5530, 87.81200
298.0351, 89.21387
298.5172, 89.45111
298.9994, 89.27280
299.4815, 88.96635
299.9636, 88.69527
300.4457, 88.75256
300.9278, 89.63365
301.4099, 91.88225
301.8921, 93.14968
302.3742, 92.71590
302.8563, 92.10963
303.3384, 92.10811
303.8205, 92.70284
304.3026, 93.45160
304.7848, 93.94427
305.2669, 94.15343
305.7490, 94.43088
306.2311, 95.04108
306.7132, 95.45328
307.1953, 95.32706
307.6775, 94.85286
308.1596, 94.49029
308.6417, 94.60003
309.1238, 95.09784
309.6059, 95.08215
310.0880, 93.89004
310.5702, 92.88752
311.0523, 92.11916
311.5344, 91.73705
312.0165, 92.08960
312.4986, 93.39357
312.9807, 95.19209
313.4629, 96.03474
313.9450, 94.79640
314.4271, 93.99478
314.9092, 94.04397
315.3913, 94.47240
315.8734, 94.82452
316.3556, 94.94319
316.8377, 94.96546
317.3198, 95.16094
317.8019, 95.78816
318.2840, 96.10260
318.7661, 95.71495
319.2483, 95.32896
319.7304, 95.58332
320.2125, 96.48795
320.6946, 97.45882
321.1767, 97.80592
321.6588, 97.39035
322.1409, 96.86690
322.6230, 96.33904
323.1052, 95.63069
323.5873, 94.67529
324.0694, 93.46124
324.5515, 91.93980
325.0336, 89.95451
325.5157, 87.51229
325.9979, 86.03763
326.4800, 86.68501
326.9621, 87.08678
327.4442, 86.47662
327.9263, 85.24818
328.4084, 84.08450
328.8906, 83.36871
329.3727, 83.04116
329.8548, 82.86504
330.3369, 82.69783
330.8190, 82.91289
331.3011, 84.01832
331.7833, 85.29405
332.2654, 85.89876
332.7475, 85.54571
333.2296, 84.77833
333.7117, 84.66986
334.1938, 85.84090
334.6760, 86.47668
335.1581, 86.09480
335.6402, 85.57007
336.1223, 85.62206
336.6044, 86.27348
337.0865, 86.91985
337.5687, 86.85567
338.0508, 85.93592
338.5329, 84.98093
339.0150, 83.82582
339.4971, 82.79491
339.9792, 81.91827
340.4614, 81.27238
340.9435, 81.04424
341.4256, 81.48804
341.9077, 82.50183
342.3898, 82.81517
342.8719, 81.98850
343.3541, 80.88815
343.8362, 79.35353
344.3183, 77.75590
344.8004, 76.57977
345.2825, 76.07080
345.7646, 76.04771
346.2468, 76.07317
346.7289, 76.24030
347.2110, 76.27250
347.6931, 76.21175
348.1752, 75.98296
348.6573, 75.26791
349.1395, 74.07697
349.6216, 73.13024
350.1037, 73.70898
350.5858, 76.51205
351.0679, 78.06328
351.5500, 77.36076
352.0322, 76.03932
352.5143, 74.56728
352.9964, 73.09704
353.4785, 71.75191
353.9606, 70.60461
354.4427, 69.66263
354.9249, 69.04797
355.4070, 69.08448
355.8891, 69.04588
356.3712, 68.72484
356.8533, 68.16084
357.3354, 67.38443
357.8176, 66.34748
358.2997, 65.22185
358.7818, 64.43341
359.2639, 64.02998
359.7460, 63.84661
360.2281, 63.95782
360.7103, 64.18463
361.1924, 64.37617
361.6745, 64.49318
362.1566, 64.61148
362.6387, 64.83279
363.1208, 65.16835
363.6029, 65.46844
364.0851, 65.46748
364.5672, 65.66531
365.0493, 66.48616
365.5314, 67.84872
366.0135, 69.24131
366.4956, 70.22113
366.9778, 70.90520
367.4599, 71.87147
367.9420, 73.25524
368.4241, 74.69578
368.9062, 75.76865
369.3883, 76.77208
369.8705, 78.31124
370.3526, 80.91060
370.8347, 83.83494
371.3168, 85.90603
371.7989, 86.99904
372.2810, 88.25343
372.7632, 90.29538
373.2453, 92.67714
373.7274, 94.74757
374.2095, 96.31252
374.6916, 98.17582
375.1737, 101.2283
375.6559, 105.1964
376.1380, 108.7678
376.6201, 111.6624
377.1022, 114.0563
377.5843, 115.9403
378.0664, 117.3828
378.5486, 119.1680
379.0307, 121.9484
379.5128, 125.0911
379.9949, 127.6297
380.4770, 129.4631
380.9591, 130.9975
381.4413, 132.0562
381.9234, 133.0773
382.4055, 135.5186
382.8876, 141.1873
383.3697, 146.6918
383.8518, 149.3332
384.3340, 149.7359
384.8161, 150.4676
385.2982, 152.6946
385.7803, 155.7553
386.2624, 158.1890
386.7445, 160.0189
387.2267, 161.4299
387.7088, 162.4481
388.1909, 163.0932
388.6730, 163.1370
389.1551, 162.5315
389.6372, 162.1489
390.1194, 163.1218
390.6015, 165.7904
391.0836, 167.3345
391.5657, 167.3290
392.0478, 166.5883
392.5299, 165.3255
393.0121, 163.7104
393.4942, 162.1595
393.9763, 160.9649
394.4584, 160.0010
394.9405, 158.5714
395.4226, 156.3715
395.9048, 154.1324
396.3869, 151.5913
396.8690, 149.2130
397.3511, 147.7353
397.8332, 147.3476
398.3153, 147.2634
398.7975, 146.2613
399.2796, 143.8890
399.7617, 141.6916
400.2438, 139.6215
400.7259, 137.7369
401.2080, 136.1327
401.6902, 134.7604
402.1723, 133.5125
402.6544, 132.3295
403.1365, 131.1914
403.6186, 129.8267
404.1007, 127.5043
404.5828, 125.8647
405.0649, 125.6564
405.5471, 126.1037
406.0292, 126.3925
406.5113, 126.1997
406.9934, 125.5354
407.4755, 124.2409
407.9576, 121.9033
408.4398, 120.2069
408.9219, 119.5056
409.4040, 119.3187
409.8861, 119.6691
410.3682, 120.3950
410.8503, 120.9801
411.3325, 120.8059
411.8146, 120.0442
412.2967, 120.0515
412.7788, 121.1532
413.2609, 122.5012
413.7430, 123.8503
414.2252, 125.1567
414.7073, 126.3322
415.1894, 127.3055
415.6715, 128.2573
416.1536, 129.5498
416.6357, 131.2174
417.1179, 132.5217
417.6000, 133.1932
418.0821, 133.4420
418.5642, 133.2812
419.0463, 132.7234
419.5284, 132.6673
420.0106, 134.2542
420.4927, 136.5799
420.9748, 137.4882
421.4569, 136.5516
421.9390, 135.2962
422.4211, 134.9770
422.9033, 135.2504
423.3854, 134.9842
423.8675, 133.4093
424.3496, 131.8777
424.8317, 131.5175
425.3138, 132.0306
425.7960, 132.3117
426.2781, 131.8493
426.7602, 131.0566
427.2423, 130.7222
427.7244, 130.8533
428.2065, 131.2752
428.6887, 131.9618
429.1708, 132.9243
429.6529, 134.3599
430.1350, 136.2084
430.6171, 137.9088
431.0992, 138.9232
431.5814, 139.2340
432.0635, 139.9028
432.5456, 141.0219
433.0277, 142.3115
433.5098, 143.9470
433.9919, 145.6406
434.4741, 146.7458
434.9562, 146.9968
435.4383, 147.1394
435.9204, 148.7637
436.4025, 153.2549
436.8846, 156.6534
437.3668, 158.2892
437.8489, 159.5581
438.3310, 161.3309
438.8131, 163.5813
439.2952, 165.7101
439.7773, 167.1228
440.2595, 167.9531
440.7416, 169.6006
441.2237, 172.7502
441.7058, 175.7362
442.1879, 178.2819
442.6700, 180.3772
443.1522, 181.8939
443.6343, 182.7732
444.1164, 183.5384
444.5985, 184.9429
445.0806, 187.0352
445.5627, 189.0362
446.0448, 190.8465
446.5269, 192.5028
447.0091, 194.3487
447.4912, 196.1639
447.9733, 197.1496
448.4554, 196.1438
448.9375, 194.3663
449.4196, 194.2896
449.9018, 196.1435
450.3839, 197.7623
450.8660, 198.1924
451.3481, 197.6354
451.8302, 196.5232
452.3123, 194.7122
452.7945, 192.7865
453.2766, 191.2271
453.7587, 189.7399
454.2408, 187.7226
454.7229, 185.0436
455.2050, 181.8575
455.6872, 178.1809
456.1693, 173.9646
456.6514, 170.0842
457.1335, 166.9873
457.6156, 163.7998
458.0977, 159.6430
458.5799, 154.9809
459.0620, 151.2815
459.5441, 149.3738
460.0262, 148.2345
460.5083, 145.4073
460.9904, 139.2642
461.4726, 133.8718
461.9547, 129.0902
462.4368, 125.1396
462.9189, 122.7395
463.4010, 121.5499
463.8831, 120.1276
464.3653, 117.1376
464.8474, 112.7081
465.3295, 108.9333
465.8116, 106.1261
466.2937, 103.6271
466.7758, 101.3712
467.2580, 99.31894
467.7401, 97.46201
468.2222, 95.80779
468.7043, 94.24225
469.1864, 92.63142
469.6685, 90.97250
470.1507, 89.33366
470.6328, 87.62974
471.1149, 86.06525
471.5970, 84.76176
472.0791, 83.66999
472.5612, 82.66028
473.0434, 81.71425
473.5255, 80.77724
474.0076, 79.70642
474.4897, 78.49374
474.9718, 77.47619
475.4539, 76.94550
475.9361, 76.52425
476.4182, 75.47374
476.9003, 73.61438
477.3824, 72.41377
477.8645, 73.11598
478.3466, 74.48238
478.8288, 74.76723
479.3109, 73.79266
479.7930, 72.41634
480.2751, 71.12849
480.7572, 69.99348
481.2393, 69.41543
481.7215, 69.64778
482.2036, 70.05389
482.6857, 70.58583
483.1678, 71.13959
483.6499, 71.54970
484.1320, 71.77751
484.6142, 71.98013
485.0963, 72.36032
485.5784, 72.94234
486.0605, 73.59261
486.5426, 74.68185
487.0247, 75.45454
487.5068, 75.22861
487.9890, 74.56052
488.4711, 74.42973
488.9532, 75.33269
489.4353, 76.90871
489.9174, 78.50474
490.3995, 80.21660
490.8817, 81.59295
491.3638, 82.26857
491.8459, 82.80952
492.3280, 83.55399
492.8101, 84.46080
493.2922, 85.23448
493.7744, 85.33778
494.2565, 85.30846
494.7386, 86.57288
495.2207, 89.34731
495.7028, 92.02657
496.1849, 93.90242
496.6671, 95.24092
497.1492, 96.37346
497.6313, 97.12361
498.1134, 98.42980
498.5955, 101.4024
499.0776, 104.9792
499.5598, 107.3337
500.0419, 108.1970
500.5240, 108.7087
501.0061, 109.8088
501.4882, 111.4259
501.9703, 112.5945
502.4525, 113.0472
502.9346, 113.4140
503.4167, 113.7242
503.8988, 114.1181
504.3809, 114.8656
504.8630, 116.0208
505.3452, 117.2370
505.8273, 118.0387
506.3094, 118.3233
506.7915, 118.7245
507.2736, 119.4417
507.7557, 120.0650
508.2379, 120.3725
508.7200, 120.5170
509.2021, 120.7580
509.6842, 121.2168
510.1663, 121.7751
510.6484, 122.2316
511.1306, 122.5667
511.6127, 122.9338
512.0948, 123.4960
512.5769, 123.9390
513.0590, 124.1643
513.5411, 124.1257
514.0233, 123.6667
514.5054, 122.4834
514.9875, 121.0108
515.4696, 119.9573
515.9517, 119.2895
516.4338, 118.3449
516.9160, 116.9418
517.3981, 115.0379
517.8802, 112.3319
518.3623, 108.6831
518.8444, 105.3566
519.3265, 102.8102
519.8087, 100.5822
520.2908, 98.13848
520.7729, 95.54819
521.2550, 93.35104
521.7371, 91.93463
522.2192, 91.10909
522.7014, 90.12105
523.1835, 88.88685
523.6656, 87.58408
524.1477, 86.02967
524.6298, 84.54411
525.1119, 83.51644
525.5941, 82.86510
526.0762, 82.07094
526.5583, 80.61593
527.0404, 78.63173
527.5225, 76.93429
528.0046, 75.24860
528.4868, 74.41373
528.9689, 75.45814
529.4510, 76.96367
529.9331, 77.59120
530.4152, 77.11292
530.8973, 76.35229
531.3795, 75.93709
531.8616, 75.73185
532.3437, 75.17988
532.8258, 74.08909
533.3079, 73.47676
533.7900, 74.41531
534.2722, 76.27071
534.7543, 76.99790
535.2364, 75.72710
535.7185, 74.77132
536.2006, 75.37089
536.6827, 76.75171
537.1649, 77.81297
537.6470, 78.33713
538.1291, 78.66676
538.6112, 79.12569
539.0933, 79.71637
539.5754, 80.23848
540.0576, 80.45787
540.5397, 80.89225
541.0218, 81.77735
541.5039, 82.87750
541.9860, 84.02725
542.4681, 85.13822
542.9503, 86.00241
543.4324, 86.30472
543.9145, 86.02424
544.3966, 85.74035
544.8787, 85.07042
545.3608, 85.01590
545.8430, 86.31926
546.3251, 88.30225
546.8072, 90.13541
547.2892, 91.65409
547.7714, 92.73808
548.2535, 92.97249
548.7356, 92.65025
549.2177, 92.81762
549.6998, 93.70187
550.1819, 94.87222
550.6641, 96.15175
551.1462, 97.44672
551.6283, 98.20443
552.1104, 97.81258
552.5925, 97.56801
553.0746, 98.26286
553.5568, 99.33632
554.0389, 99.94896
554.5210, 99.88808
555.0031, 99.50526
555.4852, 99.25920
555.9673, 99.22684
556.4495, 98.41798
556.9316, 95.74536
557.4137, 93.49239
557.8958, 92.63599
558.3779, 92.27882
558.8600, 91.17036
559.3422, 88.97881
559.8243, 86.75044
560.3064, 85.86868
560.7885, 86.22291
561.2706, 86.14491
561.7527, 85.48519
562.2349, 84.52055
562.7170, 83.28975
563.1991, 81.89433
563.6812, 80.40179
564.1633, 78.56775
564.6454, 77.23787
565.1276, 77.27254
565.6097, 78.10971
566.0918, 78.70626
566.5739, 78.86509
567.0560, 78.76975
567.5381, 78.53925
568.0203, 78.18209
568.5024, 77.89710
568.9845, 77.35130
569.4666, 77.27585
569.9487, 78.45235
570.4308, 79.83591
570.9130, 80.07565
571.3951, 79.05537
571.8772, 77.97287
572.3593, 78.13496
572.8414, 79.42695
573.3235, 79.96497
573.8057, 79.31025
574.2878, 78.67862
574.7699, 78.39980
575.2520, 78.36475
575.7341, 78.56792
576.2162, 79.00912
576.6984, 79.35957
577.1805, 79.17932
577.6626, 78.80105
578.1447, 79.13788
578.6268, 80.30250
579.1089, 81.05235
579.5911, 80.47374
580.0732, 79.07766
580.5553, 78.36651
581.0374, 78.45326
581.5195, 78.84998
582.0016, 79.94671
582.4838, 80.97817
582.9659, 81.31207
583.4480, 80.89713
583.9301, 79.86745
584.4122, 78.25279
584.8943, 76.24254
585.3765, 74.46568
585.8586, 72.77812
586.3407, 71.66177
586.8228, 71.59382
587.3049, 71.73333
587.7870, 71.59046
588.2692, 71.17786
588.7513, 70.73655
589.2334, 70.35046
589.7155, 70.06429
590.1976, 70.07457
590.6797, 70.36951
591.1619, 70.31453
591.6440, 69.55121
592.1261, 68.61136
592.6082, 68.28109
593.0903, 68.55931
593.5724, 68.57860
594.0546, 67.88749
594.5367, 67.22664
595.0188, 67.06252
595.5009, 67.27991
595.9830, 67.69701
596.4651, 68.23670
596.9473, 68.61337
597.4294, 68.26291
597.9115, 66.84892
598.3936, 66.34753
598.8757, 68.10729
599.3578, 69.36402
599.8400, 68.90450
600.3221, 67.59380
600.8042, 66.62866
601.2863, 66.39189
601.7684, 66.50556
602.2505, 66.66158
602.7327, 66.85284
603.2148, 67.14442
603.6969, 67.65993
604.1790, 67.76301
604.6611, 66.79443
605.1432, 65.12379
605.6254, 63.96775
606.1075, 63.27831
606.5896, 63.17799
607.0717, 64.33768
607.5538, 65.73116
608.0359, 66.14931
608.5181, 65.57203
609.0002, 64.78503
609.4823, 64.35183
609.9644, 64.19628
610.4465, 63.97749
610.9286, 63.60238
611.4108, 63.34826
611.8929, 63.18597
612.3750, 63.19366
612.8571, 63.59238
613.3392, 64.23732
613.8214, 64.63400
614.3035, 64.39013
614.7856, 63.89264
615.2677, 63.69044
615.7498, 63.77340
616.2319, 64.10859
616.7141, 64.84325
617.1962, 65.46559
617.6783, 65.25843
618.1604, 64.19835
618.6425, 63.45770
619.1246, 63.02871
619.6068, 62.99044
620.0889, 63.66756
620.5710, 64.65627
621.0531, 65.33302
621.5352, 65.53731
622.0173, 65.60687
622.4995, 66.00951
622.9816, 66.74590
623.4637, 66.72366
623.9458, 65.34087
624.4279, 64.17669
624.9100, 63.53938
625.3922, 63.42219
625.8743, 64.05831
626.3564, 65.45008
626.8385, 66.61340
627.3206, 66.81073
627.8027, 66.44647
628.2849, 65.96015
628.7670, 65.42595
629.2491, 65.58385
629.7311, 67.00083
630.2133, 68.88328
630.6954, 69.68326
631.1775, 68.91708
631.6596, 68.24964
632.1417, 67.33681
632.6238, 66.86302
633.1060, 67.67886
633.5881, 69.09834
634.0702, 69.77274
634.5523, 69.13799
635.0344, 68.08507
635.5165, 67.94777
635.9987, 68.76012
636.4808, 69.37656
636.9629, 69.72261
637.4450, 69.91838
637.9271, 69.85695
638.4092, 69.74396
638.8914, 69.90419
639.3735, 70.43330
639.8556, 71.04680
640.3377, 71.74577
640.8198, 72.37517
641.3019, 72.66460
641.7841, 72.63958
642.2662, 72.61815
642.7483, 72.81188
643.2304, 73.10740
643.7125, 73.17281
644.1946, 72.89403
644.6768, 72.59468
645.1589, 72.01439
645.6410, 71.67072
646.1231, 72.00686
646.6052, 72.75890
647.0873, 73.39261
647.5695, 73.68907
648.0516, 73.73060
648.5337, 73.42860
649.0158, 72.89614
649.4979, 72.90883
649.9800, 73.71651
650.4622, 74.50533
650.9443, 74.69859
651.4264, 74.36868
651.9085, 73.90498
652.3906, 73.08613
652.8727, 72.48748
653.3549, 72.16032
653.8370, 72.15827
654.3191, 72.72971
654.8012, 73.71432
655.2833, 74.55665
655.7654, 74.89138
656.2476, 74.85713
656.7297, 74.68163
657.2118, 74.19618
657.6939, 74.39042
658.1760, 76.09505
658.6581, 77.69990
659.1403, 77.94532
659.6224, 77.30584
660.1045, 77.00422
660.5866, 77.60683
661.0687, 78.16667
661.5508, 77.79832
662.0330, 77.02865
662.5151, 76.87740
662.9972, 77.48030
663.4793, 78.22160
663.9614, 78.63396
664.4435, 78.76782
664.9257, 78.88426
665.4078, 79.00263
665.8899, 79.06660
666.3720, 78.75381
666.8541, 78.66985
667.3362, 79.37074
667.8184, 80.63667
668.3005, 81.82362
668.7826, 82.68507
669.2647, 83.19044
669.7468, 83.01679
670.2289, 82.36317
670.7111, 82.32858
671.1932, 83.18111
671.6753, 84.38719
672.1574, 85.62611
672.6395, 86.85693
673.1216, 87.78378
673.6038, 87.98098
674.0859, 88.48359
674.5680, 89.73483
675.0501, 91.14106
675.5322, 92.21671
676.0143, 92.95854
676.4965, 93.53252
676.9786, 93.98068
677.4607, 94.52814
677.9428, 95.69710
678.4249, 97.52200
678.9070, 99.48170
679.3892, 101.6796
679.8713, 103.6694
680.3534, 104.7001
680.8355, 105.2523
681.3176, 106.7320
681.7997, 109.6662
682.2819, 112.8886
682.7640, 116.0638
683.2461, 119.2483
683.7282, 122.6444
684.2103, 126.1652
684.6924, 129.2508
685.1746, 131.4632
685.6567, 133.2658
686.1388, 135.8740
686.6209, 139.4122
687.1030, 143.3257
687.5851, 148.0310
688.0673, 152.5868
688.5494, 156.1399
689.0315, 159.2182
689.5136, 163.0247
689.9957, 168.1908
690.4778, 173.1830
690.9600, 176.8803
691.4421, 179.8148
691.9242, 182.6749
692.4063, 185.6031
692.8884, 188.8540
693.3705, 192.6409
693.8527, 196.7032
694.3348, 200.2703
694.8169, 203.0866
695.2990, 206.0034
695.7811, 208.9826
696.2632, 212.1523
696.7454, 215.8428
697.2275, 219.6960
697.7096, 223.1812
698.1917, 226.2161
698.6738, 228.4784
699.1559, 229.2856
699.6381, 229.2602
700.1202, 229.8572
700.6023, 231.1390
701.0844, 231.9229
701.5665, 231.5312
702.0486, 230.3166
702.5308, 229.0537
703.0129, 227.8903
703.4950, 226.2588
703.9771, 224.2637
704.4592, 221.7357
704.9413, 218.4866
705.4235, 214.7066
705.9056, 210.6364
706.3877, 206.3345
706.8698, 202.0071
707.3519, 197.7967
707.8340, 193.6929
708.3162, 189.7318
708.7983, 185.9070
709.2804, 181.5867
709.7625, 176.2028
710.2446, 170.7892
710.7267, 167.0476
711.2089, 165.4414
711.6909, 163.6956
712.1730, 161.8547
712.6552, 159.8363
713.1373, 157.3670
713.6194, 154.8197
714.1015, 152.6226
714.5836, 150.8612
715.0657, 149.3193
715.5479, 147.7475
716.0300, 146.2899
716.5121, 145.3867
716.9942, 145.0380
717.4763, 144.9222
717.9584, 144.8304
718.4406, 145.2016
718.9227, 146.8186
719.4048, 149.7752
719.8869, 151.6158
720.3690, 151.3068
720.8511, 151.2093
721.3333, 151.9568
721.8154, 153.2451
722.2975, 154.8022
722.7796, 156.5622
723.2617, 158.5820
723.7438, 160.9888
724.2260, 163.5065
724.7081, 165.4623
725.1902, 166.8705
725.6723, 168.4888
726.1544, 170.3354
726.6365, 172.8513
727.1187, 176.6901
727.6008, 181.5668
728.0829, 185.8715
728.5650, 189.5402
729.0471, 192.7789
729.5292, 195.1338
730.0114, 197.4521
730.4935, 200.2124
730.9756, 203.5466
731.4577, 207.6405
731.9398, 212.6397
732.4219, 217.9727
732.9041, 222.7187
733.3862, 226.9738
733.8683, 231.7049
734.3504, 237.0452
734.8325, 242.5361
735.3146, 247.7196
735.7968, 253.0069
736.2789, 259.6502
736.7610, 268.2487
737.2431, 276.0902
737.7252, 281.9400
738.2073, 288.0235
738.6895, 295.1770
739.1716, 303.5509
739.6537, 313.4806
740.1358, 324.9341
740.6179, 336.8224
741.1000, 347.5943
741.5822, 357.8821
742.0643, 369.8595
742.5464, 383.6211
743.0285, 398.2556
743.5106, 413.3043
743.9927, 429.5176
744.4749, 447.7403
744.9570, 468.0928
745.4391, 490.5220
745.9212, 514.5560
746.4033, 541.3826
746.8854, 570.8949
747.3676, 603.7213
747.8497, 639.0782
748.3318, 678.0911
748.8139, 723.5266
749.2960, 777.4567
749.7781, 838.7990
750.2603, 907.1509
750.7424, 981.7654
751.2245, 1060.449
751.7066, 1142.500
752.1887, 1228.340
752.6708, 1319.306
753.1530, 1413.888
753.6351, 1505.425
754.1172, 1595.404
754.5993, 1679.495
755.0814, 1755.262
755.5635, 1827.284
756.0457, 1896.784
756.5278, 1965.265
757.0099, 2034.589
757.4920, 2105.615
757.9741, 2177.329
758.4562, 2248.573
758.9384, 2320.057
759.4205, 2394.391
759.9026, 2471.458
760.3847, 2552.944
760.8668, 2640.189
761.3489, 2728.050
761.8311, 2807.524
762.3132, 2877.588
762.7953, 2945.781
763.2774, 3015.032
763.7595, 3078.399
764.2416, 3139.417
764.7238, 3190.194
765.2059, 3225.954
765.6880, 3244.909
766.1701, 3243.962
766.6522, 3224.444
767.1343, 3180.427
767.6165, 3103.745
768.0986, 2997.637
768.5807, 2867.469
769.0628, 2714.981
769.5449, 2547.824
770.0270, 2369.503
770.5092, 2184.793
770.9913, 2007.357
771.4734, 1835.210
771.9555, 1674.904
772.4376, 1525.078
772.9197, 1390.761
773.4019, 1276.314
773.8840, 1177.276
774.3661, 1087.107
774.8482, 1004.492
775.3303, 931.1382
775.8124, 869.7767
776.2946, 816.6520
776.7767, 770.0132
777.2588, 728.4443
777.7409, 688.9220
778.2230, 650.3827
778.7051, 614.2814
779.1873, 582.4201
779.6694, 554.6658
780.1515, 526.9911
780.6336, 498.6208
781.1157, 472.7609
781.5978, 450.4698
782.0800, 430.5426
782.5621, 411.7715
783.0442, 394.2484
783.5263, 377.9529
784.0084, 363.2843
784.4905, 349.5060
784.9727, 336.6483
785.4548, 324.3655
785.9369, 312.2079
786.4190, 300.3104
786.9011, 289.1259
787.3832, 278.8904
787.8654, 269.5082
788.3475, 261.0141
788.8296, 253.2846
789.3117, 245.6646
789.7938, 238.0470
790.2759, 230.8823
790.7581, 224.4947
791.2402, 218.5457
791.7223, 212.4503
792.2044, 206.1817
792.6865, 199.9911
793.1686, 193.6182
793.6508, 187.6698
794.1328, 182.4762
794.6149, 177.7629
795.0970, 173.2492
795.5792, 168.9338
796.0613, 165.0173
796.5434, 161.7013
797.0255, 158.7644
797.5076, 156.0289
797.9897, 153.4334
798.4719, 150.9107
798.9540, 148.4212
799.4361, 145.3989
799.9182, 141.3210
800.4003, 136.7248
800.8824, 133.1341
801.3646, 130.6993
801.8467, 128.8754
802.3288, 128.3388
802.8109, 127.5377
803.2930, 125.7349
803.7751, 123.3712
804.2573, 120.8054
804.7394, 118.0420
805.2215, 115.9594
805.7036, 115.3658
806.1857, 115.0975
806.6678, 114.6074
807.1500, 113.6960
807.6321, 111.7573
808.1142, 108.8681
808.5963, 106.3496
809.0784, 105.4149
809.5605, 105.4269
810.0427, 104.5194
810.5248, 102.6408
811.0069, 100.9943
811.4890, 99.74972
811.9711, 98.81380
812.4532, 98.18395
812.9354, 97.78387
813.4175, 97.38157
813.8996, 96.93394
814.3817, 96.57485
814.8638, 96.45297
815.3459, 96.26728
815.8281, 96.00405
816.3102, 95.52071
816.7923, 94.30235
817.2744, 92.37759
817.7565, 91.16216
818.2386, 92.27482
818.7208, 94.27156
819.2029, 94.98349
819.6850, 94.78708
820.1671, 94.88963
820.6492, 95.58476
821.1313, 96.77957
821.6135, 98.44502
822.0956, 100.4709
822.5777, 102.4153
823.0598, 104.1728
823.5419, 106.1691
824.0240, 108.6863
824.5062, 111.1047
824.9883, 112.9307
825.4704, 114.5267
825.9525, 116.5316
826.4346, 119.1021
826.9167, 121.4569
827.3989, 123.2181
827.8810, 124.8531
828.3631, 126.4177
828.8452, 128.1634
829.3273, 130.4999
829.8094, 133.4621
830.2916, 136.7343
830.7737, 140.2668
831.2558, 143.6524
831.7379, 145.6498
832.2200, 146.5136
832.7021, 148.5544
833.1843, 152.2874
833.6664, 155.9508
834.1485, 158.2919
834.6306, 159.7381
835.1127, 161.4722
835.5948, 164.0322
836.0770, 165.4609
836.5591, 164.0705
837.0412, 163.5052
837.5233, 166.0725
838.0054, 169.3340
838.4875, 170.6057
838.9697, 169.6267
839.4518, 167.6881
839.9339, 164.9763
840.4160, 161.8465
840.8981, 158.7695
841.3802, 155.3136
841.8624, 150.3994
842.3445, 144.2612
842.8266, 138.6482
843.3087, 134.7367
843.7908, 131.4516
844.2729, 126.5830
844.7551, 120.2926
845.2372, 115.1927
845.7193, 111.5772
846.2014, 108.2019
846.6835, 104.3713
847.1656, 100.6954
847.6478, 98.22066
848.1299, 97.20060
848.6120, 95.42824
849.0941, 91.95819
849.5762, 89.01743
850.0583, 87.22742
850.5405, 85.95366
851.0226, 84.70280
851.5047, 83.50359
851.9868, 82.65118
852.4689, 82.41337
852.9510, 82.09545
853.4332, 81.03622
853.9153, 79.76475
854.3974, 78.88074
854.8795, 78.40148
855.3616, 78.28879
855.8438, 78.50127
856.3259, 78.61180
856.8080, 77.92705
857.2901, 76.71473
857.7722, 76.52338
858.2543, 77.45530
858.7365, 78.10401
859.2186, 77.96725
859.7007, 77.91854
860.1828, 78.89830
860.6649, 80.59488
861.1470, 81.37131
861.6292, 80.42194
862.1113, 79.82748
862.5934, 79.81643
863.0755, 79.90157
863.5576, 79.86220
864.0397, 79.77791
864.5219, 79.80453
865.0040, 79.96571
865.4861, 80.06458
865.9682, 79.81331
866.4503, 79.64714
866.9324, 80.07918
867.4146, 80.78294
867.8967, 81.22279
868.3788, 81.32071
868.8609, 81.30930
869.3430, 81.34801
869.8251, 81.33279
870.3073, 81.03300
870.7894, 80.47797
871.2715, 79.95972
871.7536, 79.49758
872.2357, 79.05058
872.7178, 78.52355
873.2000, 78.20677
873.6821, 78.65367
874.1642, 79.97311
874.6463, 80.45992
875.1284, 79.28267
875.6105, 78.52919
876.0927, 78.61528
876.5747, 79.11086
877.0568, 79.89004
877.5389, 80.82873
878.0211, 81.66207
878.5032, 82.34872
878.9853, 82.88602
879.4674, 82.94316
879.9495, 83.15179
880.4316, 84.33199
880.9138, 85.97902
881.3959, 87.08221
881.8780, 87.40926
882.3601, 87.48299
882.8422, 87.59766
883.3243, 87.90569
883.8065, 88.77305
884.2886, 90.11112
884.7707, 91.73531
885.2528, 93.60149
885.7349, 94.58783
886.2170, 93.76946
886.6992, 92.27010
887.1813, 92.60876
887.6634, 95.17839
888.1455, 97.18573
888.6276, 98.47310
889.1097, 99.49230
889.5919, 100.3577
890.0740, 101.0398
890.5561, 101.3980
891.0382, 101.4947
891.5203, 101.8132
892.0024, 102.7370
892.4846, 103.4022
892.9667, 103.7956
893.4488, 103.7222
893.9309, 102.6314
894.4130, 101.0966
894.8951, 100.2825
895.3773, 100.5032
895.8594, 100.6211
896.3415, 99.64408
896.8236, 98.28499
897.3057, 97.13674
897.7878, 96.32446
898.2700, 96.41316
898.7521, 97.31959
899.2342, 97.80697
899.7163, 96.97603
900.1984, 95.33820
900.6805, 93.77958
901.1627, 92.31306
901.6448, 91.44333
902.1269, 91.28160
902.6090, 91.13069
903.0911, 90.73485
903.5732, 90.12138
904.0554, 89.29099
904.5375, 88.24566
905.0196, 87.27611
905.5017, 86.41579
905.9838, 85.58175
906.4659, 84.57388
906.9481, 83.78172
907.4302, 83.66167
907.9123, 83.84026
908.3944, 83.56178
908.8765, 82.66386
909.3586, 81.65233
909.8408, 80.67531
910.3229, 79.61968
910.8050, 78.28590
911.2871, 76.90499
911.7692, 75.87697
912.2513, 75.15107
912.7335, 74.21794
913.2156, 72.67635
913.6977, 71.16094
914.1798, 70.59492
914.6619, 70.47446
915.1440, 69.86215
915.6262, 68.71490
916.1083, 67.10780
916.5904, 65.08983
917.0725, 63.34962
917.5546, 62.80264
918.0367, 63.14516
918.5189, 62.92228
919.0010, 62.10661
919.4831, 61.09453
919.9652, 59.88177
920.4473, 58.74232
920.9294, 57.79583
921.4116, 57.13363
921.8937, 57.04838
922.3758, 57.85991
922.8579, 58.01735
923.3400, 56.85239
923.8221, 55.97831
924.3043, 55.99822
924.7864, 56.30118
925.2685, 56.33267
925.7506, 56.18566
926.2327, 56.35322
926.7148, 57.10275
927.1970, 57.80687
927.6791, 58.19421
928.1612, 58.54912
928.6433, 59.13405
929.1254, 59.80128
929.6075, 60.28115
930.0897, 60.53149
930.5718, 60.77324
931.0539, 61.13879
931.5360, 61.57145
932.0181, 62.03675
932.5002, 62.51543
932.9824, 63.14445
933.4645, 63.79284
933.9466, 63.76273
934.4287, 62.71486
934.9108, 61.57264
935.3929, 61.78622
935.8751, 62.95084
936.3572, 63.17689
936.8393, 62.49501
937.3214, 61.84106
937.8035, 61.42191
938.2856, 61.24165
938.7678, 61.33714
939.2499, 61.61594
939.7320, 61.84532
940.2141, 62.09452
940.6962, 62.02001
941.1783, 61.63782
941.6605, 60.85427
942.1426, 59.13174
942.6247, 57.51612
943.1068, 57.37724
943.5889, 58.58262
944.0710, 59.21328
944.5532, 58.96082
945.0353, 58.58695
945.5174, 57.85592
945.9995, 57.34633
946.4816, 57.84177
946.9637, 58.52762
947.4459, 58.03614
947.9280, 56.21094
948.4101, 54.57140
948.8922, 53.83558
949.3743, 53.28748
949.8564, 52.38181
950.3386, 51.53582
950.8207, 51.58762
951.3028, 52.09462
951.7849, 51.56758
952.2670, 49.42055
952.7491, 47.36289
953.2313, 47.33319
953.7134, 48.06977
954.1955, 47.57743
954.6776, 46.27512
955.1597, 45.35410
955.6418, 45.02394
956.1240, 44.83858
956.6061, 44.50819
957.0882, 44.14392
957.5703, 43.93773
958.0524, 43.87437
958.5345, 43.92574
959.0166, 44.09218
959.4987, 43.87119
959.9808, 43.01848
960.4630, 42.35276
960.9451, 42.76743
961.4272, 43.86416
961.9093, 43.90589
962.3914, 42.55983
962.8735, 41.56327
963.3557, 41.05578
963.8378, 40.77308
964.3199, 40.65429
964.8020, 40.64622
965.2841, 40.62896
965.7662, 40.60531
966.2484, 40.97054
966.7305, 42.80853
967.2126, 43.42748
967.6947, 41.29066
968.1768, 39.37554
968.6589, 39.61399
969.1411, 40.84483
969.6232, 41.16993
970.1053, 40.36454
970.5874, 39.81144
971.0695, 40.24158
971.5516, 40.47610
972.0338, 39.77020
972.5159, 38.89680
972.9980, 38.54978
973.4801, 38.61405
973.9622, 38.68134
974.4443, 38.62754
974.9265, 38.61841
975.4086, 38.80837
975.8907, 39.03589
976.3728, 39.06726
976.8549, 39.08368
977.3370, 39.61024
977.8192, 40.45300
978.3013, 40.60462
978.7834, 39.51470
979.2655, 38.14005
979.7476, 37.53658
980.2297, 37.39883
980.7119, 37.09362
981.1940, 36.72842
981.6761, 36.84392
982.1582, 37.50268
982.6403, 38.10471
983.1224, 38.23841
983.6046, 38.02637
984.0867, 37.66383
984.5688, 37.15842
985.0509, 36.51669
985.5330, 35.73966
986.0151, 35.13425
986.4973, 34.80069
986.9794, 34.62902
987.4615, 34.51584
987.9436, 34.48833
988.4257, 34.66573
988.9078, 35.07940
989.3900, 35.49806
989.8721, 35.95129
990.3542, 36.26644
990.8363, 36.35328
991.3184, 36.31784
991.8005, 36.28317
992.2827, 36.23676
992.7648, 36.05590
993.2469, 35.60322
993.7290, 35.32248
994.2111, 35.34943
994.6932, 35.38942
995.1754, 35.39050
995.6575, 35.28573
996.1396, 34.90007
996.6217, 34.24978
997.1038, 33.86580
997.5859, 33.82966
998.0681, 33.96729
998.5502, 34.61219
999.0323, 35.04270
999.5144, 34.61547
999.9965, 33.85856
1000.479, 33.56031
1000.961, 33.79119
1001.443, 34.03222
1001.925, 34.21498
1002.407, 34.29083
1002.889, 34.09528
1003.371, 33.92152
1003.853, 34.09628
1004.336, 34.43277
1004.818, 34.53338
1005.300, 34.32238
1005.782, 34.16247
1006.264, 34.15516
1006.746, 34.35850
1007.228, 35.14338
1007.710, 35.91634
1008.193, 35.84395
1008.675, 35.18620
1009.157, 34.68500
1009.639, 34.58969
1010.121, 34.78550
1010.603, 35.59391
1011.085, 36.25975
1011.567, 35.67350
1012.049, 34.47071
1012.532, 33.58353
1013.014, 33.17718
1013.496, 33.35540
1013.978, 34.13785
1014.460, 34.99823
1014.942, 35.52697
1015.424, 35.67326
1015.906, 35.04059
1016.388, 33.99261
1016.871, 33.64606
1017.353, 34.06459
1017.835, 34.55201
1018.317, 34.76348
1018.799, 34.80305
1019.281, 34.79670
1019.763, 34.72522
1020.245, 34.42937
1020.728, 33.97678
1021.210, 33.92099
1021.692, 34.32981
1022.174, 34.54728
1022.656, 34.19065
1023.138, 33.64548
1023.620, 33.48487
1024.102, 33.66010
1024.584, 33.83921
1025.067, 34.02027
1025.549, 34.41951
1026.031, 35.13631
1026.513, 35.37292
1026.995, 34.53814
1027.477, 33.36678
1027.959, 33.14548
1028.441, 33.83502
1028.923, 34.41276
1029.406, 34.91537
1029.888, 35.01772
1030.370, 34.52491
1030.852, 34.12467
1031.334, 34.30251
1031.816, 34.69791
1032.298, 34.61192
1032.780, 34.00705
1033.263, 33.83664
1033.745, 34.29433
1034.227, 34.60993
1034.709, 34.62508
1035.191, 34.52239
1035.673, 34.36375
1036.155, 34.20924
1036.637, 34.19312
1037.120, 34.34245
1037.602, 34.33455
1038.084, 34.00299
1038.566, 33.86454
1039.048, 34.22628
1039.530, 34.46462
1040.012, 33.97853
1040.494, 33.27174
1040.976, 33.37192
1041.458, 34.45549
1041.941, 34.87864
1042.423, 33.98736
1042.905, 33.43803
1043.387, 33.79527
1043.869, 34.15261
1044.351, 33.84516
1044.833, 33.30387
1045.315, 33.32647
1045.798, 33.99799
1046.280, 34.29137
1046.762, 33.74506
1047.244, 33.41955
1047.726, 33.58319
1048.208, 33.89584
1048.690, 34.29970
1049.172, 34.66121
1049.655, 34.82934
1050.137, 34.79440
1050.619, 34.44245
1051.101, 33.29232
1051.583, 32.49795
1052.065, 32.71816
1052.547, 32.90963
1053.029, 32.05881
1053.511, 30.99929
1053.994, 31.20197
1054.476, 32.70266
1054.958, 33.62399
1055.440, 33.25193
1055.922, 32.69894
1056.404, 31.94674
1056.886, 31.40778
1057.368, 31.58281
1057.850, 31.98171
1058.333, 31.88810
1058.815, 31.27718
1059.297, 30.68920
1059.779, 30.13316
1060.261, 29.83627
1060.743, 30.07125
1061.225, 30.37128
1061.707, 30.42002
1062.190, 30.37213
1062.672, 30.43004
1063.154, 30.61530
1063.636, 30.90164
1064.118, 31.47147
1064.600, 31.72154
1065.082, 31.27967
1065.564, 30.60860
1066.047, 29.66432
1066.529, 28.88844
1067.011, 28.99115
1067.493, 29.79409
1067.975, 30.25790
1068.457, 29.95248
1068.939, 29.63973
1069.421, 29.63676
1069.903, 29.72121
1070.385, 29.85796
1070.868, 29.92830
1071.350, 29.79853
1071.832, 29.48466
1072.314, 29.02342
1072.796, 28.33415
1073.278, 27.97146
1073.760, 28.43839
1074.242, 29.00921
1074.725, 29.31620
1075.207, 29.44122
1075.689, 29.46915
1076.171, 29.41484
1076.653, 29.22402
1077.135, 28.85360
1077.617, 28.67803
1078.099, 29.16041
1078.582, 29.52749
1079.064, 28.95602
1079.546, 28.38625
1080.028, 29.06326
1080.510, 30.40928
1080.992, 31.00141
1081.474, 30.51360
1081.956, 29.85753
1082.438, 29.30602
1082.921, 28.85716
1083.403, 28.48669
1083.885, 28.24278
1084.367, 28.29186
1084.849, 28.45029
1085.331, 28.33986
1085.813, 27.93047
1086.295, 27.69049
1086.777, 27.95752
1087.260, 28.20414
1087.742, 28.04349
1088.224, 27.91821
1088.706, 28.40268
1089.188, 29.01573
1089.670, 28.88867
1090.152, 28.07160
1090.634, 27.56252
1091.116, 27.79562
1091.599, 28.15866
1092.081, 28.73224
1092.563, 28.98509
1093.045, 28.29236
1093.527, 27.28650
1094.009, 26.64986
1094.491, 26.43331
1094.973, 26.48093
1095.456, 26.84249
1095.938, 27.11352
1096.420, 27.12584
1096.902, 27.03691
1097.384, 26.80655
1097.866, 26.61383
1098.348, 26.76815
1098.830, 27.07457
1099.313, 26.95271
1099.795, 26.21370
1100.277, 25.72632
1100.759, 25.86016
1101.241, 26.14144
1101.723, 26.68601
1102.205, 27.02250
1102.687, 26.62629
1103.169, 25.83594
1103.651, 25.22485
1104.134, 24.87018
1104.616, 24.74823
1105.098, 25.21983
1105.580, 25.39163
1106.062, 24.66973
1106.544, 24.01044
1107.026, 24.00642
1107.508, 24.35617
1107.991, 24.75720
1108.473, 25.14232
1108.955, 25.23931
1109.437, 24.73755
1109.919, 24.46355
1110.401, 24.74206
1110.883, 24.99405
1111.365, 24.98128
1111.848, 24.84793
1112.330, 24.64888
1112.812, 24.44880
1113.294, 24.50102
1113.776, 25.01374
1114.258, 25.18788
1114.740, 24.70035
1115.222, 24.27644
1115.704, 24.11496
1116.187, 24.02917
1116.669, 23.98699
1117.151, 23.89502
1117.633, 23.42140
1118.115, 22.42016
1118.597, 22.37916
1119.079, 24.16136
1119.561, 25.25978
1120.043, 25.11936
1120.526, 24.64755
1121.008, 24.11004
1121.490, 23.66859
1121.972, 23.56986
1122.454, 23.77929
1122.936, 23.93053
1123.418, 24.05397
1123.900, 23.99065
1124.383, 23.53744
1124.865, 23.43497
1125.347, 24.14795
1125.829, 24.84594
1126.311, 24.71311
1126.793, 24.04201
1127.275, 23.70314
1127.757, 23.71291
1128.240, 23.99863
1128.722, 24.67234
1129.204, 25.08986
1129.686, 25.11100
1130.168, 24.79644
1130.650, 24.11191
1131.132, 23.34271
1131.614, 22.95992
1132.096, 22.94739
1132.578, 23.23769
1133.061, 23.84383
1133.543, 24.26348
1134.025, 24.42280
1134.507, 24.69408
1134.989, 25.26685
1135.471, 25.63268
1135.953, 25.18776
1136.435, 24.28618
1136.918, 23.90398
1137.400, 23.97227
1137.882, 24.08006
1138.364, 24.19389
1138.846, 24.24906
1139.328, 24.23062
1139.810, 24.19854
1140.292, 24.20133
1140.775, 24.14760
1141.257, 23.72213
1141.739, 23.20877
1142.221, 23.52808
1142.703, 24.36009
1143.185, 24.64080
1143.667, 24.33783
1144.149, 24.22775
1144.631, 24.62213
1145.114, 24.92538
1145.596, 24.44659
1146.078, 23.77951
1146.560, 23.78858
1147.042, 24.10806
1147.524, 24.12807
1148.006, 23.94535
1148.488, 23.97082
1148.970, 24.24999
1149.453, 24.41560
1149.935, 24.22774
1150.417, 24.01932
1150.899, 24.04305
1151.381, 24.17865
1151.863, 24.35722
1152.345, 24.54688
1152.827, 24.62043
1153.310, 24.68403
1153.792, 25.18447
1154.274, 26.29431
1154.756, 26.90600
1155.238, 25.99897
1155.720, 25.14302
1156.202, 25.22579
1156.684, 25.52227
1157.167, 25.47888
1157.649, 25.24633
1158.131, 25.07112
1158.613, 24.99638
1159.095, 25.10218
1159.577, 25.66129
1160.059, 25.91044
1160.541, 25.36100
1161.023, 24.94536
1161.505, 25.05444
1161.988, 25.42543
1162.470, 26.04143
1162.952, 26.69012
1163.434, 26.75673
1163.916, 26.08811
1164.398, 25.64251
1164.880, 25.49666
1165.362, 25.39323
1165.844, 25.12541
1166.327, 25.27348
1166.809, 26.42790
1167.291, 27.67594
1167.773, 27.75273
1168.255, 26.88968
1168.737, 26.51794
1169.219, 26.75471
1169.701, 26.66281
1170.184, 26.12740
1170.666, 25.80469
1171.148, 25.89316
1171.630, 26.22434
1172.112, 26.72403
1172.594, 27.16030
1173.076, 27.05558
1173.558, 26.51047
1174.041, 26.04708
1174.523, 25.66935
1175.005, 25.38078
1175.487, 25.19209
1175.969, 25.19088
1176.451, 25.40928
1176.933, 25.78229
1177.415, 26.34800
1177.897, 26.77636
1178.380, 26.37132
1178.862, 25.55326
1179.344, 24.99810
1179.826, 24.77083
1180.308, 25.05377
1180.790, 25.71826
1181.272, 26.16342
1181.754, 26.10601
1182.236, 25.86910
1182.719, 25.53567
1183.201, 25.31102
1183.683, 25.47276
1184.165, 25.74970
1184.647, 25.97840
1185.129, 26.02627
1185.611, 25.62113
1186.093, 24.78127
1186.576, 23.99785
1187.058, 23.22391
1187.540, 22.97150
1188.022, 23.95498
1188.504, 24.82777
1188.986, 24.81091
1189.468, 24.48938
1189.950, 24.28434
1190.432, 24.25931
1190.915, 24.60627
1191.397, 25.48275
1191.879, 25.77185
1192.361, 25.05265
1192.843, 24.52909
1193.325, 24.25381
1193.807, 24.37729
1194.289, 25.27996
1194.771, 26.05146
1195.254, 25.58513
1195.736, 24.27843
1196.218, 23.61483
1196.700, 23.66002
1197.182, 23.70423
1197.664, 23.74326
1198.146, 23.81078
1198.628, 23.91706
1199.111, 23.96998
1199.593, 23.90954
1200.075, 23.87878
1200.557, 24.07263
1201.039, 24.40888
1201.521, 24.70691
1202.003, 24.96077
1202.485, 25.11485
1202.968, 25.20313
1203.450, 25.47160
1203.932, 25.88931
1204.414, 25.84201
1204.896, 24.91376
1205.378, 24.02794
1205.860, 24.34889
1206.342, 24.86195
1206.824, 24.33532
1207.307, 23.45162
1207.789, 23.05941
1208.271, 23.10546
1208.753, 23.30090
1209.235, 23.56713
1209.717, 23.86936
1210.199, 24.23987
1210.681, 24.55161
1211.163, 24.84963
1211.646, 24.96653
1212.128, 24.56791
1212.610, 24.17272
1213.092, 24.38185
1213.574, 24.93289
1214.056, 25.07610
1214.538, 24.74375
1215.020, 24.64914
1215.503, 24.96864
1215.985, 25.11009
1216.467, 24.95354
1216.949, 24.77657
1217.431, 24.67176
1217.913, 24.63865
1218.395, 24.71539
1218.877, 24.78648
1219.359, 24.44091
1219.842, 23.73138
1220.324, 23.77543
1220.806, 24.52591
1221.288, 25.36518
1221.770, 26.14006
1222.252, 26.20110
1222.734, 25.30921
1223.216, 24.53020
1223.698, 24.89191
1224.181, 25.69930
1224.663, 26.04998
1225.145, 26.08516
1225.627, 25.93644
1226.109, 25.70638
1226.591, 25.58347
1227.073, 25.54799
1227.555, 25.41334
1228.038, 25.11674
1228.520, 24.88912
1229.002, 24.76588
1229.484, 24.86737
1229.966, 25.46316
1230.448, 26.07450
1230.930, 26.47808
1231.412, 26.62346
1231.895, 26.36559
1232.377, 25.81096
1232.859, 25.37081
1233.341, 25.07471
1233.823, 24.88874
1234.305, 24.80272
1234.787, 24.86133
1235.269, 25.15277
1235.751, 25.41678
1236.234, 25.56619
1236.716, 25.53586
1237.198, 25.19559
1237.680, 24.71210
1238.162, 24.60222
1238.644, 24.85273
1239.126, 25.35382
1239.608, 26.03587
1240.090, 26.06496
1240.573, 25.38116
1241.055, 24.85021
1241.537, 24.86358
1242.019, 25.01012
1242.501, 24.89682
1242.983, 24.76161
1243.465, 25.06855
1243.947, 25.42195
1244.430, 25.08857
1244.912, 24.49891
1245.394, 24.63031
1245.876, 25.24821
1246.358, 25.05801
1246.840, 23.63928
1247.322, 22.77450
1247.804, 23.71933
1248.286, 24.49428
1248.769, 24.35454
1249.251, 23.98320
1249.733, 23.55042
1250.215, 23.24299
1250.697, 23.29367
1251.179, 23.59619
1251.661, 23.87940
1252.143, 24.16812
1252.625, 24.16418
1253.108, 23.75731
1253.590, 23.58621
1254.072, 23.77955
1254.554, 23.87283
1255.036, 23.67218
1255.518, 23.41175
1256.000, 23.30033
1256.482, 23.25452
1256.964, 23.02095
1257.447, 22.76626
1257.929, 23.20659
1258.411, 23.96204
1258.893, 23.89452
1259.375, 23.12139
1259.857, 22.51254
1260.339, 22.31519
1260.821, 22.14646
1261.304, 21.69925
1261.786, 21.50813
1262.268, 22.26649
1262.750, 22.97882
1263.232, 22.85812
1263.714, 22.49131
1264.196, 22.40612
1264.678, 22.53518
1265.161, 22.73195
1265.643, 22.97779
1266.125, 22.93279
1266.607, 22.24526
1267.089, 22.09270
1267.571, 22.73670
1268.053, 23.25572
1268.535, 23.40365
1269.017, 23.39009
1269.500, 23.31400
1269.982, 23.28684
1270.464, 23.51035
1270.946, 23.84294
1271.428, 23.74729
1271.910, 23.36905
1272.392, 23.34250
1272.874, 23.60532
1273.356, 23.78456
##END=



