##NAMES=Franklinite
##RRUFFID=R070137
##IDEAL CHEMISTRY=Zn^2+^Fe^3+^_2_O_4_
##LOCALITY=Franklin mine, Franklin, Sussex County, New Jersey, USA
##OWNER=RRUFF
##SOURCE=Michael Scott
##DESCRIPTION=Gray semi-metallic octahedral crystals associated with calcite
##STATUS=The identification of this mineral has been confirmed by X-ray diffraction and chemical analysis
##URL=rruff.info/R070137
##MEASURED CHEMISTRY=(Zn_0.63_Mn_0.36_Mg_0.01_)_Σ=1_(Fe^3+^_1.96_Al_0.04_)_Σ=2_O_4_
150.7191, 1659.335
151.2013, 1684.398
151.6834, 1704.975
152.1655, 1714.182
152.6476, 1724.971
153.1297, 1748.787
153.6118, 1784.143
154.0940, 1817.921
154.5761, 1836.012
155.0582, 1834.164
155.5403, 1830.956
156.0224, 1825.566
156.5045, 1819.569
156.9867, 1812.762
157.4688, 1805.621
157.9509, 1800.643
158.4330, 1800.465
158.9151, 1806.124
159.3972, 1814.232
159.8794, 1823.470
160.3615, 1835.938
160.8436, 1856.306
161.3257, 1884.338
161.8078, 1910.749
162.2899, 1924.383
162.7721, 1922.145
163.2542, 1927.382
163.7363, 1943.137
164.2184, 1965.250
164.7005, 1992.828
165.1826, 2025.625
165.6648, 2056.498
166.1469, 2078.507
166.6290, 2091.304
167.1111, 2097.367
167.5932, 2092.089
168.0753, 2082.678
168.5575, 2076.389
169.0396, 2074.194
169.5217, 2072.999
170.0038, 2066.231
170.4859, 2055.498
170.9680, 2059.338
171.4502, 2097.290
171.9323, 2143.312
172.4144, 2165.199
172.8965, 2157.861
173.3786, 2142.858
173.8607, 2135.374
174.3429, 2135.098
174.8250, 2142.854
175.3071, 2168.489
175.7892, 2198.120
176.2713, 2210.738
176.7534, 2201.876
177.2356, 2193.240
177.7177, 2207.212
178.1998, 2235.861
178.6819, 2258.354
179.1640, 2263.768
179.6461, 2262.377
180.1283, 2268.857
180.6104, 2285.031
181.0925, 2302.970
181.5746, 2321.433
182.0567, 2337.648
182.5388, 2344.514
183.0210, 2334.319
183.5031, 2315.959
183.9852, 2302.782
184.4673, 2295.870
184.9494, 2289.367
185.4315, 2280.569
185.9137, 2269.565
186.3958, 2255.712
186.8779, 2237.176
187.3600, 2216.703
187.8421, 2196.525
188.3242, 2175.262
188.8064, 2160.236
189.2885, 2161.619
189.7706, 2170.469
190.2527, 2176.472
190.7348, 2177.549
191.2169, 2173.319
191.6991, 2161.003
192.1812, 2138.174
192.6633, 2117.592
193.1454, 2110.873
193.6275, 2108.091
194.1096, 2097.125
194.5918, 2070.397
195.0739, 2041.313
195.5560, 2029.773
196.0381, 2039.345
196.5202, 2050.619
197.0023, 2057.195
197.4845, 2060.953
197.9666, 2062.243
198.4487, 2059.984
198.9308, 2058.708
199.4129, 2067.819
199.8950, 2091.051
200.3772, 2104.777
200.8593, 2087.385
201.3414, 2063.488
201.8235, 2053.338
202.3056, 2062.974
202.7877, 2077.785
203.2699, 2080.462
203.7520, 2069.363
204.2341, 2057.484
204.7162, 2044.562
205.1983, 2034.580
205.6804, 2031.872
206.1626, 2037.276
206.6447, 2044.818
207.1268, 2047.435
207.6089, 2044.418
208.0910, 2044.589
208.5731, 2055.640
209.0553, 2065.921
209.5374, 2066.597
210.0195, 2057.146
210.5016, 2045.621
210.9837, 2038.697
211.4658, 2036.438
211.9480, 2036.900
212.4301, 2041.474
212.9122, 2047.501
213.3943, 2054.746
213.8764, 2062.642
214.3585, 2068.190
214.8407, 2067.794
215.3228, 2061.693
215.8049, 2056.627
216.2870, 2050.332
216.7691, 2048.656
217.2512, 2057.728
217.7334, 2074.699
218.2155, 2089.832
218.6976, 2095.858
219.1797, 2093.591
219.6618, 2089.449
220.1439, 2081.613
220.6261, 2074.384
221.1082, 2070.537
221.5903, 2068.876
222.0724, 2066.361
222.5545, 2058.169
223.0366, 2047.784
223.5188, 2051.717
224.0009, 2083.368
224.4830, 2105.539
224.9651, 2095.125
225.4472, 2066.815
225.9293, 2043.223
226.4115, 2035.318
226.8936, 2038.651
227.3757, 2043.605
227.8578, 2051.000
228.3399, 2058.126
228.8220, 2065.921
229.3041, 2072.257
229.7863, 2072.793
230.2684, 2063.177
230.7505, 2053.049
231.2326, 2062.214
231.7147, 2098.264
232.1968, 2125.585
232.6790, 2121.993
233.1611, 2108.742
233.6432, 2102.830
234.1253, 2108.713
234.6074, 2121.253
235.0895, 2137.743
235.5717, 2159.790
236.0538, 2172.345
236.5359, 2162.933
237.0180, 2147.615
237.5001, 2135.774
237.9822, 2128.632
238.4644, 2129.300
238.9465, 2146.394
239.4286, 2179.299
239.9107, 2201.258
240.3928, 2202.119
240.8749, 2195.042
241.3571, 2190.567
241.8392, 2188.524
242.3213, 2183.345
242.8034, 2164.606
243.2855, 2136.956
243.7676, 2127.735
244.2498, 2149.498
244.7319, 2175.832
245.2140, 2190.485
245.6961, 2194.536
246.1782, 2190.939
246.6603, 2175.564
247.1425, 2153.869
247.6246, 2140.670
248.1067, 2138.346
248.5888, 2139.580
249.0709, 2141.874
249.5530, 2144.138
250.0352, 2144.084
250.5173, 2140.356
250.9994, 2134.251
251.4815, 2125.080
251.9636, 2111.178
252.4457, 2104.616
252.9279, 2119.575
253.4100, 2143.958
253.8921, 2159.888
254.3742, 2162.801
254.8563, 2158.833
255.3384, 2152.468
255.8206, 2143.769
256.3027, 2134.542
256.7848, 2124.701
257.2669, 2115.406
257.7490, 2108.935
258.2311, 2106.710
258.7133, 2102.997
259.1954, 2088.445
259.6775, 2067.833
260.1596, 2061.741
260.6417, 2080.610
261.1238, 2109.421
261.6060, 2129.195
262.0881, 2139.944
262.5702, 2147.197
263.0523, 2155.736
263.5344, 2161.611
264.0165, 2153.098
264.4987, 2124.130
264.9808, 2097.113
265.4629, 2102.587
265.9450, 2136.933
266.4271, 2160.385
266.9092, 2155.295
267.3914, 2141.549
267.8735, 2142.289
268.3556, 2159.221
268.8377, 2174.518
269.3198, 2172.013
269.8019, 2154.042
270.2841, 2147.980
270.7662, 2164.541
271.2483, 2183.728
271.7304, 2193.507
272.2125, 2195.031
272.6946, 2194.479
273.1768, 2195.198
273.6589, 2196.334
274.1410, 2194.415
274.6231, 2183.718
275.1052, 2177.691
275.5873, 2183.490
276.0695, 2196.311
276.5516, 2208.195
277.0337, 2216.327
277.5158, 2221.040
277.9979, 2222.591
278.4800, 2219.122
278.9622, 2216.303
279.4443, 2210.586
279.9264, 2207.831
280.4085, 2218.003
280.8906, 2241.903
281.3727, 2265.188
281.8549, 2269.329
282.3370, 2246.030
282.8191, 2235.457
283.3012, 2245.942
283.7833, 2260.677
284.2654, 2270.450
284.7476, 2275.239
285.2297, 2279.782
285.7118, 2287.943
286.1939, 2299.707
286.6760, 2309.825
287.1581, 2315.425
287.6403, 2322.685
288.1224, 2333.647
288.6045, 2327.185
289.0866, 2358.264
289.5687, 2378.729
290.0508, 2389.154
290.5330, 2359.459
291.0151, 2381.570
291.4972, 2382.919
291.9793, 2383.417
292.4614, 2412.818
292.9435, 2388.958
293.4257, 2417.903
293.9078, 2425.768
294.3899, 2443.280
294.8720, 2439.903
295.3541, 2442.978
295.8362, 2466.949
296.3184, 2479.350
296.8005, 2473.569
297.2826, 2491.694
297.7647, 2467.104
298.2468, 2479.997
298.7289, 2509.063
299.2111, 2504.333
299.6932, 2522.840
300.1753, 2532.496
300.6574, 2501.930
301.1395, 2541.315
301.6216, 2553.420
302.1038, 2571.233
302.5859, 2581.303
303.0680, 2589.360
303.5501, 2594.523
304.0322, 2599.961
304.5143, 2602.962
304.9964, 2608.569
305.4785, 2624.735
305.9607, 2655.395
306.4428, 2685.440
306.9249, 2695.433
307.4070, 2685.509
307.8891, 2680.672
308.3712, 2688.134
308.8534, 2701.733
309.3355, 2716.208
309.8176, 2731.468
310.2997, 2745.418
310.7818, 2759.212
311.2639, 2770.801
311.7461, 2771.181
312.2282, 2753.988
312.7103, 2743.295
313.1924, 2770.632
313.6745, 2823.376
314.1566, 2859.994
314.6388, 2856.705
315.1209, 2844.264
315.6030, 2852.076
316.0851, 2879.203
316.5672, 2910.452
317.0493, 2941.355
317.5315, 2968.114
318.0136, 2979.658
318.4957, 2964.469
318.9778, 2952.951
319.4599, 2960.059
319.9420, 2978.328
320.4242, 2993.240
320.9063, 2999.521
321.3884, 3004.125
321.8705, 3018.977
322.3526, 3050.615
322.8347, 3074.818
323.3169, 3080.291
323.7990, 3084.835
324.2811, 3102.590
324.7632, 3134.721
325.2453, 3175.772
325.7274, 3223.723
326.2096, 3280.027
326.6917, 3311.530
327.1738, 3293.357
327.6559, 3280.860
328.1380, 3291.519
328.6201, 3320.516
329.1023, 3360.098
329.5844, 3406.832
330.0665, 3456.231
330.5486, 3493.104
331.0307, 3504.725
331.5128, 3524.459
331.9950, 3554.081
332.4771, 3592.377
332.9592, 3640.937
333.4413, 3698.669
333.9234, 3758.815
334.4055, 3811.841
334.8877, 3855.590
335.3698, 3904.980
335.8519, 3960.999
336.3340, 4022.128
336.8161, 4090.247
337.2982, 4162.918
337.7804, 4235.379
338.2625, 4305.127
338.7446, 4372.023
339.2267, 4433.563
339.7088, 4485.169
340.1909, 4543.862
340.6731, 4624.534
341.1552, 4713.457
341.6373, 4795.559
342.1194, 4866.335
342.6015, 4935.118
343.0836, 5010.773
343.5658, 5092.596
344.0479, 5170.709
344.5300, 5239.513
345.0121, 5308.747
345.4942, 5396.447
345.9763, 5501.592
346.4585, 5591.555
346.9406, 5648.052
347.4227, 5686.263
347.9048, 5726.263
348.3869, 5770.187
348.8690, 5813.053
349.3512, 5856.783
349.8333, 5896.501
350.3154, 5905.557
350.7975, 5870.099
351.2796, 5819.775
351.7617, 5771.481
352.2439, 5718.296
352.7260, 5641.060
353.2081, 5530.636
353.6902, 5402.071
354.1723, 5288.103
354.6544, 5207.279
355.1366, 5111.388
355.6187, 4989.810
356.1008, 4860.369
356.5829, 4737.135
357.0650, 4621.445
357.5471, 4504.671
358.0293, 4376.070
358.5114, 4234.782
358.9935, 4109.891
359.4756, 4012.071
359.9577, 3920.625
360.4398, 3828.890
360.9220, 3741.414
361.4041, 3667.570
361.8862, 3613.295
362.3683, 3567.020
362.8504, 3502.291
363.3326, 3410.508
363.8147, 3325.247
364.2968, 3249.545
364.7789, 3183.488
365.2610, 3130.976
365.7431, 3091.083
366.2253, 3052.882
366.7074, 3004.030
367.1895, 2948.279
367.6716, 2906.851
368.1537, 2886.093
368.6358, 2868.774
369.1180, 2844.783
369.6001, 2816.321
370.0822, 2786.926
370.5643, 2756.720
371.0464, 2726.951
371.5285, 2697.790
372.0107, 2669.677
372.4928, 2645.782
372.9749, 2628.485
373.4570, 2614.609
373.9391, 2598.108
374.4212, 2578.377
374.9034, 2559.602
375.3855, 2544.922
375.8676, 2530.752
376.3497, 2512.819
376.8318, 2490.587
377.3139, 2466.189
377.7961, 2440.166
378.2782, 2412.465
378.7603, 2392.651
379.2424, 2388.792
379.7245, 2382.405
380.2066, 2364.363
380.6888, 2340.347
381.1709, 2320.668
381.6530, 2309.840
382.1351, 2302.739
382.6172, 2287.932
383.0993, 2256.649
383.5815, 2236.183
384.0636, 2233.338
384.5457, 2235.018
385.0278, 2236.283
385.5099, 2235.312
385.9920, 2229.847
386.4742, 2216.125
386.9563, 2196.123
387.4384, 2182.847
387.9205, 2180.024
388.4026, 2176.834
388.8847, 2165.904
389.3669, 2153.419
389.8490, 2147.917
390.3311, 2153.042
390.8132, 2159.613
391.2953, 2155.901
391.7774, 2143.894
392.2596, 2140.149
392.7417, 2152.045
393.2238, 2166.913
393.7059, 2170.112
394.1880, 2162.989
394.6701, 2155.266
395.1523, 2149.478
395.6344, 2144.087
396.1165, 2136.128
396.5986, 2126.344
397.0807, 2120.901
397.5628, 2124.697
398.0450, 2134.500
398.5271, 2137.753
399.0092, 2130.611
399.4913, 2122.949
399.9734, 2117.010
400.4555, 2110.864
400.9377, 2098.610
401.4197, 2080.714
401.9019, 2069.391
402.3840, 2081.174
402.8661, 2121.325
403.3482, 2144.153
403.8303, 2134.472
404.3124, 2123.074
404.7946, 2119.531
405.2767, 2120.152
405.7588, 2116.069
406.2409, 2101.959
406.7230, 2087.374
407.2051, 2094.845
407.6873, 2132.034
408.1694, 2155.594
408.6515, 2148.813
409.1336, 2131.763
409.6157, 2113.948
410.0978, 2097.062
410.5800, 2087.336
411.0621, 2091.967
411.5442, 2105.050
412.0263, 2116.824
412.5084, 2127.357
412.9905, 2131.297
413.4727, 2119.922
413.9548, 2101.362
414.4369, 2098.886
414.9190, 2124.393
415.4011, 2146.219
415.8832, 2147.466
416.3654, 2137.685
416.8475, 2132.374
417.3296, 2135.345
417.8117, 2140.585
418.2938, 2140.522
418.7759, 2133.211
419.2581, 2133.022
419.7402, 2146.644
420.2223, 2159.337
420.7044, 2162.763
421.1865, 2161.267
421.6686, 2163.644
422.1508, 2174.317
422.6329, 2189.478
423.1150, 2200.722
423.5971, 2206.400
424.0792, 2212.511
424.5613, 2215.706
425.0435, 2222.718
425.5256, 2240.409
426.0077, 2266.628
426.4898, 2291.040
426.9719, 2306.442
427.4540, 2315.336
427.9362, 2324.741
428.4183, 2335.094
428.9004, 2344.153
429.3825, 2351.640
429.8646, 2356.650
430.3467, 2356.350
430.8289, 2347.198
431.3110, 2343.654
431.7931, 2353.420
432.2752, 2373.396
432.7573, 2400.737
433.2394, 2434.995
433.7216, 2468.798
434.2037, 2495.753
434.6858, 2515.522
435.1679, 2531.635
435.6500, 2537.636
436.1321, 2547.564
436.6143, 2568.533
437.0964, 2595.809
437.5785, 2623.055
438.0606, 2647.683
438.5427, 2669.852
439.0248, 2689.357
439.5070, 2705.637
439.9891, 2721.272
440.4712, 2728.342
440.9533, 2742.540
441.4354, 2779.032
441.9175, 2827.254
442.3997, 2863.278
442.8818, 2871.258
443.3639, 2866.143
443.8460, 2876.768
444.3281, 2904.982
444.8102, 2927.746
445.2924, 2934.269
445.7745, 2936.350
446.2566, 2950.434
446.7387, 2976.873
447.2208, 2994.800
447.7029, 2989.601
448.1851, 2975.888
448.6672, 2969.677
449.1493, 2971.834
449.6314, 2978.067
450.1135, 2985.745
450.5956, 2995.503
451.0778, 3010.265
451.5599, 3046.172
452.0420, 3065.156
452.5241, 3052.459
453.0062, 3028.507
453.4883, 3009.213
453.9705, 2997.839
454.4526, 2991.836
454.9347, 2989.944
455.4168, 2991.685
455.8989, 2988.592
456.3810, 2979.128
456.8632, 2966.750
457.3453, 2951.277
457.8274, 2934.379
458.3095, 2916.802
458.7916, 2898.506
459.2737, 2882.985
459.7559, 2873.556
460.2380, 2869.659
460.7201, 2870.225
461.2022, 2877.760
461.6843, 2881.664
462.1664, 2871.661
462.6486, 2850.910
463.1307, 2831.346
463.6128, 2816.117
464.0949, 2800.061
464.5770, 2773.850
465.0591, 2746.291
465.5413, 2736.376
466.0234, 2749.791
466.5055, 2772.400
466.9876, 2786.066
467.4697, 2788.120
467.9518, 2793.971
468.4340, 2812.469
468.9161, 2824.903
469.3982, 2819.074
469.8803, 2803.857
470.3624, 2794.441
470.8445, 2797.491
471.3267, 2805.842
471.8088, 2806.966
472.2909, 2799.402
472.7730, 2796.846
473.2551, 2804.622
473.7372, 2813.489
474.2194, 2817.987
474.7015, 2818.564
475.1836, 2816.581
475.6657, 2807.734
476.1478, 2800.813
476.6299, 2806.699
477.1121, 2823.132
477.5942, 2839.161
478.0763, 2850.834
478.5584, 2860.761
479.0405, 2874.302
479.5226, 2896.394
480.0048, 2903.529
480.4869, 2877.706
480.9690, 2852.826
481.4511, 2852.474
481.9332, 2869.407
482.4153, 2884.407
482.8975, 2887.480
483.3796, 2881.803
483.8617, 2872.930
484.3438, 2856.974
484.8259, 2849.123
485.3080, 2859.866
485.7902, 2871.730
486.2723, 2874.981
486.7544, 2871.462
487.2365, 2868.700
487.7186, 2868.813
488.2007, 2873.406
488.6829, 2889.689
489.1650, 2916.826
489.6471, 2932.860
490.1292, 2927.253
490.6113, 2911.001
491.0934, 2900.712
491.5756, 2897.127
492.0577, 2891.706
492.5398, 2880.621
493.0219, 2869.438
493.5040, 2854.547
493.9861, 2842.606
494.4683, 2856.997
494.9504, 2912.552
495.4325, 2983.277
495.9146, 3000.409
496.3967, 2929.074
496.8788, 2881.004
497.3610, 2874.556
497.8431, 2878.805
498.3252, 2879.207
498.8073, 2876.461
499.2894, 2878.009
499.7715, 2891.573
500.2536, 2906.902
500.7357, 2903.162
501.2179, 2880.089
501.7000, 2861.882
502.1821, 2856.870
502.6642, 2858.120
503.1463, 2856.932
503.6284, 2853.289
504.1106, 2851.880
504.5927, 2851.013
505.0748, 2854.885
505.5569, 2874.914
506.0390, 2902.537
506.5211, 2912.653
507.0033, 2892.718
507.4854, 2858.697
507.9675, 2842.130
508.4496, 2851.965
508.9317, 2857.693
509.4138, 2854.370
509.8960, 2851.986
510.3781, 2858.900
510.8602, 2869.823
511.3423, 2871.285
511.8244, 2853.344
512.3066, 2833.010
512.7887, 2840.143
513.2708, 2873.286
513.7529, 2895.283
514.2350, 2894.011
514.7172, 2886.769
515.1993, 2892.179
515.6814, 2908.248
516.1635, 2919.932
516.6456, 2923.105
517.1277, 2923.455
517.6099, 2920.048
518.0920, 2916.937
518.5741, 2923.667
519.0562, 2943.235
519.5383, 2965.733
520.0204, 2976.116
520.5026, 2969.992
520.9847, 2976.577
521.4668, 3016.571
521.9489, 3047.035
522.4310, 3047.101
522.9131, 3033.331
523.3953, 3029.447
523.8774, 3043.564
524.3595, 3063.279
524.8416, 3077.981
525.3237, 3087.782
525.8058, 3090.663
526.2880, 3083.570
526.7701, 3081.493
527.2522, 3098.487
527.7343, 3130.259
528.2164, 3153.566
528.6985, 3165.115
529.1807, 3172.999
529.6628, 3175.356
530.1449, 3177.705
530.6270, 3188.286
531.1091, 3207.257
531.5912, 3226.712
532.0734, 3239.738
532.5555, 3246.657
533.0376, 3250.302
533.5197, 3249.974
534.0018, 3247.493
534.4839, 3238.014
534.9661, 3230.226
535.4482, 3235.647
535.9303, 3253.879
536.4124, 3265.848
536.8945, 3249.776
537.3766, 3223.750
537.8588, 3219.058
538.3409, 3236.013
538.8230, 3263.997
539.3051, 3304.927
539.7872, 3343.715
540.2693, 3346.462
540.7515, 3290.781
541.2336, 3254.936
541.7157, 3251.738
542.1978, 3260.270
542.6799, 3270.517
543.1620, 3281.264
543.6442, 3293.811
544.1263, 3308.950
544.6084, 3324.672
545.0905, 3336.667
545.5726, 3344.470
546.0547, 3352.275
546.5369, 3363.786
547.0190, 3371.003
547.5011, 3365.382
547.9832, 3351.626
548.4653, 3342.176
548.9474, 3342.545
549.4296, 3344.749
549.9116, 3338.502
550.3937, 3330.965
550.8759, 3341.325
551.3580, 3373.453
551.8401, 3405.725
552.3222, 3415.951
552.8043, 3404.202
553.2864, 3395.354
553.7686, 3390.596
554.2507, 3387.490
554.7328, 3385.631
555.2149, 3385.354
555.6970, 3388.100
556.1791, 3393.494
556.6613, 3397.879
557.1434, 3397.709
557.6255, 3394.292
558.1076, 3391.257
558.5897, 3388.627
559.0718, 3386.013
559.5540, 3382.888
560.0361, 3380.003
560.5182, 3377.848
561.0003, 3375.107
561.4824, 3378.633
561.9645, 3396.809
562.4467, 3415.139
562.9288, 3424.328
563.4109, 3425.240
563.8930, 3419.376
564.3751, 3407.263
564.8572, 3396.425
565.3394, 3403.525
565.8215, 3434.170
566.3036, 3451.258
566.7857, 3445.825
567.2678, 3436.198
567.7499, 3424.837
568.2321, 3417.569
568.7142, 3427.456
569.1963, 3464.678
569.6784, 3500.799
570.1605, 3508.971
570.6426, 3505.357
571.1248, 3522.567
571.6069, 3564.218
572.0890, 3607.473
572.5711, 3635.069
573.0532, 3649.692
573.5353, 3665.770
574.0175, 3679.468
574.4996, 3700.769
574.9817, 3731.430
575.4638, 3768.720
575.9459, 3812.476
576.4280, 3861.339
576.9102, 3911.283
577.3923, 3958.718
577.8744, 4008.424
578.3565, 4071.738
578.8386, 4147.560
579.3207, 4217.167
579.8029, 4272.567
580.2850, 4328.038
580.7671, 4398.787
581.2492, 4485.934
581.7313, 4576.915
582.2134, 4671.494
582.6956, 4769.526
583.1777, 4876.379
583.6598, 4983.571
584.1419, 5081.150
584.6240, 5166.729
585.1061, 5244.810
585.5883, 5312.378
586.0704, 5375.413
586.5525, 5481.418
587.0346, 5645.237
587.5167, 5803.615
587.9988, 5932.998
588.4810, 6047.442
588.9631, 6169.643
589.4452, 6300.976
589.9273, 6409.639
590.4094, 6466.914
590.8915, 6514.619
591.3737, 6587.424
591.8558, 6679.434
592.3379, 6773.537
592.8200, 6863.456
593.3021, 6946.297
593.7842, 7016.925
594.2664, 7072.754
594.7485, 7135.450
595.2306, 7219.669
595.7127, 7291.161
596.1948, 7332.000
596.6769, 7357.895
597.1591, 7390.121
597.6412, 7434.005
598.1233, 7470.945
598.6054, 7488.855
599.0875, 7492.969
599.5696, 7490.092
600.0518, 7480.921
600.5339, 7463.791
601.0160, 7436.143
601.4981, 7405.786
601.9802, 7391.365
602.4623, 7408.392
602.9445, 7403.590
603.4266, 7352.438
603.9087, 7306.795
604.3908, 7297.964
604.8729, 7307.550
605.3550, 7303.281
605.8372, 7273.514
606.3193, 7232.613
606.8014, 7193.580
607.2835, 7154.879
607.7656, 7106.363
608.2477, 7045.683
608.7299, 7001.021
609.2120, 6993.718
609.6941, 7011.599
610.1762, 7017.453
610.6583, 7012.104
611.1404, 6992.496
611.6226, 6939.242
612.1047, 6889.265
612.5868, 6872.225
613.0689, 6876.277
613.5510, 6870.750
614.0331, 6840.218
614.5153, 6801.304
614.9974, 6773.895
615.4795, 6757.860
615.9616, 6754.873
616.4437, 6767.967
616.9258, 6783.242
617.4080, 6793.376
617.8901, 6797.768
618.3722, 6793.824
618.8543, 6775.188
619.3364, 6759.867
619.8185, 6750.212
620.3007, 6745.367
620.7828, 6747.445
621.2649, 6753.795
621.7470, 6758.292
622.2291, 6757.847
622.7112, 6752.297
623.1934, 6736.265
623.6755, 6709.635
624.1576, 6704.030
624.6397, 6734.455
625.1218, 6759.981
625.6039, 6744.966
626.0861, 6701.984
626.5682, 6678.164
627.0503, 6681.221
627.5324, 6691.580
628.0145, 6709.011
628.4966, 6727.996
628.9788, 6750.434
629.4609, 6770.310
629.9430, 6768.390
630.4251, 6730.929
630.9072, 6677.468
631.3893, 6648.987
631.8715, 6647.743
632.3536, 6641.857
632.8357, 6623.613
633.3178, 6607.571
633.7999, 6609.952
634.2820, 6621.995
634.7642, 6618.878
635.2463, 6589.081
635.7284, 6562.260
636.2105, 6548.013
636.6926, 6541.313
637.1747, 6540.066
637.6569, 6541.960
638.1390, 6544.103
638.6211, 6545.876
639.1032, 6540.540
639.5853, 6505.909
640.0674, 6436.016
640.5496, 6398.088
641.0317, 6413.553
641.5138, 6436.083
641.9959, 6438.573
642.4780, 6425.080
642.9601, 6402.620
643.4423, 6362.098
643.9244, 6332.391
644.4065, 6332.364
644.8886, 6341.004
645.3707, 6341.744
645.8528, 6332.238
646.3350, 6310.038
646.8171, 6272.264
647.2992, 6234.456
647.7813, 6231.226
648.2634, 6266.084
648.7455, 6287.138
649.2277, 6288.492
649.7098, 6278.863
650.1919, 6253.070
650.6740, 6222.743
651.1561, 6212.850
651.6382, 6232.563
652.1204, 6251.656
652.6025, 6255.207
653.0846, 6259.584
653.5667, 6285.249
654.0488, 6323.846
654.5309, 6354.859
655.0131, 6368.715
655.4952, 6360.607
655.9773, 6311.110
656.4594, 6219.372
656.9415, 6162.339
657.4236, 6150.935
657.9058, 6152.962
658.3879, 6152.703
658.8700, 6155.256
659.3521, 6174.941
659.8342, 6223.144
660.3163, 6244.973
660.7985, 6209.874
661.2806, 6162.571
661.7627, 6133.503
662.2448, 6115.906
662.7269, 6090.798
663.2090, 6051.477
663.6912, 6009.409
664.1733, 5980.400
664.6554, 5962.283
665.1375, 5933.511
665.6196, 5891.359
666.1017, 5851.100
666.5839, 5818.833
667.0660, 5791.993
667.5481, 5769.095
668.0302, 5752.432
668.5123, 5724.301
668.9944, 5667.033
669.4766, 5615.594
669.9587, 5598.534
670.4408, 5591.692
670.9229, 5557.954
671.4050, 5490.570
671.8871, 5417.612
672.3693, 5362.099
672.8514, 5320.668
673.3335, 5285.992
673.8156, 5258.366
674.2977, 5226.425
674.7798, 5187.449
675.2620, 5140.284
675.7441, 5081.565
676.2262, 5010.058
676.7083, 4944.298
677.1904, 4888.576
677.6725, 4832.642
678.1547, 4774.270
678.6368, 4714.538
679.1189, 4651.043
679.6010, 4586.525
680.0831, 4532.810
680.5652, 4505.223
681.0474, 4481.457
681.5295, 4421.112
682.0116, 4334.257
682.4937, 4269.179
682.9758, 4237.515
683.4579, 4213.055
683.9401, 4175.030
684.4222, 4125.043
684.9043, 4071.385
685.3864, 4009.050
685.8685, 3951.689
686.3506, 3898.049
686.8328, 3850.490
687.3149, 3813.549
687.7970, 3783.349
688.2791, 3752.828
688.7612, 3722.569
689.2433, 3681.494
689.7255, 3601.510
690.2076, 3512.520
690.6897, 3478.860
691.1718, 3496.976
691.6539, 3497.969
692.1360, 3440.988
692.6182, 3353.007
693.1003, 3290.811
693.5824, 3261.025
694.0645, 3232.387
694.5466, 3203.540
695.0287, 3178.166
695.5109, 3165.638
695.9930, 3153.603
696.4751, 3120.592
696.9572, 3060.538
697.4393, 3014.315
697.9214, 3020.663
698.4036, 3026.768
698.8857, 2977.821
699.3678, 2896.187
699.8499, 2834.150
700.3320, 2808.006
700.8141, 2794.876
701.2963, 2770.159
701.7784, 2735.865
702.2605, 2706.787
702.7426, 2684.420
703.2247, 2659.562
703.7068, 2628.758
704.1890, 2595.164
704.6711, 2559.443
705.1532, 2522.139
705.6353, 2495.203
706.1174, 2488.920
706.5995, 2480.871
707.0817, 2462.743
707.5638, 2441.011
708.0459, 2422.498
708.5280, 2406.953
709.0101, 2388.760
709.4922, 2362.948
709.9744, 2337.247
710.4565, 2326.379
710.9386, 2326.258
711.4207, 2317.878
711.9028, 2298.171
712.3849, 2272.261
712.8671, 2241.517
713.3492, 2209.886
713.8313, 2190.128
714.3134, 2191.419
714.7955, 2186.146
715.2776, 2171.317
715.7598, 2153.432
716.2419, 2134.399
716.7240, 2114.242
717.2061, 2090.221
717.6882, 2060.687
718.1703, 2040.857
718.6525, 2049.274
719.1346, 2064.710
719.6167, 2063.582
720.0988, 2047.910
720.5809, 2025.624
721.0630, 1999.909
721.5452, 1974.988
722.0273, 1956.064
722.5094, 1942.799
722.9915, 1932.020
723.4736, 1924.869
723.9557, 1916.078
724.4379, 1902.555
724.9200, 1888.737
725.4021, 1880.520
725.8842, 1876.741
726.3663, 1868.952
726.8484, 1849.701
727.3306, 1834.983
727.8127, 1834.452
728.2948, 1837.042
728.7769, 1831.772
729.2590, 1819.520
729.7411, 1807.755
730.2233, 1800.500
730.7054, 1795.116
731.1875, 1789.808
731.6696, 1783.502
732.1517, 1769.125
732.6339, 1745.791
733.1160, 1730.432
733.5981, 1734.434
734.0802, 1747.314
734.5623, 1746.084
735.0444, 1723.036
735.5266, 1713.103
736.0087, 1739.219
736.4908, 1750.118
736.9729, 1712.303
737.4550, 1662.642
737.9371, 1646.137
738.4193, 1666.601
738.9014, 1682.219
739.3835, 1671.224
739.8656, 1653.229
740.3477, 1638.991
740.8298, 1630.100
741.3120, 1632.538
741.7941, 1644.975
742.2762, 1652.377
742.7583, 1641.073
743.2404, 1619.346
743.7225, 1611.006
744.2047, 1616.858
744.6868, 1616.815
745.1689, 1605.452
745.6510, 1594.916
746.1331, 1594.610
746.6152, 1601.353
747.0973, 1604.435
747.5794, 1601.637
748.0615, 1599.457
748.5436, 1590.000
749.0258, 1580.292
749.5079, 1594.476
749.9900, 1600.669
750.4721, 1599.302
750.9542, 1567.730
751.4363, 1575.162
751.9185, 1566.962
752.4006, 1558.122
752.8827, 1571.043
753.3648, 1543.864
753.8469, 1556.440
754.3290, 1553.147
754.8112, 1557.116
755.2933, 1545.358
755.7754, 1538.458
756.2575, 1547.291
756.7396, 1547.412
757.2217, 1513.835
757.7039, 1512.421
758.1860, 1512.447
758.6681, 1506.093
759.1502, 1496.338
759.6323, 1494.924
760.1144, 1510.073
760.5966, 1518.259
761.0787, 1509.194
761.5608, 1498.587
762.0429, 1498.012
762.5250, 1502.820
763.0071, 1503.258
763.4893, 1496.372
763.9714, 1487.770
764.4535, 1480.855
764.9356, 1475.821
765.4177, 1472.163
765.8998, 1470.551
766.3820, 1476.277
766.8641, 1490.911
767.3462, 1501.725
767.8283, 1493.776
768.3104, 1471.373
768.7925, 1463.551
769.2747, 1475.994
769.7568, 1483.569
770.2389, 1480.448
770.7210, 1473.670
771.2031, 1467.603
771.6852, 1461.898
772.1674, 1455.044
772.6495, 1443.754
773.1316, 1438.070
773.6137, 1441.876
774.0958, 1449.787
774.5779, 1465.002
775.0601, 1479.538
775.5422, 1477.755
776.0243, 1455.980
776.5064, 1434.329
776.9885, 1430.209
777.4706, 1435.525
777.9528, 1440.603
778.4349, 1444.290
778.9170, 1443.082
779.3991, 1436.083
779.8812, 1424.611
780.3633, 1407.929
780.8455, 1390.242
781.3276, 1392.814
781.8097, 1422.648
782.2918, 1441.005
782.7739, 1439.783
783.2560, 1431.540
783.7382, 1420.836
784.2203, 1409.872
784.7024, 1404.174
785.1845, 1403.805
785.6666, 1408.265
786.1487, 1425.070
786.6309, 1438.457
787.1130, 1437.910
787.5951, 1430.507
788.0772, 1426.985
788.5593, 1428.804
789.0414, 1427.864
789.5236, 1415.028
790.0057, 1400.316
790.4878, 1396.133
790.9699, 1398.398
791.4520, 1396.766
791.9341, 1390.313
792.4163, 1388.676
792.8984, 1399.648
793.3805, 1416.177
793.8626, 1421.295
794.3447, 1414.458
794.8268, 1407.118
795.3090, 1397.699
795.7911, 1398.188
796.2732, 1421.545
796.7553, 1450.608
797.2374, 1453.002
797.7195, 1420.124
798.2017, 1401.386
798.6838, 1406.448
799.1659, 1412.440
799.6480, 1417.889
800.1301, 1418.707
800.6122, 1408.445
801.0944, 1389.489
801.5765, 1373.738
802.0586, 1365.827
802.5407, 1361.782
803.0228, 1359.854
803.5049, 1359.924
803.9871, 1362.592
804.4692, 1367.143
804.9513, 1372.374
805.4334, 1377.776
805.9155, 1380.622
806.3976, 1375.626
806.8798, 1365.248
807.3619, 1356.769
807.8440, 1350.589
808.3261, 1357.687
808.8082, 1384.644
809.2903, 1406.984
809.7725, 1395.713
810.2546, 1355.920
810.7367, 1334.920
811.2188, 1338.518
811.7009, 1347.853
812.1830, 1370.408
812.6652, 1386.661
813.1473, 1379.468
813.6294, 1358.976
814.1115, 1345.290
814.5936, 1341.233
815.0757, 1338.964
815.5579, 1338.014
816.0400, 1337.197
816.5221, 1335.122
817.0042, 1333.155
817.4863, 1331.849
817.9684, 1332.075
818.4506, 1338.137
818.9327, 1360.512
819.4148, 1380.043
819.8969, 1368.987
820.3790, 1341.605
820.8611, 1325.555
821.3433, 1324.452
821.8254, 1332.387
822.3075, 1346.760
822.7896, 1360.520
823.2717, 1359.097
823.7538, 1343.610
824.2360, 1336.849
824.7181, 1340.636
825.2002, 1342.072
825.6823, 1334.194
826.1644, 1327.787
826.6465, 1338.381
827.1287, 1365.365
827.6108, 1375.706
828.0929, 1354.052
828.5750, 1341.769
829.0571, 1356.665
829.5392, 1369.526
830.0214, 1357.020
830.5035, 1331.594
830.9856, 1321.737
831.4677, 1335.747
831.9498, 1349.291
832.4319, 1357.875
832.9141, 1360.780
833.3962, 1353.546
833.8783, 1342.235
834.3604, 1336.147
834.8425, 1336.192
835.3246, 1335.162
835.8068, 1327.452
836.2889, 1317.745
836.7710, 1310.763
837.2531, 1306.168
837.7352, 1301.501
838.2173, 1297.762
838.6995, 1303.645
839.1816, 1324.452
839.6637, 1348.674
840.1458, 1359.667
840.6279, 1357.572
841.1100, 1340.142
841.5922, 1304.422
842.0743, 1284.444
842.5564, 1293.837
843.0385, 1314.301
843.5206, 1328.567
844.0027, 1336.786
844.4849, 1340.578
844.9670, 1339.681
845.4491, 1334.652
845.9312, 1317.369
846.4133, 1305.538
846.8954, 1313.946
847.3776, 1331.305
847.8597, 1339.043
848.3418, 1334.780
848.8239, 1328.194
849.3060, 1315.225
849.7881, 1307.303
850.2703, 1313.069
850.7524, 1324.183
851.2345, 1333.101
851.7166, 1338.371
852.1987, 1339.887
852.6808, 1336.732
853.1630, 1331.957
853.6451, 1326.937
854.1272, 1322.403
854.6093, 1319.464
855.0914, 1317.856
855.5735, 1316.505
856.0557, 1315.025
856.5378, 1313.982
857.0199, 1314.797
857.5020, 1315.954
857.9841, 1312.029
858.4662, 1304.093
858.9484, 1300.513
859.4305, 1303.032
859.9126, 1305.421
860.3947, 1302.591
860.8768, 1298.469
861.3589, 1304.723
861.8411, 1324.625
862.3232, 1332.045
862.8053, 1322.882
863.2874, 1312.151
863.7695, 1305.620
864.2516, 1299.527
864.7338, 1287.247
865.2159, 1269.042
865.6980, 1262.673
866.1801, 1274.722
866.6622, 1289.198
867.1443, 1313.394
867.6265, 1331.263
868.1086, 1329.417
868.5907, 1316.434
869.0728, 1307.483
869.5549, 1304.531
870.0370, 1306.132
870.5192, 1318.753
871.0013, 1328.004
871.4834, 1320.505
871.9655, 1308.687
872.4476, 1308.191
872.9297, 1318.781
873.4119, 1330.109
873.8940, 1338.299
874.3761, 1342.985
874.8582, 1344.196
875.3403, 1341.569
875.8224, 1332.506
876.3046, 1319.321
876.7867, 1307.817
877.2688, 1300.128
877.7509, 1295.818
878.2330, 1294.847
878.7151, 1296.554
879.1973, 1301.417
879.6794, 1308.090
880.1615, 1307.208
880.6436, 1297.682
881.1257, 1291.879
881.6078, 1297.392
882.0900, 1309.782
882.5721, 1323.010
883.0542, 1337.320
883.5363, 1338.443
884.0184, 1321.906
884.5005, 1316.288
884.9827, 1336.292
885.4648, 1353.150
885.9469, 1335.857
886.4290, 1293.224
886.9111, 1272.561
887.3932, 1285.212
887.8754, 1295.271
888.3575, 1298.448
888.8396, 1303.492
889.3217, 1318.367
889.8038, 1334.734
890.2859, 1342.835
890.7681, 1342.488
891.2502, 1336.857
891.7323, 1322.957
892.2144, 1308.266
892.6965, 1287.192
893.1786, 1272.702
893.6608, 1282.769
894.1429, 1304.656
894.6250, 1308.042
895.1071, 1282.997
895.5892, 1264.751
896.0714, 1270.993
896.5535, 1287.343
897.0356, 1314.282
897.5177, 1339.128
897.9998, 1342.409
898.4819, 1326.227
898.9641, 1310.003
899.4462, 1303.451
899.9283, 1300.269
900.4104, 1292.740
900.8925, 1286.007
901.3746, 1290.149
901.8568, 1301.637
902.3389, 1308.255
902.8210, 1307.077
903.3031, 1308.140
903.7852, 1323.266
904.2673, 1340.540
904.7495, 1331.122
905.2316, 1303.222
905.7137, 1289.573
906.1958, 1293.336
906.6779, 1306.043
907.1600, 1324.334
907.6422, 1338.533
908.1243, 1331.982
908.6064, 1309.238
909.0885, 1304.698
909.5706, 1319.416
910.0527, 1336.393
910.5349, 1355.315
911.0170, 1356.487
911.4991, 1320.309
911.9812, 1267.489
912.4633, 1248.611
912.9454, 1269.517
913.4276, 1290.841
913.9097, 1316.792
914.3918, 1332.070
914.8739, 1329.846
915.3560, 1318.185
915.8381, 1298.963
916.3203, 1276.354
916.8024, 1273.839
917.2845, 1309.013
917.7666, 1332.446
918.2487, 1341.293
918.7308, 1341.556
919.2130, 1327.204
919.6951, 1310.780
920.1772, 1308.671
920.6593, 1320.401
921.1414, 1326.295
921.6235, 1322.455
922.1057, 1315.045
922.5878, 1299.788
923.0699, 1286.761
923.5520, 1282.603
924.0341, 1285.052
924.5162, 1291.061
924.9984, 1300.215
925.4805, 1307.341
925.9626, 1309.280
926.4447, 1310.437
926.9268, 1315.189
927.4089, 1318.499
927.8911, 1311.318
928.3732, 1298.866
928.8553, 1297.340
929.3374, 1313.284
929.8195, 1325.259
930.3016, 1313.088
930.7838, 1297.409
931.2659, 1300.449
931.7480, 1310.470
932.2301, 1305.802
932.7122, 1287.798
933.1943, 1276.804
933.6765, 1284.353
934.1586, 1295.571
934.6407, 1294.341
935.1228, 1288.597
935.6049, 1289.638
936.0870, 1296.478
936.5692, 1306.535
937.0513, 1318.259
937.5334, 1327.822
938.0155, 1333.156
938.4976, 1332.906
938.9797, 1321.151
939.4619, 1303.201
939.9440, 1292.609
940.4261, 1289.786
940.9082, 1292.104
941.3903, 1298.364
941.8724, 1303.824
942.3546, 1303.138
942.8367, 1300.133
943.3188, 1307.658
943.8009, 1322.776
944.2830, 1322.175
944.7651, 1304.498
945.2472, 1297.664
945.7293, 1314.871
946.2114, 1337.532
946.6935, 1343.045
947.1757, 1333.784
947.6578, 1317.551
948.1399, 1293.741
948.6220, 1288.465
949.1041, 1307.903
949.5862, 1324.308
950.0684, 1322.174
950.5505, 1309.706
951.0326, 1299.184
951.5147, 1290.540
951.9968, 1281.947
952.4789, 1271.592
952.9611, 1272.454
953.4432, 1290.964
953.9253, 1308.048
954.4074, 1311.141
954.8895, 1304.957
955.3716, 1297.304
955.8538, 1286.200
956.3359, 1293.808
956.8180, 1332.834
957.3001, 1355.212
957.7822, 1343.085
958.2643, 1324.411
958.7465, 1318.481
959.2286, 1322.417
959.7107, 1329.469
960.1928, 1343.446
960.6749, 1345.673
961.1570, 1327.929
961.6392, 1312.861
962.1213, 1304.293
962.6034, 1302.929
963.0855, 1312.844
963.5676, 1330.293
964.0497, 1341.111
964.5319, 1344.960
965.0140, 1343.000
965.4961, 1328.573
965.9782, 1317.125
966.4603, 1314.386
966.9424, 1315.387
967.4246, 1319.589
967.9067, 1324.451
968.3888, 1317.332
968.8709, 1286.139
969.3530, 1266.228
969.8351, 1265.145
970.3173, 1268.956
970.7994, 1273.711
971.2815, 1280.032
971.7636, 1291.062
972.2457, 1305.123
972.7278, 1312.327
973.2100, 1306.422
973.6921, 1303.171
974.1742, 1310.646
974.6563, 1314.610
975.1384, 1299.517
975.6205, 1283.222
976.1027, 1289.488
976.5848, 1316.470
977.0669, 1339.627
977.5490, 1361.096
978.0311, 1366.514
978.5132, 1337.151
978.9954, 1307.846
979.4775, 1300.865
979.9596, 1303.854
980.4417, 1299.404
980.9238, 1286.908
981.4059, 1278.103
981.8881, 1273.132
982.3702, 1276.934
982.8523, 1300.383
983.3344, 1323.197
983.8165, 1333.407
984.2986, 1334.052
984.7808, 1327.808
985.2629, 1316.330
985.7450, 1307.850
986.2271, 1303.950
986.7092, 1305.131
987.1913, 1319.664
987.6735, 1331.151
988.1556, 1326.078
988.6377, 1311.151
989.1198, 1293.614
989.6019, 1276.137
990.0840, 1268.696
990.5662, 1282.986
991.0483, 1295.667
991.5304, 1297.906
992.0125, 1293.851
992.4946, 1277.946
992.9767, 1262.083
993.4589, 1268.608
993.9410, 1297.796
994.4231, 1319.142
994.9052, 1314.672
995.3873, 1308.799
995.8694, 1321.525
996.3516, 1328.611
996.8337, 1295.940
997.3158, 1251.295
997.7979, 1245.197
998.2800, 1281.930
998.7621, 1312.850
999.2443, 1316.356
999.7264, 1313.200
1000.208, 1310.900
1000.691, 1308.186
1001.173, 1303.655
1001.655, 1298.173
1002.137, 1293.391
1002.619, 1289.438
1003.101, 1284.776
1003.583, 1277.483
1004.065, 1271.402
1004.548, 1267.301
1005.030, 1266.258
1005.512, 1274.175
1005.994, 1283.248
1006.476, 1276.472
1006.958, 1254.873
1007.440, 1247.680
1007.922, 1279.067
1008.404, 1305.433
1008.887, 1301.236
1009.369, 1290.123
1009.851, 1288.753
1010.333, 1293.327
1010.815, 1299.556
1011.297, 1304.924
1011.779, 1299.296
1012.261, 1266.567
1012.744, 1245.333
1013.226, 1261.883
1013.708, 1285.748
1014.190, 1298.689
1014.672, 1303.252
1015.154, 1303.933
1015.636, 1301.916
1016.118, 1298.713
1016.600, 1293.327
1017.083, 1289.868
1017.565, 1285.973
1018.047, 1288.728
1018.529, 1309.396
1019.011, 1335.112
1019.493, 1353.860
1019.975, 1362.203
1020.457, 1351.965
1020.940, 1306.798
1021.422, 1275.525
1021.904, 1283.510
1022.386, 1298.465
1022.868, 1309.032
1023.350, 1312.231
1023.832, 1301.613
1024.314, 1280.934
1024.797, 1266.652
1025.279, 1262.975
1025.761, 1263.696
1026.243, 1266.835
1026.725, 1274.579
1027.207, 1297.050
1027.689, 1317.351
1028.171, 1315.387
1028.653, 1296.440
1029.135, 1282.186
1029.618, 1273.947
1030.100, 1276.292
1030.582, 1301.573
1031.064, 1322.743
1031.546, 1333.151
1032.028, 1332.833
1032.510, 1311.819
1032.992, 1281.598
1033.475, 1275.879
1033.957, 1306.814
1034.439, 1325.920
1034.921, 1322.007
1035.403, 1315.720
1035.885, 1303.877
1036.367, 1299.418
1036.849, 1321.614
1037.332, 1355.163
1037.814, 1364.811
1038.296, 1345.413
1038.778, 1325.625
1039.260, 1295.514
1039.742, 1280.932
1040.224, 1298.897
1040.706, 1317.027
1041.188, 1312.409
1041.671, 1298.905
1042.153, 1301.629
1042.635, 1322.043
1043.117, 1334.964
1043.599, 1340.673
1044.081, 1337.538
1044.563, 1319.343
1045.045, 1302.951
1045.527, 1295.685
1046.010, 1296.044
1046.492, 1303.743
1046.974, 1317.918
1047.456, 1324.746
1047.938, 1321.218
1048.420, 1321.347
1048.902, 1328.287
1049.384, 1332.177
1049.866, 1327.458
1050.349, 1321.698
1050.831, 1323.794
1051.313, 1331.553
1051.795, 1335.034
1052.277, 1334.056
1052.759, 1328.944
1053.241, 1318.320
1053.723, 1313.568
1054.206, 1319.468
1054.688, 1325.617
1055.170, 1321.835
1055.652, 1314.379
1056.134, 1322.131
1056.616, 1344.224
1057.098, 1353.798
1057.580, 1350.402
1058.063, 1334.453
1058.545, 1305.849
1059.027, 1288.449
1059.509, 1299.313
1059.991, 1325.985
1060.473, 1354.132
1060.955, 1379.526
1061.437, 1380.182
1061.919, 1359.704
1062.401, 1334.776
1062.884, 1310.052
1063.366, 1295.841
1063.848, 1297.440
1064.330, 1307.385
1064.812, 1319.341
1065.294, 1331.408
1065.776, 1340.483
1066.258, 1346.230
1066.741, 1346.305
1067.223, 1341.905
1067.705, 1337.284
1068.187, 1334.221
1068.669, 1333.844
1069.151, 1338.481
1069.633, 1343.833
1070.115, 1347.870
1070.598, 1347.294
1071.080, 1332.316
1071.562, 1310.199
1072.044, 1297.815
1072.526, 1297.783
1073.008, 1298.800
1073.490, 1291.881
1073.972, 1292.586
1074.454, 1324.947
1074.937, 1357.393
1075.419, 1355.369
1075.901, 1338.634
1076.383, 1339.055
1076.865, 1354.156
1077.347, 1356.895
1077.829, 1335.785
1078.311, 1316.089
1078.793, 1301.235
1079.276, 1299.097
1079.758, 1326.875
1080.240, 1357.604
1080.722, 1364.922
1081.204, 1356.004
1081.686, 1350.861
1082.168, 1352.801
1082.650, 1351.369
1083.133, 1340.085
1083.615, 1332.302
1084.097, 1329.783
1084.579, 1332.539
1085.061, 1345.231
1085.543, 1360.515
1086.025, 1369.489
1086.507, 1372.078
1086.990, 1366.097
1087.472, 1346.598
1087.954, 1328.611
1088.436, 1307.533
1088.918, 1299.827
1089.400, 1316.499
1089.882, 1339.703
1090.364, 1353.397
1090.846, 1359.317
1091.328, 1363.360
1091.811, 1365.997
1092.293, 1362.533
1092.775, 1351.898
1093.257, 1341.688
1093.739, 1332.922
1094.221, 1330.316
1094.703, 1336.710
1095.185, 1353.071
1095.668, 1389.514
1096.150, 1435.391
1096.632, 1424.841
1097.114, 1368.018
1097.596, 1337.182
1098.078, 1340.360
1098.560, 1356.522
1099.042, 1376.296
1099.525, 1389.718
1100.007, 1386.221
1100.489, 1372.659
1100.971, 1354.394
1101.453, 1337.452
1101.935, 1336.641
1102.417, 1347.642
1102.899, 1356.556
1103.381, 1360.586
1103.864, 1366.650
1104.346, 1380.216
1104.828, 1389.832
1105.310, 1380.461
1105.792, 1368.258
1106.274, 1372.031
1106.756, 1380.163
1107.238, 1373.557
1107.720, 1356.525
1108.203, 1348.919
1108.685, 1357.163
1109.167, 1360.378
1109.649, 1342.145
1110.131, 1328.783
1110.613, 1333.553
1111.095, 1343.985
1111.577, 1354.138
1112.060, 1362.318
1112.542, 1367.806
1113.024, 1370.301
1113.506, 1365.731
1113.988, 1343.776
1114.470, 1331.867
1114.952, 1334.314
1115.434, 1341.065
1115.917, 1354.226
1116.399, 1362.298
1116.881, 1351.821
1117.363, 1331.325
1117.845, 1324.682
1118.327, 1332.615
1118.809, 1351.188
1119.291, 1385.023
1119.773, 1395.656
1120.255, 1373.423
1120.738, 1343.708
1121.220, 1318.302
1121.702, 1307.801
1122.184, 1332.470
1122.666, 1375.890
1123.148, 1383.262
1123.630, 1361.421
1124.112, 1335.174
1124.595, 1310.472
1125.077, 1304.705
1125.559, 1321.637
1126.041, 1348.625
1126.523, 1380.710
1127.005, 1401.844
1127.487, 1383.812
1127.969, 1351.448
1128.452, 1337.209
1128.934, 1333.507
1129.416, 1322.382
1129.898, 1307.077
1130.380, 1307.200
1130.862, 1329.558
1131.344, 1351.825
1131.826, 1365.228
1132.308, 1371.935
1132.791, 1371.430
1133.273, 1366.365
1133.755, 1354.536
1134.237, 1341.877
1134.719, 1335.958
1135.201, 1337.330
1135.683, 1344.215
1136.165, 1364.788
1136.647, 1374.396
1137.130, 1361.764
1137.612, 1356.161
1138.094, 1374.272
1138.576, 1387.329
1139.058, 1369.164
1139.540, 1337.067
1140.022, 1326.392
1140.504, 1337.060
1140.987, 1358.762
1141.469, 1395.219
1141.951, 1397.447
1142.433, 1357.086
1142.915, 1322.163
1143.397, 1313.056
1143.879, 1314.810
1144.361, 1312.676
1144.844, 1312.252
1145.326, 1332.596
1145.808, 1361.129
1146.290, 1357.756
1146.772, 1332.220
1147.254, 1316.485
1147.736, 1316.800
1148.218, 1330.001
1148.700, 1355.542
1149.182, 1371.485
1149.665, 1349.419
1150.147, 1323.284
1150.629, 1323.143
1151.111, 1332.167
1151.593, 1334.567
1152.075, 1331.539
1152.557, 1325.543
1153.039, 1318.439
1153.522, 1319.960
1154.004, 1335.738
1154.486, 1353.609
1154.968, 1382.927
1155.450, 1398.739
1155.932, 1385.357
1156.414, 1361.750
1156.896, 1335.705
1157.379, 1312.713
1157.861, 1305.132
1158.343, 1313.428
1158.825, 1321.591
1159.307, 1330.255
1159.789, 1336.021
1160.271, 1338.915
1160.753, 1332.712
1161.235, 1313.423
1161.718, 1302.713
1162.200, 1323.716
1162.682, 1355.912
1163.164, 1353.624
1163.646, 1329.936
1164.128, 1324.355
1164.610, 1332.755
1165.092, 1338.015
1165.574, 1338.954
1166.057, 1347.191
1166.539, 1367.007
1167.021, 1379.989
1167.503, 1362.416
1167.985, 1346.349
1168.467, 1363.931
1168.949, 1386.648
1169.431, 1388.966
1169.914, 1378.612
1170.396, 1363.155
1170.878, 1347.833
1171.360, 1350.922
1171.842, 1385.296
1172.324, 1407.994
1172.806, 1415.662
1173.288, 1407.990
1173.771, 1372.610
1174.253, 1340.469
1174.735, 1326.425
1175.217, 1329.091
1175.699, 1350.594
1176.181, 1385.504
1176.663, 1399.649
1177.145, 1392.309
1177.627, 1385.862
1178.109, 1381.584
1178.592, 1386.218
1179.074, 1400.779
1179.556, 1409.833
1180.038, 1403.696
1180.520, 1389.542
1181.002, 1369.903
1181.484, 1353.502
1181.966, 1358.730
1182.449, 1374.327
1182.931, 1382.573
1183.413, 1384.655
1183.895, 1389.806
1184.377, 1398.241
1184.859, 1397.609
1185.341, 1378.520
1185.823, 1362.302
1186.306, 1359.572
1186.788, 1358.755
1187.270, 1350.797
1187.752, 1346.210
1188.234, 1357.466
1188.716, 1376.392
1189.198, 1389.586
1189.680, 1396.987
1190.162, 1394.506
1190.645, 1377.115
1191.127, 1372.361
1191.609, 1385.259
1192.091, 1389.007
1192.573, 1374.051
1193.055, 1362.548
1193.537, 1371.117
1194.019, 1388.881
1194.501, 1401.109
1194.984, 1407.619
1195.466, 1406.717
1195.948, 1400.182
1196.430, 1388.610
1196.912, 1376.077
1197.394, 1376.987
1197.876, 1391.401
1198.358, 1393.202
1198.841, 1361.752
1199.323, 1338.634
1199.805, 1356.108
1200.287, 1377.774
1200.769, 1387.985
1201.251, 1387.858
1201.733, 1370.123
1202.215, 1347.067
1202.698, 1346.061
1203.180, 1366.705
1203.662, 1377.879
1204.144, 1376.905
1204.626, 1374.480
1205.108, 1371.169
1205.590, 1365.358
1206.072, 1355.967
1206.554, 1347.491
1207.036, 1342.713
1207.519, 1342.741
1208.001, 1352.289
1208.483, 1365.462
1208.965, 1363.146
1209.447, 1352.226
1209.929, 1351.383
1210.411, 1358.176
1210.893, 1358.957
1211.376, 1352.300
1211.858, 1350.126
1212.340, 1359.241
1212.822, 1367.680
1213.304, 1366.587
1213.786, 1365.818
1214.268, 1375.326
1214.750, 1382.402
1215.233, 1374.452
1215.715, 1358.793
1216.197, 1345.908
1216.679, 1336.333
1217.161, 1334.047
1217.643, 1341.408
1218.125, 1336.014
1218.607, 1358.976
1219.089, 1371.284
1219.572, 1373.509
1220.054, 1335.463
1220.536, 1349.422
1221.018, 1342.540
1221.500, 1334.803
1221.982, 1356.081
1222.464, 1323.893
1222.946, 1344.711
1223.428, 1331.556
1223.911, 1333.996
1224.393, 1338.266
1224.875, 1341.831
1225.357, 1339.072
1225.839, 1327.306
1226.321, 1323.238
1226.803, 1340.064
1227.285, 1355.777
1227.768, 1366.645
1228.250, 1371.070
1228.732, 1363.924
1229.214, 1354.917
1229.696, 1353.357
1230.178, 1355.987
1230.660, 1353.213
1231.142, 1345.040
1231.625, 1348.406
1232.107, 1363.064
1232.589, 1368.980
1233.071, 1364.447
1233.553, 1360.318
1234.035, 1359.931
1234.517, 1354.924
1234.999, 1337.773
1235.481, 1321.932
1235.964, 1324.499
1236.446, 1332.473
1236.928, 1334.653
1237.410, 1332.740
1237.892, 1327.849
##END=



