##NAMES=Freieslebenite
##RRUFFID=R060174
##IDEAL CHEMISTRY=Ag^1+^Pb^2+^Sb^3+^S^2-^_3_
##LOCALITY=Van Silver mine, Vancouver, British Columbia, Canada
##OWNER=RRUFF
##SOURCE=Ty Balacko, TB
##DESCRIPTION=Pale steel-gray striated prismatic crystals
##STATUS=The identification of this mineral is confirmed by single-crystal X-ray diffraction and chemical analysis.
##URL=rruff.info/R060174
##MEASURED CHEMISTRY=Ag_1.00_(Pb_0.95_Fe_0.05_)_Î£=1_Sb_1.00_S_3.00_
89.78156, 0.0000000E+00
90.26367, 5.894355
90.74579, 5.792140
91.22791, 5.871735
91.71002, 6.106268
92.19214, 6.255318
92.67426, 6.009429
93.15638, 5.509652
93.63850, 5.138223
94.12061, 5.073835
94.60273, 5.204958
95.08485, 5.294927
95.56696, 5.345063
96.04908, 5.339740
96.53120, 5.215486
97.01331, 4.982192
97.49543, 4.796089
97.97755, 4.753901
98.45966, 4.846270
98.94178, 4.883272
99.42390, 4.846901
99.90602, 4.779145
100.3881, 4.769257
100.8703, 4.836528
101.3524, 4.892858
101.8345, 4.862588
102.3166, 4.694669
102.7987, 4.681024
103.2808, 4.927197
103.7630, 5.340096
104.2451, 5.482721
104.7272, 5.227065
105.2093, 4.871882
105.6914, 4.602105
106.1735, 4.436089
106.6557, 4.329134
107.1378, 4.286276
107.6199, 4.308546
108.1020, 4.354570
108.5841, 4.514575
109.0662, 4.650979
109.5484, 4.642592
110.0305, 4.244258
110.5126, 3.944357
110.9947, 3.868999
111.4768, 4.084297
111.9590, 4.218632
112.4411, 4.122523
112.9232, 3.955911
113.4053, 3.927256
113.8874, 4.123405
114.3695, 4.421436
114.8517, 4.820607
115.3338, 5.426843
115.8159, 5.858019
116.2980, 5.813578
116.7801, 5.508867
117.2622, 5.413103
117.7444, 5.868531
118.2265, 6.491466
118.7086, 7.021658
119.1907, 7.346443
119.6728, 7.666350
120.1549, 8.087605
120.6371, 8.597422
121.1192, 9.146338
121.6013, 9.716800
122.0834, 10.30256
122.5655, 10.88386
123.0476, 11.32765
123.5298, 11.87584
124.0119, 12.86705
124.4940, 14.26873
124.9761, 15.62679
125.4582, 16.55316
125.9404, 17.17015
126.4225, 17.70747
126.9046, 18.26970
127.3867, 18.80212
127.8688, 19.16867
128.3509, 19.35145
128.8331, 19.54288
129.3152, 19.97079
129.7973, 20.60371
130.2794, 21.27049
130.7615, 21.84522
131.2436, 22.38472
131.7258, 23.10710
132.2079, 24.05632
132.6900, 25.08336
133.1721, 25.89086
133.6542, 26.47111
134.1364, 27.19312
134.6185, 28.38556
135.1006, 30.02769
135.5827, 31.39988
136.0648, 32.40826
136.5469, 33.18148
137.0291, 34.03611
137.5112, 34.99358
137.9933, 35.92052
138.4754, 36.75312
138.9575, 37.48501
139.4396, 38.10529
139.9218, 38.56472
140.4039, 38.90954
140.8860, 39.37724
141.3681, 40.03047
141.8502, 40.69010
142.3323, 41.16099
142.8145, 41.30410
143.2966, 41.64818
143.7787, 42.37904
144.2608, 43.49096
144.7429, 44.19698
145.2250, 44.10130
145.7072, 43.96375
146.1893, 44.56939
146.6714, 46.66372
147.1535, 48.38046
147.6356, 49.23161
148.1178, 49.04992
148.5999, 49.12304
149.0820, 49.48511
149.5641, 50.08906
150.0462, 50.88135
150.5283, 52.09861
151.0105, 53.25811
151.4926, 53.76288
151.9747, 53.98865
152.4568, 54.17017
152.9389, 54.26204
153.4210, 54.32662
153.9032, 54.45330
154.3853, 54.77107
154.8674, 55.04397
155.3495, 55.17741
155.8316, 55.08098
156.3137, 55.04998
156.7959, 55.13278
157.2780, 55.30766
157.7601, 55.53450
158.2422, 55.98396
158.7243, 56.35217
159.2065, 56.46918
159.6886, 56.11947
160.1707, 55.85423
160.6528, 55.84992
161.1349, 56.04848
161.6170, 56.30043
162.0992, 56.63628
162.5813, 56.95611
163.0634, 57.18978
163.5455, 57.27023
164.0276, 57.33355
164.5097, 57.41527
164.9919, 57.52193
165.4740, 57.68066
165.9561, 57.86354
166.4382, 58.12170
166.9203, 58.52166
167.4024, 59.38565
167.8846, 60.08667
168.3667, 60.05044
168.8488, 59.39637
169.3309, 58.89319
169.8130, 59.23034
170.2952, 59.92187
170.7773, 60.36005
171.2594, 60.19216
171.7415, 59.81220
172.2236, 59.47403
172.7057, 59.18209
173.1879, 59.02429
173.6700, 59.21172
174.1521, 59.56061
174.6342, 59.76160
175.1163, 59.45400
175.5984, 59.05798
176.0806, 59.16574
176.5627, 59.78066
177.0448, 60.39416
177.5269, 60.50921
178.0090, 60.27448
178.4911, 60.04515
178.9733, 59.98660
179.4554, 60.02314
179.9375, 60.02628
180.4196, 59.98914
180.9017, 59.97355
181.3838, 60.08847
181.8660, 60.29282
182.3481, 60.44276
182.8302, 60.37045
183.3123, 60.20635
183.7944, 60.30138
184.2766, 60.70616
184.7587, 61.15532
185.2408, 61.28755
185.7229, 61.15076
186.2050, 61.04159
186.6871, 61.19084
187.1693, 61.50068
187.6514, 61.55733
188.1335, 61.29065
188.6156, 60.95255
189.0977, 60.91298
189.5798, 61.16032
190.0620, 61.47522
190.5441, 61.78965
191.0262, 62.09190
191.5083, 62.30389
191.9904, 62.41560
192.4725, 62.45736
192.9547, 62.46712
193.4368, 62.44415
193.9189, 62.42182
194.4010, 62.41346
194.8831, 62.41991
195.3652, 62.45890
195.8474, 62.54807
196.3295, 62.64519
196.8116, 62.62728
197.2937, 62.47489
197.7758, 62.38915
198.2579, 62.54724
198.7401, 62.95698
199.2222, 63.21718
199.7043, 63.25909
200.1864, 63.17777
200.6685, 63.20023
201.1507, 63.34852
201.6328, 63.49339
202.1149, 63.54235
202.5970, 63.48212
203.0791, 63.45849
203.5612, 63.48254
204.0434, 63.55076
204.5255, 63.65599
205.0076, 63.80029
205.4897, 63.97570
205.9718, 64.23969
206.4539, 64.65143
206.9361, 64.76912
207.4182, 64.44032
207.9003, 63.84532
208.3824, 63.57053
208.8645, 63.69398
209.3466, 63.93353
209.8288, 64.16061
210.3109, 64.41206
210.7930, 64.47109
211.2751, 64.23672
211.7572, 63.81748
212.2393, 63.60521
212.7215, 63.63494
213.2036, 63.79602
213.6857, 64.06528
214.1678, 64.52502
214.6499, 64.80589
215.1320, 64.83564
215.6142, 64.66676
216.0963, 64.51829
216.5784, 64.37993
217.0605, 64.28082
217.5426, 64.23324
218.0247, 64.22408
218.5069, 64.31283
218.9890, 64.54448
219.4711, 64.88032
219.9532, 65.14909
220.4353, 65.36911
220.9175, 65.49796
221.3996, 65.47633
221.8817, 65.19215
222.3638, 65.05597
222.8459, 65.13699
223.3280, 65.40034
223.8102, 65.68066
224.2923, 66.05215
224.7744, 66.33499
225.2565, 66.39107
225.7386, 66.10942
226.2207, 65.86555
226.7029, 65.68304
227.1850, 65.56133
227.6671, 65.51289
228.1492, 65.56211
228.6313, 65.64942
229.1134, 65.74709
229.5956, 65.88389
230.0777, 65.96317
230.5598, 65.93765
231.0419, 65.84425
231.5240, 65.87218
232.0062, 66.08939
232.4883, 66.33687
232.9704, 66.53703
233.4525, 66.74126
233.9346, 66.77219
234.4167, 66.50520
234.8989, 66.04031
235.3810, 65.86603
235.8631, 66.14001
236.3452, 66.49406
236.8273, 66.72463
237.3094, 66.79487
237.7916, 66.81194
238.2737, 66.73674
238.7558, 66.60893
239.2379, 66.61224
239.7200, 66.86045
240.2021, 67.08469
240.6843, 67.11397
241.1664, 66.77087
241.6485, 66.63709
242.1306, 66.86168
242.6127, 67.31470
243.0948, 67.46108
243.5770, 67.05704
244.0591, 66.68711
244.5412, 66.69728
245.0233, 67.39342
245.5054, 67.77684
245.9876, 67.69614
246.4697, 67.29901
246.9518, 67.03761
247.4339, 66.92030
247.9160, 66.92583
248.3981, 67.08121
248.8803, 67.54158
249.3624, 67.76608
249.8445, 67.62789
250.3266, 67.27685
250.8087, 67.12643
251.2908, 67.24401
251.7730, 67.45275
252.2551, 67.68314
252.7372, 67.95757
253.2193, 68.20792
253.7014, 68.47790
254.1835, 68.70264
254.6657, 68.69019
255.1478, 68.25884
255.6299, 67.91009
256.1120, 67.86698
256.5941, 68.22939
257.0763, 68.59286
257.5584, 68.98959
258.0405, 69.37234
258.5226, 69.62832
259.0047, 69.70336
259.4868, 69.77084
259.9690, 69.92813
260.4511, 70.24010
260.9332, 70.31352
261.4153, 70.01089
261.8974, 69.59079
262.3795, 69.53587
262.8617, 70.02219
263.3438, 70.44524
263.8259, 70.56087
264.3080, 70.30170
264.7901, 70.22903
265.2722, 70.41944
265.7544, 70.70427
266.2365, 70.83652
266.7186, 70.78209
267.2007, 70.67577
267.6828, 70.52843
268.1649, 70.32954
268.6471, 70.26939
269.1292, 70.38634
269.6113, 70.58000
270.0934, 70.73234
270.5755, 70.84061
271.0576, 70.91788
271.5398, 70.92704
272.0219, 70.87513
272.5040, 71.05440
272.9861, 71.55251
273.4682, 72.08682
273.9503, 72.37037
274.4325, 72.38039
274.9146, 72.23341
275.3967, 71.86726
275.8788, 71.33836
276.3610, 71.15012
276.8431, 71.35562
277.3252, 71.74281
277.8073, 72.20539
278.2894, 72.77112
278.7715, 73.08284
279.2537, 73.00606
279.7358, 72.63856
280.2179, 72.40708
280.7000, 72.34436
281.1821, 72.26970
281.6642, 71.92744
282.1464, 71.31420
282.6285, 71.07085
283.1106, 71.42687
283.5927, 72.11282
284.0748, 72.36977
284.5569, 72.16084
285.0391, 71.85139
285.5212, 71.70340
286.0033, 71.69878
286.4854, 71.61968
286.9675, 71.41024
287.4496, 71.15542
287.9318, 71.05460
288.4139, 71.10941
288.8960, 71.14233
289.3781, 70.98909
289.8602, 70.70271
290.3423, 70.56236
290.8245, 70.61214
291.3066, 70.76435
291.7887, 70.91453
292.2708, 71.05960
292.7529, 71.15745
293.2350, 71.09429
293.7172, 70.95975
294.1993, 71.10825
294.6814, 71.61814
295.1635, 72.11765
295.6456, 72.01910
296.1277, 71.45670
296.6099, 71.00278
297.0920, 71.07565
297.5741, 71.40914
298.0562, 71.41819
298.5383, 71.06870
299.0204, 70.73360
299.5026, 70.83066
299.9847, 71.24089
300.4668, 71.65293
300.9489, 71.90183
301.4311, 72.10023
301.9132, 72.47569
302.3953, 73.01955
302.8774, 73.41936
303.3595, 73.24961
303.8416, 72.79050
304.3238, 72.54600
304.8059, 72.86187
305.2880, 73.28339
305.7701, 73.26484
306.2522, 72.87932
306.7343, 72.57412
307.2165, 72.68034
307.6986, 73.02400
308.1807, 73.41174
308.6628, 73.89084
309.1449, 74.25267
309.6270, 74.21506
310.1092, 73.90020
310.5913, 73.70362
311.0734, 73.94983
311.5555, 74.35050
312.0376, 74.65441
312.5197, 74.79826
313.0019, 74.89163
313.4840, 75.01955
313.9661, 75.14347
314.4482, 75.18667
314.9303, 75.02079
315.4124, 74.83347
315.8946, 74.76561
316.3767, 74.86766
316.8588, 74.91652
317.3409, 74.85550
317.8230, 74.68022
318.3051, 74.38608
318.7873, 73.72083
319.2694, 73.15315
319.7515, 72.91837
320.2336, 73.05015
320.7157, 73.19641
321.1978, 73.35706
321.6800, 73.44234
322.1621, 73.36982
322.6442, 72.89335
323.1263, 72.49335
323.6084, 72.32594
324.0905, 72.37580
324.5727, 72.37594
325.0548, 72.25243
325.5369, 72.09166
326.0190, 71.94624
326.5012, 71.68962
326.9833, 71.60246
327.4654, 71.81248
327.9475, 72.23840
328.4296, 72.55201
328.9117, 72.81612
329.3939, 72.91113
329.8760, 72.77071
330.3581, 72.21067
330.8402, 71.74422
331.3223, 71.32912
331.8044, 71.01394
332.2866, 70.90810
332.7687, 71.10405
333.2508, 71.37543
333.7329, 71.69362
334.2150, 72.11248
334.6971, 72.30283
335.1793, 72.19195
335.6614, 71.92513
336.1435, 71.66148
336.6256, 71.34367
337.1077, 71.19425
337.5898, 71.36475
338.0720, 71.82756
338.5541, 71.88581
339.0362, 71.38230
339.5183, 70.83249
340.0004, 70.80905
340.4825, 71.42678
340.9647, 71.72916
341.4468, 71.42986
341.9289, 70.77212
342.4110, 70.56528
342.8931, 70.25915
343.3752, 70.78368
343.8574, 71.12957
344.3395, 71.30638
344.8216, 70.80775
345.3037, 71.18130
345.7858, 71.20531
346.2679, 71.21499
346.7501, 71.46907
347.2322, 71.75580
347.7143, 71.86386
348.1964, 71.80286
348.6785, 71.06644
349.1607, 71.20216
349.6428, 70.98837
350.1249, 70.76025
350.6070, 71.01876
351.0891, 70.53096
351.5713, 70.98476
352.0534, 71.25989
352.5355, 71.36594
353.0176, 70.79658
353.4997, 71.09939
353.9818, 71.05267
354.4640, 70.99162
354.9461, 71.41718
355.4282, 70.94604
355.9103, 71.36388
356.3924, 71.51266
356.8745, 71.86066
357.3567, 72.09112
357.8388, 72.01775
358.3209, 71.84825
358.8030, 71.76597
359.2851, 71.82939
359.7672, 71.91504
360.2494, 72.00712
360.7315, 72.07169
361.2136, 72.04556
361.6957, 71.69283
362.1778, 71.41589
362.6599, 71.51917
363.1421, 72.10011
363.6242, 72.45194
364.1063, 72.05983
364.5884, 71.45582
365.0705, 71.18731
365.5526, 71.72336
366.0348, 72.22778
366.5169, 72.51752
366.9990, 72.59645
367.4811, 72.61239
367.9632, 72.38145
368.4453, 72.22605
368.9275, 72.33942
369.4096, 73.13451
369.8917, 73.62693
370.3738, 73.67839
370.8559, 73.42065
371.3380, 73.21255
371.8202, 73.03206
372.3023, 72.92930
372.7844, 72.94084
373.2665, 73.10380
373.7487, 73.23730
374.2308, 73.36736
374.7129, 73.44244
375.1950, 73.35947
375.6771, 73.04003
376.1592, 72.81663
376.6414, 72.80166
377.1235, 72.97193
377.6056, 73.09576
378.0877, 73.17603
378.5698, 73.20615
379.0519, 73.14342
379.5341, 72.98746
380.0162, 72.92652
380.4983, 73.01529
380.9804, 73.18994
381.4625, 73.28329
381.9446, 73.29893
382.4268, 73.36043
382.9089, 73.68124
383.3910, 74.12022
383.8731, 74.13960
384.3552, 73.62435
384.8373, 73.04343
385.3195, 72.97996
385.8016, 73.30664
386.2837, 73.64974
386.7658, 73.88685
387.2479, 74.02522
387.7300, 74.02953
388.2122, 73.90645
388.6943, 73.80716
389.1764, 73.85708
389.6585, 73.99223
390.1406, 74.12617
390.6227, 74.19102
391.1049, 74.31099
391.5870, 74.71023
392.0691, 75.25690
392.5512, 75.55400
393.0333, 75.12569
393.5154, 74.59403
393.9976, 74.37893
394.4797, 74.62514
394.9618, 74.88509
395.4439, 75.04980
395.9260, 75.13734
396.4081, 75.17165
396.8903, 75.04433
397.3724, 74.97813
397.8545, 75.11089
398.3366, 75.45869
398.8188, 75.59773
399.3009, 75.20849
399.7830, 74.79477
400.2651, 74.68607
400.7472, 75.23213
401.2293, 75.54971
401.7115, 75.47166
402.1936, 75.14881
402.6757, 75.06075
403.1578, 75.36492
403.6399, 75.63171
404.1220, 75.64693
404.6042, 75.34412
405.0863, 75.18494
405.5684, 75.20374
406.0505, 75.31269
406.5326, 75.42393
407.0147, 75.54774
407.4969, 75.59028
407.9790, 75.49268
408.4611, 75.30318
408.9432, 75.19930
409.4253, 75.18119
409.9074, 75.26143
410.3896, 75.53845
410.8717, 75.94786
411.3538, 76.17696
411.8359, 76.13637
412.3180, 76.00628
412.8001, 76.02693
413.2823, 76.17447
413.7644, 76.35476
414.2465, 76.61335
414.7286, 76.83378
415.2107, 76.80604
415.6928, 76.51327
416.1750, 76.23943
416.6571, 76.22695
417.1392, 76.35787
417.6213, 76.46944
418.1034, 76.43141
418.5855, 76.44080
419.0677, 76.71101
419.5498, 77.15395
420.0319, 77.42836
420.5140, 77.29646
420.9961, 77.02747
421.4782, 76.75020
421.9604, 76.41563
422.4425, 76.25776
422.9246, 76.46822
423.4067, 76.84626
423.8889, 77.11975
424.3710, 77.13627
424.8531, 77.16995
425.3352, 77.30486
425.8173, 77.54222
426.2994, 77.68391
426.7816, 77.67996
427.2637, 77.62949
427.7458, 77.60432
428.2279, 77.65118
428.7100, 77.59238
429.1921, 77.35207
429.6743, 77.04194
430.1564, 76.97632
430.6385, 77.23849
431.1206, 77.41903
431.6027, 77.25628
432.0848, 76.77641
432.5670, 76.69360
433.0491, 77.08031
433.5312, 77.56809
434.0133, 77.74763
434.4954, 77.66343
434.9775, 77.61755
435.4597, 77.70089
435.9418, 77.84097
436.4239, 77.92741
436.9060, 77.96009
437.3881, 77.94164
437.8702, 77.70898
438.3524, 77.48415
438.8345, 77.48552
439.3166, 77.93779
439.7987, 78.21140
440.2808, 78.31596
440.7629, 77.74508
441.2451, 78.04638
441.7272, 77.99815
442.2093, 77.93559
442.6914, 78.35965
443.1735, 77.88701
443.6556, 78.30335
444.1378, 78.00866
444.6199, 77.89608
445.1020, 77.84958
445.5841, 77.89648
446.0662, 77.97231
446.5483, 77.99533
447.0305, 78.05875
447.5126, 77.94183
447.9947, 78.38649
448.4768, 78.65248
448.9590, 78.74942
449.4411, 78.17092
449.9232, 78.46460
450.4053, 78.40875
450.8874, 78.33857
451.3695, 78.75500
451.8517, 78.27475
452.3338, 78.68347
452.8159, 78.73732
453.2980, 78.95359
453.7801, 78.81817
454.2622, 78.79137
454.7444, 79.11639
455.2265, 79.17783
455.7086, 79.82910
456.1907, 79.94821
456.6728, 79.50267
457.1549, 78.96144
457.6371, 78.72019
458.1192, 78.71394
458.6013, 78.78342
459.0834, 78.89795
459.5655, 79.06036
460.0476, 79.36109
460.5298, 79.72885
461.0119, 79.93934
461.4940, 79.70628
461.9761, 79.39151
462.4582, 79.30427
462.9403, 79.48521
463.4225, 79.65376
463.9046, 79.49368
464.3867, 79.34739
464.8688, 78.95629
465.3509, 79.46622
465.8330, 79.79749
466.3152, 79.95971
466.7973, 79.44648
467.2794, 79.80543
467.7615, 79.81484
468.2436, 79.80993
468.7257, 80.29163
469.2079, 80.22548
469.6900, 80.24455
470.1721, 80.52868
470.6542, 80.84554
471.1363, 80.93684
471.6184, 80.74789
472.1006, 80.52676
472.5827, 80.24816
473.0648, 80.00729
473.5469, 80.19106
474.0291, 80.84103
474.5112, 81.42967
474.9933, 81.62247
475.4754, 81.49368
475.9575, 81.33994
476.4396, 81.16658
476.9218, 81.00919
477.4039, 80.89751
477.8860, 80.83157
478.3681, 80.81094
478.8502, 80.81947
479.3323, 80.89188
479.8145, 81.12690
480.2966, 81.47411
480.7787, 81.73989
481.2608, 81.76614
481.7429, 81.72080
482.2250, 81.74085
482.7072, 81.86788
483.1893, 81.90318
483.6714, 81.63646
484.1535, 81.30689
484.6356, 81.15546
485.1177, 81.48544
485.5999, 81.69298
486.0820, 81.60725
486.5641, 81.31593
487.0462, 81.13583
487.5283, 81.11662
488.0104, 81.14326
488.4926, 81.14800
488.9747, 81.09815
489.4568, 81.27779
489.9389, 81.78874
490.4210, 82.34364
490.9031, 82.59541
491.3853, 82.52827
491.8674, 82.44033
492.3495, 82.37764
492.8316, 82.34328
493.3137, 82.36772
493.7958, 82.44333
494.2780, 82.48847
494.7601, 82.31993
495.2422, 82.12199
495.7243, 82.35800
496.2064, 83.07068
496.6885, 83.69782
497.1707, 83.71854
497.6528, 83.40677
498.1349, 83.13338
498.6170, 82.99475
499.0992, 82.92770
499.5813, 82.87043
500.0634, 82.85645
500.5455, 82.96618
501.0276, 83.42089
501.5097, 83.82908
501.9919, 84.00665
502.4740, 83.90291
502.9561, 83.83607
503.4382, 83.86040
503.9203, 83.90778
504.4024, 83.94313
504.8846, 84.02534
505.3667, 83.96436
505.8488, 83.68486
506.3309, 83.29710
506.8130, 83.00290
507.2951, 82.77479
507.7773, 82.77819
508.2594, 83.20985
508.7415, 83.94426
509.2236, 84.21348
509.7057, 83.98616
510.1878, 83.69580
510.6700, 83.70499
511.1521, 83.93737
511.6342, 84.18623
512.1163, 84.43670
512.5984, 84.62809
513.0806, 84.65913
513.5627, 84.58367
514.0448, 84.51424
514.5269, 84.47753
515.0090, 84.48125
515.4911, 84.53323
515.9733, 84.63140
516.4554, 84.76180
516.9375, 85.09295
517.4196, 85.32719
517.9017, 85.23833
518.3839, 84.58237
518.8660, 84.13968
519.3481, 84.06358
519.8302, 84.21181
520.3123, 84.46518
520.7944, 84.98677
521.2766, 85.32053
521.7587, 85.37957
522.2408, 85.20457
522.7229, 84.89845
523.2050, 84.39717
523.6871, 84.00719
524.1693, 83.93922
524.6514, 84.16635
525.1335, 84.32397
525.6156, 84.40807
526.0977, 84.45430
526.5798, 84.43394
527.0620, 84.40026
527.5441, 84.53730
528.0262, 84.95947
528.5083, 85.41619
528.9904, 85.66177
529.4725, 85.72873
529.9547, 85.69298
530.4368, 85.44585
530.9189, 85.22085
531.4010, 85.13546
531.8831, 85.19676
532.3652, 84.88383
532.8474, 85.60945
533.3295, 86.02879
533.8116, 86.15829
534.2937, 85.12992
534.7758, 85.59671
535.2579, 85.46431
535.7401, 85.30735
536.2222, 85.98457
536.7043, 85.12462
537.1864, 85.78861
537.6685, 85.84428
538.1506, 85.89204
538.6328, 85.82211
539.1149, 85.47283
539.5970, 85.20869
540.0791, 85.31863
540.5612, 85.71914
541.0433, 86.02317
541.5255, 86.21408
542.0076, 86.33005
542.4897, 86.34199
542.9718, 86.31438
543.4539, 86.39355
543.9360, 86.69067
544.4182, 86.97520
544.9003, 87.02023
545.3824, 86.91262
545.8645, 86.84661
546.3466, 86.94718
546.8287, 87.06367
547.3109, 87.09954
547.7930, 87.04834
548.2751, 87.08991
548.7572, 87.37791
549.2393, 87.66768
549.7214, 87.84534
550.2036, 87.97189
550.6857, 87.80546
551.1678, 87.12132
551.6499, 86.37476
552.1320, 86.28313
552.6141, 86.96117
553.0963, 87.53796
553.5784, 87.78928
554.0605, 87.83157
554.5426, 87.99262
555.0247, 88.26164
555.5068, 88.43864
555.9890, 88.27914
556.4711, 87.98726
556.9532, 88.01280
557.4353, 88.36987
557.9174, 88.60055
558.3995, 88.14214
558.8817, 87.46782
559.3638, 87.10886
559.8459, 87.30898
560.3281, 87.59854
560.8102, 87.87003
561.2923, 88.09357
561.7744, 88.21960
562.2565, 88.24133
562.7386, 88.15824
563.2208, 87.90330
563.7029, 87.51864
564.1850, 87.28590
564.6671, 87.25120
565.1492, 87.29188
565.6313, 87.37039
566.1135, 87.49289
566.5956, 87.53304
567.0777, 87.45451
567.5598, 87.42074
568.0419, 87.68591
568.5240, 88.17437
569.0062, 88.48670
569.4883, 88.48997
569.9704, 88.41383
570.4525, 88.59629
570.9346, 88.93596
571.4167, 89.16320
571.8989, 88.99608
572.3810, 88.80985
572.8631, 88.93786
573.3452, 89.32314
573.8273, 89.57057
574.3094, 89.44027
574.7916, 89.20252
575.2737, 88.97148
575.7558, 88.70733
576.2379, 88.62219
576.7200, 88.81825
577.2021, 89.11171
577.6843, 89.29712
578.1664, 88.65034
578.6485, 89.37942
579.1306, 89.80222
579.6127, 89.93519
580.0948, 88.91029
580.5770, 89.38055
581.0591, 89.25161
581.5412, 89.09811
582.0233, 89.77880
582.5054, 88.92231
582.9875, 89.58978
583.4697, 89.64891
583.9518, 89.98645
584.4339, 89.72111
584.9160, 89.64198
585.3981, 90.16594
585.8802, 90.35596
586.3624, 90.02122
586.8445, 90.37646
587.3266, 89.49892
587.8087, 89.70316
588.2908, 90.37415
588.7729, 89.58896
589.2551, 89.37088
589.7372, 89.41502
590.2193, 89.85882
590.7014, 90.30847
591.1835, 90.73483
591.6656, 91.08885
592.1478, 91.02565
592.6299, 90.49114
593.1120, 89.94081
593.5941, 89.57813
594.0762, 89.41576
594.5583, 89.59354
595.0405, 90.12755
595.5226, 90.65137
596.0047, 90.80496
596.4868, 90.75537
596.9689, 90.75939
597.4510, 90.91757
597.9332, 91.02725
598.4153, 90.88054
598.8974, 90.63745
599.3795, 90.53236
599.8616, 90.82453
600.3438, 91.04482
600.8259, 91.01851
601.3080, 90.81728
601.7901, 90.71381
602.2722, 90.69215
602.7543, 90.80479
603.2365, 91.16823
603.7186, 91.76770
604.2007, 91.87469
604.6828, 91.38657
605.1649, 90.88210
605.6470, 90.91788
606.1292, 91.35912
606.6113, 91.64806
607.0934, 91.71329
607.5755, 91.65708
608.0576, 91.54308
608.5398, 91.38566
609.0219, 91.20374
609.5040, 90.92558
609.9861, 90.73312
610.4683, 90.73101
610.9504, 90.88866
611.4325, 91.14046
611.9146, 91.73595
612.3967, 92.14986
612.8788, 92.13145
613.3610, 91.73079
613.8431, 91.49470
614.3252, 91.43069
614.8073, 91.52741
615.2894, 91.88145
615.7715, 92.52477
616.2537, 92.72012
616.7358, 92.40182
617.2179, 91.94285
617.7000, 91.69241
618.1821, 91.60959
618.6642, 91.56770
619.1464, 91.55251
619.6285, 91.53446
620.1106, 91.40194
620.5927, 91.25843
621.0748, 91.28269
621.5569, 91.71508
622.0391, 92.15662
622.5212, 92.44493
623.0033, 92.60795
623.4854, 92.73199
623.9675, 92.88172
624.4496, 92.94192
624.9318, 92.84762
625.4139, 92.60426
625.8960, 92.42944
626.3781, 92.30660
626.8602, 92.29682
627.3423, 92.51273
627.8245, 92.94287
628.3066, 93.14503
628.7887, 93.08369
629.2708, 92.94942
629.7529, 92.95772
630.2350, 93.04063
630.7172, 93.01758
631.1993, 92.78994
631.6814, 92.61077
632.1635, 92.80039
632.6456, 93.14938
633.1277, 93.32771
633.6099, 92.96987
634.0920, 92.69668
634.5741, 92.75343
635.0562, 93.06174
635.5383, 93.30859
636.0204, 93.49416
636.5026, 93.60625
636.9847, 93.61694
637.4668, 93.53684
637.9489, 93.53413
638.4310, 93.62971
638.9131, 93.71452
639.3953, 93.71349
639.8774, 93.63949
640.3595, 93.50807
640.8416, 93.30915
641.3237, 93.20973
641.8058, 93.49938
642.2880, 93.94111
642.7701, 94.17259
643.2522, 94.03817
643.7343, 93.90282
644.2164, 93.98844
644.6985, 94.17131
645.1807, 94.28615
645.6628, 94.21475
646.1449, 94.17459
646.6270, 94.19009
647.1091, 94.25621
647.5912, 94.38014
648.0734, 94.61729
648.5555, 94.75908
649.0376, 94.72958
649.5197, 94.55402
650.0018, 94.26355
650.4839, 93.85723
650.9661, 93.64780
651.4482, 94.01008
651.9303, 94.63985
652.4124, 95.03373
652.8945, 95.16930
653.3766, 95.14360
653.8588, 94.95483
654.3409, 94.67469
654.8230, 94.30762
655.3051, 93.72456
655.7872, 93.44413
656.2693, 93.89646
656.7515, 94.52709
657.2336, 94.78068
657.7158, 94.38196
658.1979, 94.19158
658.6800, 94.25716
659.1621, 93.67822
659.6442, 94.42359
660.1263, 94.86269
660.6085, 95.01196
661.0906, 94.00335
661.5727, 94.48989
662.0548, 94.37724
662.5369, 94.24001
663.0190, 95.61315
663.5012, 95.97541
663.9833, 96.12894
664.4654, 96.16218
664.9475, 96.07974
665.4296, 95.88376
665.9117, 95.35764
666.3939, 94.90733
666.8760, 94.76696
667.3581, 94.98241
667.8402, 95.19724
668.3223, 95.44042
668.8044, 95.64300
669.2866, 95.79082
669.7687, 95.89239
670.2508, 95.63661
670.7329, 94.90010
671.2150, 94.27341
671.6971, 94.62737
672.1793, 95.60754
672.6614, 96.28597
673.1435, 96.40484
673.6256, 96.29714
674.1077, 96.10343
674.5898, 95.89017
675.0720, 95.76289
675.5541, 95.78090
676.0362, 95.85774
676.5183, 96.00168
677.0004, 96.18905
677.4825, 96.36417
677.9647, 96.56164
678.4468, 96.67300
678.9289, 96.62096
679.4110, 96.46522
679.8931, 96.57725
680.3752, 96.98434
680.8574, 97.20232
681.3395, 96.70979
681.8216, 95.89926
682.3037, 95.64700
682.7858, 95.92784
683.2679, 96.31911
683.7501, 96.66701
684.2322, 96.91638
684.7143, 97.00881
685.1964, 96.91497
685.6785, 96.79391
686.1606, 96.62443
686.6428, 96.48606
687.1249, 96.44528
687.6070, 96.60336
688.0891, 96.61260
688.5712, 96.41251
689.0533, 96.16331
689.5355, 96.02982
690.0176, 96.01317
690.4997, 96.18684
690.9818, 96.63160
691.4639, 97.07997
691.9460, 97.10278
692.4282, 96.84826
692.9103, 96.64198
693.3924, 96.65396
693.8745, 96.69197
694.3566, 96.63797
694.8387, 96.52607
695.3209, 96.43745
695.8030, 96.27314
696.2851, 96.27460
696.7672, 96.57837
697.2493, 97.10317
697.7314, 97.40279
698.2136, 97.41750
698.6957, 97.40559
699.1778, 97.52345
699.6599, 97.70435
700.1420, 97.59541
700.6241, 97.21201
701.1063, 96.84240
701.5884, 96.65752
702.0705, 96.61818
702.5526, 96.69636
703.0347, 96.88927
703.5168, 97.13374
703.9990, 97.54282
704.4811, 97.88867
704.9632, 97.98994
705.4453, 97.72461
705.9274, 97.49609
706.4095, 97.25781
706.8917, 97.11182
707.3738, 97.15485
707.8560, 97.39722
708.3381, 97.76582
708.8202, 98.30504
709.3023, 98.79772
709.7844, 98.93547
710.2665, 98.80328
710.7487, 98.61966
711.2308, 98.39240
711.7129, 98.25127
712.1950, 98.39812
712.6771, 98.67049
713.1592, 98.82304
713.6414, 98.72948
714.1235, 98.56525
714.6056, 98.24043
715.0877, 97.89413
715.5698, 97.83045
716.0519, 98.14670
716.5341, 98.50779
717.0162, 98.90251
717.4983, 99.23424
717.9804, 99.10864
718.4625, 98.56171
718.9446, 98.11989
719.4268, 98.14201
719.9089, 98.34444
720.3910, 98.35184
720.8731, 98.20675
721.3552, 98.08976
721.8373, 98.13042
722.3195, 98.19053
722.8016, 98.15069
723.2837, 98.00728
723.7658, 98.06857
724.2479, 98.55498
724.7300, 98.95756
725.2122, 98.99728
725.6943, 98.66768
726.1764, 98.49508
726.6585, 98.49239
727.1406, 98.55448
727.6227, 98.57486
728.1049, 98.60072
728.5870, 98.79738
729.0691, 99.18381
729.5512, 99.48497
730.0333, 99.45729
730.5154, 99.27815
730.9976, 99.08975
731.4797, 98.87730
731.9618, 98.77315
732.4439, 98.81686
732.9260, 98.96815
733.4081, 99.23028
733.8903, 99.67564
734.3724, 99.98569
734.8545, 100.1352
735.3366, 100.1670
735.8187, 100.1405
736.3008, 100.0445
736.7830, 99.78484
737.2651, 99.27567
737.7472, 98.81829
738.2293, 98.78829
738.7114, 98.98640
739.1935, 99.11445
739.6757, 98.91309
740.1578, 98.83994
740.6399, 99.14019
741.1220, 99.61290
741.6041, 99.91346
742.0862, 99.98608
742.5684, 100.0013
743.0505, 99.96993
743.5326, 99.91307
744.0147, 99.87075
744.4968, 99.84395
744.9789, 99.84004
745.4611, 99.84636
745.9432, 99.89696
746.4253, 100.1260
746.9074, 100.4403
747.3895, 100.5945
747.8716, 100.3369
748.3538, 100.0432
748.8359, 99.85532
749.3180, 99.76861
749.8001, 99.72777
750.2822, 99.73239
750.7643, 99.78286
751.2465, 99.89652
751.7286, 100.0556
752.2107, 100.1580
752.6928, 100.2027
753.1749, 100.2593
753.6570, 100.3755
754.1392, 100.5225
754.6213, 100.7514
755.1034, 101.0106
755.5855, 100.2301
756.0676, 100.6325
756.5498, 100.8562
757.0319, 100.9109
757.5140, 100.2901
757.9962, 100.5415
758.4783, 100.4434
758.9604, 100.3309
759.4425, 100.7051
759.9246, 100.1826
760.4067, 100.5490
760.8889, 100.5606
761.3710, 100.7346
761.8531, 100.5569
762.3352, 100.4878
762.8173, 100.7705
763.2994, 100.8585
763.7816, 100.6403
764.2637, 100.7418
764.7458, 100.5878
765.2279, 100.6603
765.7100, 101.0667
766.1921, 101.2476
766.6743, 101.0164
767.1564, 100.7518
767.6385, 100.7297
768.1206, 100.9963
768.6027, 101.0131
769.0848, 100.7314
769.5670, 100.4711
770.0491, 100.5795
770.5312, 100.9047
771.0133, 101.1595
771.4954, 101.3085
771.9775, 101.3862
772.4597, 101.4174
772.9418, 101.3834
773.4239, 101.2277
773.9060, 100.7653
774.3881, 100.6664
774.8702, 101.1787
775.3524, 101.7970
775.8345, 102.0828
776.3166, 102.0073
776.7987, 101.9810
777.2808, 102.0442
777.7629, 102.0824
778.2451, 101.8796
778.7272, 101.5806
779.2093, 101.5201
779.6914, 101.8308
780.1735, 102.0677
780.6556, 101.8075
781.1378, 101.4250
781.6199, 101.2905
782.1020, 101.6924
782.5841, 101.9613
783.0662, 102.0712
783.5483, 102.0744
784.0305, 101.9697
784.5126, 101.7462
784.9947, 101.7486
785.4768, 102.0545
785.9589, 102.4160
786.4410, 102.5696
786.9232, 102.5670
787.4053, 102.4747
787.8874, 102.2366
788.3695, 102.1140
788.8516, 102.3905
789.3337, 102.7741
789.8159, 102.9263
790.2980, 102.6390
790.7801, 102.4466
791.2622, 102.3835
791.7443, 102.3928
792.2264, 102.4058
792.7086, 102.4235
793.1907, 102.4438
793.6728, 102.4414
794.1549, 102.5432
794.6370, 103.1956
795.1191, 103.9656
795.6013, 104.0686
796.0834, 102.7688
796.5655, 101.8415
797.0476, 102.3376
797.5297, 103.3494
798.0118, 103.7260
798.4940, 103.0428
798.9761, 102.7232
799.4582, 102.9913
799.9403, 103.4238
800.4224, 103.3638
800.9045, 102.9144
801.3867, 102.7350
801.8688, 103.0242
802.3509, 103.3627
802.8330, 103.3502
803.3151, 103.1225
803.7972, 102.8436
804.2794, 102.2975
804.7615, 102.1338
805.2436, 102.9913
805.7258, 104.0128
806.2079, 104.1799
806.6900, 103.1273
807.1721, 102.7277
807.6542, 103.3119
808.1364, 104.2036
808.6185, 104.6043
809.1006, 104.5755
809.5827, 104.2084
810.0648, 103.3767
810.5469, 102.7153
811.0291, 102.9054
811.5112, 103.4352
811.9933, 103.7027
812.4754, 103.2563
812.9575, 103.0718
813.4396, 103.3606
813.9218, 103.7621
814.4039, 103.8155
814.8860, 103.4884
815.3681, 103.4054
815.8502, 103.6883
816.3323, 103.9908
816.8145, 103.8557
817.2966, 103.4671
817.7787, 103.1301
818.2608, 102.8925
818.7429, 102.7801
819.2250, 102.8797
819.7072, 103.0686
820.1893, 103.2152
820.6714, 103.1746
821.1535, 103.4238
821.6356, 104.1132
822.1177, 104.8226
822.5999, 105.0514
823.0820, 104.8646
823.5641, 104.6993
824.0462, 104.6089
824.5283, 104.5058
825.0104, 104.2454
825.4926, 103.9587
825.9747, 103.8110
826.4568, 103.8716
826.9389, 103.9351
827.4210, 103.7959
827.9031, 103.7723
828.3853, 104.1567
828.8674, 105.1097
829.3495, 105.6373
829.8316, 105.6680
830.3137, 105.5420
830.7958, 105.5503
831.2780, 105.6512
831.7601, 105.8100
832.2422, 106.0303
832.7243, 106.0968
833.2064, 105.6723
833.6885, 105.1835
834.1707, 104.9905
834.6528, 105.2454
835.1349, 105.3037
835.6170, 105.0301
836.0991, 104.7909
836.5812, 104.9035
837.0634, 105.3294
837.5455, 105.4609
838.0276, 105.2921
838.5097, 105.0412
838.9918, 104.7528
839.4739, 104.5442
839.9561, 104.5927
840.4382, 104.9028
840.9203, 105.1783
841.4024, 105.3108
841.8845, 105.3934
842.3666, 105.4650
842.8488, 105.5259
843.3309, 105.5973
843.8130, 105.6959
844.2951, 105.7161
844.7772, 105.5442
845.2593, 105.2667
845.7415, 105.0641
846.2236, 104.9352
846.7057, 104.8763
847.1878, 104.8772
847.6699, 104.9564
848.1520, 105.1770
848.6342, 105.5128
849.1163, 105.7473
849.5984, 105.8625
850.0805, 105.8887
850.5626, 105.7860
851.0447, 105.6259
851.5269, 105.7398
852.0090, 106.0757
852.4911, 106.2047
852.9732, 105.6885
853.4553, 105.0917
853.9374, 104.9322
854.4196, 105.0942
854.9017, 105.2932
855.3839, 105.4394
855.8660, 105.6265
856.3481, 105.9096
856.8302, 106.2249
857.3123, 106.4412
857.7944, 106.5597
858.2766, 106.5680
858.7587, 106.4096
859.2408, 106.2598
859.7229, 106.4753
860.2050, 106.8778
860.6871, 107.0886
861.1693, 106.8204
861.6514, 106.6003
862.1335, 106.7636
862.6156, 107.0217
863.0977, 106.9593
863.5798, 106.3771
864.0620, 106.0799
864.5441, 106.2103
865.0262, 106.4448
865.5083, 106.2974
865.9904, 105.9122
866.4725, 105.7649
866.9547, 105.9730
867.4368, 106.2131
867.9189, 106.1956
868.4010, 106.1386
868.8831, 106.2591
869.3652, 106.6915
869.8474, 107.0490
870.3295, 107.3590
870.8116, 107.5470
871.2937, 107.5668
871.7758, 106.8752
872.2579, 107.2829
872.7401, 107.5120
873.2222, 107.5720
873.7043, 106.9566
874.1864, 107.2133
874.6685, 107.1206
875.1506, 107.0135
875.6328, 107.3930
876.1149, 106.8758
876.5970, 107.2476
877.0791, 107.3621
877.5612, 107.2177
878.0433, 107.2629
878.5255, 107.5097
879.0076, 107.6419
879.4897, 107.3780
879.9718, 106.9546
880.4539, 106.6779
880.9360, 106.5270
881.4182, 106.4282
881.9003, 106.3035
882.3824, 106.2801
882.8645, 106.4012
883.3466, 106.6553
883.8287, 107.0869
884.3109, 107.7687
884.7930, 108.2326
885.2751, 108.3494
885.7572, 108.1977
886.2393, 107.7461
886.7214, 107.1358
887.2036, 106.7208
887.6857, 106.6605
888.1678, 106.7533
888.6499, 107.0726
889.1320, 107.4233
889.6141, 107.5304
890.0963, 107.2425
890.5784, 107.1292
891.0605, 107.2686
891.5426, 107.4834
892.0247, 107.5870
892.5068, 107.5998
892.9890, 107.5632
893.4711, 107.4772
893.9532, 107.4135
894.4353, 107.4229
894.9174, 107.4745
895.3995, 107.5388
895.8817, 107.6026
896.3638, 107.7609
896.8459, 108.1216
897.3280, 108.3455
897.8101, 108.0679
898.2922, 107.4343
898.7744, 107.3759
899.2565, 107.8336
899.7386, 108.1827
900.2207, 107.7239
900.7028, 107.2573
901.1849, 107.5144
901.6671, 108.3868
902.1492, 108.9340
902.6313, 108.9086
903.1134, 108.8042
903.5955, 108.7246
904.0776, 108.6700
904.5598, 108.6717
905.0419, 108.7148
905.5240, 108.6569
906.0062, 108.3454
906.4883, 108.0795
906.9704, 108.2094
907.4525, 108.5451
907.9346, 108.7815
908.4167, 108.8036
908.8989, 108.7598
909.3810, 108.5939
909.8631, 108.4433
910.3452, 108.5516
910.8273, 108.8890
911.3094, 108.9678
911.7916, 108.7001
912.2737, 108.4107
912.7558, 108.4300
913.2379, 108.5722
913.7200, 108.6424
914.2021, 108.6024
914.6843, 108.5369
915.1664, 108.4064
915.6485, 108.3207
916.1306, 108.3416
916.6127, 108.4656
917.0948, 108.6315
917.5770, 108.8402
918.0591, 109.0643
918.5412, 109.3764
919.0233, 109.6307
919.5054, 109.6204
919.9875, 109.4011
920.4697, 109.2209
920.9518, 109.1743
921.4339, 109.1432
921.9160, 109.0999
922.3981, 109.0539
922.8802, 109.0033
923.3624, 108.9514
923.8445, 109.0295
924.3266, 109.3098
924.8087, 109.6514
925.2908, 110.0605
925.7729, 110.3766
926.2551, 110.3491
926.7372, 109.6224
927.2193, 109.0700
927.7014, 108.7904
928.1835, 108.7064
928.6656, 108.8107
929.1478, 109.1039
929.6299, 109.2473
930.1120, 109.2155
930.5941, 109.1991
931.0762, 109.4422
931.5583, 109.7363
932.0405, 109.8495
932.5226, 109.7603
933.0047, 109.6455
933.4868, 109.4018
933.9689, 109.3235
934.4510, 109.5945
934.9332, 110.1096
935.4153, 110.2709
935.8974, 110.0969
936.3795, 109.9993
936.8616, 110.2861
937.3438, 110.5959
937.8259, 110.4712
938.3080, 110.1097
938.7901, 109.9101
939.2722, 110.2197
939.7543, 110.3431
940.2365, 110.0790
940.7186, 109.7507
941.2007, 109.9075
941.6828, 110.4902
942.1649, 110.7509
942.6470, 110.5615
943.1292, 110.2917
943.6113, 110.2459
944.0934, 110.3100
944.5755, 110.3659
945.0576, 110.3857
945.5397, 110.4970
946.0219, 110.8568
946.5040, 111.0584
946.9861, 110.7793
947.4682, 110.1503
947.9503, 110.0784
948.4324, 110.4907
948.9146, 110.7682
949.3967, 110.3154
949.8788, 109.8086
950.3609, 109.7952
950.8430, 110.1305
951.3251, 110.3684
951.8073, 110.4076
952.2894, 110.4641
952.7715, 110.5901
953.2536, 110.7140
953.7357, 110.6580
954.2179, 110.4874
954.7000, 110.4950
955.1821, 110.7814
955.6642, 111.0519
956.1464, 111.0739
956.6285, 111.0020
957.1106, 110.9598
957.5927, 110.9429
958.0748, 111.0503
958.5569, 111.3462
959.0391, 111.5915
959.5212, 111.5854
960.0033, 111.4137
960.4854, 111.2981
960.9675, 111.2423
961.4496, 111.2680
961.9318, 111.5409
962.4139, 111.7393
962.8960, 111.6494
963.3781, 111.3640
963.8602, 111.1358
964.3423, 110.9763
964.8245, 110.8179
965.3066, 110.6090
965.7887, 110.5022
966.2708, 110.8416
966.7529, 111.4130
967.2350, 111.8015
967.7172, 111.8998
968.1993, 111.8764
968.6814, 111.6853
969.1635, 111.4842
969.6456, 111.3578
970.1277, 111.2998
970.6099, 111.4562
971.0920, 111.8459
971.5741, 112.1689
972.0562, 111.7037
972.5383, 112.1250
973.0204, 112.3677
973.5026, 112.4413
973.9847, 111.8394
974.4668, 112.1098
974.9489, 112.0306
975.4310, 111.9370
975.9131, 112.3301
976.3953, 111.8265
976.8774, 112.2119
977.3595, 112.2424
977.8416, 112.2366
978.3237, 112.2682
978.8058, 112.1788
979.2880, 112.1164
979.7701, 112.2668
980.2522, 112.7549
980.7343, 113.1397
981.2164, 113.4183
981.6985, 113.5775
982.1807, 113.5792
982.6628, 113.4567
983.1449, 113.3129
983.6270, 113.1654
984.1091, 113.1285
984.5912, 113.4458
985.0734, 113.7082
985.5555, 113.5509
986.0376, 113.1821
986.5197, 113.2020
987.0018, 113.8181
987.4839, 114.1117
987.9661, 113.8909
988.4482, 113.4566
988.9303, 113.1672
989.4124, 112.9797
989.8945, 112.8102
990.3766, 112.6385
990.8588, 112.5318
991.3409, 112.5560
991.8230, 112.6236
992.3051, 112.6829
992.7872, 112.7348
993.2693, 112.8353
993.7515, 112.9876
994.2336, 113.0870
994.7157, 112.9806
995.1978, 112.8741
995.6799, 113.0638
996.1620, 113.4338
996.6442, 113.7134
997.1263, 113.7442
997.6084, 113.7835
998.0905, 113.8340
998.5726, 113.9285
999.0547, 114.1637
999.5369, 114.5014
1000.019, 114.7159
1000.501, 114.7842
1000.983, 114.6772
1001.465, 114.1650
1001.947, 113.6346
1002.430, 113.4246
1002.912, 113.5574
1003.394, 113.5959
1003.876, 113.5049
1004.358, 113.3032
1004.840, 113.7476
1005.322, 114.0134
1005.804, 114.1100
1006.287, 113.5314
1006.769, 113.8248
1007.251, 113.7688
1007.733, 113.6983
1008.215, 114.1145
1008.697, 113.6341
1009.179, 114.0425
1009.661, 114.0962
1010.143, 114.3122
1010.626, 114.1766
1011.108, 114.1496
1011.590, 114.4744
1012.072, 114.6043
1012.554, 114.4282
1013.036, 114.6545
1013.518, 114.1618
1014.000, 114.3000
1014.483, 114.7107
1014.965, 114.2235
1015.447, 114.3171
1015.929, 114.5513
1016.411, 114.8578
1016.893, 114.9557
1017.375, 114.7132
1017.857, 114.4750
1018.339, 114.5308
1018.822, 114.6262
1019.304, 114.4793
1019.786, 114.0111
1020.268, 113.9858
1020.750, 114.4810
1021.232, 114.9146
1021.714, 114.8599
1022.196, 114.5523
1022.679, 114.2322
1023.161, 113.9616
1023.643, 113.9253
1024.125, 114.4232
1024.607, 114.8540
1025.089, 115.1362
1025.571, 115.2960
1026.053, 115.3551
1026.535, 115.3200
1027.018, 115.1823
1027.500, 114.9273
1027.982, 114.8335
1028.464, 115.3627
1028.946, 115.9448
1029.428, 116.1022
1029.910, 115.8087
1030.392, 115.5366
1030.875, 115.2743
1031.357, 115.0629
1031.839, 114.9077
1032.321, 114.8190
1032.803, 114.7637
1033.285, 114.7976
1033.767, 115.0734
1034.249, 115.8815
1034.731, 116.4349
1035.214, 116.4135
1035.696, 116.1980
1036.178, 116.0207
1036.660, 115.8841
1037.142, 115.8814
1037.624, 116.0071
1038.106, 116.1008
1038.588, 116.0182
1039.071, 115.8967
1039.553, 115.8814
1040.035, 115.9143
1040.517, 115.7605
1040.999, 115.2244
1041.481, 115.0536
1041.963, 115.4455
1042.445, 115.9824
1042.927, 116.1029
1043.410, 115.9707
1043.892, 115.8677
1044.374, 115.8260
1044.856, 115.9282
1045.338, 116.5503
1045.820, 116.9244
1046.302, 116.5474
1046.784, 115.6551
1047.266, 115.5874
1047.749, 116.2701
1048.231, 116.8410
1048.713, 116.8802
1049.195, 116.8131
1049.677, 117.0327
1050.159, 117.3261
1050.641, 117.3714
1051.123, 116.9698
1051.606, 116.8617
1052.088, 117.1236
1052.570, 117.4053
1053.052, 117.4639
1053.534, 117.3457
1054.016, 117.0706
1054.498, 116.6815
1054.980, 116.3615
1055.463, 115.9979
1055.945, 115.9939
1056.427, 116.6495
1056.909, 117.4755
1057.391, 117.5743
1057.873, 117.0438
1058.355, 116.6941
1058.837, 116.6586
1059.319, 116.6843
1059.802, 116.5674
1060.284, 116.4442
1060.766, 116.4302
1061.248, 116.5226
1061.730, 116.5584
1062.212, 116.4829
1062.694, 116.6857
1063.176, 117.4808
1063.658, 118.3256
1064.141, 118.3731
1064.623, 117.9364
1065.105, 117.5143
1065.587, 117.0981
1066.069, 117.0655
1066.551, 117.6910
1067.033, 118.2924
1067.515, 118.2859
1067.998, 117.8219
1068.480, 117.7314
1068.962, 117.9538
1069.444, 118.1609
1069.926, 118.0995
1070.408, 118.0595
1070.890, 118.2973
1071.372, 118.5842
1071.854, 118.4512
1072.337, 117.7964
1072.819, 118.1773
1073.301, 118.5884
1073.783, 118.8209
1074.265, 118.8844
1074.747, 118.2724
1075.229, 118.5325
1075.711, 118.4432
1076.193, 118.3395
1076.676, 118.7224
1077.158, 118.2087
1077.640, 118.5839
1078.122, 118.6042
1078.604, 118.7870
1079.086, 118.6181
1079.568, 118.5578
1080.051, 118.8493
1080.533, 118.9460
1081.015, 118.7366
1081.497, 119.1439
1081.979, 118.7505
1082.461, 119.0805
1082.943, 119.2318
1083.425, 119.2141
1083.907, 118.5209
1084.390, 118.6997
1084.872, 118.5292
1085.354, 118.3444
1085.836, 118.6461
1086.318, 118.0512
1086.800, 118.3452
1087.282, 118.2844
1087.764, 118.3860
1088.246, 118.1359
1088.729, 118.7518
1089.211, 119.3827
1089.693, 119.5362
1090.175, 119.3060
1090.657, 119.1056
1091.139, 119.0849
1091.621, 118.9252
1092.103, 118.5004
1092.586, 118.1032
1093.068, 118.1646
1093.550, 118.5494
1094.032, 119.0478
1094.514, 119.6335
1094.996, 119.9227
1095.478, 119.4115
1095.960, 118.9529
1096.443, 118.9117
1096.925, 119.1304
1097.407, 119.1090
1097.889, 118.8914
1098.371, 118.8366
1098.853, 119.1143
1099.335, 119.2997
1099.817, 118.8465
1100.299, 118.3501
1100.781, 118.4203
1101.264, 119.0824
1101.746, 119.3671
1102.228, 119.2449
1102.710, 119.1631
1103.192, 119.4149
1103.674, 119.7221
1104.156, 119.6237
1104.638, 119.4065
1105.121, 119.5772
1105.603, 120.7933
1106.085, 121.1665
1106.567, 120.4652
1107.049, 119.5837
1107.531, 119.1646
1108.013, 119.0985
1108.495, 119.2756
1108.978, 119.6135
1109.460, 119.8135
1109.942, 119.5812
1110.424, 119.4597
1110.906, 119.5954
1111.388, 119.8024
1111.870, 119.7695
1112.352, 119.5869
1112.834, 119.7117
1113.317, 120.1707
1113.799, 120.5392
1114.281, 120.5240
1114.763, 120.3991
1115.245, 120.2380
1115.727, 120.0916
1116.209, 120.1300
1116.691, 120.3460
1117.173, 120.4339
1117.656, 120.3080
1118.138, 120.1703
1118.620, 120.1851
1119.102, 120.2723
1119.584, 120.3782
1120.066, 120.4976
1120.548, 120.6232
1121.030, 120.7783
1121.513, 120.7448
1121.995, 120.3333
1122.477, 119.9154
1122.959, 120.0819
1123.441, 120.4698
1123.923, 120.5209
1124.405, 119.8839
1124.887, 119.7100
1125.370, 120.1730
1125.852, 120.6522
1126.334, 120.7542
1126.816, 120.6507
1127.298, 120.7176
1127.780, 120.8735
1128.262, 120.9219
1128.744, 120.5979
1129.226, 120.4657
1129.709, 120.6623
1130.191, 120.9193
1130.673, 120.9977
1131.155, 120.9417
1131.637, 120.8733
1132.119, 120.8193
1132.601, 120.9124
1133.083, 121.5179
1133.566, 121.9051
1134.048, 121.7248
1134.530, 121.3025
1135.012, 121.0497
1135.494, 120.9536
1135.976, 120.8277
1136.458, 120.6576
1136.940, 120.5872
1137.422, 120.8368
1137.905, 121.0969
1138.387, 121.1563
1138.869, 121.0919
1139.351, 121.0960
1139.833, 121.1730
1140.315, 121.1779
1140.797, 121.0490
1141.279, 121.0436
1141.761, 121.4876
1142.244, 121.7530
1142.726, 121.8492
1143.208, 121.2701
1143.690, 121.5631
1144.172, 121.5066
1144.654, 121.4357
1145.136, 121.8515
1145.618, 121.3706
1146.101, 121.7787
1146.583, 121.8319
1147.065, 122.0475
1147.547, 121.9114
1148.029, 121.8839
1148.511, 122.2083
1148.993, 122.3378
1149.475, 122.1613
1149.958, 122.3873
1150.440, 121.8941
1150.922, 122.0319
1151.404, 122.4420
1151.886, 122.2831
1152.368, 122.5155
1152.850, 122.5988
1153.332, 122.0050
1153.814, 122.5889
1154.297, 122.0605
1154.779, 122.2659
1155.261, 122.5227
1155.743, 122.1433
1156.225, 122.5938
1156.707, 122.8655
1157.189, 122.9682
1157.671, 122.3955
1158.153, 122.6949
1158.636, 122.6449
1159.118, 122.5805
1159.600, 123.0027
1160.082, 122.5282
1160.564, 122.9427
1161.046, 123.0023
1161.528, 123.2243
1162.010, 123.0946
1162.493, 123.0737
1162.975, 123.4045
1163.457, 123.5404
1163.939, 123.3703
1164.421, 123.6026
1164.903, 123.1158
1165.385, 123.4289
1165.867, 123.5661
1166.349, 123.6558
1166.832, 123.5693
1167.314, 123.3340
1167.796, 123.3760
1168.278, 123.7448
1168.760, 124.1113
1169.242, 124.3314
1169.724, 124.3919
1170.206, 124.2503
1170.688, 123.9528
1171.171, 123.5104
1171.653, 122.9270
1172.135, 122.5876
1172.617, 122.5616
1173.099, 122.8206
1173.581, 123.8919
1174.063, 124.7710
1174.545, 124.3565
1175.028, 123.3896
1175.510, 123.8457
1175.992, 124.1231
1176.474, 124.2314
1176.956, 123.6643
1177.438, 123.9694
1177.920, 123.9249
1178.402, 123.8662
1178.885, 124.2941
1179.367, 123.8252
1179.849, 124.2453
1180.331, 124.3106
1180.813, 124.5382
1181.295, 124.4142
1181.777, 124.3988
1182.259, 124.7352
1182.741, 124.8768
1183.224, 124.7124
1183.706, 124.9504
1184.188, 124.4692
1184.670, 124.6191
1185.152, 125.0413
1185.634, 124.8945
1186.116, 125.1389
1186.598, 125.2343
1187.081, 124.6526
1187.563, 124.6055
1188.045, 125.0734
1188.527, 125.2551
1189.009, 125.1191
1189.491, 124.8563
1189.973, 124.4523
1190.455, 124.1170
1190.938, 124.0957
1191.420, 124.3281
1191.902, 124.7734
1192.384, 125.6687
1192.866, 125.9725
1193.348, 125.5699
1193.830, 125.1406
1194.312, 125.1673
1194.794, 125.3861
1195.276, 125.4715
1195.759, 125.4858
1196.241, 125.5580
1196.723, 125.7566
1197.205, 125.9296
1197.687, 126.1101
1198.169, 126.1068
1198.651, 125.5210
1199.133, 124.8439
1199.616, 124.8450
1200.098, 125.2790
1200.580, 125.5075
1201.062, 125.2537
1201.544, 125.2372
1202.026, 125.5377
1202.508, 125.8736
1202.990, 125.9674
1203.473, 125.9722
1203.955, 126.1504
1204.437, 126.4171
1204.919, 126.4566
1205.401, 126.0454
1205.883, 125.8800
1206.365, 126.0567
1206.847, 126.3027
1207.329, 126.4506
1207.812, 126.4498
1208.294, 125.9764
1208.776, 125.2511
1209.258, 125.3092
1209.740, 126.8450
1210.222, 127.4795
1210.704, 126.7894
1211.186, 125.8448
1211.668, 125.7354
1212.151, 126.0037
1212.633, 126.0700
1213.115, 125.9683
1213.597, 126.1101
1214.079, 126.6965
1214.561, 126.9723
1215.043, 126.7728
1215.525, 126.4982
1216.008, 126.6199
1216.490, 126.8793
1216.972, 126.9590
1217.454, 126.8651
1217.936, 126.8118
1218.418, 126.8348
1218.900, 126.7921
1219.382, 126.6234
1219.865, 126.5427
1220.347, 126.9196
1220.829, 127.4221
1221.311, 127.7039
1221.793, 127.7379
1222.275, 127.6270
1222.757, 127.3225
1223.239, 127.0992
1223.721, 126.9986
1224.203, 127.0481
1224.686, 127.5061
1225.168, 127.9638
1225.650, 127.8835
1226.132, 127.3023
1226.614, 127.0877
1227.096, 127.2961
1227.578, 127.6461
1228.061, 128.1331
1228.543, 128.4718
1229.025, 128.0806
1229.507, 127.6024
1229.989, 127.8212
1230.471, 128.6516
1230.953, 128.8743
1231.435, 128.4275
1231.917, 127.8581
1232.400, 127.2196
1232.882, 126.8429
1233.364, 127.3575
1233.846, 128.0219
1234.328, 128.0738
1234.810, 127.6222
1235.292, 127.5323
1235.774, 127.8242
1236.256, 128.0772
1236.739, 128.2064
1237.221, 128.1951
1237.703, 127.9040
1238.185, 127.5745
1238.667, 127.3795
1239.149, 127.3187
1239.631, 127.4886
1240.113, 127.8708
1240.596, 127.9564
1241.078, 127.5440
1241.560, 127.2572
1242.042, 127.7306
1242.524, 128.3376
1243.006, 128.7128
1243.488, 128.8532
1243.970, 128.6063
1244.453, 128.0517
1244.935, 127.9001
1245.417, 128.3730
1245.899, 128.9355
1246.381, 129.5110
1246.863, 129.7862
1247.345, 129.4714
1247.827, 128.8383
1248.309, 128.8817
1248.792, 129.4311
1249.274, 129.7189
1249.756, 129.5245
1250.238, 129.3237
1250.720, 129.3535
1251.202, 129.4271
1251.684, 129.5013
1252.166, 129.5331
1252.648, 129.3137
1253.131, 128.9641
1253.613, 128.8799
1254.095, 129.1904
1254.577, 129.4359
1255.059, 129.3940
1255.541, 129.3789
1256.023, 129.5141
1256.505, 129.7197
1256.988, 129.9132
1257.470, 130.0276
1257.952, 129.8471
1258.434, 129.2702
1258.916, 128.9603
1259.398, 129.0582
1259.880, 129.3192
1260.362, 129.7024
1260.844, 130.1336
1261.327, 130.5438
1261.809, 130.8934
1262.291, 131.1301
1262.773, 131.2398
1263.255, 131.2193
1263.737, 131.0210
1264.219, 130.8670
1264.701, 130.8170
1265.183, 130.8627
1265.666, 131.1057
1266.148, 131.3651
1266.630, 131.3271
1267.112, 130.9631
1267.594, 131.1768
1268.076, 132.0995
1268.558, 132.5099
1269.040, 131.9262
1269.523, 131.2217
1270.005, 131.3498
1270.487, 131.6752
1270.969, 131.4624
1271.451, 130.8618
1271.933, 130.9329
1272.415, 131.6655
1272.897, 132.2727
1273.380, 132.5815
1273.862, 132.6264
1274.344, 132.3611
1274.826, 131.8809
1275.308, 131.0421
1275.790, 130.1300
1276.272, 130.2207
1276.754, 131.1280
1277.236, 131.9143
1277.719, 132.3980
1278.201, 132.5801
1278.683, 132.0913
1279.165, 131.7492
1279.647, 131.9573
1280.129, 132.4143
1280.611, 132.4669
1281.093, 132.2433
1281.576, 132.0634
1282.058, 131.9756
1282.540, 132.0112
1283.022, 132.3306
1283.504, 132.5066
1283.986, 132.3920
1284.468, 132.1637
1284.950, 132.0659
1285.432, 132.0568
1285.915, 132.0864
1286.397, 132.1467
1286.879, 132.1936
1287.361, 132.2113
1287.843, 132.2431
1288.325, 132.2834
1288.807, 132.4009
1289.289, 132.9956
1289.771, 133.4700
1290.254, 132.8141
1290.736, 131.3056
1291.218, 131.1590
1291.700, 132.5700
1292.182, 133.3924
1292.664, 133.2211
1293.146, 132.9112
1293.628, 133.1828
1294.111, 133.5746
1294.593, 133.8232
1295.075, 133.9281
1295.557, 133.8241
1296.039, 133.5404
1296.521, 133.4086
1297.003, 133.4756
1297.485, 133.5923
1297.968, 133.8097
1298.450, 133.8076
1298.932, 133.3245
1299.414, 132.7983
1299.896, 133.0189
1300.378, 133.7305
1300.860, 134.1645
1301.342, 134.2699
1301.824, 134.2674
##END=



