##NAMES=Fresnoite
##RRUFFID=R050595
##IDEAL CHEMISTRY=Ba_2_Ti^4+^O(Si_2_O_7_)
##LOCALITY=Junnila claim, Clear Creek area, New Idria district, San Benito County, California, USA
##OWNER=RRUFF
##SOURCE=Scott Kleine
##DESCRIPTION=Pink to yellow massive fragment
##STATUS=The identification of this mineral is confirmed by single-crystal X-ray diffraction and chemical analysis.
##URL=rruff.info/R050595
##MEASURED CHEMISTRY=Ba_2.00_Ti_1.00_O(Si_2.00_O_7_)
91.11523, 30.95000
91.59735, 31.46023
92.07947, 31.19563
92.56158, 30.31783
93.04370, 29.33029
93.52582, 28.40066
94.00793, 27.57409
94.49006, 26.87914
94.97218, 26.20468
95.45429, 25.92682
95.93641, 27.10015
96.41853, 29.68093
96.90064, 31.88130
97.38276, 32.01072
97.86488, 30.29067
98.34699, 29.23267
98.82911, 29.39001
99.31123, 30.39274
99.79334, 31.09131
100.2755, 31.47598
100.7576, 31.56838
101.2397, 31.26403
101.7218, 30.43110
102.2039, 29.80962
102.6861, 29.52048
103.1682, 29.56244
103.6503, 30.10649
104.1324, 31.64007
104.6145, 33.14383
105.0966, 33.21916
105.5788, 30.69737
106.0609, 28.77906
106.5430, 28.48025
107.0251, 30.43715
107.5072, 31.71689
107.9893, 31.88648
108.4715, 31.49238
108.9536, 31.50483
109.4357, 31.48169
109.9178, 32.26662
110.3999, 34.26929
110.8820, 38.76178
111.3642, 42.34837
111.8463, 44.39771
112.3284, 45.40508
112.8105, 46.76777
113.2926, 48.03468
113.7747, 50.14697
114.2569, 53.57352
114.7390, 59.17511
115.2211, 65.20556
115.7032, 70.75551
116.1853, 76.15699
116.6674, 83.06344
117.1496, 91.04720
117.6317, 101.3346
118.1138, 114.8244
118.5959, 134.4762
119.0780, 155.2160
119.5602, 175.0401
120.0423, 194.0920
120.5244, 212.2194
121.0065, 228.1804
121.4886, 243.4502
121.9707, 260.0478
122.4529, 280.4793
122.9350, 301.3942
123.4171, 319.3740
123.8992, 334.0463
124.3813, 348.7451
124.8634, 366.2979
125.3456, 385.9552
125.8277, 406.1014
126.3098, 424.6139
126.7919, 443.3309
127.2740, 464.3572
127.7561, 487.5620
128.2383, 514.3026
128.7204, 546.6718
129.2025, 584.2653
129.6846, 624.9594
130.1667, 667.7274
130.6488, 712.2253
131.1310, 760.4431
131.6131, 813.2869
132.0952, 868.6296
132.5773, 922.5899
133.0594, 975.3672
133.5415, 1028.422
134.0237, 1083.135
134.5058, 1139.740
134.9879, 1197.871
135.4700, 1258.969
135.9521, 1321.057
136.4343, 1379.897
136.9164, 1435.514
137.3985, 1488.494
137.8806, 1539.775
138.3627, 1589.715
138.8448, 1637.855
139.3270, 1684.334
139.8091, 1729.558
140.2912, 1774.379
140.7733, 1817.552
141.2554, 1863.236
141.7375, 1914.872
142.2197, 1973.206
142.7018, 2036.956
143.1839, 2105.755
143.6660, 2179.189
144.1481, 2259.897
144.6302, 2351.106
145.1124, 2446.292
145.5945, 2537.188
146.0766, 2632.581
146.5587, 2711.877
147.0408, 2771.088
147.5230, 2811.229
148.0051, 2826.376
148.4872, 2801.954
148.9693, 2737.724
149.4514, 2656.362
149.9335, 2541.671
150.4157, 2427.321
150.8978, 2323.255
151.3799, 2224.506
151.8620, 2141.806
152.3441, 2078.867
152.8262, 2030.508
153.3084, 1988.707
153.7905, 1953.359
154.2726, 1923.826
154.7547, 1899.743
155.2368, 1884.223
155.7189, 1869.328
156.2011, 1852.642
156.6832, 1835.629
157.1653, 1822.462
157.6474, 1816.323
158.1295, 1812.337
158.6116, 1808.022
159.0938, 1802.218
159.5759, 1797.001
160.0580, 1791.658
160.5401, 1786.928
161.0222, 1785.472
161.5044, 1788.583
161.9865, 1794.897
162.4686, 1803.477
162.9507, 1813.934
163.4328, 1826.720
163.9149, 1842.611
164.3971, 1861.350
164.8792, 1881.009
165.3613, 1900.268
165.8434, 1920.241
166.3255, 1942.105
166.8076, 1970.331
167.2898, 1996.695
167.7719, 2016.751
168.2540, 2030.862
168.7361, 2041.764
169.2182, 2052.829
169.7003, 2061.166
170.1825, 2063.304
170.6646, 2056.745
171.1467, 2044.424
171.6288, 2028.441
172.1109, 2008.916
172.5931, 1985.103
173.0752, 1955.116
173.5573, 1920.671
174.0394, 1884.393
174.5215, 1845.801
175.0036, 1806.858
175.4858, 1770.452
175.9679, 1736.301
176.4500, 1703.606
176.9321, 1671.522
177.4142, 1639.909
177.8963, 1609.030
178.3785, 1578.186
178.8606, 1547.862
179.3427, 1519.455
179.8248, 1492.658
180.3069, 1467.927
180.7890, 1446.461
181.2712, 1427.730
181.7533, 1410.313
182.2354, 1394.198
182.7175, 1378.898
183.1996, 1363.610
183.6818, 1347.969
184.1639, 1333.139
184.6460, 1320.228
185.1281, 1309.105
185.6102, 1298.419
186.0923, 1287.440
186.5745, 1276.401
187.0566, 1266.325
187.5387, 1257.072
188.0208, 1249.033
188.5029, 1242.887
188.9850, 1238.535
189.4672, 1234.340
189.9493, 1229.346
190.4314, 1223.782
190.9135, 1218.832
191.3956, 1214.932
191.8777, 1210.790
192.3599, 1203.956
192.8420, 1194.445
193.3241, 1184.301
193.8062, 1174.234
194.2883, 1164.209
194.7704, 1155.395
195.2526, 1148.414
195.7347, 1141.525
196.2168, 1131.053
196.6989, 1116.704
197.1810, 1102.100
197.6632, 1089.705
198.1453, 1079.393
198.6274, 1067.260
199.1095, 1052.699
199.5916, 1036.732
200.0737, 1021.403
200.5559, 1006.570
201.0380, 992.8257
201.5201, 980.2977
202.0022, 968.8195
202.4843, 959.8135
202.9664, 953.9493
203.4486, 950.0173
203.9307, 945.0398
204.4128, 938.6909
204.8949, 932.8583
205.3770, 928.5140
205.8591, 925.7053
206.3413, 923.9995
206.8234, 923.3791
207.3055, 923.8115
207.7876, 925.4667
208.2697, 928.6708
208.7519, 932.0137
209.2340, 934.9709
209.7161, 937.6883
210.1982, 939.0914
210.6803, 938.6953
211.1624, 937.1898
211.6446, 936.4148
212.1267, 936.4461
212.6088, 937.0670
213.0909, 938.3521
213.5730, 940.6113
214.0551, 942.3339
214.5373, 943.1431
215.0194, 943.5235
215.5015, 944.8146
215.9836, 947.0495
216.4657, 950.1834
216.9478, 954.5519
217.4300, 960.8981
217.9121, 966.0197
218.3942, 969.3840
218.8763, 971.5198
219.3584, 973.9588
219.8405, 976.8640
220.3227, 979.6779
220.8048, 982.0163
221.2869, 983.5624
221.7690, 985.5623
222.2511, 988.1858
222.7333, 991.2409
223.2154, 994.1553
223.6975, 997.1627
224.1796, 999.7209
224.6617, 1001.544
225.1438, 1002.448
225.6260, 1003.142
226.1081, 1003.498
226.5902, 1003.729
227.0723, 1004.533
227.5544, 1006.619
228.0365, 1008.207
228.5187, 1008.289
229.0008, 1005.890
229.4829, 1004.372
229.9650, 1004.023
230.4471, 1004.470
230.9292, 1004.860
231.4114, 1005.640
231.8935, 1005.611
232.3756, 1004.094
232.8577, 1000.177
233.3398, 996.8282
233.8220, 994.3027
234.3041, 992.2360
234.7862, 989.9117
235.2683, 987.7253
235.7504, 984.7023
236.2325, 980.0104
236.7147, 972.1802
237.1968, 966.8870
237.6789, 965.2726
238.1610, 965.7883
238.6431, 965.1012
239.1252, 963.1360
239.6074, 960.1197
240.0895, 955.7621
240.5716, 948.9865
241.0537, 944.2267
241.5358, 942.3264
242.0179, 942.0261
242.5001, 940.9583
242.9822, 939.1814
243.4643, 936.4738
243.9464, 932.4222
244.4285, 926.1377
244.9106, 921.2997
245.3928, 918.0572
245.8749, 916.0858
246.3570, 914.8745
246.8391, 914.5040
247.3212, 914.7101
247.8034, 915.3069
248.2855, 916.1025
248.7676, 918.1540
249.2497, 921.6453
249.7318, 926.2813
250.2139, 931.6954
250.6961, 938.2108
251.1782, 944.9827
251.6603, 951.8400
252.1424, 958.8137
252.6245, 965.7445
253.1066, 971.8244
253.5888, 978.6517
254.0709, 988.7171
254.5530, 1003.577
255.0351, 1018.515
255.5172, 1031.730
255.9993, 1042.884
256.4815, 1056.656
256.9636, 1073.680
257.4457, 1092.442
257.9278, 1111.287
258.4099, 1129.698
258.8921, 1149.498
259.3742, 1171.545
259.8563, 1195.678
260.3384, 1220.043
260.8205, 1244.017
261.3026, 1268.713
261.7848, 1295.587
262.2669, 1324.671
262.7490, 1355.308
263.2311, 1387.491
263.7132, 1421.214
264.1953, 1454.213
264.6775, 1485.995
265.1596, 1517.476
265.6417, 1549.923
266.1238, 1584.190
266.6059, 1616.169
267.0880, 1644.962
267.5702, 1670.853
268.0523, 1694.265
268.5344, 1716.227
269.0165, 1734.140
269.4986, 1746.283
269.9807, 1752.494
270.4629, 1753.937
270.9450, 1750.226
271.4271, 1741.990
271.9092, 1731.636
272.3913, 1718.941
272.8734, 1704.749
273.3556, 1689.581
273.8377, 1673.454
274.3198, 1656.051
274.8019, 1636.653
275.2840, 1616.251
275.7661, 1598.039
276.2483, 1582.960
276.7304, 1566.300
277.2125, 1545.319
277.6946, 1519.690
278.1768, 1493.214
278.6589, 1465.682
279.1410, 1438.019
279.6231, 1412.126
280.1052, 1387.841
280.5873, 1364.804
281.0695, 1342.849
281.5516, 1321.890
282.0337, 1302.890
282.5158, 1285.869
282.9979, 1270.823
283.4800, 1257.651
283.9622, 1246.323
284.4443, 1237.266
284.9264, 1231.911
285.4085, 1229.682
285.8906, 1225.151
286.3727, 1218.218
286.8549, 1209.289
287.3370, 1198.891
287.8191, 1187.007
288.3012, 1173.223
288.7833, 1156.801
289.2654, 1138.526
289.7476, 1120.938
290.2297, 1104.110
290.7118, 1087.473
291.1939, 1070.106
291.6760, 1052.357
292.1581, 1035.297
292.6403, 1019.155
293.1224, 1004.041
293.6045, 989.4541
294.0866, 975.5110
294.5687, 963.1580
295.0508, 953.8593
295.5330, 946.9523
296.0151, 940.2643
296.4972, 932.9272
296.9793, 925.8386
297.4614, 920.7317
297.9435, 917.4547
298.4257, 915.2643
298.9078, 913.9760
299.3899, 913.3679
299.8720, 913.0434
300.3541, 912.9922
300.8362, 913.0550
301.3184, 912.6541
301.8005, 912.0508
302.2826, 912.3317
302.7647, 914.5506
303.2469, 917.9240
303.7290, 921.5655
304.2111, 925.4883
304.6932, 929.0184
305.1753, 930.8196
305.6574, 931.6085
306.1396, 933.0162
306.6217, 935.5135
307.1038, 939.2297
307.5859, 944.5270
308.0680, 951.5600
308.5501, 959.1971
309.0323, 966.5188
309.5144, 973.9017
309.9965, 981.9111
310.4786, 990.0403
310.9607, 999.5131
311.4428, 1011.833
311.9250, 1026.872
312.4071, 1042.300
312.8892, 1056.221
313.3713, 1069.664
313.8534, 1083.828
314.3355, 1099.176
314.8177, 1115.133
315.2998, 1131.266
315.7819, 1147.612
316.2640, 1164.904
316.7461, 1183.729
317.2282, 1203.268
317.7104, 1223.077
318.1925, 1242.822
318.6746, 1263.124
319.1567, 1283.102
319.6388, 1303.746
320.1209, 1327.200
320.6031, 1354.760
321.0852, 1384.818
321.5673, 1416.578
322.0494, 1449.117
322.5315, 1485.250
323.0136, 1526.557
323.4958, 1571.663
323.9779, 1618.332
324.4600, 1665.459
324.9421, 1715.001
325.4242, 1767.277
325.9064, 1822.824
326.3885, 1880.061
326.8706, 1941.175
327.3527, 2002.880
327.8348, 2062.508
328.3170, 2118.049
328.7991, 2173.799
329.2812, 2229.579
329.7633, 2285.591
330.2454, 2342.737
330.7275, 2399.445
331.2097, 2457.828
331.6918, 2518.962
332.1739, 2580.969
332.6560, 2649.219
333.1381, 2722.898
333.6202, 2802.445
334.1024, 2887.762
334.5845, 2977.754
335.0666, 3073.526
335.5487, 3176.875
336.0308, 3289.887
336.5129, 3401.498
336.9951, 3512.441
337.4772, 3620.964
337.9593, 3729.968
338.4414, 3843.464
338.9235, 3947.122
339.4056, 4038.218
339.8878, 4116.597
340.3699, 4176.975
340.8520, 4221.435
341.3341, 4244.214
341.8162, 4241.247
342.2983, 4213.314
342.7805, 4151.166
343.2626, 4048.043
343.7447, 3907.730
344.2268, 3753.129
344.7089, 3581.767
345.1910, 3400.992
345.6732, 3214.844
346.1553, 3022.706
346.6374, 2839.881
347.1195, 2666.009
347.6016, 2504.245
348.0837, 2360.052
348.5659, 2232.110
349.0480, 2118.305
349.5301, 2020.168
350.0122, 1934.999
350.4944, 1859.830
350.9765, 1794.597
351.4586, 1738.718
351.9407, 1694.886
352.4228, 1661.276
352.9049, 1631.832
353.3871, 1603.632
353.8692, 1577.734
354.3513, 1555.222
354.8334, 1536.101
355.3155, 1521.072
355.7976, 1512.188
356.2798, 1507.369
356.7619, 1503.175
357.2440, 1497.143
357.7261, 1492.160
358.2082, 1490.991
358.6903, 1493.168
359.1725, 1495.556
359.6546, 1496.640
360.1367, 1497.053
360.6188, 1497.243
361.1009, 1496.768
361.5830, 1496.957
362.0652, 1498.656
362.5473, 1501.475
363.0294, 1504.441
363.5115, 1508.957
363.9936, 1512.237
364.4757, 1512.470
364.9579, 1508.472
365.4400, 1504.791
365.9221, 1501.927
366.4042, 1500.024
366.8863, 1499.267
367.3684, 1501.687
367.8506, 1503.265
368.3327, 1502.174
368.8148, 1497.999
369.2969, 1496.543
369.7790, 1498.298
370.2611, 1502.434
370.7433, 1508.473
371.2254, 1516.928
371.7075, 1526.370
372.1896, 1536.995
372.6717, 1548.585
373.1538, 1560.052
373.6360, 1571.390
374.1181, 1582.547
374.6002, 1593.570
375.0823, 1604.970
375.5645, 1614.834
376.0466, 1623.621
376.5287, 1630.244
377.0108, 1632.737
377.4929, 1630.834
377.9750, 1625.981
378.4572, 1618.663
378.9393, 1608.864
379.4214, 1595.965
379.9035, 1579.690
380.3856, 1561.975
380.8677, 1544.955
381.3499, 1528.526
381.8320, 1511.059
382.3141, 1490.973
382.7962, 1470.815
383.2783, 1455.576
383.7604, 1445.178
384.2426, 1437.241
384.7247, 1431.095
385.2068, 1426.137
385.6889, 1420.619
386.1710, 1414.283
386.6531, 1407.786
387.1353, 1401.967
387.6174, 1396.532
388.0995, 1390.677
388.5816, 1384.339
389.0637, 1377.184
389.5458, 1368.930
390.0280, 1359.506
390.5101, 1348.725
390.9922, 1335.953
391.4743, 1322.008
391.9564, 1307.618
392.4385, 1293.176
392.9207, 1278.232
393.4028, 1261.251
393.8849, 1243.456
394.3670, 1228.456
394.8491, 1220.036
395.3312, 1213.182
395.8134, 1204.943
396.2955, 1194.108
396.7776, 1184.169
397.2597, 1176.542
397.7418, 1170.136
398.2239, 1163.474
398.7061, 1155.836
399.1882, 1148.549
399.6703, 1142.291
400.1524, 1137.149
400.6346, 1130.892
401.1167, 1123.023
401.5988, 1114.550
402.0809, 1106.067
402.5630, 1097.143
403.0451, 1089.070
403.5273, 1082.433
404.0094, 1076.593
404.4915, 1069.725
404.9736, 1061.374
405.4557, 1053.015
405.9378, 1045.216
406.4200, 1038.013
406.9021, 1030.999
407.3842, 1024.432
407.8663, 1017.637
408.3484, 1009.302
408.8305, 999.3593
409.3127, 990.6439
409.7948, 984.3929
410.2769, 979.6774
410.7590, 974.1556
411.2411, 967.8152
411.7232, 960.9637
412.2054, 953.5305
412.6875, 945.6466
413.1696, 938.1451
413.6517, 931.2958
414.1338, 923.9813
414.6159, 914.4167
415.0981, 903.2995
415.5802, 892.6112
416.0623, 884.0123
416.5444, 875.9537
417.0265, 866.9282
417.5086, 856.8121
417.9908, 846.9971
418.4729, 838.7416
418.9550, 831.1455
419.4371, 823.3647
419.9192, 814.3572
420.4013, 805.9614
420.8835, 798.9858
421.3656, 793.2606
421.8477, 788.1367
422.3298, 783.5486
422.8119, 779.5131
423.2940, 776.1793
423.7762, 774.0162
424.2583, 771.2660
424.7404, 767.0596
425.2225, 762.4970
425.7047, 758.7211
426.1868, 756.2111
426.6689, 753.8995
427.1510, 751.3362
427.6331, 748.6573
428.1152, 747.3881
428.5974, 748.1882
429.0795, 749.3929
429.5616, 750.1938
430.0437, 750.7434
430.5258, 750.0790
431.0079, 747.7458
431.4901, 744.6888
431.9722, 742.5355
432.4543, 741.3260
432.9364, 740.6215
433.4185, 740.5243
433.9006, 740.8190
434.3828, 740.3148
434.8649, 738.9319
435.3470, 737.7458
435.8291, 738.0118
436.3112, 739.3201
436.7933, 740.3427
437.2755, 740.8234
437.7576, 740.9559
438.2397, 740.5900
438.7218, 739.9886
439.2039, 740.0107
439.6860, 741.5478
440.1682, 743.7249
440.6503, 745.8220
441.1324, 747.8228
441.6145, 749.1786
442.0966, 748.2806
442.5787, 747.0463
443.0609, 747.5568
443.5430, 752.5975
444.0251, 757.1628
444.5072, 758.6312
444.9893, 757.9862
445.4714, 758.8217
445.9536, 762.6959
446.4357, 767.5976
446.9178, 772.7864
447.3999, 778.4167
447.8820, 783.8329
448.3641, 788.2234
448.8463, 792.8949
449.3284, 799.3951
449.8105, 808.3850
450.2926, 817.8805
450.7747, 827.3434
451.2569, 837.0427
451.7390, 848.4262
452.2211, 862.0514
452.7032, 876.2117
453.1853, 889.7449
453.6674, 902.6703
454.1496, 916.2218
454.6317, 930.3601
455.1138, 945.5529
455.5959, 962.3014
456.0780, 980.6935
456.5602, 1000.234
457.0423, 1021.181
457.5244, 1042.837
458.0065, 1063.887
458.4886, 1084.285
458.9707, 1105.526
459.4529, 1128.624
459.9350, 1153.257
460.4171, 1177.824
460.8992, 1202.066
461.3813, 1227.913
461.8634, 1257.826
462.3456, 1290.397
462.8277, 1322.572
463.3098, 1351.323
463.7919, 1381.423
464.2740, 1416.483
464.7561, 1456.152
465.2383, 1494.623
465.7204, 1529.032
466.2025, 1562.482
466.6846, 1596.617
467.1667, 1632.990
467.6488, 1667.643
468.1310, 1700.245
468.6131, 1731.161
469.0952, 1761.997
469.5773, 1794.851
470.0594, 1824.155
470.5415, 1848.755
471.0237, 1868.597
471.5058, 1885.366
471.9879, 1899.055
472.4700, 1909.768
472.9521, 1917.274
473.4342, 1921.574
473.9164, 1923.493
474.3985, 1922.648
474.8806, 1920.474
475.3627, 1919.837
475.8448, 1920.469
476.3270, 1919.605
476.8091, 1916.977
477.2912, 1911.720
477.7733, 1902.739
478.2554, 1889.942
478.7375, 1871.853
479.2197, 1847.616
479.7018, 1817.190
480.1839, 1780.142
480.6660, 1735.261
481.1481, 1687.476
481.6302, 1639.325
482.1124, 1590.639
482.5945, 1541.130
483.0766, 1487.376
483.5587, 1435.615
484.0408, 1389.313
484.5229, 1348.622
485.0051, 1309.318
485.4872, 1270.527
485.9693, 1232.876
486.4514, 1197.065
486.9335, 1162.489
487.4156, 1130.347
487.8978, 1100.625
488.3799, 1073.474
488.8620, 1048.299
489.3441, 1025.461
489.8262, 1003.498
490.3083, 981.4459
490.7905, 959.6191
491.2726, 941.4494
491.7547, 927.2728
492.2368, 914.4816
492.7189, 901.2158
493.2010, 887.6082
493.6832, 875.9617
494.1653, 866.5032
494.6474, 858.5035
495.1295, 851.1133
495.6116, 844.3292
496.0938, 838.0482
496.5759, 832.1794
497.0580, 826.8168
497.5401, 822.3331
498.0222, 818.5764
498.5044, 815.0062
498.9865, 811.2806
499.4686, 807.5875
499.9507, 804.2114
500.4328, 801.4264
500.9149, 798.0713
501.3971, 793.5334
501.8792, 788.2767
502.3613, 782.8423
502.8434, 777.0732
503.3255, 771.3298
503.8076, 765.4373
504.2898, 759.5408
504.7719, 754.4130
505.2540, 750.6877
505.7361, 746.7816
506.2182, 741.6306
506.7003, 734.7687
507.1825, 730.0500
507.6646, 727.9781
508.1467, 726.9773
508.6288, 725.3056
509.1109, 722.9733
509.5930, 721.1089
510.0752, 720.1512
510.5573, 719.4852
511.0394, 717.7832
511.5215, 715.2098
512.0037, 712.7706
512.4858, 711.3844
512.9679, 710.3138
513.4500, 708.1591
513.9321, 704.9003
514.4142, 702.2452
514.8964, 702.0180
515.3785, 702.7267
515.8606, 702.7930
516.3427, 701.7073
516.8248, 700.1550
517.3069, 697.3461
517.7891, 694.3740
518.2712, 693.2660
518.7533, 697.3143
519.2354, 700.4070
519.7175, 700.1039
520.1996, 696.4973
520.6818, 694.4748
521.1639, 694.7737
521.6460, 695.7537
522.1281, 696.4630
522.6102, 696.7473
523.0923, 697.5059
523.5745, 699.0794
524.0566, 700.5989
524.5387, 700.1345
525.0208, 697.6830
525.5029, 697.1630
525.9850, 700.6207
526.4672, 705.9118
526.9493, 708.4578
527.4314, 708.4681
527.9135, 707.7175
528.3956, 706.2670
528.8777, 705.1803
529.3599, 706.3914
529.8420, 710.2234
530.3241, 713.9167
530.8062, 715.2366
531.2883, 715.6246
531.7704, 716.6869
532.2526, 719.7448
532.7347, 722.4075
533.2168, 723.3156
533.6989, 723.3235
534.1810, 724.4573
534.6631, 728.4433
535.1453, 732.1166
535.6274, 734.2750
536.1095, 734.8801
536.5916, 736.6639
537.0737, 740.0264
537.5558, 743.9872
538.0380, 748.0114
538.5201, 752.1970
539.0022, 755.8987
539.4843, 758.8572
539.9664, 761.7232
540.4485, 765.8182
540.9307, 770.8823
541.4128, 774.8773
541.8949, 776.7605
542.3770, 777.4859
542.8591, 778.3542
543.3412, 779.3709
543.8234, 780.6556
544.3055, 783.1689
544.7876, 785.4440
545.2697, 785.7054
545.7518, 783.6361
546.2339, 781.6194
546.7161, 780.0580
547.1982, 779.4894
547.6803, 780.3851
548.1624, 784.5400
548.6445, 788.0486
549.1266, 790.6321
549.6088, 792.2170
550.0909, 792.5302
550.5730, 790.4821
551.0551, 788.9957
551.5372, 789.1078
552.0193, 790.5994
552.5015, 791.1466
552.9836, 790.5965
553.4657, 789.6597
553.9478, 788.7977
554.4299, 787.9759
554.9120, 786.6912
555.3942, 784.7742
555.8763, 783.1464
556.3584, 783.1877
556.8405, 784.3445
557.3226, 785.0984
557.8047, 784.3116
558.2869, 783.9676
558.7690, 785.4622
559.2511, 788.8139
559.7332, 794.0930
560.2154, 803.8331
560.6975, 813.3669
561.1796, 819.7230
561.6617, 822.6942
562.1439, 826.9777
562.6260, 834.1311
563.1081, 842.4254
563.5902, 850.9139
564.0723, 859.2316
564.5544, 868.5326
565.0366, 878.7316
565.5187, 890.1091
566.0008, 903.0364
566.4829, 917.8121
566.9650, 933.0928
567.4471, 948.5275
567.9293, 964.3429
568.4114, 980.7216
568.8935, 997.6971
569.3756, 1015.046
569.8577, 1032.350
570.3398, 1050.015
570.8220, 1068.601
571.3041, 1088.255
571.7862, 1106.852
572.2683, 1124.135
572.7504, 1139.189
573.2325, 1151.599
573.7147, 1161.716
574.1968, 1167.720
574.6789, 1168.926
575.1610, 1165.683
575.6431, 1158.415
576.1252, 1142.509
576.6074, 1128.147
577.0895, 1116.346
577.5716, 1107.037
578.0537, 1099.348
578.5358, 1092.039
579.0179, 1089.285
579.5001, 1093.406
579.9822, 1104.101
580.4643, 1115.585
580.9464, 1127.584
581.4285, 1142.150
581.9106, 1161.227
582.3928, 1184.515
582.8749, 1210.796
583.3570, 1240.072
583.8391, 1272.013
584.3212, 1304.768
584.8033, 1340.535
585.2855, 1383.214
585.7676, 1434.184
586.2497, 1492.508
586.7318, 1558.392
587.2139, 1631.633
587.6960, 1711.648
588.1782, 1796.226
588.6603, 1889.557
589.1424, 1994.146
589.6245, 2110.941
590.1066, 2231.124
590.5887, 2351.538
591.0709, 2478.107
591.5530, 2615.270
592.0351, 2763.332
592.5172, 2918.854
592.9993, 3081.028
593.4814, 3252.517
593.9636, 3437.189
594.4457, 3633.330
594.9278, 3840.960
595.4099, 4060.605
595.8920, 4291.392
596.3741, 4531.597
596.8563, 4780.411
597.3384, 5034.177
597.8205, 5290.510
598.3026, 5549.653
598.7847, 5813.116
599.2668, 6080.175
599.7490, 6334.751
600.2311, 6585.000
600.7132, 6810.894
601.1953, 7010.281
601.6774, 7199.641
602.1595, 7310.781
602.6417, 7348.573
603.1238, 7305.179
603.6059, 7171.304
604.0880, 6942.524
604.5701, 6639.483
605.0522, 6255.527
605.5344, 5818.453
606.0165, 5373.091
606.4986, 4920.772
606.9807, 4491.559
607.4628, 4097.845
607.9449, 3736.652
608.4271, 3411.154
608.9092, 3118.694
609.3913, 2860.855
609.8735, 2645.496
610.3556, 2459.449
610.8377, 2293.952
611.3198, 2149.307
611.8019, 2021.366
612.2841, 1911.057
612.7662, 1814.633
613.2483, 1728.428
613.7304, 1654.919
614.2125, 1588.431
614.6946, 1529.109
615.1768, 1475.772
615.6589, 1427.247
616.1410, 1383.309
616.6231, 1342.669
617.1052, 1305.059
617.5873, 1270.559
618.0695, 1241.675
618.5516, 1217.606
619.0337, 1194.541
619.5158, 1169.961
619.9979, 1145.932
620.4800, 1125.414
620.9622, 1108.042
621.4443, 1092.431
621.9264, 1078.422
622.4085, 1065.317
622.8906, 1052.331
623.3727, 1039.279
623.8549, 1027.708
624.3370, 1018.487
624.8191, 1010.387
625.3012, 1002.720
625.7833, 995.4476
626.2654, 988.4780
626.7476, 981.6121
627.2297, 975.2913
627.7118, 970.5605
628.1939, 967.4824
628.6760, 963.4133
629.1581, 957.3779
629.6403, 950.7115
630.1224, 945.6005
630.6045, 941.7756
631.0866, 938.1826
631.5687, 933.2919
632.0508, 929.1588
632.5330, 928.7048
633.0151, 931.1622
633.4972, 932.3672
633.9793, 928.8189
634.4614, 925.0323
634.9435, 923.3973
635.4257, 924.4805
635.9078, 925.9235
636.3899, 927.8400
636.8720, 929.8842
637.3541, 931.7228
637.8362, 933.2379
638.3184, 935.0280
638.8005, 936.9622
639.2826, 939.4671
639.7647, 943.3846
640.2468, 948.5319
640.7289, 953.3781
641.2111, 957.1785
641.6932, 961.2960
642.1753, 967.5081
642.6574, 975.4212
643.1395, 983.9526
643.6216, 991.8225
644.1038, 1001.026
644.5859, 1012.965
645.0680, 1027.258
645.5501, 1042.414
646.0322, 1056.822
646.5143, 1073.217
646.9965, 1092.274
647.4786, 1114.202
647.9607, 1137.730
648.4428, 1162.379
648.9249, 1190.126
649.4070, 1222.700
649.8892, 1259.991
650.3713, 1302.050
650.8534, 1349.386
651.3355, 1400.727
651.8176, 1452.968
652.2997, 1508.545
652.7819, 1573.185
653.2640, 1648.956
653.7461, 1731.245
654.2282, 1816.048
654.7103, 1904.495
655.1924, 1997.883
655.6746, 2096.655
656.1567, 2202.162
656.6388, 2313.023
657.1209, 2430.686
657.6030, 2557.020
658.0851, 2695.702
658.5673, 2838.880
659.0494, 2984.154
659.5316, 3136.060
660.0137, 3288.077
660.4958, 3451.073
660.9779, 3616.345
661.4600, 3784.208
661.9421, 3952.582
662.4243, 4119.649
662.9064, 4285.185
663.3885, 4444.256
663.8706, 4597.550
664.3527, 4738.205
664.8348, 4861.053
665.3170, 4967.862
665.7991, 5045.187
666.2812, 5095.876
666.7633, 5111.086
667.2454, 5080.524
667.7275, 5004.085
668.2097, 4885.679
668.6918, 4720.407
669.1739, 4517.391
669.6560, 4283.991
670.1381, 4017.443
670.6202, 3747.748
671.1024, 3480.203
671.5845, 3220.031
672.0666, 2980.593
672.5487, 2760.896
673.0308, 2560.557
673.5129, 2384.397
673.9951, 2226.137
674.4772, 2081.732
674.9593, 1950.797
675.4414, 1834.645
675.9235, 1739.022
676.4056, 1653.180
676.8878, 1574.175
677.3699, 1501.434
677.8520, 1434.962
678.3341, 1375.204
678.8162, 1321.884
679.2983, 1276.339
679.7805, 1239.153
680.2626, 1203.288
680.7447, 1168.969
681.2268, 1136.289
681.7089, 1105.863
682.1910, 1077.366
682.6732, 1050.747
683.1553, 1025.989
683.6374, 1003.143
684.1195, 982.6622
684.6016, 963.8085
685.0837, 945.2446
685.5659, 925.5759
686.0480, 907.9554
686.5301, 893.4073
687.0122, 881.2468
687.4943, 870.1005
687.9764, 860.1756
688.4586, 850.9244
688.9407, 842.2856
689.4228, 834.1483
689.9049, 825.9709
690.3870, 817.6651
690.8691, 810.2112
691.3513, 804.2296
691.8334, 799.2640
692.3155, 794.9134
692.7976, 790.9957
693.2797, 786.5881
693.7618, 780.2939
694.2440, 774.0373
694.7261, 768.9167
695.2082, 765.0797
695.6903, 762.3092
696.1724, 761.8965
696.6545, 761.3632
697.1367, 759.5472
697.6188, 756.2845
698.1009, 752.9139
698.5830, 749.1805
699.0651, 745.9875
699.5472, 744.3807
700.0294, 744.1272
700.5115, 743.1597
700.9936, 741.2565
701.4757, 739.1474
701.9578, 737.2584
702.4399, 735.7331
702.9221, 734.8762
703.4042, 735.0313
703.8863, 735.0473
704.3684, 734.1793
704.8505, 732.8990
705.3326, 731.7693
705.8148, 730.9443
706.2969, 730.1815
706.7790, 729.4144
707.2611, 728.7534
707.7432, 728.6270
708.2253, 729.2538
708.7075, 728.9261
709.1896, 726.8599
709.6718, 724.1041
710.1539, 723.1364
710.6360, 723.5134
711.1181, 723.3536
711.6002, 720.8400
712.0823, 718.1476
712.5645, 717.1428
713.0466, 717.5270
713.5287, 718.1917
714.0108, 719.2126
714.4929, 719.9768
714.9750, 720.1072
715.4572, 719.6612
715.9393, 719.3518
716.4214, 719.3082
716.9035, 719.0929
717.3856, 718.3913
717.8677, 717.2553
718.3499, 716.4496
718.8320, 715.9683
719.3141, 715.5760
719.7962, 714.9023
720.2783, 714.2751
720.7604, 714.4474
721.2426, 715.5264
721.7247, 716.1334
722.2068, 715.3975
722.6889, 713.9490
723.1710, 712.0118
723.6531, 708.8344
724.1353, 707.4910
724.6174, 709.2703
725.0995, 711.7115
725.5816, 712.6259
726.0637, 711.6861
726.5458, 711.3870
727.0280, 712.0179
727.5101, 712.9131
727.9922, 713.4028
728.4743, 713.4792
728.9564, 712.9738
729.4385, 711.5340
729.9207, 710.3939
730.4028, 711.0291
730.8849, 712.4334
731.3670, 713.2037
731.8491, 712.6971
732.3312, 711.8018
732.8134, 709.7328
733.2955, 707.6968
733.7776, 707.9789
734.2597, 711.6239
734.7418, 714.3412
735.2239, 715.1481
735.7061, 714.6232
736.1882, 713.8304
736.6703, 712.8050
737.1524, 711.8106
737.6345, 710.9291
738.1166, 710.1521
738.5988, 709.3550
739.0809, 708.6434
739.5630, 708.3153
740.0451, 709.0770
740.5272, 709.6624
741.0093, 709.2133
741.4915, 707.9781
741.9736, 707.6035
742.4557, 708.4144
742.9378, 709.4616
743.4199, 710.5457
743.9020, 711.5845
744.3842, 712.0387
744.8663, 711.9085
745.3484, 711.5891
745.8305, 710.8771
746.3126, 710.3444
746.7947, 711.3408
747.2769, 713.6494
747.7590, 715.2451
748.2411, 714.0811
748.7232, 712.6710
749.2053, 712.7609
749.6874, 714.7568
750.1696, 715.6945
750.6517, 714.6760
751.1338, 713.7346
751.6159, 714.1340
752.0980, 715.9466
752.5801, 717.1511
753.0623, 717.6761
753.5444, 718.1004
754.0265, 719.0134
754.5086, 720.1411
754.9907, 720.8866
755.4728, 721.1732
755.9550, 721.4827
756.4371, 722.2075
756.9192, 723.0258
757.4013, 723.7016
757.8835, 724.2082
758.3656, 724.5410
758.8477, 724.7302
759.3298, 724.7479
759.8120, 724.2529
760.2941, 723.0113
760.7762, 723.7969
761.2583, 727.1733
761.7404, 730.8273
762.2225, 731.9659
762.7047, 731.4630
763.1868, 731.2770
763.6689, 731.8490
764.1510, 732.4818
764.6331, 732.6309
765.1152, 732.6298
765.5974, 732.8231
766.0795, 733.1726
766.5616, 733.8907
767.0437, 734.9727
767.5258, 736.4006
768.0079, 738.2841
768.4901, 740.7254
768.9722, 742.7030
769.4543, 744.0978
769.9364, 744.8405
770.4185, 743.9825
770.9006, 742.4086
771.3828, 742.6272
771.8649, 746.1501
772.3470, 749.7843
772.8291, 751.3719
773.3112, 751.7965
773.7933, 752.2811
774.2755, 753.0883
774.7576, 754.0450
775.2397, 755.5212
775.7218, 756.8997
776.2039, 757.0317
776.6860, 755.7599
777.1682, 754.7833
777.6503, 754.5451
778.1324, 754.5246
778.6145, 753.5196
779.0966, 752.0535
779.5787, 751.6107
780.0609, 753.6780
780.5430, 755.4799
781.0251, 754.6719
781.5072, 752.5760
781.9893, 751.6151
782.4714, 753.9263
782.9536, 755.1357
783.4357, 754.1818
783.9178, 752.2462
784.3999, 751.9166
784.8820, 753.3302
785.3641, 754.4559
785.8463, 754.6075
786.3284, 754.4299
786.8105, 754.9875
787.2926, 756.0461
787.7747, 757.0281
788.2568, 757.2594
788.7390, 757.7619
789.2211, 759.6741
789.7032, 762.1610
790.1853, 763.1763
790.6674, 760.9005
791.1495, 759.7334
791.6317, 760.5052
792.1138, 762.7500
792.5959, 765.8000
793.0780, 769.6763
793.5601, 772.3665
794.0422, 772.8823
794.5244, 772.3719
795.0065, 772.1666
795.4886, 772.2551
795.9707, 772.6008
796.4528, 773.6981
796.9349, 774.5240
797.4171, 774.2509
797.8992, 773.4159
798.3813, 773.4044
798.8634, 773.9402
799.3455, 776.0145
799.8276, 780.3489
800.3098, 785.8516
800.7919, 789.8586
801.2740, 792.5070
801.7561, 794.8779
802.2382, 797.6322
802.7203, 799.9332
803.2025, 800.1610
803.6846, 799.2771
804.1667, 799.4743
804.6488, 802.6691
805.1309, 805.8105
805.6130, 807.6654
806.0952, 808.8947
806.5773, 811.0652
807.0594, 814.5057
807.5416, 817.8249
808.0237, 820.8337
808.5058, 823.3278
808.9879, 824.4223
809.4700, 824.4885
809.9521, 825.0770
810.4343, 826.7572
810.9164, 829.2609
811.3985, 833.1008
811.8806, 837.5350
812.3627, 841.0095
812.8448, 841.4409
813.3270, 843.0774
813.8091, 847.2022
814.2912, 852.5558
814.7733, 856.1193
815.2554, 857.6615
815.7375, 859.8367
816.2197, 863.4828
816.7018, 867.9043
817.1839, 872.0471
817.6660, 875.9854
818.1481, 879.8222
818.6302, 883.9154
819.1124, 887.5338
819.5945, 889.9319
820.0766, 891.7436
820.5587, 894.1923
821.0408, 897.2296
821.5229, 901.1375
822.0051, 906.3145
822.4872, 911.9971
822.9693, 917.0843
823.4514, 921.5746
823.9335, 924.9670
824.4156, 926.4430
824.8978, 928.4856
825.3799, 934.7719
825.8620, 943.2667
826.3441, 950.5431
826.8262, 954.1830
827.3083, 958.3079
827.7905, 964.2177
828.2726, 970.9110
828.7547, 977.2703
829.2368, 982.9960
829.7189, 989.1729
830.2010, 995.9052
830.6832, 1003.088
831.1653, 1010.617
831.6474, 1018.515
832.1295, 1027.180
832.6116, 1036.796
833.0938, 1046.493
833.5759, 1054.798
834.0580, 1063.394
834.5401, 1074.173
835.0222, 1088.948
835.5043, 1103.950
835.9865, 1119.007
836.4686, 1134.521
836.9507, 1150.449
837.4328, 1166.877
837.9149, 1185.997
838.3970, 1208.318
838.8792, 1232.771
839.3613, 1258.030
839.8434, 1285.031
840.3255, 1314.542
840.8076, 1346.559
841.2897, 1381.921
841.7719, 1421.172
842.2540, 1463.507
842.7361, 1507.945
843.2182, 1554.006
843.7003, 1604.055
844.1824, 1657.507
844.6646, 1715.367
845.1467, 1778.525
845.6288, 1846.635
846.1109, 1918.492
846.5930, 1993.980
847.0751, 2074.743
847.5573, 2163.436
848.0394, 2256.593
848.5215, 2352.591
849.0036, 2451.234
849.4857, 2553.236
849.9678, 2658.480
850.4500, 2767.308
850.9321, 2880.414
851.4142, 2998.430
851.8963, 3121.752
852.3784, 3250.872
852.8605, 3386.969
853.3427, 3528.733
853.8248, 3677.669
854.3069, 3834.620
854.7890, 3999.682
855.2711, 4174.380
855.7532, 4359.183
856.2354, 4549.408
856.7175, 4744.458
857.1996, 4942.198
857.6818, 5139.163
858.1639, 5335.831
858.6460, 5532.615
859.1281, 5730.804
859.6102, 5931.251
860.0923, 6133.833
860.5745, 6341.689
861.0566, 6558.520
861.5387, 6782.888
862.0208, 7022.680
862.5029, 7282.159
862.9850, 7562.802
863.4672, 7865.061
863.9493, 8193.946
864.4314, 8539.340
864.9135, 8905.598
865.3956, 9284.841
865.8777, 9673.935
866.3599, 10069.86
866.8420, 10435.64
867.3241, 10770.20
867.8062, 11065.42
868.2883, 11301.16
868.7704, 11499.63
869.2526, 11689.94
869.7347, 11852.71
870.2168, 12042.86
870.6989, 12258.10
871.1810, 12501.11
871.6631, 12783.23
872.1453, 13101.84
872.6274, 13438.11
873.1095, 13794.55
873.5916, 14131.41
874.0737, 14442.99
874.5558, 14689.03
875.0380, 14835.21
875.5201, 14897.00
876.0022, 14785.37
876.4843, 14458.37
876.9664, 13961.22
877.4485, 13297.53
877.9307, 12445.88
878.4128, 11545.25
878.8949, 10584.60
879.3770, 9630.563
879.8591, 8713.260
880.3412, 7849.929
880.8234, 7066.031
881.3055, 6360.578
881.7876, 5735.642
882.2697, 5198.698
882.7518, 4729.322
883.2339, 4321.583
883.7161, 3972.292
884.1982, 3666.037
884.6803, 3405.526
885.1624, 3177.364
885.6445, 2977.651
886.1266, 2804.713
886.6088, 2653.033
887.0909, 2520.621
887.5730, 2402.464
888.0551, 2297.794
888.5372, 2203.115
889.0193, 2117.788
889.5015, 2041.564
889.9836, 1971.366
890.4657, 1906.784
890.9478, 1847.914
891.4299, 1794.986
891.9120, 1747.385
892.3942, 1703.102
892.8763, 1661.916
893.3584, 1624.958
893.8405, 1592.315
894.3226, 1562.783
894.8047, 1536.469
895.2869, 1512.627
895.7690, 1490.439
896.2511, 1469.764
896.7332, 1450.927
897.2153, 1433.859
897.6974, 1419.282
898.1796, 1409.318
898.6617, 1403.182
899.1438, 1395.766
899.6259, 1386.459
900.1080, 1377.311
900.5901, 1370.814
901.0723, 1364.782
901.5544, 1356.797
902.0365, 1346.276
902.5186, 1336.935
903.0007, 1331.135
903.4828, 1323.858
903.9650, 1312.278
904.4471, 1296.793
904.9292, 1281.158
905.4113, 1265.198
905.8935, 1249.242
906.3756, 1232.984
906.8577, 1217.148
907.3398, 1202.967
907.8220, 1190.022
908.3041, 1177.012
908.7862, 1162.257
909.2683, 1148.667
909.7504, 1136.465
910.2325, 1125.994
910.7147, 1118.495
911.1968, 1113.870
911.6789, 1110.190
912.1610, 1107.231
912.6431, 1104.278
913.1252, 1099.174
913.6074, 1093.969
914.0895, 1091.902
914.5716, 1095.588
915.0537, 1099.575
915.5358, 1102.841
916.0179, 1106.324
916.5001, 1111.045
916.9822, 1117.063
917.4643, 1123.121
917.9464, 1129.110
918.4285, 1135.541
918.9106, 1142.598
919.3928, 1150.455
919.8749, 1159.391
920.3570, 1169.443
920.8391, 1180.484
921.3212, 1192.755
921.8033, 1205.865
922.2855, 1220.211
922.7676, 1235.550
923.2497, 1248.146
923.7318, 1257.896
924.2139, 1267.739
924.6960, 1280.303
925.1782, 1292.931
925.6603, 1301.653
926.1424, 1307.509
926.6245, 1313.193
927.1066, 1323.030
927.5887, 1328.241
928.0709, 1326.539
928.5530, 1319.872
929.0351, 1311.800
929.5172, 1302.341
929.9993, 1290.060
930.4814, 1274.667
930.9636, 1256.669
931.4457, 1235.284
931.9278, 1212.283
932.4099, 1190.018
932.8920, 1169.188
933.3741, 1149.143
933.8563, 1129.973
934.3384, 1111.456
934.8205, 1093.689
935.3026, 1076.399
935.7847, 1061.262
936.2668, 1048.173
936.7490, 1036.881
937.2311, 1027.496
937.7132, 1019.498
938.1953, 1013.046
938.6774, 1007.774
939.1595, 1002.205
939.6417, 994.2914
940.1238, 988.0052
940.6059, 984.5936
941.0880, 983.4627
941.5701, 983.1023
942.0522, 983.5035
942.5344, 984.0311
943.0165, 984.4455
943.4986, 985.0251
943.9807, 985.2751
944.4628, 986.1697
944.9449, 989.2018
945.4271, 996.3318
945.9092, 1003.065
946.3913, 1008.551
946.8734, 1014.180
947.3555, 1020.960
947.8376, 1028.900
948.3198, 1039.075
948.8019, 1051.549
949.2840, 1064.909
949.7661, 1076.706
950.2482, 1089.611
950.7303, 1106.529
951.2125, 1127.595
951.6946, 1148.619
952.1767, 1167.613
952.6588, 1188.976
953.1409, 1214.873
953.6230, 1243.828
954.1052, 1271.253
954.5873, 1297.648
955.0695, 1326.180
955.5516, 1358.706
956.0337, 1393.198
956.5158, 1428.813
956.9979, 1464.747
957.4800, 1500.046
957.9622, 1534.587
958.4443, 1568.621
958.9264, 1602.484
959.4085, 1635.297
959.8906, 1667.980
960.3727, 1699.350
960.8549, 1724.389
961.3370, 1742.789
961.8191, 1756.187
962.3012, 1767.849
962.7833, 1773.410
963.2654, 1768.899
963.7476, 1754.166
964.2297, 1735.012
964.7118, 1711.727
965.1939, 1684.313
965.6760, 1652.304
966.1581, 1616.728
966.6403, 1577.624
967.1224, 1536.317
967.6045, 1495.492
968.0866, 1456.773
968.5687, 1418.945
969.0508, 1380.765
969.5330, 1343.443
970.0151, 1307.713
970.4972, 1273.584
970.9793, 1242.431
971.4614, 1214.652
971.9435, 1189.357
972.4257, 1165.632
972.9078, 1143.816
973.3899, 1123.963
973.8720, 1106.163
974.3541, 1091.123
974.8362, 1079.087
975.3184, 1069.856
975.8005, 1063.779
976.2826, 1060.411
976.7647, 1057.010
977.2468, 1053.601
977.7289, 1052.008
978.2111, 1053.049
978.6932, 1056.404
979.1753, 1061.933
979.6574, 1069.495
980.1395, 1078.811
980.6216, 1088.828
981.1038, 1102.492
981.5859, 1121.096
982.0680, 1141.749
982.5501, 1160.058
983.0322, 1176.904
983.5143, 1197.780
983.9965, 1223.321
984.4786, 1251.457
984.9607, 1280.873
985.4428, 1312.076
985.9249, 1345.597
986.4070, 1381.569
986.8892, 1419.116
987.3713, 1458.392
987.8534, 1497.930
988.3355, 1538.186
988.8176, 1577.153
989.2997, 1611.051
989.7819, 1639.850
990.2640, 1663.840
990.7461, 1686.518
991.2282, 1698.847
991.7103, 1697.306
992.1924, 1682.550
992.6746, 1655.511
993.1567, 1614.417
993.6388, 1569.564
994.1209, 1521.047
994.6030, 1469.761
995.0851, 1414.534
995.5673, 1358.107
996.0494, 1303.290
996.5315, 1250.359
997.0136, 1202.365
997.4957, 1160.626
997.9778, 1123.021
998.4600, 1089.856
998.9421, 1060.536
999.4242, 1034.450
999.9063, 1011.660
1000.388, 990.7408
1000.871, 971.0463
1001.353, 953.4420
1001.835, 938.9164
1002.317, 926.7693
1002.799, 916.2566
1003.281, 908.3478
1003.763, 899.1706
1004.245, 887.8610
1004.728, 877.1900
1005.210, 869.5048
1005.692, 864.0548
1006.174, 858.5815
1006.656, 853.0663
1007.138, 847.7269
1007.620, 841.5784
1008.102, 836.7455
1008.584, 835.5173
1009.067, 836.0309
1009.549, 833.5498
1010.031, 827.4278
1010.513, 823.4505
1010.995, 823.1269
1011.477, 824.0381
1011.959, 823.7610
1012.441, 822.6409
1012.924, 821.0309
1013.406, 818.8252
1013.888, 816.9160
1014.370, 815.7059
1014.852, 814.4012
1015.334, 812.1425
1015.816, 809.3939
1016.298, 809.4846
1016.780, 812.0305
1017.263, 814.1536
1017.745, 814.1637
1018.227, 813.3866
1018.709, 811.8248
1019.191, 810.2874
1019.673, 810.5156
1020.155, 813.6700
1020.637, 815.2633
1021.120, 814.7722
1021.602, 813.2841
1022.084, 811.6490
1022.566, 809.9989
1023.048, 808.7460
1023.530, 807.9223
1024.012, 806.6113
1024.494, 804.0993
1024.976, 801.3968
1025.458, 798.8599
1025.941, 796.4667
1026.423, 793.9254
1026.905, 791.2838
1027.387, 789.8238
1027.869, 790.4435
1028.351, 791.4481
1028.833, 791.4972
1029.316, 790.8690
1029.798, 789.8453
1030.280, 787.9701
1030.762, 787.0175
1031.244, 787.4479
1031.726, 787.6339
1032.208, 785.7000
1032.690, 782.7157
1033.172, 781.8799
1033.655, 782.8814
1034.137, 783.8206
1034.619, 783.5715
1035.101, 783.3048
1035.583, 783.6406
1036.065, 784.1740
1036.547, 784.3559
1037.029, 784.2186
1037.511, 782.4939
1037.994, 778.6716
1038.476, 775.1456
1038.958, 774.8560
1039.440, 775.8431
1039.922, 776.0463
1040.404, 775.0822
1040.886, 774.7904
1041.368, 775.8069
1041.851, 776.2338
1042.333, 774.8444
1042.815, 772.6713
1043.297, 772.7961
1043.779, 774.4612
1044.261, 775.3576
1044.743, 773.8716
1045.225, 772.6130
1045.708, 773.1746
1046.190, 774.0099
1046.672, 773.2906
1047.154, 770.6652
1047.636, 770.2908
1048.118, 772.3028
1048.600, 775.3608
1049.082, 780.4342
1049.564, 784.4752
1050.047, 783.2403
1050.529, 777.9553
1051.011, 774.8932
1051.493, 775.8882
1051.975, 776.3362
1052.457, 775.0800
1052.939, 773.6463
1053.421, 775.0412
1053.903, 777.9910
1054.386, 779.3082
1054.868, 778.1791
1055.350, 777.4763
1055.832, 779.4200
1056.314, 781.2567
1056.796, 781.5200
1057.278, 780.3693
1057.760, 779.0217
1058.243, 777.4741
1058.725, 775.5421
1059.207, 772.2968
1059.689, 769.9758
1060.171, 771.4527
1060.653, 774.7470
1061.135, 777.0155
1061.617, 777.6829
1062.099, 777.7288
1062.582, 776.9781
1063.064, 776.1310
1063.546, 775.9184
1064.028, 775.9370
1064.510, 775.3248
1064.992, 774.1572
1065.474, 772.9584
1065.956, 771.4785
1066.438, 770.6426
1066.921, 771.0691
1067.403, 771.8541
1067.885, 770.9841
1068.367, 768.7784
1068.849, 768.5931
1069.331, 771.1296
1069.813, 773.3238
1070.295, 771.7006
1070.778, 769.8218
1071.260, 770.9108
1071.742, 774.8080
1072.224, 777.5354
1072.706, 779.0545
1073.188, 779.4559
1073.670, 778.1855
1074.152, 776.9056
1074.635, 778.0330
1075.117, 780.6849
1075.599, 783.6302
1076.081, 787.2420
1076.563, 789.1108
1077.045, 787.8303
1077.527, 787.0851
1078.009, 789.9210
1078.491, 795.3217
1078.974, 800.1202
1079.456, 804.0536
1079.938, 805.8649
1080.420, 803.9494
1080.902, 801.0145
1081.384, 797.0899
1081.866, 793.3371
1082.348, 791.5153
1082.831, 791.7477
1083.313, 790.9385
1083.795, 788.8106
1084.277, 786.4719
1084.759, 784.9501
1085.241, 783.5687
1085.723, 781.5861
1086.205, 780.1537
1086.688, 778.7079
1087.170, 776.7585
1087.652, 775.7120
1088.134, 773.7055
1088.616, 771.6242
1089.098, 770.5629
1089.580, 770.3895
1090.062, 771.3859
1090.544, 774.1907
1091.026, 774.6007
1091.509, 769.6002
1091.991, 765.4874
1092.473, 765.6020
1092.955, 768.5165
1093.437, 769.1326
1093.919, 767.8840
1094.401, 766.5778
1094.883, 765.9485
1095.366, 765.3594
1095.848, 763.9413
1096.330, 762.8654
1096.812, 763.5657
1097.294, 766.4017
1097.776, 767.0430
1098.258, 765.4567
1098.740, 763.5311
1099.223, 761.5125
1099.705, 760.5879
1100.187, 762.8690
1100.669, 766.9023
1101.151, 768.7244
1101.633, 767.1838
1102.115, 766.4850
1102.597, 767.1437
1103.079, 768.1608
1103.562, 768.5873
1104.044, 768.6280
1104.526, 768.5094
1105.008, 768.2709
1105.490, 768.0540
1105.972, 768.0488
1106.454, 767.8161
1106.936, 767.1219
1107.418, 766.3625
1107.901, 766.1319
1108.383, 766.4828
1108.865, 767.8916
1109.347, 770.7727
1109.829, 772.6750
1110.311, 771.3809
1110.793, 769.9693
1111.275, 770.2787
1111.758, 769.2646
1112.240, 771.4141
1112.722, 769.3072
1113.204, 768.1779
1113.686, 769.7927
1114.168, 771.1487
1114.650, 769.4933
1115.132, 766.8903
1115.615, 765.7522
1116.097, 766.5721
1116.579, 765.7554
1117.061, 763.1973
1117.543, 760.6182
1118.025, 758.7445
1118.507, 757.7751
1118.989, 758.6244
1119.471, 760.4272
1119.953, 761.2501
1120.436, 760.8354
1120.918, 759.2389
1121.400, 756.0648
1121.882, 753.0352
1122.364, 751.8278
1122.846, 751.8553
1123.328, 752.6435
1123.810, 753.9050
1124.293, 754.2380
1124.775, 752.1531
1125.257, 750.5408
1125.739, 749.9335
1126.221, 749.9421
1126.703, 750.3578
1127.185, 750.8798
1127.667, 750.4501
1128.150, 748.9160
1128.632, 747.4120
1129.114, 746.4072
1129.596, 745.6447
1130.078, 745.0013
1130.560, 744.5002
1131.042, 744.1329
1131.524, 743.9482
1132.006, 744.5850
1132.489, 746.6633
1132.971, 747.5779
1133.453, 743.3377
1133.935, 739.1019
1134.417, 739.2668
1134.899, 743.5807
1135.381, 746.4291
1135.863, 747.8401
1136.346, 748.2090
1136.828, 747.5516
1137.310, 746.1694
1137.792, 743.1232
1138.274, 740.1061
1138.756, 739.7507
1139.238, 742.9926
1139.720, 744.5992
1140.203, 744.4139
1140.685, 743.7183
1141.167, 743.0195
1141.649, 742.5299
1142.131, 742.7527
1142.613, 743.3474
1143.095, 743.5570
1143.577, 742.7117
1144.059, 742.6463
1144.542, 743.6859
1145.024, 744.6900
1145.506, 744.6432
1145.988, 743.8360
1146.470, 742.3331
1146.952, 740.4307
1147.434, 739.3215
1147.916, 740.1237
1148.398, 740.6877
1148.881, 740.7268
1149.363, 740.4603
1149.845, 740.1342
1150.327, 739.7434
1150.809, 739.1004
1151.291, 738.2487
1151.773, 737.9240
1152.255, 739.4477
1152.738, 740.2355
1153.220, 739.1775
1153.702, 737.3803
1154.184, 737.0804
1154.666, 737.9354
1155.148, 738.5509
1155.630, 738.6678
1156.112, 738.8452
1156.594, 739.4177
1157.077, 740.0751
1157.559, 740.5831
1158.041, 741.0554
1158.523, 742.1464
1159.005, 743.7086
1159.487, 744.6121
1159.969, 744.4807
1160.451, 743.9270
1160.933, 742.8812
1161.416, 742.0158
1161.898, 741.7629
1162.380, 742.1261
1162.862, 743.4048
1163.344, 745.5560
1163.826, 747.1611
1164.308, 747.5046
1164.790, 747.4385
1165.273, 747.3384
1165.755, 747.3647
1166.237, 747.7900
1166.719, 748.7032
1167.201, 748.6412
1167.683, 747.4874
1168.165, 747.3576
1168.647, 750.5496
1169.130, 753.8045
1169.612, 753.1990
1170.094, 751.0048
1170.576, 750.8865
1171.058, 753.8967
1171.540, 755.9035
1172.022, 756.8875
1172.504, 756.9560
1172.986, 755.3800
1173.469, 753.6068
1173.951, 753.4904
1174.433, 754.4026
1174.915, 754.7731
1175.397, 754.1048
1175.879, 753.9217
1176.361, 754.3479
1176.843, 755.0168
1177.326, 755.7256
1177.808, 756.4051
1178.290, 756.8386
1178.772, 757.1486
1179.254, 757.8919
1179.736, 759.5867
1180.218, 760.6029
1180.700, 760.7319
1181.182, 760.2960
1181.665, 759.1719
1182.147, 757.9794
1182.629, 757.9817
1183.111, 758.9930
1183.593, 759.1584
1184.075, 757.0469
1184.557, 756.6973
1185.039, 759.3174
1185.521, 762.5336
1186.004, 763.1530
1186.486, 762.1529
1186.968, 760.6838
1187.450, 758.9368
1187.932, 758.2272
1188.414, 759.7265
1188.896, 760.4641
1189.378, 759.5922
1189.861, 757.9206
1190.343, 756.4141
1190.825, 755.1967
1191.307, 754.5463
1191.789, 754.5215
1192.271, 754.8088
1192.753, 755.5693
1193.235, 756.2627
1193.718, 756.8633
1194.200, 757.0815
1194.682, 755.6974
1195.164, 753.6923
1195.646, 753.4745
1196.128, 756.0760
1196.610, 756.8479
1197.092, 753.0008
1197.574, 750.4658
1198.057, 752.4022
1198.539, 756.0752
1199.021, 754.8360
1199.503, 750.6021
1199.985, 747.6078
1200.467, 746.9277
1200.949, 747.6318
1201.431, 750.6531
1201.913, 752.8914
1202.396, 752.4817
1202.878, 750.5774
1203.360, 750.1500
1203.842, 750.6743
1204.324, 750.7191
1204.806, 749.3203
1205.288, 748.9899
1205.770, 751.0509
1206.253, 752.6292
1206.735, 751.7238
1207.217, 749.3450
1207.699, 748.2148
1208.181, 748.0524
1208.663, 748.0527
1209.145, 747.9455
1209.627, 748.0135
1210.109, 748.3832
1210.592, 748.7564
1211.074, 748.8344
1211.556, 749.3428
1212.038, 749.3246
1212.520, 750.2164
1213.002, 750.9319
1213.484, 751.4747
1213.966, 751.4464
1214.448, 750.6295
1214.931, 749.6559
1215.413, 748.7435
1215.895, 748.1429
1216.377, 749.0743
1216.859, 750.9528
1217.341, 751.9280
1217.823, 750.3531
1218.305, 749.1774
1218.788, 748.5301
1219.270, 748.6344
1219.752, 750.2277
1220.234, 752.5225
1220.716, 753.2181
1221.198, 752.7833
1221.680, 752.9417
1222.162, 755.5753
1222.645, 756.7365
1223.127, 755.4993
1223.609, 754.0707
1224.091, 754.7619
1224.573, 756.7114
1225.055, 758.5027
1225.537, 759.9220
1226.019, 760.3848
1226.501, 758.7107
1226.984, 757.5406
1227.466, 757.1617
1227.948, 757.1085
1228.430, 756.8741
1228.912, 756.6526
1229.394, 756.7518
1229.876, 757.1842
1230.358, 757.9826
1230.841, 759.9699
1231.323, 760.6073
1231.805, 759.3064
1232.287, 757.6807
1232.769, 757.4761
1233.251, 757.9968
1233.733, 758.5230
1234.215, 758.8481
1234.698, 758.0810
1235.180, 755.0810
1235.662, 753.6075
1236.144, 754.3155
1236.626, 755.6545
1237.108, 756.0175
1237.590, 756.0302
1238.072, 756.5231
1238.554, 757.4195
1239.036, 758.1103
1239.519, 758.6099
1240.001, 758.6871
1240.483, 758.2568
1240.965, 757.6533
1241.447, 756.9584
1241.929, 756.4545
1242.411, 756.4410
1242.893, 756.9233
1243.376, 757.9143
1243.858, 759.7736
1244.340, 760.2917
1244.822, 759.0191
1245.304, 757.5057
1245.786, 756.9570
1246.268, 757.0372
1246.750, 757.8064
1247.233, 758.9594
1247.715, 759.2971
1248.197, 758.7281
1248.679, 757.9753
1249.161, 757.0615
1249.643, 756.9072
1250.125, 759.2203
1250.607, 761.7667
1251.089, 762.4532
1251.572, 762.0800
1252.054, 763.2640
1252.536, 766.0053
1253.018, 766.9174
1253.500, 765.4587
1253.982, 763.6104
1254.464, 762.0457
1254.946, 761.4020
1255.428, 762.6316
1255.911, 764.7438
1256.393, 765.9125
1256.875, 766.1591
1257.357, 765.4315
1257.839, 763.7114
1258.321, 762.5726
1258.803, 764.1080
1259.285, 765.0784
1259.768, 763.6971
1260.250, 761.4403
1260.732, 761.3095
1261.214, 762.7974
1261.696, 763.8170
1262.178, 764.1127
1262.660, 764.3824
1263.142, 765.0365
1263.625, 765.6405
1264.107, 766.2491
1264.589, 766.4669
1265.071, 765.4094
1265.553, 763.4988
1266.035, 761.3728
1266.517, 759.1801
1266.999, 758.6315
1267.481, 761.6562
1267.964, 764.0313
1268.446, 764.8402
1268.928, 764.8467
1269.410, 764.7606
1269.892, 764.7986
1270.374, 765.4424
1270.856, 766.6783
1271.338, 767.6807
1271.820, 768.2770
1272.303, 769.0822
1272.785, 770.4557
1273.267, 771.1779
1273.749, 769.0991
1274.231, 766.0657
1274.713, 763.7921
1275.195, 762.5613
1275.677, 763.0490
1276.160, 765.7474
1276.642, 767.1835
1277.124, 766.5875
1277.606, 766.0009
1278.088, 768.4031
1278.570, 770.6797
1279.052, 769.2419
1279.534, 765.6465
1280.016, 765.2149
1280.499, 768.0607
1280.981, 769.9332
1281.463, 770.2674
1281.945, 770.1053
1282.427, 770.0965
1282.909, 769.9198
1283.391, 769.1850
1283.873, 768.2946
1284.356, 768.0446
1284.838, 768.3265
1285.320, 768.4279
1285.802, 768.2852
1286.284, 768.3779
1286.766, 769.2023
1287.248, 770.0159
1287.730, 770.6979
1288.213, 771.1024
1288.695, 770.6194
1289.177, 769.7978
1289.659, 770.4016
1290.141, 772.3625
1290.623, 773.7860
1291.105, 773.7465
1291.587, 773.5574
1292.069, 773.4031
1292.552, 773.1387
1293.034, 772.5076
1293.516, 771.7061
1293.998, 770.7319
1294.480, 769.7921
1294.962, 770.0014
1295.444, 771.7808
1295.926, 773.5587
1296.408, 775.3159
1296.891, 776.0801
1297.373, 773.8264
1297.855, 771.1129
1298.337, 770.1883
1298.819, 770.9792
1299.301, 772.7141
1299.783, 775.6204
1300.265, 776.6695
1300.748, 775.6360
1301.230, 774.3363
1301.712, 773.9550
1302.194, 773.8600
1302.676, 773.9659
##END=



