##NAMES=Fresnoite
##RRUFFID=R050595
##IDEAL CHEMISTRY=Ba_2_Ti^4+^O(Si_2_O_7_)
##LOCALITY=Junnila claim, Clear Creek area, New Idria district, San Benito County, California, USA
##OWNER=RRUFF
##SOURCE=Scott Kleine
##DESCRIPTION=Pink to yellow massive fragment
##STATUS=The identification of this mineral is confirmed by single-crystal X-ray diffraction and chemical analysis.
##URL=rruff.info/R050595
##MEASURED CHEMISTRY=Ba_2.00_Ti_1.00_O(Si_2.00_O_7_)
92.06543, 468.7854
92.54755, 466.0152
93.02966, 467.5995
93.51178, 472.1274
93.99390, 473.7686
94.47601, 472.3995
94.95813, 469.0146
95.44025, 464.7279
95.92236, 460.1720
96.40448, 455.0705
96.88660, 452.2938
97.36871, 453.1706
97.85082, 455.1660
98.33294, 457.0323
98.81506, 458.3358
99.29717, 457.9073
99.77929, 457.0722
100.2614, 456.1348
100.7435, 451.9930
101.2256, 442.3991
101.7078, 429.0622
102.1899, 415.6863
102.6720, 402.3569
103.1541, 389.9921
103.6362, 378.7169
104.1183, 368.4969
104.6005, 360.0781
105.0826, 354.6830
105.5647, 352.6452
106.0468, 350.5346
106.5289, 347.6244
107.0110, 344.3214
107.4931, 340.6571
107.9753, 336.6362
108.4574, 332.6131
108.9395, 329.2681
109.4216, 326.7422
109.9037, 324.7669
110.3858, 322.7404
110.8680, 321.3279
111.3501, 321.5346
111.8322, 323.9859
112.3143, 328.1608
112.7964, 330.7592
113.2785, 330.4017
113.7607, 330.0938
114.2428, 330.1687
114.7249, 330.8276
115.2070, 332.5313
115.6891, 335.8264
116.1712, 340.6972
116.6534, 344.7153
117.1355, 347.4073
117.6176, 349.6494
118.0997, 351.9549
118.5818, 354.3566
119.0639, 357.0474
119.5461, 360.4119
120.0282, 364.2532
120.5103, 368.0099
120.9924, 371.5200
121.4745, 374.8235
121.9566, 378.0132
122.4388, 380.9911
122.9209, 383.9954
123.4030, 387.5071
123.8851, 391.2866
124.3672, 394.5307
124.8493, 395.9838
125.3315, 395.4161
125.8136, 396.4513
126.2957, 400.0943
126.7778, 404.9379
127.2599, 410.9591
127.7420, 417.9080
128.2242, 425.1759
128.7063, 431.8610
129.1884, 437.5884
129.6705, 443.5263
130.1526, 449.2150
130.6347, 455.3560
131.1169, 462.6153
131.5990, 471.1762
132.0811, 480.5180
132.5632, 489.4780
133.0453, 496.7353
133.5274, 505.3334
134.0096, 515.8111
134.4917, 527.6507
134.9738, 540.2302
135.4559, 553.4066
135.9380, 566.9442
136.4201, 579.8387
136.9023, 591.7969
137.3844, 603.6926
137.8665, 615.9968
138.3486, 628.5751
138.8307, 640.8783
139.3128, 652.5205
139.7950, 663.5588
140.2771, 674.0154
140.7592, 682.9973
141.2413, 692.3575
141.7234, 703.8339
142.2055, 717.4232
142.6877, 732.9571
143.1698, 752.0455
143.6519, 772.5035
144.1340, 792.0577
144.6161, 810.0331
145.0982, 826.4337
145.5803, 842.0513
146.0625, 860.1449
146.5446, 871.2753
147.0267, 872.6572
147.5088, 866.1544
147.9909, 854.2946
148.4730, 837.9915
148.9552, 817.4301
149.4373, 797.2750
149.9194, 775.9076
150.4015, 756.3574
150.8836, 738.9504
151.3657, 724.0333
151.8479, 711.9638
152.3300, 703.3505
152.8121, 698.5958
153.2942, 694.6696
153.7763, 691.4044
154.2584, 688.8492
154.7406, 687.1984
155.2227, 686.3751
155.7048, 685.9403
156.1869, 685.3643
156.6690, 684.4387
157.1511, 684.4347
157.6333, 686.5247
158.1154, 688.8655
158.5975, 689.3294
159.0796, 687.4058
159.5617, 685.2648
160.0438, 686.0383
160.5260, 689.7817
161.0081, 693.6749
161.4902, 696.4906
161.9723, 699.1347
162.4544, 703.1544
162.9365, 708.7453
163.4187, 716.1816
163.9008, 726.2382
164.3829, 738.7371
164.8650, 751.0134
165.3471, 761.5446
165.8292, 770.5105
166.3113, 778.9328
166.7935, 787.0361
167.2756, 794.5394
167.7577, 801.8078
168.2398, 808.7857
168.7219, 814.1359
169.2040, 816.3926
169.6862, 815.3051
170.1683, 812.7881
170.6504, 809.4137
171.1325, 804.4335
171.6146, 797.2120
172.0967, 787.6550
172.5789, 776.1697
173.0610, 763.2043
173.5431, 748.3600
174.0252, 732.7805
174.5073, 715.0182
174.9894, 697.4898
175.4716, 682.1163
175.9537, 669.5164
176.4358, 658.5646
176.9179, 647.0289
177.4000, 633.9068
177.8821, 621.5959
178.3643, 610.1478
178.8464, 599.5170
179.3285, 589.8020
179.8106, 581.0046
180.2927, 572.9844
180.7748, 565.4603
181.2570, 558.2284
181.7391, 551.7319
182.2212, 546.2098
182.7033, 541.4347
183.1854, 537.2435
183.6675, 533.6498
184.1497, 530.3807
184.6318, 526.4459
185.1139, 520.8224
185.5960, 516.1718
186.0781, 513.6769
186.5602, 512.9296
187.0423, 512.8530
187.5245, 513.1290
188.0066, 513.6310
188.4887, 514.0884
188.9708, 514.6946
189.4529, 514.9385
189.9350, 514.2034
190.4172, 512.5955
190.8993, 511.2970
191.3814, 511.1846
191.8635, 511.4913
192.3456, 511.1874
192.8277, 510.2016
193.3099, 508.5309
193.7920, 505.9843
194.2741, 502.4523
194.7562, 498.8265
195.2383, 495.6571
195.7204, 492.4767
196.2026, 488.9954
196.6847, 485.2130
197.1668, 480.8224
197.6489, 475.0812
198.1310, 467.3626
198.6131, 460.0982
199.0953, 454.0972
199.5774, 448.7378
200.0595, 443.6216
200.5416, 438.5828
201.0237, 433.6364
201.5058, 428.6949
201.9880, 422.9341
202.4701, 418.8078
202.9522, 417.1118
203.4343, 416.8189
203.9164, 417.0512
204.3985, 417.4178
204.8807, 417.9118
205.3628, 418.5464
205.8449, 419.8470
206.3270, 420.5445
206.8091, 419.2347
207.2912, 417.6972
207.7733, 418.3006
208.2555, 422.2869
208.7376, 428.4832
209.2197, 432.5213
209.7018, 432.2835
210.1839, 432.1278
210.6660, 432.7511
211.1482, 433.6518
211.6303, 433.9060
212.1124, 432.9615
212.5945, 431.3400
213.0766, 431.2364
213.5587, 433.7685
214.0409, 436.3416
214.5230, 438.2087
215.0051, 439.7926
215.4872, 442.1027
215.9693, 445.8518
216.4514, 450.3425
216.9336, 452.7376
217.4157, 451.4984
217.8978, 450.6824
218.3799, 452.1803
218.8620, 455.1636
219.3441, 457.4670
219.8263, 457.8264
220.3084, 457.0858
220.7905, 457.6319
221.2726, 460.2404
221.7547, 462.6473
222.2368, 463.6620
222.7190, 463.5107
223.2011, 463.0506
223.6832, 462.4526
224.1653, 461.9227
224.6474, 461.9424
225.1295, 462.9404
225.6117, 463.4781
226.0938, 462.4121
226.5759, 459.8910
227.0580, 457.1576
227.5401, 454.5956
228.0222, 452.0766
228.5043, 449.3864
228.9865, 446.4790
229.4686, 443.6037
229.9507, 441.1054
230.4328, 438.9850
230.9149, 436.6327
231.3970, 433.7343
231.8792, 430.6236
232.3613, 427.5215
232.8434, 424.4529
233.3255, 421.4994
233.8076, 418.8216
234.2897, 416.4568
234.7719, 413.9441
235.2540, 410.8490
235.7361, 407.7885
236.2182, 405.4445
236.7003, 403.8526
237.1824, 401.9577
237.6646, 398.0083
238.1467, 391.2762
238.6288, 386.5014
239.1109, 386.4361
239.5930, 387.0598
240.0751, 386.4945
240.5573, 384.4445
241.0394, 381.5170
241.5215, 377.9185
242.0036, 372.9606
242.4857, 370.1446
242.9678, 372.0233
243.4500, 374.1861
243.9321, 374.2894
244.4142, 372.2312
244.8963, 369.5564
245.3784, 367.9864
245.8605, 367.7772
246.3427, 367.7845
246.8248, 368.3034
247.3069, 368.7834
247.7890, 368.7034
248.2711, 368.2057
248.7532, 367.9782
249.2354, 368.7455
249.7175, 370.6245
250.1996, 373.0907
250.6817, 377.0083
251.1638, 380.6754
251.6459, 382.9192
252.1281, 384.0028
252.6102, 385.1855
253.0923, 387.7562
253.5744, 391.9695
254.0565, 395.9548
254.5386, 398.9825
255.0208, 402.4741
255.5029, 407.3203
255.9850, 413.3055
256.4671, 419.4801
256.9492, 424.9521
257.4313, 429.5239
257.9135, 435.6830
258.3956, 444.4251
258.8777, 453.3927
259.3598, 461.3281
259.8419, 468.5703
260.3240, 476.4068
260.8062, 485.8557
261.2883, 496.9280
261.7704, 507.9911
262.2525, 518.9860
262.7346, 530.1441
263.2167, 541.3550
263.6989, 552.7860
264.1810, 564.7020
264.6631, 577.3564
265.1452, 590.6889
265.6273, 604.2214
266.1094, 618.8971
266.5916, 632.7044
267.0737, 645.5372
267.5558, 656.9382
268.0379, 665.9540
268.5200, 671.9987
269.0021, 675.2856
269.4843, 676.6271
269.9664, 675.1605
270.4485, 673.2870
270.9306, 672.6676
271.4127, 672.1751
271.8948, 669.1871
272.3770, 662.2413
272.8591, 652.6804
273.3412, 643.7428
273.8233, 635.8488
274.3054, 627.6082
274.7875, 618.6097
275.2697, 608.9979
275.7518, 598.9853
276.2339, 588.5645
276.7160, 577.9694
277.1981, 567.8221
277.6802, 558.2715
278.1623, 548.3052
278.6444, 537.5461
279.1266, 526.1600
279.6087, 514.0580
280.0908, 500.8832
280.5729, 488.2555
281.0550, 478.9167
281.5371, 472.7413
282.0193, 466.6503
282.5014, 459.8595
282.9835, 452.7015
283.4656, 445.4650
283.9477, 438.1115
284.4298, 431.1991
284.9120, 425.4656
285.3941, 420.7814
285.8762, 416.8026
286.3583, 414.2091
286.8404, 411.9401
287.3225, 408.9418
287.8047, 405.1625
288.2868, 400.1515
288.7689, 392.7534
289.2510, 383.6729
289.7331, 375.2607
290.2152, 368.0535
290.6974, 361.6336
291.1795, 355.6286
291.6616, 350.0272
292.1437, 345.0309
292.6258, 341.0179
293.1079, 337.6459
293.5901, 334.0080
294.0722, 329.6822
294.5543, 325.4428
295.0364, 321.8383
295.5185, 318.8550
296.0006, 316.5157
296.4828, 314.9265
296.9649, 314.0062
297.4470, 313.5166
297.9291, 313.5934
298.4112, 313.7658
298.8933, 313.8103
299.3755, 313.7070
299.8576, 313.2220
300.3397, 311.8201
300.8218, 310.5261
301.3039, 310.7968
301.7860, 312.8288
302.2682, 314.8854
302.7503, 315.7901
303.2324, 315.9120
303.7145, 316.5387
304.1966, 317.9652
304.6787, 319.9720
305.1609, 322.6386
305.6430, 325.8698
306.1251, 328.5421
306.6072, 329.6001
307.0893, 329.8304
307.5714, 330.9088
308.0536, 333.0654
308.5357, 335.9417
309.0178, 339.0897
309.4999, 342.6397
309.9820, 347.2467
310.4641, 353.8135
310.9463, 361.2722
311.4284, 367.8875
311.9105, 373.4266
312.3926, 379.0954
312.8747, 386.0001
313.3568, 393.4876
313.8390, 400.3162
314.3211, 405.8384
314.8032, 411.0457
315.2853, 416.8878
315.7674, 423.3561
316.2495, 430.3725
316.7317, 438.1378
317.2138, 446.3908
317.6959, 454.6618
318.1780, 462.9267
318.6601, 471.1888
319.1422, 478.7669
319.6243, 486.0082
320.1064, 495.2585
320.5886, 507.9089
321.0707, 522.2468
321.5528, 535.7653
322.0349, 548.3536
322.5170, 562.0828
322.9991, 578.2594
323.4813, 596.4084
323.9634, 615.7455
324.4455, 636.5731
324.9276, 657.3733
325.4097, 676.4476
325.8918, 694.0950
326.3740, 710.8428
326.8561, 726.0976
327.3382, 740.8766
327.8203, 757.2279
328.3024, 775.6458
328.7845, 794.0056
329.2667, 809.9938
329.7488, 824.6906
330.2309, 840.9350
330.7130, 859.4802
331.1951, 879.5760
331.6772, 899.7953
332.1594, 920.1813
332.6415, 943.7191
333.1236, 972.9250
333.6057, 1006.326
334.0878, 1040.014
334.5699, 1073.154
335.0521, 1107.530
335.5342, 1144.055
336.0163, 1182.649
336.4984, 1224.755
336.9805, 1272.500
337.4626, 1321.351
337.9448, 1364.489
338.4269, 1402.601
338.9090, 1435.891
339.3911, 1466.243
339.8732, 1491.644
340.3553, 1508.750
340.8375, 1517.441
341.3196, 1515.694
341.8017, 1499.320
342.2838, 1469.512
342.7659, 1430.500
343.2480, 1380.434
343.7302, 1322.953
344.2123, 1260.457
344.6944, 1193.485
345.1765, 1125.390
345.6586, 1057.074
346.1407, 989.9699
346.6229, 928.9387
347.1050, 876.3547
347.5871, 828.3308
348.0692, 781.7380
348.5513, 737.7037
349.0334, 699.5448
349.5156, 669.7355
349.9977, 646.6815
350.4798, 626.4701
350.9619, 609.1682
351.4440, 593.8409
351.9261, 580.4435
352.4083, 568.9268
352.8904, 559.2299
353.3725, 551.4099
353.8546, 545.1826
354.3367, 540.3142
354.8188, 537.0436
355.3010, 534.1978
355.7831, 531.2952
356.2652, 529.0165
356.7473, 528.1583
357.2294, 528.7413
357.7115, 529.8910
358.1937, 530.8237
358.6758, 531.5314
359.1579, 532.9565
359.6400, 535.4028
360.1221, 538.1865
360.6042, 541.3519
361.0863, 544.6172
361.5685, 547.2366
362.0506, 548.7394
362.5327, 549.4060
363.0148, 550.3828
363.4969, 551.3024
363.9790, 552.9569
364.4612, 556.3346
364.9433, 560.1869
365.4254, 562.8348
365.9075, 563.7545
366.3896, 563.8107
366.8717, 564.2588
367.3539, 564.5651
367.8360, 566.7568
368.3181, 571.9641
368.8002, 578.0246
369.2823, 583.3176
369.7644, 587.8749
370.2466, 592.9867
370.7287, 599.9771
371.2108, 608.9958
371.6929, 617.2681
372.1750, 624.2534
372.6571, 631.1494
373.1393, 638.6462
373.6214, 646.2755
374.1035, 653.4439
374.5856, 659.8300
375.0677, 665.2797
375.5498, 669.3165
376.0320, 671.5068
376.5141, 672.7314
376.9962, 673.2076
377.4783, 672.7815
377.9604, 671.4269
378.4425, 669.0870
378.9247, 665.5384
379.4068, 660.3356
379.8889, 653.1173
380.3710, 645.4810
380.8531, 636.5369
381.3352, 627.9674
381.8174, 620.5101
382.2995, 614.0900
382.7816, 608.2117
383.2637, 602.4222
383.7458, 596.8676
384.2279, 592.5705
384.7101, 589.1281
385.1922, 587.8085
385.6743, 590.4558
386.1564, 594.5470
386.6385, 597.0767
387.1206, 596.8054
387.6028, 594.8427
388.0849, 592.6879
388.5670, 590.2303
389.0491, 588.1517
389.5312, 587.4242
390.0133, 586.5263
390.4955, 584.2440
390.9776, 580.5671
391.4597, 576.7141
391.9418, 573.4848
392.4239, 570.8411
392.9060, 568.7852
393.3882, 567.8126
393.8703, 566.5363
394.3524, 563.2318
394.8345, 558.9836
395.3166, 556.2694
395.7987, 557.0564
396.2809, 559.0052
396.7630, 558.4307
397.2451, 555.1021
397.7272, 552.8557
398.2093, 554.3203
398.6914, 557.3399
399.1736, 558.5149
399.6557, 557.4722
400.1378, 555.4725
400.6199, 552.8563
401.1020, 549.8470
401.5841, 547.1456
402.0662, 545.0455
402.5483, 542.8826
403.0305, 539.5256
403.5126, 535.0642
403.9947, 531.5375
404.4768, 530.4952
404.9589, 529.7507
405.4410, 527.1812
405.9232, 522.7892
406.4053, 517.7369
406.8874, 512.5112
407.3695, 507.3377
407.8516, 503.1400
408.3337, 501.2511
408.8159, 498.6756
409.2980, 493.8806
409.7801, 487.9333
410.2622, 482.6215
410.7443, 478.5253
411.2264, 474.9220
411.7086, 470.6690
412.1907, 465.6889
412.6728, 460.1130
413.1549, 453.5674
413.6370, 446.7406
414.1191, 440.0780
414.6013, 433.5814
415.0834, 426.9442
415.5655, 419.8481
416.0476, 412.3448
416.5297, 405.8220
417.0118, 402.3481
417.4940, 397.5162
417.9761, 388.7196
418.4582, 378.8240
418.9403, 371.9729
419.4224, 369.6233
419.9045, 369.0441
420.3867, 365.0287
420.8688, 355.3992
421.3509, 348.2343
421.8330, 345.8232
422.3151, 344.1789
422.7972, 341.2362
423.2794, 337.0996
423.7615, 333.0229
424.2436, 329.9854
424.7257, 327.8647
425.2078, 325.8755
425.6899, 324.3789
426.1721, 322.3535
426.6542, 319.0421
427.1363, 315.2144
427.6184, 311.7621
428.1005, 308.9787
428.5826, 306.5455
429.0648, 303.8423
429.5469, 300.8322
430.0290, 299.1039
430.5111, 299.9764
430.9932, 301.1809
431.4753, 300.6715
431.9575, 298.6115
432.4396, 296.3482
432.9217, 294.4325
433.4038, 292.7585
433.8859, 291.1075
434.3680, 289.4596
434.8502, 287.9747
435.3323, 286.5629
435.8144, 285.4781
436.2965, 285.3546
436.7786, 287.1491
437.2607, 288.4906
437.7429, 287.6291
438.2250, 285.3895
438.7071, 283.5752
439.1892, 282.7028
439.6713, 282.5985
440.1534, 283.2286
440.6356, 284.8977
441.1177, 285.8611
441.5998, 285.5368
442.0819, 284.8644
442.5640, 284.2164
443.0461, 283.7777
443.5282, 284.0644
444.0103, 285.5708
444.4925, 287.9302
444.9746, 289.0464
445.4567, 286.7586
445.9388, 285.9058
446.4209, 287.7125
446.9030, 290.8202
447.3852, 294.2305
447.8673, 297.5218
448.3494, 300.2846
448.8315, 301.7846
449.3136, 301.5550
449.7957, 302.4082
450.2779, 304.8024
450.7600, 307.8735
451.2421, 311.6419
451.7242, 315.8524
452.2063, 320.0578
452.6884, 323.9243
453.1706, 327.8099
453.6527, 332.6295
454.1348, 338.7078
454.6169, 344.6249
455.0990, 350.0143
455.5811, 355.1248
456.0633, 359.9691
456.5454, 364.5853
457.0275, 369.3776
457.5096, 374.5294
457.9917, 380.0871
458.4738, 386.3792
458.9560, 393.5999
459.4381, 401.1048
459.9202, 408.5824
460.4023, 416.0254
460.8844, 423.3705
461.3665, 430.0155
461.8487, 437.3719
462.3308, 447.4324
462.8129, 459.2577
463.2950, 469.0942
463.7771, 475.2054
464.2592, 480.5242
464.7414, 489.9334
465.2235, 504.2899
465.7056, 516.4575
466.1877, 523.6102
466.6698, 529.9446
467.1519, 539.2042
467.6341, 550.9900
468.1162, 562.3199
468.5983, 571.3029
469.0804, 578.3214
469.5625, 584.7645
470.0446, 591.5604
470.5268, 596.5529
471.0089, 599.0255
471.4910, 599.9255
471.9731, 599.7444
472.4552, 598.7780
472.9373, 597.6749
473.4195, 597.3812
473.9016, 598.1003
474.3837, 596.8480
474.8658, 591.3287
475.3479, 586.2941
475.8300, 583.6788
476.3122, 582.1816
476.7943, 579.9669
477.2764, 576.3105
477.7585, 571.4714
478.2406, 565.9921
478.7227, 560.0256
479.2049, 552.2125
479.6870, 541.8436
480.1691, 529.8588
480.6512, 516.7641
481.1333, 502.7583
481.6154, 488.5066
482.0976, 474.3441
482.5797, 460.1205
483.0618, 445.2138
483.5439, 429.5821
484.0260, 414.8431
484.5081, 401.7336
484.9902, 390.0350
485.4724, 379.0905
485.9545, 369.0193
486.4366, 359.2935
486.9187, 349.5708
487.4008, 340.1006
487.8829, 331.2060
488.3651, 322.9218
488.8472, 315.2724
489.3293, 308.4341
489.8114, 302.3597
490.2935, 296.0009
490.7756, 288.4095
491.2578, 281.7007
491.7399, 277.0869
492.2220, 273.4988
492.7041, 269.3008
493.1862, 264.0177
493.6683, 258.8236
494.1505, 255.6751
494.6326, 255.4147
495.1147, 253.8938
495.5968, 249.2717
496.0789, 245.1882
496.5610, 243.4967
497.0432, 243.2682
497.5253, 242.5698
498.0074, 240.3657
498.4895, 237.3838
498.9716, 234.8351
499.4537, 232.6864
499.9359, 231.2232
500.4180, 231.2321
500.9001, 231.2864
501.3822, 230.1798
501.8643, 227.9688
502.3464, 225.5087
502.8286, 222.7364
503.3107, 220.1513
503.7928, 218.5957
504.2749, 218.0991
504.7570, 217.9637
505.2391, 218.0932
505.7213, 218.1438
506.2034, 217.1767
506.6855, 214.8228
507.1676, 212.4712
507.6497, 210.1175
508.1318, 208.1514
508.6140, 207.2587
509.0961, 207.4148
509.5782, 207.7505
510.0603, 207.5500
510.5424, 206.8271
511.0245, 205.8123
511.5067, 204.3186
511.9888, 202.7586
512.4709, 200.7368
512.9530, 198.9083
513.4351, 198.1231
513.9172, 198.5326
514.3994, 199.3715
514.8815, 199.7939
515.3636, 199.7897
515.8457, 199.5414
516.3278, 199.1218
516.8099, 198.3258
517.2921, 196.5557
517.7742, 194.5437
518.2563, 193.5141
518.7384, 194.0481
519.2205, 195.0435
519.7026, 195.3188
520.1848, 194.9542
520.6669, 194.5482
521.1490, 194.1633
521.6311, 193.8882
522.1132, 193.9208
522.5953, 194.1902
523.0775, 194.2999
523.5596, 193.9849
524.0417, 193.6651
524.5238, 193.4370
525.0059, 193.4343
525.4880, 194.2379
525.9702, 196.1920
526.4523, 198.3027
526.9344, 198.7731
527.4165, 196.5539
527.8986, 195.4218
528.3807, 196.2563
528.8629, 197.2661
529.3450, 197.3838
529.8271, 196.8770
530.3092, 196.5664
530.7913, 196.9270
531.2734, 197.6918
531.7556, 198.1823
532.2377, 198.2328
532.7198, 198.4763
533.2019, 198.8920
533.6840, 199.6234
534.1661, 201.1542
534.6483, 203.1974
535.1304, 204.6105
535.6125, 204.2284
536.0946, 203.1445
536.5767, 203.4588
537.0588, 205.2330
537.5410, 207.0988
538.0231, 208.5162
538.5052, 209.7528
538.9873, 211.3564
539.4694, 213.4630
539.9515, 214.9719
540.4337, 215.4511
540.9158, 215.2838
541.3979, 214.5474
541.8800, 213.4297
542.3621, 212.6662
542.8442, 212.7692
543.3264, 213.4437
543.8085, 213.6831
544.2906, 213.2419
544.7726, 212.6710
545.2548, 212.4545
545.7369, 211.7499
546.2190, 209.1832
546.7011, 205.3531
547.1832, 202.5727
547.6653, 202.8458
548.1475, 205.3350
548.6296, 206.6577
549.1117, 206.3647
549.5938, 206.0877
550.0759, 206.5540
550.5580, 207.0342
551.0402, 206.7326
551.5223, 205.6640
552.0044, 205.0396
552.4865, 205.9625
552.9686, 207.6374
553.4507, 208.7334
553.9329, 209.1940
554.4150, 209.1856
554.8971, 208.6402
555.3792, 207.8039
555.8613, 207.3313
556.3434, 207.3576
556.8256, 207.3275
557.3077, 206.7197
557.7898, 206.2954
558.2719, 206.6110
558.7540, 207.7717
559.2361, 209.9899
559.7183, 213.6177
560.2004, 218.0254
560.6825, 220.5282
561.1646, 219.5793
561.6467, 219.3035
562.1288, 220.4561
562.6110, 222.0492
563.0931, 223.1206
563.5752, 223.8494
564.0573, 225.4141
564.5394, 228.9014
565.0215, 233.6652
565.5037, 237.9383
565.9858, 241.5811
566.4679, 245.7935
566.9500, 251.2934
567.4321, 257.3736
567.9142, 262.8870
568.3964, 267.7364
568.8785, 273.3444
569.3606, 280.5233
569.8427, 288.4531
570.3248, 296.6851
570.8069, 304.9802
571.2891, 312.9347
571.7712, 320.3421
572.2533, 326.9684
572.7354, 332.1733
573.2175, 336.0954
573.6996, 338.1539
574.1818, 338.0731
574.6639, 336.5088
575.1460, 333.1512
575.6281, 328.6488
576.1102, 324.3339
576.5923, 320.9452
577.0745, 318.3292
577.5566, 316.0598
578.0387, 314.0145
578.5208, 312.9767
579.0029, 313.0096
579.4850, 314.2977
579.9672, 316.7207
580.4493, 320.3435
580.9314, 325.4444
581.4135, 332.7823
581.8956, 341.0947
582.3777, 349.3100
582.8599, 357.4825
583.3420, 365.6412
583.8241, 373.5835
584.3062, 382.5756
584.7883, 394.2462
585.2704, 408.8639
585.7526, 425.7507
586.2347, 446.1839
586.7168, 467.4357
587.1989, 487.9581
587.6810, 508.6443
588.1631, 531.4293
588.6453, 556.8817
589.1274, 583.0778
589.6095, 606.5530
590.0916, 626.7891
590.5737, 649.5207
591.0558, 675.1793
591.5380, 703.0614
592.0201, 732.2575
592.5022, 763.1971
592.9843, 796.4648
593.4664, 831.8617
593.9485, 870.1744
594.4307, 911.4000
594.9128, 955.6718
595.3949, 1003.220
595.8770, 1053.904
596.3591, 1109.652
596.8412, 1172.998
597.3234, 1243.073
597.8055, 1312.633
598.2876, 1382.311
598.7697, 1450.722
599.2518, 1520.745
599.7339, 1587.729
600.2161, 1650.240
600.6982, 1706.260
601.1803, 1750.953
601.6624, 1781.986
602.1445, 1797.680
602.6266, 1789.473
603.1088, 1755.753
603.5909, 1702.247
604.0730, 1622.020
604.5551, 1527.753
605.0372, 1425.165
605.5193, 1315.602
606.0015, 1207.716
606.4836, 1101.970
606.9657, 1001.712
607.4478, 910.9221
607.9299, 829.8034
608.4120, 758.5421
608.8942, 698.0391
609.3763, 645.9655
609.8584, 598.7416
610.3405, 557.0585
610.8226, 519.2628
611.3047, 485.2237
611.7869, 455.0389
612.2690, 429.1244
612.7511, 406.9863
613.2332, 388.2668
613.7153, 372.7372
614.1974, 359.3360
614.6796, 346.7879
615.1617, 335.0524
615.6438, 323.4474
616.1259, 311.2198
616.6080, 300.3379
617.0901, 292.4282
617.5723, 286.1716
618.0544, 279.8199
618.5365, 273.0354
619.0186, 266.3771
619.5007, 259.7244
619.9828, 253.5812
620.4650, 249.0446
620.9471, 246.1082
621.4292, 243.3640
621.9113, 239.8998
622.3934, 235.8578
622.8755, 231.8184
623.3577, 226.7984
623.8398, 223.2756
624.3219, 222.5573
624.8040, 222.2386
625.2861, 220.6730
625.7682, 218.0946
626.2504, 215.6096
626.7325, 213.8354
627.2145, 212.5929
627.6967, 211.7303
628.1788, 211.2767
628.6609, 210.4301
629.1430, 208.8502
629.6251, 207.1223
630.1072, 205.6384
630.5894, 204.4082
631.0715, 203.5538
631.5536, 203.2896
632.0357, 203.1834
632.5178, 203.1621
632.9999, 203.1035
633.4821, 202.6582
633.9642, 201.8189
634.4463, 201.1465
634.9284, 201.1425
635.4105, 201.8042
635.8926, 203.1839
636.3748, 206.4452
636.8569, 208.5233
637.3390, 207.7497
637.8211, 206.5586
638.3032, 207.0567
638.7853, 209.2440
639.2675, 211.5137
639.7496, 212.9323
640.2317, 213.7792
640.7138, 214.1842
641.1959, 214.2360
641.6780, 215.1217
642.1602, 217.3213
642.6423, 220.3327
643.1244, 223.6167
643.6065, 227.2243
644.0886, 230.7525
644.5707, 233.1044
645.0529, 236.5773
645.5350, 242.9235
646.0171, 250.6665
646.4992, 257.4045
646.9813, 262.6146
647.4634, 268.2849
647.9456, 276.6364
648.4277, 287.5059
648.9098, 298.9796
649.3919, 310.9582
649.8740, 323.6737
650.3561, 336.7636
650.8383, 350.9432
651.3204, 366.8452
651.8025, 384.4959
652.2846, 403.3943
652.7667, 424.3562
653.2488, 445.6393
653.7310, 464.4923
654.2131, 481.9526
654.6952, 501.6093
655.1773, 524.9799
655.6594, 550.8597
656.1415, 577.5268
656.6237, 604.7292
657.1058, 633.6298
657.5879, 664.4657
658.0700, 696.9232
658.5521, 730.4470
659.0342, 765.8704
659.5164, 804.2552
659.9985, 845.9233
660.4806, 889.3543
660.9627, 933.9848
661.4448, 979.2599
661.9269, 1024.887
662.4091, 1070.762
662.8912, 1115.370
663.3733, 1158.805
663.8554, 1199.724
664.3375, 1235.602
664.8196, 1267.244
665.3018, 1290.656
665.7839, 1308.559
666.2660, 1315.544
666.7481, 1308.190
667.2302, 1288.080
667.7123, 1257.761
668.1945, 1218.050
668.6766, 1169.833
669.1587, 1112.165
669.6408, 1045.567
670.1229, 976.9953
670.6050, 905.1671
671.0872, 836.5976
671.5693, 774.8845
672.0514, 719.0750
672.5335, 667.4132
673.0156, 620.0084
673.4977, 576.7537
673.9799, 538.6146
674.4620, 504.3237
674.9441, 472.8832
675.4262, 444.2552
675.9083, 418.5560
676.3904, 395.7259
676.8726, 375.5853
677.3547, 357.9990
677.8368, 343.2247
678.3189, 329.3507
678.8010, 316.3654
679.2831, 304.2394
679.7653, 293.2120
680.2474, 282.8665
680.7295, 272.6006
681.2116, 262.2627
681.6937, 252.7616
682.1758, 245.2032
682.6580, 238.4096
683.1401, 230.2851
683.6222, 221.2416
684.1043, 213.7493
684.5864, 209.0349
685.0685, 205.8807
685.5507, 202.1644
686.0328, 197.6317
686.5149, 193.5934
686.9970, 190.6042
687.4791, 187.5155
687.9612, 183.4010
688.4434, 179.2869
688.9255, 176.6838
689.4076, 175.9086
689.8897, 175.2129
690.3718, 172.9466
690.8539, 169.9445
691.3361, 168.0500
691.8182, 167.2334
692.3003, 165.9500
692.7824, 163.3517
693.2645, 160.4291
693.7466, 158.7970
694.2288, 158.8445
694.7109, 158.6139
695.1930, 158.5276
695.6751, 157.7117
696.1572, 155.0718
696.6393, 151.9018
697.1215, 149.9475
697.6036, 149.5398
698.0857, 149.4521
698.5678, 148.4742
699.0499, 146.9947
699.5320, 146.2145
700.0142, 146.1684
700.4963, 146.0964
700.9784, 145.6266
701.4605, 145.1844
701.9426, 145.4998
702.4247, 146.7500
702.9069, 147.2670
703.3890, 146.4755
703.8711, 145.5878
704.3532, 145.0238
704.8353, 144.6508
705.3174, 144.3110
705.7996, 143.9558
706.2817, 143.5558
706.7638, 143.0619
707.2459, 142.5236
707.7280, 142.1030
708.2101, 141.8119
708.6923, 141.5644
709.1743, 141.4285
709.6564, 141.1817
710.1385, 140.4019
710.6207, 139.1635
711.1028, 138.4507
711.5849, 138.8291
712.0670, 139.1424
712.5491, 138.8704
713.0313, 138.3481
713.5134, 137.8837
713.9955, 137.5689
714.4776, 137.5162
714.9597, 137.9123
715.4418, 138.4330
715.9240, 138.0153
716.4061, 136.4930
716.8882, 135.5230
717.3703, 135.5637
717.8524, 136.0112
718.3345, 136.7798
718.8167, 137.5907
719.2988, 137.4077
719.7809, 135.6015
720.2630, 133.6292
720.7451, 131.2557
721.2272, 129.4494
721.7094, 129.5440
722.1915, 131.2334
722.6736, 133.1722
723.1557, 134.6404
723.6378, 135.3906
724.1199, 134.5053
724.6021, 131.7524
725.0842, 130.3524
725.5663, 131.2314
726.0484, 132.2332
726.5305, 131.9726
727.0126, 130.9543
727.4948, 130.1994
727.9769, 129.8204
728.4590, 129.4837
728.9411, 129.4365
729.4232, 129.1045
729.9053, 127.1375
730.3875, 124.5553
730.8696, 124.2013
731.3517, 127.2400
731.8338, 131.2022
732.3159, 132.4868
732.7980, 131.0955
733.2802, 130.2430
733.7623, 130.2304
734.2444, 129.8634
734.7265, 128.0855
735.2086, 126.0964
735.6907, 125.8168
736.1729, 127.4125
736.6550, 128.3346
737.1371, 127.3842
737.6192, 126.3217
738.1013, 126.3142
738.5834, 126.8602
739.0656, 127.1332
739.5477, 126.9204
740.0298, 126.4506
740.5119, 125.8599
740.9940, 125.2374
741.4761, 125.1309
741.9583, 125.7474
742.4404, 125.5408
742.9225, 123.3332
743.4046, 121.2537
743.8867, 122.0603
744.3688, 125.1082
744.8510, 126.6596
745.3331, 124.7285
745.8152, 123.3784
746.2973, 124.8303
746.7794, 126.9016
747.2615, 127.1450
747.7437, 125.7131
748.2258, 124.3794
748.7079, 124.2212
749.1900, 124.7671
749.6721, 125.3995
750.1542, 126.1055
750.6364, 125.8887
751.1185, 124.2755
751.6006, 122.9015
752.0827, 122.9162
752.5648, 123.8484
753.0469, 124.4321
753.5291, 124.6833
754.0112, 124.5928
754.4933, 123.8439
754.9754, 123.0582
755.4575, 122.5837
755.9396, 122.3596
756.4218, 122.1645
756.9039, 121.9400
757.3860, 121.9710
757.8681, 122.7066
758.3502, 123.9400
758.8323, 125.0600
759.3145, 126.0815
759.7966, 126.4396
760.2787, 125.7660
760.7608, 124.6908
761.2429, 123.9634
761.7250, 123.5990
762.2072, 123.4377
762.6893, 123.3617
763.1714, 123.6232
763.6535, 124.8456
764.1356, 126.0255
764.6177, 126.1038
765.0999, 125.1902
765.5820, 124.2414
766.0641, 123.7382
766.5462, 123.5638
767.0283, 123.5777
767.5104, 123.7905
767.9926, 124.3233
768.4747, 125.2045
768.9568, 126.0402
769.4389, 126.5545
769.9210, 126.8065
770.4031, 126.9367
770.8853, 126.5088
771.3674, 126.8283
771.8495, 129.1121
772.3316, 130.8031
772.8137, 130.4639
773.2958, 128.9666
773.7780, 127.5444
774.2601, 126.4644
774.7422, 125.8175
775.2243, 125.7343
775.7064, 126.0766
776.1885, 126.9701
776.6707, 128.1602
777.1528, 128.6931
777.6349, 128.2398
778.1170, 127.6246
778.5991, 127.9348
779.0812, 129.0865
779.5634, 129.2563
780.0455, 127.9507
780.5276, 126.7604
781.0097, 125.9603
781.4918, 125.4928
781.9739, 125.3952
782.4561, 125.6024
782.9382, 125.8736
783.4203, 126.3291
783.9024, 126.5770
784.3845, 126.2216
784.8666, 125.6905
785.3488, 125.5376
785.8309, 125.7144
786.3130, 125.8009
786.7951, 125.5659
787.2772, 125.1435
787.7593, 124.6313
788.2415, 124.0454
788.7236, 124.0104
789.2057, 124.6294
789.6878, 125.5940
790.1699, 127.1388
790.6520, 128.5963
791.1342, 128.5834
791.6162, 126.7558
792.0983, 125.6515
792.5804, 125.9602
793.0626, 126.3671
793.5447, 126.4868
794.0268, 126.3461
794.5089, 125.9086
794.9910, 125.2416
795.4731, 124.5694
795.9553, 123.7501
796.4374, 123.4178
796.9195, 125.0898
797.4016, 128.2216
797.8837, 130.3134
798.3658, 130.8992
798.8480, 130.7367
799.3301, 130.2245
799.8122, 129.5923
800.2943, 129.6731
800.7764, 131.0997
801.2585, 131.8808
801.7407, 131.2105
802.2228, 130.7436
802.7049, 131.0303
803.1870, 131.9317
803.6691, 133.5767
804.1512, 136.0527
804.6334, 137.5613
805.1155, 136.4468
805.5976, 134.6217
806.0797, 133.5113
806.5618, 133.1718
807.0439, 133.7566
807.5261, 135.2112
808.0082, 136.8370
808.4903, 138.0389
808.9724, 138.8095
809.4545, 138.8391
809.9366, 137.8630
810.4188, 138.0964
810.9009, 140.5378
811.3830, 143.0545
811.8651, 143.9619
812.3472, 143.6861
812.8293, 143.8338
813.3115, 144.7386
813.7936, 145.3480
814.2757, 145.3233
814.7578, 145.1506
815.2399, 145.0080
815.7220, 144.9673
816.2042, 144.8853
816.6863, 144.7816
817.1684, 145.4835
817.6505, 148.3716
818.1326, 152.2151
818.6147, 154.9286
819.0969, 156.5298
819.5790, 156.8407
820.0611, 155.7324
820.5432, 155.0179
821.0253, 156.5903
821.5074, 160.0342
821.9896, 162.5493
822.4717, 163.7757
822.9538, 164.9315
823.4359, 166.1026
823.9180, 167.2671
824.4001, 168.3537
824.8823, 169.4348
825.3644, 170.7683
825.8465, 172.6104
826.3286, 173.7987
826.8107, 172.7968
827.2928, 171.9629
827.7750, 173.6080
828.2571, 176.7990
828.7392, 179.5054
829.2213, 181.1828
829.7034, 182.7980
830.1855, 185.4265
830.6677, 188.5752
831.1498, 190.7432
831.6319, 191.9478
832.1140, 193.0172
832.5961, 193.9174
833.0782, 195.7095
833.5604, 199.3829
834.0425, 204.5930
834.5246, 210.0294
835.0067, 216.2472
835.4888, 221.6601
835.9709, 225.4387
836.4531, 229.3311
836.9352, 233.6050
837.4173, 238.7276
837.8994, 245.6213
838.3815, 254.4765
838.8636, 263.3648
839.3458, 270.5938
839.8279, 278.1320
840.3100, 287.8763
840.7921, 299.2654
841.2742, 310.9504
841.7563, 322.7375
842.2385, 335.7291
842.7206, 350.6818
843.2027, 367.3798
843.6848, 385.5635
844.1669, 405.1654
844.6490, 424.3595
845.1312, 442.1474
845.6133, 461.9845
846.0954, 486.1650
846.5775, 513.3421
847.0596, 540.5812
847.5417, 567.4694
848.0239, 595.4923
848.5060, 625.3658
848.9881, 655.5481
849.4702, 684.6541
849.9523, 714.5562
850.4344, 747.3292
850.9166, 783.0315
851.3987, 820.1969
851.8808, 858.1478
852.3629, 897.6458
852.8450, 939.3297
853.3271, 983.2615
853.8093, 1029.790
854.2914, 1078.553
854.7735, 1129.485
855.2556, 1182.131
855.7377, 1236.229
856.2198, 1291.941
856.7020, 1349.147
857.1841, 1401.915
857.6662, 1449.532
858.1483, 1495.141
858.6304, 1539.756
859.1125, 1582.613
859.5947, 1622.850
860.0768, 1660.378
860.5589, 1697.091
861.0410, 1728.966
861.5231, 1765.679
862.0052, 1807.008
862.4874, 1854.910
862.9695, 1912.736
863.4516, 1977.898
863.9337, 2044.780
864.4158, 2112.660
864.8979, 2180.085
865.3801, 2248.534
865.8622, 2314.051
866.3443, 2372.038
866.8264, 2423.360
867.3085, 2469.573
867.7906, 2511.097
868.2728, 2546.440
868.7549, 2571.578
869.2370, 2592.363
869.7191, 2624.285
870.2012, 2667.342
870.6833, 2724.366
871.1655, 2796.960
871.6476, 2879.789
872.1297, 2971.289
872.6118, 3067.407
873.0939, 3159.029
873.5760, 3252.039
874.0581, 3322.914
874.5402, 3381.063
875.0223, 3403.908
875.5045, 3385.785
875.9866, 3328.764
876.4687, 3231.384
876.9508, 3095.699
877.4329, 2932.362
877.9150, 2732.968
878.3972, 2523.361
878.8793, 2306.738
879.3614, 2094.287
879.8435, 1895.703
880.3256, 1713.125
880.8077, 1546.193
881.2899, 1394.654
881.7720, 1259.011
882.2541, 1140.821
882.7362, 1038.291
883.2183, 947.8407
883.7004, 869.1262
884.1826, 800.6444
884.6647, 742.3766
885.1468, 692.1236
885.6289, 648.4723
886.1110, 610.7865
886.5931, 576.1989
887.0753, 544.7159
887.5574, 516.2280
888.0395, 490.6474
888.5216, 468.0620
889.0037, 449.0719
889.4858, 432.7237
889.9680, 417.4928
890.4501, 403.4453
890.9322, 389.9408
891.4143, 375.8744
891.8964, 363.4700
892.3785, 354.4006
892.8607, 346.9742
893.3428, 339.3727
893.8249, 331.6317
894.3070, 325.1307
894.7891, 320.7487
895.2712, 317.0336
895.7534, 312.3697
896.2355, 307.7234
896.7176, 304.9170
897.1997, 303.6704
897.6818, 302.4838
898.1639, 300.7807
898.6461, 298.8323
899.1282, 296.7175
899.6103, 294.7345
900.0924, 294.2410
900.5745, 295.2841
901.0566, 297.1863
901.5388, 300.3027
902.0209, 302.2740
902.5030, 301.2963
902.9851, 298.0239
903.4672, 294.2426
903.9493, 289.7408
904.4315, 285.2830
904.9136, 281.3100
905.3957, 276.7880
905.8778, 271.6233
906.3599, 265.6535
906.8420, 257.9745
907.3242, 249.0066
907.8063, 241.8708
908.2884, 238.7126
908.7705, 235.6233
909.2526, 230.8121
909.7347, 225.7674
910.2169, 221.6091
910.6990, 218.3352
911.1811, 215.5544
911.6632, 213.1490
912.1453, 211.3624
912.6274, 211.1109
913.1096, 211.1196
913.5917, 208.4982
914.0738, 204.6018
914.5559, 203.8358
915.0380, 206.8127
915.5201, 210.0196
916.0023, 210.8984
916.4844, 210.6275
916.9665, 211.8039
917.4486, 214.4179
917.9307, 217.1371
918.4128, 220.0638
918.8950, 221.9961
919.3771, 221.9246
919.8592, 221.9229
920.3413, 224.9273
920.8234, 230.8449
921.3055, 234.4827
921.7877, 233.3204
922.2698, 234.3428
922.7519, 239.9118
923.2340, 246.1800
923.7161, 251.7354
924.1982, 256.4308
924.6804, 259.8619
925.1625, 261.7610
925.6446, 263.8845
926.1267, 267.2873
926.6088, 270.2744
927.0909, 272.2591
927.5731, 273.1878
928.0552, 273.2442
928.5373, 272.2456
929.0194, 269.4015
929.5015, 264.0084
929.9836, 257.9845
930.4658, 252.9166
930.9479, 248.1982
931.4300, 243.5219
931.9121, 238.3411
932.3942, 230.6192
932.8763, 220.0974
933.3585, 210.3132
933.8406, 204.7941
934.3227, 202.0425
934.8048, 198.3571
935.2869, 193.9221
935.7690, 190.5692
936.2512, 188.6223
936.7333, 186.2995
937.2154, 182.4918
937.6975, 178.3283
938.1796, 175.8568
938.6617, 172.7590
939.1439, 169.8694
939.6260, 168.7938
940.1081, 165.8898
940.5902, 165.8938
941.0723, 166.7812
941.5544, 167.0661
942.0366, 166.9675
942.5187, 167.2718
943.0008, 168.2192
943.4829, 168.9715
943.9650, 169.1158
944.4471, 169.5193
944.9293, 170.2614
945.4114, 171.5918
945.8935, 174.1614
946.3756, 177.6991
946.8577, 180.5005
947.3398, 181.3259
947.8220, 182.6303
948.3041, 185.4935
948.7862, 189.4083
949.2683, 194.4175
949.7504, 199.9568
950.2325, 205.0357
950.7147, 209.4440
951.1968, 213.9513
951.6789, 218.8949
952.1610, 224.5288
952.6431, 231.5365
953.1252, 239.4012
953.6074, 247.1675
954.0895, 254.6701
954.5716, 261.8373
955.0537, 268.6552
955.5358, 275.5759
956.0179, 283.1926
956.5000, 291.4566
956.9821, 300.1877
957.4642, 309.4225
957.9464, 319.0945
958.4285, 329.2930
958.9106, 339.1680
959.3927, 348.2111
959.8748, 356.0419
960.3569, 361.1406
960.8391, 366.2453
961.3212, 365.7148
961.8033, 370.8499
962.2854, 373.3390
962.7675, 371.1043
963.2496, 366.0846
963.7318, 359.9872
964.2139, 352.8345
964.6960, 344.6251
965.1781, 333.8204
965.6602, 324.5323
966.1423, 318.9207
966.6245, 312.3490
967.1066, 302.0568
967.5887, 290.2301
968.0708, 279.7227
968.5529, 270.6132
969.0350, 260.9461
969.5172, 249.5395
969.9993, 238.5459
970.4814, 228.1006
970.9635, 218.8716
971.4456, 211.9307
971.9277, 206.4641
972.4099, 200.7112
972.8920, 194.2951
973.3741, 189.2310
973.8562, 187.7699
974.3383, 186.9142
974.8204, 184.0001
975.3026, 180.3979
975.7847, 177.7690
976.2668, 176.3465
976.7489, 176.0447
977.2310, 176.8519
977.7131, 177.9106
978.1953, 177.8566
978.6774, 177.7847
979.1595, 179.7769
979.6416, 183.3673
980.1237, 187.0921
980.6058, 190.6625
981.0880, 194.3918
981.5701, 198.4672
982.0522, 202.8589
982.5343, 207.0818
983.0164, 211.4415
983.4985, 218.0890
983.9807, 226.9572
984.4628, 235.4981
984.9449, 242.8651
985.4270, 250.7663
985.9091, 260.7447
986.3912, 272.2072
986.8734, 283.4702
987.3555, 294.4638
987.8376, 305.9943
988.3197, 318.4486
988.8018, 330.1940
989.2839, 340.8438
989.7661, 350.1590
990.2482, 358.2700
990.7303, 364.8150
991.2124, 367.3391
991.6945, 365.7072
992.1766, 360.2222
992.6588, 349.3302
993.1409, 336.9215
993.6230, 324.7279
994.1051, 310.4616
994.5872, 296.8917
995.0693, 279.8190
995.5515, 263.2668
996.0336, 246.1206
996.5157, 231.0616
996.9978, 218.9390
997.4799, 208.4675
997.9620, 199.5693
998.4442, 191.5947
998.9263, 183.5168
999.4084, 175.2719
999.8905, 168.3388
1000.373, 164.4075
1000.855, 160.1254
1001.337, 153.0081
1001.819, 146.3276
1002.301, 143.1258
1002.783, 142.2538
1003.265, 141.6014
1003.747, 140.6500
1004.230, 138.4288
1004.712, 132.6563
1005.194, 127.5396
1005.676, 126.9595
1006.158, 127.7078
1006.640, 125.2515
1007.122, 120.7929
1007.604, 119.0411
1008.086, 121.6162
1008.569, 124.0466
1009.051, 122.4765
1009.533, 119.3793
1010.015, 116.8815
1010.497, 115.0514
1010.979, 114.0049
1011.461, 113.6894
1011.943, 114.0874
1012.426, 115.2002
1012.908, 116.0244
1013.390, 114.8140
1013.872, 115.7922
1014.354, 113.6030
1014.836, 115.7599
1015.318, 116.6813
1015.800, 116.0243
1016.282, 115.1160
1016.765, 114.7081
1017.247, 114.4050
1017.729, 113.3640
1018.211, 113.4261
1018.693, 112.0693
1019.175, 113.3290
1019.657, 114.3242
1020.139, 114.7179
1020.622, 114.2244
1021.104, 112.5418
1021.586, 110.5814
1022.068, 110.0117
1022.550, 110.7240
1023.032, 111.7920
1023.514, 113.2384
1023.996, 113.3259
1024.478, 111.4725
1024.961, 109.9239
1025.443, 110.3490
1025.925, 112.0024
1026.407, 113.3402
1026.889, 114.3676
1027.371, 115.0980
1027.853, 115.7943
1028.335, 114.1929
1028.818, 108.7989
1029.300, 104.2938
1029.782, 104.6830
1030.264, 108.0546
1030.746, 109.3255
1031.228, 108.0288
1031.710, 107.5642
1032.192, 108.3098
1032.674, 108.7207
1033.156, 108.1457
1033.639, 107.6138
1034.121, 108.0424
1034.603, 109.0733
1035.085, 109.6056
1035.567, 109.3180
1036.049, 109.8714
1036.531, 112.4516
1037.013, 113.4827
1037.496, 110.7097
1037.978, 107.7807
1038.460, 107.7689
1038.942, 109.8591
1039.424, 111.6632
1039.906, 113.5837
1040.388, 113.9226
1040.870, 110.9551
1041.353, 108.9031
1041.835, 109.4859
1042.317, 110.7057
1042.799, 110.9022
1043.281, 110.5173
1043.763, 110.9618
1044.245, 112.8330
1044.727, 113.7710
1045.209, 112.8520
1045.692, 112.0925
1046.174, 112.3462
1046.656, 112.6739
1047.138, 112.0712
1047.620, 110.9816
1048.102, 110.7056
1048.584, 111.5883
1049.066, 112.3586
1049.548, 112.7052
1050.031, 113.1085
1050.513, 113.9213
1050.995, 114.6736
1051.477, 114.5133
1051.959, 114.0737
1052.441, 115.3709
1052.923, 119.4253
1053.405, 121.3666
1053.888, 117.8849
1054.370, 115.0721
1054.852, 116.0406
1055.334, 117.8565
1055.816, 117.7893
1056.298, 116.6162
1056.780, 116.7536
1057.262, 118.9070
1057.745, 120.1164
1058.227, 118.1397
1058.709, 116.8786
1059.191, 118.9432
1059.673, 121.5048
1060.155, 121.9348
1060.637, 120.9812
1061.119, 120.6961
1061.601, 121.5340
1062.083, 122.1271
1062.566, 122.1927
1063.048, 121.6828
1063.530, 119.5401
1064.012, 117.7409
1064.494, 118.4292
1064.976, 120.6270
1065.458, 122.5130
1065.940, 123.7162
1066.423, 123.5003
1066.905, 119.6319
1067.387, 116.8170
1067.869, 117.9020
1068.351, 120.2987
1068.833, 122.3580
1069.315, 123.8474
1069.797, 124.8725
1070.280, 125.4221
1070.762, 125.0535
1071.244, 121.7361
1071.726, 119.9046
1072.208, 122.7334
1072.690, 126.7625
1073.172, 130.1144
1073.654, 132.2388
1074.136, 132.2070
1074.619, 130.1840
1075.101, 128.5870
1075.583, 128.2614
1076.065, 128.7526
1076.547, 130.5541
1077.029, 132.3747
1077.511, 133.0865
1077.993, 133.2208
1078.475, 133.5353
1078.958, 134.1872
1079.440, 135.2361
1079.922, 137.1262
1080.404, 138.4639
1080.886, 138.1709
1081.368, 137.5359
1081.850, 137.1147
1082.332, 137.1537
1082.814, 138.2055
1083.297, 140.0029
1083.779, 141.2700
1084.261, 141.4422
1084.743, 141.5345
1085.225, 141.9121
1085.707, 142.4677
1086.189, 143.4002
1086.671, 144.2776
1087.154, 144.5167
1087.636, 144.2547
1088.118, 143.9154
1088.600, 143.3940
1089.082, 144.0535
1089.564, 147.6775
1090.046, 151.1833
1090.528, 152.9253
1091.010, 153.6366
1091.493, 153.5253
1091.975, 153.1716
1092.457, 153.7571
1092.939, 155.6126
1093.421, 157.5437
1093.903, 159.2779
1094.385, 160.7728
1094.867, 161.8954
1095.349, 162.8543
1095.832, 163.7311
1096.314, 164.6090
1096.796, 165.3941
1097.278, 166.0999
1097.760, 167.8304
1098.242, 172.6575
1098.724, 176.1421
1099.206, 175.2539
1099.689, 174.2010
1100.171, 176.2297
1100.653, 179.7344
1101.135, 182.0755
1101.617, 183.1382
1102.099, 184.8744
1102.581, 188.6793
1103.063, 191.5602
1103.546, 192.1242
1104.028, 192.4110
1104.510, 193.2969
1104.992, 194.6037
1105.474, 196.3936
1105.956, 198.4135
1106.438, 199.4398
1106.920, 198.0825
1107.402, 198.7986
1107.885, 204.7327
1108.367, 209.6851
1108.849, 211.0797
1109.331, 210.8741
1109.813, 210.3405
1110.295, 209.6894
1110.777, 209.1623
1111.259, 208.5738
1111.741, 208.9666
1112.224, 211.6448
1112.706, 213.5811
1113.188, 213.7126
1113.670, 213.3834
1114.152, 213.4771
1114.634, 213.6692
1115.116, 213.3221
1115.598, 212.3856
1116.081, 211.5452
1116.563, 210.6732
1117.045, 210.1416
1117.527, 210.4324
1118.009, 210.4006
1118.491, 209.0556
1118.973, 207.5793
1119.455, 207.8102
1119.938, 206.4227
1120.420, 205.2226
1120.902, 205.3359
1121.384, 203.3765
1121.866, 203.7828
1122.348, 205.1022
1122.830, 207.2577
1123.312, 209.4519
1123.794, 211.0142
1124.276, 211.9883
1124.759, 212.5145
1125.241, 212.6073
1125.723, 212.0181
1126.205, 210.3480
1126.687, 209.5664
1127.169, 210.1916
1127.651, 211.7220
1128.133, 214.1916
1128.616, 216.4845
1129.098, 216.4030
1129.580, 214.1164
1130.062, 212.2509
1130.544, 210.7108
1131.026, 211.2436
1131.508, 214.3164
1131.990, 217.0816
1132.473, 218.1671
1132.955, 218.6739
1133.437, 219.9154
1133.919, 220.6946
1134.401, 221.6043
1134.883, 222.6391
1135.365, 223.3690
1135.847, 224.6679
1136.329, 225.3272
1136.812, 225.0002
1137.294, 225.2219
1137.776, 227.2669
1138.258, 230.2239
1138.740, 232.7771
1139.222, 234.8348
1139.704, 235.6755
1140.186, 235.7142
1140.668, 236.6334
1141.151, 238.7148
1141.633, 241.7471
1142.115, 245.6623
1142.597, 248.6945
1143.079, 247.7614
1143.561, 245.7117
1144.043, 247.3761
1144.525, 251.4643
1145.008, 256.0902
1145.490, 260.5650
1145.972, 263.6143
1146.454, 265.0400
1146.936, 266.5408
1147.418, 269.3393
1147.900, 272.5525
1148.382, 275.7339
1148.865, 278.5302
1149.347, 279.8941
1149.829, 280.8892
1150.311, 283.8032
1150.793, 288.3400
1151.275, 291.5642
1151.757, 291.8759
1152.239, 293.1586
1152.721, 299.0074
1153.203, 304.9024
1153.686, 307.5544
1154.168, 309.0478
1154.650, 311.9148
1155.132, 315.3741
1155.614, 316.8420
1156.096, 315.8232
1156.578, 316.1028
1157.060, 319.3425
1157.543, 323.1767
1158.025, 327.4922
1158.507, 331.6395
1158.989, 335.1983
1159.471, 338.4418
1159.953, 341.6943
1160.435, 344.9694
1160.917, 348.0587
1161.400, 350.7777
1161.882, 353.7193
1162.364, 357.5132
1162.846, 360.5413
1163.328, 361.5529
1163.810, 362.7878
1164.292, 366.0868
1164.774, 370.5220
1165.256, 374.1164
1165.739, 376.7899
1166.221, 380.0741
1166.703, 384.5250
1167.185, 387.0793
1167.667, 386.4635
1168.149, 387.4974
1168.631, 392.8453
1169.113, 399.1964
1169.595, 402.9298
1170.078, 404.6260
1170.560, 405.9388
1171.042, 406.9094
1171.524, 409.4066
1172.006, 413.4507
1172.488, 417.5059
1172.970, 421.1812
1173.452, 424.4901
1173.934, 427.3817
1174.417, 430.5966
1174.899, 435.8782
1175.381, 438.5011
1175.863, 444.8754
1176.345, 445.8694
1176.827, 448.6541
1177.309, 453.4126
1177.791, 458.7015
1178.274, 464.0073
1178.756, 469.6012
1179.238, 475.8329
1179.720, 482.0750
1180.202, 487.6906
1180.684, 492.9003
1181.166, 498.0827
1181.648, 503.0361
1182.130, 507.0934
1182.613, 510.4466
1183.095, 514.0342
1183.577, 518.1493
1184.059, 522.7443
1184.541, 528.3783
1185.023, 533.7139
1185.505, 536.9102
1185.987, 540.5684
1186.469, 547.2492
1186.952, 555.7863
1187.434, 564.5656
1187.916, 573.2452
1188.398, 579.9951
1188.880, 582.1490
1189.362, 586.4558
1189.844, 596.1275
1190.326, 604.6249
1190.809, 608.4124
1191.291, 611.7533
1191.773, 618.1091
1192.255, 626.4086
1192.737, 634.1651
1193.219, 641.2703
1193.701, 648.7750
1194.183, 656.8134
1194.666, 664.8119
1195.148, 672.9299
1195.630, 679.6805
1196.112, 683.9752
1196.594, 688.3115
1197.076, 695.4116
1197.558, 704.5383
1198.040, 714.1703
1198.522, 724.0215
1199.005, 731.7597
1199.487, 737.5162
1199.969, 743.2820
1200.451, 749.4147
1200.933, 754.5616
1201.415, 757.9369
1201.897, 761.6962
1202.379, 768.7176
1202.861, 777.1933
1203.344, 784.1531
1203.826, 790.5790
1204.308, 798.1811
1204.790, 806.7700
1205.272, 816.0272
1205.754, 825.3975
1206.236, 832.6642
1206.718, 836.2175
1207.201, 839.3111
1207.683, 843.2999
1208.165, 848.2120
1208.647, 855.1230
1209.129, 862.0873
1209.611, 867.0984
1210.093, 870.6314
1210.575, 873.9086
1211.057, 877.0822
1211.540, 880.7157
1212.022, 885.3342
1212.504, 889.7980
1212.986, 893.8466
1213.468, 897.9277
1213.950, 902.4534
1214.432, 906.7540
1214.914, 910.1541
1215.396, 912.8950
1215.879, 915.7327
1216.361, 918.7624
1216.843, 920.2012
1217.325, 922.3624
1217.807, 924.4633
1218.289, 924.7278
1218.771, 927.5159
1219.253, 927.3304
1219.736, 926.9830
1220.218, 929.6725
1220.700, 928.8170
1221.182, 932.8577
1221.664, 929.7728
1222.146, 929.3944
1222.628, 931.2299
1223.110, 933.0013
1223.593, 934.2626
1224.075, 935.2881
1224.557, 936.2123
1225.039, 937.3055
1225.521, 938.9111
1226.003, 940.6293
1226.485, 942.4306
1226.967, 943.8401
1227.449, 945.2509
1227.932, 945.4005
1228.414, 941.5473
1228.896, 934.4506
1229.378, 928.4859
1229.860, 924.7267
1230.342, 922.0903
1230.824, 921.0184
1231.306, 920.0458
1231.788, 918.5615
1232.271, 917.2755
1232.753, 916.8089
1233.235, 916.5515
1233.717, 915.4521
1234.199, 913.8308
1234.681, 914.0336
1235.163, 913.7695
1235.645, 913.8728
1236.128, 915.4948
1236.610, 915.1979
1237.092, 917.9432
1237.574, 919.3751
1238.056, 916.7883
1238.538, 912.4573
1239.020, 908.9239
1239.502, 906.4496
1239.984, 906.2083
1240.467, 907.3763
1240.949, 907.6348
1241.431, 907.0618
1241.913, 906.2883
1242.395, 905.6486
1242.877, 905.8265
1243.359, 907.2032
1243.841, 909.0159
1244.323, 911.3606
1244.806, 913.1631
1245.288, 913.8340
1245.770, 913.4173
1246.252, 910.9704
1246.734, 908.0482
1247.216, 907.1290
1247.698, 908.2617
1248.180, 909.7170
1248.662, 911.8137
1249.145, 912.8738
1249.627, 912.7002
1250.109, 911.5355
1250.591, 908.0931
1251.073, 906.1955
1251.555, 908.7292
1252.037, 912.6930
1252.519, 913.9963
1253.002, 913.1676
1253.484, 912.3835
1253.966, 911.6629
1254.448, 912.7697
1254.930, 915.5555
1255.412, 916.8972
1255.894, 916.2184
1256.376, 915.4926
1256.859, 915.7715
1257.341, 915.8143
1257.823, 914.0617
1258.305, 911.7861
1258.787, 910.3480
1259.269, 909.7130
1259.751, 910.3883
1260.233, 911.5391
1260.715, 911.4792
1261.198, 910.4382
1261.680, 910.5435
1262.162, 912.7928
1262.644, 913.4297
1263.126, 909.5468
1263.608, 906.4117
1264.090, 905.6297
1264.572, 905.9426
1265.054, 908.3195
1265.537, 909.7527
1266.019, 906.4918
1266.501, 900.0248
1266.983, 895.3484
1267.465, 892.6047
1267.947, 890.3651
1268.429, 888.6745
1268.911, 887.2037
1269.394, 885.9202
1269.876, 882.9666
1270.358, 877.5488
1270.840, 872.0621
1271.322, 868.6163
1271.804, 866.3524
1272.286, 863.7321
1272.768, 861.5497
1273.250, 862.2758
1273.733, 863.8205
1274.215, 862.0810
1274.697, 857.7234
1275.179, 853.9517
1275.661, 851.4924
1276.143, 848.6801
1276.625, 843.9848
1277.107, 840.5205
1277.589, 841.2751
1278.072, 840.8871
1278.554, 835.2018
1279.036, 829.2883
1279.518, 827.7383
1280.000, 828.0187
1280.482, 825.6801
1280.964, 821.0895
1281.446, 818.4348
1281.929, 817.9238
1282.411, 817.1980
1282.893, 816.1818
1283.375, 814.1425
1283.857, 810.9078
1284.339, 807.6660
1284.821, 805.1454
1285.303, 803.8536
1285.786, 804.3754
1286.268, 806.5745
##END=



