##NAMES=Friedelite
##RRUFFID=R060364
##IDEAL CHEMISTRY=Mn^2+^_8_Si_6_O_15_(OH)_10_
##LOCALITY=Sterling Hill mine, Ogdensburg, Sussex County, New Jersey, USA
##OWNER=RRUFF
##SOURCE=Herb Obodda
##DESCRIPTION=Brownish-red fine-grained massive
##STATUS=The identification of this mineral has been confirmed by X-ray diffraction and chemical analysis
##URL=rruff.info/R060364
##MEASURED CHEMISTRY=(Mn^2+^_7.46_Mg_0.54_)_Σ=8_Si_6.00_O_15_((OH)_9.26_Cl_0.74_)_Σ=10_
91.53320, 151.3572
92.01532, 153.5755
92.49744, 153.9853
92.97955, 153.8830
93.46167, 152.4091
93.94379, 150.1590
94.42590, 148.1660
94.90802, 146.4857
95.39014, 144.9277
95.87225, 143.6170
96.35437, 142.0081
96.83649, 139.5014
97.31860, 136.8714
97.80072, 135.0224
98.28284, 134.4705
98.76495, 134.7225
99.24707, 133.9661
99.72919, 130.6908
100.2113, 128.1722
100.6934, 127.4462
101.1755, 128.0636
101.6577, 129.0335
102.1398, 129.4604
102.6219, 129.1011
103.1040, 129.4668
103.5861, 131.1934
104.0682, 132.9095
104.5504, 133.7747
105.0325, 133.6977
105.5146, 133.2625
105.9967, 133.2502
106.4788, 133.8380
106.9609, 134.3845
107.4431, 134.9574
107.9252, 135.4392
108.4073, 135.6108
108.8894, 135.3298
109.3715, 134.8675
109.8536, 134.7006
110.3358, 134.8428
110.8179, 135.0813
111.3000, 135.1500
111.7821, 135.1056
112.2642, 135.5477
112.7463, 137.1020
113.2285, 139.0426
113.7106, 140.6990
114.1927, 141.9716
114.6748, 142.8956
115.1569, 143.4347
115.6390, 143.4315
116.1212, 143.4459
116.6033, 143.9003
117.0854, 144.3648
117.5675, 144.3729
118.0496, 143.6590
118.5317, 142.3686
119.0139, 141.2060
119.4960, 140.1383
119.9781, 139.2651
120.4602, 138.9910
120.9423, 138.9119
121.4244, 138.3772
121.9066, 136.8822
122.3887, 134.3795
122.8708, 131.4028
123.3529, 127.8031
123.8350, 123.9797
124.3171, 119.9577
124.7993, 115.8102
125.2814, 111.8090
125.7635, 108.1587
126.2456, 104.9017
126.7277, 102.2165
127.2098, 100.5577
127.6920, 99.27351
128.1741, 97.55006
128.6562, 95.14383
129.1383, 92.75281
129.6204, 91.37797
130.1025, 90.88522
130.5847, 90.52369
131.0668, 90.05132
131.5489, 89.48399
132.0310, 88.83458
132.5131, 87.87917
132.9952, 87.11730
133.4774, 86.98841
133.9595, 87.49446
134.4416, 88.19756
134.9237, 88.73241
135.4058, 89.07960
135.8879, 89.41397
136.3701, 89.47099
136.8522, 89.71627
137.3343, 90.61590
137.8164, 92.26025
138.2985, 94.08501
138.7806, 95.06945
139.2628, 94.51934
139.7449, 94.37565
140.2270, 95.10760
140.7091, 96.12846
141.1912, 96.92602
141.6733, 97.26566
142.1555, 97.26069
142.6376, 97.29060
143.1197, 97.33205
143.6018, 97.43710
144.0839, 97.64226
144.5660, 97.91117
145.0482, 98.19725
145.5303, 98.47966
146.0124, 98.74943
146.4945, 98.94656
146.9766, 99.07108
147.4587, 99.14188
147.9409, 99.21114
148.4230, 99.25283
148.9051, 99.13344
149.3872, 98.67746
149.8693, 97.96623
150.3514, 97.49529
150.8336, 97.48641
151.3157, 97.59003
151.7978, 97.47081
152.2799, 97.09322
152.7620, 96.69606
153.2441, 96.54894
153.7263, 96.50573
154.2084, 96.29407
154.6905, 95.51743
155.1726, 94.55563
155.6547, 94.34520
156.1368, 95.30706
156.6190, 96.28206
157.1011, 96.59635
157.5832, 96.46763
158.0653, 96.31334
158.5474, 96.40285
159.0295, 96.71564
159.5117, 96.97456
159.9938, 97.03713
160.4759, 97.19382
160.9580, 97.60567
161.4401, 98.20849
161.9222, 98.82384
162.4044, 99.27319
162.8865, 99.51048
163.3686, 99.86935
163.8507, 100.4847
164.3328, 101.0988
164.8149, 101.6110
165.2971, 102.0124
165.7792, 102.3434
166.2613, 102.6797
166.7434, 103.1452
167.2255, 103.1820
167.7076, 102.3138
168.1898, 101.4026
168.6719, 101.1985
169.1540, 101.8052
169.6361, 102.5863
170.1182, 102.6025
170.6003, 101.3765
171.0825, 100.5815
171.5646, 100.5730
172.0467, 100.9234
172.5288, 101.1988
173.0109, 101.2909
173.4930, 101.2106
173.9752, 100.8862
174.4573, 100.2775
174.9394, 99.76576
175.4215, 99.56512
175.9036, 99.53860
176.3857, 99.39079
176.8679, 99.04102
177.3500, 98.51833
177.8321, 97.85390
178.3142, 97.03483
178.7963, 96.21606
179.2784, 95.45451
179.7606, 94.75130
180.2427, 94.18481
180.7248, 93.91566
181.2069, 93.67031
181.6890, 93.26768
182.1711, 92.69497
182.6533, 91.89714
183.1354, 90.74339
183.6175, 89.18339
184.0996, 87.66836
184.5817, 86.19789
185.0638, 84.87111
185.5460, 83.79018
186.0281, 82.97288
186.5102, 82.32450
186.9923, 81.71693
187.4744, 81.13320
187.9565, 80.64446
188.4387, 80.18201
188.9208, 79.84443
189.4029, 79.76868
189.8850, 79.98153
190.3671, 80.31551
190.8492, 80.43764
191.3314, 80.11105
191.8135, 79.95664
192.2956, 80.01260
192.7777, 80.23157
193.2598, 80.71328
193.7419, 81.47552
194.2241, 82.23524
194.7062, 82.30929
195.1883, 80.81762
195.6704, 79.60114
196.1525, 78.63485
196.6346, 77.98685
197.1168, 77.85941
197.5989, 78.36445
198.0810, 79.19784
198.5631, 79.46018
199.0452, 78.75937
199.5273, 78.05452
200.0095, 77.52024
200.4916, 77.07466
200.9737, 76.61372
201.4558, 76.11551
201.9379, 75.51587
202.4200, 74.55700
202.9022, 72.94843
203.3843, 71.55811
203.8664, 70.95291
204.3485, 70.83877
204.8306, 70.34908
205.3127, 68.96004
205.7949, 67.14140
206.2770, 65.94887
206.7591, 65.55014
207.2412, 65.32301
207.7233, 64.89880
208.2054, 64.31987
208.6876, 63.86150
209.1697, 63.65461
209.6518, 63.62661
210.1339, 63.67562
210.6160, 63.84991
211.0981, 63.95181
211.5803, 63.76309
212.0624, 63.28342
212.5445, 62.85336
213.0266, 62.67387
213.5087, 62.55134
213.9908, 62.29907
214.4730, 61.87968
214.9551, 61.39798
215.4372, 60.95240
215.9193, 60.53630
216.4014, 60.18853
216.8836, 59.89664
217.3657, 59.69476
217.8478, 59.67204
218.3299, 59.85484
218.8120, 60.04873
219.2941, 59.95602
219.7763, 59.47315
220.2584, 59.04261
220.7405, 58.74524
221.2226, 58.52016
221.7047, 58.33135
222.1868, 58.16857
222.6690, 58.04159
223.1511, 57.99045
223.6332, 58.10814
224.1153, 58.07887
224.5974, 57.60639
225.0795, 57.16436
225.5617, 57.20458
226.0438, 57.81874
226.5259, 58.61739
227.0080, 58.89967
227.4901, 58.29847
227.9722, 57.82272
228.4544, 57.44496
228.9365, 57.22170
229.4186, 57.26079
229.9007, 57.57014
230.3828, 57.99834
230.8649, 58.27719
231.3471, 58.27692
231.8292, 58.32780
232.3113, 58.50718
232.7934, 58.68837
233.2755, 58.73790
233.7576, 58.62772
234.2398, 58.46894
234.7219, 58.44359
235.2040, 58.60041
235.6861, 58.83108
236.1682, 59.14307
236.6503, 59.52166
237.1325, 59.99237
237.6146, 60.55256
238.0967, 61.10723
238.5788, 61.50787
239.0609, 61.67234
239.5430, 61.85293
240.0252, 62.04782
240.5073, 62.26519
240.9894, 62.51054
241.4715, 62.78640
241.9536, 63.09367
242.4357, 63.45166
242.9179, 63.88490
243.4000, 64.24992
243.8821, 64.40537
244.3642, 64.54419
244.8463, 64.96235
245.3284, 65.73768
245.8106, 66.48598
246.2927, 66.64053
246.7748, 66.16731
247.2569, 66.00372
247.7390, 66.46677
248.2211, 67.23375
248.7033, 67.91084
249.1854, 68.42778
249.6675, 68.96741
250.1496, 69.84543
250.6317, 70.99094
251.1138, 71.80513
251.5960, 71.81506
252.0781, 71.57585
252.5602, 71.85392
253.0423, 72.77501
253.5244, 73.86705
254.0065, 74.79835
254.4887, 75.58566
254.9708, 76.23569
255.4529, 76.58558
255.9350, 76.86267
256.4171, 77.40421
256.8992, 78.26067
257.3813, 79.19273
257.8635, 80.01265
258.3456, 80.79430
258.8277, 81.68431
259.3098, 82.75912
259.7919, 83.93519
260.2740, 85.16648
260.7562, 86.51865
261.2383, 87.63750
261.7204, 88.18678
262.2025, 88.41066
262.6846, 88.57495
263.1667, 88.76159
263.6489, 88.91181
264.1310, 88.96025
264.6131, 88.91639
265.0952, 88.72742
265.5773, 88.19143
266.0594, 87.56861
266.5416, 87.12576
267.0237, 86.97536
267.5058, 86.91637
267.9879, 86.69002
268.4700, 86.28315
268.9521, 85.77357
269.4343, 84.96557
269.9164, 84.18055
270.3985, 83.80299
270.8806, 83.97013
271.3627, 84.10106
271.8448, 83.33618
272.3270, 81.45169
272.8091, 79.82216
273.2912, 78.87462
273.7733, 78.23050
274.2554, 77.80968
274.7375, 77.57069
275.2197, 77.22316
275.7018, 76.31509
276.1839, 74.71809
276.6660, 73.41904
277.1481, 72.86286
277.6302, 72.43150
278.1124, 71.82215
278.5945, 71.02142
279.0766, 70.22773
279.5587, 69.61455
280.0408, 69.18311
280.5229, 68.90701
281.0051, 68.88597
281.4872, 68.95254
281.9693, 69.17508
282.4514, 69.46062
282.9335, 69.54883
283.4156, 69.10916
283.8978, 68.12336
284.3799, 67.47751
284.8620, 67.48399
285.3441, 67.54336
285.8262, 67.42257
286.3083, 67.19084
286.7905, 67.03014
287.2726, 67.08541
287.7547, 67.33153
288.2368, 67.52723
288.7189, 67.61079
289.2010, 67.71557
289.6832, 67.93961
290.1653, 68.19535
290.6474, 68.32616
291.1295, 68.21413
291.6116, 67.95616
292.0938, 67.95731
292.5759, 68.40392
293.0580, 68.86329
293.5401, 69.28368
294.0222, 69.65746
294.5043, 69.96247
294.9865, 70.18677
295.4686, 70.37189
295.9507, 70.60200
296.4328, 70.79705
296.9149, 71.20241
297.3970, 72.03823
297.8792, 72.95591
298.3613, 73.52843
298.8434, 73.66140
299.3255, 73.78658
299.8076, 74.76302
300.2897, 77.35435
300.7719, 79.03652
301.2540, 79.00890
301.7361, 78.68532
302.2182, 78.97192
302.7003, 80.00248
303.1824, 81.30812
303.6646, 82.30449
304.1467, 82.82865
304.6288, 83.62981
305.1109, 85.02284
305.5930, 86.40636
306.0751, 87.44375
306.5573, 88.18522
307.0394, 88.92592
307.5215, 89.96838
308.0036, 91.35789
308.4857, 92.46246
308.9678, 93.07887
309.4500, 93.59794
309.9321, 94.09420
310.4142, 94.57951
310.8963, 95.03035
311.3784, 95.41287
311.8605, 95.75989
312.3427, 96.32064
312.8248, 97.27402
313.3069, 98.26025
313.7890, 99.40694
314.2711, 100.4927
314.7532, 101.2542
315.2354, 101.5549
315.7175, 101.4697
316.1996, 101.1525
316.6817, 100.1302
317.1638, 99.66216
317.6459, 100.1612
318.1281, 101.0554
318.6102, 101.9514
319.0923, 102.6938
319.5744, 103.1794
320.0565, 103.1889
320.5386, 102.4826
321.0208, 101.8384
321.5029, 101.3977
321.9850, 100.9362
322.4671, 100.3350
322.9492, 99.56651
323.4313, 98.65514
323.9135, 97.60941
324.3956, 96.41866
324.8777, 95.14252
325.3598, 93.83912
325.8419, 92.39229
326.3240, 90.71170
326.8062, 88.83182
327.2883, 86.82468
327.7704, 84.69582
328.2525, 82.46702
328.7346, 80.46305
329.2167, 79.06860
329.6989, 77.44947
330.1810, 75.17828
330.6631, 72.60604
331.1452, 70.22080
331.6273, 68.26003
332.1094, 66.72795
332.5916, 65.69022
333.0737, 65.50042
333.5558, 65.21908
334.0379, 64.68852
334.5200, 64.00385
335.0021, 63.23981
335.4843, 62.42143
335.9664, 61.56924
336.4485, 60.66427
336.9306, 59.56732
337.4127, 58.83884
337.8948, 58.83918
338.3770, 58.96938
338.8591, 58.96312
339.3412, 58.75573
339.8233, 58.33985
340.3055, 57.57253
340.7876, 56.38066
341.2697, 55.61312
341.7518, 55.66669
342.2339, 55.78954
342.7160, 55.70196
343.1982, 55.44830
343.6803, 55.19431
344.1624, 55.09246
344.6445, 55.07418
345.1266, 54.73136
345.6087, 53.65209
346.0909, 52.94115
346.5730, 53.30164
347.0551, 54.06233
347.5372, 54.36333
348.0193, 53.82316
348.5014, 52.79222
348.9836, 51.79339
349.4657, 50.71251
349.9478, 50.07032
350.4299, 50.34818
350.9120, 50.90639
351.3941, 51.34083
351.8763, 51.57008
352.3584, 51.66872
352.8405, 51.65007
353.3226, 51.50739
353.8047, 51.49721
354.2868, 51.75674
354.7690, 52.05442
355.2511, 52.20868
355.7332, 52.25723
356.2153, 52.37146
356.6974, 52.71549
357.1795, 53.22348
357.6617, 53.64252
358.1438, 53.96018
358.6259, 54.20052
359.1080, 54.35449
359.5901, 54.44906
360.0722, 54.52180
360.5544, 54.57539
361.0365, 54.62485
361.5186, 54.64289
362.0007, 54.60306
362.4828, 54.75243
362.9649, 55.33136
363.4471, 56.08226
363.9292, 56.72589
364.4113, 57.23031
364.8934, 57.64874
365.3755, 58.01142
365.8576, 58.32019
366.3398, 58.56756
366.8219, 58.69842
367.3040, 58.85134
367.7861, 59.16817
368.2682, 59.63591
368.7503, 60.17625
369.2325, 60.86576
369.7146, 61.57984
370.1967, 62.09154
370.6788, 62.36756
371.1609, 62.53184
371.6430, 62.58341
372.1252, 62.59228
372.6073, 62.79095
373.0894, 63.47679
373.5715, 64.14940
374.0536, 64.25771
374.5357, 63.91570
375.0179, 63.84497
375.5000, 64.48497
375.9821, 65.53213
376.4642, 66.26484
376.9463, 66.60693
377.4284, 66.86125
377.9106, 67.07520
378.3927, 67.28575
378.8748, 67.56273
379.3569, 67.92786
379.8390, 68.33950
380.3211, 68.77033
380.8033, 69.24036
381.2854, 69.58892
381.7675, 69.57106
382.2496, 69.59213
382.7317, 70.05234
383.2138, 70.92465
383.6960, 71.82338
384.1781, 72.47326
384.6602, 72.88361
385.1423, 73.25318
385.6244, 73.43728
386.1065, 73.74657
386.5887, 74.45857
387.0708, 75.33095
387.5529, 75.95324
388.0350, 76.14263
388.5171, 76.02548
388.9992, 75.87318
389.4814, 75.57098
389.9635, 75.42184
390.4456, 75.43635
390.9277, 75.59346
391.4098, 75.85247
391.8919, 76.22084
392.3741, 76.79777
392.8562, 77.75715
393.3383, 79.22814
393.8204, 80.09939
394.3025, 79.65756
394.7846, 79.39966
395.2668, 80.07852
395.7489, 81.29087
396.2310, 82.22674
396.7131, 82.39926
397.1952, 82.02075
397.6773, 81.82059
398.1595, 81.83015
398.6416, 81.98685
399.1237, 82.33267
399.6058, 82.76921
400.0879, 83.30473
400.5700, 83.90617
401.0522, 84.35762
401.5343, 84.30154
402.0164, 83.61039
402.4985, 83.17664
402.9806, 83.36156
403.4627, 83.49911
403.9449, 83.31261
404.4270, 82.84504
404.9091, 82.24830
405.3912, 81.58750
405.8733, 80.87817
406.3554, 80.17026
406.8376, 79.44711
407.3197, 78.75358
407.8018, 78.11996
408.2839, 77.51901
408.7660, 77.00589
409.2481, 76.64302
409.7303, 76.07448
410.2124, 74.71887
410.6945, 72.65076
411.1766, 71.03622
411.6587, 70.35172
412.1408, 69.89784
412.6230, 68.99147
413.1051, 67.69256
413.5872, 66.42892
414.0693, 65.44717
414.5514, 64.58503
415.0335, 63.58185
415.5157, 62.41260
415.9978, 61.21352
416.4799, 60.02420
416.9620, 58.88396
417.4441, 57.90551
417.9262, 57.31689
418.4084, 56.59037
418.8905, 55.22616
419.3726, 53.48708
419.8547, 52.09446
420.3368, 51.33414
420.8189, 50.87919
421.3011, 50.22533
421.7832, 49.33357
422.2653, 48.42768
422.7474, 47.35839
423.2295, 46.40169
423.7116, 45.86741
424.1938, 45.73098
424.6759, 45.64919
425.1580, 45.34099
425.6401, 44.82798
426.1222, 44.50801
426.6043, 44.63560
427.0865, 44.62954
427.5686, 44.17642
428.0507, 43.55502
428.5328, 43.16767
429.0149, 43.16588
429.4970, 43.38560
429.9792, 43.55845
430.4613, 43.75096
430.9434, 43.73474
431.4255, 43.29971
431.9076, 42.87706
432.3897, 42.73218
432.8719, 42.83019
433.3540, 42.98090
433.8361, 43.05638
434.3182, 43.05074
434.8003, 42.88903
435.2824, 42.32006
435.7646, 41.99539
436.2467, 42.24437
436.7288, 42.70699
437.2109, 42.98932
437.6930, 42.96674
438.1751, 42.84663
438.6573, 42.92780
439.1394, 43.23557
439.6215, 43.34593
440.1036, 42.80739
440.5857, 42.51849
441.0678, 43.31123
441.5500, 44.89458
442.0321, 46.15538
442.5142, 46.37995
442.9963, 45.99171
443.4784, 45.71600
443.9605, 45.55688
444.4427, 45.48860
444.9248, 45.59803
445.4069, 45.74014
445.8890, 45.62049
446.3711, 45.07753
446.8532, 44.69109
447.3354, 44.99504
447.8175, 45.66261
448.2996, 45.98653
448.7817, 45.80242
449.2638, 45.30536
449.7459, 44.61340
450.2281, 43.71037
450.7102, 43.02496
451.1923, 42.63294
451.6744, 42.40889
452.1565, 42.33031
452.6386, 42.36167
453.1208, 42.41838
453.6029, 42.45557
454.0850, 42.49247
454.5671, 42.58271
455.0492, 42.75043
455.5313, 42.94436
456.0135, 43.25859
456.4956, 43.53571
456.9777, 43.59296
457.4598, 43.44582
457.9419, 43.32122
458.4240, 43.47083
458.9062, 43.90221
459.3883, 44.04437
459.8704, 43.95405
460.3525, 43.46471
460.8346, 42.19283
461.3167, 40.63099
461.7989, 39.41277
462.2810, 38.77778
462.7631, 38.42315
463.2452, 37.83026
463.7273, 36.90867
464.2094, 36.28843
464.6916, 36.17297
465.1737, 36.28279
465.6558, 36.60315
466.1379, 37.03445
466.6200, 37.26896
467.1021, 36.98811
467.5843, 36.46853
468.0664, 36.25574
468.5485, 36.36873
469.0306, 36.67144
469.5127, 37.33054
469.9948, 38.00504
470.4770, 38.08544
470.9591, 37.34949
471.4412, 36.78667
471.9233, 36.97066
472.4054, 37.64276
472.8875, 38.39341
473.3697, 39.16074
473.8518, 39.85516
474.3339, 40.40673
474.8160, 40.80180
475.2981, 41.05109
475.7802, 41.17585
476.2624, 41.13775
476.7445, 40.71673
477.2266, 40.15179
477.7087, 39.94536
478.1908, 40.30056
478.6729, 40.89050
479.1551, 41.10362
479.6372, 40.63808
480.1193, 40.50946
480.6014, 40.88226
481.0835, 41.39505
481.5656, 41.86871
482.0478, 42.30704
482.5299, 42.79767
483.0120, 43.40806
483.4941, 44.09341
483.9762, 44.64656
484.4583, 44.95088
484.9405, 45.36443
485.4226, 45.90020
485.9047, 46.60079
486.3868, 47.57156
486.8689, 48.79778
487.3510, 50.03121
487.8332, 51.06755
488.3153, 51.92965
488.7974, 52.76316
489.2795, 53.58194
489.7616, 54.34693
490.2437, 55.27359
490.7259, 56.07283
491.2080, 56.21685
491.6901, 55.42765
492.1722, 54.32765
492.6543, 53.49339
493.1364, 52.71354
493.6186, 51.21177
494.1007, 48.62574
494.5828, 45.93959
495.0649, 44.37680
495.5470, 44.07778
496.0291, 43.34093
496.5113, 41.66924
496.9934, 39.95358
497.4755, 38.79451
497.9576, 38.00934
498.4397, 37.04763
498.9218, 35.63680
499.4040, 34.05258
499.8861, 32.93744
500.3682, 32.58123
500.8503, 32.19681
501.3324, 31.75776
501.8145, 31.31484
502.2967, 30.86758
502.7788, 30.43914
503.2609, 30.07107
503.7430, 29.78150
504.2251, 29.58419
504.7072, 29.55588
505.1894, 29.78249
505.6715, 29.98176
506.1536, 30.15450
506.6357, 30.22534
507.1178, 30.07100
507.5999, 29.69275
508.0821, 29.32900
508.5642, 29.05934
509.0463, 28.94139
509.5284, 29.23883
510.0105, 30.07121
510.4926, 30.85541
510.9748, 31.22476
511.4569, 31.28245
511.9390, 31.28789
512.4211, 31.21285
512.9032, 31.16031
513.3853, 31.29444
513.8674, 31.45427
514.3495, 31.29613
514.8317, 30.74326
515.3138, 30.13778
515.7959, 29.83245
516.2780, 29.85072
516.7601, 29.82145
517.2422, 29.89727
517.7244, 29.76432
518.2065, 29.25016
518.6886, 28.48401
519.1707, 27.59412
519.6528, 26.64211
520.1349, 25.73593
520.6171, 25.02772
521.0992, 24.50373
521.5813, 24.23689
522.0634, 24.59859
522.5455, 24.85364
523.0276, 24.65135
523.5098, 24.16238
523.9919, 23.74468
524.4740, 23.58729
524.9561, 23.47231
525.4382, 22.95844
525.9203, 22.03568
526.4025, 21.50318
526.8846, 21.75060
527.3667, 22.17942
527.8488, 22.18406
528.3309, 21.82989
528.8130, 21.52529
529.2952, 21.39313
529.7773, 21.35788
530.2594, 21.41984
530.7415, 21.53713
531.2236, 21.49036
531.7057, 21.13333
532.1879, 20.70845
532.6700, 20.71482
533.1521, 21.49634
533.6342, 21.92165
534.1163, 21.51716
534.5984, 21.13619
535.0806, 21.53690
535.5627, 22.46897
536.0448, 23.08899
536.5269, 22.84704
537.0090, 22.05145
537.4911, 21.65739
537.9733, 21.89340
538.4554, 22.02343
538.9375, 21.84908
539.4196, 21.64065
539.9017, 21.62955
540.3839, 21.76165
540.8660, 21.74092
541.3481, 21.21547
541.8302, 20.49908
542.3123, 20.40274
542.7944, 21.01559
543.2766, 21.45928
543.7587, 21.32425
544.2408, 20.89087
544.7229, 20.53593
545.2050, 20.24709
545.6871, 20.11951
546.1693, 20.18388
546.6514, 20.42850
547.1335, 20.96528
547.6156, 21.72773
548.0977, 22.34257
548.5798, 22.57619
549.0620, 22.50710
549.5441, 22.39993
550.0262, 22.13646
550.5083, 21.99697
550.9904, 22.17009
551.4725, 22.32512
551.9547, 22.17328
552.4368, 21.74975
552.9189, 21.27047
553.4010, 20.85633
553.8831, 20.55956
554.3652, 20.66120
554.8474, 21.38540
555.3295, 21.94019
555.8116, 22.03848
556.2937, 21.95052
556.7758, 21.78909
557.2579, 21.58659
557.7401, 21.47428
558.2222, 21.55480
558.7043, 21.76465
559.1864, 22.05211
559.6685, 22.41436
560.1506, 22.62193
560.6328, 22.46272
561.1149, 22.17449
561.5970, 22.35455
562.0791, 23.20731
562.5612, 23.77912
563.0433, 23.65389
563.5255, 23.35943
564.0076, 23.36658
564.4897, 23.64205
564.9718, 23.84104
565.4539, 23.72494
565.9360, 23.43227
566.4182, 23.46006
566.9003, 24.14147
567.3824, 24.51040
567.8645, 24.17643
568.3466, 23.82256
568.8287, 23.97168
569.3109, 24.51714
569.7930, 24.93684
570.2751, 24.82820
570.7572, 24.47538
571.2393, 24.49656
571.7214, 24.91826
572.2036, 25.38960
572.6857, 25.84171
573.1678, 26.24802
573.6499, 26.61427
574.1320, 26.94088
574.6141, 27.10439
575.0963, 26.88451
575.5784, 26.63486
576.0605, 26.57242
576.5426, 26.73580
577.0247, 27.30401
577.5068, 28.40768
577.9890, 29.62478
578.4711, 30.10431
578.9532, 29.28903
579.4353, 29.16684
579.9174, 30.36932
580.3995, 31.54412
580.8817, 31.84995
581.3638, 31.67412
581.8459, 31.87770
582.3280, 32.89708
582.8101, 34.22065
583.2922, 35.01403
583.7744, 35.24037
584.2565, 35.41362
584.7386, 35.43984
585.2207, 35.66087
585.7029, 36.39909
586.1850, 37.50460
586.6671, 38.61779
587.1492, 39.72830
587.6313, 40.72760
588.1135, 41.29956
588.5956, 41.72381
589.0777, 42.74683
589.5598, 44.56596
590.0419, 46.62646
590.5240, 48.36965
591.0062, 49.78254
591.4883, 51.02227
591.9704, 51.56166
592.4525, 52.58488
592.9346, 54.52877
593.4167, 57.03634
593.8989, 59.77499
594.3810, 62.62545
594.8631, 65.57591
595.3452, 68.59812
595.8273, 71.69645
596.3094, 74.93577
596.7916, 78.21847
597.2737, 81.89370
597.7558, 86.43242
598.2379, 91.31407
598.7200, 95.94543
599.2021, 100.2141
599.6843, 104.7217
600.1664, 109.7358
600.6485, 115.2125
601.1306, 121.2265
601.6127, 127.7110
602.0948, 134.3051
602.5770, 140.7925
603.0591, 147.2478
603.5412, 153.8777
604.0233, 160.7702
604.5054, 167.7134
604.9875, 174.5122
605.4697, 181.5617
605.9518, 189.0024
606.4339, 196.9038
606.9160, 205.2958
607.3981, 214.2016
607.8802, 223.5379
608.3624, 233.1182
608.8445, 242.9074
609.3266, 253.0124
609.8087, 263.0232
610.2908, 273.9290
610.7729, 287.3599
611.2551, 302.3159
611.7372, 315.8540
612.2193, 326.7580
612.7014, 336.6203
613.1835, 346.7702
613.6656, 356.6928
614.1478, 365.3850
614.6299, 372.5597
615.1120, 378.2701
615.5941, 382.6842
616.0762, 385.8065
616.5583, 386.1452
617.0405, 384.4025
617.5226, 378.9587
618.0047, 367.5345
618.4868, 353.4676
618.9689, 339.8331
619.4510, 327.1606
619.9332, 314.3105
620.4153, 300.3921
620.8974, 285.5013
621.3795, 269.9491
621.8616, 253.5123
622.3438, 237.6028
622.8259, 222.7069
623.3080, 208.6624
623.7901, 195.0781
624.2722, 181.8689
624.7543, 170.0470
625.2365, 160.3543
625.7186, 151.6712
626.2007, 143.2105
626.6828, 135.0411
627.1649, 127.6538
627.6470, 121.2213
628.1292, 115.4648
628.6113, 109.8925
629.0934, 104.4518
629.5755, 99.37557
630.0576, 94.42852
630.5397, 90.14463
631.0219, 86.97952
631.5040, 84.47065
631.9861, 81.97108
632.4682, 79.29006
632.9503, 76.74576
633.4324, 74.65372
633.9146, 72.92869
634.3967, 71.36048
634.8788, 69.95177
635.3609, 68.59509
635.8430, 67.28446
636.3251, 65.94948
636.8073, 64.38613
637.2894, 62.46835
637.7715, 60.65012
638.2536, 58.80873
638.7357, 57.23919
639.2178, 56.32269
639.7000, 55.88683
640.1821, 55.42327
640.6642, 54.65160
641.1463, 53.70537
641.6284, 52.86696
642.1105, 52.18788
642.5927, 51.34225
643.0748, 50.13375
643.5569, 48.97694
644.0390, 48.13902
644.5211, 47.50057
645.0032, 46.81546
645.4854, 45.98838
645.9675, 45.19216
646.4496, 44.57711
646.9317, 44.05845
647.4138, 43.47438
647.8959, 42.80349
648.3781, 42.11205
648.8602, 41.42439
649.3423, 40.78316
649.8244, 40.42908
650.3065, 40.88411
650.7886, 40.82954
651.2708, 39.64097
651.7529, 38.45052
652.2350, 38.15246
652.7171, 38.52004
653.1992, 38.72517
653.6813, 38.30856
654.1635, 37.57435
654.6456, 36.90860
655.1277, 36.31860
655.6098, 35.93585
656.0919, 35.85442
656.5740, 35.78735
657.0562, 35.48790
657.5383, 34.97725
658.0204, 34.47642
658.5025, 33.90218
658.9846, 33.44460
659.4667, 33.13234
659.9489, 32.98397
660.4310, 33.22655
660.9131, 33.72696
661.3952, 33.83191
661.8773, 32.97007
662.3594, 31.52762
662.8416, 30.82129
663.3237, 31.05185
663.8058, 31.27822
664.2879, 31.37648
664.7700, 31.38010
665.2521, 31.31937
665.7343, 31.19167
666.2164, 30.97734
666.6985, 30.54343
667.1806, 30.18978
667.6627, 30.21314
668.1448, 30.44459
668.6270, 30.57047
669.1091, 30.52706
669.5912, 30.40264
670.0733, 30.26815
670.5554, 30.12326
671.0375, 29.95234
671.5197, 29.63436
672.0018, 29.49771
672.4839, 29.77538
672.9660, 30.06056
673.4481, 30.02201
673.9302, 29.73242
674.4124, 29.53179
674.8945, 29.70514
675.3766, 29.85895
675.8587, 29.31688
676.3408, 28.27345
676.8229, 27.64991
677.3051, 27.66864
677.7872, 27.98406
678.2693, 28.37566
678.7514, 28.81351
679.2335, 28.93926
679.7156, 28.31843
680.1978, 28.00288
680.6799, 28.51237
681.1620, 29.10594
681.6441, 29.07749
682.1262, 28.51025
682.6083, 27.97355
683.0905, 27.80775
683.5726, 27.90599
684.0547, 28.18661
684.5368, 28.64770
685.0189, 28.70060
685.5010, 28.06614
685.9832, 27.38511
686.4653, 27.23351
686.9474, 27.50958
687.4295, 27.65487
687.9116, 27.55501
688.3937, 27.46172
688.8759, 27.44952
689.3580, 27.47740
689.8401, 27.53579
690.3222, 27.59953
690.8043, 27.57226
691.2864, 27.36365
691.7686, 27.12694
692.2507, 27.33858
692.7328, 28.13381
693.2149, 28.48110
693.6970, 27.96979
694.1791, 27.37981
694.6613, 27.29094
695.1434, 27.51822
695.6255, 27.67377
696.1076, 27.75138
696.5897, 27.64736
697.0718, 27.08786
697.5540, 26.45259
698.0361, 26.25853
698.5182, 26.48070
699.0003, 26.72840
699.4824, 26.76255
699.9645, 26.66646
700.4467, 26.64637
700.9288, 26.73409
701.4109, 26.78276
701.8930, 26.81650
702.3751, 26.76631
702.8572, 26.50908
703.3394, 26.17923
703.8215, 26.02347
704.3036, 26.13310
704.7857, 26.25006
705.2678, 26.24699
705.7499, 26.15154
706.2321, 25.92889
706.7142, 25.62647
707.1963, 25.46534
707.6784, 25.56693
708.1605, 25.83425
708.6426, 26.13044
709.1248, 26.60616
709.6069, 26.55672
710.0890, 25.24273
710.5711, 24.27677
711.0532, 24.53243
711.5353, 25.29474
712.0175, 25.57893
712.4996, 25.17352
712.9817, 24.79429
713.4638, 25.09503
713.9459, 25.56154
714.4280, 25.42101
714.9102, 24.74242
715.3923, 23.95008
715.8744, 23.19304
716.3565, 22.67837
716.8386, 22.76471
717.3207, 23.56392
717.8029, 24.14937
718.2850, 24.54988
718.7671, 24.67465
719.2492, 24.31622
719.7313, 23.79611
720.2134, 23.36747
720.6956, 23.08548
721.1777, 22.99578
721.6598, 23.31204
722.1419, 23.70809
722.6240, 23.73419
723.1061, 23.46298
723.5883, 23.15440
724.0704, 22.87748
724.5525, 22.69262
725.0346, 22.67410
725.5167, 22.81761
725.9988, 22.95392
726.4810, 23.22480
726.9631, 23.27541
727.4452, 22.86988
727.9273, 22.39652
728.4094, 22.13026
728.8915, 22.06559
729.3737, 22.09587
729.8558, 22.27637
730.3379, 22.35040
730.8200, 21.85781
731.3021, 21.05365
731.7842, 20.70823
732.2664, 20.94944
732.7485, 21.26118
733.2306, 21.24168
733.7127, 21.00213
734.1948, 21.00099
734.6769, 21.55029
735.1591, 21.76403
735.6412, 21.27624
736.1233, 20.81824
736.6054, 20.80232
737.0875, 21.07333
737.5696, 21.31196
738.0518, 21.41610
738.5339, 21.49399
739.0160, 21.65119
739.4981, 21.83422
739.9802, 21.95513
740.4623, 22.00623
740.9445, 21.97239
741.4266, 21.83139
741.9087, 21.67005
742.3908, 21.65679
742.8729, 21.84603
743.3550, 21.94706
743.8372, 21.87494
744.3193, 21.81438
744.8014, 21.90833
745.2835, 21.98464
745.7656, 21.79823
746.2477, 21.33505
746.7299, 20.93057
747.2120, 20.79794
747.6941, 20.79577
748.1762, 20.75040
748.6583, 20.69810
749.1404, 20.77498
749.6226, 21.01802
750.1047, 21.32738
750.5868, 21.61564
751.0689, 21.87543
751.5510, 22.03888
752.0331, 22.11670
752.5153, 22.07462
752.9974, 21.71689
753.4795, 21.40368
753.9616, 21.44306
754.4437, 21.72312
754.9258, 21.86059
755.4080, 21.66839
755.8901, 21.44612
756.3722, 21.37262
756.8543, 21.40912
757.3364, 21.51365
757.8185, 21.67269
758.3007, 21.90431
758.7828, 22.23906
759.2649, 22.52603
759.7470, 22.36744
760.2291, 21.60259
760.7112, 21.18585
761.1934, 21.37897
761.6755, 21.54511
762.1576, 21.32477
762.6397, 20.93659
763.1218, 20.58941
763.6039, 20.27322
764.0861, 20.24466
764.5682, 20.88798
765.0503, 21.57906
765.5324, 21.81966
766.0145, 21.73940
766.4966, 21.57810
766.9788, 21.43014
767.4609, 21.39848
767.9430, 21.63088
768.4251, 22.05142
768.9072, 22.28467
769.3893, 22.32327
769.8715, 22.17645
770.3536, 21.67945
770.8357, 21.23519
771.3178, 21.34332
771.7999, 21.87021
772.2820, 22.11828
772.7642, 21.77319
773.2463, 21.51757
773.7284, 21.60504
774.2105, 21.80448
774.6926, 21.89417
775.1747, 21.90752
775.6569, 22.03486
776.1390, 22.38477
776.6211, 22.75342
777.1032, 22.81179
777.5853, 22.62517
778.0674, 22.56216
778.5496, 22.65131
779.0317, 22.86067
779.5138, 23.23888
779.9959, 23.63083
780.4780, 23.72687
780.9601, 23.39103
781.4423, 23.31828
781.9244, 23.88843
782.4065, 24.24982
782.8886, 23.94193
783.3707, 23.40462
783.8528, 23.06221
784.3350, 22.99313
784.8171, 23.12343
785.2992, 23.48733
785.7813, 23.93898
786.2634, 24.33808
786.7455, 24.66630
787.2277, 24.86271
787.7098, 24.91518
788.1919, 24.82053
788.6740, 24.53332
789.1561, 24.16274
789.6382, 24.12239
790.1204, 24.51961
790.6025, 24.98985
791.0846, 25.68840
791.5667, 26.26405
792.0488, 26.42705
792.5309, 26.42358
793.0131, 26.67095
793.4952, 27.27526
793.9773, 27.84903
794.4594, 28.08131
794.9415, 28.31220
795.4236, 28.97019
795.9058, 29.86893
796.3879, 30.52523
796.8700, 30.80390
797.3521, 30.98920
797.8342, 31.39330
798.3163, 31.95271
798.7985, 32.28373
799.2806, 32.31207
799.7627, 32.58455
800.2448, 33.41599
800.7269, 34.20555
801.2090, 34.32447
801.6912, 33.92492
802.1733, 33.87413
802.6554, 34.39960
803.1375, 34.91523
803.6196, 35.24863
804.1017, 35.59412
804.5839, 36.26630
805.0660, 37.02461
805.5481, 37.24983
806.0302, 36.71021
806.5123, 36.17953
806.9944, 36.66662
807.4766, 37.67737
807.9587, 37.89691
808.4408, 37.36426
808.9229, 37.09570
809.4050, 37.50943
809.8871, 37.99727
810.3693, 37.76842
810.8514, 36.83448
811.3335, 36.39222
811.8156, 36.73203
812.2977, 37.08053
812.7798, 37.63713
813.2620, 37.88599
813.7441, 37.19120
814.2262, 35.91452
814.7083, 35.11627
815.1904, 35.25663
815.6725, 35.45827
816.1547, 35.35960
816.6368, 34.97165
817.1189, 34.13960
817.6010, 33.02651
818.0831, 32.12421
818.5652, 31.63829
819.0474, 31.29103
819.5295, 30.69745
820.0116, 29.89672
820.4937, 29.24587
820.9758, 28.75142
821.4579, 28.40807
821.9401, 28.35327
822.4222, 28.19949
822.9043, 27.41442
823.3864, 26.04030
823.8685, 25.08460
824.3506, 24.61853
824.8328, 24.45337
825.3149, 25.01533
825.7970, 25.46713
826.2791, 24.97171
826.7612, 23.90917
827.2433, 23.28428
827.7255, 23.50126
828.2076, 23.85645
828.6897, 23.81966
829.1718, 23.49998
829.6539, 22.87926
830.1360, 22.10379
830.6182, 21.86245
831.1003, 22.42196
831.5824, 23.12785
832.0645, 23.18635
832.5466, 22.64953
833.0287, 22.12370
833.5109, 21.55344
833.9930, 21.18233
834.4751, 21.22758
834.9572, 21.28660
835.4393, 20.88506
835.9214, 20.23594
836.4036, 20.00416
836.8857, 20.54738
837.3678, 20.88381
837.8499, 20.49908
838.3320, 20.08251
838.8141, 20.18836
839.2963, 20.61803
839.7784, 21.01717
840.2605, 21.25489
840.7426, 21.22172
841.2247, 20.56099
841.7068, 19.68278
842.1890, 19.46583
842.6711, 19.80433
843.1532, 20.14514
843.6353, 20.34906
844.1174, 20.39089
844.5995, 20.21915
845.0817, 19.89845
845.5638, 19.73525
846.0459, 19.79990
846.5280, 19.83163
847.0101, 19.88396
847.4922, 19.80545
847.9744, 19.23577
848.4565, 18.60520
848.9386, 18.71401
849.4207, 19.77608
849.9028, 20.44454
850.3849, 19.95743
850.8671, 19.40501
851.3492, 19.56471
851.8313, 19.98572
852.3134, 19.93984
852.7955, 19.39968
853.2776, 19.00144
853.7598, 19.24824
854.2419, 19.69024
854.7240, 19.52753
855.2061, 18.95308
855.6882, 18.79322
856.1703, 19.14358
856.6525, 19.54454
857.1346, 19.75283
857.6167, 19.80529
858.0988, 19.74811
858.5809, 19.55248
859.0630, 19.44806
859.5452, 19.53278
860.0273, 19.53289
860.5094, 19.22292
860.9915, 18.90881
861.4736, 18.85587
861.9557, 19.04475
862.4379, 19.33537
862.9200, 19.96039
863.4021, 20.32078
863.8842, 19.98267
864.3663, 19.48098
864.8484, 19.31781
865.3306, 19.38413
865.8127, 19.25175
866.2948, 18.76157
866.7769, 18.34137
867.2590, 18.50354
867.7411, 19.00183
868.2233, 19.41246
868.7054, 19.69844
869.1875, 19.64545
869.6696, 19.18731
870.1517, 18.74671
870.6339, 18.74918
871.1160, 19.06978
871.5981, 19.10183
872.0802, 18.69004
872.5623, 18.57695
873.0444, 19.03360
873.5266, 19.46226
874.0087, 19.45504
874.4908, 19.23995
874.9729, 19.30685
875.4550, 19.77345
875.9371, 19.84617
876.4193, 19.05812
876.9014, 18.28769
877.3835, 17.83088
877.8656, 17.62939
878.3477, 17.66534
878.8298, 17.88425
879.3120, 18.14705
879.7941, 18.40785
880.2762, 18.62572
880.7583, 18.79603
881.2404, 18.87866
881.7225, 18.80363
882.2047, 18.56974
882.6868, 18.11946
883.1689, 17.42955
883.6510, 16.87980
884.1331, 17.06249
884.6152, 17.82812
885.0974, 17.94441
885.5795, 17.29363
886.0616, 16.84824
886.5437, 16.85326
887.0258, 17.08376
887.5079, 17.46331
887.9901, 17.89505
888.4722, 17.98864
888.9543, 17.56713
889.4364, 17.13874
889.9185, 16.42945
890.4006, 16.03135
890.8828, 16.47221
891.3649, 17.18111
891.8470, 17.39920
892.3291, 17.07944
892.8112, 16.89787
893.2933, 17.45556
893.7755, 17.85719
894.2576, 17.20709
894.7397, 16.29061
895.2218, 16.24710
895.7039, 16.92143
896.1860, 17.30288
896.6682, 16.89765
897.1503, 16.26580
897.6324, 16.06763
898.1145, 16.19152
898.5966, 16.31811
899.0787, 16.44318
899.5609, 16.64540
900.0430, 16.95646
900.5251, 17.26359
901.0072, 17.47754
901.4893, 17.57736
901.9714, 17.43755
902.4536, 16.99303
902.9357, 16.53274
903.4178, 16.00781
903.8999, 15.60279
904.3820, 15.45622
904.8641, 15.46907
905.3463, 15.46164
905.8284, 15.41703
906.3105, 15.48560
906.7926, 15.86011
907.2747, 16.11565
907.7568, 16.11756
908.2390, 15.95274
908.7211, 15.62616
909.2032, 15.20781
909.6853, 14.84079
910.1674, 14.55848
910.6495, 14.41072
911.1317, 14.48849
911.6138, 14.67274
912.0959, 14.86704
912.5780, 15.04689
913.0601, 15.16100
913.5422, 15.20749
914.0244, 15.28912
914.5065, 15.53610
914.9886, 15.80476
915.4707, 15.74045
915.9528, 15.40068
916.4349, 15.14866
916.9171, 15.03473
917.3992, 14.97116
917.8813, 14.92570
918.3634, 14.84174
918.8455, 14.59656
919.3276, 14.17053
919.8098, 13.93155
920.2919, 13.91704
920.7740, 13.99571
921.2561, 14.16594
921.7382, 14.38596
922.2203, 14.70915
922.7025, 15.05688
923.1846, 15.12368
923.6667, 14.75985
924.1488, 14.44516
924.6309, 14.07731
925.1130, 13.93407
925.5952, 14.31247
926.0773, 14.88149
926.5594, 15.30629
927.0415, 15.52173
927.5236, 15.51051
928.0057, 15.15656
928.4879, 14.73493
928.9700, 14.24238
929.4521, 13.90828
929.9342, 14.26049
930.4163, 14.98898
930.8984, 15.11827
931.3806, 14.31150
931.8627, 13.45944
932.3448, 13.50566
932.8269, 14.09694
933.3090, 14.64976
933.7911, 15.11031
934.2733, 15.16789
934.7554, 14.78306
935.2375, 14.33138
935.7196, 14.04821
936.2017, 13.94061
936.6838, 14.09936
937.1660, 14.55042
937.6481, 14.69256
938.1302, 14.42484
938.6123, 14.31152
939.0944, 14.61404
939.5765, 14.98000
940.0587, 15.04710
940.5408, 14.85681
941.0229, 14.70423
941.5050, 14.57188
941.9871, 14.50939
942.4692, 14.60936
942.9514, 14.67591
943.4335, 14.54121
943.9156, 14.38076
944.3977, 14.45674
944.8798, 14.77782
945.3619, 15.01470
945.8441, 15.03778
946.3262, 15.04438
946.8083, 15.13589
947.2904, 15.21199
947.7725, 15.10371
948.2546, 14.92947
948.7368, 15.03470
949.2189, 15.53406
949.7010, 15.84692
950.1831, 15.37142
950.6652, 14.72968
951.1473, 14.58509
951.6295, 14.71804
952.1116, 14.70998
952.5937, 14.52313
953.0758, 14.35886
953.5579, 14.32584
954.0400, 14.41717
954.5222, 14.67141
955.0043, 15.03211
955.4864, 15.37987
955.9685, 15.68877
956.4506, 15.83929
956.9327, 15.79538
957.4149, 15.55188
957.8970, 15.04721
958.3791, 14.45979
958.8612, 14.39697
959.3433, 14.90668
959.8254, 15.24928
960.3076, 15.35739
960.7897, 15.38371
961.2718, 15.38910
961.7539, 15.34643
962.2360, 15.20427
962.7181, 14.96956
963.2003, 14.81074
963.6824, 14.71263
964.1645, 14.72440
964.6466, 14.90810
965.1287, 15.13107
965.6108, 15.38184
966.0930, 15.60116
966.5751, 15.70713
967.0572, 15.69874
967.5393, 15.56836
968.0214, 15.19054
968.5035, 14.85684
968.9857, 14.49329
969.4678, 14.33989
969.9499, 14.82444
970.4320, 15.60282
970.9141, 15.84405
971.3962, 15.27906
971.8784, 14.86483
972.3605, 15.36207
972.8426, 15.80835
973.3247, 15.33113
973.8068, 14.54044
974.2889, 14.19347
974.7711, 14.33694
975.2532, 14.70070
975.7353, 15.20928
976.2174, 15.56534
976.6995, 15.32870
977.1816, 14.89591
977.6638, 14.85172
978.1459, 15.07696
978.6280, 15.20141
979.1101, 15.16008
979.5922, 15.17129
980.0743, 15.41296
980.5565, 15.67403
981.0386, 15.50759
981.5207, 15.07610
982.0028, 15.01964
982.4849, 15.32577
982.9670, 15.54506
983.4492, 15.52517
983.9313, 15.42719
984.4134, 15.38365
984.8955, 15.42060
985.3776, 15.70492
985.8597, 16.25426
986.3419, 16.40264
986.8240, 16.02687
987.3061, 15.72987
987.7882, 15.80906
988.2703, 15.94562
988.7524, 15.69276
989.2346, 15.12648
989.7167, 15.13189
990.1988, 16.06187
990.6809, 16.44901
991.1630, 15.83610
991.6451, 15.27258
992.1273, 15.27246
992.6094, 15.62894
993.0915, 16.09476
993.5736, 16.68365
994.0557, 17.10266
994.5378, 17.30766
995.0200, 17.40035
995.5021, 17.36973
995.9842, 17.25173
996.4663, 16.90725
996.9484, 16.55446
997.4305, 16.61724
997.9127, 17.16901
998.3948, 17.54331
998.8769, 17.41569
999.3590, 17.38688
999.8411, 17.72816
1000.323, 18.15784
1000.805, 18.53631
1001.287, 18.80775
1001.770, 18.84268
1002.252, 18.59556
1002.734, 18.45827
1003.216, 18.66931
1003.698, 18.94848
1004.180, 19.09904
1004.662, 19.25595
1005.144, 19.56305
1005.627, 20.01359
1006.109, 20.65308
1006.591, 21.52646
1007.073, 21.96831
1007.555, 20.99991
1008.037, 19.88108
1008.519, 19.86120
1009.001, 20.50949
1009.483, 21.25759
1009.966, 21.93504
1010.448, 22.39231
1010.930, 22.54772
1011.412, 22.62369
1011.894, 22.77061
1012.376, 23.02556
1012.858, 23.52119
1013.340, 24.16015
1013.823, 24.71262
1014.305, 25.13731
1014.787, 25.44780
1015.269, 25.63499
1015.751, 25.93027
1016.233, 26.75245
1016.715, 27.89902
1017.197, 28.80616
1017.679, 29.49989
1018.162, 30.11337
1018.644, 30.69532
1019.126, 31.44049
1019.608, 32.47020
1020.090, 33.76046
1020.572, 35.27190
1021.054, 37.00568
1021.536, 39.05683
1022.018, 41.41710
1022.501, 43.91481
1022.983, 46.52772
1023.465, 49.26116
1023.947, 52.10644
1024.429, 55.14146
1024.911, 58.62165
1025.393, 62.56590
1025.875, 66.32810
1026.358, 69.89306
1026.840, 73.28985
1027.322, 76.38242
1027.804, 79.99337
1028.286, 84.84068
1028.768, 90.51144
1029.250, 95.94950
1029.732, 101.0342
1030.214, 106.5714
1030.697, 112.5244
1031.179, 119.1118
1031.661, 126.6360
1032.143, 134.3193
1032.625, 141.6160
1033.107, 148.6299
1033.589, 155.6682
1034.071, 162.9287
1034.553, 169.4205
1035.036, 175.9244
1035.518, 180.1088
1036.000, 181.6705
1036.482, 180.2909
1036.964, 175.3064
1037.446, 167.3184
1037.928, 158.1362
1038.410, 147.5608
1038.893, 136.3909
1039.375, 123.8130
1039.857, 111.9354
1040.339, 101.2844
1040.821, 91.43961
1041.303, 81.90810
1041.785, 72.96674
1042.267, 65.67824
1042.750, 60.39768
1043.232, 55.59316
1043.714, 51.54557
1044.196, 47.59808
1044.678, 43.17421
1045.160, 39.21708
1045.642, 36.64162
1046.124, 35.03911
1046.606, 33.36025
1047.089, 31.42912
1047.571, 29.93431
1048.053, 29.27739
1048.535, 28.63057
1049.017, 27.80031
1049.499, 26.86609
1049.981, 25.89011
1050.463, 24.86367
1050.945, 23.66982
1051.428, 22.19342
1051.910, 21.22823
1052.392, 21.45190
1052.874, 21.50562
1053.356, 20.74018
1053.838, 19.84515
1054.320, 19.35049
1054.802, 19.13756
1055.285, 18.90735
1055.767, 18.61490
1056.249, 18.32502
1056.731, 17.97448
1057.213, 17.73671
1057.695, 17.89281
1058.177, 17.98055
1058.659, 17.49493
1059.141, 16.73297
1059.624, 16.32540
1060.106, 16.38180
1060.588, 16.30342
1061.070, 15.69060
1061.552, 15.18816
1062.034, 15.11597
1062.516, 15.18906
1062.998, 15.30842
1063.480, 15.35872
1063.963, 15.09558
1064.445, 14.51137
1064.927, 14.12949
1065.409, 14.29562
1065.891, 14.49081
1066.373, 14.43606
1066.855, 14.39750
1067.337, 14.68612
1067.820, 15.07786
1068.302, 15.20151
1068.784, 15.01919
1069.266, 14.77456
1069.748, 14.48011
1070.230, 14.27888
1070.712, 14.24430
1071.194, 14.31547
1071.677, 14.62554
1072.159, 14.90978
1072.641, 14.71514
1073.123, 14.08191
1073.605, 13.56191
1074.087, 13.34061
1074.569, 13.29487
1075.051, 13.57486
1075.533, 13.79203
1076.016, 13.60323
1076.498, 13.22455
1076.980, 12.89254
1077.462, 12.66188
1077.944, 12.58255
1078.426, 12.72034
1078.908, 12.83229
1079.390, 12.65241
1079.873, 12.58061
1080.355, 13.04780
1080.837, 13.64989
1081.319, 13.91228
1081.801, 13.86464
1082.283, 13.78017
1082.765, 13.74393
1083.247, 13.63444
1083.729, 13.23761
1084.212, 12.94168
1084.694, 13.03718
1085.176, 13.29478
1085.658, 13.60923
1086.140, 13.84910
1086.622, 13.70453
1087.104, 13.08013
1087.586, 12.64198
1088.068, 12.72251
1088.551, 12.98941
1089.033, 13.51222
1089.515, 13.93689
1089.997, 13.89962
1090.479, 13.55594
1090.961, 13.17723
1091.443, 12.82632
1091.925, 12.61941
1092.408, 12.80478
1092.890, 12.86202
1093.372, 12.37348
1093.854, 11.89740
1094.336, 11.97774
1094.818, 12.25784
1095.300, 12.10112
1095.782, 11.51266
1096.265, 11.15378
1096.747, 11.25226
1097.229, 11.53045
1097.711, 12.14640
1098.193, 12.63242
1098.675, 12.52088
1099.157, 12.26479
1099.639, 12.48292
1100.121, 13.07533
1100.604, 13.39694
1101.086, 13.22344
1101.568, 13.05630
1102.050, 13.00433
1102.532, 13.01182
1103.014, 13.12599
1103.496, 13.22711
1103.978, 13.16370
1104.460, 13.00832
1104.943, 12.99552
1105.425, 13.21283
1105.907, 13.24024
1106.389, 12.73375
1106.871, 12.39712
1107.353, 12.75681
1107.835, 13.02765
1108.317, 12.28642
1108.800, 11.25458
1109.282, 11.36544
1109.764, 12.77115
1110.246, 13.66535
1110.728, 13.61703
1111.210, 13.44841
1111.692, 13.04924
1112.174, 12.80901
1112.656, 12.94239
1113.139, 13.31583
1113.621, 13.85566
1114.103, 14.52586
1114.585, 14.98552
1115.067, 15.16885
1115.549, 15.25420
1116.031, 15.24131
1116.513, 15.11993
1116.995, 14.60861
1117.478, 14.29432
1117.960, 14.98546
1118.442, 16.21018
1118.924, 16.36319
1119.406, 14.94838
1119.888, 14.46851
1120.370, 15.49437
1120.852, 16.25863
1121.335, 16.28983
1121.817, 16.14210
1122.299, 16.08822
1122.781, 16.18899
1123.263, 16.68302
1123.745, 17.59446
1124.227, 17.41441
1124.709, 15.62202
1125.192, 14.67690
1125.674, 15.18113
1126.156, 15.60141
1126.638, 15.14686
1127.120, 14.51958
1127.602, 14.59976
1128.084, 15.19356
1128.566, 15.32628
1129.048, 14.94494
1129.531, 14.50594
1130.013, 13.97042
1130.495, 13.89545
1130.977, 14.53426
1131.459, 15.15530
1131.941, 15.15675
1132.423, 14.75986
1132.905, 14.39443
1133.387, 14.06545
1133.870, 13.85191
1134.352, 13.75027
1134.834, 13.64318
1135.316, 13.51124
1135.798, 13.64577
1136.280, 14.23738
1136.762, 14.64432
1137.244, 13.84815
1137.727, 12.40050
1138.209, 12.05682
1138.691, 12.56214
1139.173, 12.85804
1139.655, 12.86584
1140.137, 12.85256
1140.619, 12.92064
1141.101, 13.12704
1141.583, 13.58808
1142.066, 13.97971
1142.548, 13.64664
1143.030, 12.96274
1143.512, 12.67676
1143.994, 12.71174
1144.476, 12.77160
1144.958, 12.79162
1145.440, 12.83971
1145.922, 12.95689
1146.405, 13.00635
1146.887, 12.73105
1147.369, 12.44329
1147.851, 12.56212
1148.333, 12.86210
1148.815, 13.02358
1149.297, 13.05123
1149.779, 13.02997
1150.262, 13.00048
1150.744, 13.09863
1151.226, 13.49877
1151.708, 13.88600
1152.190, 14.01950
1152.672, 14.09068
1153.154, 14.36860
1153.636, 14.62863
1154.119, 14.36079
1154.601, 13.71457
1155.083, 13.61150
1155.565, 14.55578
1156.047, 15.15238
1156.529, 14.56485
1157.011, 14.02314
1157.493, 14.16709
1157.975, 14.48505
1158.458, 14.51321
1158.940, 14.39061
1159.422, 14.48941
1159.904, 14.86348
1160.386, 15.09451
1160.868, 15.14782
1161.350, 15.05133
1161.832, 14.50549
1162.314, 14.21324
1162.797, 14.77430
1163.279, 15.42087
1163.761, 15.29117
1164.243, 14.54384
1164.725, 13.89389
1165.207, 13.23579
1165.689, 13.08620
1166.171, 13.65674
1166.654, 14.12797
1167.136, 14.35700
1167.618, 14.25471
1168.100, 13.66411
1168.582, 12.93754
1169.064, 12.69955
1169.546, 12.88795
1170.028, 12.94305
1170.510, 12.86182
1170.993, 12.79980
1171.475, 12.77557
1171.957, 12.55693
1172.439, 12.04716
1172.921, 11.53368
1173.403, 11.26551
1173.885, 11.19773
1174.367, 11.30301
1174.849, 11.52087
1175.332, 11.62833
1175.814, 11.65598
1176.296, 11.76859
1176.778, 11.97375
1177.260, 12.13812
1177.742, 12.19717
1178.224, 12.16529
1178.706, 12.05366
1179.189, 11.86208
1179.671, 11.54022
1180.153, 11.17341
1180.635, 10.82344
1181.117, 10.55910
1181.599, 10.51522
1182.081, 10.70073
1182.563, 11.03698
1183.046, 11.60604
1183.528, 11.91422
1184.010, 11.34202
1184.492, 10.78674
1184.974, 11.05270
1185.456, 11.48887
1185.938, 11.22051
1186.420, 10.58570
1186.902, 10.63939
1187.385, 11.60229
1187.867, 12.06458
1188.349, 11.12262
1188.831, 10.61004
1189.313, 11.40376
1189.795, 12.05384
1190.277, 11.61504
1190.759, 10.90471
1191.241, 10.72727
1191.724, 10.97091
1192.206, 11.20992
1192.688, 11.47512
1193.170, 11.60193
1193.652, 11.56181
1194.134, 11.45285
1194.616, 11.25399
1195.098, 11.12687
1195.581, 11.16934
1196.063, 11.32628
1196.545, 11.58376
1197.027, 11.82854
1197.509, 11.35154
1197.991, 10.24477
1198.473, 10.19214
1198.955, 11.19921
1199.438, 11.95272
1199.920, 12.08389
1200.402, 11.80484
1200.884, 11.22105
1201.366, 10.66472
1201.848, 10.62702
1202.330, 10.88668
1202.812, 11.19827
1203.294, 11.40093
1203.776, 10.92410
1204.259, 10.06860
1204.741, 9.877085
1205.223, 10.55453
1205.705, 11.20108
1206.187, 11.31815
1206.669, 11.23128
1207.151, 10.97110
1207.633, 10.80829
1208.116, 11.13755
1208.598, 11.54412
1209.080, 11.40273
1209.562, 10.94804
1210.044, 10.97490
1210.526, 11.67669
1211.008, 12.07220
1211.490, 11.91012
1211.973, 11.52483
1212.455, 10.53488
1212.937, 9.889759
1213.419, 10.12607
1213.901, 10.75950
1214.383, 11.45585
1214.865, 12.10401
1215.347, 12.29927
1215.829, 11.97252
1216.312, 11.62708
1216.794, 11.20657
1217.276, 11.14333
1217.758, 11.60344
1218.240, 11.77409
1218.722, 11.21013
1219.204, 10.52870
1219.686, 10.40969
1220.168, 10.70404
1220.651, 11.14444
1221.133, 11.65305
1221.615, 11.88721
1222.097, 11.88508
1222.579, 11.85943
1223.061, 11.84779
1223.543, 11.74795
1224.025, 11.51277
1224.508, 11.35828
1224.990, 11.53365
1225.472, 11.80575
1225.954, 12.12820
1226.436, 12.25582
1226.918, 11.64268
1227.400, 10.77314
1227.882, 10.44791
1228.365, 10.71094
1228.847, 11.18803
1229.329, 11.92136
1229.811, 12.24045
1230.293, 11.54954
1230.775, 10.99087
1231.257, 11.08063
1231.739, 11.26193
1232.221, 11.18570
1232.703, 10.98577
1233.186, 10.78925
1233.668, 10.62127
1234.150, 10.69705
1234.632, 11.19220
1235.114, 11.15032
1235.596, 10.36799
1236.078, 10.05931
1236.560, 10.58011
1237.043, 11.04112
1237.525, 10.90763
1238.007, 10.62548
1238.489, 10.81606
1238.971, 11.23842
1239.453, 11.24777
1239.935, 10.92115
1240.417, 10.29904
1240.900, 9.601072
1241.382, 9.627062
1241.864, 10.40075
1242.346, 11.16035
1242.828, 11.54330
1243.310, 11.67946
1243.792, 11.60015
1244.274, 11.40344
1244.756, 11.06723
1245.239, 10.74714
1245.721, 10.49765
1246.203, 10.42318
1246.685, 10.88524
1247.167, 11.70092
1247.649, 11.79462
1248.131, 10.56260
1248.613, 10.01729
1249.095, 11.19518
1249.578, 11.84651
1250.060, 11.21492
1250.542, 10.58479
1251.024, 10.65184
1251.506, 10.94756
1251.988, 10.88913
1252.470, 10.61236
1252.952, 10.70363
1253.435, 11.17915
1253.917, 11.31166
1254.399, 11.10471
1254.881, 10.94356
1255.363, 10.90496
1255.845, 10.99516
1256.327, 11.21342
1256.809, 11.43834
1257.292, 11.56334
1257.774, 11.61138
1258.256, 11.60454
1258.738, 11.54729
1259.220, 11.32027
1259.702, 11.11932
1260.184, 11.42898
1260.666, 12.05713
1261.148, 12.25943
1261.630, 11.83123
1262.113, 11.38342
1262.595, 11.13059
1263.077, 10.90190
1263.559, 10.38895
1264.041, 10.20964
1264.523, 11.14052
1265.005, 12.07784
1265.487, 11.93097
1265.970, 11.17051
1266.452, 10.88379
1266.934, 11.07891
1267.416, 11.17129
1267.898, 11.16391
1268.380, 10.96945
1268.862, 10.55815
1269.344, 10.36132
1269.827, 10.51890
1270.309, 10.96629
1270.791, 11.69840
1271.273, 12.32133
1271.755, 12.12245
1272.237, 11.54794
1272.719, 11.34887
1273.201, 11.41912
1273.683, 11.69873
1274.166, 12.03608
1274.648, 12.15939
1275.130, 12.02495
1275.612, 11.70440
1276.094, 11.12559
1276.576, 10.79882
1277.058, 11.17638
1277.540, 11.49878
1278.022, 11.36817
1278.505, 11.20352
1278.987, 11.28438
1279.469, 11.48786
1279.951, 11.74798
1280.433, 11.98646
1280.915, 11.83181
1281.397, 11.20019
1281.879, 10.86270
1282.362, 10.84432
1282.844, 10.82202
1283.326, 10.74200
1283.808, 10.80078
1284.290, 11.07857
1284.772, 11.39610
1285.254, 11.60268
1285.736, 11.69938
##END=



