##NAMES=Friedelite
##RRUFFID=R070085
##IDEAL CHEMISTRY=Mn^2+^_8_Si_6_O_15_(OH)_10_
##LOCALITY=Sterling Hill mine, Ogdensburg, New Jersey, USA
##OWNER=RRUFF
##SOURCE=Bob Jenkins
##DESCRIPTION=Orange-brown coarsely crystalline
##STATUS=The identification of this mineral is confirmed by single-crystal X-ray diffraction and chemical analysis.
##URL=rruff.info/R070085
##MEASURED CHEMISTRY=(Mn^2+^_7.02_Fe^2+^_0.49_Mg_0.36_Zn_0.11_Al_0.02_)_Σ=8_(Si_5.98_Al_0.02_)_Σ=6_O_15_((OH)_9.13_Cl_0.87_)_Σ=10_; OH estimated by difference and charge balance
174.3428, 2095.090
174.8250, 2083.055
175.3071, 2096.119
175.7892, 2120.208
176.2713, 2137.296
176.7534, 2144.529
177.2355, 2145.937
177.7177, 2143.026
178.1998, 2136.642
178.6819, 2131.713
179.1640, 2131.185
179.6461, 2132.252
180.1283, 2130.292
180.6104, 2124.121
181.0925, 2117.827
181.5746, 2116.521
182.0567, 2118.590
182.5388, 2118.631
183.0210, 2111.229
183.5031, 2102.149
183.9852, 2102.265
184.4673, 2114.837
184.9494, 2126.865
185.4315, 2124.695
185.9137, 2113.536
186.3958, 2104.880
186.8779, 2104.311
187.3600, 2107.581
187.8421, 2108.084
188.3242, 2105.332
188.8064, 2100.953
189.2885, 2092.598
189.7706, 2083.429
190.2527, 2080.213
190.7348, 2086.954
191.2169, 2100.092
191.6991, 2116.447
192.1812, 2138.312
192.6633, 2154.612
193.1454, 2150.333
193.6275, 2137.057
194.1096, 2132.139
194.5918, 2146.108
195.0739, 2167.181
195.5560, 2176.030
196.0381, 2168.856
196.5202, 2164.821
197.0023, 2182.056
197.4845, 2206.501
197.9666, 2221.391
198.4487, 2221.255
198.9308, 2210.428
199.4129, 2190.777
199.8950, 2158.812
200.3771, 2134.611
200.8593, 2131.426
201.3414, 2139.672
201.8235, 2153.066
202.3056, 2173.076
202.7877, 2191.187
203.2698, 2195.671
203.7520, 2184.846
204.2341, 2170.885
204.7162, 2155.330
205.1983, 2140.155
205.6804, 2127.447
206.1625, 2117.847
206.6447, 2109.594
207.1268, 2100.535
207.6089, 2090.477
208.0910, 2081.460
208.5731, 2073.530
209.0552, 2067.403
209.5374, 2064.457
210.0195, 2065.155
210.5016, 2066.363
210.9837, 2063.975
211.4658, 2057.687
211.9479, 2054.771
212.4301, 2060.572
212.9122, 2067.526
213.3943, 2069.437
213.8764, 2065.885
214.3585, 2061.672
214.8406, 2061.660
215.3228, 2065.699
215.8049, 2067.544
216.2870, 2065.279
216.7691, 2061.307
217.2512, 2056.180
217.7333, 2050.355
218.2155, 2046.485
218.6976, 2049.509
219.1797, 2058.002
219.6618, 2058.618
220.1439, 2044.811
220.6260, 2029.250
221.1082, 2019.515
221.5903, 2014.900
222.0724, 2012.390
222.5545, 2008.893
223.0366, 2005.574
223.5187, 2008.829
224.0009, 2022.819
224.4830, 2037.081
224.9651, 2048.532
225.4472, 2055.974
225.9293, 2056.290
226.4114, 2043.367
226.8936, 2022.869
227.3757, 2010.843
227.8578, 2009.674
228.3399, 2011.979
228.8220, 2014.012
229.3041, 2016.706
229.7863, 2022.053
230.2684, 2032.792
230.7505, 2044.879
231.2326, 2050.174
231.7147, 2046.654
232.1968, 2043.186
232.6790, 2045.816
233.1611, 2049.993
233.6432, 2049.493
234.1253, 2039.797
234.6074, 2030.648
235.0895, 2038.673
235.5717, 2067.213
236.0538, 2087.651
236.5359, 2080.135
237.0180, 2064.383
237.5001, 2059.070
237.9822, 2068.231
238.4644, 2082.297
238.9465, 2092.955
239.4286, 2100.220
239.9107, 2106.587
240.3928, 2111.751
240.8749, 2117.044
241.3571, 2124.301
241.8392, 2133.718
242.3213, 2142.114
242.8034, 2145.973
243.2855, 2146.297
243.7676, 2148.865
244.2497, 2154.801
244.7319, 2163.346
245.2140, 2174.765
245.6961, 2188.599
246.1782, 2200.825
246.6603, 2207.968
247.1424, 2212.046
247.6246, 2218.797
248.1067, 2229.601
248.5888, 2241.240
249.0709, 2248.482
249.5530, 2253.913
250.0351, 2265.990
250.5173, 2295.624
250.9994, 2330.646
251.4815, 2349.356
251.9636, 2347.748
252.4457, 2348.379
252.9278, 2369.751
253.4100, 2404.040
253.8921, 2435.077
254.3742, 2460.308
254.8563, 2481.029
255.3384, 2494.329
255.8205, 2500.469
256.3027, 2515.845
256.7848, 2555.980
257.2669, 2607.217
257.7490, 2639.602
258.2311, 2644.758
258.7133, 2644.305
259.1954, 2651.416
259.6775, 2664.522
260.1596, 2676.521
260.6417, 2683.632
261.1238, 2690.011
261.6060, 2704.002
262.0880, 2727.871
262.5702, 2748.887
263.0523, 2756.997
263.5344, 2759.349
264.0165, 2773.620
264.4986, 2807.740
264.9807, 2841.352
265.4629, 2843.579
265.9450, 2813.253
266.4271, 2786.223
266.9092, 2770.590
267.3913, 2760.787
267.8734, 2751.145
268.3556, 2740.836
268.8377, 2731.061
269.3198, 2723.014
269.8019, 2716.886
270.2840, 2710.499
270.7661, 2706.325
271.2483, 2699.863
271.7304, 2686.964
272.2125, 2668.415
272.6946, 2648.963
273.1767, 2631.646
273.6588, 2616.008
274.1410, 2598.517
274.6231, 2578.024
275.1052, 2557.395
275.5873, 2535.387
276.0694, 2514.009
276.5515, 2498.067
277.0337, 2490.235
277.5158, 2487.137
277.9979, 2479.837
278.4800, 2463.002
278.9621, 2449.660
279.4442, 2443.883
279.9264, 2440.804
280.4085, 2436.210
280.8906, 2428.725
281.3727, 2417.523
281.8548, 2400.414
282.3369, 2371.865
282.8191, 2352.383
283.3012, 2344.413
283.7833, 2342.578
284.2654, 2347.202
284.7475, 2355.894
285.2296, 2361.133
285.7118, 2354.632
286.1939, 2334.626
286.6760, 2324.668
287.1581, 2334.914
287.6402, 2343.968
288.1223, 2343.855
288.6045, 2337.405
289.0866, 2331.182
289.5687, 2329.353
290.0508, 2330.569
290.5329, 2328.372
291.0150, 2318.402
291.4972, 2310.882
291.9793, 2307.823
292.4614, 2307.498
292.9435, 2308.950
293.4256, 2311.742
293.9077, 2314.123
294.3899, 2312.104
294.8720, 2302.451
295.3541, 2297.243
295.8362, 2300.797
296.3183, 2306.501
296.8004, 2308.471
297.2826, 2307.208
297.7647, 2309.835
298.2468, 2327.504
298.7289, 2361.448
299.2110, 2383.025
299.6931, 2381.472
300.1753, 2378.628
300.6574, 2385.150
301.1395, 2398.363
301.6216, 2411.037
302.1037, 2418.790
302.5858, 2423.126
303.0680, 2427.584
303.5501, 2430.824
304.0322, 2437.659
304.5143, 2455.369
304.9964, 2476.000
305.4785, 2489.527
305.9607, 2491.120
306.4428, 2489.464
306.9249, 2493.614
307.4070, 2503.563
307.8891, 2516.728
308.3712, 2534.405
308.8534, 2553.290
309.3355, 2568.776
309.8176, 2580.377
310.2997, 2593.128
310.7818, 2611.333
311.2639, 2632.847
311.7461, 2652.602
312.2282, 2670.002
312.7103, 2684.708
313.1924, 2695.734
313.6745, 2703.556
314.1566, 2709.777
314.6388, 2712.085
315.1209, 2714.609
315.6030, 2721.131
316.0851, 2731.808
316.5672, 2746.283
317.0493, 2766.697
317.5315, 2790.370
318.0136, 2804.188
318.4957, 2799.792
318.9778, 2795.476
319.4599, 2797.425
319.9420, 2804.583
320.4242, 2816.202
320.9063, 2832.535
321.3884, 2849.839
321.8705, 2860.593
322.3526, 2863.298
322.8347, 2861.466
323.3169, 2853.782
323.7990, 2842.488
324.2811, 2827.734
324.7632, 2810.368
325.2453, 2794.570
325.7274, 2785.973
326.2096, 2787.304
326.6917, 2775.845
327.1738, 2746.714
327.6559, 2711.620
328.1380, 2671.319
328.6201, 2628.674
329.1023, 2587.778
329.5844, 2551.291
330.0665, 2518.079
330.5486, 2484.439
331.0307, 2448.221
331.5128, 2414.888
331.9950, 2382.333
332.4771, 2354.233
332.9592, 2335.416
333.4413, 2326.878
333.9234, 2323.749
334.4055, 2320.608
334.8877, 2317.742
335.3698, 2313.308
335.8519, 2309.009
336.3340, 2301.148
336.8161, 2285.383
337.2982, 2263.820
337.7804, 2243.679
338.2625, 2230.334
338.7446, 2222.128
339.2267, 2212.669
339.7088, 2199.841
340.1909, 2191.238
340.6731, 2198.930
341.1552, 2210.986
341.6373, 2209.666
342.1194, 2185.431
342.6015, 2156.908
343.0836, 2142.803
343.5658, 2141.817
344.0479, 2142.530
344.5300, 2143.072
345.0121, 2141.506
345.4942, 2133.625
345.9763, 2118.392
346.4584, 2106.839
346.9406, 2105.740
347.4227, 2109.431
347.9048, 2109.305
348.3869, 2104.053
348.8690, 2099.156
349.3511, 2100.403
349.8333, 2107.694
350.3154, 2109.142
350.7975, 2096.923
351.2796, 2086.719
351.7617, 2086.557
352.2438, 2094.686
352.7260, 2108.200
353.2081, 2126.585
353.6902, 2145.224
354.1723, 2151.329
354.6544, 2129.360
355.1365, 2113.787
355.6187, 2106.067
356.1008, 2103.853
356.5829, 2106.368
357.0650, 2112.840
357.5471, 2121.141
358.0292, 2129.118
358.5114, 2136.699
358.9935, 2144.292
359.4756, 2154.023
359.9577, 2161.546
360.4398, 2163.548
360.9219, 2162.594
361.4041, 2163.912
361.8862, 2171.103
362.3683, 2180.273
362.8504, 2180.112
363.3325, 2165.151
363.8146, 2156.032
364.2968, 2164.056
364.7789, 2175.993
365.2610, 2180.810
365.7431, 2176.973
366.2252, 2174.314
366.7073, 2183.379
367.1895, 2201.622
367.6716, 2214.947
368.1537, 2221.385
368.6358, 2223.545
369.1179, 2218.179
369.6000, 2209.501
370.0822, 2210.018
370.5643, 2235.667
371.0464, 2263.242
371.5285, 2263.767
372.0106, 2241.270
372.4927, 2228.703
372.9749, 2244.301
373.4570, 2276.671
373.9391, 2298.588
374.4212, 2307.946
374.9033, 2314.152
375.3854, 2319.580
375.8676, 2323.050
376.3497, 2320.896
376.8318, 2313.053
377.3139, 2307.291
377.7960, 2312.521
378.2781, 2330.780
378.7603, 2342.767
379.2424, 2347.630
379.7245, 2348.395
380.2066, 2340.632
380.6887, 2330.441
381.1708, 2329.098
381.6530, 2342.589
382.1351, 2365.400
382.6172, 2383.767
383.0993, 2397.370
383.5814, 2406.916
384.0635, 2412.224
384.5457, 2414.317
385.0278, 2411.593
385.5099, 2405.203
385.9920, 2400.790
386.4741, 2404.507
386.9562, 2415.368
387.4384, 2424.082
387.9205, 2430.854
388.4026, 2435.016
388.8847, 2434.897
389.3668, 2432.528
389.8489, 2429.905
390.3311, 2425.179
390.8132, 2425.190
391.2953, 2442.952
391.7774, 2475.460
392.2595, 2495.319
392.7416, 2490.238
393.2238, 2475.945
393.7059, 2474.397
394.1880, 2485.674
394.6701, 2494.912
395.1522, 2495.986
395.6343, 2494.803
396.1165, 2497.827
396.5986, 2505.080
397.0807, 2512.286
397.5628, 2516.686
398.0449, 2518.483
398.5270, 2519.009
399.0092, 2511.931
399.4913, 2511.493
399.9734, 2530.451
400.4555, 2552.921
400.9376, 2558.272
401.4197, 2541.659
401.9019, 2517.747
402.3840, 2505.773
402.8661, 2508.347
403.3482, 2511.374
403.8303, 2516.276
404.3124, 2520.218
404.7946, 2523.640
405.2767, 2525.178
405.7588, 2521.286
406.2409, 2508.270
406.7230, 2492.798
407.2051, 2491.941
407.6873, 2510.716
408.1694, 2522.363
408.6515, 2518.030
409.1336, 2504.357
409.6157, 2483.683
410.0978, 2456.407
410.5800, 2432.532
411.0621, 2419.629
411.5442, 2413.673
412.0263, 2406.991
412.5084, 2399.079
412.9905, 2389.822
413.4727, 2380.105
413.9548, 2368.769
414.4369, 2351.786
414.9190, 2322.179
415.4011, 2295.126
415.8832, 2275.954
416.3654, 2263.705
416.8475, 2259.768
417.3296, 2264.551
417.8117, 2268.137
418.2938, 2255.395
418.7759, 2218.375
419.2581, 2194.191
419.7402, 2192.093
420.2223, 2191.665
420.7044, 2182.503
421.1865, 2167.531
421.6686, 2155.281
422.1508, 2151.061
422.6329, 2150.517
423.1150, 2141.401
423.5971, 2119.927
424.0792, 2099.361
424.5613, 2075.805
425.0435, 2058.463
425.5256, 2059.628
426.0077, 2077.093
426.4898, 2089.605
426.9719, 2073.153
427.4540, 2040.561
427.9361, 2034.700
428.4182, 2063.519
428.9004, 2087.884
429.3825, 2079.857
429.8646, 2054.078
430.3467, 2042.371
430.8288, 2054.179
431.3109, 2065.181
431.7931, 2059.151
432.2752, 2044.908
432.7573, 2038.990
433.2394, 2045.348
433.7215, 2056.632
434.2036, 2065.712
434.6858, 2072.579
435.1679, 2075.925
435.6500, 2075.986
436.1321, 2072.756
436.6142, 2061.196
437.0963, 2047.453
437.5785, 2042.883
438.0606, 2052.551
438.5427, 2068.565
439.0248, 2074.688
439.5069, 2065.073
439.9890, 2063.113
440.4712, 2083.731
440.9533, 2100.359
441.4354, 2094.815
441.9175, 2073.573
442.3996, 2057.898
442.8817, 2062.882
443.3639, 2078.528
443.8460, 2082.223
444.3281, 2071.967
444.8102, 2070.714
445.2923, 2095.372
445.7744, 2126.641
446.2566, 2135.587
446.7387, 2118.958
447.2208, 2101.276
447.7029, 2091.678
448.1850, 2085.882
448.6671, 2077.246
449.1493, 2065.802
449.6314, 2058.758
450.1135, 2062.226
450.5956, 2074.242
451.0777, 2082.147
451.5598, 2081.260
452.0420, 2082.395
452.5241, 2090.587
453.0062, 2099.486
453.4883, 2101.565
453.9704, 2096.080
454.4525, 2089.543
454.9347, 2089.360
455.4168, 2095.619
455.8989, 2099.242
456.3810, 2098.211
456.8631, 2097.378
457.3452, 2102.187
457.8274, 2106.788
458.3095, 2101.522
458.7916, 2081.659
459.2737, 2061.748
459.7558, 2058.970
460.2379, 2069.494
460.7201, 2073.739
461.2022, 2067.588
461.6843, 2056.588
462.1664, 2044.915
462.6485, 2032.603
463.1306, 2019.798
463.6128, 2002.355
464.0949, 1988.583
464.5770, 1985.333
465.0591, 1988.986
465.5412, 1992.193
466.0233, 1992.245
466.5055, 1990.797
466.9876, 1990.446
467.4697, 1991.759
467.9518, 1992.412
468.4339, 1988.808
468.9160, 1988.193
469.3982, 1997.836
469.8803, 2012.301
470.3624, 2019.929
470.8445, 2013.956
471.3266, 2002.596
471.8087, 2000.796
472.2909, 2009.466
472.7730, 2021.592
473.2551, 2039.736
473.7372, 2056.656
474.2193, 2068.690
474.7014, 2075.300
475.1836, 2073.598
475.6657, 2051.764
476.1478, 2028.620
476.6299, 2025.554
477.1120, 2040.174
477.5941, 2058.484
478.0763, 2075.321
478.5584, 2090.292
479.0405, 2101.940
479.5226, 2106.091
480.0047, 2116.851
480.4868, 2146.010
480.9690, 2172.080
481.4511, 2177.983
481.9332, 2168.126
482.4153, 2156.481
482.8974, 2150.817
483.3795, 2152.060
483.8617, 2164.301
484.3438, 2192.181
484.8259, 2218.219
485.3080, 2238.530
485.7901, 2256.499
486.2722, 2272.132
486.7544, 2286.536
487.2365, 2304.230
487.7186, 2334.575
488.2007, 2366.600
488.6828, 2379.655
489.1649, 2374.183
489.6471, 2369.615
490.1292, 2375.387
490.6113, 2385.713
491.0934, 2389.754
491.5755, 2388.631
492.0576, 2379.583
492.5398, 2356.948
493.0219, 2330.283
493.5040, 2309.515
493.9861, 2292.271
494.4682, 2266.078
494.9503, 2221.991
495.4325, 2168.096
495.9146, 2133.220
496.3967, 2128.788
496.8788, 2119.497
497.3609, 2097.482
497.8430, 2073.194
498.3252, 2053.034
498.8073, 2036.825
499.2894, 2020.692
499.7715, 1999.596
500.2536, 1978.718
500.7357, 1969.849
501.2179, 1973.320
501.7000, 1975.105
502.1821, 1969.424
502.6642, 1959.892
503.1463, 1952.176
503.6284, 1946.576
504.1106, 1940.647
504.5927, 1931.104
505.0748, 1923.343
505.5569, 1923.488
506.0390, 1929.446
506.5211, 1933.705
507.0033, 1931.959
507.4854, 1926.596
507.9675, 1923.100
508.4496, 1919.726
508.9317, 1922.266
509.4138, 1938.877
509.8959, 1954.050
510.3781, 1957.845
510.8602, 1952.912
511.3423, 1948.927
511.8244, 1952.359
512.3065, 1957.672
512.7886, 1954.118
513.2708, 1942.051
513.7529, 1935.125
514.2350, 1939.637
514.7171, 1947.041
515.1992, 1946.678
515.6813, 1938.754
516.1635, 1928.788
516.6456, 1913.746
517.1277, 1900.392
517.6098, 1895.129
518.0919, 1894.718
518.5740, 1892.457
519.0562, 1885.535
519.5383, 1874.492
520.0204, 1858.566
520.5025, 1833.582
520.9846, 1818.528
521.4667, 1823.737
521.9489, 1828.945
522.4310, 1826.745
522.9131, 1819.554
523.3952, 1811.901
523.8773, 1805.237
524.3594, 1799.458
524.8416, 1794.735
525.3237, 1790.875
525.8058, 1787.088
526.2879, 1783.333
526.7700, 1779.058
527.2521, 1773.272
527.7343, 1766.208
528.2164, 1761.238
528.6985, 1760.814
529.1806, 1759.535
529.6627, 1752.721
530.1448, 1745.178
530.6270, 1744.762
531.1091, 1752.380
531.5912, 1760.397
532.0733, 1760.335
532.5554, 1752.437
533.0375, 1745.941
533.5197, 1741.771
534.0018, 1737.460
534.4839, 1727.054
534.9660, 1718.961
535.4481, 1724.528
535.9302, 1745.976
536.4124, 1766.617
536.8945, 1777.802
537.3766, 1780.058
537.8587, 1769.937
538.3408, 1747.969
538.8229, 1731.100
539.3051, 1730.211
539.7872, 1740.000
540.2693, 1744.692
540.7514, 1738.616
541.2335, 1737.098
541.7156, 1745.764
542.1978, 1755.058
542.6799, 1758.276
543.1620, 1755.953
543.6441, 1751.974
544.1262, 1748.700
544.6083, 1745.214
545.0905, 1738.273
545.5726, 1726.563
546.0547, 1720.246
546.5368, 1725.453
547.0189, 1731.646
547.5010, 1729.017
547.9832, 1719.427
548.4653, 1711.379
548.9474, 1705.293
549.4295, 1703.266
549.9116, 1711.481
550.3937, 1724.450
550.8759, 1728.176
551.3580, 1718.554
551.8401, 1705.823
552.3222, 1702.700
552.8043, 1710.396
553.2864, 1715.678
553.7686, 1713.215
554.2507, 1714.476
554.7328, 1726.892
555.2149, 1741.847
555.6970, 1749.655
556.1791, 1748.060
556.6613, 1741.563
557.1434, 1730.864
557.6255, 1718.496
558.1076, 1712.762
558.5897, 1714.509
559.0718, 1718.988
559.5540, 1725.497
560.0361, 1731.940
560.5182, 1732.390
561.0003, 1724.751
561.4824, 1717.727
561.9645, 1710.018
562.4467, 1705.477
562.9288, 1707.033
563.4109, 1714.422
563.8930, 1728.172
564.3751, 1749.500
564.8572, 1770.956
565.3394, 1774.027
565.8215, 1754.265
566.3036, 1738.873
566.7857, 1731.115
567.2678, 1728.379
567.7499, 1729.648
568.2321, 1734.171
568.7142, 1740.028
569.1963, 1746.997
569.6784, 1754.774
570.1605, 1766.526
570.6426, 1778.163
571.1248, 1779.701
571.6069, 1769.511
572.0890, 1757.715
572.5711, 1753.667
573.0532, 1756.871
573.5353, 1759.237
574.0175, 1755.552
574.4996, 1758.610
574.9817, 1777.264
575.4638, 1797.945
575.9459, 1810.008
576.4280, 1812.455
576.9102, 1809.725
577.3923, 1801.476
577.8744, 1791.734
578.3565, 1787.794
578.8386, 1789.538
579.3207, 1794.842
579.8029, 1803.617
580.2850, 1814.288
580.7671, 1825.251
581.2492, 1837.003
581.7313, 1845.838
582.2134, 1847.172
582.6956, 1850.463
583.1777, 1862.354
583.6598, 1877.886
584.1419, 1890.906
584.6240, 1899.090
585.1061, 1901.604
585.5883, 1892.861
586.0704, 1874.599
586.5525, 1872.083
587.0346, 1891.528
587.5167, 1908.179
587.9988, 1904.575
588.4810, 1894.803
588.9631, 1903.310
589.4452, 1935.476
589.9273, 1962.889
590.4094, 1971.038
590.8915, 1975.513
591.3737, 1990.469
591.8558, 2014.330
592.3379, 2038.864
592.8200, 2060.123
593.3021, 2080.207
593.7842, 2103.396
594.2664, 2130.316
594.7485, 2157.753
595.2306, 2184.831
595.7127, 2213.852
596.1948, 2243.667
596.6769, 2276.645
597.1591, 2317.213
597.6412, 2367.911
598.1233, 2422.084
598.6054, 2478.721
599.0875, 2534.806
599.5696, 2581.631
600.0518, 2620.130
600.5339, 2666.077
601.0160, 2730.103
601.4981, 2807.807
601.9802, 2884.292
602.4623, 2949.222
602.9445, 3033.053
603.4266, 3145.796
603.9087, 3267.478
604.3908, 3387.670
604.8729, 3508.090
605.3550, 3633.526
605.8372, 3765.018
606.3193, 3904.925
606.8014, 4057.618
607.2835, 4220.080
607.7656, 4382.540
608.2477, 4543.192
608.7299, 4710.736
609.2120, 4893.837
609.6941, 5090.101
610.1762, 5286.973
610.6583, 5489.965
611.1404, 5687.564
611.6226, 5885.389
612.1047, 6072.539
612.5868, 6242.580
613.0689, 6395.184
613.5510, 6530.875
614.0331, 6650.960
614.5153, 6752.691
614.9974, 6838.528
615.4795, 6905.536
615.9616, 6925.426
616.4437, 6890.990
616.9258, 6812.454
617.4080, 6693.794
617.8901, 6536.588
618.3722, 6363.617
618.8543, 6178.031
619.3364, 5973.919
619.8185, 5735.056
620.3007, 5488.688
620.7828, 5254.183
621.2649, 5034.682
621.7470, 4823.953
622.2291, 4619.495
622.7112, 4418.204
623.1934, 4209.469
623.6755, 3992.100
624.1576, 3792.979
624.6397, 3616.972
625.1218, 3461.845
625.6039, 3325.731
626.0861, 3208.966
626.5682, 3109.597
627.0503, 3042.042
627.5324, 2974.413
628.0145, 2892.873
628.4966, 2809.930
628.9788, 2738.648
629.4609, 2680.333
629.9430, 2631.774
630.4251, 2592.827
630.9072, 2558.106
631.3893, 2511.290
631.8715, 2450.507
632.3535, 2399.521
632.8356, 2364.930
633.3177, 2338.724
633.7999, 2316.693
634.2820, 2297.829
634.7641, 2276.175
635.2462, 2247.023
635.7283, 2220.320
636.2104, 2199.949
636.6926, 2183.546
637.1747, 2168.337
637.6568, 2154.234
638.1389, 2144.228
638.6210, 2142.179
639.1031, 2142.482
639.5853, 2126.671
640.0674, 2091.564
640.5495, 2068.340
641.0316, 2068.775
641.5137, 2073.125
641.9958, 2061.896
642.4780, 2039.430
642.9601, 2024.921
643.4422, 2026.230
643.9243, 2027.532
644.4064, 2026.398
644.8885, 2020.733
645.3707, 2004.763
645.8528, 1980.818
646.3349, 1960.286
646.8170, 1951.118
647.2991, 1949.678
647.7813, 1947.864
648.2634, 1945.672
648.7455, 1943.725
649.2276, 1943.804
649.7097, 1941.094
650.1918, 1929.334
650.6740, 1911.401
651.1561, 1898.082
651.6382, 1891.276
652.1203, 1887.258
652.6024, 1888.968
653.0845, 1890.117
653.5667, 1882.401
654.0488, 1867.909
654.5309, 1856.577
655.0130, 1854.992
655.4951, 1857.418
655.9772, 1851.468
656.4594, 1836.807
656.9415, 1827.787
657.4236, 1827.854
657.9057, 1829.475
658.3878, 1827.684
658.8699, 1823.401
659.3521, 1819.831
659.8342, 1815.614
660.3163, 1814.640
660.7984, 1823.128
661.2805, 1830.666
661.7626, 1828.027
662.2448, 1817.361
662.7269, 1805.308
663.2090, 1794.935
663.6911, 1786.360
664.1732, 1781.163
664.6553, 1778.678
665.1375, 1769.209
665.6196, 1748.535
666.1017, 1737.797
666.5838, 1755.344
667.0659, 1787.025
667.5480, 1796.255
668.0302, 1772.597
668.5123, 1756.005
668.9944, 1750.013
669.4765, 1751.277
669.9586, 1764.025
670.4407, 1780.808
670.9229, 1789.129
671.4050, 1784.878
671.8871, 1775.590
672.3692, 1767.560
672.8513, 1760.923
673.3334, 1757.673
673.8156, 1758.122
674.2977, 1752.652
674.7798, 1734.318
675.2619, 1713.197
675.7440, 1705.977
676.2261, 1716.383
676.7083, 1725.527
677.1904, 1733.612
677.6725, 1740.308
678.1546, 1744.927
678.6367, 1748.422
679.1188, 1752.033
679.6010, 1755.885
680.0831, 1758.759
680.5652, 1761.976
681.0473, 1762.473
681.5294, 1752.078
682.0115, 1733.316
682.4937, 1720.118
682.9758, 1717.125
683.4579, 1717.886
683.9400, 1715.189
684.4221, 1709.115
684.9042, 1705.892
685.3864, 1703.709
685.8685, 1707.403
686.3506, 1726.487
686.8327, 1744.261
687.3148, 1743.551
687.7969, 1728.492
688.2791, 1721.157
688.7612, 1736.314
689.2433, 1754.380
689.7254, 1758.798
690.2075, 1754.382
690.6896, 1751.399
691.1718, 1750.868
691.6539, 1743.667
692.1360, 1721.094
692.6181, 1691.530
693.1002, 1685.241
693.5823, 1711.967
694.0645, 1727.173
694.5466, 1718.607
695.0287, 1707.480
695.5108, 1708.616
695.9929, 1715.788
696.4750, 1715.198
696.9572, 1700.178
697.4393, 1690.421
697.9214, 1697.050
698.4035, 1709.587
698.8856, 1720.532
699.3677, 1728.680
699.8499, 1733.101
700.3320, 1733.378
700.8141, 1732.705
701.2962, 1736.995
701.7783, 1745.562
702.2604, 1748.126
702.7426, 1743.982
703.2247, 1735.502
703.7068, 1721.332
704.1889, 1705.757
704.6710, 1695.136
705.1531, 1689.471
705.6353, 1689.059
706.1174, 1700.663
706.5995, 1709.765
707.0816, 1708.551
707.5637, 1702.853
708.0458, 1700.167
708.5280, 1701.407
709.0101, 1701.874
709.4922, 1698.077
709.9743, 1691.529
710.4564, 1683.595
710.9385, 1674.862
711.4207, 1668.234
711.9028, 1664.334
712.3849, 1663.736
712.8670, 1667.711
713.3491, 1675.286
713.8312, 1679.447
714.3134, 1679.421
714.7955, 1677.267
715.2776, 1672.458
715.7597, 1666.341
716.2418, 1657.039
716.7239, 1647.271
717.2061, 1644.280
717.6882, 1653.286
718.1703, 1660.273
718.6524, 1652.602
719.1345, 1640.766
719.6166, 1639.149
720.0988, 1646.560
720.5809, 1654.396
721.0630, 1658.579
721.5451, 1658.076
722.0272, 1649.089
722.5093, 1631.138
722.9915, 1619.140
723.4736, 1613.831
723.9557, 1612.553
724.4378, 1615.841
724.9199, 1621.280
725.4020, 1626.370
725.8842, 1631.575
726.3663, 1631.915
726.8484, 1624.118
727.3305, 1614.630
727.8126, 1602.178
728.2947, 1591.677
728.7769, 1590.404
729.2590, 1597.771
729.7411, 1604.625
730.2232, 1604.125
730.7053, 1600.591
731.1874, 1601.537
731.6696, 1605.499
732.1517, 1604.727
732.6338, 1597.535
733.1159, 1593.079
733.5980, 1600.114
734.0801, 1613.189
734.5623, 1610.133
735.0444, 1577.869
735.5265, 1559.020
736.0086, 1562.799
736.4907, 1572.564
736.9728, 1586.248
737.4550, 1599.146
737.9371, 1602.748
738.4192, 1593.887
738.9013, 1585.227
739.3834, 1583.449
739.8655, 1583.096
740.3477, 1579.177
740.8298, 1572.828
741.3119, 1566.404
741.7940, 1560.921
742.2761, 1557.765
742.7582, 1559.837
743.2404, 1565.088
743.7225, 1563.200
744.2046, 1553.292
744.6867, 1550.482
745.1688, 1562.033
745.6509, 1573.335
746.1331, 1567.829
746.6152, 1547.277
747.0973, 1537.883
747.5794, 1551.586
748.0615, 1559.567
748.5436, 1557.121
749.0258, 1550.467
749.5079, 1539.949
749.9900, 1529.056
750.4721, 1525.609
750.9542, 1534.032
751.4363, 1542.785
751.9185, 1541.830
752.4006, 1537.086
752.8827, 1537.653
753.3648, 1542.510
753.8469, 1544.452
754.3290, 1540.400
754.8112, 1535.606
755.2933, 1538.393
755.7754, 1548.120
756.2575, 1551.943
756.7396, 1548.586
757.2217, 1544.053
757.7039, 1539.829
758.1860, 1535.589
758.6681, 1528.880
759.1502, 1520.044
759.6323, 1520.968
760.1144, 1542.815
760.5966, 1559.583
761.0787, 1565.848
761.5608, 1565.011
762.0429, 1557.365
762.5250, 1545.229
763.0071, 1532.933
763.4893, 1521.447
763.9714, 1513.391
764.4535, 1512.547
764.9356, 1516.165
765.4177, 1521.123
765.8998, 1526.122
766.3820, 1525.717
766.8641, 1517.083
767.3462, 1507.310
767.8283, 1507.629
768.3104, 1518.059
768.7925, 1525.162
769.2747, 1528.689
769.7568, 1529.040
770.2389, 1523.053
770.7210, 1517.695
771.2031, 1524.248
771.6852, 1541.372
772.1674, 1545.845
772.6495, 1520.507
773.1316, 1504.286
773.6137, 1514.578
774.0958, 1530.168
774.5779, 1533.538
775.0601, 1526.938
775.5422, 1521.982
776.0243, 1524.219
776.5064, 1524.857
776.9885, 1510.632
777.4706, 1492.094
777.9528, 1488.412
778.4349, 1498.461
778.9170, 1512.275
779.3991, 1525.715
779.8812, 1535.063
780.3633, 1534.574
780.8455, 1524.868
781.3276, 1513.347
781.8097, 1497.396
782.2918, 1490.997
782.7739, 1501.989
783.2560, 1517.565
783.7382, 1526.157
784.2203, 1528.236
784.7024, 1529.755
785.1845, 1530.838
785.6666, 1531.202
786.1487, 1527.616
786.6309, 1526.301
787.1130, 1534.574
787.5951, 1547.566
788.0772, 1554.940
788.5593, 1553.339
789.0414, 1548.672
789.5236, 1540.992
790.0057, 1535.432
790.4878, 1541.924
790.9699, 1555.880
791.4520, 1563.223
791.9341, 1559.917
792.4163, 1554.249
792.8984, 1554.092
793.3805, 1558.622
793.8626, 1565.346
794.3447, 1574.456
794.8268, 1582.803
795.3090, 1589.959
795.7911, 1595.445
796.2732, 1597.954
796.7552, 1598.896
797.2374, 1603.712
797.7195, 1619.325
798.2016, 1625.374
798.6837, 1609.452
799.1658, 1598.485
799.6479, 1609.496
800.1301, 1628.706
800.6122, 1635.845
801.0943, 1627.942
801.5764, 1624.486
802.0585, 1636.825
802.5406, 1652.856
803.0228, 1668.332
803.5049, 1680.088
803.9870, 1681.721
804.4691, 1674.205
804.9512, 1665.848
805.4333, 1661.254
805.9155, 1661.132
806.3976, 1669.451
806.8797, 1683.571
807.3618, 1691.628
807.8439, 1692.455
808.3260, 1690.725
808.8082, 1688.577
809.2903, 1686.045
809.7724, 1682.871
810.2545, 1678.734
810.7366, 1677.688
811.2188, 1681.388
811.7009, 1684.903
812.1830, 1690.116
812.6651, 1691.534
813.1472, 1679.822
813.6293, 1658.158
814.1115, 1645.617
814.5936, 1654.895
815.0757, 1658.016
815.5578, 1642.619
816.0399, 1625.125
816.5220, 1618.872
817.0042, 1619.564
817.4863, 1616.562
817.9684, 1606.425
818.4505, 1594.432
818.9326, 1583.951
819.4147, 1573.959
819.8969, 1563.331
820.3790, 1552.145
820.8611, 1540.916
821.3432, 1529.783
821.8253, 1517.874
822.3074, 1503.583
822.7896, 1489.827
823.2717, 1486.035
823.7538, 1491.851
824.2359, 1492.237
824.7180, 1484.448
825.2001, 1476.090
825.6823, 1471.609
826.1644, 1469.262
826.6465, 1465.142
827.1286, 1458.282
827.6107, 1453.916
828.0928, 1452.417
828.5750, 1452.823
829.0571, 1454.965
829.5392, 1458.816
830.0213, 1468.354
830.5034, 1481.394
830.9855, 1482.185
831.4677, 1457.183
831.9498, 1433.899
832.4319, 1419.249
832.9140, 1410.935
833.3961, 1409.488
833.8782, 1412.382
834.3604, 1414.925
834.8425, 1415.537
835.3246, 1416.380
835.8067, 1419.809
836.2888, 1424.007
836.7709, 1428.067
837.2531, 1430.674
837.7352, 1426.406
838.2173, 1415.081
838.6994, 1407.068
839.1815, 1412.266
839.6636, 1423.451
840.1458, 1420.808
840.6279, 1405.273
841.1100, 1400.075
841.5921, 1409.524
842.0742, 1413.889
842.5563, 1400.514
843.0385, 1380.828
843.5206, 1375.874
844.0027, 1388.490
844.4848, 1393.313
844.9669, 1383.856
845.4490, 1378.529
845.9312, 1383.247
846.4133, 1392.637
846.8954, 1405.309
847.3775, 1419.290
847.8596, 1425.402
848.3417, 1417.254
848.8239, 1410.782
849.3060, 1412.338
849.7881, 1413.126
850.2702, 1404.434
850.7523, 1392.527
851.2344, 1389.821
851.7166, 1398.477
852.1987, 1403.844
852.6808, 1390.897
853.1629, 1377.636
853.6450, 1385.305
854.1271, 1400.839
854.6093, 1400.492
855.0914, 1384.316
855.5735, 1371.152
856.0556, 1372.134
856.5377, 1379.808
857.0198, 1384.721
857.5020, 1387.587
857.9841, 1390.430
858.4662, 1393.418
858.9483, 1397.775
859.4304, 1404.180
859.9125, 1407.731
860.3947, 1401.216
860.8768, 1387.663
861.3589, 1388.939
861.8410, 1410.391
862.3231, 1415.107
862.8052, 1390.213
863.2874, 1366.057
863.7695, 1362.166
864.2516, 1371.935
864.7337, 1380.790
865.2158, 1389.508
865.6979, 1394.727
866.1801, 1392.789
866.6622, 1392.009
867.1443, 1396.757
867.6264, 1401.684
868.1085, 1402.714
868.5906, 1399.649
869.0728, 1392.668
869.5549, 1378.334
870.0370, 1365.803
870.5191, 1356.771
871.0012, 1351.584
871.4833, 1351.116
871.9655, 1354.481
872.4476, 1362.403
872.9297, 1374.510
873.4118, 1381.365
873.8939, 1371.858
874.3760, 1359.313
874.8582, 1356.621
875.3403, 1359.881
875.8224, 1363.359
876.3045, 1365.696
876.7866, 1365.448
877.2687, 1361.231
877.7509, 1359.422
878.2330, 1375.657
878.7151, 1399.849
879.1972, 1397.710
879.6793, 1371.816
880.1614, 1350.838
880.6436, 1344.060
881.1257, 1346.690
881.6078, 1356.185
882.0899, 1368.500
882.5720, 1365.276
883.0541, 1344.189
883.5363, 1338.486
884.0184, 1356.070
884.5005, 1370.523
884.9826, 1366.168
885.4647, 1354.145
885.9468, 1353.992
886.4290, 1367.657
886.9111, 1372.080
887.3932, 1359.242
887.8753, 1352.620
888.3574, 1364.960
888.8395, 1376.464
889.3217, 1367.386
889.8038, 1345.845
890.2859, 1335.662
890.7680, 1342.568
891.2501, 1348.067
891.7322, 1349.639
892.2144, 1350.270
892.6965, 1352.786
893.1786, 1354.025
893.6607, 1348.033
894.1428, 1336.092
894.6249, 1329.731
895.1071, 1338.890
895.5892, 1344.751
896.0713, 1332.510
896.5534, 1318.265
897.0355, 1318.057
897.5176, 1327.041
897.9998, 1332.717
898.4819, 1331.637
898.9640, 1330.282
899.4461, 1337.274
899.9282, 1342.755
900.4103, 1329.009
900.8925, 1309.058
901.3746, 1311.214
901.8567, 1333.270
902.3388, 1346.725
902.8209, 1336.011
903.3030, 1318.690
903.7852, 1318.874
904.2673, 1329.029
904.7494, 1327.353
905.2315, 1316.111
905.7136, 1310.655
906.1957, 1314.917
906.6779, 1322.869
907.1600, 1330.420
907.6421, 1335.505
908.1242, 1329.590
908.6063, 1313.401
909.0884, 1312.572
909.5706, 1330.653
910.0527, 1341.531
910.5348, 1333.080
911.0169, 1319.047
911.4990, 1316.811
911.9811, 1324.709
912.4633, 1325.107
912.9454, 1314.549
913.4275, 1310.272
913.9096, 1318.631
914.3917, 1323.905
914.8738, 1314.940
915.3560, 1299.276
915.8381, 1290.310
916.3202, 1288.249
916.8023, 1292.043
917.2844, 1308.540
917.7665, 1320.202
918.2487, 1319.833
918.7308, 1317.126
919.2129, 1319.450
919.6950, 1324.557
920.1771, 1326.621
920.6592, 1325.891
921.1414, 1320.501
921.6235, 1299.930
922.1056, 1287.216
922.5877, 1300.061
923.0698, 1318.496
923.5519, 1320.459
924.0341, 1307.939
924.5162, 1298.676
924.9983, 1297.225
925.4804, 1299.264
925.9625, 1308.283
926.4446, 1315.114
926.9268, 1310.309
927.4089, 1300.446
927.8910, 1295.359
928.3731, 1296.690
928.8552, 1300.495
929.3373, 1308.215
929.8195, 1312.758
930.3016, 1303.942
930.7837, 1293.178
931.2658, 1295.133
931.7479, 1306.010
932.2300, 1315.824
932.7122, 1320.908
933.1943, 1318.975
933.6764, 1302.443
934.1585, 1283.339
934.6406, 1274.841
935.1227, 1274.442
935.6049, 1280.071
936.0870, 1289.426
936.5691, 1296.800
937.0512, 1299.562
937.5333, 1298.960
938.0154, 1293.951
938.4976, 1287.789
938.9797, 1289.803
939.4618, 1296.599
939.9439, 1294.405
940.4260, 1282.005
940.9081, 1273.043
941.3903, 1276.414
941.8724, 1285.736
942.3545, 1291.092
942.8366, 1293.573
943.3187, 1299.731
943.8008, 1308.790
944.2830, 1311.644
944.7651, 1305.803
945.2472, 1294.163
945.7293, 1277.957
946.2114, 1261.308
946.6935, 1254.231
947.1757, 1256.582
947.6578, 1266.786
948.1399, 1285.541
948.6220, 1301.012
949.1041, 1309.694
949.5862, 1309.069
950.0684, 1294.066
950.5505, 1270.319
951.0326, 1263.255
951.5147, 1275.640
951.9968, 1283.056
952.4789, 1282.052
952.9611, 1283.371
953.4432, 1291.650
953.9253, 1304.941
954.4074, 1324.161
954.8895, 1346.714
955.3716, 1341.359
955.8538, 1293.168
956.3359, 1269.448
956.8180, 1286.470
957.3001, 1308.465
957.7822, 1321.762
958.2643, 1324.690
958.7465, 1310.881
959.2286, 1279.310
959.7107, 1267.099
960.1928, 1286.152
960.6749, 1299.020
961.1570, 1296.622
961.6391, 1293.625
962.1212, 1300.267
962.6033, 1310.431
963.0854, 1312.310
963.5676, 1303.971
964.0497, 1300.932
964.5318, 1310.672
965.0139, 1314.168
965.4960, 1302.488
965.9781, 1290.062
966.4603, 1286.096
966.9424, 1287.645
967.4245, 1289.134
967.9066, 1291.045
968.3887, 1290.360
968.8708, 1281.110
969.3530, 1277.213
969.8351, 1287.850
970.3172, 1299.179
970.7993, 1299.269
971.2814, 1292.714
971.7635, 1292.791
972.2457, 1304.368
972.7278, 1307.200
973.2099, 1289.515
973.6920, 1274.761
974.1741, 1270.844
974.6563, 1272.741
975.1384, 1279.076
975.6205, 1287.310
976.1026, 1291.061
976.5847, 1288.591
977.0668, 1284.655
977.5490, 1277.835
978.0311, 1272.739
978.5132, 1273.514
978.9953, 1275.109
979.4774, 1270.194
979.9595, 1261.823
980.4417, 1261.859
980.9238, 1276.725
981.4059, 1286.737
981.8880, 1282.930
982.3701, 1276.932
982.8522, 1268.995
983.3344, 1265.861
983.8165, 1280.781
984.2986, 1307.121
984.7807, 1318.729
985.2628, 1304.625
985.7449, 1289.036
986.2271, 1275.484
986.7092, 1268.514
987.1913, 1275.621
987.6734, 1287.273
988.1555, 1293.338
988.6376, 1293.438
989.1198, 1290.704
989.6019, 1282.708
990.0840, 1281.779
990.5661, 1305.114
991.0482, 1323.656
991.5303, 1314.265
992.0125, 1292.605
992.4946, 1274.755
992.9767, 1263.940
993.4588, 1261.853
993.9409, 1271.593
994.4230, 1282.479
994.9052, 1290.591
995.3873, 1297.359
995.8694, 1306.373
996.3515, 1312.873
996.8336, 1307.271
997.3157, 1292.535
997.7979, 1285.085
998.2800, 1293.101
998.7621, 1301.618
999.2442, 1305.296
999.7263, 1305.500
1000.208, 1300.457
1000.691, 1294.253
1001.173, 1291.440
1001.655, 1292.459
1002.137, 1296.106
1002.619, 1302.615
1003.101, 1309.802
1003.583, 1318.411
1004.065, 1325.504
1004.547, 1324.707
1005.030, 1323.894
1005.512, 1337.264
1005.994, 1361.159
1006.476, 1374.690
1006.958, 1368.443
1007.440, 1358.466
1007.922, 1346.351
1008.404, 1339.221
1008.887, 1347.220
1009.369, 1359.310
1009.851, 1360.342
1010.333, 1351.902
1010.815, 1347.133
1011.297, 1350.058
1011.779, 1357.165
1012.261, 1373.768
1012.743, 1386.446
1013.226, 1381.197
1013.708, 1371.285
1014.190, 1372.491
1014.672, 1383.984
1015.154, 1395.910
1015.636, 1405.749
1016.118, 1414.700
1016.600, 1419.857
1017.083, 1428.049
1017.565, 1449.474
1018.047, 1471.149
1018.529, 1477.210
1019.011, 1470.908
1019.493, 1465.563
1019.975, 1461.527
1020.457, 1470.466
1020.939, 1505.888
1021.422, 1543.420
1021.904, 1569.152
1022.386, 1592.996
1022.868, 1623.995
1023.350, 1661.860
1023.832, 1703.110
1024.314, 1747.025
1024.796, 1794.868
1025.279, 1839.971
1025.761, 1898.347
1026.243, 1983.078
1026.725, 2077.694
1027.207, 2165.139
1027.689, 2251.020
1028.171, 2354.498
1028.653, 2481.690
1029.135, 2602.685
1029.618, 2699.155
1030.100, 2805.771
1030.582, 2939.530
1031.064, 3080.450
1031.546, 3225.518
1032.028, 3363.030
1032.510, 3471.097
1032.992, 3546.492
1033.474, 3604.358
1033.957, 3654.784
1034.439, 3675.189
1034.921, 3664.124
1035.403, 3618.703
1035.885, 3532.727
1036.367, 3413.311
1036.849, 3266.612
1037.331, 3089.597
1037.814, 2922.291
1038.296, 2763.525
1038.778, 2618.561
1039.260, 2498.738
1039.742, 2379.202
1040.224, 2237.935
1040.706, 2097.931
1041.188, 1992.909
1041.671, 1922.329
1042.153, 1854.313
1042.635, 1792.431
1043.117, 1725.544
1043.599, 1641.596
1044.081, 1572.775
1044.563, 1535.238
1045.045, 1515.080
1045.527, 1497.660
1046.010, 1482.906
1046.492, 1470.080
1046.974, 1460.092
1047.456, 1449.661
1047.938, 1440.727
1048.420, 1424.893
1048.902, 1396.565
1049.384, 1365.874
1049.866, 1340.909
1050.349, 1323.154
1050.831, 1320.968
1051.313, 1338.919
1051.795, 1339.917
1052.277, 1319.628
1052.759, 1304.627
1053.241, 1303.747
1053.723, 1302.492
1054.205, 1288.219
1054.688, 1269.288
1055.170, 1266.331
1055.652, 1278.936
1056.134, 1284.481
1056.616, 1282.983
1057.098, 1269.140
1057.580, 1241.088
1058.062, 1221.073
1058.545, 1223.843
1059.027, 1234.695
1059.509, 1228.737
1059.991, 1211.436
1060.473, 1207.877
1060.955, 1216.326
1061.437, 1227.275
1061.919, 1238.710
1062.401, 1247.827
1062.884, 1253.343
1063.366, 1254.133
1063.848, 1248.539
1064.330, 1237.796
1064.812, 1218.773
1065.294, 1198.274
1065.776, 1199.996
1066.258, 1219.698
1066.740, 1231.998
1067.223, 1228.507
1067.705, 1217.892
1068.187, 1204.352
1068.669, 1193.016
1069.151, 1192.096
1069.633, 1196.630
1070.115, 1201.225
1070.597, 1204.033
1071.080, 1200.790
1071.562, 1192.145
1072.044, 1185.996
1072.526, 1186.825
1073.008, 1190.350
1073.490, 1190.410
1073.972, 1194.289
1074.454, 1219.338
1074.937, 1246.356
1075.419, 1241.002
1075.901, 1210.344
1076.383, 1192.799
1076.865, 1202.738
1077.347, 1215.402
1077.829, 1222.491
1078.311, 1225.186
1078.793, 1221.397
1079.276, 1215.860
1079.758, 1211.296
1080.240, 1208.875
1080.722, 1210.488
1081.204, 1216.589
1081.686, 1223.781
1082.168, 1234.926
1082.650, 1242.003
1083.132, 1239.336
1083.615, 1236.300
1084.097, 1240.521
1084.579, 1246.392
1085.061, 1245.210
1085.543, 1237.179
1086.025, 1229.870
1086.507, 1219.666
1086.989, 1217.943
1087.472, 1233.883
1087.954, 1242.007
1088.436, 1228.395
1088.918, 1211.386
1089.400, 1208.724
1089.882, 1216.095
1090.364, 1218.634
1090.846, 1215.590
1091.328, 1211.504
1091.811, 1205.696
1092.293, 1202.327
1092.775, 1202.690
1093.257, 1204.277
1093.739, 1205.713
1094.221, 1206.310
1094.703, 1204.400
1095.185, 1200.589
1095.667, 1199.679
1096.150, 1201.268
1096.632, 1199.873
1097.114, 1195.046
1097.596, 1192.337
1098.078, 1194.129
1098.560, 1195.300
1099.042, 1190.479
1099.524, 1181.784
1100.007, 1169.063
1100.489, 1157.275
1100.971, 1161.611
1101.453, 1177.760
1101.935, 1190.603
1102.417, 1195.658
1102.899, 1193.613
1103.381, 1183.499
1103.864, 1172.346
1104.346, 1164.372
1104.828, 1161.182
1105.310, 1168.656
1105.792, 1179.627
1106.274, 1184.778
1106.756, 1183.040
1107.238, 1173.255
1107.720, 1153.419
1108.203, 1146.337
1108.685, 1177.534
1109.167, 1204.670
1109.649, 1201.625
1110.131, 1191.835
1110.613, 1195.005
1111.095, 1204.514
1111.577, 1205.858
1112.059, 1198.055
1112.542, 1194.756
1113.024, 1205.425
1113.506, 1208.424
1113.988, 1191.332
1114.470, 1180.489
1114.952, 1190.144
1115.434, 1204.129
1115.916, 1207.531
1116.399, 1202.980
1116.881, 1199.194
1117.363, 1195.876
1117.845, 1194.607
1118.327, 1194.937
1118.809, 1201.140
1119.291, 1216.984
1119.773, 1222.996
1120.255, 1204.432
1120.738, 1182.237
1121.220, 1191.234
1121.702, 1221.805
1122.184, 1227.304
1122.666, 1211.387
1123.148, 1203.013
1123.630, 1204.425
1124.112, 1207.293
1124.594, 1208.552
1125.077, 1208.055
1125.559, 1205.110
1126.041, 1202.350
1126.523, 1202.318
1127.005, 1205.745
1127.487, 1217.864
1127.969, 1232.781
1128.451, 1238.474
1128.934, 1234.283
1129.416, 1226.276
1129.898, 1216.781
1130.380, 1205.418
1130.862, 1187.742
1131.344, 1173.267
1131.826, 1167.368
1132.308, 1168.239
1132.791, 1180.250
1133.273, 1194.787
1133.755, 1195.805
1134.237, 1182.282
1134.719, 1172.686
1135.201, 1175.982
1135.683, 1174.599
1136.165, 1158.487
1136.647, 1148.111
1137.130, 1154.115
1137.612, 1164.793
1138.094, 1172.682
1138.576, 1176.242
1139.058, 1169.913
1139.540, 1151.703
1140.022, 1141.540
1140.504, 1140.385
1140.986, 1143.061
1141.469, 1149.370
1141.951, 1155.521
1142.433, 1159.803
1142.915, 1161.562
1143.397, 1159.575
1143.879, 1155.106
1144.361, 1151.102
1144.843, 1147.800
1145.326, 1146.434
1145.808, 1146.710
1146.290, 1146.519
1146.772, 1145.745
1147.254, 1148.281
1147.736, 1157.226
1148.218, 1163.302
1148.700, 1151.812
1149.182, 1138.128
1149.665, 1140.117
1150.147, 1149.356
1150.629, 1156.346
1151.111, 1159.715
1151.593, 1159.160
1152.075, 1154.883
1152.557, 1151.169
1153.039, 1148.838
1153.521, 1148.461
1154.004, 1149.579
1154.486, 1153.448
1154.968, 1165.445
1155.450, 1176.729
1155.932, 1177.836
1156.414, 1170.580
1156.896, 1159.165
1157.378, 1140.778
1157.861, 1133.198
1158.343, 1138.110
1158.825, 1150.477
1159.307, 1173.729
1159.789, 1185.958
1160.271, 1173.499
1160.753, 1156.933
1161.235, 1162.318
1161.718, 1180.592
1162.200, 1183.826
1162.682, 1174.392
1163.164, 1161.934
1163.646, 1148.572
1164.128, 1141.958
1164.610, 1142.620
1165.092, 1141.044
1165.574, 1131.644
1166.057, 1123.590
1166.539, 1128.022
1167.021, 1136.010
1167.503, 1140.523
1167.985, 1141.263
1168.467, 1136.143
1168.949, 1127.871
1169.431, 1121.692
1169.913, 1118.266
1170.396, 1113.878
1170.878, 1104.205
1171.360, 1099.967
1171.842, 1107.177
1172.324, 1115.516
1172.806, 1125.721
1173.288, 1130.432
1173.770, 1118.951
1174.253, 1101.916
1174.735, 1102.936
1175.217, 1122.442
1175.699, 1129.151
1176.181, 1120.951
1176.663, 1111.982
1177.145, 1103.198
1177.627, 1099.631
1178.109, 1103.402
1178.592, 1108.798
1179.074, 1111.727
1179.556, 1109.810
1180.038, 1090.313
1180.520, 1066.890
1181.002, 1079.615
1181.484, 1113.392
1181.966, 1132.063
1182.448, 1133.076
1182.931, 1127.906
1183.413, 1120.939
1183.895, 1115.551
1184.377, 1116.331
1184.859, 1115.000
1185.341, 1100.523
1185.823, 1089.276
1186.305, 1100.313
1186.788, 1115.315
1187.270, 1108.463
1187.752, 1086.325
1188.234, 1078.281
1188.716, 1089.614
1189.198, 1096.018
1189.680, 1095.490
1190.162, 1094.967
1190.645, 1095.920
1191.127, 1094.779
1191.609, 1088.899
1192.091, 1084.358
1192.573, 1088.274
1193.055, 1096.507
1193.537, 1099.170
1194.019, 1096.421
1194.501, 1085.757
1194.984, 1070.330
1195.466, 1062.733
1195.948, 1064.592
1196.430, 1072.728
1196.912, 1085.535
1197.394, 1098.055
1197.876, 1108.458
1198.358, 1113.952
1198.840, 1107.587
1199.323, 1099.943
1199.805, 1103.630
1200.287, 1109.762
1200.769, 1104.357
1201.251, 1089.699
1201.733, 1078.690
1202.215, 1072.617
1202.697, 1071.901
1203.180, 1081.945
1203.662, 1086.114
1204.144, 1078.523
1204.626, 1073.867
1205.108, 1080.370
1205.590, 1087.563
1206.072, 1083.610
1206.554, 1073.733
1207.036, 1073.071
1207.519, 1079.915
1208.001, 1083.068
1208.483, 1082.834
1208.965, 1082.349
1209.447, 1081.578
1209.929, 1075.052
1210.411, 1061.498
1210.893, 1056.351
1211.375, 1078.665
1211.858, 1098.763
1212.340, 1086.784
1212.822, 1068.099
1213.304, 1062.666
1213.786, 1064.922
1214.268, 1069.785
1214.750, 1074.423
1215.232, 1070.815
1215.714, 1054.762
1216.197, 1054.289
1216.679, 1082.814
1217.161, 1098.656
1217.643, 1094.524
1218.125, 1086.391
1218.607, 1078.472
1219.089, 1075.904
1219.571, 1084.876
1220.054, 1096.747
1220.536, 1090.752
1221.018, 1073.248
1221.500, 1072.607
1221.982, 1082.738
1222.464, 1082.263
1222.946, 1072.547
1223.428, 1068.865
1223.911, 1074.953
1224.393, 1080.981
1224.875, 1081.544
1225.357, 1080.659
1225.839, 1079.476
1226.321, 1079.193
1226.803, 1081.133
1227.285, 1083.746
1227.767, 1086.777
##END=



