##NAMES=Friedelite
##RRUFFID=R060364
##IDEAL CHEMISTRY=Mn^2+^_8_Si_6_O_15_(OH)_10_
##LOCALITY=Sterling Hill mine, Ogdensburg, Sussex County, New Jersey, USA
##OWNER=RRUFF
##SOURCE=Herb Obodda
##DESCRIPTION=Brownish-red fine-grained massive
##STATUS=The identification of this mineral has been confirmed by X-ray diffraction and chemical analysis
##URL=rruff.info/R060364
##MEASURED CHEMISTRY=(Mn^2+^_7.46_Mg_0.54_)_Σ=8_Si_6.00_O_15_((OH)_9.26_Cl_0.74_)_Σ=10_
117.0086, 5.771218
117.4907, 5.605621
117.9728, 5.568707
118.4550, 5.669298
118.9371, 5.689141
119.4192, 5.440680
119.9013, 5.074965
120.3834, 4.788390
120.8655, 4.711787
121.3477, 4.709907
121.8298, 4.672302
122.3119, 4.573013
122.7940, 4.531295
123.2761, 4.736062
123.7582, 5.071138
124.2404, 5.277811
124.7225, 5.006883
125.2046, 4.603404
125.6867, 4.555268
126.1688, 5.052309
126.6509, 5.620419
127.1331, 5.696838
127.6152, 5.359688
128.0973, 4.997313
128.5794, 4.851363
129.0615, 4.876843
129.5436, 4.990317
130.0258, 5.241238
130.5079, 5.498041
130.9900, 5.406011
131.4721, 4.966350
131.9542, 4.661360
132.4363, 5.076329
132.9185, 6.095333
133.4006, 6.898865
133.8827, 7.143496
134.3648, 7.023964
134.8469, 7.230290
135.3290, 7.770631
135.8112, 8.605636
136.2933, 9.747012
136.7754, 11.21540
137.2575, 12.74342
137.7396, 14.31551
138.2217, 15.89905
138.7039, 17.22855
139.1860, 18.21542
139.6681, 19.09074
140.1502, 20.28259
140.6323, 21.89960
141.1144, 23.42974
141.5966, 24.58731
142.0787, 25.19086
142.5608, 26.25445
143.0429, 27.97182
143.5250, 30.03573
144.0071, 31.70046
144.4893, 32.69745
144.9714, 33.70812
145.4535, 35.05455
145.9356, 37.04018
146.4177, 38.77423
146.8998, 40.14314
147.3820, 41.24325
147.8641, 42.52222
148.3462, 43.89259
148.8283, 45.50712
149.3104, 47.48623
149.7925, 50.31353
150.2747, 52.86071
150.7568, 54.91994
151.2389, 56.53439
151.7210, 58.21599
152.2031, 60.09180
152.6852, 61.94045
153.1674, 63.64509
153.6495, 64.88405
154.1316, 66.29437
154.6137, 68.03395
155.0958, 70.11073
155.5779, 72.13708
156.0601, 74.10143
156.5422, 75.98649
157.0243, 77.75378
157.5064, 79.64018
157.9885, 81.18362
158.4706, 81.96117
158.9528, 81.80201
159.4349, 82.29858
159.9170, 84.17301
160.3991, 86.82616
160.8812, 89.56545
161.3633, 92.33969
161.8455, 95.03985
162.3276, 97.65690
162.8097, 100.1764
163.2918, 102.5067
163.7739, 104.3125
164.2560, 105.8059
164.7382, 106.8325
165.2203, 108.4246
165.7024, 110.1869
166.1845, 111.7335
166.6666, 112.9886
167.1487, 114.1508
167.6309, 115.3873
168.1130, 116.6316
168.5951, 117.7193
169.0772, 118.6050
169.5593, 119.3048
170.0414, 119.7924
170.5236, 119.9773
171.0057, 120.1598
171.4878, 120.7508
171.9699, 121.5687
172.4520, 122.0472
172.9341, 121.4944
173.4163, 120.5710
173.8984, 120.1008
174.3805, 120.4735
174.8626, 120.9832
175.3447, 120.9133
175.8268, 120.3646
176.3090, 119.8028
176.7911, 119.8724
177.2732, 120.0854
177.7553, 119.5801
178.2374, 117.7807
178.7195, 115.5747
179.2017, 114.1301
179.6838, 113.3695
180.1659, 112.7127
180.6480, 111.5549
181.1301, 110.1511
181.6122, 109.1121
182.0944, 108.8826
182.5765, 108.9135
183.0586, 108.1893
183.5407, 106.7321
184.0228, 105.0834
184.5049, 103.6556
184.9871, 102.4245
185.4692, 101.3793
185.9513, 100.6531
186.4334, 100.0510
186.9155, 99.02644
187.3976, 97.55557
187.8798, 95.99693
188.3619, 94.57481
188.8440, 93.31213
189.3261, 92.47094
189.8082, 92.29419
190.2903, 92.59538
190.7725, 92.62993
191.2546, 92.33471
191.7367, 92.10686
192.2188, 92.66216
192.7009, 93.94215
193.1830, 94.71481
193.6652, 94.21470
194.1473, 92.70741
194.6294, 91.94632
195.1115, 92.03909
195.5936, 92.50831
196.0757, 92.72968
196.5579, 92.69231
197.0400, 92.73422
197.5221, 93.15840
198.0042, 93.90768
198.4863, 94.00469
198.9684, 93.31786
199.4506, 92.26869
199.9327, 91.55755
200.4148, 91.24399
200.8969, 90.70317
201.3790, 89.55885
201.8611, 87.78703
202.3433, 86.27987
202.8254, 85.12092
203.3075, 84.08395
203.7896, 82.71951
204.2717, 80.91456
204.7538, 79.31103
205.2360, 78.35214
205.7181, 78.16827
206.2002, 77.33695
206.6823, 75.62735
207.1644, 73.54934
207.6465, 72.03661
208.1287, 71.18356
208.6108, 70.60669
209.0929, 70.19335
209.5750, 69.98062
210.0571, 69.73890
210.5392, 69.48393
211.0214, 69.18640
211.5035, 68.76493
211.9856, 68.18597
212.4677, 67.59275
212.9498, 67.03044
213.4319, 66.48629
213.9140, 66.04777
214.3962, 65.71803
214.8783, 65.49050
215.3604, 65.38902
215.8425, 65.49756
216.3246, 65.53838
216.8067, 65.38460
217.2889, 65.01254
217.7710, 64.50240
218.2531, 63.74004
218.7352, 62.89833
219.2173, 62.43219
219.6994, 62.56673
220.1816, 62.64175
220.6637, 62.30155
221.1458, 61.30338
221.6279, 60.59588
222.1100, 60.26018
222.5921, 60.19293
223.0743, 60.10987
223.5564, 59.95740
224.0385, 59.88780
224.5206, 60.02459
225.0027, 60.56376
225.4848, 60.77061
225.9670, 60.48969
226.4491, 59.91843
226.9312, 59.57133
227.4133, 59.53945
227.8954, 59.58796
228.3775, 59.58366
228.8597, 59.39820
229.3418, 59.48637
229.8239, 59.95715
230.3060, 60.67482
230.7881, 61.29300
231.2702, 61.96795
231.7524, 62.31073
232.2345, 62.04444
232.7166, 60.65354
233.1987, 59.86490
233.6808, 59.88923
234.1629, 60.46514
234.6451, 60.92689
235.1272, 61.29371
235.6093, 61.51526
236.0914, 61.53534
236.5735, 61.18479
237.0556, 61.03960
237.5378, 61.22042
238.0199, 61.57409
238.5020, 61.70228
238.9841, 61.49926
239.4662, 61.23185
239.9483, 60.98877
240.4305, 60.70295
240.9126, 60.59995
241.3947, 60.68065
241.8768, 60.94164
242.3589, 61.41362
242.8410, 62.28249
243.3232, 63.07361
243.8053, 63.56066
244.2874, 63.58983
244.7695, 63.68591
245.2516, 63.86712
245.7337, 64.10796
246.2159, 64.33616
246.6980, 64.46518
247.1801, 64.72004
247.6622, 65.21347
248.1443, 66.05198
248.6264, 66.83742
249.1086, 67.55922
249.5907, 68.23956
250.0728, 68.90938
250.5549, 69.51201
251.0370, 70.20085
251.5191, 71.07561
252.0013, 72.23850
252.4834, 73.20204
252.9655, 73.85294
253.4476, 74.36208
253.9297, 75.01333
254.4118, 75.73206
254.8940, 76.72157
255.3761, 78.18399
255.8582, 80.39803
256.3403, 81.90458
256.8224, 82.28342
257.3046, 82.27932
257.7867, 83.23421
258.2688, 85.72923
258.7509, 87.97189
259.2330, 89.25034
259.7151, 89.35216
260.1973, 89.85033
260.6794, 90.94599
261.1615, 92.23414
261.6436, 93.07500
262.1257, 93.32088
262.6078, 93.49788
263.0900, 93.76832
263.5721, 94.15347
264.0542, 94.41965
264.5363, 94.49590
265.0184, 94.53832
265.5005, 94.78870
265.9827, 95.34900
266.4648, 95.81734
266.9469, 96.12219
267.4290, 96.26737
267.9111, 96.03545
268.3932, 95.30179
268.8754, 94.38448
269.3575, 93.65080
269.8396, 93.14660
270.3217, 92.64058
270.8038, 92.11303
271.2859, 91.55252
271.7681, 90.77663
272.2502, 89.71183
272.7323, 88.58614
273.2144, 87.67768
273.6965, 87.02615
274.1786, 86.34580
274.6608, 85.52869
275.1429, 84.61771
275.6250, 83.92538
276.1071, 83.50676
276.5892, 83.15125
277.0714, 82.76183
277.5535, 82.37193
278.0356, 81.59448
278.5177, 80.18580
278.9998, 78.37839
279.4819, 77.14832
279.9641, 76.54480
280.4462, 76.26738
280.9283, 76.18011
281.4104, 76.29483
281.8925, 76.25865
282.3746, 75.99317
282.8568, 75.56177
283.3389, 75.03293
283.8210, 74.35877
284.3031, 73.95219
284.7852, 74.30771
285.2673, 75.36325
285.7495, 76.04522
286.2316, 76.15734
286.7137, 75.92432
287.1958, 75.76615
287.6779, 75.68223
288.1600, 75.66240
288.6422, 75.74852
289.1243, 75.91636
289.6064, 75.94524
290.0885, 75.75600
290.5706, 75.57626
291.0527, 75.83050
291.5349, 76.49403
292.0170, 77.19901
292.4991, 77.70845
292.9812, 78.09151
293.4633, 78.62476
293.9454, 79.36954
294.4276, 80.08525
294.9097, 80.23886
295.3918, 79.97632
295.8739, 80.07002
296.3560, 81.20185
296.8381, 82.92661
297.3203, 84.08559
297.8024, 84.59459
298.2845, 85.05595
298.7666, 86.27660
299.2487, 87.99569
299.7308, 89.44714
300.2130, 90.01529
300.6951, 90.23532
301.1772, 91.07144
301.6593, 92.51751
302.1414, 94.00366
302.6235, 94.80179
303.1057, 95.28262
303.5878, 96.19170
304.0699, 98.13939
304.5520, 100.3634
305.0341, 101.9017
305.5162, 102.8244
305.9984, 103.7852
306.4805, 105.4733
306.9626, 107.4245
307.4447, 108.9126
307.9268, 109.4468
308.4089, 109.8776
308.8911, 110.9472
309.3732, 112.5602
309.8553, 114.3274
310.3374, 116.1196
310.8195, 117.9093
311.3016, 119.6809
311.7838, 121.5193
312.2659, 123.1463
312.7480, 124.2341
313.2301, 124.9388
313.7122, 125.6705
314.1943, 126.8023
314.6765, 127.9235
315.1586, 128.7756
315.6407, 129.3350
316.1228, 129.5778
316.6049, 129.1372
317.0870, 128.4125
317.5692, 128.0656
318.0513, 128.6362
318.5334, 129.3851
319.0155, 130.0466
319.4976, 130.6344
319.9797, 130.8783
320.4619, 130.3640
320.9440, 129.5678
321.4261, 129.0300
321.9082, 129.0779
322.3903, 129.2028
322.8724, 129.4317
323.3546, 129.7690
323.8367, 129.5480
324.3188, 128.3236
324.8009, 126.6666
325.2830, 125.0301
325.7651, 123.9749
326.2473, 122.3770
326.7294, 119.8681
327.2115, 116.5608
327.6936, 113.3296
328.1757, 110.4016
328.6578, 107.4659
329.1400, 104.3508
329.6221, 100.6709
330.1042, 97.38264
330.5863, 94.59418
331.0684, 92.19164
331.5505, 89.88036
332.0327, 87.43200
332.5148, 85.31847
332.9969, 83.79272
333.4790, 83.21738
333.9611, 82.27222
334.4432, 80.65503
334.9254, 78.83679
335.4075, 77.69980
335.8896, 77.60059
336.3717, 77.43884
336.8538, 76.80565
337.3359, 75.61992
337.8180, 74.81580
338.3001, 74.50290
338.7823, 74.40546
339.2644, 74.23592
339.7465, 73.98669
340.2286, 73.69384
340.7107, 73.35742
341.1928, 72.98044
341.6750, 72.62062
342.1571, 72.27490
342.6392, 71.93672
343.1213, 71.57706
343.6034, 71.19699
344.0855, 70.88152
344.5677, 70.64403
345.0498, 70.48206
345.5319, 70.50964
346.0140, 70.74186
346.4961, 70.74274
346.9782, 70.10751
347.4604, 68.95789
347.9425, 67.86983
348.4246, 66.85079
348.9067, 66.01241
349.3888, 65.53481
349.8709, 65.38986
350.3531, 65.41927
350.8352, 65.65306
351.3173, 65.98277
351.7994, 66.20540
352.2815, 66.31062
352.7636, 66.33956
353.2458, 66.22855
353.7279, 66.07064
354.2100, 66.06624
354.6921, 66.27795
355.1742, 66.68604
355.6563, 67.42626
356.1385, 68.45029
356.6206, 69.29493
357.1027, 69.44585
357.5848, 69.30948
358.0669, 69.37532
358.5490, 69.86488
359.0312, 70.44498
359.5133, 70.92797
359.9954, 71.33535
360.4775, 71.74165
360.9596, 72.06052
361.4417, 72.46915
361.9239, 73.14261
362.4060, 74.22997
362.8881, 75.21875
363.3702, 75.90793
363.8523, 76.37959
364.3344, 76.75980
364.8166, 76.87380
365.2987, 77.09305
365.7808, 77.57805
366.2629, 78.36485
366.7450, 79.19660
367.2271, 80.24919
367.7093, 81.22549
368.1914, 81.86446
368.6735, 81.52946
369.1556, 81.54351
369.6377, 82.23562
370.1198, 83.52127
370.6020, 84.65196
371.0841, 85.74939
371.5662, 86.58208
372.0483, 86.97102
372.5304, 86.48095
373.0125, 86.38055
373.4947, 86.81226
373.9768, 87.60516
374.4589, 88.38040
374.9410, 89.13713
375.4231, 89.88062
375.9052, 90.61485
376.3874, 91.34029
376.8695, 92.06224
377.3516, 92.76143
377.8337, 93.50269
378.3158, 94.47429
378.7979, 95.74306
379.2801, 96.73566
379.7622, 97.15971
380.2443, 97.20298
380.7264, 97.87968
381.2085, 99.28768
381.6906, 100.6084
382.1728, 100.9021
382.6549, 100.3757
383.1370, 100.3809
383.6191, 101.2727
384.1012, 102.5680
384.5833, 103.4870
385.0655, 104.0734
385.5476, 104.6543
386.0297, 105.5501
386.5118, 106.5480
386.9939, 107.2248
387.4760, 107.5041
387.9582, 107.7328
388.4403, 108.3449
388.9224, 109.1506
389.4045, 109.7521
389.8866, 109.7418
390.3687, 109.6330
390.8509, 109.8086
391.3330, 110.2666
391.8151, 110.9618
392.2972, 112.1839
392.7793, 113.4795
393.2614, 114.3916
393.7436, 114.5044
394.2257, 114.6256
394.7078, 115.0127
395.1899, 115.6564
395.6720, 116.5323
396.1541, 118.2504
396.6363, 119.7090
397.1184, 120.2087
397.6005, 119.1975
398.0826, 118.7531
398.5647, 119.8039
399.0468, 121.3768
399.5290, 122.2922
400.0111, 121.8295
400.4932, 121.3925
400.9753, 121.1944
401.4574, 121.2349
401.9395, 121.4079
402.4217, 121.9801
402.9038, 122.4048
403.3859, 122.2718
403.8680, 121.2952
404.3501, 120.4409
404.8322, 119.8317
405.3144, 119.3589
405.7965, 118.7297
406.2786, 117.8777
406.7607, 117.0780
407.2428, 116.4837
407.7249, 116.1005
408.2071, 115.7392
408.6892, 115.5007
409.1713, 114.9869
409.6534, 113.4344
410.1355, 110.9140
410.6176, 108.7722
411.0998, 107.6057
411.5819, 106.9262
412.0640, 105.5347
412.5461, 103.4614
413.0282, 101.1602
413.5103, 98.77737
413.9925, 96.46937
414.4746, 94.63070
414.9567, 93.47164
415.4388, 92.34805
415.9209, 90.47749
416.4030, 88.10078
416.8852, 85.76138
417.3673, 83.66115
417.8494, 81.79305
418.3315, 80.25028
418.8136, 79.05657
419.2957, 77.71385
419.7779, 75.73460
420.2600, 73.56663
420.7421, 71.69135
421.2242, 70.40350
421.7063, 69.24453
422.1884, 68.05461
422.6706, 66.86385
423.1527, 65.73757
423.6348, 64.76308
424.1169, 63.81480
424.5990, 62.82858
425.0811, 61.80075
425.5633, 60.74511
426.0454, 59.48492
426.5275, 58.27348
427.0096, 57.43083
427.4917, 57.16343
427.9738, 56.96672
428.4560, 56.76703
428.9381, 56.56032
429.4202, 56.30110
429.9023, 55.99937
430.3844, 55.63258
430.8665, 55.11632
431.3487, 54.37709
431.8308, 53.96061
432.3129, 53.97559
432.7950, 54.25270
433.2771, 54.46331
433.7592, 54.60258
434.2414, 54.74324
434.7235, 54.96757
435.2056, 55.22632
435.6877, 55.32311
436.1698, 55.25548
436.6519, 55.05761
437.1341, 54.56824
437.6162, 53.96876
438.0983, 53.76632
438.5804, 54.30233
439.0625, 54.99995
439.5446, 55.11580
440.0268, 54.79978
440.5089, 54.59835
440.9910, 54.87777
441.4731, 55.38573
441.9552, 55.99091
442.4373, 56.73209
442.9195, 57.21920
443.4016, 57.07967
443.8837, 56.63013
444.3658, 56.25542
444.8479, 55.98659
445.3300, 55.89296
445.8122, 56.12530
446.2943, 56.62634
446.7764, 56.91825
447.2585, 56.86154
447.7406, 56.63237
448.2227, 56.31156
448.7049, 55.90807
449.1870, 55.39884
449.6691, 54.67284
450.1512, 53.89849
450.6333, 53.36796
451.1154, 53.17451
451.5976, 53.01317
452.0797, 52.79174
452.5618, 52.52023
453.0439, 52.34903
453.5260, 52.26652
454.0081, 52.32756
454.4903, 52.63552
454.9724, 53.18363
455.4545, 53.67904
455.9366, 54.08109
456.4187, 54.41924
456.9008, 54.70754
457.3830, 54.95831
457.8651, 55.23358
458.3472, 55.73065
458.8293, 56.22463
459.3114, 56.29181
459.7935, 55.93045
460.2757, 55.35619
460.7578, 54.66064
461.2399, 53.88662
461.7220, 53.09269
462.2041, 52.27230
462.6862, 51.45613
463.1684, 50.64283
463.6505, 49.84267
464.1326, 49.09911
464.6147, 48.33152
465.0968, 47.70013
465.5789, 47.35804
466.0611, 47.35698
466.5432, 47.28717
467.0253, 46.92529
467.5074, 46.53795
467.9895, 46.34892
468.4716, 46.39722
468.9538, 46.61729
469.4359, 47.12956
469.9180, 47.80612
470.4001, 48.20403
470.8822, 48.10897
471.3643, 48.11377
471.8465, 48.48179
472.3286, 49.24857
472.8107, 50.01238
473.2928, 50.75460
473.7749, 51.51843
474.2570, 52.41814
474.7392, 53.45155
475.2213, 54.20085
475.7034, 54.47564
476.1855, 54.53686
476.6676, 54.92011
477.1497, 55.60533
477.6319, 56.37725
478.1140, 57.23137
478.5961, 58.05520
479.0782, 58.53026
479.5603, 58.59688
480.0424, 58.86613
480.5246, 60.11468
481.0067, 61.80359
481.4888, 63.16401
481.9709, 63.71436
482.4530, 64.16131
482.9352, 64.77328
483.4173, 65.55820
483.8994, 66.54139
484.3815, 67.99535
484.8636, 69.43739
485.3457, 70.56391
485.8279, 71.20069
486.3100, 72.13170
486.7921, 73.68593
487.2742, 75.41697
487.7563, 76.94007
488.2384, 78.05284
488.7206, 79.33859
489.2027, 81.00826
489.6848, 82.87541
490.1669, 84.29528
490.6490, 85.28216
491.1311, 85.74510
491.6133, 85.55045
492.0954, 84.70795
492.5775, 83.77943
493.0596, 82.83412
493.5417, 81.52337
494.0238, 79.28517
494.5060, 76.28846
494.9881, 73.33648
495.4702, 70.66065
495.9523, 68.11269
496.4344, 65.50284
496.9165, 62.86960
497.3987, 60.36866
497.8808, 58.06771
498.3629, 55.92264
498.8450, 53.84508
499.3271, 51.80183
499.8092, 50.03129
500.2914, 48.82561
500.7735, 47.85956
501.2556, 46.78695
501.7377, 45.30303
502.2198, 43.98898
502.7019, 42.89126
503.1841, 42.04466
503.6662, 41.53310
504.1483, 41.70205
504.6304, 41.83889
505.1125, 41.72144
505.5946, 41.32386
506.0768, 41.02266
506.5589, 40.86096
507.0410, 40.73614
507.5231, 40.55805
508.0052, 40.31397
508.4873, 40.09336
508.9695, 39.88386
509.4516, 39.74357
509.9337, 39.81732
510.4158, 40.09557
510.8979, 40.40020
511.3800, 40.69352
511.8622, 40.94915
512.3443, 41.15112
512.8264, 41.29139
513.3085, 41.25623
513.7906, 40.85133
514.2728, 40.25891
514.7549, 39.70868
515.2370, 39.24351
515.7191, 38.82722
516.2012, 38.46988
516.6833, 38.14130
517.1655, 37.78904
517.6476, 37.47094
518.1297, 37.05332
518.6118, 36.45087
519.0939, 35.67962
519.5760, 34.92255
520.0582, 34.17906
520.5403, 33.47896
521.0224, 32.84338
521.5045, 32.27118
521.9866, 31.75759
522.4688, 31.31412
522.9509, 30.91587
523.4330, 30.52781
523.9151, 30.14881
524.3972, 29.78977
524.8793, 29.47348
525.3615, 29.16593
525.8436, 28.72348
526.3257, 28.14783
526.8078, 27.66280
527.2899, 27.46281
527.7720, 27.43169
528.2542, 27.30078
528.7363, 27.05663
529.2184, 26.80365
529.7005, 26.57943
530.1826, 26.41904
530.6647, 26.40085
531.1469, 26.71211
531.6290, 26.89279
532.1111, 26.49298
532.5932, 25.79018
533.0753, 25.35166
533.5574, 25.55624
534.0396, 25.84164
534.5217, 26.01908
535.0038, 26.07178
535.4859, 26.15605
535.9680, 26.39350
536.4501, 26.54700
536.9323, 26.44857
537.4144, 25.94190
537.8965, 25.62155
538.3786, 25.52874
538.8607, 25.58231
539.3428, 25.68305
539.8250, 25.83552
540.3071, 26.00369
540.7892, 26.23759
541.2713, 26.43266
541.7534, 26.20960
542.2355, 25.61334
542.7177, 25.12068
543.1998, 25.17847
543.6819, 25.47565
544.1640, 25.48913
544.6461, 25.16614
545.1282, 24.87067
545.6104, 24.92081
546.0925, 25.11570
546.5746, 25.21946
547.0567, 24.98792
547.5388, 24.90692
548.0209, 25.38710
548.5031, 26.12122
548.9852, 26.44392
549.4673, 25.71246
549.9494, 25.13309
550.4315, 25.05211
550.9136, 25.46708
551.3958, 25.83765
551.8779, 26.25194
552.3600, 26.47356
552.8421, 26.25351
553.3242, 25.51517
553.8063, 25.06718
554.2885, 24.96102
554.7706, 25.09759
555.2527, 25.47674
555.7348, 26.03809
556.2169, 26.38216
556.6990, 26.28300
557.1812, 26.04152
557.6633, 26.09005
558.1454, 26.36990
558.6275, 26.66149
559.1096, 26.82269
559.5917, 26.95365
560.0739, 27.16721
560.5560, 27.47459
561.0381, 27.67972
561.5202, 27.48573
562.0023, 27.28969
562.4844, 27.39720
562.9666, 28.16419
563.4487, 28.76597
563.9308, 29.12809
564.4129, 29.31609
564.8950, 29.39718
565.3771, 29.26693
565.8593, 29.26682
566.3414, 29.50240
566.8235, 29.92177
567.3056, 30.34110
567.7877, 30.77406
568.2698, 31.08669
568.7520, 31.16378
569.2341, 31.05197
569.7162, 30.88652
570.1983, 30.66428
570.6804, 30.52791
571.1625, 30.55749
571.6447, 30.77746
572.1268, 31.28410
572.6089, 32.29585
573.0910, 33.18132
573.5731, 33.33122
574.0552, 33.11480
574.5374, 33.18124
575.0195, 34.14608
575.5016, 35.01646
575.9837, 35.34737
576.4658, 35.19084
576.9479, 35.31211
577.4301, 35.82335
577.9122, 36.50063
578.3943, 37.33962
578.8764, 38.44101
579.3585, 38.99868
579.8406, 38.75866
580.3228, 38.54025
580.8049, 39.36162
581.2870, 41.14939
581.7691, 42.66283
582.2512, 43.65170
582.7333, 44.35187
583.2155, 45.02646
583.6975, 45.68594
584.1796, 46.39940
584.6617, 47.10202
585.1439, 47.93306
585.6260, 49.11455
586.1081, 50.57605
586.5902, 51.96383
587.0723, 53.02317
587.5544, 54.02462
588.0366, 55.11551
588.5187, 56.28500
589.0008, 57.63418
589.4829, 59.05450
589.9650, 60.74590
590.4471, 62.92141
590.9293, 65.92930
591.4114, 68.60744
591.8935, 70.79122
592.3756, 72.73750
592.8577, 74.79147
593.3398, 76.91153
593.8220, 79.54326
594.3041, 82.87317
594.7862, 86.76966
595.2683, 91.07232
595.7504, 95.70729
596.2325, 100.4089
596.7147, 104.7147
597.1968, 109.1353
597.6789, 114.3108
598.1610, 120.2898
598.6431, 126.8332
599.1252, 133.6793
599.6074, 141.0271
600.0895, 149.1254
600.5716, 158.3342
601.0537, 167.7746
601.5358, 176.9259
602.0179, 186.3344
602.5001, 196.7142
602.9822, 208.2864
603.4643, 220.2303
603.9464, 232.5370
604.4285, 245.1141
604.9106, 257.9842
605.3928, 270.9841
605.8749, 284.7223
606.3570, 299.6898
606.8391, 315.5973
607.3212, 331.6636
607.8033, 347.8303
608.2855, 364.5338
608.7676, 381.8626
609.2497, 399.8694
609.7318, 418.3905
610.2139, 437.6613
610.6960, 457.0603
611.1782, 476.0309
611.6603, 495.0045
612.1424, 514.6809
612.6245, 536.9357
613.1066, 557.5127
613.5887, 575.7565
614.0709, 592.0670
614.5530, 607.9247
615.0351, 624.4228
615.5172, 637.5840
615.9993, 646.5012
616.4814, 651.2600
616.9636, 652.6527
617.4457, 650.7457
617.9278, 645.0437
618.4099, 635.0181
618.8920, 621.0309
619.3741, 603.4212
619.8563, 582.0372
620.3384, 558.5281
620.8205, 533.3658
621.3026, 507.1687
621.7847, 480.6545
622.2668, 453.3356
622.7490, 426.5038
623.2311, 400.1224
623.7132, 374.4761
624.1953, 349.9300
624.6774, 326.0709
625.1595, 303.9579
625.6417, 283.7902
626.1238, 265.3481
626.6059, 248.4276
627.0880, 233.0641
627.5701, 218.8078
628.0522, 205.4404
628.5344, 193.0506
629.0165, 182.2551
629.4986, 173.0708
629.9807, 164.6946
630.4628, 156.5916
630.9449, 148.9147
631.4271, 141.7153
631.9092, 134.9890
632.3913, 129.0159
632.8734, 124.2733
633.3555, 120.2651
633.8376, 116.3769
634.3198, 112.3045
634.8019, 108.7756
635.2840, 106.4444
635.7661, 104.6218
636.2482, 102.2737
636.7303, 98.87008
637.2125, 95.81630
637.6946, 93.47218
638.1767, 91.52392
638.6588, 88.89124
639.1409, 85.38000
639.6230, 82.41755
640.1052, 80.78940
640.5873, 80.01921
641.0694, 78.70805
641.5515, 76.88708
642.0336, 75.02303
642.5157, 73.41463
642.9979, 71.94215
643.4800, 70.45625
643.9621, 68.92262
644.4442, 67.59525
644.9263, 66.77664
645.4084, 66.08940
645.8906, 65.22971
646.3727, 64.00936
646.8548, 62.87179
647.3369, 61.88744
647.8190, 60.95975
648.3011, 59.97902
648.7833, 58.88935
649.2654, 57.91056
649.7475, 57.09271
650.2296, 56.36428
650.7117, 55.53451
651.1938, 54.60930
651.6760, 53.74845
652.1581, 53.02138
652.6402, 52.38188
653.1223, 51.75170
653.6044, 51.14730
654.0865, 50.59766
654.5687, 50.18578
655.0508, 49.79338
655.5329, 49.36520
656.0150, 48.90015
656.4971, 48.32520
656.9792, 47.44600
657.4614, 46.59818
657.9435, 45.94571
658.4256, 45.48314
658.9077, 45.29038
659.3898, 45.53341
659.8719, 45.75317
660.3541, 45.38473
660.8362, 44.45192
661.3183, 43.64820
661.8004, 43.07401
662.2825, 42.69451
662.7646, 42.59503
663.2468, 42.65805
663.7289, 42.58944
664.2110, 42.19035
664.6931, 41.74382
665.1752, 41.47065
665.6573, 41.30287
666.1395, 41.07240
666.6216, 40.52060
667.1037, 40.11359
667.5858, 40.15214
668.0679, 40.53746
668.5500, 40.55544
669.0322, 40.03475
669.5143, 39.48173
669.9964, 39.09140
670.4785, 38.86070
670.9606, 38.80153
671.4427, 38.93632
671.9249, 39.01353
672.4070, 38.69425
672.8891, 38.19538
673.3712, 38.05104
673.8533, 38.34548
674.3354, 38.60728
674.8176, 38.46215
675.2997, 38.12239
675.7818, 37.78988
676.2639, 37.38812
676.7460, 37.21922
677.2281, 37.69091
677.7103, 38.28558
678.1924, 38.32518
678.6745, 37.39777
679.1566, 36.83777
679.6387, 36.91882
680.1208, 37.36671
680.6030, 37.59643
681.0851, 37.60541
681.5672, 37.59383
682.0493, 37.62996
682.5314, 37.68976
683.0135, 37.75505
683.4957, 37.81377
683.9778, 37.81689
684.4599, 37.74103
684.9420, 37.59736
685.4241, 37.29773
685.9063, 36.87312
686.3884, 36.67845
686.8705, 37.19155
687.3526, 37.60297
687.8347, 37.47802
688.3168, 36.68977
688.7990, 36.28729
689.2811, 36.36396
689.7632, 36.60378
690.2453, 36.78388
690.7274, 36.90972
691.2095, 37.06175
691.6917, 37.26197
692.1738, 37.36190
692.6559, 37.11730
693.1380, 36.68466
693.6201, 36.30642
694.1022, 35.99903
694.5844, 35.86362
695.0665, 36.17816
695.5486, 36.62326
696.0307, 36.79020
696.5128, 36.23373
696.9949, 35.85307
697.4771, 35.82383
697.9592, 35.97884
698.4413, 35.99052
698.9234, 35.83366
699.4055, 35.62059
699.8876, 35.33194
700.3698, 35.05073
700.8519, 35.01797
701.3340, 35.20654
701.8161, 35.43872
702.2982, 35.74135
702.7803, 35.96094
703.2625, 35.88630
703.7446, 35.55902
704.2267, 35.19802
704.7088, 34.86674
705.1909, 34.55254
705.6730, 34.19036
706.1552, 33.75896
706.6373, 33.64933
707.1194, 34.08173
707.6015, 34.52826
708.0836, 34.67530
708.5657, 34.50323
709.0479, 34.43162
709.5300, 34.47513
710.0121, 34.52393
710.4942, 34.52795
710.9763, 34.45391
711.4584, 34.20152
711.9406, 33.74396
712.4227, 33.22533
712.9048, 32.54998
713.3869, 31.96338
713.8690, 31.76456
714.3511, 32.39938
714.8333, 32.73927
715.3154, 32.31588
715.7975, 31.63265
716.2796, 31.22113
716.7617, 31.19524
717.2438, 31.13052
717.7260, 31.00194
718.2081, 30.77790
718.6902, 30.29636
719.1723, 29.60929
719.6544, 29.17329
720.1365, 29.22713
720.6187, 29.44272
721.1008, 29.47019
721.5829, 29.35565
722.0650, 29.20805
722.5471, 29.02019
723.0292, 28.86270
723.5114, 28.80365
723.9935, 28.81099
724.4756, 28.74018
724.9577, 28.51267
725.4398, 28.32487
725.9219, 28.24723
726.4041, 28.25834
726.8862, 28.25851
727.3683, 28.25428
727.8504, 28.15889
728.3325, 27.83753
728.8146, 27.41598
729.2968, 27.18315
729.7789, 27.12366
730.2610, 27.08284
730.7431, 26.97809
731.2252, 26.84417
731.7073, 26.68794
732.1895, 26.50467
732.6716, 26.37995
733.1537, 26.34102
733.6358, 26.35673
734.1179, 26.47118
734.6000, 26.76176
735.0822, 26.60724
735.5643, 25.88293
736.0464, 25.13767
736.5285, 24.86414
737.0106, 24.98558
737.4927, 25.30072
737.9749, 25.82315
738.4570, 26.19914
738.9391, 25.96891
739.4212, 25.48895
739.9033, 25.15718
740.3854, 25.07881
740.8676, 25.10198
741.3497, 25.22471
741.8318, 25.41052
742.3139, 25.63025
742.7960, 25.92393
743.2781, 26.15655
743.7603, 26.34347
744.2424, 26.42615
744.7245, 26.20507
745.2066, 25.74006
745.6887, 25.55573
746.1708, 25.85474
746.6530, 26.26673
747.1351, 26.39898
747.6172, 26.33528
748.0993, 26.22052
748.5814, 26.10328
749.0635, 25.94853
749.5457, 25.64245
750.0278, 25.30527
750.5099, 25.20698
750.9920, 25.50856
751.4741, 25.74671
751.9562, 25.84297
752.4384, 25.82225
752.9205, 25.70638
753.4026, 25.49903
753.8847, 25.34720
754.3668, 25.31740
754.8489, 25.36434
755.3311, 25.50697
755.8132, 25.68174
756.2953, 25.69846
756.7774, 25.26803
757.2595, 24.85563
757.7416, 24.69302
758.2238, 24.75210
758.7059, 24.81997
759.1880, 24.88805
759.6701, 24.95470
760.1522, 25.01080
760.6343, 25.06507
761.1165, 25.19110
761.5986, 25.39367
762.0807, 25.55106
762.5628, 25.58704
763.0449, 25.53851
763.5270, 25.44510
764.0092, 25.31676
764.4913, 25.20363
764.9734, 25.17859
765.4555, 25.13963
765.9376, 24.98940
766.4197, 24.72384
766.9019, 24.57513
767.3840, 24.52746
767.8661, 24.63803
768.3482, 25.00632
768.8303, 25.61497
769.3124, 25.90714
769.7946, 25.85827
770.2767, 25.76768
770.7588, 25.89516
771.2409, 26.10529
771.7230, 26.12395
772.2051, 25.95062
772.6873, 25.80372
773.1694, 25.87044
773.6515, 25.96301
774.1336, 25.93627
774.6157, 25.74510
775.0978, 25.63934
775.5800, 25.67467
776.0621, 25.73108
776.5442, 25.72870
777.0263, 25.66225
777.5084, 25.67454
777.9905, 25.77544
778.4727, 25.85950
778.9548, 25.75238
779.4369, 25.59529
779.9190, 25.67171
780.4011, 26.01906
780.8832, 26.36082
781.3654, 26.51323
781.8475, 26.61438
782.3296, 26.76336
782.8117, 26.98142
783.2938, 27.22080
783.7759, 27.50357
784.2581, 27.77843
784.7402, 28.00955
785.2223, 28.19648
785.7044, 28.32085
786.1865, 28.37213
786.6686, 28.44033
787.1508, 28.63095
787.6329, 28.88579
788.1150, 29.13157
788.5971, 29.36541
789.0792, 29.53794
789.5613, 29.39779
790.0435, 29.33804
790.5256, 29.74682
791.0077, 30.96405
791.4898, 31.73364
791.9719, 31.89893
792.4540, 31.86751
792.9362, 31.93141
793.4183, 32.10150
793.9004, 32.56615
794.3825, 33.37440
794.8646, 34.20219
795.3467, 34.74782
795.8289, 35.13121
796.3110, 35.47555
796.7931, 35.76923
797.2752, 36.19971
797.7573, 36.93296
798.2394, 37.77394
798.7216, 38.56782
799.2037, 39.34055
799.6858, 39.98815
800.1679, 40.45806
800.6500, 40.92218
801.1321, 41.52257
801.6143, 42.26801
802.0964, 43.34491
802.5785, 44.82987
803.0606, 46.06169
803.5427, 46.08382
804.0248, 45.70860
804.5070, 45.89580
804.9891, 47.07633
805.4712, 48.02770
805.9533, 48.35086
806.4354, 48.45869
806.9175, 48.61582
807.3997, 48.80903
807.8818, 49.14692
808.3639, 49.67263
808.8460, 50.18243
809.3281, 50.48502
809.8102, 50.60343
810.2924, 50.52724
810.7745, 50.22285
811.2566, 50.03335
811.7387, 50.41273
812.2208, 50.88905
812.7029, 51.01488
813.1851, 50.55376
813.6672, 50.20708
814.1493, 50.13341
814.6314, 50.03060
815.1135, 49.60143
815.5956, 48.82015
816.0778, 48.29670
816.5599, 48.08338
817.0420, 47.87683
817.5241, 47.49374
818.0062, 46.88558
818.4883, 45.86484
818.9705, 44.34211
819.4526, 42.96931
819.9347, 42.37196
820.4168, 41.81222
820.8989, 40.64714
821.3810, 38.61824
821.8632, 37.10354
822.3453, 36.23057
822.8274, 35.58608
823.3095, 34.94143
823.7916, 34.26401
824.2737, 33.34111
824.7559, 32.15538
825.2380, 31.06995
825.7201, 30.44174
826.2022, 30.03005
826.6843, 29.65526
827.1664, 29.31024
827.6486, 28.84475
828.1307, 27.98928
828.6128, 27.22298
829.0949, 26.79630
829.5770, 26.73657
830.0591, 26.67268
830.5413, 26.61867
831.0234, 26.47382
831.5055, 26.05734
831.9876, 25.53311
832.4697, 25.29430
832.9518, 25.32958
833.4340, 25.23580
833.9161, 24.51805
834.3982, 23.81304
834.8803, 23.57602
835.3624, 23.87625
835.8445, 24.03545
836.3267, 24.04186
836.8088, 23.92492
837.2909, 23.63482
837.7730, 23.22572
838.2551, 23.06663
838.7372, 23.14076
839.2194, 23.17678
839.7015, 22.97715
840.1836, 22.67234
840.6657, 22.33724
841.1478, 21.99335
841.6299, 21.75580
842.1121, 21.74583
842.5942, 21.76004
843.0763, 21.74707
843.5584, 21.70215
844.0405, 21.57875
844.5226, 21.36036
845.0048, 21.18048
845.4869, 21.11045
845.9690, 21.10381
846.4511, 21.08170
846.9332, 21.04668
847.4153, 21.00782
847.8975, 20.96133
848.3796, 20.92025
848.8617, 20.87742
849.3438, 20.84505
849.8259, 20.87244
850.3080, 21.04107
850.7902, 21.08707
851.2723, 20.93001
851.7544, 20.64482
852.2365, 20.33159
852.7186, 20.01743
853.2007, 19.86949
853.6829, 20.00238
854.1650, 20.23622
854.6471, 20.54971
855.1292, 20.82433
855.6113, 20.86048
856.0934, 20.14853
856.5756, 19.82276
857.0577, 20.27617
857.5398, 20.94926
858.0219, 20.92952
858.5040, 20.15952
858.9861, 19.77680
859.4683, 20.03427
859.9504, 20.48092
860.4325, 20.60227
860.9146, 20.51087
861.3967, 20.36129
861.8788, 20.11085
862.3610, 20.02975
862.8431, 20.43293
863.3252, 20.91830
863.8073, 21.08591
864.2894, 20.76866
864.7715, 20.67726
865.2537, 20.87451
865.7358, 21.12951
866.2179, 21.23948
866.7000, 21.22376
867.1821, 21.07965
867.6642, 20.79711
868.1464, 20.63599
868.6285, 20.94326
869.1106, 21.31149
869.5927, 21.40880
870.0748, 21.13252
870.5569, 20.94592
871.0391, 20.89101
871.5212, 20.84986
872.0033, 20.67915
872.4854, 20.43579
872.9675, 20.65764
873.4496, 21.31289
873.9318, 21.87545
874.4139, 21.92392
874.8960, 21.76933
875.3781, 21.63811
875.8602, 21.54374
876.3423, 21.49896
876.8245, 21.60225
877.3066, 21.63718
877.7887, 21.50588
878.2708, 21.26864
878.7529, 21.19029
879.2350, 21.27121
879.7172, 21.37073
880.1993, 21.48308
880.6814, 21.51987
881.1635, 21.28077
881.6456, 20.87833
882.1277, 20.57494
882.6099, 20.68155
883.0920, 20.64305
883.5741, 20.07318
884.0562, 19.37766
884.5383, 19.25705
885.0204, 19.82094
885.5026, 20.26511
885.9847, 20.44009
886.4668, 20.47013
886.9489, 20.51904
887.4310, 20.55131
887.9131, 20.49496
888.3953, 20.32862
888.8774, 20.08370
889.3595, 19.57333
889.8416, 19.11756
890.3237, 19.05238
890.8058, 19.60551
891.2880, 19.87626
891.7701, 19.81931
892.2522, 19.61336
892.7343, 19.29844
893.2164, 18.97706
893.6985, 19.01471
894.1807, 19.43385
894.6628, 19.75613
895.1449, 19.55450
895.6270, 19.24582
896.1091, 19.11271
896.5912, 19.18983
897.0734, 19.21889
897.5555, 19.17695
898.0376, 19.14178
898.5197, 19.16163
899.0018, 19.21336
899.4839, 19.21176
899.9661, 19.16340
900.4482, 19.10674
900.9303, 19.02840
901.4124, 18.98115
901.8945, 19.02103
902.3766, 19.12197
902.8588, 19.20266
903.3409, 19.30049
903.8230, 19.29210
904.3051, 19.13850
904.7872, 18.88752
905.2693, 18.53697
905.7515, 18.13820
906.2336, 18.01994
906.7157, 18.34333
907.1978, 18.77207
907.6799, 19.11555
908.1620, 19.35156
908.6442, 19.45255
909.1263, 19.34527
909.6084, 19.21326
910.0905, 19.08326
910.5726, 18.90351
911.0547, 18.54287
911.5369, 18.03845
912.0190, 17.86546
912.5011, 18.06179
912.9832, 18.28333
913.4653, 18.21069
913.9474, 18.05297
914.4296, 18.01859
914.9117, 18.13288
915.3938, 18.21694
915.8759, 18.35876
916.3580, 18.29360
916.8401, 17.78272
917.3223, 16.96930
917.8044, 16.76681
918.2865, 17.14266
918.7686, 17.53435
919.2507, 17.59300
919.7328, 17.57187
920.2150, 17.73843
920.6971, 18.02008
921.1792, 18.24006
921.6613, 18.46534
922.1434, 18.44173
922.6255, 17.98217
923.1077, 17.40106
923.5898, 17.32307
924.0719, 17.71273
924.5540, 17.90602
925.0361, 17.73869
925.5182, 17.47930
926.0004, 17.32930
926.4825, 17.27563
926.9646, 17.32929
927.4467, 17.58660
927.9288, 17.65634
928.4109, 17.31176
928.8931, 17.00876
929.3752, 17.14331
929.8573, 17.70134
930.3394, 17.88943
930.8215, 17.70641
931.3036, 17.51425
931.7858, 17.58622
932.2679, 17.77180
932.7500, 17.95693
933.2321, 18.12710
933.7142, 18.25598
934.1964, 18.42777
934.6785, 18.41261
935.1606, 18.03488
935.6427, 17.49411
936.1248, 17.44628
936.6069, 17.85581
937.0891, 18.29130
937.5712, 18.66830
938.0533, 18.90966
938.5354, 18.88318
939.0175, 18.69353
939.4996, 18.49320
939.9818, 18.12593
940.4639, 18.07626
940.9460, 18.56359
941.4281, 19.08307
941.9102, 19.02259
942.3923, 18.46294
942.8745, 18.17617
943.3566, 18.22041
943.8387, 18.37542
944.3208, 18.58680
944.8029, 18.73526
945.2850, 18.63708
945.7672, 18.26779
946.2493, 18.17150
946.7314, 18.53294
947.2135, 18.89251
947.6956, 19.07979
948.1777, 19.13000
948.6599, 19.14291
949.1420, 19.12306
949.6241, 19.09155
950.1062, 18.97650
950.5883, 18.95063
951.0704, 19.28848
951.5526, 19.76597
952.0347, 19.92904
952.5168, 19.51037
952.9989, 19.26265
953.4810, 19.25144
953.9631, 19.40482
954.4453, 19.74426
954.9274, 20.17800
955.4095, 20.31888
955.8916, 20.08941
956.3737, 19.93639
956.8558, 20.34907
957.3380, 20.80132
957.8201, 20.86968
958.3022, 20.51038
958.7843, 20.17313
959.2664, 19.81513
959.7485, 19.61759
960.2307, 19.72133
960.7128, 20.01029
961.1949, 20.30071
961.6770, 20.55169
962.1591, 20.61614
962.6412, 20.11653
963.1234, 19.76792
963.6055, 19.98275
964.0876, 20.48911
964.5697, 20.86948
965.0518, 21.14955
965.5339, 21.12478
966.0161, 20.70649
966.4982, 20.21350
966.9803, 19.97516
967.4624, 19.93943
967.9445, 20.06585
968.4266, 20.37166
968.9088, 20.62820
969.3909, 20.75590
969.8730, 20.80258
970.3551, 20.77577
970.8372, 20.68186
971.3193, 20.64232
971.8015, 20.65926
972.2836, 20.67031
972.7657, 20.62905
973.2478, 20.57419
973.7299, 20.51864
974.2120, 20.48737
974.6942, 20.54092
975.1763, 20.78920
975.6584, 21.00115
976.1405, 21.14340
976.6226, 21.24343
977.1047, 21.37377
977.5869, 21.51975
978.0690, 21.47959
978.5511, 21.20906
979.0332, 20.90881
979.5153, 20.65341
979.9974, 20.50869
980.4796, 20.60626
980.9617, 21.01406
981.4438, 21.12436
981.9259, 20.72989
982.4080, 20.44830
982.8901, 20.61600
983.3723, 21.07612
983.8544, 21.35679
984.3365, 21.48865
984.8186, 21.59897
985.3007, 21.71498
985.7828, 21.86328
986.2650, 22.07798
986.7471, 22.32712
987.2292, 22.56740
987.7113, 22.82475
988.1934, 22.96700
988.6755, 22.96814
989.1577, 22.90983
989.6398, 22.80623
990.1219, 22.73499
990.6040, 22.89073
991.0861, 23.29873
991.5682, 23.59448
992.0504, 23.47254
992.5325, 23.37481
993.0146, 23.52094
993.4967, 23.85840
993.9788, 24.11994
994.4609, 24.30606
994.9431, 24.42101
995.4252, 24.39158
995.9073, 24.40652
996.3894, 24.76835
996.8715, 25.28863
997.3536, 25.66468
997.8358, 25.75186
998.3179, 25.76258
998.8000, 25.63932
999.2821, 25.54222
999.7642, 25.65922
1000.246, 25.94869
1000.728, 26.11979
1001.211, 26.17087
1001.693, 26.38780
1002.175, 27.14076
1002.657, 27.96409
1003.139, 28.56545
1003.621, 28.95267
1004.103, 29.27252
1004.585, 29.51346
1005.068, 29.71459
1005.550, 29.85254
1006.032, 30.02787
1006.514, 30.44405
1006.996, 31.01324
1007.478, 31.57178
1007.960, 32.07317
1008.442, 32.55558
1008.924, 33.05690
1009.407, 33.52901
1009.889, 33.94284
1010.371, 34.29531
1010.853, 34.57821
1011.335, 34.79345
1011.817, 35.13432
1012.299, 35.77907
1012.781, 36.56975
1013.263, 37.46328
1013.746, 38.39394
1014.228, 39.14246
1014.710, 39.43090
1015.192, 40.01595
1015.674, 41.09267
1016.156, 42.36283
1016.638, 43.38993
1017.120, 44.24755
1017.603, 45.10077
1018.085, 45.95384
1018.567, 47.08533
1019.049, 48.70638
1019.531, 50.63184
1020.013, 52.72159
1020.495, 54.96954
1020.977, 57.59146
1021.459, 60.57841
1021.942, 64.01842
1022.424, 68.02320
1022.906, 72.42387
1023.388, 76.97984
1023.870, 81.81553
1024.352, 87.17469
1024.834, 92.65423
1025.316, 99.46545
1025.799, 108.0303
1026.281, 117.3969
1026.763, 126.7293
1027.245, 135.9286
1027.727, 145.3349
1028.209, 154.9670
1028.691, 164.8527
1029.173, 174.5222
1029.656, 184.9371
1030.138, 196.8521
1030.620, 210.0714
1031.102, 223.4532
1031.584, 236.8324
1032.066, 251.2524
1032.548, 267.1652
1033.030, 284.0692
1033.512, 301.7463
1033.995, 319.5845
1034.477, 336.5041
1034.959, 352.6965
1035.441, 366.1577
1035.923, 377.8250
1036.405, 384.9698
1036.887, 386.0145
1037.369, 381.1494
1037.851, 371.7887
1038.334, 358.1176
1038.816, 340.3518
1039.298, 316.3373
1039.780, 290.6094
1040.262, 264.7422
1040.744, 239.4574
1041.226, 215.8845
1041.708, 193.6214
1042.191, 173.4439
1042.673, 155.1035
1043.155, 138.8733
1043.637, 125.0437
1044.119, 113.2372
1044.601, 102.8511
1045.083, 93.69599
1045.565, 85.74233
1046.047, 79.26820
1046.530, 73.60629
1047.012, 68.66280
1047.494, 64.35800
1047.976, 60.56284
1048.458, 57.20677
1048.940, 54.08834
1049.422, 51.08656
1049.904, 48.43317
1050.386, 46.47676
1050.869, 44.81867
1051.351, 42.99236
1051.833, 40.85544
1052.315, 39.32439
1052.797, 38.53977
1053.279, 37.69972
1053.761, 36.12121
1054.243, 34.30370
1054.726, 33.11251
1055.208, 32.38680
1055.690, 31.70094
1056.172, 30.87677
1056.654, 30.12000
1057.136, 29.42402
1057.618, 28.83477
1058.100, 28.45552
1058.583, 28.24833
1059.065, 27.98353
1059.547, 27.64286
1060.029, 27.20320
1060.511, 26.50117
1060.993, 25.84574
1061.475, 25.50832
1061.957, 25.39621
1062.439, 25.10279
1062.922, 24.60395
1063.404, 24.04334
1063.886, 23.40909
1064.368, 22.88258
1064.850, 22.77786
1065.332, 22.87349
1065.814, 22.87484
1066.296, 22.71378
1066.778, 22.51059
1067.261, 22.23299
1067.743, 22.00204
1068.225, 21.89632
1068.707, 21.87490
1069.189, 21.82308
1069.671, 21.74084
1070.153, 21.62746
1070.635, 21.47433
1071.118, 21.30200
1071.600, 21.12674
1072.082, 20.93354
1072.564, 20.68604
1073.046, 20.37278
1073.528, 20.21510
1074.010, 20.22740
1074.492, 20.17733
1074.974, 19.66998
1075.457, 19.20395
1075.939, 19.40320
1076.421, 20.05823
1076.903, 20.23001
1077.385, 19.61331
1077.867, 19.22077
1078.349, 19.25141
1078.831, 19.47021
1079.313, 19.69045
1079.796, 19.83303
1080.278, 19.67228
1080.760, 19.15429
1081.242, 18.82522
1081.724, 19.10052
1082.206, 19.32697
1082.688, 19.26345
1083.170, 18.99338
1083.652, 18.74255
1084.135, 18.51768
1084.617, 18.36663
1085.099, 18.31466
1085.581, 18.31372
1086.063, 18.32659
1086.545, 18.38709
1087.027, 18.57352
1087.509, 18.92748
1087.992, 18.92126
1088.474, 18.53503
1088.956, 18.09692
1089.438, 17.70799
1089.920, 17.45276
1090.402, 17.40842
1090.884, 17.56218
1091.366, 17.91579
1091.849, 18.80445
1092.331, 19.16210
1092.813, 18.80170
1093.295, 18.27173
1093.777, 18.14222
1094.259, 18.23117
1094.741, 18.11674
1095.223, 17.82065
1095.705, 17.66324
1096.188, 17.90325
1096.670, 18.15314
1097.152, 18.38752
1097.634, 18.50572
1098.116, 18.16623
1098.598, 17.50059
1099.080, 17.28501
1099.562, 17.67200
1100.044, 18.18330
1100.527, 18.67696
1101.009, 19.03141
1101.491, 19.13826
1101.973, 19.03512
1102.455, 18.88522
1102.937, 18.68582
1103.419, 18.49228
1103.901, 18.31334
1104.384, 18.17550
1104.866, 18.03880
1105.348, 17.99763
1105.830, 18.22888
1106.312, 18.89893
1106.794, 19.15564
1107.276, 18.87873
1107.758, 18.61056
1108.240, 18.65154
1108.723, 18.90288
1109.205, 19.31343
1109.687, 19.78217
1110.169, 20.08014
1110.651, 19.93862
1111.133, 19.91853
1111.615, 20.10850
1112.097, 20.35032
1112.579, 20.48692
1113.062, 20.55599
1113.544, 20.69202
1114.026, 20.89576
1114.508, 21.13529
1114.990, 21.40673
1115.472, 21.69958
1115.954, 22.03163
1116.436, 22.36066
1116.919, 22.64373
1117.401, 22.87730
1117.883, 22.92442
1118.365, 22.76215
1118.847, 22.64436
1119.329, 22.92272
1119.811, 23.16641
1120.293, 22.85390
1120.776, 22.22816
1121.258, 22.41918
1121.740, 23.55389
1122.222, 24.29006
1122.704, 24.26667
1123.186, 23.96812
1123.668, 23.74070
1124.150, 23.61995
1124.632, 23.68412
1125.115, 23.97159
1125.597, 24.15454
1126.079, 24.23064
1126.561, 24.18907
1127.043, 23.98256
1127.525, 23.72497
1128.007, 23.63295
1128.489, 23.61409
1128.971, 23.48377
1129.454, 23.07635
1129.936, 22.95254
1130.418, 23.41958
1130.900, 23.66202
1131.382, 23.01503
1131.864, 21.86529
1132.346, 21.34317
1132.828, 21.29844
1133.311, 21.25646
1133.793, 20.97478
1134.275, 20.73880
1134.757, 20.64310
1135.239, 20.57467
1135.721, 20.45306
1136.203, 20.27658
1136.685, 19.95546
1137.167, 19.51782
1137.650, 19.22477
1138.132, 19.40928
1138.614, 19.56740
1139.096, 19.42449
1139.578, 19.13773
1140.060, 18.89773
1140.542, 18.70240
1141.024, 18.59880
1141.506, 18.59196
1141.989, 18.59653
1142.471, 18.47120
1142.953, 18.40580
1143.435, 18.60197
1143.917, 18.96889
1144.399, 19.19984
1144.881, 19.28308
1145.363, 19.29121
1145.846, 19.22470
1146.328, 19.15688
1146.810, 19.13479
1147.292, 19.16772
1147.774, 19.27835
1148.256, 19.46760
1148.738, 19.68289
1149.220, 19.97547
1149.703, 20.05915
1150.185, 19.79196
1150.667, 19.46517
1151.149, 19.48774
1151.631, 19.67770
1152.113, 19.74454
1152.595, 19.59712
1153.077, 19.75378
1153.559, 20.39899
1154.042, 20.92127
1154.524, 21.03994
1155.006, 20.94848
1155.488, 20.92405
1155.970, 20.97733
1156.452, 21.16290
1156.934, 21.61291
1157.416, 21.80736
1157.898, 21.58949
1158.381, 21.32455
1158.863, 21.22225
1159.345, 21.21407
1159.827, 21.09081
1160.309, 20.89776
1160.791, 20.76130
1161.273, 20.75882
1161.755, 20.76375
1162.238, 20.77707
1162.720, 20.75517
1163.202, 20.60995
1163.684, 20.39579
1164.166, 20.47476
1164.648, 20.76874
1165.130, 20.92888
1165.612, 20.71789
1166.094, 20.42902
1166.577, 20.12582
1167.059, 19.81129
1167.541, 19.44077
1168.023, 19.04003
1168.505, 18.96071
1168.987, 19.16500
1169.469, 19.24957
1169.951, 18.86619
1170.433, 18.43942
1170.916, 18.13646
1171.398, 17.91095
1171.880, 17.66447
1172.362, 17.40822
1172.844, 17.49195
1173.326, 17.93043
1173.808, 18.25899
1174.290, 18.08838
1174.773, 17.77973
1175.255, 17.42894
1175.737, 17.12915
1176.219, 17.15462
1176.701, 17.50882
1177.183, 17.47261
1177.665, 16.93384
1178.147, 16.36477
1178.630, 16.03867
1179.112, 15.90838
1179.594, 16.06078
1180.076, 16.37432
1180.558, 16.47042
1181.040, 16.33923
1181.522, 16.18056
1182.004, 16.02399
1182.486, 15.90406
1182.969, 15.86244
1183.451, 15.86125
1183.933, 15.87009
1184.415, 15.89011
1184.897, 15.98387
1185.379, 16.17620
1185.861, 16.12135
1186.343, 15.66233
1186.825, 15.22451
1187.308, 15.26311
1187.790, 15.49771
1188.272, 15.70246
1188.754, 15.85525
1189.236, 15.85902
1189.718, 15.68692
1190.200, 15.64027
1190.682, 15.86972
1191.165, 16.10306
1191.647, 16.03335
1192.129, 15.82329
1192.611, 15.61777
1193.093, 15.42893
1193.575, 15.37783
1194.057, 15.48845
1194.539, 15.55484
1195.021, 15.47076
1195.504, 15.36024
1195.986, 15.35474
1196.468, 15.41108
1196.950, 15.48751
1197.432, 15.59016
1197.914, 15.62308
1198.396, 15.57618
1198.878, 15.53334
1199.360, 15.57869
1199.843, 15.57917
1200.325, 15.18991
1200.807, 14.74303
1201.289, 14.80089
1201.771, 15.62714
1202.253, 15.89282
1202.735, 15.49800
1203.217, 15.19950
1203.700, 15.56189
1204.182, 16.06785
1204.664, 16.12627
1205.146, 15.92048
1205.628, 15.72974
1206.110, 15.55585
1206.592, 15.53642
1207.074, 15.70429
1207.557, 15.81318
1208.039, 15.64862
1208.521, 15.39839
1209.003, 15.19707
1209.485, 15.08066
1209.967, 15.14616
1210.449, 15.52601
1210.931, 15.66025
1211.413, 15.50588
1211.896, 15.38564
1212.378, 15.58913
1212.860, 15.88602
1213.342, 16.05915
1213.824, 16.13349
1214.306, 16.16571
1214.788, 16.21686
1215.270, 15.99680
1215.752, 15.45290
1216.235, 15.02286
1216.717, 15.12401
1217.199, 15.41346
1217.681, 15.68248
1218.163, 15.84302
1218.645, 15.65228
1219.127, 14.91742
1219.609, 14.66229
1220.092, 14.96746
1220.574, 15.37195
1221.056, 15.63750
1221.538, 15.72192
1222.020, 15.38231
1222.502, 14.88098
1222.984, 14.84369
1223.466, 15.42638
1223.948, 15.76435
1224.431, 15.79570
1224.913, 15.72518
1225.395, 15.63260
1225.877, 15.58592
1226.359, 15.77136
1226.841, 16.00845
1227.323, 15.83419
1227.805, 15.14786
1228.287, 14.72030
1228.770, 14.60563
1229.252, 14.76958
1229.734, 15.54013
1230.216, 16.23195
1230.698, 16.23760
1231.180, 15.79903
1231.662, 15.48009
1232.144, 15.27635
1232.627, 15.25250
1233.109, 15.41757
1233.591, 15.63204
1234.073, 15.93513
1234.555, 16.10817
1235.037, 15.84556
1235.519, 15.41877
1236.001, 15.38271
1236.484, 15.73758
1236.966, 15.87644
1237.448, 15.74512
1237.930, 15.56655
1238.412, 15.40335
1238.894, 15.33295
1239.376, 15.51347
1239.858, 15.75310
1240.340, 15.68554
1240.823, 15.35055
1241.305, 15.21923
1241.787, 15.33058
1242.269, 15.45066
1242.751, 15.43345
1243.233, 15.38996
1243.715, 15.34678
1244.197, 15.32588
1244.679, 15.37578
1245.162, 15.48191
1245.644, 15.58495
1246.126, 15.67538
1246.608, 15.68471
1247.090, 15.48345
1247.572, 15.31688
1248.054, 15.28519
1248.536, 15.29484
1249.019, 15.10112
1249.501, 14.84220
1249.983, 15.10462
1250.465, 15.87249
1250.947, 16.36016
1251.429, 15.98279
1251.911, 15.61112
1252.393, 15.41003
1252.875, 15.32036
1253.358, 15.28920
1253.840, 15.29817
1254.322, 15.31594
1254.804, 15.33634
1255.286, 15.33464
1255.768, 15.33178
1256.250, 15.23180
1256.732, 14.96092
1257.214, 14.74301
1257.697, 14.93912
1258.179, 15.32454
1258.661, 15.54304
1259.143, 15.59453
1259.625, 15.65072
1260.107, 15.78561
1260.589, 15.77961
1261.071, 15.57010
1261.554, 15.34690
1262.036, 15.29215
1262.518, 15.35286
1263.000, 15.55971
1263.482, 15.83785
1263.964, 15.80694
1264.446, 15.27795
1264.928, 15.35403
1265.411, 16.26657
1265.893, 17.03297
1266.375, 16.51560
1266.857, 15.69871
1267.339, 15.44897
1267.821, 15.60029
1268.303, 15.49031
1268.785, 15.08265
1269.267, 14.91832
1269.750, 15.06250
1270.232, 15.21716
1270.714, 15.16976
1271.196, 15.05064
1271.678, 14.83567
1272.160, 14.66051
1272.642, 14.82162
1273.124, 15.28255
1273.606, 15.52503
1274.089, 15.51244
1274.571, 15.38304
1275.053, 15.06971
1275.535, 14.84065
1276.017, 14.77804
1276.499, 14.85534
1276.981, 15.14746
1277.463, 15.54831
1277.946, 15.59989
1278.428, 15.32029
1278.910, 15.05705
1279.392, 14.97812
1279.874, 14.90253
1280.356, 14.74533
1280.838, 14.67770
1281.320, 15.02380
1281.802, 15.53713
1282.285, 15.66706
1282.767, 15.47474
1283.249, 15.32628
1283.731, 15.38688
1284.213, 15.33484
1284.695, 15.11002
1285.177, 14.90699
1285.659, 14.89851
1286.141, 15.01908
1286.624, 15.24956
1287.106, 15.53457
1287.588, 15.73787
1288.070, 15.87335
1288.552, 15.80420
1289.034, 15.50138
1289.516, 15.25823
1289.998, 15.34033
1290.481, 15.53150
1290.963, 15.72036
1291.445, 15.86948
1291.927, 15.93802
1292.409, 15.92489
1292.891, 15.81550
1293.373, 15.61877
1293.855, 15.46351
1294.338, 15.47202
1294.820, 15.48592
1295.302, 15.41204
1295.784, 15.32650
1296.266, 15.29468
1296.748, 15.31127
1297.230, 15.37464
1297.712, 15.45993
1298.194, 15.45798
1298.677, 15.09447
1299.159, 14.99768
1299.641, 15.37960
1300.123, 15.77812
1300.605, 15.80604
1301.087, 15.61663
1301.569, 15.57371
1302.051, 15.60937
1302.533, 15.56772
1303.016, 15.39966
##END=



