##NAMES=Friedelite
##RRUFFID=R070085
##IDEAL CHEMISTRY=Mn^2+^_8_Si_6_O_15_(OH)_10_
##LOCALITY=Sterling Hill mine, Ogdensburg, New Jersey, USA
##OWNER=RRUFF
##SOURCE=Bob Jenkins
##DESCRIPTION=Orange-brown coarsely crystalline
##STATUS=The identification of this mineral is confirmed by single-crystal X-ray diffraction and chemical analysis.
##URL=rruff.info/R070085
##MEASURED CHEMISTRY=(Mn^2+^_7.02_Fe^2+^_0.49_Mg_0.36_Zn_0.11_Al_0.02_)_Σ=8_(Si_5.98_Al_0.02_)_Σ=6_O_15_((OH)_9.13_Cl_0.87_)_Σ=10_; OH estimated by difference and charge balance
171.8768, 3540.344
172.3589, 3529.616
172.8411, 3522.285
173.3232, 3519.359
173.8053, 3520.978
174.2874, 3527.078
174.7695, 3540.909
175.2516, 3560.454
175.7338, 3577.473
176.2159, 3588.338
176.6980, 3592.667
177.1801, 3588.610
177.6622, 3571.483
178.1443, 3551.261
178.6264, 3541.313
179.1086, 3541.142
179.5907, 3544.435
180.0728, 3549.107
180.5549, 3553.591
181.0370, 3553.279
181.5191, 3542.974
182.0013, 3529.018
182.4834, 3526.382
182.9655, 3535.759
183.4476, 3544.385
183.9297, 3535.228
184.4118, 3512.153
184.8940, 3494.258
185.3761, 3493.206
185.8582, 3503.043
186.3403, 3502.440
186.8224, 3489.320
187.3046, 3474.849
187.7867, 3473.884
188.2688, 3485.784
188.7509, 3500.015
189.2330, 3511.892
189.7151, 3521.838
190.1973, 3533.514
190.6794, 3548.096
191.1615, 3561.997
191.6436, 3568.129
192.1257, 3566.094
192.6078, 3563.452
193.0900, 3563.249
193.5721, 3565.591
194.0542, 3572.987
194.5363, 3587.282
195.0184, 3604.947
195.5005, 3617.199
195.9826, 3623.612
196.4648, 3627.298
196.9469, 3629.669
197.4290, 3630.678
197.9111, 3632.908
198.3932, 3639.027
198.8753, 3645.891
199.3575, 3639.763
199.8396, 3618.033
200.3217, 3592.207
200.8038, 3570.627
201.2859, 3552.846
201.7680, 3542.151
202.2502, 3540.111
202.7323, 3546.043
203.2144, 3555.582
203.6965, 3571.253
204.1786, 3585.068
204.6607, 3587.106
205.1429, 3574.939
205.6250, 3562.203
206.1071, 3552.442
206.5892, 3545.596
207.0713, 3538.240
207.5534, 3529.225
208.0356, 3521.407
208.5177, 3520.556
208.9998, 3530.488
209.4819, 3534.963
209.9640, 3525.240
210.4461, 3497.541
210.9282, 3485.515
211.4104, 3495.943
211.8925, 3515.144
212.3746, 3518.196
212.8567, 3497.844
213.3388, 3478.762
213.8209, 3469.746
214.3031, 3471.780
214.7852, 3482.027
215.2673, 3506.939
215.7494, 3536.257
216.2315, 3544.798
216.7136, 3523.454
217.1958, 3498.854
217.6779, 3482.406
218.1600, 3475.512
218.6421, 3473.964
219.1242, 3481.544
219.6063, 3493.578
220.0885, 3494.010
220.5706, 3475.747
221.0527, 3457.354
221.5348, 3449.317
222.0169, 3456.260
222.4990, 3462.125
222.9812, 3464.456
223.4633, 3464.703
223.9454, 3470.501
224.4275, 3485.796
224.9096, 3501.347
225.3917, 3511.272
225.8739, 3512.734
226.3560, 3514.394
226.8381, 3516.027
227.3202, 3518.101
227.8023, 3525.884
228.2844, 3543.386
228.7665, 3561.895
229.2487, 3574.503
229.7308, 3580.092
230.2129, 3581.986
230.6950, 3578.434
231.1771, 3569.821
231.6592, 3567.742
232.1414, 3574.996
232.6235, 3586.044
233.1056, 3595.715
233.5877, 3602.267
234.0698, 3611.132
234.5519, 3624.338
235.0341, 3642.099
235.5162, 3656.640
235.9983, 3666.349
236.4804, 3674.129
236.9625, 3683.309
237.4446, 3696.046
237.9268, 3706.055
238.4089, 3711.489
238.8910, 3711.728
239.3731, 3712.297
239.8552, 3711.954
240.3373, 3712.931
240.8195, 3717.058
241.3016, 3720.484
241.7837, 3733.966
242.2658, 3763.761
242.7479, 3814.445
243.2300, 3853.815
243.7122, 3881.007
244.1943, 3897.503
244.6764, 3903.270
245.1585, 3888.519
245.6406, 3879.903
246.1227, 3885.746
246.6048, 3908.818
247.0870, 3933.936
247.5691, 3964.371
248.0512, 3994.752
248.5333, 4014.895
249.0154, 4014.260
249.4975, 4021.361
249.9797, 4048.579
250.4618, 4105.116
250.9439, 4145.158
251.4260, 4161.612
251.9081, 4165.792
252.3902, 4176.782
252.8724, 4194.836
253.3545, 4219.504
253.8366, 4250.869
254.3187, 4289.878
254.8008, 4334.392
255.2829, 4392.617
255.7651, 4451.524
256.2472, 4483.549
256.7293, 4471.230
257.2114, 4464.175
257.6935, 4484.917
258.1756, 4546.905
258.6577, 4590.981
259.1399, 4611.557
259.6220, 4617.880
260.1041, 4628.526
260.5862, 4643.336
261.0683, 4663.007
261.5504, 4690.897
262.0326, 4733.618
262.5147, 4759.892
262.9968, 4763.728
263.4789, 4754.631
263.9610, 4754.624
264.4431, 4769.005
264.9253, 4780.494
265.4074, 4779.883
265.8895, 4763.297
266.3716, 4750.478
266.8537, 4742.554
267.3358, 4738.075
267.8180, 4733.546
268.3001, 4728.427
268.7822, 4724.807
269.2643, 4726.222
269.7464, 4735.783
270.2285, 4733.075
270.7107, 4714.196
271.1928, 4685.438
271.6749, 4660.920
272.1570, 4641.351
272.6391, 4622.941
273.1212, 4602.338
273.6034, 4578.273
274.0855, 4563.559
274.5676, 4563.958
275.0497, 4568.709
275.5318, 4549.864
276.0139, 4501.225
276.4961, 4454.848
276.9782, 4428.370
277.4603, 4422.963
277.9424, 4422.290
278.4245, 4428.015
278.9066, 4434.801
279.3888, 4428.929
279.8709, 4408.056
280.3530, 4389.458
280.8351, 4383.154
281.3172, 4389.191
281.7993, 4398.517
282.2815, 4412.827
282.7636, 4426.728
283.2457, 4428.598
283.7278, 4417.790
284.2099, 4403.779
284.6920, 4387.513
285.1741, 4370.034
285.6563, 4367.968
286.1384, 4386.912
286.6205, 4412.234
287.1026, 4416.915
287.5847, 4401.120
288.0668, 4384.635
288.5490, 4376.650
289.0311, 4376.845
289.5132, 4385.711
289.9953, 4405.664
290.4774, 4427.505
290.9595, 4435.076
291.4417, 4429.559
291.9238, 4424.526
292.4059, 4427.444
292.8880, 4436.797
293.3701, 4447.897
293.8522, 4460.382
294.3344, 4474.439
294.8165, 4494.586
295.2986, 4518.828
295.7807, 4535.084
296.2628, 4527.171
296.7449, 4507.571
297.2271, 4507.369
297.7092, 4531.572
298.1913, 4562.759
298.6734, 4578.992
299.1555, 4584.347
299.6376, 4592.726
300.1198, 4617.495
300.6019, 4648.256
301.0840, 4663.539
301.5661, 4658.803
302.0482, 4657.516
302.5303, 4687.316
303.0125, 4738.916
303.4946, 4789.768
303.9767, 4832.837
304.4588, 4867.002
304.9409, 4885.688
305.4230, 4886.272
305.9052, 4889.500
306.3873, 4914.214
306.8694, 4953.480
307.3515, 4993.811
307.8336, 5029.865
308.3157, 5064.004
308.7979, 5098.485
309.2800, 5133.648
309.7621, 5166.015
310.2442, 5187.223
310.7263, 5205.274
311.2084, 5231.979
311.6906, 5282.773
312.1727, 5335.691
312.6548, 5375.008
313.1369, 5400.139
313.6190, 5425.281
314.1011, 5462.760
314.5833, 5502.987
315.0654, 5534.832
315.5475, 5541.704
316.0296, 5550.848
316.5117, 5578.841
316.9938, 5625.801
317.4760, 5667.732
317.9580, 5700.729
318.4402, 5721.936
318.9223, 5728.557
319.4044, 5698.410
319.8865, 5674.624
320.3686, 5676.703
320.8507, 5702.979
321.3329, 5719.557
321.8150, 5704.371
322.2971, 5684.100
322.7792, 5677.963
323.2613, 5719.646
323.7434, 5742.627
324.2256, 5729.086
324.7077, 5682.672
325.1898, 5635.857
325.6719, 5601.680
326.1540, 5561.721
326.6361, 5505.816
327.1183, 5417.260
327.6004, 5331.977
328.0825, 5248.250
328.5646, 5167.604
329.0467, 5099.502
329.5288, 5049.099
330.0110, 5005.844
330.4931, 4964.685
330.9752, 4927.046
331.4573, 4888.676
331.9394, 4846.163
332.4215, 4803.010
332.9037, 4769.612
333.3858, 4748.020
333.8679, 4733.609
334.3500, 4727.146
334.8321, 4737.289
335.3142, 4728.814
335.7964, 4691.339
336.2785, 4642.170
336.7606, 4618.198
337.2427, 4628.623
337.7248, 4640.052
338.2069, 4637.471
338.6891, 4618.785
339.1712, 4604.518
339.6533, 4594.608
340.1354, 4589.441
340.6175, 4592.413
341.0996, 4605.196
341.5818, 4613.676
342.0639, 4612.115
342.5460, 4601.241
343.0281, 4585.474
343.5102, 4563.047
343.9923, 4542.603
344.4745, 4536.568
344.9566, 4544.165
345.4387, 4553.689
345.9208, 4563.272
346.4029, 4571.406
346.8850, 4571.840
347.3672, 4564.168
347.8493, 4554.598
348.3314, 4547.341
348.8135, 4542.731
349.2956, 4542.385
349.7777, 4547.998
350.2599, 4556.984
350.7419, 4564.270
351.2241, 4570.290
351.7062, 4580.369
352.1883, 4605.996
352.6704, 4637.208
353.1525, 4654.772
353.6346, 4645.728
354.1168, 4633.806
354.5989, 4645.064
355.0810, 4674.375
355.5631, 4701.554
356.0452, 4710.119
356.5273, 4712.655
357.0095, 4722.841
357.4916, 4747.220
357.9737, 4770.381
358.4558, 4783.933
358.9379, 4789.456
359.4200, 4790.444
359.9022, 4776.425
360.3843, 4766.825
360.8664, 4773.379
361.3485, 4798.960
361.8306, 4835.927
362.3127, 4897.162
362.7949, 4964.942
363.2770, 5013.605
363.7591, 5020.012
364.2412, 5021.118
364.7233, 5030.105
365.2054, 5049.468
365.6876, 5066.275
366.1697, 5080.054
366.6518, 5089.990
367.1339, 5095.137
367.6160, 5080.492
368.0981, 5077.340
368.5803, 5094.339
369.0624, 5131.852
369.5445, 5165.481
370.0266, 5196.159
370.5087, 5222.099
370.9908, 5241.944
371.4730, 5254.654
371.9551, 5262.365
372.4372, 5261.957
372.9193, 5256.302
373.4014, 5259.595
373.8835, 5274.121
374.3657, 5293.203
374.8478, 5313.261
375.3299, 5334.571
375.8120, 5356.763
376.2941, 5380.935
376.7762, 5405.174
377.2584, 5424.734
377.7405, 5439.433
378.2226, 5451.694
378.7047, 5462.124
379.1868, 5470.790
379.6689, 5481.452
380.1511, 5495.128
380.6332, 5507.539
381.1153, 5508.377
381.5974, 5499.405
382.0795, 5498.468
382.5616, 5516.916
383.0438, 5547.576
383.5259, 5574.412
384.0080, 5597.289
384.4901, 5616.133
384.9722, 5628.076
385.4543, 5635.935
385.9364, 5647.213
386.4185, 5667.431
386.9007, 5688.940
387.3828, 5702.462
387.8649, 5708.911
388.3470, 5714.959
388.8291, 5725.221
389.3112, 5737.428
389.7934, 5748.499
390.2755, 5756.504
390.7576, 5765.665
391.2397, 5779.317
391.7218, 5796.236
392.2039, 5813.357
392.6861, 5831.856
393.1682, 5848.376
393.6503, 5859.618
394.1324, 5862.344
394.6145, 5868.927
395.0966, 5887.493
395.5788, 5910.939
396.0609, 5929.203
396.5430, 5937.961
397.0251, 5943.585
397.5072, 5946.869
397.9893, 5947.290
398.4715, 5949.400
398.9536, 5957.970
399.4357, 5965.477
399.9178, 5964.895
400.3999, 5942.017
400.8820, 5933.177
401.3642, 5950.024
401.8463, 5987.142
402.3284, 6008.234
402.8105, 6010.099
403.2926, 6001.089
403.7747, 5983.270
404.2569, 5952.176
404.7390, 5930.943
405.2211, 5923.711
405.7032, 5924.637
406.1853, 5921.511
406.6674, 5914.190
407.1496, 5903.741
407.6317, 5892.727
408.1138, 5880.441
408.5959, 5853.063
409.0780, 5806.388
409.5602, 5759.899
410.0423, 5746.853
410.5244, 5760.236
411.0065, 5763.499
411.4886, 5737.592
411.9707, 5695.583
412.4529, 5659.060
412.9350, 5627.771
413.4171, 5601.944
413.8992, 5588.150
414.3813, 5577.952
414.8634, 5557.005
415.3456, 5517.779
415.8277, 5472.221
416.3098, 5422.064
416.7919, 5371.949
417.2740, 5335.215
417.7561, 5332.001
418.2382, 5337.444
418.7203, 5335.153
419.2025, 5323.646
419.6846, 5301.106
420.1667, 5253.137
420.6488, 5196.651
421.1309, 5155.749
421.6130, 5155.101
422.0952, 5154.717
422.5773, 5138.998
423.0594, 5104.720
423.5415, 5079.458
424.0236, 5074.512
424.5057, 5074.442
424.9879, 5066.966
425.4700, 5041.467
425.9521, 5025.264
426.4342, 5027.724
426.9163, 5042.799
427.3984, 5038.303
427.8806, 4999.333
428.3627, 4966.372
428.8448, 4966.038
429.3269, 5008.771
429.8090, 5031.452
430.2911, 5026.117
430.7733, 5008.627
431.2554, 5008.137
431.7375, 5026.096
432.2196, 5040.248
432.7017, 5036.199
433.1838, 5019.848
433.6660, 5024.305
434.1481, 5051.639
434.6302, 5079.142
435.1123, 5079.702
435.5944, 5061.394
436.0765, 5049.245
436.5587, 5050.802
437.0408, 5061.102
437.5229, 5079.974
438.0050, 5104.411
438.4871, 5119.900
438.9692, 5107.160
439.4514, 5085.739
439.9335, 5076.172
440.4156, 5083.662
440.8977, 5097.230
441.3798, 5113.133
441.8619, 5130.334
442.3441, 5147.046
442.8262, 5166.161
443.3083, 5181.604
443.7904, 5187.708
444.2725, 5183.424
444.7546, 5185.035
445.2368, 5203.539
445.7189, 5224.956
446.2010, 5238.057
446.6831, 5234.750
447.1652, 5232.244
447.6473, 5230.500
448.1295, 5230.173
448.6116, 5234.918
449.0937, 5250.858
449.5758, 5262.842
450.0579, 5262.524
450.5400, 5245.946
451.0221, 5232.929
451.5042, 5221.718
451.9864, 5216.790
452.4685, 5229.128
452.9506, 5261.033
453.4327, 5286.654
453.9148, 5293.481
454.3969, 5288.083
454.8791, 5296.917
455.3612, 5320.577
455.8433, 5347.279
456.3254, 5370.636
456.8075, 5389.169
457.2896, 5396.981
457.7718, 5391.495
458.2539, 5378.447
458.7360, 5363.051
459.2181, 5345.321
459.7002, 5325.227
460.1823, 5298.215
460.6645, 5271.357
461.1466, 5250.389
461.6287, 5235.877
462.1108, 5226.869
462.5929, 5224.389
463.0750, 5226.506
463.5572, 5231.004
464.0393, 5245.368
464.5214, 5253.771
465.0035, 5245.737
465.4856, 5224.509
465.9677, 5213.844
466.4499, 5225.120
466.9320, 5240.851
467.4141, 5252.788
467.8962, 5256.387
468.3783, 5264.861
468.8604, 5277.298
469.3426, 5295.048
469.8247, 5322.425
470.3068, 5363.615
470.7889, 5403.053
471.2710, 5436.334
471.7531, 5463.753
472.2353, 5488.473
472.7174, 5510.251
473.1995, 5530.583
473.6816, 5549.039
474.1637, 5566.498
474.6458, 5590.133
475.1280, 5623.203
475.6101, 5659.205
476.0922, 5685.666
476.5743, 5704.824
477.0564, 5727.329
477.5385, 5760.617
478.0207, 5800.109
478.5028, 5842.004
478.9849, 5886.303
479.4670, 5928.486
479.9491, 5962.443
480.4312, 5993.559
480.9134, 6028.012
481.3955, 6077.196
481.8776, 6121.365
482.3597, 6144.129
482.8418, 6152.644
483.3239, 6175.560
483.8060, 6235.245
484.2881, 6299.298
484.7703, 6350.915
485.2524, 6383.694
485.7345, 6417.839
486.2166, 6453.864
486.6987, 6490.885
487.1808, 6529.336
487.6630, 6573.757
488.1451, 6610.311
488.6272, 6635.459
489.1093, 6649.870
489.5914, 6660.490
490.0735, 6669.639
490.5557, 6666.299
491.0378, 6640.113
491.5199, 6592.131
492.0020, 6538.398
492.4841, 6480.907
492.9662, 6417.623
493.4484, 6343.818
493.9305, 6260.621
494.4126, 6176.182
494.8947, 6086.027
495.3768, 6000.099
495.8589, 5934.949
496.3411, 5889.563
496.8232, 5842.075
497.3053, 5769.847
497.7874, 5691.660
498.2695, 5627.769
498.7516, 5586.394
499.2338, 5553.462
499.7159, 5524.405
500.1980, 5499.764
500.6801, 5481.717
501.1622, 5471.724
501.6443, 5467.159
502.1265, 5471.563
502.6086, 5488.249
503.0907, 5489.293
503.5728, 5464.459
504.0549, 5433.073
504.5370, 5409.677
505.0192, 5396.572
505.5013, 5385.721
505.9834, 5377.706
506.4655, 5370.559
506.9476, 5357.576
507.4297, 5337.128
507.9119, 5321.360
508.3940, 5316.383
508.8761, 5321.151
509.3582, 5333.053
509.8403, 5353.094
510.3224, 5369.587
510.8046, 5367.098
511.2867, 5352.634
511.7688, 5342.324
512.2509, 5342.684
512.7330, 5345.504
513.2151, 5344.538
513.6973, 5339.952
514.1794, 5332.229
514.6615, 5322.258
515.1436, 5308.739
515.6257, 5287.940
516.1078, 5257.411
516.5900, 5234.874
517.0721, 5232.630
517.5542, 5236.310
518.0363, 5233.218
518.5184, 5215.843
519.0005, 5199.144
519.4827, 5184.153
519.9648, 5170.418
520.4469, 5156.869
520.9290, 5142.576
521.4111, 5129.999
521.8932, 5120.323
522.3754, 5113.617
522.8575, 5109.137
523.3396, 5108.441
523.8217, 5104.885
524.3038, 5085.503
524.7859, 5053.775
525.2681, 5035.178
525.7502, 5038.428
526.2323, 5052.838
526.7144, 5065.424
527.1965, 5075.860
527.6786, 5082.514
528.1608, 5082.254
528.6429, 5079.080
529.1250, 5076.096
529.6071, 5073.412
530.0892, 5073.163
530.5714, 5084.703
531.0535, 5095.416
531.5356, 5092.999
532.0176, 5057.075
532.4998, 5027.813
532.9819, 5012.055
533.4640, 5008.530
533.9461, 5013.535
534.4282, 5042.465
534.9103, 5060.332
535.3925, 5049.854
535.8746, 5005.558
536.3567, 4992.306
536.8388, 5019.912
537.3209, 5059.561
537.8030, 5087.077
538.2852, 5102.325
538.7673, 5105.835
539.2494, 5093.655
539.7315, 5076.592
540.2136, 5075.870
540.6957, 5089.196
541.1779, 5102.061
541.6600, 5106.086
542.1421, 5105.750
542.6242, 5108.995
543.1063, 5115.640
543.5884, 5117.232
544.0706, 5097.160
544.5527, 5074.611
545.0348, 5070.096
545.5169, 5099.577
545.9990, 5125.916
546.4811, 5134.995
546.9633, 5132.922
547.4454, 5130.348
547.9275, 5130.569
548.4096, 5128.553
548.8917, 5119.146
549.3738, 5102.904
549.8560, 5104.402
550.3381, 5135.768
550.8202, 5165.271
551.3023, 5168.974
551.7844, 5142.651
552.2665, 5125.037
552.7487, 5118.124
553.2308, 5120.606
553.7129, 5134.137
554.1950, 5157.239
554.6771, 5178.978
555.1592, 5198.018
555.6414, 5211.385
556.1235, 5209.302
556.6056, 5194.976
557.0877, 5185.792
557.5698, 5201.841
558.0519, 5222.687
558.5341, 5226.296
559.0162, 5204.834
559.4983, 5190.719
559.9804, 5201.711
560.4625, 5224.640
560.9446, 5245.676
561.4268, 5268.515
561.9089, 5281.481
562.3910, 5275.993
562.8731, 5258.971
563.3552, 5255.768
563.8373, 5273.321
564.3195, 5291.866
564.8016, 5304.435
565.2837, 5311.108
565.7658, 5311.700
566.2479, 5305.497
566.7300, 5296.044
567.2122, 5280.558
567.6943, 5262.749
568.1764, 5265.926
568.6585, 5301.523
569.1406, 5341.797
569.6227, 5347.089
570.1049, 5328.620
570.5870, 5317.031
571.0691, 5333.246
571.5512, 5357.123
572.0333, 5375.377
572.5154, 5388.143
572.9976, 5399.581
573.4797, 5406.426
573.9618, 5415.986
574.4439, 5434.188
574.9260, 5471.621
575.4081, 5497.162
575.8903, 5502.710
576.3724, 5500.896
576.8545, 5508.465
577.3366, 5531.969
577.8187, 5546.455
578.3008, 5541.865
578.7830, 5527.255
579.2651, 5537.089
579.7472, 5572.921
580.2293, 5609.105
580.7114, 5631.429
581.1935, 5642.890
581.6757, 5648.471
582.1578, 5647.973
582.6399, 5650.923
583.1220, 5667.490
583.6041, 5691.916
584.0862, 5715.552
584.5684, 5732.857
585.0505, 5755.184
585.5326, 5793.133
586.0147, 5839.628
586.4968, 5881.524
586.9789, 5914.763
587.4611, 5943.133
587.9432, 5963.469
588.4253, 5976.701
588.9074, 6001.362
589.3895, 6043.683
589.8716, 6088.275
590.3538, 6123.688
590.8359, 6145.894
591.3180, 6187.118
591.8001, 6251.497
592.2822, 6324.605
592.7643, 6388.440
593.2465, 6444.675
593.7286, 6501.884
594.2107, 6558.222
594.6928, 6623.225
595.1749, 6717.983
595.6570, 6834.757
596.1392, 6949.038
596.6213, 7033.462
597.1034, 7121.777
597.5854, 7242.811
598.0676, 7398.939
598.5497, 7553.474
599.0318, 7678.676
599.5139, 7810.715
599.9960, 7976.325
600.4781, 8196.632
600.9603, 8413.280
601.4424, 8611.807
601.9245, 8820.108
602.4066, 9078.905
602.8887, 9394.803
603.3708, 9728.116
603.8530, 10071.06
604.3351, 10421.54
604.8172, 10759.44
605.2993, 11088.50
605.7814, 11426.28
606.2635, 11775.05
606.7457, 12143.91
607.2278, 12550.29
607.7099, 12998.05
608.1920, 13439.54
608.6741, 13835.96
609.1563, 14219.04
609.6384, 14623.96
610.1205, 15076.02
610.6026, 15514.11
611.0847, 15931.08
611.5668, 16324.68
612.0490, 16693.35
612.5311, 17042.26
613.0132, 17366.71
613.4953, 17685.49
613.9774, 17982.70
614.4595, 18178.85
614.9417, 18269.84
615.4238, 18288.82
615.9059, 18257.77
616.3880, 18172.43
616.8701, 18001.77
617.3522, 17744.29
617.8344, 17408.81
618.3165, 16975.96
618.7986, 16473.19
619.2807, 15953.53
619.7628, 15428.65
620.2449, 14885.61
620.7271, 14288.96
621.2092, 13675.04
621.6913, 13098.92
622.1734, 12582.36
622.6555, 12099.42
623.1376, 11644.30
623.6198, 11217.59
624.1019, 10824.65
624.5840, 10474.77
625.0661, 10143.81
625.5482, 9816.079
626.0303, 9493.612
626.5125, 9222.204
626.9946, 9008.226
627.4767, 8817.166
627.9588, 8615.336
628.4409, 8409.658
628.9230, 8226.798
629.4052, 8072.667
629.8873, 7940.226
630.3694, 7829.123
630.8515, 7734.647
631.3336, 7646.458
631.8157, 7558.584
632.2979, 7478.346
632.7800, 7415.541
633.2621, 7363.712
633.7442, 7303.817
634.2263, 7210.200
634.7084, 7129.582
635.1906, 7079.340
635.6727, 7060.866
636.1548, 7038.032
636.6369, 7010.937
637.1190, 6978.985
637.6011, 6939.544
638.0833, 6892.737
638.5654, 6853.008
639.0475, 6821.465
639.5296, 6797.625
640.0117, 6786.893
640.4938, 6783.547
640.9760, 6773.086
641.4581, 6750.065
641.9402, 6721.179
642.4223, 6687.417
642.9044, 6651.964
643.3865, 6620.915
643.8687, 6593.556
644.3508, 6574.223
644.8329, 6571.743
645.3150, 6584.686
645.7971, 6579.617
646.2792, 6547.290
646.7614, 6509.482
647.2435, 6471.544
647.7256, 6431.514
648.2077, 6419.132
648.6898, 6440.457
649.1719, 6466.819
649.6541, 6470.886
650.1362, 6456.245
650.6183, 6435.533
651.1004, 6408.342
651.5825, 6383.605
652.0646, 6374.711
652.5468, 6374.025
653.0289, 6368.161
653.5110, 6357.184
653.9931, 6428.170
654.4752, 6401.565
654.9573, 6379.498
655.4395, 6362.762
655.9216, 6308.866
656.4037, 6347.716
656.8858, 6376.757
657.3679, 6266.068
657.8500, 6268.902
658.3322, 6272.111
658.8143, 6274.344
659.2964, 6278.500
659.7785, 6282.485
660.2606, 6265.587
660.7427, 6223.480
661.2249, 6185.163
661.7070, 6187.247
662.1891, 6210.196
662.6712, 6219.605
663.1533, 6199.583
663.6354, 6178.639
664.1175, 6175.063
664.5996, 6180.909
665.0817, 6182.805
665.5638, 6176.657
666.0460, 6167.327
666.5281, 6150.796
667.0102, 6131.388
667.4923, 6128.983
667.9744, 6150.858
668.4565, 6170.644
668.9387, 6175.974
669.4208, 6169.501
669.9029, 6170.347
670.3850, 6178.843
670.8671, 6183.684
671.3492, 6168.479
671.8314, 6146.067
672.3135, 6141.858
672.7956, 6161.237
673.2777, 6176.181
673.7598, 6157.709
674.2419, 6130.844
674.7241, 6121.017
675.2062, 6151.673
675.6883, 6174.580
676.1704, 6177.326
676.6525, 6171.237
677.1346, 6172.382
677.6168, 6184.631
678.0989, 6193.283
678.5810, 6192.761
679.0631, 6188.780
679.5452, 6204.394
680.0273, 6238.816
680.5095, 6257.212
680.9916, 6222.632
681.4737, 6170.390
681.9558, 6162.050
682.4379, 6192.490
682.9200, 6220.663
683.4022, 6220.220
683.8843, 6209.549
684.3664, 6198.478
684.8485, 6186.049
685.3306, 6185.169
685.8127, 6217.049
686.2949, 6247.167
686.7770, 6250.836
687.2591, 6214.340
687.7412, 6192.645
688.2233, 6191.060
688.7054, 6197.280
689.1876, 6194.984
689.6697, 6184.965
690.1518, 6173.210
690.6339, 6157.958
691.1160, 6148.035
691.5981, 6161.371
692.0803, 6188.872
692.5624, 6209.096
693.0445, 6205.025
693.5266, 6198.540
694.0087, 6200.713
694.4908, 6210.177
694.9730, 6218.438
695.4551, 6223.253
695.9372, 6227.775
696.4193, 6234.420
696.9014, 6243.081
697.3835, 6235.704
697.8657, 6184.175
698.3478, 6232.494
698.8299, 6259.335
699.3120, 6265.851
699.7941, 6191.168
700.2762, 6221.337
700.7584, 6209.486
701.2405, 6195.912
701.7226, 6240.838
702.2047, 6177.965
702.6868, 6221.964
703.1689, 6223.301
703.6511, 6208.976
704.1332, 6231.666
704.6153, 6243.642
705.0974, 6232.841
705.5795, 6229.396
706.0616, 6238.727
706.5438, 6255.050
707.0259, 6266.624
707.5080, 6273.324
707.9901, 6277.931
708.4722, 6282.786
708.9543, 6284.694
709.4365, 6272.193
709.9186, 6249.080
710.4007, 6233.428
710.8828, 6241.216
711.3649, 6255.775
711.8470, 6268.547
712.3292, 6278.209
712.8113, 6277.242
713.2934, 6251.089
713.7755, 6224.664
714.2576, 6209.863
714.7397, 6208.386
715.2219, 6208.214
715.7040, 6209.756
716.1861, 6211.705
716.6682, 6215.200
717.1503, 6219.367
717.6324, 6212.635
718.1146, 6192.398
718.5967, 6172.664
719.0788, 6173.587
719.5609, 6183.062
720.0430, 6179.114
720.5251, 6145.826
721.0073, 6121.760
721.4894, 6133.677
721.9715, 6163.787
722.4536, 6186.550
722.9357, 6194.805
723.4178, 6200.957
723.9000, 6205.829
724.3821, 6209.388
724.8642, 6211.947
725.3463, 6213.827
725.8284, 6211.591
726.3105, 6201.660
726.7927, 6189.259
727.2748, 6188.284
727.7569, 6195.858
728.2390, 6198.641
728.7211, 6182.588
729.2032, 6163.957
729.6853, 6157.128
730.1674, 6161.025
730.6495, 6161.512
731.1317, 6143.354
731.6138, 6131.792
732.0959, 6142.361
732.5780, 6178.833
733.0601, 6191.458
733.5422, 6172.878
734.0244, 6149.277
734.5065, 6139.114
734.9886, 6140.738
735.4707, 6141.934
735.9528, 6141.796
736.4349, 6144.557
736.9171, 6160.415
737.3992, 6179.132
737.8813, 6185.350
738.3634, 6172.170
738.8455, 6158.660
739.3276, 6149.926
739.8098, 6145.759
740.2919, 6146.109
740.7740, 6150.949
741.2561, 6160.801
741.7382, 6179.674
742.2203, 6199.170
742.7025, 6203.228
743.1846, 6192.023
743.6667, 6183.027
744.1488, 6181.596
744.6309, 6182.670
745.1130, 6175.941
745.5952, 6165.598
746.0773, 6162.110
746.5594, 6179.244
747.0415, 6195.515
747.5236, 6202.294
748.0057, 6199.720
748.4879, 6188.061
748.9700, 6147.258
749.4521, 6124.349
749.9342, 6138.515
750.4163, 6181.480
750.8984, 6199.904
751.3806, 6190.952
751.8627, 6178.647
752.3448, 6170.256
752.8269, 6169.551
753.3090, 6197.044
753.7911, 6248.464
754.2733, 6281.760
754.7554, 6244.594
755.2375, 6197.957
755.7196, 6192.595
756.2017, 6238.235
756.6838, 6273.624
757.1660, 6285.681
757.6481, 6285.958
758.1302, 6279.636
758.6123, 6267.116
759.0944, 6241.520
759.5765, 6197.530
760.0587, 6160.490
760.5408, 6163.081
761.0229, 6192.729
761.5050, 6209.784
761.9871, 6207.427
762.4692, 6204.948
762.9514, 6221.843
763.4335, 6245.136
763.9156, 6260.240
764.3977, 6260.145
764.8798, 6258.372
765.3619, 6253.629
765.8441, 6250.375
766.3262, 6255.416
766.8083, 6274.092
767.2904, 6279.038
767.7725, 6262.797
768.2546, 6240.605
768.7368, 6236.004
769.2189, 6246.641
769.7010, 6265.632
770.1831, 6298.814
770.6652, 6325.193
771.1473, 6315.980
771.6295, 6288.475
772.1116, 6274.565
772.5937, 6303.397
773.0758, 6323.753
773.5579, 6319.539
774.0400, 6300.300
774.5222, 6285.470
775.0043, 6271.769
775.4864, 6276.110
775.9685, 6311.454
776.4506, 6360.550
776.9327, 6383.326
777.4149, 6381.855
777.8970, 6368.396
778.3791, 6334.076
778.8612, 6302.500
779.3433, 6296.478
779.8254, 6311.678
780.3076, 6328.578
780.7897, 6348.284
781.2718, 6361.178
781.7539, 6360.654
782.2360, 6348.950
782.7181, 6348.328
783.2003, 6361.324
783.6824, 6376.051
784.1645, 6386.484
784.6466, 6393.971
785.1287, 6403.439
785.6108, 6414.488
786.0930, 6423.937
786.5751, 6422.621
787.0572, 6423.824
787.5393, 6445.497
788.0214, 6488.452
788.5035, 6514.996
788.9857, 6503.247
789.4678, 6484.338
789.9499, 6467.581
790.4320, 6451.547
790.9141, 6462.488
791.3962, 6505.735
791.8784, 6552.010
792.3605, 6581.969
792.8426, 6596.672
793.3247, 6591.480
793.8068, 6566.042
794.2889, 6551.806
794.7711, 6582.786
795.2531, 6627.931
795.7352, 6661.321
796.2173, 6677.479
796.6995, 6689.244
797.1816, 6688.601
797.6637, 6693.605
798.1458, 6721.228
798.6279, 6777.885
799.1100, 6811.572
799.5922, 6819.096
800.0743, 6816.697
800.5564, 6813.227
801.0385, 6813.246
801.5206, 6829.266
802.0027, 6865.517
802.4849, 6901.264
802.9670, 6926.085
803.4491, 6943.006
803.9312, 6954.438
804.4133, 6957.420
804.8954, 6960.855
805.3776, 6964.590
805.8597, 6969.026
806.3418, 6974.043
806.8239, 6979.579
807.3060, 6990.334
807.7881, 7008.667
808.2703, 7023.157
808.7524, 7016.226
809.2345, 6998.070
809.7166, 6985.254
810.1987, 6982.473
810.6808, 6983.625
811.1630, 6990.871
811.6451, 6998.369
812.1272, 6999.827
812.6093, 6994.830
813.0914, 6984.836
813.5735, 6970.363
814.0557, 6950.050
814.5378, 6916.090
815.0199, 6871.980
815.5020, 6845.219
815.9841, 6843.996
816.4662, 6849.496
816.9484, 6844.889
817.4305, 6834.458
817.9126, 6825.077
818.3947, 6827.814
818.8768, 6817.179
819.3589, 6780.646
819.8411, 6731.941
820.3232, 6681.986
820.8053, 6624.838
821.2874, 6592.655
821.7695, 6594.280
822.2516, 6609.805
822.7338, 6617.050
823.2159, 6615.061
823.6980, 6598.390
824.1801, 6556.785
824.6622, 6520.598
825.1443, 6515.957
825.6265, 6527.216
826.1086, 6532.910
826.5907, 6520.244
827.0728, 6514.146
827.5549, 6518.466
828.0370, 6527.297
828.5192, 6534.373
829.0013, 6539.852
829.4834, 6533.640
829.9655, 6510.948
830.4476, 6484.854
830.9297, 6468.197
831.4119, 6460.195
831.8940, 6460.136
832.3761, 6475.742
832.8582, 6486.108
833.3403, 6483.046
833.8224, 6470.165
834.3046, 6451.067
834.7867, 6416.900
835.2688, 6401.346
835.7509, 6411.883
836.2330, 6434.611
836.7151, 6450.687
837.1973, 6460.597
837.6794, 6467.313
838.1615, 6471.857
838.6436, 6472.344
839.1257, 6464.434
839.6078, 6452.483
840.0900, 6442.248
840.5721, 6431.484
841.0542, 6428.455
841.5363, 6439.669
842.0184, 6453.504
842.5005, 6451.139
842.9827, 6430.287
843.4648, 6427.063
843.9469, 6450.786
844.4290, 6480.388
844.9111, 6491.610
845.3932, 6488.639
845.8754, 6476.547
846.3575, 6448.430
846.8396, 6430.372
847.3217, 6441.848
847.8038, 6465.316
848.2859, 6479.507
848.7681, 6479.755
849.2502, 6482.808
849.7323, 6493.018
850.2144, 6498.895
850.6965, 6477.529
851.1786, 6437.552
851.6608, 6415.344
852.1429, 6418.761
852.6250, 6436.876
853.1071, 6471.887
853.5892, 6511.749
854.0714, 6543.346
854.5535, 6567.366
855.0356, 6575.784
855.5177, 6561.793
855.9998, 6539.898
856.4819, 6521.453
856.9641, 6506.331
857.4462, 6497.138
857.9283, 6494.155
858.4104, 6496.052
858.8925, 6505.815
859.3746, 6517.847
859.8568, 6523.261
860.3389, 6519.261
860.8210, 6515.015
861.3030, 6513.855
861.7852, 6513.815
862.2673, 6512.833
862.7494, 6509.405
863.2315, 6511.343
863.7136, 6519.484
864.1957, 6529.967
864.6779, 6540.504
865.1600, 6550.492
865.6421, 6558.505
866.1242, 6564.529
866.6063, 6566.875
867.0884, 6559.212
867.5706, 6551.223
868.0527, 6550.361
868.5348, 6558.769
869.0169, 6568.866
869.4990, 6581.588
869.9811, 6594.133
870.4633, 6607.292
870.9454, 6620.043
871.4275, 6617.472
871.9096, 6600.168
872.3917, 6586.440
872.8738, 6596.442
873.3560, 6612.048
873.8381, 6614.633
874.3202, 6603.353
874.8023, 6594.624
875.2844, 6591.085
875.7665, 6592.134
876.2487, 6598.218
876.7308, 6609.042
877.2129, 6622.986
877.6950, 6640.438
878.1771, 6654.085
878.6592, 6659.634
879.1414, 6658.695
879.6235, 6651.252
880.1056, 6638.675
880.5877, 6626.738
881.0698, 6618.080
881.5519, 6610.304
882.0341, 6599.584
882.5162, 6588.764
882.9983, 6590.672
883.4804, 6608.520
883.9625, 6624.199
884.4446, 6630.791
884.9268, 6632.199
885.4089, 6641.380
885.8910, 6652.658
886.3731, 6648.924
886.8552, 6593.675
887.3373, 6551.965
887.8195, 6566.540
888.3016, 6615.519
888.7837, 6646.500
889.2658, 6653.875
889.7479, 6652.623
890.2300, 6642.510
890.7122, 6629.406
891.1943, 6622.319
891.6764, 6621.100
892.1585, 6626.274
892.6406, 6641.462
893.1227, 6655.019
893.6049, 6657.624
894.0870, 6653.380
894.5691, 6647.358
895.0512, 6639.673
895.5333, 6630.302
896.0154, 6615.191
896.4976, 6604.211
896.9797, 6614.299
897.4618, 6642.256
897.9439, 6656.250
898.4260, 6651.326
898.9081, 6642.551
899.3903, 6641.045
899.8724, 6644.056
900.3545, 6648.603
900.8366, 6653.744
901.3187, 6662.688
901.8008, 6682.267
902.2830, 6697.750
902.7651, 6697.390
903.2472, 6680.748
903.7293, 6671.189
904.2114, 6668.839
904.6935, 6668.636
905.1757, 6668.337
905.6578, 6666.942
906.1399, 6659.788
906.6220, 6647.431
907.1041, 6645.690
907.5862, 6678.742
908.0684, 6701.859
908.5505, 6691.550
909.0326, 6654.687
909.5147, 6648.949
909.9968, 6676.037
910.4789, 6698.762
910.9611, 6694.330
911.4432, 6677.388
911.9253, 6664.912
912.4074, 6656.811
912.8895, 6652.422
913.3716, 6652.060
913.8538, 6654.994
914.3359, 6663.380
914.8180, 6673.946
915.3001, 6678.831
915.7822, 6677.345
916.2643, 6676.161
916.7465, 6676.753
917.2286, 6678.782
917.7107, 6683.322
918.1928, 6688.652
918.6749, 6690.956
919.1570, 6683.353
919.6392, 6682.341
920.1213, 6703.192
920.6034, 6726.997
921.0855, 6731.543
921.5676, 6710.033
922.0497, 6707.374
922.5319, 6729.948
923.0140, 6755.820
923.4961, 6763.269
923.9782, 6756.961
924.4603, 6741.280
924.9424, 6715.396
925.4246, 6695.853
925.9067, 6687.691
926.3888, 6691.046
926.8708, 6710.880
927.3530, 6749.489
927.8351, 6760.074
928.3172, 6737.563
928.7993, 6716.533
929.2814, 6721.438
929.7635, 6742.128
930.2457, 6768.395
930.7278, 6796.066
931.2099, 6802.562
931.6920, 6746.203
932.1741, 6699.713
932.6563, 6703.596
933.1384, 6741.424
933.6205, 6754.918
934.1026, 6737.269
934.5847, 6734.814
935.0668, 6768.950
935.5490, 6813.855
936.0311, 6826.402
936.5132, 6816.645
936.9953, 6806.838
937.4774, 6807.234
937.9595, 6805.695
938.4417, 6791.576
938.9238, 6776.964
939.4059, 6776.942
939.8880, 6793.825
940.3701, 6816.927
940.8522, 6849.085
941.3344, 6871.232
941.8165, 6848.573
942.2986, 6806.062
942.7807, 6787.210
943.2628, 6800.588
943.7449, 6819.038
944.2271, 6836.205
944.7092, 6851.341
945.1913, 6863.524
945.6734, 6872.511
946.1555, 6887.013
946.6376, 6908.759
947.1198, 6920.134
947.6019, 6896.039
948.0840, 6861.985
948.5661, 6864.081
949.0482, 6894.460
949.5303, 6915.657
950.0125, 6910.729
950.4946, 6894.663
950.9767, 6860.336
951.4588, 6822.336
951.9409, 6826.019
952.4230, 6874.374
952.9052, 6920.328
953.3873, 6952.848
953.8694, 6973.000
954.3515, 6978.886
954.8336, 6974.749
955.3157, 6967.090
955.7979, 6952.492
956.2800, 6944.134
956.7621, 6949.225
957.2442, 6956.755
957.7263, 6954.680
958.2084, 6942.556
958.6906, 6942.046
959.1727, 6955.405
959.6548, 6966.553
960.1369, 6949.287
960.6190, 6929.481
961.1011, 6945.624
961.5833, 7002.292
962.0654, 7027.518
962.5475, 6977.579
963.0296, 6934.848
963.5117, 6932.550
963.9938, 6962.053
964.4760, 6985.506
964.9581, 7002.610
965.4402, 7007.652
965.9223, 6988.055
966.4044, 6965.324
966.8865, 6954.881
967.3687, 6955.266
967.8508, 6964.074
968.3329, 6988.112
968.8150, 7009.411
969.2971, 7028.407
969.7792, 7041.437
970.2614, 7038.310
970.7435, 7023.734
971.2256, 7021.978
971.7077, 7040.005
972.1898, 7052.253
972.6719, 7030.580
973.1541, 7000.708
973.6362, 6983.822
974.1183, 6983.176
974.6004, 6990.713
975.0825, 7009.020
975.5646, 7028.679
976.0468, 7044.609
976.5289, 7057.289
977.0110, 7070.535
977.4931, 7082.736
977.9752, 7085.500
978.4573, 7063.625
978.9395, 7042.514
979.4216, 7032.561
979.9037, 7032.960
980.3858, 7045.182
980.8679, 7075.208
981.3500, 7083.176
981.8322, 7053.843
982.3143, 7016.350
982.7964, 7008.139
983.2785, 7022.365
983.7606, 7050.446
984.2427, 7100.938
984.7249, 7134.444
985.2070, 7119.179
985.6891, 7099.138
986.1712, 7106.846
986.6533, 7145.714
987.1354, 7162.051
987.6176, 7154.934
988.0997, 7143.959
988.5818, 7142.006
989.0639, 7144.718
989.5460, 7149.173
990.0281, 7154.593
990.5103, 7157.281
990.9924, 7147.225
991.4745, 7148.791
991.9566, 7174.333
992.4387, 7208.757
992.9208, 7207.379
993.4029, 7177.983
993.8850, 7172.358
994.3671, 7218.755
994.8492, 7260.497
995.3314, 7242.945
995.8135, 7203.224
996.2956, 7184.833
996.7777, 7197.819
997.2598, 7217.817
997.7419, 7247.617
998.2241, 7277.132
998.7062, 7296.165
999.1883, 7308.386
999.6704, 7324.367
1000.153, 7343.300
1000.635, 7355.022
1001.117, 7344.739
1001.599, 7335.358
1002.081, 7339.074
1002.563, 7352.335
1003.045, 7363.932
1003.527, 7373.988
1004.009, 7381.201
1004.492, 7383.103
1004.974, 7386.807
1005.456, 7404.508
1005.938, 7429.472
1006.420, 7451.915
1006.902, 7470.606
1007.384, 7482.621
1007.866, 7481.384
1008.349, 7481.473
1008.831, 7496.619
1009.313, 7525.481
1009.795, 7549.428
1010.277, 7568.060
1010.759, 7582.571
1011.241, 7595.072
1011.723, 7602.649
1012.205, 7591.924
1012.688, 7570.248
1013.170, 7588.006
1013.652, 7666.370
1014.134, 7727.749
1014.616, 7747.535
1015.098, 7747.580
1015.580, 7763.217
1016.062, 7791.386
1016.544, 7824.953
1017.027, 7861.901
1017.509, 7902.863
1017.991, 7949.649
1018.473, 7999.069
1018.955, 8044.103
1019.437, 8080.208
1019.919, 8152.201
1020.401, 8261.590
1020.884, 8386.517
1021.366, 8512.183
1021.848, 8642.313
1022.330, 8775.340
1022.812, 8914.669
1023.294, 9075.591
1023.776, 9257.470
1024.258, 9471.374
1024.740, 9720.366
1025.223, 9995.082
1025.705, 10265.79
1026.187, 10542.09
1026.669, 10872.06
1027.151, 11281.25
1027.633, 11691.40
1028.115, 12042.87
1028.597, 12383.11
1029.079, 12764.51
1029.562, 13198.13
1030.044, 13603.37
1030.526, 13982.69
1031.008, 14332.40
1031.490, 14634.83
1031.972, 14910.57
1032.454, 15224.31
1032.936, 15543.68
1033.419, 15774.82
1033.901, 15898.35
1034.383, 15902.83
1034.865, 15787.85
1035.347, 15563.56
1035.829, 15238.58
1036.311, 14815.84
1036.793, 14343.57
1037.276, 13820.43
1037.758, 13287.89
1038.240, 12762.36
1038.722, 12246.88
1039.204, 11723.27
1039.686, 11195.36
1040.168, 10739.09
1040.650, 10365.91
1041.132, 10032.92
1041.615, 9713.980
1042.097, 9425.862
1042.579, 9201.813
1043.061, 9030.380
1043.543, 8875.424
1044.025, 8721.110
1044.507, 8583.937
1044.989, 8472.468
1045.471, 8372.979
1045.954, 8266.269
1046.436, 8154.045
1046.918, 8089.695
1047.400, 8077.608
1047.882, 8064.725
1048.364, 7994.176
1048.846, 7919.299
1049.328, 7889.810
1049.811, 7902.783
1050.293, 7890.795
1050.775, 7847.047
1051.257, 7794.768
1051.739, 7733.543
1052.221, 7680.266
1052.703, 7678.167
1053.185, 7702.408
1053.667, 7701.099
1054.150, 7647.163
1054.632, 7600.352
1055.114, 7581.336
1055.596, 7570.573
1056.078, 7554.039
1056.560, 7548.991
1057.042, 7530.411
1057.524, 7547.119
1058.006, 7564.071
1058.489, 7576.754
1058.971, 7578.958
1059.453, 7555.451
1059.935, 7518.659
1060.417, 7506.524
1060.899, 7534.576
1061.381, 7538.599
1061.863, 7504.715
1062.346, 7461.158
1062.828, 7438.373
1063.310, 7431.407
1063.792, 7433.685
1064.274, 7444.569
1064.756, 7459.574
1065.238, 7488.802
1065.720, 7507.909
1066.203, 7503.777
1066.685, 7484.013
1067.167, 7482.316
1067.649, 7495.230
1068.131, 7502.749
1068.613, 7494.110
1069.095, 7482.167
1069.577, 7467.286
1070.059, 7457.852
1070.542, 7466.414
1071.024, 7502.661
1071.506, 7517.282
1071.988, 7507.699
1072.470, 7489.812
1072.952, 7468.952
1073.434, 7452.603
1073.916, 7453.644
1074.398, 7469.439
1074.881, 7484.656
1075.363, 7502.406
1075.845, 7507.390
1076.327, 7490.858
1076.809, 7469.299
1077.291, 7477.764
1077.773, 7504.567
1078.255, 7507.804
1078.738, 7475.386
1079.220, 7451.159
1079.702, 7469.633
1080.184, 7494.203
1080.666, 7501.374
1081.148, 7493.045
1081.630, 7491.896
1082.112, 7497.888
1082.594, 7504.839
1083.077, 7513.408
1083.559, 7516.999
1084.041, 7497.618
1084.523, 7473.157
1085.005, 7474.107
1085.487, 7524.795
1085.969, 7550.251
1086.451, 7544.199
1086.933, 7531.585
1087.416, 7537.476
1087.898, 7550.616
1088.380, 7548.791
1088.862, 7533.365
1089.344, 7517.969
1089.826, 7500.616
1090.308, 7493.867
1090.790, 7503.011
1091.272, 7521.237
1091.755, 7542.660
1092.237, 7563.755
1092.719, 7561.407
1093.201, 7527.633
1093.683, 7498.878
1094.165, 7500.003
1094.647, 7513.999
1095.129, 7533.541
1095.612, 7556.823
1096.094, 7560.037
1096.576, 7541.375
1097.058, 7532.905
1097.540, 7553.474
1098.022, 7580.800
1098.504, 7592.947
1098.986, 7594.365
1099.469, 7591.326
1099.951, 7583.229
1100.433, 7573.771
1100.915, 7562.036
1101.397, 7551.462
1101.879, 7543.764
1102.361, 7539.607
1102.843, 7540.644
1103.325, 7546.339
1103.807, 7554.338
1104.290, 7567.366
1104.772, 7576.949
1105.254, 7575.705
1105.736, 7576.829
1106.218, 7609.637
1106.700, 7664.428
1107.182, 7691.211
1107.664, 7682.591
1108.147, 7667.575
1108.629, 7655.947
1109.111, 7652.133
1109.593, 7663.106
1110.075, 7684.178
1110.557, 7695.353
1111.039, 7696.386
1111.521, 7694.669
1112.004, 7689.956
1112.486, 7690.088
1112.968, 7703.302
1113.450, 7725.451
1113.932, 7756.220
1114.414, 7803.723
1114.896, 7816.056
1115.378, 7783.975
1115.860, 7754.655
1116.343, 7755.425
1116.825, 7776.088
1117.307, 7809.450
1117.789, 7848.081
1118.271, 7874.472
1118.753, 7873.111
1119.235, 7874.155
1119.717, 7880.613
1120.199, 7888.778
1120.682, 7900.167
1121.164, 7909.547
1121.646, 7894.225
1122.128, 7856.931
1122.610, 7829.712
1123.092, 7835.819
1123.574, 7845.881
1124.056, 7848.604
1124.539, 7860.212
1125.021, 7861.363
1125.503, 7882.479
1125.985, 7901.154
1126.467, 7916.082
1126.949, 7921.906
1127.431, 7905.868
1127.913, 7886.899
1128.396, 7879.986
1128.878, 7883.179
1129.360, 7881.623
1129.842, 7875.174
1130.324, 7867.662
1130.806, 7861.717
1131.288, 7852.251
1131.770, 7828.313
1132.252, 7800.770
1132.734, 7783.004
1133.217, 7777.752
1133.699, 7778.211
1134.181, 7785.448
1134.663, 7793.881
1135.145, 7803.593
1135.627, 7809.712
1136.109, 7797.195
1136.591, 7776.133
1137.074, 7769.845
1137.556, 7803.776
1138.038, 7824.217
1138.520, 7827.836
1139.002, 7820.170
1139.484, 7799.083
1139.966, 7773.068
1140.448, 7764.914
1140.931, 7773.365
1141.413, 7784.348
1141.895, 7795.756
1142.377, 7804.020
1142.859, 7807.396
1143.341, 7808.577
1143.823, 7815.802
1144.305, 7825.194
1144.787, 7812.548
1145.270, 7772.983
1145.752, 7751.798
1146.234, 7794.985
1146.716, 7842.984
1147.198, 7866.366
1147.680, 7871.136
1148.162, 7878.576
1148.644, 7888.011
1149.126, 7890.601
1149.609, 7881.358
1150.091, 7874.426
1150.573, 7887.261
1151.055, 7901.385
1151.537, 7895.849
1152.019, 7870.715
1152.501, 7879.208
1152.983, 7923.020
1153.466, 7947.996
1153.948, 7913.822
1154.430, 7874.368
1154.912, 7883.208
1155.394, 7916.440
1155.876, 7940.935
1156.358, 7950.956
1156.840, 7965.201
1157.322, 7985.716
1157.805, 7998.417
1158.287, 7982.912
1158.769, 7962.398
1159.251, 7967.408
1159.733, 7990.148
1160.215, 8010.876
1160.697, 8038.490
1161.179, 8032.617
1161.661, 7981.256
1162.144, 7929.146
1162.626, 7925.975
1163.108, 7947.947
1163.590, 7961.146
1164.072, 7964.153
1164.554, 7961.741
1165.036, 7949.901
1165.518, 7941.868
1166.000, 7940.036
1166.483, 7942.272
1166.965, 7949.292
1167.447, 7956.952
1167.929, 7956.034
1168.411, 7945.338
1168.893, 7931.766
1169.375, 7906.133
1169.857, 7894.631
1170.340, 7910.292
1170.822, 7937.873
1171.304, 7942.999
1171.786, 7931.996
1172.268, 7922.043
1172.750, 7916.771
1173.232, 7913.370
1173.714, 7909.429
1174.197, 7909.080
1174.679, 7915.914
1175.161, 7927.234
1175.643, 7932.455
1176.125, 7932.425
1176.607, 7930.406
1177.089, 7926.685
1177.571, 7923.055
1178.053, 7913.800
1178.536, 7911.581
1179.018, 7931.342
1179.500, 7968.859
1179.982, 7973.467
1180.464, 7949.518
1180.946, 7925.373
1181.428, 7911.068
1181.910, 7905.912
1182.392, 7919.766
1182.875, 7935.503
1183.357, 7935.396
1183.839, 7919.364
1184.321, 7894.812
1184.803, 7863.365
1185.285, 7850.054
1185.767, 7886.766
1186.249, 7929.295
1186.732, 7952.986
1187.214, 7965.546
1187.696, 7978.446
1188.178, 7991.853
1188.660, 8003.214
1189.142, 8012.442
1189.624, 8014.062
1190.106, 7991.959
1190.589, 7972.374
1191.071, 7976.227
1191.553, 7996.007
1192.035, 8014.960
1192.517, 8034.055
1192.999, 8032.685
1193.481, 8005.202
1193.963, 7982.875
1194.445, 8002.812
1194.927, 8029.670
1195.410, 8032.392
1195.892, 8015.774
1196.374, 8008.769
1196.856, 8011.985
1197.338, 8019.787
1197.820, 8032.829
1198.302, 8040.623
1198.784, 8026.474
1199.267, 8007.250
1199.749, 8000.047
1200.231, 8004.526
1200.713, 8002.687
1201.195, 7992.875
1201.677, 7995.886
1202.159, 8022.116
1202.641, 8052.259
1203.124, 8066.309
1203.606, 8073.485
1204.088, 8086.229
1204.570, 8106.376
1205.052, 8106.239
1205.534, 8084.132
1206.016, 8057.448
1206.498, 8028.499
1206.980, 8006.926
1207.463, 8008.933
1207.945, 8020.792
1208.427, 8022.857
1208.909, 8010.806
1209.391, 8011.587
1209.873, 8026.051
1210.355, 8044.910
1210.837, 8064.445
1211.319, 8084.148
1211.802, 8111.417
1212.284, 8134.743
1212.766, 8133.419
1213.248, 8097.534
1213.730, 8079.936
1214.212, 8082.946
1214.694, 8083.388
1215.176, 8048.877
1215.659, 8019.954
1216.141, 8051.075
1216.623, 8110.518
1217.105, 8137.068
1217.587, 8118.542
1218.069, 8104.199
1218.551, 8095.735
1219.033, 8089.015
1219.516, 8073.843
1219.998, 8065.514
1220.480, 8092.236
1220.962, 8133.577
1221.444, 8135.257
1221.926, 8080.217
1222.408, 8068.811
1222.890, 8112.641
1223.372, 8156.724
1223.854, 8150.701
1224.337, 8129.047
1224.819, 8119.282
1225.301, 8119.182
1225.783, 8116.466
1226.265, 8109.833
1226.747, 8108.199
1227.229, 8112.780
1227.711, 8119.188
1228.193, 8112.976
1228.676, 8116.329
1229.158, 8164.819
1229.640, 8238.435
1230.122, 8259.877
1230.604, 8223.281
1231.086, 8192.700
1231.568, 8177.388
1232.050, 8172.650
1232.533, 8182.229
1233.015, 8193.610
1233.497, 8196.896
1233.979, 8193.374
1234.461, 8187.533
1234.943, 8179.116
1235.425, 8176.541
1235.907, 8181.666
1236.390, 8191.007
1236.872, 8205.467
1237.354, 8219.758
1237.836, 8230.618
1238.318, 8237.957
1238.800, 8239.684
1239.282, 8236.019
1239.764, 8230.582
1240.246, 8222.592
1240.729, 8222.768
1241.211, 8253.102
1241.693, 8280.877
1242.175, 8278.371
1242.657, 8255.768
1243.139, 8261.115
1243.621, 8290.499
1244.103, 8305.880
1244.585, 8294.313
1245.068, 8282.244
1245.550, 8282.669
1246.032, 8292.542
1246.514, 8316.122
1246.996, 8344.667
1247.478, 8335.003
1247.960, 8294.884
1248.442, 8267.306
1248.925, 8267.166
1249.407, 8268.398
1249.889, 8257.200
1250.371, 8243.942
1250.853, 8228.357
1251.335, 8217.669
1251.817, 8253.392
1252.299, 8318.860
1252.781, 8352.787
1253.264, 8326.925
1253.746, 8299.835
1254.228, 8286.871
1254.710, 8283.343
1255.192, 8287.998
1255.674, 8300.284
1256.156, 8324.752
1256.638, 8354.558
1257.120, 8370.702
1257.603, 8363.196
1258.085, 8352.561
1258.567, 8334.643
1259.049, 8329.964
1259.531, 8358.332
1260.013, 8399.714
1260.495, 8408.486
1260.977, 8394.118
1261.460, 8375.501
1261.942, 8353.159
1262.424, 8337.110
1262.906, 8323.675
1263.388, 8329.937
1263.870, 8382.704
1264.352, 8442.754
1264.834, 8430.645
1265.317, 8381.254
1265.799, 8360.480
1266.281, 8400.400
1266.763, 8413.249
1267.245, 8393.813
1267.727, 8372.626
1268.209, 8363.134
1268.691, 8366.418
1269.173, 8392.594
1269.656, 8429.217
1270.138, 8456.536
1270.620, 8474.254
1271.102, 8477.879
1271.584, 8466.561
1272.066, 8454.084
1272.548, 8447.847
1273.030, 8444.514
1273.512, 8438.955
1273.995, 8436.331
1274.477, 8445.842
1274.959, 8470.348
1275.441, 8472.123
1275.923, 8452.253
1276.405, 8434.692
1276.887, 8425.682
1277.369, 8431.599
1277.852, 8474.284
1278.334, 8519.352
1278.816, 8532.938
1279.298, 8516.386
1279.780, 8496.674
1280.262, 8476.006
1280.744, 8470.041
1281.226, 8504.718
1281.708, 8528.770
1282.191, 8516.104
1282.673, 8497.637
1283.155, 8498.533
1283.637, 8513.429
1284.119, 8516.712
1284.601, 8511.555
1285.083, 8508.924
1285.565, 8510.293
1286.047, 8522.084
1286.530, 8555.901
1287.012, 8576.607
1287.494, 8542.240
1287.976, 8483.058
1288.458, 8462.238
1288.940, 8471.890
1289.422, 8493.272
1289.904, 8543.722
1290.386, 8560.718
1290.869, 8535.373
1291.351, 8510.943
1291.833, 8530.221
1292.315, 8557.973
1292.797, 8539.860
1293.279, 8500.477
1293.761, 8489.883
1294.243, 8521.220
1294.726, 8542.566
1295.208, 8553.731
1295.690, 8558.011
1296.172, 8557.442
1296.654, 8551.010
1297.136, 8528.333
1297.618, 8505.408
1298.100, 8502.742
1298.583, 8521.542
1299.065, 8549.079
1299.547, 8583.326
1300.029, 8604.189
1300.511, 8586.700
1300.993, 8571.778
1301.475, 8582.472
1301.957, 8599.887
1302.439, 8612.600
1302.922, 8619.861
1303.404, 8612.517
1303.886, 8595.137
1304.368, 8585.378
1304.850, 8600.231
1305.332, 8607.240
1305.814, 8599.289
1306.296, 8587.989
1306.778, 8578.319
1307.261, 8573.051
1307.743, 8584.388
1308.225, 8603.869
##END=



