##NAMES=Frolovite
##RRUFFID=R070469
##IDEAL CHEMISTRY=Ca[B(OH)_4_]_2_
##LOCALITY=Solongo B deposit, Vitim Plateau, Buriatia (Buryatia) Republic, Transbaikalia (Zabaykalye), Eastern-Siberian Region, Russia
##OWNER=RRUFF
##SOURCE=Michael Scott
##DESCRIPTION=Vitreous colorless vein, associated with calcite and yellow roweite, R130073
##STATUS=The identification of this mineral has been confirmed by single-crystal X-ray diffraction.
##URL=rruff.info/R070469
146.5480, 636.5988
147.0301, 648.0602
147.5122, 652.7852
147.9943, 660.8124
148.4765, 671.5791
148.9586, 686.0693
149.4407, 705.4617
149.9228, 737.2855
150.4049, 763.9882
150.8870, 783.2536
151.3692, 795.0949
151.8513, 805.1716
152.3334, 807.5743
152.8155, 811.1981
153.2976, 822.7946
153.7797, 852.0774
154.2619, 879.7463
154.7440, 901.7783
155.2261, 916.7529
155.7082, 933.4251
156.1903, 953.6937
156.6724, 976.0468
157.1546, 998.1216
157.6367, 1022.464
158.1188, 1044.198
158.6009, 1061.819
159.0830, 1075.551
159.5651, 1084.645
160.0473, 1088.997
160.5294, 1088.596
161.0115, 1083.418
161.4936, 1073.543
161.9757, 1058.860
162.4578, 1038.078
162.9400, 1004.771
163.4221, 975.8378
163.9042, 961.1595
164.3863, 957.1855
164.8684, 952.0001
165.3505, 938.2516
165.8327, 922.1383
166.3148, 908.4723
166.7969, 894.9390
167.2790, 887.8597
167.7611, 893.6680
168.2433, 911.1451
168.7254, 929.3818
169.2075, 940.4196
169.6896, 949.1733
170.1717, 961.3588
170.6538, 981.7663
171.1360, 1004.666
171.6181, 1025.646
172.1002, 1044.660
172.5823, 1063.648
173.0644, 1086.317
173.5465, 1109.931
174.0287, 1130.025
174.5108, 1141.091
174.9929, 1149.123
175.4750, 1161.283
175.9571, 1178.585
176.4392, 1196.896
176.9214, 1212.995
177.4035, 1226.929
177.8856, 1239.072
178.3677, 1247.381
178.8498, 1254.487
179.3319, 1266.161
179.8141, 1285.400
180.2962, 1303.361
180.7783, 1310.988
181.2604, 1308.486
181.7425, 1297.762
182.2246, 1274.613
182.7068, 1244.158
183.1889, 1218.183
183.6710, 1200.529
184.1531, 1186.201
184.6352, 1166.429
185.1173, 1141.420
185.5995, 1118.184
186.0816, 1102.946
186.5637, 1094.263
187.0458, 1086.647
187.5279, 1079.148
188.0100, 1071.759
188.4922, 1064.580
188.9743, 1057.532
189.4564, 1050.922
189.9385, 1044.381
190.4206, 1038.153
190.9027, 1034.278
191.3849, 1034.592
191.8670, 1037.662
192.3491, 1037.214
192.8312, 1032.488
193.3133, 1027.959
193.7954, 1030.374
194.2776, 1039.552
194.7597, 1046.466
195.2418, 1044.968
195.7239, 1036.875
196.2060, 1037.111
196.6881, 1046.495
197.1703, 1062.265
197.6524, 1081.244
198.1345, 1103.237
198.6166, 1127.427
199.0987, 1155.242
199.5808, 1186.690
200.0630, 1212.847
200.5451, 1233.821
201.0272, 1249.060
201.5093, 1255.663
201.9914, 1251.828
202.4735, 1248.412
202.9557, 1253.560
203.4378, 1268.771
203.9199, 1274.155
204.4020, 1267.240
204.8841, 1251.241
205.3662, 1232.018
205.8484, 1207.414
206.3305, 1186.805
206.8126, 1177.454
207.2947, 1181.699
207.7768, 1182.500
208.2589, 1177.569
208.7411, 1168.459
209.2232, 1160.747
209.7053, 1155.040
210.1874, 1149.190
210.6695, 1141.132
211.1517, 1129.983
211.6338, 1120.240
212.1159, 1111.948
212.5980, 1105.455
213.0801, 1103.888
213.5622, 1109.890
214.0444, 1115.858
214.5265, 1114.603
215.0086, 1103.004
215.4907, 1094.273
215.9728, 1090.899
216.4549, 1092.530
216.9371, 1094.564
217.4192, 1096.983
217.9013, 1099.809
218.3834, 1103.750
218.8655, 1110.582
219.3476, 1113.345
219.8298, 1108.155
220.3119, 1094.908
220.7940, 1091.387
221.2761, 1102.102
221.7582, 1117.379
222.2403, 1125.953
222.7225, 1123.060
223.2046, 1124.142
223.6867, 1133.941
224.1688, 1153.553
224.6509, 1170.513
225.1330, 1185.126
225.6152, 1197.005
226.0973, 1205.131
226.5794, 1207.751
227.0615, 1210.063
227.5436, 1213.816
228.0257, 1219.730
228.5079, 1222.231
228.9900, 1217.536
229.4721, 1212.322
229.9542, 1217.118
230.4363, 1237.278
230.9184, 1257.655
231.4006, 1273.944
231.8827, 1285.313
232.3648, 1295.284
232.8469, 1302.239
233.3290, 1308.842
233.8111, 1319.647
234.2933, 1335.114
234.7754, 1354.024
235.2575, 1376.042
235.7396, 1401.267
236.2217, 1429.577
236.7038, 1463.712
237.1860, 1499.911
237.6681, 1530.961
238.1502, 1555.773
238.6323, 1577.094
239.1144, 1595.958
239.5965, 1611.329
240.0787, 1627.345
240.5608, 1647.947
241.0429, 1667.747
241.5250, 1674.461
242.0071, 1665.008
242.4892, 1647.043
242.9714, 1624.228
243.4535, 1598.065
243.9356, 1562.168
244.4177, 1513.128
244.8998, 1455.205
245.3819, 1399.320
245.8641, 1345.715
246.3462, 1293.575
246.8283, 1241.851
247.3104, 1186.452
247.7925, 1142.285
248.2746, 1114.174
248.7568, 1096.390
249.2389, 1072.081
249.7210, 1036.284
250.2031, 1001.477
250.6852, 974.0190
251.1674, 957.8109
251.6495, 940.2661
252.1316, 921.1563
252.6137, 900.5764
253.0958, 878.3534
253.5779, 851.5385
254.0601, 827.5806
254.5422, 811.1960
255.0243, 805.7141
255.5064, 799.3332
255.9885, 791.4897
256.4706, 782.4636
256.9528, 772.7499
257.4349, 761.7129
257.9170, 751.0125
258.3991, 741.0282
258.8812, 730.9165
259.3633, 724.5726
259.8455, 724.4361
260.3276, 727.7540
260.8097, 723.8098
261.2918, 707.8945
261.7739, 693.2750
262.2560, 688.5094
262.7382, 698.2253
263.2203, 703.6862
263.7024, 702.6863
264.1845, 696.9671
264.6666, 692.3500
265.1487, 688.9935
265.6309, 686.4958
266.1130, 684.8293
266.5951, 684.2640
267.0772, 683.3509
267.5593, 681.4869
268.0414, 679.3630
268.5236, 679.8441
269.0057, 684.1205
269.4878, 688.1389
269.9699, 689.2376
270.4520, 686.7194
270.9341, 684.2488
271.4163, 681.6586
271.8984, 679.5309
272.3805, 679.8926
272.8626, 683.2681
273.3447, 687.6089
273.8268, 692.1716
274.3090, 697.2310
274.7911, 700.0772
275.2732, 699.1324
275.7553, 696.7018
276.2374, 700.2100
276.7195, 711.3358
277.2017, 722.0131
277.6838, 726.2494
278.1659, 723.3395
278.6480, 723.0674
279.1301, 727.1454
279.6122, 733.5239
280.0944, 736.9429
280.5765, 736.8058
281.0586, 736.9839
281.5407, 741.4487
282.0228, 750.2719
282.5049, 753.6247
282.9871, 749.7123
283.4692, 741.0823
283.9513, 732.3410
284.4334, 723.4069
284.9155, 715.3159
285.3976, 708.4606
285.8798, 702.8760
286.3619, 699.3548
286.8440, 698.5118
287.3261, 698.8303
287.8082, 697.4216
288.2903, 694.2728
288.7725, 690.7520
289.2546, 687.6141
289.7367, 684.8101
290.2188, 681.8181
290.7009, 678.4940
291.1830, 675.1903
291.6652, 672.9267
292.1473, 671.5699
292.6294, 669.5524
293.1115, 664.7454
293.5936, 658.3622
294.0757, 654.5724
294.5579, 653.7791
295.0400, 655.4222
295.5221, 660.5347
296.0042, 668.3277
296.4863, 673.8344
296.9684, 671.5961
297.4506, 665.3823
297.9327, 665.5657
298.4148, 674.2581
298.8969, 683.1233
299.3790, 680.0588
299.8611, 668.0295
300.3433, 657.2397
300.8254, 655.7615
301.3075, 658.1587
301.7896, 654.0444
302.2717, 641.7053
302.7538, 630.1605
303.2360, 629.4513
303.7181, 636.5755
304.2002, 644.3038
304.6823, 650.6190
305.1644, 655.0038
305.6465, 655.7252
306.1287, 652.3935
306.6108, 649.3606
307.0929, 652.2010
307.5750, 657.7000
308.0571, 660.0690
308.5392, 652.8159
309.0214, 643.7815
309.5035, 639.6216
309.9856, 640.6756
310.4677, 644.1031
310.9498, 650.5110
311.4319, 657.5741
311.9141, 662.1921
312.3962, 662.1812
312.8783, 660.1569
313.3604, 656.9827
313.8426, 652.7908
314.3247, 649.5413
314.8068, 649.4552
315.2889, 650.4529
315.7710, 650.3514
316.2531, 643.7294
316.7353, 640.0778
317.2174, 646.0549
317.6995, 660.6359
318.1816, 673.1092
318.6637, 679.9731
319.1458, 682.6435
319.6280, 682.2577
320.1101, 674.0492
320.5922, 667.9646
321.0743, 668.1290
321.5564, 673.4655
322.0385, 677.9160
322.5207, 681.3853
323.0028, 682.5622
323.4849, 680.5427
323.9670, 670.2255
324.4491, 662.6467
324.9312, 659.5897
325.4134, 660.5646
325.8955, 663.7280
326.3776, 672.7568
326.8597, 681.0151
327.3418, 685.3620
327.8239, 682.0891
328.3061, 679.7949
328.7882, 678.2620
329.2703, 677.8170
329.7524, 679.3850
330.2345, 685.5504
330.7166, 691.2018
331.1988, 694.4973
331.6809, 694.6547
332.1630, 694.0934
332.6451, 692.5082
333.1272, 690.3056
333.6093, 687.8920
334.0915, 683.0280
334.5736, 681.5060
335.0557, 686.8160
335.5378, 701.8295
336.0199, 709.4549
336.5020, 706.8696
336.9842, 699.7003
337.4663, 695.5220
337.9484, 694.8643
338.4305, 695.7938
338.9126, 697.9685
339.3947, 701.3875
339.8769, 706.0792
340.3590, 713.4757
340.8411, 719.3206
341.3232, 717.3029
341.8053, 706.0520
342.2874, 697.7255
342.7696, 696.0911
343.2517, 699.9593
343.7338, 703.6373
344.2159, 707.3541
344.6980, 709.9628
345.1801, 708.7477
345.6623, 704.2112
346.1444, 704.0623
346.6265, 711.3392
347.1086, 722.6995
347.5907, 731.5343
348.0728, 737.6960
348.5550, 740.6334
349.0371, 737.3967
349.5192, 730.1823
350.0013, 726.1417
350.4834, 726.9088
350.9655, 730.5513
351.4477, 735.1949
351.9298, 740.6346
352.4119, 745.5378
352.8940, 748.6080
353.3761, 750.7626
353.8582, 753.9565
354.3404, 759.0386
354.8225, 762.8039
355.3046, 759.8171
355.7867, 752.9268
356.2688, 748.9717
356.7509, 754.8149
357.2331, 763.1649
357.7152, 766.3765
358.1973, 763.2837
358.6794, 761.2683
359.1615, 766.9024
359.6436, 776.1404
360.1258, 783.3223
360.6079, 784.1343
361.0900, 784.0667
361.5721, 787.0095
362.0542, 792.9760
362.5363, 796.4333
363.0185, 790.6033
363.5006, 783.3211
363.9827, 781.6643
364.4648, 795.3113
364.9469, 806.5968
365.4290, 808.7294
365.9112, 803.1234
366.3933, 800.3067
366.8754, 803.8533
367.3575, 809.7000
367.8396, 815.4980
368.3217, 819.4251
368.8039, 825.3181
369.2860, 835.0458
369.7681, 847.0507
370.2502, 856.8854
370.7323, 862.6786
371.2144, 868.2064
371.6966, 875.0737
372.1787, 884.6523
372.6608, 892.0577
373.1429, 896.8135
373.6250, 899.6407
374.1071, 901.4943
374.5893, 901.3203
375.0714, 902.2252
375.5535, 904.5130
376.0356, 907.9228
376.5177, 916.9235
376.9998, 933.1794
377.4820, 952.0576
377.9641, 968.1160
378.4462, 981.1588
378.9283, 993.3514
379.4104, 1005.399
379.8925, 1016.934
380.3747, 1024.602
380.8568, 1027.435
381.3389, 1032.810
381.8210, 1050.132
382.3031, 1077.447
382.7852, 1099.576
383.2674, 1112.424
383.7495, 1120.318
384.2316, 1130.225
384.7137, 1142.137
385.1958, 1154.791
385.6779, 1167.327
386.1601, 1180.091
386.6422, 1193.423
387.1243, 1207.493
387.6064, 1222.336
388.0885, 1238.978
388.5706, 1256.790
389.0528, 1273.705
389.5349, 1288.494
390.0170, 1301.990
390.4991, 1313.827
390.9812, 1323.649
391.4633, 1336.713
391.9455, 1362.370
392.4276, 1391.570
392.9097, 1412.815
393.3918, 1413.438
393.8739, 1412.834
394.3561, 1420.639
394.8382, 1436.142
395.3203, 1451.674
395.8024, 1467.480
396.2845, 1480.348
396.7667, 1488.071
397.2488, 1490.888
397.7309, 1487.737
398.2130, 1472.127
398.6951, 1449.338
399.1772, 1435.977
399.6594, 1450.282
400.1415, 1460.143
400.6236, 1451.823
401.1057, 1412.103
401.5878, 1385.855
402.0699, 1379.536
402.5521, 1383.546
403.0342, 1384.229
403.5163, 1381.300
403.9984, 1375.269
404.4805, 1364.163
404.9626, 1347.864
405.4448, 1340.402
405.9269, 1344.911
406.4090, 1352.510
406.8911, 1355.384
407.3732, 1353.381
407.8553, 1346.974
408.3375, 1334.641
408.8196, 1318.953
409.3017, 1307.796
409.7838, 1301.301
410.2659, 1297.843
410.7480, 1296.411
411.2302, 1297.077
411.7123, 1301.341
412.1944, 1310.628
412.6765, 1319.820
413.1586, 1320.915
413.6407, 1315.400
414.1229, 1309.839
414.6050, 1305.870
415.0871, 1304.440
415.5692, 1309.738
416.0513, 1322.431
416.5334, 1331.100
417.0156, 1320.001
417.4977, 1300.537
417.9798, 1289.928
418.4619, 1301.967
418.9440, 1318.144
419.4261, 1325.752
419.9083, 1326.438
420.3904, 1330.782
420.8725, 1352.865
421.3546, 1374.556
421.8367, 1380.987
422.3188, 1355.089
422.8010, 1339.005
423.2831, 1352.464
423.7652, 1382.430
424.2473, 1401.099
424.7294, 1394.673
425.2115, 1385.668
425.6937, 1380.411
426.1758, 1378.932
426.6579, 1382.064
427.1400, 1397.211
427.6221, 1412.034
428.1042, 1412.795
428.5864, 1389.664
429.0685, 1372.429
429.5506, 1368.186
430.0327, 1374.931
430.5148, 1378.576
430.9969, 1379.778
431.4791, 1376.136
431.9612, 1364.063
432.4433, 1342.877
432.9254, 1324.817
433.4075, 1311.178
433.8896, 1301.102
434.3718, 1294.552
434.8539, 1291.384
435.3360, 1286.503
435.8181, 1277.125
436.3002, 1264.202
436.7823, 1249.373
437.2645, 1232.516
437.7466, 1216.205
438.2287, 1203.496
438.7108, 1193.217
439.1929, 1182.788
439.6750, 1171.808
440.1572, 1159.997
440.6393, 1147.001
441.1214, 1132.915
441.6035, 1118.218
442.0856, 1100.803
442.5677, 1084.273
443.0499, 1071.239
443.5320, 1062.185
444.0141, 1057.047
444.4962, 1060.681
444.9783, 1067.491
445.4604, 1068.104
445.9426, 1054.468
446.4247, 1039.532
446.9068, 1027.316
447.3889, 1018.448
447.8710, 1009.969
448.3531, 1001.102
448.8353, 992.9650
449.3174, 986.2955
449.7995, 981.2603
450.2816, 977.4815
450.7637, 975.5064
451.2458, 974.7555
451.7280, 973.1617
452.2101, 970.8239
452.6922, 967.4468
453.1743, 962.0114
453.6564, 954.0598
454.1385, 949.3163
454.6207, 948.1520
455.1028, 949.5524
455.5849, 952.8177
456.0670, 957.8123
456.5491, 962.4985
457.0313, 966.1967
457.5134, 969.0602
457.9955, 971.0641
458.4776, 972.2582
458.9597, 973.5232
459.4418, 975.7275
459.9240, 978.4349
460.4061, 981.2736
460.8882, 984.8365
461.3703, 986.8414
461.8524, 983.1758
462.3345, 976.2958
462.8167, 971.9804
463.2988, 974.4172
463.7809, 979.2259
464.2630, 984.2268
464.7451, 989.2921
465.2272, 993.6700
465.7094, 995.2894
466.1915, 996.9275
466.6736, 1001.113
467.1557, 1015.163
467.6378, 1024.004
468.1199, 1020.778
468.6021, 1009.188
469.0842, 1006.109
469.5663, 1017.212
470.0484, 1030.184
470.5305, 1040.220
471.0126, 1046.787
471.4948, 1051.980
471.9769, 1055.746
472.4590, 1058.261
472.9411, 1059.852
473.4232, 1060.610
473.9053, 1059.675
474.3875, 1055.762
474.8696, 1050.180
475.3517, 1049.077
475.8338, 1052.682
476.3159, 1056.238
476.7981, 1055.996
477.2802, 1052.742
477.7623, 1048.404
478.2444, 1042.718
478.7265, 1037.708
479.2086, 1036.727
479.6908, 1038.387
480.1729, 1039.224
480.6550, 1033.353
481.1371, 1028.840
481.6192, 1034.902
482.1013, 1051.350
482.5835, 1065.426
483.0656, 1071.288
483.5477, 1071.540
484.0298, 1068.021
484.5119, 1056.269
484.9940, 1047.322
485.4762, 1045.022
485.9583, 1047.254
486.4404, 1048.574
486.9225, 1045.882
487.4046, 1044.837
487.8867, 1047.884
488.3689, 1056.282
488.8510, 1060.865
489.3331, 1059.067
489.8152, 1056.588
490.2973, 1059.856
490.7794, 1070.804
491.2616, 1078.680
491.7437, 1080.314
492.2258, 1078.953
492.7079, 1085.496
493.1900, 1100.427
493.6721, 1112.536
494.1543, 1109.245
494.6364, 1097.306
495.1185, 1102.789
495.6006, 1128.467
496.0827, 1156.744
496.5648, 1168.538
497.0470, 1169.737
497.5291, 1172.005
498.0112, 1178.438
498.4933, 1188.551
498.9754, 1202.090
499.4576, 1219.034
499.9397, 1238.616
500.4218, 1265.349
500.9039, 1291.293
501.3860, 1311.855
501.8681, 1325.809
502.3503, 1335.790
502.8324, 1339.634
503.3145, 1340.837
503.7966, 1343.509
504.2787, 1346.168
504.7608, 1352.544
505.2430, 1363.906
505.7251, 1379.644
506.2072, 1396.700
506.6893, 1416.993
507.1714, 1435.005
507.6535, 1446.268
508.1357, 1449.251
508.6178, 1458.741
509.0999, 1476.839
509.5820, 1497.353
510.0641, 1510.375
510.5462, 1516.728
511.0284, 1526.223
511.5105, 1544.702
511.9926, 1566.466
512.4747, 1580.337
512.9568, 1586.969
513.4389, 1591.843
513.9210, 1598.008
514.4031, 1604.929
514.8853, 1612.108
515.3674, 1619.763
515.8495, 1626.609
516.3316, 1632.746
516.8137, 1637.363
517.2958, 1639.338
517.7780, 1641.584
518.2601, 1637.839
518.7422, 1620.643
519.2244, 1592.144
519.7065, 1573.905
520.1886, 1573.752
520.6707, 1579.854
521.1528, 1588.064
521.6349, 1600.925
522.1171, 1609.103
522.5992, 1611.050
523.0813, 1609.841
523.5634, 1608.973
524.0455, 1608.014
524.5276, 1610.256
525.0098, 1618.937
525.4919, 1630.379
525.9740, 1629.495
526.4561, 1615.870
526.9382, 1604.890
527.4203, 1611.671
527.9025, 1628.281
528.3846, 1633.495
528.8667, 1623.445
529.3488, 1614.480
529.8309, 1626.461
530.3130, 1649.077
530.7952, 1665.769
531.2773, 1663.093
531.7594, 1659.027
532.2415, 1663.037
532.7236, 1673.881
533.2057, 1685.997
533.6879, 1697.829
534.1700, 1710.476
534.6521, 1724.084
535.1342, 1737.479
535.6163, 1755.549
536.0984, 1784.347
536.5806, 1813.629
537.0627, 1830.642
537.5448, 1827.035
538.0269, 1832.380
538.5090, 1853.628
538.9911, 1885.784
539.4733, 1912.193
539.9554, 1932.759
540.4375, 1949.921
540.9196, 1964.736
541.4017, 1977.328
541.8839, 1987.324
542.3660, 1994.631
542.8481, 2000.478
543.3302, 2010.410
543.8123, 2019.330
544.2944, 2016.560
544.7766, 1995.102
545.2587, 1967.684
545.7408, 1944.655
546.2229, 1923.709
546.7050, 1898.596
547.1871, 1866.945
547.6693, 1830.412
548.1514, 1789.097
548.6335, 1742.662
549.1156, 1695.504
549.5977, 1639.864
550.0798, 1589.371
550.5620, 1554.873
551.0441, 1549.122
551.5262, 1532.837
552.0083, 1498.185
552.4904, 1456.753
552.9725, 1432.962
553.4547, 1430.217
553.9368, 1427.283
554.4189, 1416.768
554.9010, 1400.408
555.3831, 1385.043
555.8652, 1370.701
556.3474, 1355.880
556.8295, 1339.228
557.3116, 1321.204
557.7937, 1302.206
558.2758, 1281.396
558.7579, 1263.061
559.2401, 1254.504
559.7222, 1250.216
560.2043, 1241.725
560.6864, 1217.523
561.1685, 1196.458
561.6506, 1191.966
562.1328, 1199.970
562.6149, 1198.129
563.0970, 1169.849
563.5791, 1141.823
564.0612, 1124.820
564.5433, 1121.175
565.0255, 1120.407
565.5076, 1125.467
565.9897, 1129.905
566.4718, 1125.344
566.9539, 1109.570
567.4360, 1099.338
567.9182, 1098.379
568.4003, 1103.216
568.8824, 1107.533
569.3645, 1111.274
569.8466, 1114.219
570.3287, 1116.469
570.8109, 1117.714
571.2930, 1117.291
571.7751, 1115.212
572.2572, 1111.985
572.7393, 1104.314
573.2214, 1097.445
573.7036, 1097.708
574.1857, 1110.354
574.6678, 1120.968
575.1499, 1121.310
575.6320, 1117.130
576.1141, 1116.853
576.5963, 1129.300
577.0784, 1137.098
577.5605, 1135.111
578.0426, 1125.183
578.5247, 1118.655
579.0068, 1115.718
579.4890, 1115.906
579.9711, 1120.591
580.4532, 1130.245
580.9353, 1134.832
581.4174, 1133.806
581.8995, 1129.964
582.3817, 1125.141
582.8638, 1119.877
583.3459, 1116.537
583.8280, 1116.777
584.3101, 1117.054
584.7922, 1110.480
585.2744, 1100.548
585.7565, 1096.060
586.2386, 1107.403
586.7207, 1120.280
587.2028, 1126.234
587.6849, 1125.060
588.1671, 1122.666
588.6492, 1117.004
589.1313, 1113.189
589.6134, 1115.018
590.0955, 1127.371
590.5776, 1134.377
591.0598, 1133.597
591.5419, 1129.659
592.0240, 1129.224
592.5061, 1133.537
592.9882, 1134.731
593.4703, 1129.925
593.9525, 1122.109
594.4346, 1118.143
594.9167, 1117.954
595.3988, 1120.526
595.8809, 1128.443
596.3630, 1137.564
596.8452, 1140.246
597.3273, 1136.264
597.8094, 1131.634
598.2915, 1131.357
598.7736, 1131.895
599.2557, 1128.746
599.7379, 1115.569
600.2200, 1109.836
600.7021, 1124.209
601.1842, 1147.227
601.6663, 1160.569
602.1484, 1158.544
602.6306, 1153.467
603.1127, 1144.935
603.5948, 1134.637
604.0769, 1132.383
604.5590, 1140.408
605.0411, 1149.182
605.5233, 1153.999
606.0054, 1155.155
606.4875, 1153.219
606.9696, 1147.690
607.4517, 1144.245
607.9338, 1150.928
608.4160, 1163.378
608.8981, 1173.012
609.3802, 1179.053
609.8623, 1179.659
610.3444, 1167.202
610.8265, 1149.561
611.3087, 1139.692
611.7908, 1147.205
612.2729, 1158.224
612.7550, 1170.984
613.2371, 1184.340
613.7192, 1190.959
614.2014, 1187.274
614.6835, 1181.015
615.1656, 1174.683
615.6477, 1168.141
616.1298, 1162.964
616.6119, 1159.138
617.0941, 1156.806
617.5762, 1157.588
618.0583, 1160.762
618.5404, 1158.868
619.0225, 1148.853
619.5046, 1139.431
619.9868, 1145.973
620.4689, 1161.756
620.9510, 1170.650
621.4331, 1159.035
621.9152, 1144.175
622.3973, 1135.817
622.8795, 1133.387
623.3616, 1134.160
623.8437, 1139.243
624.3258, 1145.603
624.8079, 1152.729
625.2900, 1161.332
625.7722, 1165.531
626.2543, 1162.141
626.7364, 1158.304
627.2185, 1161.546
627.7006, 1174.608
628.1827, 1175.509
628.6649, 1159.867
629.1470, 1138.622
629.6291, 1126.336
630.1112, 1122.235
630.5933, 1122.561
631.0754, 1127.273
631.5576, 1134.430
632.0397, 1143.712
632.5218, 1153.785
633.0039, 1160.332
633.4860, 1158.426
633.9681, 1154.566
634.4503, 1151.640
634.9324, 1149.838
635.4145, 1150.418
635.8966, 1154.789
636.3787, 1160.754
636.8608, 1167.970
637.3430, 1179.505
637.8251, 1182.845
638.3072, 1174.626
638.7893, 1163.294
639.2714, 1159.037
639.7535, 1161.936
640.2357, 1167.348
640.7178, 1175.832
641.1999, 1183.686
641.6820, 1185.039
642.1641, 1180.740
642.6462, 1173.877
643.1284, 1161.412
643.6105, 1150.396
644.0926, 1146.097
644.5747, 1148.367
645.0568, 1155.708
645.5389, 1176.163
646.0211, 1194.575
646.5032, 1202.519
646.9853, 1196.392
647.4674, 1189.702
647.9495, 1180.458
648.4316, 1172.916
648.9138, 1171.093
649.3959, 1176.092
649.8780, 1179.918
650.3601, 1181.055
650.8422, 1182.649
651.3243, 1193.965
651.8065, 1211.652
652.2886, 1217.774
652.7707, 1199.561
653.2528, 1175.746
653.7349, 1167.445
654.2170, 1171.144
654.6992, 1176.800
655.1813, 1181.140
655.6634, 1184.844
656.1455, 1188.127
656.6276, 1191.006
657.1097, 1193.867
657.5919, 1197.266
658.0740, 1200.166
658.5561, 1201.787
659.0382, 1201.546
659.5203, 1203.217
660.0024, 1208.031
660.4846, 1211.900
660.9667, 1207.329
661.4488, 1195.986
661.9309, 1194.924
662.4130, 1209.919
662.8951, 1227.624
663.3773, 1230.723
663.8594, 1223.792
664.3415, 1216.443
664.8236, 1207.029
665.3057, 1203.627
665.7878, 1216.952
666.2700, 1241.067
666.7521, 1255.810
667.2342, 1246.345
667.7163, 1236.611
668.1984, 1234.045
668.6805, 1238.631
669.1627, 1244.907
669.6448, 1253.523
670.1269, 1262.348
670.6090, 1270.800
671.0911, 1278.757
671.5732, 1282.856
672.0554, 1282.739
672.5375, 1280.808
673.0196, 1276.695
673.5017, 1272.989
673.9838, 1275.464
674.4659, 1287.664
674.9481, 1300.242
675.4302, 1309.211
675.9123, 1314.231
676.3944, 1314.972
676.8765, 1302.617
677.3586, 1296.074
677.8408, 1301.550
678.3229, 1315.385
678.8050, 1327.873
679.2871, 1339.293
679.7692, 1348.595
680.2513, 1355.153
680.7335, 1359.267
681.2156, 1360.580
681.6977, 1359.010
682.1799, 1360.643
682.6620, 1373.410
683.1441, 1390.671
683.6262, 1400.328
684.1083, 1401.462
684.5905, 1403.853
685.0726, 1417.828
685.5547, 1433.491
686.0368, 1441.644
686.5189, 1436.796
687.0010, 1433.021
687.4832, 1429.996
687.9653, 1430.422
688.4474, 1438.365
688.9295, 1458.120
689.4116, 1472.646
689.8937, 1478.870
690.3759, 1480.070
690.8580, 1482.070
691.3401, 1484.768
691.8222, 1486.854
692.3043, 1487.002
692.7864, 1487.155
693.2686, 1491.232
693.7507, 1497.999
694.2328, 1502.884
694.7149, 1501.400
695.1970, 1499.377
695.6791, 1500.151
696.1613, 1503.869
696.6434, 1508.124
697.1255, 1513.181
697.6076, 1518.096
698.0897, 1522.588
698.5718, 1526.629
699.0540, 1530.510
699.5361, 1534.974
700.0182, 1537.025
700.5003, 1531.263
700.9824, 1519.948
701.4645, 1514.225
701.9467, 1515.882
702.4288, 1521.267
702.9109, 1529.395
703.3930, 1538.204
703.8751, 1544.522
704.3572, 1545.894
704.8394, 1546.859
705.3215, 1547.497
705.8036, 1549.152
706.2857, 1554.750
706.7678, 1569.513
707.2499, 1579.901
707.7321, 1582.005
708.2142, 1578.640
708.6963, 1579.552
709.1784, 1585.152
709.6605, 1590.866
710.1426, 1592.839
710.6248, 1594.261
711.1069, 1605.637
711.5890, 1625.192
712.0711, 1640.474
712.5532, 1639.293
713.0353, 1633.187
713.5175, 1630.879
713.9996, 1633.145
714.4817, 1638.026
714.9638, 1647.001
715.4459, 1656.869
715.9280, 1665.475
716.4102, 1671.566
716.8923, 1680.563
717.3744, 1692.563
717.8565, 1707.478
718.3386, 1727.593
718.8207, 1751.956
719.3029, 1770.923
719.7850, 1781.557
720.2671, 1792.254
720.7492, 1814.296
721.2313, 1842.824
721.7134, 1868.777
722.1956, 1886.337
722.6777, 1905.374
723.1598, 1933.153
723.6419, 1965.337
724.1240, 1993.385
724.6061, 2008.374
725.0883, 2030.143
725.5704, 2062.909
726.0525, 2104.412
726.5346, 2145.282
727.0167, 2183.787
727.4988, 2234.308
727.9810, 2309.414
728.4631, 2396.964
728.9452, 2465.676
729.4273, 2518.257
729.9094, 2572.121
730.3915, 2633.629
730.8737, 2703.820
731.3558, 2787.544
731.8379, 2884.613
732.3200, 2979.874
732.8021, 3061.822
733.2842, 3147.166
733.7664, 3243.048
734.2485, 3349.512
734.7306, 3472.375
735.2127, 3615.021
735.6948, 3766.095
736.1769, 3914.947
736.6591, 4063.535
737.1412, 4218.187
737.6233, 4379.234
738.1054, 4553.930
738.5875, 4752.634
739.0696, 4968.417
739.5518, 5191.896
740.0339, 5422.987
740.5160, 5657.714
740.9981, 5884.913
741.4802, 6121.271
741.9623, 6389.056
742.4445, 6713.846
742.9266, 7025.554
743.4087, 7315.121
743.8908, 7590.115
744.3729, 7860.372
744.8550, 8124.745
745.3372, 8406.215
745.8193, 8720.468
746.3014, 9046.478
746.7835, 9345.145
747.2656, 9626.302
747.7477, 9928.786
748.2299, 10299.89
748.7120, 10667.04
749.1941, 10988.28
749.6762, 11268.69
750.1583, 11534.38
750.6404, 11821.98
751.1226, 12050.65
751.6047, 12201.44
752.0868, 12272.56
752.5689, 12254.00
753.0510, 12145.13
753.5331, 11956.88
754.0153, 11680.96
754.4974, 11334.47
754.9795, 10941.62
755.4616, 10505.64
755.9437, 10045.99
756.4258, 9551.099
756.9080, 9054.243
757.3901, 8590.471
757.8722, 8163.794
758.3543, 7744.277
758.8364, 7314.547
759.3185, 6895.709
759.8007, 6497.527
760.2828, 6118.669
760.7649, 5769.360
761.2470, 5449.023
761.7291, 5149.521
762.2112, 4857.929
762.6934, 4577.587
763.1755, 4328.761
763.6576, 4118.827
764.1397, 3930.414
764.6218, 3754.134
765.1039, 3588.349
765.5861, 3430.167
766.0682, 3278.282
766.5503, 3135.416
767.0324, 2998.371
767.5145, 2873.983
767.9966, 2770.906
768.4788, 2694.148
768.9609, 2620.176
769.4430, 2546.125
769.9251, 2473.815
770.4072, 2404.801
770.8893, 2339.589
771.3715, 2281.920
771.8536, 2233.161
772.3357, 2191.170
772.8178, 2159.919
773.2999, 2133.410
773.7820, 2099.779
774.2642, 2043.122
774.7463, 1993.007
775.2284, 1958.784
775.7105, 1935.759
776.1926, 1912.490
776.6747, 1888.221
777.1569, 1867.115
777.6390, 1853.189
778.1211, 1841.113
778.6032, 1812.312
779.0853, 1770.553
779.5674, 1735.881
780.0496, 1727.568
780.5317, 1724.337
781.0138, 1704.592
781.4959, 1672.438
781.9780, 1649.128
782.4601, 1651.323
782.9423, 1652.877
783.4244, 1641.734
783.9065, 1607.574
784.3886, 1616.788
784.8707, 1618.799
785.3528, 1613.994
785.8350, 1581.955
786.3171, 1585.083
786.7992, 1574.117
787.2813, 1562.574
787.7634, 1570.650
788.2455, 1542.574
788.7277, 1550.337
789.2098, 1543.795
789.6919, 1537.581
790.1740, 1535.777
790.6561, 1535.767
791.1382, 1535.016
791.6204, 1531.743
792.1025, 1525.528
792.5846, 1523.278
793.0667, 1526.200
793.5488, 1527.896
794.0309, 1521.087
794.5131, 1509.335
794.9952, 1503.217
795.4773, 1503.399
795.9594, 1503.165
796.4415, 1496.613
796.9236, 1488.257
797.4058, 1481.417
797.8879, 1475.773
798.3700, 1474.821
798.8521, 1483.169
799.3342, 1491.526
799.8163, 1492.906
800.2985, 1486.231
800.7806, 1480.723
801.2627, 1476.467
801.7448, 1473.719
802.2269, 1473.894
802.7090, 1475.500
803.1912, 1475.436
803.6733, 1473.009
804.1554, 1470.267
804.6375, 1467.955
805.1196, 1466.201
805.6017, 1465.000
806.0839, 1463.204
806.5660, 1464.551
807.0481, 1470.484
807.5302, 1477.764
808.0123, 1483.403
808.4944, 1487.398
808.9766, 1490.365
809.4587, 1492.401
809.9408, 1493.257
810.4229, 1489.510
810.9050, 1485.392
811.3871, 1488.751
811.8693, 1505.006
812.3514, 1518.986
812.8335, 1523.828
813.3156, 1523.416
813.7977, 1521.979
814.2798, 1519.596
814.7620, 1516.241
815.2441, 1511.212
815.7262, 1506.503
816.2083, 1503.998
816.6904, 1503.913
817.1725, 1508.953
817.6547, 1521.374
818.1368, 1532.312
818.6189, 1528.654
819.1010, 1520.038
819.5831, 1519.881
820.0652, 1539.976
820.5474, 1555.765
821.0295, 1562.027
821.5116, 1561.626
821.9937, 1555.454
822.4758, 1540.581
822.9579, 1534.055
823.4401, 1540.049
823.9222, 1549.338
824.4043, 1547.183
824.8864, 1537.655
825.3685, 1531.969
825.8506, 1534.363
826.3328, 1538.055
826.8149, 1541.973
827.2970, 1543.190
827.7791, 1537.926
828.2612, 1514.418
828.7433, 1500.164
829.2255, 1499.206
829.7076, 1504.301
830.1897, 1504.494
830.6718, 1499.799
831.1539, 1501.557
831.6360, 1513.470
832.1182, 1526.978
832.6003, 1534.200
833.0824, 1535.218
833.5645, 1529.399
834.0466, 1510.745
834.5287, 1495.561
835.0109, 1490.104
835.4930, 1491.088
835.9751, 1494.309
836.4572, 1502.319
836.9393, 1504.854
837.4214, 1499.712
837.9036, 1491.255
838.3857, 1485.264
838.8678, 1481.250
839.3499, 1477.498
839.8320, 1473.640
840.3141, 1469.960
840.7963, 1465.989
841.2784, 1462.612
841.7605, 1460.995
842.2426, 1462.250
842.7247, 1464.072
843.2068, 1465.471
843.6890, 1468.087
844.1711, 1475.850
844.6532, 1489.440
845.1353, 1493.713
845.6174, 1484.624
846.0995, 1473.897
846.5817, 1475.727
847.0638, 1485.694
847.5460, 1496.866
848.0281, 1509.800
848.5102, 1518.046
848.9923, 1512.624
849.4744, 1504.728
849.9565, 1506.552
850.4387, 1523.040
850.9208, 1537.388
851.4029, 1549.417
851.8850, 1558.065
852.3671, 1560.899
852.8492, 1559.200
853.3314, 1557.136
853.8135, 1554.928
854.2956, 1555.053
854.7777, 1563.066
855.2598, 1572.464
855.7419, 1575.903
856.2241, 1566.548
856.7062, 1563.947
857.1883, 1572.037
857.6704, 1583.629
858.1525, 1593.274
858.6346, 1600.993
859.1168, 1606.476
859.5989, 1609.449
860.0810, 1612.209
860.5631, 1615.739
861.0452, 1620.939
861.5273, 1629.919
862.0095, 1643.702
862.4916, 1656.225
862.9737, 1667.698
863.4558, 1674.633
863.9379, 1672.814
864.4200, 1658.046
864.9022, 1658.565
865.3843, 1679.031
865.8664, 1697.270
866.3485, 1687.107
866.8306, 1661.827
867.3127, 1657.584
867.7949, 1676.361
868.2770, 1694.704
868.7591, 1697.462
869.2412, 1694.844
869.7233, 1692.482
870.2054, 1690.258
870.6876, 1695.776
871.1697, 1715.961
871.6518, 1730.460
872.1339, 1723.177
872.6160, 1698.518
873.0981, 1688.655
873.5803, 1692.942
874.0624, 1699.369
874.5445, 1702.113
875.0266, 1701.459
875.5087, 1674.833
875.9908, 1703.344
876.4730, 1719.814
876.9551, 1724.888
877.4372, 1684.439
877.9193, 1702.775
878.4014, 1697.552
878.8835, 1691.363
879.3657, 1717.972
879.8478, 1684.144
880.3299, 1710.233
880.8120, 1712.404
881.2941, 1725.522
881.7762, 1714.936
882.2584, 1711.671
882.7405, 1732.118
883.2226, 1739.435
883.7047, 1726.121
884.1868, 1739.934
884.6689, 1705.279
885.1511, 1713.156
885.6332, 1737.867
886.1153, 1745.298
886.5974, 1744.678
887.0795, 1750.411
887.5616, 1758.617
888.0438, 1758.567
888.5259, 1733.297
889.0080, 1712.905
889.4901, 1715.333
889.9722, 1730.574
890.4543, 1739.147
890.9365, 1737.357
891.4186, 1737.160
891.9007, 1740.174
892.3828, 1745.307
892.8649, 1754.609
893.3470, 1764.996
893.8292, 1764.509
894.3113, 1747.005
894.7934, 1727.596
895.2755, 1711.832
895.7576, 1702.705
896.2397, 1704.296
896.7219, 1727.397
897.2040, 1743.630
897.6861, 1751.863
898.1682, 1755.059
898.6503, 1754.548
899.1324, 1751.058
899.6146, 1750.107
900.0967, 1752.438
900.5788, 1754.808
901.0609, 1755.653
901.5430, 1754.569
902.0251, 1750.635
902.5073, 1743.028
902.9894, 1736.078
903.4715, 1726.642
903.9536, 1722.770
904.4357, 1732.563
904.9178, 1754.769
905.4000, 1763.586
905.8821, 1758.877
906.3642, 1750.836
906.8463, 1744.847
907.3284, 1740.430
907.8105, 1736.261
908.2927, 1732.698
908.7748, 1732.874
909.2569, 1742.759
909.7390, 1750.797
910.2211, 1752.034
910.7032, 1748.496
911.1854, 1752.126
911.6675, 1763.224
912.1496, 1769.917
912.6317, 1761.975
913.1138, 1751.977
913.5959, 1758.344
914.0781, 1775.462
914.5602, 1789.853
915.0423, 1800.360
915.5244, 1802.271
916.0065, 1787.918
916.4886, 1768.024
916.9708, 1762.942
917.4529, 1773.930
917.9350, 1787.166
918.4171, 1801.236
918.8992, 1812.621
919.3813, 1816.705
919.8635, 1814.783
920.3456, 1808.030
920.8277, 1792.730
921.3098, 1781.752
921.7919, 1782.761
922.2740, 1787.162
922.7562, 1787.907
923.2383, 1784.606
923.7204, 1778.799
924.2025, 1769.925
924.6846, 1762.234
925.1667, 1761.137
925.6489, 1763.428
926.1310, 1763.782
926.6131, 1761.546
927.0952, 1759.936
927.5773, 1760.264
928.0594, 1761.727
928.5416, 1765.563
929.0237, 1771.707
929.5058, 1766.743
929.9879, 1748.767
930.4700, 1733.003
930.9521, 1729.657
931.4343, 1733.657
931.9164, 1739.856
932.3985, 1746.395
932.8806, 1746.333
933.3627, 1725.037
933.8448, 1709.225
934.3270, 1714.179
934.8091, 1730.694
935.2912, 1736.067
935.7733, 1728.479
936.2554, 1721.706
936.7375, 1719.017
937.2197, 1719.046
937.7018, 1721.698
938.1839, 1725.185
938.6660, 1725.835
939.1481, 1721.938
939.6302, 1716.217
940.1124, 1708.747
940.5945, 1700.245
941.0766, 1690.492
941.5587, 1678.027
942.0408, 1672.791
942.5229, 1676.338
943.0051, 1681.765
943.4872, 1682.730
943.9693, 1680.939
944.4514, 1679.387
944.9335, 1678.529
945.4156, 1675.600
945.8978, 1665.359
946.3799, 1656.829
946.8620, 1654.503
947.3441, 1658.230
947.8262, 1664.844
948.3083, 1674.885
948.7905, 1682.501
949.2726, 1682.805
949.7547, 1679.668
950.2368, 1680.386
950.7189, 1682.733
951.2010, 1679.429
951.6832, 1655.801
952.1653, 1640.798
952.6474, 1644.201
953.1295, 1659.389
953.6116, 1674.659
954.0938, 1690.369
954.5759, 1697.425
955.0580, 1691.962
955.5401, 1682.563
956.0222, 1678.666
956.5043, 1677.739
956.9865, 1676.047
957.4686, 1672.425
957.9507, 1668.442
958.4328, 1661.243
958.9149, 1657.010
959.3970, 1663.431
959.8792, 1680.910
960.3613, 1686.278
960.8434, 1678.572
961.3255, 1669.100
961.8076, 1668.211
962.2897, 1669.117
962.7719, 1662.876
963.2540, 1649.586
963.7361, 1643.259
964.2182, 1653.121
964.7003, 1660.543
965.1824, 1657.261
965.6646, 1648.018
966.1467, 1653.925
966.6288, 1672.319
967.1109, 1681.912
967.5930, 1668.948
968.0751, 1649.837
968.5573, 1634.909
969.0394, 1624.032
969.5215, 1616.938
970.0036, 1613.775
970.4857, 1614.601
970.9678, 1620.990
971.4500, 1628.678
971.9321, 1632.440
972.4142, 1632.812
972.8963, 1631.257
973.3784, 1627.752
973.8605, 1625.264
974.3427, 1625.441
974.8248, 1627.808
975.3069, 1632.930
975.7890, 1641.311
976.2711, 1646.405
976.7532, 1647.079
977.2354, 1648.074
977.7175, 1653.799
978.1996, 1660.892
978.6817, 1658.391
979.1638, 1648.943
979.6459, 1643.112
980.1281, 1651.717
980.6102, 1658.850
981.0923, 1657.894
981.5744, 1650.800
982.0565, 1638.166
982.5386, 1616.020
983.0208, 1612.751
983.5029, 1638.010
983.9850, 1668.614
984.4671, 1675.263
984.9492, 1667.337
985.4313, 1658.998
985.9135, 1652.406
986.3956, 1648.427
986.8777, 1650.541
987.3598, 1652.394
987.8419, 1649.305
988.3240, 1641.233
988.8062, 1639.793
989.2883, 1645.050
989.7704, 1650.609
990.2525, 1652.092
990.7346, 1651.790
991.2167, 1651.101
991.6989, 1650.477
992.1810, 1651.636
992.6631, 1658.245
993.1452, 1661.427
993.6273, 1658.185
994.1094, 1652.068
994.5916, 1649.995
995.0737, 1651.474
995.5558, 1653.588
996.0379, 1654.839
996.5200, 1659.015
997.0021, 1675.784
997.4843, 1692.994
997.9664, 1695.541
998.4485, 1675.385
998.9306, 1667.932
999.4127, 1676.846
999.8948, 1687.161
1000.377, 1683.558
1000.859, 1674.074
1001.341, 1681.857
1001.823, 1704.210
1002.305, 1720.144
1002.788, 1714.547
1003.270, 1705.663
1003.752, 1698.817
1004.234, 1694.897
1004.716, 1697.453
1005.198, 1707.229
1005.680, 1714.735
1006.162, 1716.789
1006.644, 1717.335
1007.127, 1719.151
1007.609, 1723.327
1008.091, 1732.100
1008.573, 1749.150
1009.055, 1762.802
1009.537, 1772.908
1010.019, 1777.844
1010.501, 1773.987
1010.984, 1762.624
1011.466, 1757.376
1011.948, 1758.136
1012.430, 1760.989
1012.912, 1764.681
1013.394, 1768.326
1013.876, 1771.492
1014.358, 1774.075
1014.841, 1776.177
1015.323, 1778.944
1015.805, 1777.043
1016.287, 1766.503
1016.769, 1756.415
1017.251, 1768.726
1017.733, 1791.918
1018.215, 1799.241
1018.697, 1778.116
1019.180, 1759.165
1019.662, 1759.656
1020.144, 1762.798
1020.626, 1755.053
1021.108, 1735.250
1021.590, 1727.338
1022.072, 1731.753
1022.554, 1737.585
1023.036, 1739.471
1023.519, 1737.408
1024.001, 1728.715
1024.483, 1715.649
1024.965, 1706.523
1025.447, 1707.475
1025.929, 1705.062
1026.411, 1695.577
1026.893, 1683.971
1027.375, 1679.861
1027.858, 1681.292
1028.340, 1681.486
1028.822, 1679.498
1029.304, 1673.942
1029.786, 1658.089
1030.268, 1642.766
1030.750, 1638.966
1031.232, 1648.341
1031.715, 1644.605
1032.197, 1625.293
1032.679, 1609.309
1033.161, 1611.096
1033.643, 1620.713
1034.125, 1625.560
1034.607, 1625.689
1035.089, 1621.247
1035.572, 1606.902
1036.054, 1594.966
1036.536, 1586.723
1037.018, 1582.344
1037.500, 1584.204
1037.982, 1591.132
1038.464, 1593.766
1038.946, 1590.698
1039.428, 1585.957
1039.911, 1581.521
1040.393, 1577.516
1040.875, 1574.055
1041.357, 1571.154
1041.839, 1568.183
1042.321, 1563.734
1042.803, 1565.597
1043.285, 1581.672
1043.767, 1600.768
1044.250, 1600.596
1044.732, 1587.564
1045.214, 1575.717
1045.696, 1567.769
1046.178, 1565.234
1046.660, 1570.985
1047.142, 1579.282
1047.624, 1586.186
1048.107, 1591.408
1048.589, 1587.997
1049.071, 1575.552
1049.553, 1564.793
1050.035, 1566.854
1050.517, 1571.051
1050.999, 1566.649
1051.481, 1555.423
1051.964, 1556.788
1052.446, 1577.609
1052.928, 1587.261
1053.410, 1573.394
1053.892, 1552.803
1054.374, 1557.001
1054.856, 1574.142
1055.338, 1580.557
1055.820, 1564.407
1056.302, 1553.989
1056.785, 1559.306
1057.267, 1570.210
1057.749, 1584.105
1058.231, 1599.854
1058.713, 1597.142
1059.195, 1577.614
1059.677, 1562.652
1060.159, 1569.155
1060.642, 1581.177
1061.124, 1588.171
1061.606, 1592.336
1062.088, 1600.938
1062.570, 1618.128
1063.052, 1625.164
1063.534, 1617.395
1064.016, 1606.552
1064.499, 1608.846
1064.981, 1616.507
1065.463, 1614.323
1065.945, 1599.201
1066.427, 1593.447
1066.909, 1614.287
1067.391, 1632.058
1067.873, 1634.743
1068.355, 1626.758
1068.838, 1623.426
1069.320, 1624.255
1069.802, 1626.123
1070.284, 1626.893
1070.766, 1630.017
1071.248, 1642.093
1071.730, 1655.140
1072.212, 1659.020
1072.694, 1649.816
1073.177, 1646.505
1073.659, 1649.613
1074.141, 1655.088
1074.623, 1662.354
1075.105, 1668.419
1075.587, 1669.576
1076.069, 1666.079
1076.551, 1659.880
1077.034, 1643.610
1077.516, 1637.632
1077.998, 1647.662
1078.480, 1666.007
1078.962, 1682.604
1079.444, 1696.734
1079.926, 1704.377
1080.408, 1703.633
1080.891, 1704.462
1081.373, 1717.671
1081.855, 1728.312
1082.337, 1724.793
1082.819, 1709.391
1083.301, 1712.062
1083.783, 1732.515
1084.265, 1743.804
1084.747, 1724.559
1085.229, 1703.917
1085.712, 1713.576
1086.194, 1738.096
1086.676, 1752.815
1087.158, 1752.881
1087.640, 1747.719
1088.122, 1736.380
1088.604, 1723.550
1089.086, 1709.429
1089.569, 1698.400
1090.051, 1704.855
1090.533, 1724.901
1091.015, 1732.364
1091.497, 1700.880
1091.979, 1676.878
1092.461, 1672.029
1092.943, 1678.947
1093.426, 1685.142
1093.908, 1690.870
1094.390, 1698.242
1094.872, 1708.187
1095.354, 1715.357
1095.836, 1716.421
1096.318, 1713.137
1096.800, 1705.185
1097.282, 1693.245
1097.765, 1685.747
1098.247, 1682.679
1098.729, 1684.746
1099.211, 1695.368
1099.693, 1706.387
1100.175, 1708.910
1100.657, 1705.999
1101.139, 1702.465
1101.622, 1700.647
1102.104, 1693.756
1102.586, 1679.223
1103.068, 1667.574
1103.550, 1671.034
1104.032, 1682.038
1104.514, 1683.637
1104.996, 1677.907
1105.479, 1676.806
1105.961, 1688.069
1106.443, 1701.338
1106.925, 1718.446
1107.407, 1731.934
1107.889, 1724.608
1108.371, 1701.598
1108.853, 1690.234
1109.335, 1694.784
1109.818, 1703.280
1110.300, 1714.925
1110.782, 1721.492
1111.264, 1715.149
1111.746, 1698.896
1112.228, 1688.222
1112.710, 1683.036
1113.192, 1684.822
1113.674, 1695.982
1114.157, 1709.611
1114.639, 1723.196
1115.121, 1732.903
1115.603, 1732.713
1116.085, 1718.019
1116.567, 1708.770
1117.049, 1705.778
1117.531, 1705.004
1118.014, 1705.540
1118.496, 1705.597
1118.978, 1699.700
1119.460, 1690.970
1119.942, 1687.367
1120.424, 1695.306
1120.906, 1703.441
1121.388, 1711.111
1121.870, 1718.048
1122.353, 1727.365
1122.835, 1735.331
1123.317, 1725.928
1123.799, 1699.892
1124.281, 1680.047
1124.763, 1681.747
1125.245, 1688.146
1125.727, 1694.148
1126.209, 1699.478
1126.692, 1703.587
1127.174, 1706.495
1127.656, 1708.474
1128.138, 1709.610
1128.620, 1709.412
1129.102, 1706.869
1129.584, 1703.351
1130.066, 1699.489
1130.549, 1695.433
1131.031, 1693.173
1131.513, 1692.850
1131.995, 1691.839
1132.477, 1688.084
1132.959, 1685.024
1133.441, 1686.881
1133.923, 1691.424
1134.406, 1695.386
1134.888, 1697.331
1135.370, 1702.984
1135.852, 1713.987
1136.334, 1722.004
1136.816, 1718.650
1137.298, 1710.423
1137.780, 1707.205
1138.262, 1707.957
1138.745, 1709.636
1139.227, 1713.537
1139.709, 1714.778
1140.191, 1712.069
1140.673, 1708.504
1141.155, 1707.178
1141.637, 1707.777
1142.119, 1710.650
1142.601, 1715.411
1143.084, 1717.837
1143.566, 1713.805
1144.048, 1710.196
1144.530, 1709.225
1145.012, 1709.486
1145.494, 1707.590
1145.976, 1704.322
1146.458, 1703.765
1146.941, 1707.016
1147.423, 1709.830
1147.905, 1706.999
1148.387, 1705.878
1148.869, 1710.587
1149.351, 1720.415
1149.833, 1735.053
1150.315, 1753.443
1150.797, 1758.056
1151.280, 1736.273
1151.762, 1716.555
1152.244, 1723.588
1152.726, 1741.243
1153.208, 1755.406
1153.690, 1766.217
1154.172, 1763.725
1154.654, 1747.224
1155.136, 1732.803
1155.619, 1729.855
1156.101, 1732.671
1156.583, 1737.756
1157.065, 1744.248
1157.547, 1750.838
1158.029, 1758.366
1158.511, 1761.987
1158.993, 1760.439
1159.476, 1761.105
1159.958, 1774.754
1160.440, 1790.935
1160.922, 1795.636
1161.404, 1790.849
1161.886, 1785.899
1162.368, 1780.496
1162.850, 1779.219
1163.333, 1783.528
1163.815, 1789.557
1164.297, 1793.854
1164.779, 1796.324
1165.261, 1796.567
1165.743, 1794.629
1166.225, 1791.208
1166.707, 1780.814
1167.189, 1779.502
1167.672, 1794.703
1168.154, 1815.165
1168.636, 1819.281
1169.118, 1812.979
1169.600, 1808.875
1170.082, 1809.210
1170.564, 1812.556
1171.046, 1823.747
1171.528, 1830.662
1172.011, 1825.343
1172.493, 1814.848
1172.975, 1824.494
1173.457, 1846.975
1173.939, 1856.925
1174.421, 1839.562
1174.903, 1827.327
1175.385, 1839.773
1175.868, 1854.923
1176.350, 1859.093
1176.832, 1854.653
1177.314, 1856.245
1177.796, 1862.967
1178.278, 1869.938
1178.760, 1875.202
1179.242, 1879.916
1179.724, 1883.192
1180.207, 1887.276
1180.689, 1895.889
1181.171, 1908.922
1181.653, 1912.357
1182.135, 1906.712
1182.617, 1900.201
1183.099, 1899.255
1183.581, 1897.297
1184.063, 1887.387
1184.546, 1876.079
1185.028, 1872.102
1185.510, 1875.448
1185.992, 1888.545
1186.474, 1911.777
1186.956, 1932.494
1187.438, 1941.859
1187.920, 1945.475
1188.403, 1943.471
1188.885, 1939.145
1189.367, 1940.675
1189.849, 1948.457
1190.331, 1955.451
1190.813, 1960.405
1191.295, 1966.028
1191.777, 1978.246
1192.260, 1988.984
1192.742, 1988.913
1193.224, 1980.652
1193.706, 1982.216
1194.188, 1995.229
1194.670, 2000.636
1195.152, 1992.344
1195.634, 1982.459
1196.116, 1981.262
1196.599, 1985.377
1197.081, 1994.245
1197.563, 2007.345
1198.045, 2009.863
1198.527, 2000.374
1199.009, 1993.833
1199.491, 1995.998
1199.973, 2002.178
1200.455, 2012.365
1200.938, 2020.917
1201.420, 2019.057
1201.902, 2004.485
1202.384, 1996.940
1202.866, 1997.281
1203.348, 1997.973
1203.830, 1994.631
1204.312, 1990.980
1204.795, 1991.354
1205.277, 1994.099
1205.759, 1997.277
1206.241, 2002.133
1206.723, 2001.203
1207.205, 1993.758
1207.687, 1985.355
1208.169, 1977.426
1208.651, 1972.130
1209.134, 1973.525
1209.616, 1978.876
1210.098, 1982.754
1210.580, 1983.888
1211.062, 1985.855
1211.544, 1988.798
1212.026, 1992.240
1212.508, 1997.527
1212.990, 2001.691
1213.473, 2002.433
1213.955, 1999.209
1214.437, 1988.747
1214.919, 1963.603
1215.401, 1957.783
1215.883, 1976.524
1216.365, 1999.650
1216.847, 2013.320
1217.330, 2019.061
1217.812, 2014.334
1218.294, 2002.654
1218.776, 1999.283
1219.258, 2009.590
1219.740, 2009.942
1220.222, 1995.368
1220.704, 1980.840
1221.187, 1983.617
1221.669, 1992.955
1222.151, 1996.940
1222.633, 1996.103
1223.115, 2000.102
1223.597, 2010.090
1224.079, 2022.679
1224.561, 2039.217
1225.043, 2049.201
1225.526, 2033.741
1226.008, 2010.889
1226.490, 1999.619
1226.972, 2001.447
1227.454, 2003.493
1227.936, 2005.563
1228.418, 2008.637
1228.900, 2013.409
1229.382, 2017.560
1229.865, 2018.368
1230.347, 2017.280
1230.829, 2013.906
1231.311, 2008.590
1231.793, 2013.851
1232.275, 2031.864
1232.757, 2044.008
1233.239, 2044.407
1233.722, 2037.145
1234.204, 2016.353
1234.686, 1996.962
1235.168, 2000.622
1235.650, 2028.534
1236.132, 2029.902
1236.614, 2002.134
1237.096, 1982.395
1237.578, 1987.595
1238.061, 1999.562
1238.543, 2000.194
1239.025, 1998.960
1239.507, 2009.349
1239.989, 2032.255
1240.471, 2037.502
1240.953, 2024.652
1241.435, 2014.134
1241.917, 2017.178
1242.400, 2022.150
1242.882, 2016.039
1243.364, 2009.546
1243.846, 2016.123
1244.328, 2036.778
1244.810, 2043.393
1245.292, 2036.522
1245.774, 2032.414
1246.257, 2044.643
1246.739, 2053.639
1247.221, 2041.625
1247.703, 2023.071
1248.185, 2012.975
1248.667, 2011.399
1249.149, 2014.918
1249.631, 2022.828
1250.114, 2028.079
1250.596, 2024.843
1251.078, 2020.363
1251.560, 2017.718
1252.042, 2015.931
1252.524, 2012.723
1253.006, 2008.531
1253.488, 2015.980
1253.970, 2032.852
1254.453, 2042.622
1254.935, 2025.399
1255.417, 2013.543
1255.899, 2023.485
1256.381, 2039.529
1256.863, 2047.297
1257.345, 2048.335
1257.827, 2054.485
1258.310, 2064.108
1258.792, 2066.358
1259.274, 2043.701
1259.756, 2030.227
1260.238, 2036.945
1260.720, 2050.400
1261.202, 2058.116
1261.684, 2061.142
1262.167, 2062.514
1262.649, 2062.403
1263.131, 2060.982
1263.613, 2056.054
1264.095, 2053.104
1264.577, 2052.670
1265.059, 2054.766
1265.541, 2059.041
1266.023, 2065.970
1266.505, 2082.463
1266.988, 2104.078
1267.470, 2109.411
1267.952, 2077.575
1268.434, 2053.759
1268.916, 2040.771
1269.398, 2041.092
1269.880, 2073.289
1270.362, 2110.691
1270.845, 2104.562
1271.327, 2064.514
1271.809, 2048.397
1272.291, 2067.589
1272.773, 2096.018
1273.255, 2135.175
1273.737, 2159.059
1274.219, 2122.651
1274.702, 2072.244
1275.184, 2056.747
1275.666, 2071.439
1276.148, 2082.719
1276.630, 2088.959
1277.112, 2096.701
1277.594, 2107.560
1278.076, 2111.385
1278.558, 2085.652
1279.041, 2061.875
1279.523, 2073.273
1280.005, 2105.237
1280.487, 2116.469
1280.969, 2106.392
1281.451, 2106.347
1281.933, 2120.561
1282.415, 2132.339
1282.897, 2125.700
1283.380, 2117.792
1283.862, 2119.690
1284.344, 2125.889
1284.826, 2125.507
1285.308, 2119.524
1285.790, 2113.462
1286.272, 2107.993
1286.754, 2107.273
1287.237, 2120.537
1287.719, 2129.772
1288.201, 2127.449
1288.683, 2120.419
1289.165, 2121.305
1289.647, 2126.802
1290.129, 2128.249
1290.611, 2124.724
1291.094, 2117.790
1291.576, 2103.344
1292.058, 2092.583
1292.540, 2088.153
1293.022, 2087.312
1293.504, 2084.603
1293.986, 2083.817
1294.468, 2095.841
1294.950, 2119.484
1295.432, 2126.615
1295.915, 2107.554
1296.397, 2095.443
1296.879, 2097.329
1297.361, 2103.313
1297.843, 2103.858
1298.325, 2101.388
1298.807, 2097.754
1299.289, 2093.319
1299.772, 2089.410
1300.254, 2085.868
1300.736, 2084.711
1301.218, 2086.764
1301.700, 2086.915
1302.182, 2074.462
1302.664, 2064.263
1303.146, 2072.329
1303.629, 2089.653
1304.111, 2097.034
1304.593, 2094.868
1305.075, 2086.078
1305.557, 2070.862
1306.039, 2059.180
1306.521, 2060.047
1307.003, 2062.586
1307.485, 2061.637
1307.968, 2060.323
1308.450, 2067.225
1308.932, 2078.182
1309.414, 2078.268
1309.896, 2066.340
1310.378, 2058.580
1310.860, 2065.265
1311.342, 2070.214
1311.824, 2069.640
1312.307, 2067.860
1312.789, 2073.020
1313.271, 2079.750
1313.753, 2078.796
1314.235, 2070.132
1314.717, 2061.276
1315.199, 2052.218
1315.681, 2046.195
1316.164, 2044.209
1316.646, 2043.183
1317.128, 2039.203
1317.610, 2035.327
##END=



