##NAMES=Frondelite
##RRUFFID=R050622
##IDEAL CHEMISTRY=(Mn^2+^_0.5_Fe^3+^_0.5_)_2_Fe^3+^_3_(PO_4_)_3_(OH)_5_
##LOCALITY=Hagendorf, Bavaria, Germany
##OWNER=RRUFF
##SOURCE=University of Arizona Mineral Museum
##DESCRIPTION=Black bladed crystals in divergent radial aggregates
##STATUS=The identification of this mineral is confirmed by single-crystal X-ray diffraction and chemical analysis.
##URL=rruff.info/R050622
##MEASURED CHEMISTRY=(Mn^2+^_0.63_Fe^2+^_0.37_)_Î£=1_Fe^3+^_4.00_(P_1.00_O_4_)_3_(OH)_5_
91.11523, 33.34743
91.59735, 34.96174
92.07947, 33.68357
92.56158, 30.34290
93.04370, 27.54859
93.52582, 27.30428
94.00793, 28.61833
94.49006, 28.83731
94.97218, 26.94331
95.45429, 25.62637
95.93641, 31.16485
96.41853, 43.34827
96.90064, 53.56849
97.38276, 54.47559
97.86488, 46.88752
98.34699, 39.61657
98.82911, 33.79115
99.31123, 29.37077
99.79334, 26.52258
100.2755, 25.47038
100.7576, 25.30240
101.2397, 25.35735
101.7218, 25.68321
102.2039, 26.02098
102.6861, 26.38840
103.1682, 26.78421
103.6503, 26.75733
104.1324, 26.08923
104.6145, 25.23997
105.0966, 24.78143
105.5788, 24.97532
106.0609, 25.10933
106.5430, 24.93707
107.0251, 24.27007
107.5072, 23.94751
107.9893, 23.77118
108.4715, 23.98885
108.9536, 25.05910
109.4357, 28.71440
109.9178, 31.68067
110.3999, 32.87642
110.8820, 31.01195
111.3642, 29.48902
111.8463, 28.20419
112.3284, 27.30952
112.8105, 27.19681
113.2926, 28.61765
113.7747, 30.36104
114.2569, 31.78028
114.7390, 31.71393
115.2211, 32.54170
115.7032, 35.64877
116.1853, 40.48112
116.6674, 44.21135
117.1496, 44.77529
117.6317, 44.39561
118.1138, 44.90621
118.5959, 46.84578
119.0780, 49.80144
119.5602, 53.64332
120.0423, 58.39302
120.5244, 63.88727
121.0065, 69.87688
121.4886, 76.59627
121.9707, 84.38947
122.4529, 95.81676
122.9350, 106.8512
123.4171, 113.2209
123.8992, 114.4180
124.3813, 115.2097
124.8634, 119.4476
125.3456, 126.2337
125.8277, 133.5602
126.3098, 140.9649
126.7919, 148.0869
127.2740, 154.0938
127.7561, 158.6927
128.2383, 163.0970
128.7204, 168.8564
129.2025, 175.7711
129.6846, 182.7928
130.1667, 188.8643
130.6488, 194.4352
131.1310, 201.3116
131.6131, 209.8291
132.0952, 219.4964
132.5773, 229.6642
133.0594, 240.3849
133.5415, 251.1638
134.0237, 261.7826
134.5058, 272.2949
134.9879, 282.7103
135.4700, 293.0648
135.9521, 303.3737
136.4343, 314.0470
136.9164, 325.1847
137.3985, 336.4245
137.8806, 347.9972
138.3627, 360.2593
138.8448, 370.8531
139.3270, 379.3137
139.8091, 385.8148
140.2912, 391.4834
140.7733, 395.9941
141.2554, 400.3375
141.7375, 405.5763
142.2197, 412.1952
142.7018, 418.5477
143.1839, 424.1818
143.6660, 429.0112
144.1481, 434.0797
144.6302, 439.2658
145.1124, 444.7591
145.5945, 450.6082
146.0766, 456.3831
146.5587, 463.3218
147.0408, 472.3118
147.5230, 484.4900
148.0051, 494.0147
148.4872, 496.5803
148.9693, 494.2681
149.4514, 494.5548
149.9335, 500.2430
150.4157, 505.5474
150.8978, 508.7717
151.3799, 509.1316
151.8620, 509.3766
152.3441, 509.5040
152.8262, 509.5411
153.3084, 509.5244
153.7905, 510.6487
154.2726, 510.7620
154.7547, 508.9852
155.2368, 504.1222
155.7189, 499.3530
156.2011, 494.6160
156.6832, 490.1466
157.1653, 486.6915
157.6474, 485.7525
158.1295, 484.8578
158.6116, 482.7230
159.0938, 478.3394
159.5759, 473.8201
160.0580, 469.2402
160.5401, 464.8115
161.0222, 461.2964
161.5044, 459.2624
161.9865, 458.0110
162.4686, 457.1078
162.9507, 457.2015
163.4328, 456.7718
163.9149, 454.8192
164.3971, 451.6406
164.8792, 448.7871
165.3613, 447.1298
165.8434, 446.0555
166.3255, 444.9971
166.8076, 443.4569
167.2898, 442.1823
167.7719, 441.9472
168.2540, 442.6017
168.7361, 442.8019
169.2182, 441.1190
169.7003, 438.7282
170.1825, 437.0331
170.6646, 437.4356
171.1467, 438.1206
171.6288, 437.4305
172.1109, 435.4171
172.5931, 433.4367
173.0752, 432.5984
173.5573, 432.4168
174.0394, 432.1091
174.5215, 430.6471
175.0036, 429.2545
175.4858, 427.1014
175.9679, 429.1998
176.4500, 430.1302
176.9321, 429.9554
177.4142, 425.3649
177.8963, 426.4763
178.3785, 425.3026
178.8606, 424.0352
179.3427, 425.9492
179.8248, 422.0009
180.3069, 423.8644
180.7890, 423.4080
181.2712, 424.0132
181.7533, 422.3194
182.2354, 421.9688
182.7175, 422.4290
183.1996, 422.4644
183.6818, 421.9904
184.1639, 421.4091
184.6460, 421.1509
185.1281, 421.1843
185.6102, 421.3381
186.0923, 421.7810
186.5745, 422.3086
187.0566, 422.1716
187.5387, 421.2506
188.0208, 420.0031
188.5029, 418.8729
188.9850, 417.8822
189.4672, 417.2009
189.9493, 414.6805
190.4314, 416.8033
190.9135, 417.7581
191.3956, 417.6077
191.8777, 413.0416
192.3599, 414.1773
192.8420, 413.0280
193.3241, 411.7851
193.8062, 413.7234
194.2883, 409.7996
194.7704, 411.6874
195.2526, 410.5204
195.7347, 410.1937
196.2168, 410.1954
196.6989, 410.5385
197.1810, 410.9494
197.6632, 411.3983
198.1453, 411.8833
198.6274, 411.9035
199.1095, 411.3487
199.5916, 410.4311
200.0737, 409.4593
200.5559, 408.3637
201.0380, 407.6404
201.5201, 407.7780
202.0022, 408.8776
202.4843, 409.4576
202.9664, 409.2785
203.4486, 408.7177
203.9307, 408.5990
204.4128, 408.9507
204.8949, 409.6494
205.3770, 410.7279
205.8591, 412.2570
206.3413, 413.6550
206.8234, 414.8918
207.3055, 415.9697
207.7876, 416.8390
208.2697, 417.3910
208.7519, 418.0121
209.2340, 418.9533
209.7161, 420.2917
210.1982, 421.5000
210.6803, 422.4507
211.1624, 423.3078
211.6446, 424.5516
212.1267, 426.2681
212.6088, 428.1507
213.0909, 430.1770
213.5730, 432.5428
214.0551, 434.2940
214.5373, 435.2298
215.0194, 435.5991
215.5015, 436.0617
215.9836, 436.5175
216.4657, 437.2935
216.9478, 438.6581
217.4300, 440.8588
217.9121, 442.8778
218.3942, 444.7464
218.8763, 446.3572
219.3584, 447.2135
219.8405, 446.7299
220.3227, 446.5306
220.8048, 447.5482
221.2869, 450.3389
221.7690, 452.7835
222.2511, 454.8981
222.7333, 456.5898
223.2154, 457.4508
223.6975, 457.1478
224.1796, 456.6084
224.6617, 456.2293
225.1438, 455.9399
225.6260, 456.0781
226.1081, 456.9316
226.5902, 458.1613
227.0723, 458.6960
227.5544, 458.1069
228.0365, 457.5261
228.5187, 457.5870
229.0008, 458.8584
229.4829, 459.3858
229.9650, 459.1410
230.4471, 458.1242
230.9292, 456.2829
231.4114, 453.2025
231.8935, 449.8519
232.3756, 446.6725
232.8577, 443.6530
233.3398, 440.6859
233.8220, 437.8268
234.3041, 434.9869
234.7862, 432.0194
235.2683, 428.8759
235.7504, 425.7038
236.2325, 422.5349
236.7147, 419.4836
237.1968, 416.3059
237.6789, 412.9854
238.1610, 409.5681
238.6431, 406.1407
239.1252, 402.6061
239.6074, 399.1723
240.0895, 395.7956
240.5716, 392.1892
241.0537, 389.6385
241.5358, 388.6575
242.0179, 388.4805
242.5001, 387.6510
242.9822, 386.1242
243.4643, 383.9860
243.9464, 381.0841
244.4285, 376.9477
244.9106, 373.5365
245.3928, 370.9755
245.8749, 369.0202
246.3570, 367.2169
246.8391, 365.3245
247.3212, 363.9878
247.8034, 363.4836
248.2855, 363.9828
248.7676, 364.7267
249.2497, 366.3301
249.7318, 367.7489
250.2139, 367.2870
250.6961, 364.1357
251.1782, 360.5668
251.6603, 357.0015
252.1424, 353.2670
252.6245, 350.6145
253.1066, 349.4361
253.5888, 348.9697
254.0709, 348.1700
254.5530, 346.7409
255.0351, 345.5899
255.5172, 345.0753
255.9993, 345.2857
256.4815, 345.0373
256.9636, 343.8901
257.4457, 342.7548
257.9278, 342.9253
258.4099, 345.4340
258.8921, 346.8204
259.3742, 345.8189
259.8563, 342.3815
260.3384, 340.5117
260.8205, 340.9385
261.3026, 341.9880
261.7848, 341.8814
262.2669, 340.0463
262.7490, 338.6509
263.2311, 338.2039
263.7132, 338.6479
264.1953, 339.1671
264.6775, 339.8087
265.1596, 340.4405
265.6417, 340.9731
266.1238, 341.4375
266.6059, 341.6915
267.0880, 341.7077
267.5702, 341.4912
268.0523, 340.9695
268.5344, 339.8926
269.0165, 339.0162
269.4986, 339.0800
269.9807, 340.4053
270.4629, 341.2257
270.9450, 341.2130
271.4271, 340.5546
271.9092, 339.8546
272.3913, 338.9321
272.8734, 338.4777
273.3556, 339.3550
273.8377, 341.9375
274.3198, 343.1150
274.8019, 342.1382
275.2840, 339.9169
275.7661, 339.0367
276.2483, 339.7442
276.7304, 340.7597
277.2125, 341.3810
277.6946, 341.5946
278.1768, 341.6860
278.6589, 341.6588
279.1410, 341.5419
279.6231, 341.4296
280.1052, 341.3490
280.5873, 341.0986
281.0695, 340.5030
281.5516, 339.5671
282.0337, 338.7119
282.5158, 337.9023
282.9979, 337.2740
283.4800, 337.1860
283.9622, 337.6679
284.4443, 337.9991
284.9264, 337.5832
285.4085, 336.5786
285.8906, 334.3518
286.3727, 336.9302
286.8549, 338.3407
287.3370, 338.6458
287.8191, 334.5354
288.3012, 336.1268
288.7833, 335.4332
289.2654, 334.6459
289.7476, 337.0398
290.2297, 333.5716
290.7118, 335.9151
291.1939, 335.9387
291.6760, 337.0240
292.1581, 335.8102
292.6403, 335.3065
293.1224, 337.1027
293.6045, 337.6254
294.0866, 336.1469
294.5687, 337.2997
295.0508, 333.7512
295.5330, 334.3282
296.0151, 336.6851
296.4972, 335.3222
296.9793, 336.5171
297.4614, 336.7379
297.9435, 332.5315
298.4257, 336.0243
298.9078, 336.1874
299.3899, 332.9318
299.8720, 336.1608
300.3541, 333.3765
300.8362, 332.7386
301.3184, 333.7159
301.8005, 333.0094
302.2826, 334.9576
302.7647, 334.3484
303.2469, 333.5106
303.7290, 333.6700
304.2111, 331.0036
304.6932, 333.5797
305.1753, 332.5747
305.6574, 333.3498
306.1396, 334.5283
306.6217, 332.6175
307.1038, 333.9774
307.5859, 330.2652
308.0680, 330.7969
308.5501, 330.8717
309.0323, 333.6591
309.5144, 329.9716
309.9965, 330.3855
310.4786, 332.5456
310.9607, 332.2623
311.4428, 333.0006
311.9250, 330.7144
312.4071, 331.2696
312.8892, 331.0415
313.3713, 333.5197
313.8534, 333.8614
314.3355, 331.6266
314.8177, 329.4027
315.2998, 332.0756
315.7819, 330.1073
316.2640, 330.6429
316.7461, 328.5924
317.2282, 328.7748
317.7104, 328.9218
318.1925, 330.2134
318.6746, 330.5179
319.1567, 329.6349
319.6388, 328.1442
320.1209, 326.8260
320.6031, 325.7793
321.0852, 325.0731
321.5673, 324.8104
322.0494, 325.2787
322.5315, 325.5532
323.0136, 325.3052
323.4958, 324.7737
323.9779, 324.3451
324.4600, 324.3510
324.9421, 324.2354
325.4242, 323.7533
325.9064, 322.7763
326.3885, 321.9720
326.8706, 321.3961
327.3527, 321.0218
327.8348, 320.8111
328.3170, 320.8944
328.7991, 318.7885
329.2812, 320.7844
329.7633, 321.6122
330.2454, 321.3348
330.7275, 316.6417
331.2097, 317.6505
331.6918, 316.3742
332.1739, 315.0042
332.6560, 316.8156
333.1381, 312.7647
333.6202, 314.5256
334.1024, 313.9665
334.5845, 314.4691
335.0666, 312.6727
335.5487, 311.5864
336.0308, 312.8000
336.5129, 312.7401
336.9951, 310.6789
337.4772, 311.2491
337.9593, 307.1180
338.4414, 307.1124
338.9235, 308.8867
339.4056, 306.9412
339.8878, 307.5533
340.3699, 307.1914
340.8520, 302.4025
341.3341, 305.3127
341.8162, 302.4398
342.2983, 301.7769
342.7805, 301.3513
343.2626, 301.2353
343.7447, 301.3129
344.2268, 300.9403
344.7089, 300.0524
345.1910, 299.0325
345.6732, 298.2099
346.1553, 297.5600
346.6374, 297.0162
347.1195, 296.5755
347.6016, 296.2086
348.0837, 295.9500
348.5659, 295.7831
349.0480, 295.4219
349.5301, 294.5022
350.0122, 293.2481
350.4944, 292.2477
350.9765, 291.5876
351.4586, 291.1728
351.9407, 290.9399
352.4228, 290.8768
352.9049, 290.9362
353.3871, 291.2108
353.8692, 291.5446
354.3513, 291.7810
354.8334, 291.9158
355.3155, 291.8315
355.7976, 291.1178
356.2798, 290.1667
356.7619, 289.6054
357.2440, 290.0492
357.7261, 290.6725
358.2082, 290.9479
358.6903, 290.8862
359.1725, 290.5830
359.6546, 289.6006
360.1367, 288.6411
360.6188, 288.4012
361.1009, 289.5897
361.5830, 290.6680
362.0652, 290.8255
362.5473, 290.3697
363.0294, 290.0575
363.5115, 290.6577
363.9936, 291.0749
364.4757, 290.6298
364.9579, 286.9015
365.4400, 289.5519
365.9221, 291.0343
366.4042, 291.4115
366.8863, 287.3730
367.3684, 289.0363
367.8506, 288.4147
368.3327, 287.6993
368.8148, 290.1652
369.2969, 286.7690
369.7790, 289.1844
370.2611, 289.2799
370.7433, 290.4372
371.2254, 289.2953
371.7075, 289.1847
372.1896, 288.6295
372.6717, 287.3155
373.1538, 286.5691
373.6360, 286.6561
374.1181, 286.8703
374.6002, 286.8560
375.0823, 286.4970
375.5645, 286.3231
376.0466, 286.3730
376.5287, 286.5656
377.0108, 286.8257
377.4929, 287.1995
377.9750, 287.4061
378.4572, 287.3268
378.9393, 286.9872
379.4214, 286.6434
379.9035, 286.3441
380.3856, 285.8590
380.8677, 284.6833
381.3499, 282.9103
381.8320, 281.8413
382.3141, 281.9679
382.7962, 282.6985
383.2783, 282.8563
383.7604, 282.4531
384.2426, 281.7749
384.7247, 280.7798
385.2068, 279.6677
385.6889, 278.9380
386.1710, 278.7328
386.6531, 278.5589
387.1353, 277.9101
387.6174, 276.8721
388.0995, 275.6700
388.5816, 274.2307
389.0637, 272.7772
389.5458, 271.4781
390.0280, 270.3314
390.5101, 269.4010
390.9922, 268.7682
391.4743, 268.3602
391.9564, 268.1060
392.4385, 268.1767
392.9207, 268.1649
393.4028, 267.7781
393.8849, 267.1267
394.3670, 266.5385
394.8491, 266.3696
395.3312, 266.1297
395.8134, 265.5018
396.2955, 264.2920
396.7776, 263.1180
397.2597, 262.0727
397.7418, 261.1603
398.2239, 260.3808
398.7061, 259.8367
399.1882, 259.3326
399.6703, 258.7885
400.1524, 258.1948
400.6346, 257.8107
401.1167, 258.0164
401.5988, 258.1092
402.0809, 257.5619
402.5630, 255.8452
403.0451, 254.5273
403.5273, 253.8420
404.0094, 253.5871
404.4915, 253.2471
404.9736, 252.8744
405.4557, 252.2713
405.9378, 251.2366
406.4200, 249.7036
406.9021, 248.5209
407.3842, 247.7495
407.8663, 247.2157
408.3484, 246.7654
408.8305, 246.4021
409.3127, 245.9594
409.7948, 245.2817
410.2769, 244.5637
410.7590, 244.5121
411.2411, 245.1350
411.7232, 245.6586
412.2054, 245.2957
412.6875, 244.3727
413.1696, 243.8517
413.6517, 243.9378
414.1338, 244.1940
414.6159, 244.1563
415.0981, 243.8799
415.5802, 243.5158
416.0623, 242.7679
416.5444, 242.1793
417.0265, 242.4567
417.5086, 243.6056
417.9908, 244.8164
418.4729, 245.7590
418.9550, 246.4103
419.4371, 246.7045
419.9192, 246.1606
420.4013, 245.8299
420.8835, 246.1675
421.3656, 247.0674
421.8477, 248.2228
422.3298, 250.0420
422.8119, 251.6834
423.2940, 252.6791
423.7762, 252.6800
424.2583, 252.9581
424.7404, 253.9064
425.2225, 255.0953
425.7047, 256.0381
426.1868, 256.1590
426.6689, 256.7887
427.1510, 258.2733
427.6331, 260.5360
428.1152, 259.6923
428.5974, 262.5594
429.0795, 264.2585
429.5616, 264.8524
430.0437, 261.0306
430.5258, 262.9106
431.0079, 262.5056
431.4901, 262.0070
431.9722, 264.6896
432.4543, 264.7672
432.9364, 265.5471
433.4185, 266.3764
433.9006, 267.1935
434.3828, 267.6245
434.8649, 267.6422
435.3470, 267.6132
435.8291, 268.0256
436.3112, 268.6879
436.7933, 268.8959
437.2755, 268.3393
437.7576, 267.6636
438.2397, 267.8867
438.7218, 268.7389
439.2039, 269.3106
439.6860, 268.8811
440.1682, 268.0454
440.6503, 265.2011
441.1324, 267.5571
441.6145, 268.7449
442.0966, 268.8276
442.5787, 264.4946
443.0609, 265.8634
443.5430, 264.9472
444.0251, 263.9373
444.5072, 266.1087
444.9893, 262.4179
445.4714, 264.5388
445.9536, 264.3398
446.4357, 265.2026
446.9178, 263.7662
447.3999, 263.1400
447.8820, 262.9833
448.3641, 262.1086
448.8463, 260.9267
449.3284, 259.8247
449.8105, 258.6683
450.2926, 257.8775
450.7747, 257.5891
451.2569, 257.7400
451.7390, 257.8181
452.2211, 255.3740
452.7032, 257.7394
453.1853, 258.9368
453.6674, 259.0290
454.1496, 254.7054
454.6317, 256.0838
455.1138, 255.1771
455.5959, 254.1768
456.0780, 256.3576
456.5602, 252.6763
457.0423, 254.8068
457.5244, 254.6173
458.0065, 255.4896
458.4886, 254.0628
458.9707, 253.3460
459.4529, 254.9291
459.9350, 255.2388
460.4171, 253.5473
460.8992, 254.4871
461.3813, 250.7256
461.8634, 251.0895
462.3456, 253.2333
462.8277, 251.6574
463.3098, 252.6392
463.7919, 252.6469
464.2740, 248.2276
464.7561, 251.5073
465.2383, 251.4574
465.7204, 247.9887
466.2025, 251.0046
466.6846, 248.0073
467.1667, 247.1563
467.6488, 247.9207
468.1310, 247.0010
468.6131, 248.7363
469.0952, 247.9140
469.5773, 246.8631
470.0594, 246.8095
470.5415, 243.9301
471.0237, 246.2931
471.5058, 245.0751
471.9879, 245.6371
472.4700, 245.8074
472.9521, 245.8935
473.4342, 245.3807
473.9164, 244.9461
474.3985, 244.7165
474.8806, 244.4466
475.3627, 243.6628
475.8448, 242.4057
476.3270, 241.0698
476.8091, 239.4682
477.2912, 238.0544
477.7733, 238.2188
478.2554, 239.8370
478.7375, 241.0202
479.2197, 239.7923
479.7018, 237.4377
480.1839, 235.6577
480.6660, 234.7541
481.1481, 234.5741
481.6302, 236.0236
482.1124, 237.9883
482.5945, 238.5819
483.0766, 235.6687
483.5587, 232.5565
484.0408, 230.6531
484.5229, 229.9901
485.0051, 229.5935
485.4872, 229.3784
485.9693, 229.3144
486.4514, 229.4450
486.9335, 230.4985
487.4156, 230.4557
487.8978, 228.7551
488.3799, 226.2630
488.8620, 224.2444
489.3441, 222.7300
489.8262, 221.6340
490.3083, 221.0535
490.7905, 220.8939
491.2726, 220.5535
491.7547, 220.0808
492.2368, 219.1863
492.7189, 217.2722
493.2010, 214.5605
493.6832, 212.9182
494.1653, 212.6675
494.6474, 212.8397
495.1295, 212.2652
495.6116, 211.0986
496.0938, 209.8139
496.5759, 208.4916
497.0580, 207.2208
497.5401, 206.1090
498.0222, 205.1425
498.5044, 204.3091
498.9865, 203.8752
499.4686, 203.3880
499.9507, 202.3818
500.4328, 200.5997
500.9149, 199.0540
501.3971, 198.3747
501.8792, 197.9937
502.3613, 197.2526
502.8434, 195.4182
503.3255, 193.9170
503.8076, 193.1333
504.2898, 192.9075
504.7719, 192.5182
505.2540, 191.9247
505.7361, 191.2268
506.2182, 190.4852
506.7003, 189.7361
507.1825, 188.6233
507.6646, 184.8013
508.1467, 186.6986
508.6288, 187.4278
509.1109, 187.0518
509.5930, 182.2602
510.0752, 183.1702
510.5573, 181.7954
511.0394, 180.3269
511.5215, 182.0396
512.0037, 177.8900
512.4858, 179.5524
512.9679, 178.8948
513.4500, 179.2989
513.9321, 177.4038
514.4142, 176.2190
514.8964, 175.3420
515.3785, 174.7752
515.8606, 173.8578
516.3427, 171.9206
516.8248, 170.5338
517.3069, 170.8651
517.7891, 172.0920
518.2712, 172.6925
518.7533, 171.7839
519.2354, 170.7660
519.7175, 170.1911
520.1996, 170.0465
520.6818, 169.1226
521.1639, 166.4374
521.6460, 164.1804
522.1281, 161.8066
522.6102, 164.3039
523.0923, 165.6333
523.5745, 165.8572
524.0566, 161.6656
524.5387, 163.1759
525.0208, 162.4011
525.5029, 161.5327
525.9850, 163.8455
526.4672, 160.2961
526.9493, 162.5584
527.4314, 162.5008
527.9135, 163.5050
528.3956, 162.2100
528.8777, 161.6252
529.3599, 163.3402
529.8420, 163.7818
530.3241, 162.2222
530.8062, 160.8659
531.2883, 160.3303
531.7704, 160.0599
532.2526, 160.5990
532.7347, 160.9212
533.2168, 160.5738
533.6989, 159.7889
534.1810, 159.1005
534.6631, 158.3987
535.1453, 158.0143
535.6274, 158.1886
536.1095, 158.9497
536.5916, 159.2478
537.0737, 158.8058
537.5558, 158.3344
538.0380, 158.4784
538.5201, 159.4389
539.0022, 159.4626
539.4843, 158.1629
539.9664, 156.5743
540.4485, 156.3834
540.9307, 157.4322
541.4128, 158.4425
541.8949, 159.0781
542.3770, 159.3415
542.8591, 159.1055
543.3412, 158.4428
543.8234, 157.7345
544.3055, 157.0647
544.7876, 156.5453
545.2697, 156.2965
545.7518, 156.3333
546.2339, 156.5771
546.7161, 157.2431
547.1982, 157.9641
547.6803, 158.4244
548.1624, 158.1499
548.6445, 158.1279
549.1266, 158.8694
549.6088, 159.8996
550.0909, 160.2271
550.5730, 159.3415
551.0551, 158.5872
551.5372, 158.3728
552.0193, 158.6308
552.5015, 158.5905
552.9836, 158.0951
553.4657, 157.8548
553.9478, 158.5108
554.4299, 159.9611
554.9120, 161.2112
555.3942, 162.2149
555.8763, 162.8976
556.3584, 162.9061
556.8405, 162.5133
557.3226, 162.4177
557.8047, 162.8575
558.2869, 163.6283
558.7690, 164.8234
559.2511, 166.2183
559.7332, 167.2311
560.2154, 166.9543
560.6975, 166.7849
561.1796, 167.6828
561.6617, 169.7192
562.1439, 171.2718
562.6260, 171.7686
563.1081, 171.8707
563.5902, 171.9154
564.0723, 171.4891
564.5544, 171.9418
565.0366, 173.6041
565.5187, 175.8274
566.0008, 177.7795
566.4829, 179.4778
566.9650, 180.8631
567.4471, 181.8360
567.9293, 182.5696
568.4114, 183.2580
568.8935, 183.9428
569.3756, 185.2328
569.8577, 188.1606
570.3398, 191.6898
570.8220, 193.9641
571.3041, 194.9929
571.7862, 195.1991
572.2683, 194.2285
572.7504, 192.9375
573.2325, 192.2305
573.7147, 192.5426
574.1968, 192.7790
574.6789, 192.5802
575.1610, 192.0648
575.6431, 191.3804
576.1252, 189.9168
576.6074, 189.0766
577.0895, 189.4792
577.5716, 190.6657
578.0537, 190.8135
578.5358, 189.5367
579.0179, 188.1111
579.5001, 186.9634
579.9822, 186.0867
580.4643, 185.6406
580.9464, 185.6871
581.4285, 185.7312
581.9106, 185.2145
582.3928, 184.3353
582.8749, 183.7735
583.3570, 183.6441
583.8391, 183.6923
584.3212, 183.7763
584.8033, 183.8452
585.2855, 183.8099
585.7676, 183.4781
586.2497, 183.2070
586.7318, 183.2632
587.2139, 183.5275
587.6960, 183.6584
588.1782, 181.3120
588.6603, 183.3567
589.1424, 184.2333
589.6245, 184.0046
590.1066, 179.3603
590.5887, 180.4179
591.0709, 179.1903
591.5530, 177.8692
592.0351, 179.7292
592.5172, 175.7272
592.9993, 177.5368
593.4814, 177.0266
593.9636, 177.5779
594.4457, 175.8303
594.9278, 174.7927
595.4099, 176.0551
595.8920, 174.5882
596.3741, 174.9030
596.8563, 174.8264
597.3384, 174.3451
597.8205, 172.8264
598.3026, 171.4327
598.7847, 171.1473
599.2668, 171.8424
599.7490, 172.2258
600.2311, 171.6204
600.7132, 170.8380
601.1953, 170.2574
601.6774, 169.8704
602.1595, 169.7574
602.6417, 170.0667
603.1238, 170.4672
603.6059, 170.5674
604.0880, 170.2387
604.5701, 170.3997
605.0522, 171.2736
605.5344, 172.4419
606.0165, 173.3065
606.4986, 173.8597
606.9807, 173.9216
607.4628, 173.0423
607.9449, 172.0122
608.4271, 172.3047
608.9092, 173.5335
609.3913, 174.1652
609.8735, 172.6747
610.3556, 170.8225
610.8377, 169.7889
611.3198, 169.6876
611.8019, 169.7184
612.2841, 169.8091
612.7662, 169.8564
613.2483, 169.7666
613.7304, 169.3691
614.2125, 169.2503
614.6946, 169.5971
615.1768, 170.0148
615.6589, 170.0599
616.1410, 169.7175
616.6231, 169.0087
617.1052, 167.7516
617.5873, 164.4321
618.0695, 166.8132
618.5516, 168.0263
619.0337, 168.1342
619.5158, 163.8264
619.9979, 165.2205
620.4800, 164.3296
620.9622, 163.3449
621.4443, 165.5415
621.9264, 161.8760
622.4085, 164.0222
622.8906, 163.8484
623.3727, 164.7365
623.8549, 163.3253
624.3370, 162.6243
624.8191, 164.2233
625.3012, 164.5487
625.7833, 161.3425
626.2654, 160.9355
626.7476, 160.7268
627.2297, 160.4259
627.7118, 159.4246
628.1939, 157.6919
628.6760, 156.5451
629.1581, 156.3976
629.6403, 154.3529
630.1224, 156.6146
630.6045, 157.7083
631.0866, 157.6968
631.5687, 153.2696
632.0508, 154.5443
632.5330, 153.5338
633.0151, 152.4298
633.4972, 154.5070
633.9793, 150.7220
634.4614, 152.7488
634.9435, 152.4557
635.4257, 153.2242
635.9078, 151.6936
636.3899, 150.8732
636.8720, 152.3527
637.3541, 152.5587
637.8362, 151.1443
638.3184, 151.5242
638.8005, 151.3474
639.2826, 150.8206
639.7647, 150.0556
640.2468, 149.1096
640.7289, 148.4204
641.2111, 148.1450
641.6932, 148.0597
642.1753, 147.9084
642.6574, 147.7292
643.1395, 147.6157
643.6216, 147.9502
644.1038, 148.0466
644.5859, 147.2830
645.0680, 145.8713
645.5501, 142.6942
646.0322, 145.2091
646.5143, 146.5561
646.9965, 146.7977
647.4786, 142.6237
647.9607, 144.1516
648.4428, 143.3945
648.9249, 142.5436
649.4070, 144.8740
649.8892, 141.3423
650.3713, 143.6222
650.8534, 143.5823
651.3355, 144.6041
651.8176, 143.3267
652.2997, 142.9363
652.7819, 143.1982
653.2640, 143.6212
653.7461, 143.8425
654.2282, 143.2592
654.7103, 142.3800
655.1924, 141.9630
655.6746, 143.0300
656.1567, 143.6959
656.6388, 143.0445
657.1209, 141.6224
657.6030, 141.0272
658.0851, 141.9542
658.5673, 142.3399
659.0494, 138.8738
659.5316, 141.4872
660.0137, 142.9326
660.4958, 143.2728
660.9779, 139.1972
661.4600, 140.8236
661.9421, 140.1649
662.4243, 139.4126
662.9064, 141.8414
663.3885, 138.4082
663.8706, 140.7866
664.3527, 140.8452
664.8348, 141.9655
665.3170, 140.7866
665.7991, 140.3178
666.2812, 142.1490
666.7633, 142.7067
667.2454, 141.2631
667.7275, 142.4509
668.2097, 138.9373
668.6918, 139.5493
669.1739, 141.9412
669.6560, 140.6132
670.1381, 141.8430
670.6202, 142.0987
671.1024, 137.9274
671.5845, 141.4551
672.0666, 141.6532
672.5487, 138.4325
673.0308, 141.6964
673.5129, 138.9471
673.9951, 138.3441
674.4772, 139.3564
674.9593, 138.6848
675.4414, 140.6681
675.9235, 140.0938
676.4056, 139.8819
676.8878, 139.9450
677.3699, 139.1277
677.8520, 138.6867
678.3341, 138.8018
678.8162, 139.0309
679.2983, 139.1397
679.7805, 139.1219
680.2626, 139.0252
680.7447, 138.8139
681.2268, 138.7188
681.7089, 139.2409
682.1910, 140.0413
682.6732, 140.1230
683.1553, 139.2183
683.6374, 138.2154
684.1195, 137.6043
684.6016, 137.3912
685.0837, 137.6049
685.5659, 138.8248
686.0480, 139.6657
686.5301, 139.7041
687.0122, 139.1795
687.4943, 138.4597
687.9764, 137.1006
688.4586, 136.5180
688.9407, 137.2468
689.4228, 138.6945
689.9049, 139.1259
690.3870, 138.5186
690.8691, 138.2554
691.3513, 139.3395
691.8334, 140.7951
692.3155, 140.6996
692.7976, 139.3312
693.2797, 138.0195
693.7618, 137.4158
694.2440, 137.2310
694.7261, 137.4006
695.2082, 137.8962
695.6903, 138.2718
696.1724, 138.2941
696.6545, 136.1218
697.1367, 138.7806
697.6188, 140.2713
698.1009, 140.6568
698.5830, 136.6267
699.0651, 138.2984
699.5472, 137.6851
700.0294, 136.9781
700.5115, 139.4523
700.9936, 136.0644
701.4757, 138.4883
701.9578, 138.5921
702.4399, 139.7578
702.9221, 138.6243
703.4042, 138.2009
703.8863, 140.0774
704.3684, 140.6805
704.8505, 139.2823
705.3326, 140.5154
705.8148, 137.0472
706.2969, 137.7045
706.7790, 140.1418
707.2611, 138.8592
707.7432, 140.1344
708.2253, 140.4354
708.7075, 136.3094
709.1896, 139.8825
709.6718, 140.1259
710.1539, 136.9507
710.6360, 140.2599
711.1181, 137.5559
711.6002, 136.9983
712.0823, 138.0560
712.5645, 137.4298
713.0466, 139.4584
713.5287, 138.9294
714.0108, 138.1719
714.4929, 138.4117
714.9750, 135.8256
715.4572, 138.4820
715.9393, 137.5573
716.4214, 138.4127
716.9035, 139.6716
717.3856, 137.8411
717.8677, 139.2812
718.3499, 135.6494
718.8320, 136.2614
719.3141, 136.4165
719.7962, 139.2842
720.2783, 135.6771
720.7604, 136.1713
721.2426, 138.4117
721.7247, 138.2087
722.2068, 139.0273
722.6889, 136.8215
723.1710, 137.4569
723.6531, 137.3092
724.1353, 139.8676
724.6174, 140.2897
725.0995, 138.1352
725.5816, 135.9916
726.0637, 138.7449
726.5458, 136.8568
727.0280, 137.4727
727.5101, 135.5026
727.9922, 135.7653
728.4743, 135.9926
728.9564, 138.6217
729.4385, 137.8982
729.9207, 137.0107
730.4028, 137.2316
730.8849, 138.0102
731.3670, 138.5802
731.8491, 138.9715
732.3312, 138.8276
732.8134, 137.3665
733.2955, 135.5659
733.7776, 135.1216
734.2597, 136.5058
734.7418, 137.7987
735.2239, 138.6888
735.7061, 139.1565
736.1882, 139.0249
736.6703, 138.3575
737.1524, 137.6282
737.6345, 136.9048
738.1166, 136.3369
738.5988, 136.1191
739.0809, 136.1970
739.5630, 136.4142
740.0451, 136.8268
740.5272, 137.2465
741.0093, 137.6583
741.4915, 138.0261
741.9736, 138.1402
742.4557, 137.9203
742.9378, 137.5820
743.4199, 137.1142
743.9020, 136.5851
744.3842, 136.4373
744.8663, 136.6699
745.3484, 137.0307
745.8305, 136.1942
746.3126, 138.8359
746.7947, 140.3096
747.2769, 140.6780
747.7590, 136.6307
748.2411, 138.2854
748.7232, 137.6550
749.2053, 136.9309
749.6874, 139.3880
750.1696, 136.5531
750.6517, 136.9704
751.1338, 137.2995
751.6159, 137.0455
752.0980, 136.1558
752.5801, 136.0879
753.0623, 136.9356
753.5444, 137.8167
754.0265, 137.9112
754.5086, 137.5355
754.9907, 137.3178
755.4728, 137.3280
755.9550, 137.2665
756.4371, 136.7373
756.9192, 136.1898
757.4013, 136.0716
757.8835, 136.7978
758.3656, 136.9212
758.8477, 135.8580
759.3298, 134.7385
759.8120, 134.5734
760.2941, 135.5166
760.7762, 136.1214
761.2583, 136.3001
761.7404, 136.2271
762.2225, 135.9072
762.7047, 135.5115
763.1868, 135.4968
763.6689, 136.0320
764.1510, 136.5807
764.6331, 136.7606
765.1152, 136.7724
765.5974, 136.8371
766.0795, 137.2069
766.5616, 137.2822
767.0437, 136.9070
767.5258, 136.3336
768.0079, 135.7800
768.4901, 135.1993
768.9722, 132.9577
769.4543, 135.7300
769.9364, 137.4012
770.4185, 138.0269
770.9006, 134.6647
771.3828, 136.3079
771.8649, 135.8569
772.3470, 135.2598
772.8291, 137.4274
773.3112, 134.3213
773.7933, 136.3182
774.2755, 136.1899
774.7576, 136.9424
775.2397, 135.5884
775.7218, 134.8026
776.2039, 135.0627
776.6860, 136.3176
777.1682, 136.9473
777.6503, 136.4192
778.1324, 135.5204
778.6145, 135.7067
779.0966, 136.5295
779.5787, 136.7361
780.0609, 135.2765
780.5430, 133.9657
781.0251, 134.2500
781.5072, 135.3613
781.9893, 135.8975
782.4714, 134.8343
782.9536, 134.1922
783.4357, 134.3500
783.9178, 134.9531
784.3999, 135.2833
784.8820, 135.3251
785.3641, 135.3278
785.8463, 133.5800
786.3284, 135.9418
786.8105, 137.2653
787.2926, 137.6064
787.7747, 134.0224
788.2568, 135.5069
788.7390, 134.9601
789.2211, 134.3301
789.7032, 136.5278
790.1853, 133.5148
790.6674, 135.6677
791.1495, 135.4091
791.6317, 135.2326
792.1138, 134.9029
792.5959, 135.0163
793.0780, 135.5714
793.5601, 135.8641
794.0422, 135.5353
794.5244, 134.9988
795.0065, 134.8476
795.4886, 134.9503
795.9707, 134.9928
796.4528, 134.6518
796.9349, 134.4311
797.4171, 134.6950
797.8992, 135.2289
798.3813, 135.3930
798.8634, 134.8956
799.3455, 134.6834
799.8276, 135.1238
800.3098, 135.8180
800.7919, 135.5738
801.2740, 134.5200
801.7561, 133.9369
802.2382, 134.6609
802.7203, 135.6351
803.2025, 135.6394
803.6846, 135.0204
804.1667, 134.5717
804.6488, 134.8308
805.1309, 135.0234
805.6130, 134.8188
806.0952, 134.4094
806.5773, 134.1433
807.0594, 133.9444
807.5416, 134.2613
808.0237, 135.5204
808.5058, 136.9556
808.9879, 136.5086
809.4700, 134.6499
809.9521, 133.4427
810.4343, 134.2323
810.9164, 135.3315
811.3985, 135.4325
811.8806, 134.8890
812.3627, 134.4438
812.8448, 134.4738
813.3270, 134.3553
813.8091, 133.8115
814.2912, 133.1551
814.7733, 133.2304
815.2554, 134.1468
815.7375, 134.6077
816.2197, 134.1271
816.7018, 133.2700
817.1839, 132.8479
817.6660, 132.7955
818.1481, 132.9937
818.6302, 133.8167
819.1124, 134.3528
819.5945, 133.8584
820.0766, 132.8570
820.5587, 132.3862
821.0408, 132.8163
821.5229, 133.1784
822.0051, 133.3611
822.4872, 133.4088
822.9693, 133.4227
823.4514, 133.3910
823.9335, 133.1471
824.4156, 132.5092
824.8978, 131.9583
825.3799, 132.1406
825.8620, 132.7167
826.3441, 133.1303
826.8262, 133.1686
827.3083, 133.0757
827.7905, 132.8952
828.2726, 132.6117
828.7547, 132.1187
829.2368, 131.2790
829.7189, 130.8846
830.2010, 131.1221
830.6832, 131.6279
831.1653, 131.9686
831.6474, 132.1646
832.1295, 132.2788
832.6116, 132.3260
833.0938, 132.2936
833.5759, 132.0600
834.0580, 131.7968
834.5401, 131.6978
835.0222, 131.9665
835.5043, 132.1437
835.9865, 132.2061
836.4686, 132.2090
836.9507, 132.2448
837.4328, 132.3060
837.9149, 132.1196
838.3970, 131.6027
838.8792, 131.1715
839.3613, 131.4575
839.8434, 132.0053
840.3255, 132.1496
840.8076, 131.6626
841.2897, 131.2059
841.7719, 130.8859
842.2540, 130.7647
842.7361, 130.9045
843.2182, 131.3837
843.7003, 131.8320
844.1824, 132.2685
844.6646, 132.5869
845.1467, 132.6681
845.6288, 132.5580
846.1109, 132.2969
846.5930, 131.8860
847.0751, 131.6345
847.5573, 132.2098
848.0394, 132.6836
848.5215, 132.1338
849.0036, 130.1670
849.4857, 129.2131
849.9678, 129.7955
850.4500, 130.6204
850.9321, 130.9682
851.4142, 130.8960
851.8963, 131.1019
852.3784, 131.5776
852.8605, 131.9294
853.3427, 131.6717
853.8248, 131.2852
854.3069, 131.4178
854.7890, 132.0063
855.2711, 132.2261
855.7532, 131.2953
856.2354, 130.4932
856.7175, 130.3746
857.1996, 130.8096
857.6818, 130.7774
858.1639, 130.1918
858.6460, 127.8954
859.1281, 130.2427
859.6102, 131.5518
860.0923, 131.8784
860.5745, 128.2800
861.0566, 129.7500
861.5387, 129.1888
862.0208, 128.5443
862.5029, 130.7276
862.9850, 127.7001
863.4672, 129.8385
863.9493, 129.9148
864.4314, 130.9349
864.9135, 129.9113
865.3956, 129.5189
865.8777, 131.1709
866.3599, 131.6909
866.8420, 130.4321
867.3241, 131.5121
867.8062, 128.4132
868.2883, 128.9815
868.7704, 131.1319
869.2526, 129.9758
869.7347, 131.0932
870.2168, 131.3448
870.6989, 127.6612
871.1810, 130.8212
871.6631, 131.0216
872.1453, 128.1831
872.6274, 131.1086
873.1095, 129.2009
873.5916, 129.4420
874.0737, 129.6951
874.5558, 129.8783
875.0380, 129.8754
875.5201, 129.6150
876.0022, 129.3378
876.4843, 128.9366
876.9664, 128.6835
877.4485, 128.8703
877.9307, 129.6381
878.4128, 129.7537
878.8949, 129.1542
879.3770, 128.4222
879.8591, 128.0317
880.3412, 127.8321
880.8234, 127.5710
881.3055, 127.2349
881.7876, 126.9853
882.2697, 126.8785
882.7518, 126.8904
883.2339, 127.0523
883.7161, 127.3487
884.1982, 127.5836
884.6803, 127.7917
885.1624, 127.7778
885.6445, 127.2494
886.1266, 126.5428
886.6088, 126.5647
887.0909, 127.1566
887.5730, 127.6603
888.0551, 127.8514
888.5372, 127.7628
889.0193, 127.1726
889.5015, 126.3078
889.9836, 125.8888
890.4657, 126.0998
890.9478, 126.3375
891.4299, 126.5064
891.9120, 126.5996
892.3942, 126.5260
892.8763, 126.3493
893.3584, 126.3595
893.8405, 126.7318
894.3226, 127.0980
894.8047, 127.0826
895.2869, 126.9458
895.7690, 127.0143
896.2511, 127.6117
896.7332, 127.9539
897.2153, 127.8925
897.6974, 127.7991
898.1796, 127.9599
898.6617, 126.9349
899.1438, 129.2294
899.6259, 130.4857
900.1080, 130.7596
900.5901, 127.1084
901.0723, 128.5256
901.5544, 127.9116
902.0365, 127.2143
902.5186, 129.3448
903.0007, 126.2646
903.4828, 128.3502
903.9650, 128.3737
904.4471, 129.3411
904.9292, 128.2647
905.4113, 127.8195
905.8935, 129.4187
906.3756, 129.8860
906.8577, 128.5743
907.3398, 129.6016
907.8220, 126.4499
908.3041, 125.7320
908.7862, 128.2173
909.2683, 129.6643
909.7504, 130.1289
910.2325, 126.6685
910.7147, 128.2765
911.1968, 127.8532
911.6789, 127.3467
912.1610, 129.6680
912.6431, 126.7785
913.1252, 129.0549
913.6074, 129.2692
914.0895, 130.4272
914.5716, 129.5416
915.0537, 129.2872
915.5358, 131.0772
916.0179, 131.7352
916.5001, 130.6143
916.9822, 131.8324
917.4643, 128.8714
917.9464, 129.5777
918.4285, 131.8660
918.9106, 130.8479
919.3928, 132.1034
919.8749, 132.4929
920.3570, 128.9473
920.8391, 132.2453
921.3212, 132.5836
921.8033, 129.8831
922.2855, 132.9466
922.7676, 130.6650
923.2497, 130.2913
923.7318, 131.3534
924.2139, 130.9187
924.6960, 132.8438
925.1782, 132.4956
925.6603, 131.9442
926.1424, 132.2792
926.6245, 130.1024
927.1066, 132.5856
927.5887, 131.8856
928.0709, 132.7679
928.5530, 134.0089
929.0351, 132.5037
929.5172, 133.9058
929.9993, 130.7994
930.4814, 131.4654
930.9636, 131.7252
931.4457, 134.3962
931.9278, 131.3118
932.4099, 131.8730
932.8920, 133.9864
933.3741, 133.9279
933.8563, 134.7775
934.3384, 132.9387
934.8205, 133.6255
935.3026, 133.6161
935.7847, 136.0122
936.2668, 136.5093
936.7490, 134.7162
937.2311, 132.9327
937.7132, 135.1069
938.1953, 135.7406
938.6774, 136.3836
939.1595, 137.0280
939.6417, 137.8909
940.1238, 138.4668
940.6059, 138.5129
941.0880, 138.2292
941.5701, 138.2426
942.0522, 138.5446
942.5344, 138.7314
943.0165, 138.6401
943.4986, 138.4737
943.9807, 138.4742
944.4628, 138.5394
944.9449, 138.5004
945.4271, 137.9524
945.9092, 137.9484
946.3913, 138.7599
946.8734, 139.8611
947.3555, 140.9431
947.8376, 141.9660
948.3198, 142.0407
948.8019, 141.0811
949.2840, 140.3196
949.7661, 141.0905
950.2482, 142.2987
950.7303, 142.9703
951.2125, 143.0364
951.6946, 143.0411
952.1767, 141.6899
952.6588, 144.4024
953.1409, 146.0767
953.6230, 146.7684
954.1052, 143.5353
954.5873, 145.3704
955.0695, 145.1745
955.5516, 144.8952
956.0337, 147.4437
956.5158, 144.7814
956.9979, 147.2850
957.4800, 147.7265
957.9622, 149.1119
958.4443, 148.4534
958.9264, 148.4263
959.4085, 150.4435
959.8906, 151.3287
960.3727, 150.4350
960.8549, 151.8804
961.3370, 149.1467
961.8191, 148.6957
962.3012, 151.1685
962.7833, 152.6030
963.2654, 153.0550
963.7476, 149.5821
964.2297, 151.1775
964.7118, 150.7417
965.1939, 150.2226
965.6760, 152.5314
966.1581, 149.6293
966.6403, 151.8932
967.1224, 152.0949
967.6045, 153.2404
968.0866, 152.3422
968.5687, 152.0753
969.0508, 153.8527
969.5330, 154.4982
970.0151, 153.3647
970.4972, 152.7850
970.9793, 153.3964
971.4614, 153.5075
971.9435, 153.2986
972.4257, 152.7370
972.9078, 152.0819
973.3899, 151.6155
973.8720, 151.3633
974.3541, 151.6742
974.8362, 153.0504
975.3184, 154.6777
975.8005, 156.4279
976.2826, 158.1579
976.7647, 158.4624
977.2468, 157.3594
977.7289, 156.3952
978.2111, 156.3620
978.6932, 156.7221
979.1753, 156.8907
979.6574, 157.0260
980.1395, 157.4257
980.6216, 158.6313
981.1038, 159.4450
981.5859, 159.7559
982.0680, 159.7133
982.5501, 159.2976
983.0322, 158.6120
983.5143, 158.4240
983.9965, 158.8112
984.4786, 159.3635
984.9607, 159.8957
985.4428, 160.3717
985.9249, 160.7206
986.4070, 160.9355
986.8892, 161.2773
987.3713, 161.7679
987.8534, 162.3180
988.3355, 162.9350
988.8176, 163.5424
989.2997, 164.0057
989.7819, 164.3154
990.2640, 164.3595
990.7461, 163.2913
991.2282, 166.3546
991.7103, 168.3796
992.1924, 169.4221
992.6746, 166.5399
993.1567, 168.7257
993.6388, 168.8805
994.1209, 168.9520
994.6030, 171.8513
995.0851, 169.5397
995.5673, 172.3943
996.0494, 169.9236
996.5315, 170.3999
997.0136, 170.7953
997.4957, 171.0923
997.9778, 168.8944
998.4600, 170.2604
998.9421, 171.1344
999.4242, 171.5431
999.9063, 170.0926
1000.388, 171.0426
1000.871, 171.0312
1001.353, 170.9798
1001.835, 172.2679
1002.317, 171.0878
1002.799, 172.3546
1003.281, 174.7032
1003.763, 175.0053
1004.245, 174.0658
1004.728, 173.1172
1005.210, 173.2782
1005.692, 174.1683
1006.174, 174.6501
1006.656, 174.7370
1007.138, 174.6929
1007.620, 174.5732
1008.102, 174.4481
1008.584, 174.3115
1009.067, 174.2020
1009.549, 174.1135
1010.031, 171.5190
1010.513, 174.5838
1010.995, 176.3137
1011.477, 176.7804
1011.959, 172.2007
1012.441, 174.1375
1012.924, 173.4628
1013.406, 172.6809
1013.888, 175.5348
1014.370, 171.6891
1014.852, 174.4854
1015.334, 174.6303
1015.816, 175.9886
1016.298, 174.7194
1016.780, 174.2617
1017.263, 176.4325
1017.745, 173.3213
1018.227, 172.4411
1018.709, 172.4522
1019.191, 172.9174
1019.673, 172.9526
1020.155, 172.3291
1020.637, 171.8186
1021.120, 171.4482
1021.602, 171.3116
1022.084, 171.5386
1022.566, 172.0643
1023.048, 172.9601
1023.530, 174.2194
1024.012, 174.9979
1024.494, 174.4536
1024.976, 173.8700
1025.458, 173.6569
1025.941, 173.8291
1026.423, 174.6359
1026.905, 176.0308
1027.387, 177.0349
1027.869, 177.0377
1028.351, 177.0787
1028.833, 178.4836
1029.316, 180.3367
1029.798, 181.4354
1030.280, 181.0994
1030.762, 181.1808
1031.244, 181.7887
1031.726, 182.5339
1032.208, 183.0723
1032.690, 183.5408
1033.172, 184.4339
1033.655, 185.6526
1034.137, 186.6258
1034.619, 186.9275
1035.101, 187.0794
1035.583, 187.2398
1036.065, 187.3983
1036.547, 187.4217
1037.029, 186.3824
1037.511, 189.7405
1037.994, 191.7644
1038.476, 192.5245
1038.958, 188.2382
1039.440, 190.4683
1039.922, 190.0870
1040.404, 189.5985
1040.886, 192.7458
1041.368, 189.1935
1041.851, 192.2837
1042.333, 192.7220
1042.815, 194.3737
1043.297, 193.3979
1043.779, 193.2336
1044.261, 195.6978
1044.743, 192.1445
1045.225, 192.2359
1045.708, 191.3388
1046.190, 190.5436
1046.672, 191.1085
1047.154, 193.2550
1047.636, 194.2224
1048.118, 193.9102
1048.600, 193.4259
1049.082, 193.5735
1049.564, 193.9997
1050.047, 194.5565
1050.529, 195.1305
1051.011, 195.1749
1051.493, 194.2433
1051.975, 193.7042
1052.457, 193.9023
1052.939, 194.3830
1053.421, 194.5239
1053.903, 194.3825
1054.386, 194.0718
1054.868, 193.6028
1055.350, 193.0598
1055.832, 192.2813
1056.314, 191.6585
1056.796, 191.5129
1057.278, 191.7357
1057.760, 191.3678
1058.243, 190.4337
1058.725, 189.5183
1059.207, 188.7817
1059.689, 188.3075
1060.171, 188.5174
1060.653, 188.8903
1061.135, 188.6087
1061.617, 187.0272
1062.099, 186.1536
1062.582, 186.1595
1063.064, 186.3233
1063.546, 186.1331
1064.028, 185.6515
1064.510, 184.9657
1064.992, 184.0945
1065.474, 183.1084
1065.956, 181.5803
1066.438, 180.5558
1066.921, 180.5340
1067.403, 180.8911
1067.885, 180.4602
1068.367, 179.3463
1068.849, 178.5812
1069.331, 178.3287
1069.813, 178.1956
1070.295, 177.8721
1070.778, 177.5612
1071.260, 177.5962
1071.742, 177.9164
1072.224, 177.4333
1072.706, 176.0056
1073.188, 174.5982
1073.670, 173.4736
1074.152, 172.6653
1074.635, 172.3574
1075.117, 172.3339
1075.599, 172.2514
1076.081, 172.0387
1076.563, 171.7245
1077.045, 171.2904
1077.527, 170.8062
1078.009, 170.2288
1078.491, 169.6499
1078.974, 169.6302
1079.456, 170.0107
1079.938, 169.9978
1080.420, 167.9437
1080.902, 162.8162
1081.384, 165.9782
1081.866, 167.8052
1082.348, 168.3692
1082.831, 163.8869
1083.313, 165.9207
1083.795, 165.3432
1084.277, 164.6585
1084.759, 167.6095
1085.241, 163.8610
1085.723, 166.7544
1086.205, 166.9964
1086.688, 168.1702
1087.170, 167.5576
1087.652, 167.1968
1088.134, 167.3835
1088.616, 167.6870
1089.098, 167.2948
1089.580, 166.6563
1090.062, 166.6050
1090.544, 167.4497
1091.026, 167.9911
1091.509, 167.7660
1091.991, 162.2847
1092.473, 165.4252
1092.955, 167.2308
1093.437, 167.7732
1093.919, 163.2692
1094.401, 165.2817
1094.883, 164.6826
1095.366, 163.9767
1095.848, 166.9063
1096.330, 163.1362
1096.812, 166.0082
1097.294, 166.2288
1097.776, 167.6628
1098.258, 169.1784
1098.740, 169.5733
1099.223, 169.0176
1099.705, 168.6898
1100.187, 170.0938
1100.669, 172.4358
1101.151, 173.4910
1101.633, 172.4959
1102.115, 169.5028
1102.597, 172.9657
1103.079, 175.0937
1103.562, 175.9594
1104.044, 171.7777
1104.526, 174.1126
1105.008, 173.8360
1105.490, 173.4522
1105.972, 176.7043
1106.454, 173.2566
1106.936, 176.4510
1107.418, 176.9939
1107.901, 178.7513
1108.383, 177.8802
1108.865, 177.8205
1109.347, 180.3895
1109.829, 181.5029
1110.311, 180.3293
1110.793, 182.1628
1111.275, 178.6235
1111.758, 179.7999
1112.240, 183.0095
1112.722, 181.9680
1113.204, 183.8496
1113.686, 184.6180
1114.168, 180.3268
1114.650, 184.8346
1115.132, 185.5371
1115.615, 182.3334
1116.097, 186.5397
1116.579, 183.8737
1117.061, 183.6608
1117.543, 182.7192
1118.025, 181.6773
1118.507, 181.0850
1118.989, 180.2395
1119.471, 179.1948
1119.953, 178.0618
1120.436, 176.6430
1120.918, 175.7415
1121.400, 175.5732
1121.882, 175.3340
1122.364, 174.0309
1122.846, 172.2525
1123.328, 171.0305
1123.810, 170.3154
1124.293, 169.5294
1124.775, 168.3670
1125.257, 167.2456
1125.739, 166.1862
1126.221, 165.2911
1126.703, 164.8739
1127.185, 164.7418
1127.667, 164.3005
1128.150, 163.4662
1128.632, 160.0623
1129.114, 162.2966
1129.596, 163.1962
1130.078, 162.8325
1130.560, 157.4223
1131.042, 158.5288
1131.524, 157.0235
1132.006, 155.4114
1132.489, 157.4332
1132.971, 152.7572
1133.453, 154.7229
1133.935, 154.0374
1134.417, 154.5654
1134.899, 152.4657
1135.381, 151.1777
1135.863, 152.5180
1136.346, 152.4015
1136.828, 149.9992
1137.310, 150.6042
1137.792, 145.8365
1138.274, 145.7833
1138.756, 147.7647
1139.238, 145.4946
1139.720, 146.1478
1140.203, 145.6859
1140.685, 140.1662
1141.167, 143.4456
1141.649, 142.9195
1142.131, 138.4865
1142.613, 141.4642
1143.095, 137.5699
1143.577, 136.1283
1144.059, 136.7600
1144.542, 137.0967
1145.024, 137.5797
1145.506, 137.4881
1145.988, 137.0801
1146.470, 136.8474
1146.952, 136.7262
1147.434, 136.3712
1147.916, 135.0777
1148.398, 134.4877
1148.881, 135.1249
1149.363, 135.9467
1149.845, 135.3825
1150.327, 133.9934
1150.809, 133.1512
1151.291, 132.9633
1151.773, 132.9666
1152.255, 133.0896
1152.738, 133.2463
1153.220, 133.5318
1153.702, 133.7164
1154.184, 133.1356
1154.666, 132.0414
1155.148, 131.5812
1155.630, 132.0099
1156.112, 132.1801
1156.594, 130.8681
1157.077, 129.8052
1157.559, 130.0498
1158.041, 131.1013
1158.523, 131.0515
1159.005, 130.0513
1159.487, 129.2565
1159.969, 128.9818
1160.451, 128.9594
1160.933, 129.3856
1161.416, 129.6530
1161.898, 129.0690
1162.380, 127.8067
1162.862, 128.0655
1163.344, 129.7680
1163.826, 130.7846
1164.308, 129.9753
1164.790, 128.8286
1165.273, 128.4015
1165.755, 128.3274
1166.237, 128.2285
1166.719, 128.0923
1167.201, 127.8580
1167.683, 127.5151
1168.165, 127.1875
1168.647, 126.8699
1169.130, 126.6699
1169.612, 126.8082
1170.094, 127.0813
1170.576, 127.1523
1171.058, 126.8871
1171.540, 126.8647
1172.022, 127.1150
1172.504, 127.3935
1172.986, 127.5382
1173.469, 127.6194
1173.951, 127.8445
1174.433, 127.5212
1174.915, 127.7773
1175.397, 126.7739
1175.879, 125.9724
1176.361, 125.4260
1176.843, 125.0170
1177.326, 124.5818
1177.808, 124.2568
1178.290, 124.3360
1178.772, 124.6935
1179.254, 124.8046
1179.736, 124.4852
1180.218, 124.2235
1180.700, 124.0824
1181.182, 123.9574
1181.665, 123.8775
1182.147, 123.6595
1182.629, 122.7743
1183.111, 121.3748
1183.593, 120.6985
1184.075, 120.5530
1184.557, 121.4514
1185.039, 121.9048
1185.521, 121.9371
1186.004, 120.2871
1186.486, 120.8095
1186.968, 120.4614
1187.450, 120.0776
1187.932, 120.9056
1188.414, 119.5005
1188.896, 120.3094
1189.378, 120.2345
1189.861, 120.5638
1190.343, 120.0175
1190.825, 119.7417
1191.307, 120.3421
1191.789, 120.4574
1192.271, 119.8102
1192.753, 120.1655
1193.235, 118.7298
1193.718, 118.8655
1194.200, 119.6795
1194.682, 119.0764
1195.164, 119.4477
1195.646, 119.4479
1196.128, 117.7616
1196.610, 119.0083
1197.092, 118.9865
1197.574, 117.6624
1198.057, 118.8084
1198.539, 117.6638
1199.021, 117.3369
1199.503, 117.6253
1199.985, 117.2723
1200.467, 117.9306
1200.949, 117.6146
1201.431, 117.2115
1201.913, 117.1884
1202.396, 116.0885
1202.878, 116.9860
1203.360, 116.5192
1203.842, 116.7306
1204.324, 117.0957
1204.806, 116.2839
1205.288, 116.8909
1205.770, 116.7365
1206.253, 116.6596
1206.735, 117.2881
1207.217, 118.1821
1207.699, 117.8654
1208.181, 116.7772
1208.663, 116.0929
1209.145, 116.4589
1209.627, 116.8049
1210.109, 117.0938
1210.592, 117.1090
1211.074, 116.4491
1211.556, 115.4951
1212.038, 115.6102
1212.520, 116.4497
1213.002, 117.0373
1213.484, 116.7602
1213.966, 116.6532
1214.448, 117.0233
1214.931, 117.2501
1215.413, 116.5319
1215.895, 115.3889
1216.377, 115.5647
1216.859, 116.6158
1217.341, 117.1246
1217.823, 115.9035
1218.305, 115.0641
1218.788, 114.7885
1219.270, 114.9715
1219.752, 115.9453
1220.234, 117.1628
1220.716, 116.9078
1221.198, 115.6127
1221.680, 114.8390
1222.162, 115.8062
1222.645, 116.3336
1223.127, 116.1672
1223.609, 115.6766
1224.091, 113.8810
1224.573, 114.9022
1225.055, 115.4784
1225.537, 115.6335
1226.019, 114.1066
1226.501, 114.7517
1226.984, 114.5264
1227.466, 114.2654
1227.948, 115.2163
1228.430, 113.9340
1228.912, 114.8656
1229.394, 114.9135
1229.876, 115.3659
1230.358, 114.9424
1230.841, 114.7894
1231.323, 115.5126
1231.805, 115.7507
1232.287, 115.2263
1232.769, 115.7044
1233.251, 114.3915
1233.733, 114.6502
1234.215, 115.5870
1234.698, 115.1068
1235.180, 115.6008
1235.662, 115.7238
1236.144, 114.1603
1236.626, 115.5298
1237.108, 115.6309
1237.590, 114.4296
1238.072, 115.6986
1238.554, 114.6768
1239.036, 114.4727
1239.519, 114.8839
1240.001, 114.6537
1240.483, 115.4348
1240.965, 115.2416
1241.447, 114.9614
1241.929, 115.0610
1242.411, 114.0842
1242.893, 115.1044
1243.376, 114.7605
1243.858, 115.0947
1244.340, 115.5826
1244.822, 114.8935
1245.304, 115.4505
1245.786, 114.0752
1246.268, 114.3167
1246.750, 114.3841
1247.233, 115.4849
1247.715, 114.1191
1248.197, 114.3156
1248.679, 115.1775
1249.161, 115.1084
1249.643, 115.4286
1250.125, 114.5966
1250.607, 114.8470
1251.089, 114.7990
1251.572, 115.7820
1252.054, 115.9511
1252.536, 115.1387
1253.018, 114.3304
1253.500, 115.3876
1253.982, 114.6766
1254.464, 114.9196
1254.946, 114.1774
1255.428, 114.2858
1255.911, 114.3807
1256.393, 114.9116
1256.875, 114.1204
1257.357, 115.0442
1257.839, 114.9768
1258.321, 115.2014
1258.803, 115.3934
1259.285, 114.2553
1259.768, 114.2077
1260.250, 115.7203
1260.732, 114.8534
1261.214, 114.4668
1261.696, 114.4216
1262.178, 115.9876
1262.660, 116.0560
1263.142, 114.3342
1263.625, 115.8293
1264.107, 115.3453
1264.589, 115.4494
1265.071, 115.3390
1265.553, 115.2920
1266.035, 114.4372
1266.517, 114.6470
1266.999, 115.7225
1267.481, 115.3221
1267.964, 115.9247
1268.446, 114.6995
1268.928, 114.4125
1269.410, 114.7318
1269.892, 115.1908
1270.374, 115.2605
1270.856, 114.9248
1271.338, 114.6725
1271.820, 114.5427
1272.303, 114.5724
1272.785, 114.8105
1273.267, 115.0516
1273.749, 115.0396
1274.231, 114.9013
1274.713, 114.7169
1275.195, 114.5271
1275.677, 114.5292
1276.160, 114.7694
1276.642, 114.9730
1277.124, 115.0995
1277.606, 115.1249
1278.088, 114.9658
1278.570, 114.7480
1279.052, 114.5458
1279.534, 114.3769
1280.016, 114.2474
1280.499, 114.1556
1280.981, 114.3503
1281.463, 114.8890
1281.945, 115.1606
1282.427, 114.2871
1282.909, 113.4921
1283.391, 113.5670
1283.873, 114.1133
1284.356, 114.5496
1284.838, 114.8388
1285.320, 114.5450
1285.802, 113.6656
1286.284, 112.5302
1286.766, 113.5783
1287.248, 114.1816
1287.730, 114.3637
1288.213, 112.8638
1288.695, 113.5360
1289.177, 113.3376
1289.659, 113.1036
1290.141, 114.0815
1290.623, 112.8262
1291.105, 113.7848
1291.587, 113.8597
1292.069, 114.3391
1292.552, 113.9426
1293.034, 113.8166
1293.516, 114.5668
1293.998, 114.8318
1294.480, 114.3345
1294.962, 114.8396
1295.444, 113.5537
1295.926, 113.6641
1296.408, 113.6560
1296.891, 113.7235
1297.373, 113.8970
1297.855, 114.0042
1298.337, 113.7849
1298.819, 113.3994
1299.301, 113.2703
1299.783, 113.4207
1300.265, 113.5896
1300.748, 113.7594
1301.230, 113.8770
1301.712, 114.0473
1302.194, 114.0124
1302.676, 113.6609
##END=



