##NAMES=Frondelite
##RRUFFID=R050622
##IDEAL CHEMISTRY=(Mn^2+^_0.5_Fe^3+^_0.5_)_2_Fe^3+^_3_(PO_4_)_3_(OH)_5_
##LOCALITY=Hagendorf, Bavaria, Germany
##OWNER=RRUFF
##SOURCE=University of Arizona Mineral Museum
##DESCRIPTION=Black bladed crystals in divergent radial aggregates
##STATUS=The identification of this mineral is confirmed by single-crystal X-ray diffraction and chemical analysis.
##URL=rruff.info/R050622
##MEASURED CHEMISTRY=(Mn^2+^_0.63_Fe^2+^_0.37_)_Î£=1_Fe^3+^_4.00_(P_1.00_O_4_)_3_(OH)_5_
92.06543, 89.17879
92.54755, 88.47086
93.02966, 88.72820
93.51178, 89.87115
93.99390, 90.41838
94.47601, 90.17992
94.95813, 89.44534
95.44025, 88.70418
95.92236, 88.38728
96.40448, 88.52432
96.88660, 88.12736
97.36871, 86.89806
97.85082, 85.55751
98.33294, 84.60590
98.81506, 84.05887
99.29717, 83.49706
99.77929, 82.82335
100.2614, 82.07432
100.7435, 81.43787
101.2256, 80.96879
101.7078, 80.61898
102.1899, 80.30155
102.6720, 79.98040
103.1541, 79.70444
103.6362, 79.57438
104.1183, 79.58179
104.6005, 79.46745
105.0826, 78.88271
105.5647, 77.72324
106.0468, 76.87486
106.5289, 76.72446
107.0110, 76.78230
107.4931, 76.82355
107.9753, 76.77810
108.4574, 76.63858
108.9395, 76.37557
109.4216, 75.85213
109.9037, 75.40982
110.3858, 75.09675
110.8680, 74.86499
111.3501, 74.65987
111.8322, 74.44884
112.3143, 74.24659
112.7964, 74.15469
113.2785, 74.33992
113.7607, 74.44897
114.2428, 74.35320
114.7249, 74.09962
115.2070, 73.81518
115.6891, 73.58274
116.1712, 73.40730
116.6534, 73.28033
117.1355, 73.27626
117.6176, 73.26649
118.0997, 73.10156
118.5818, 72.75765
119.0639, 72.45902
119.5461, 72.50571
120.0282, 72.78773
120.5103, 72.98087
120.9924, 72.91810
121.4745, 72.70208
121.9566, 72.58157
122.4388, 72.63782
122.9209, 72.69974
123.4030, 72.63223
123.8851, 72.46535
124.3672, 72.30350
124.8493, 72.26205
125.3315, 72.35625
125.8136, 72.34081
126.2957, 72.02744
126.7778, 71.72459
127.2599, 71.57063
127.7420, 71.57490
128.2242, 71.64616
128.7063, 71.67191
129.1884, 71.65735
129.6705, 71.57398
130.1526, 71.42928
130.6347, 71.22707
131.1169, 70.93783
131.5990, 70.55960
132.0811, 70.15788
132.5632, 69.87931
133.0453, 69.90336
133.5274, 69.83444
134.0096, 69.57142
134.4917, 69.22018
134.9738, 68.93682
135.4559, 68.79967
135.9380, 68.76366
136.4201, 68.67324
136.9023, 68.47513
137.3844, 68.30483
137.8665, 68.26530
138.3486, 68.32341
138.8307, 68.31269
139.3128, 68.07450
139.7950, 67.73602
140.2771, 67.60258
140.7592, 67.86457
141.2413, 68.15823
141.7234, 68.04088
142.2055, 67.42097
142.6877, 66.86517
143.1698, 66.77669
143.6519, 66.90926
144.1340, 66.99931
144.6161, 66.93288
145.0982, 66.76675
145.5803, 66.65450
146.0625, 66.64394
146.5446, 66.61002
147.0267, 66.46392
147.5088, 66.27315
147.9909, 66.15778
148.4730, 66.23727
148.9552, 66.49043
149.4373, 66.48911
149.9194, 65.79474
150.4015, 65.23489
150.8836, 65.11130
151.3657, 65.31548
151.8479, 65.55314
152.3300, 65.56371
152.8121, 65.31242
153.2942, 65.03101
153.7763, 64.62731
154.2584, 64.27450
154.7406, 64.07207
155.2227, 64.01926
155.7048, 64.03642
156.1869, 64.03824
156.6690, 64.01222
157.1511, 64.02699
157.6333, 64.13510
158.1154, 64.25391
158.5975, 64.33681
159.0796, 64.37650
159.5617, 64.32010
160.0438, 64.02480
160.5260, 63.47117
161.0081, 63.04690
161.4902, 62.88375
161.9723, 62.90199
162.4544, 62.99823
162.9365, 63.21618
163.4187, 63.36694
163.9008, 63.13749
164.3829, 62.54624
164.8650, 62.10276
165.3471, 62.23033
165.8292, 62.82916
166.3113, 63.23298
166.7935, 63.22013
167.2756, 63.03217
167.7577, 62.82647
168.2398, 62.61560
168.7219, 62.43593
169.2040, 62.35442
169.6862, 62.39759
170.1683, 62.35620
170.6504, 62.10911
171.1325, 61.82414
171.6146, 61.55991
172.0967, 61.33720
172.5789, 61.18225
173.0610, 61.16169
173.5431, 61.39146
174.0252, 61.48537
174.5073, 61.32673
174.9894, 61.10514
175.4716, 60.95195
175.9537, 60.91117
176.4358, 60.94433
176.9179, 60.97779
177.4000, 61.04795
177.8821, 61.06317
178.3643, 61.01627
178.8464, 60.92002
179.3285, 60.75720
179.8106, 60.52065
180.2927, 60.27070
180.7748, 60.17821
181.2570, 60.45440
181.7391, 60.62612
182.2212, 60.59724
182.7033, 60.44084
183.1854, 60.25227
183.6675, 60.06592
184.1497, 59.89506
184.6318, 59.78507
185.1139, 59.71741
185.5960, 59.71392
186.0781, 59.82774
186.5602, 60.01989
187.0423, 60.18211
187.5245, 60.26699
188.0066, 60.28102
188.4887, 60.25352
188.9708, 60.16256
189.4529, 60.06932
189.9350, 59.96866
190.4172, 59.87135
190.8993, 59.91324
191.3814, 60.32344
191.8635, 60.81109
192.3456, 60.94358
192.8277, 60.56200
193.3099, 60.05207
193.7920, 59.80291
194.2741, 59.84679
194.7562, 59.90943
195.2383, 59.89626
195.7204, 59.84098
196.2026, 59.76969
196.6847, 59.69257
197.1668, 59.59082
197.6489, 59.38268
198.1310, 58.95463
198.6131, 58.75965
199.0953, 59.09992
199.5774, 59.62744
200.0595, 60.07080
200.5416, 60.33584
201.0237, 60.43238
201.5058, 60.36531
201.9880, 60.05186
202.4701, 59.70949
202.9522, 59.29714
203.4343, 58.91473
203.9164, 58.67137
204.3985, 58.61764
204.8807, 58.70679
205.3628, 58.80401
205.8449, 58.93339
206.3270, 59.03632
206.8091, 59.05633
207.2912, 59.06397
207.7733, 59.18126
208.2555, 59.47462
208.7376, 59.84490
209.2197, 59.91998
209.7018, 59.26646
210.1839, 58.79317
210.6660, 58.70624
211.1482, 58.83107
211.6303, 58.92462
212.1124, 58.86174
212.5945, 58.68217
213.0766, 58.54392
213.5587, 58.34864
214.0409, 58.30004
214.5230, 58.59705
215.0051, 59.05571
215.4872, 59.32959
215.9693, 59.21893
216.4514, 58.84245
216.9336, 58.65602
217.4157, 58.70818
217.8978, 58.83075
218.3799, 59.09418
218.8620, 59.39953
219.3441, 59.46041
219.8263, 59.06211
220.3084, 58.41341
220.7905, 58.08806
221.2726, 58.20126
221.7547, 58.38493
222.2368, 58.48606
222.7190, 58.51434
223.2011, 58.51786
223.6832, 58.54742
224.1653, 58.52695
224.6474, 58.29552
225.1295, 57.71761
225.6117, 57.25043
226.0938, 57.29934
226.5759, 57.80120
227.0580, 58.22562
227.5401, 58.37524
228.0222, 58.34031
228.5043, 58.25024
228.9865, 58.10445
229.4686, 57.92981
229.9507, 57.69089
230.4328, 57.38947
230.9149, 57.26273
231.3970, 57.59943
231.8792, 57.98590
232.3613, 58.02473
232.8434, 57.64931
233.3255, 57.20999
233.8076, 57.07554
234.2897, 57.27642
234.7719, 57.42725
235.2540, 57.42916
235.7361, 57.35678
236.2182, 57.20370
236.7003, 56.97761
237.1824, 56.80385
237.6646, 56.87547
238.1467, 57.26405
238.6288, 57.49357
239.1109, 57.32419
239.5930, 57.09660
240.0751, 56.95594
240.5573, 56.93090
241.0394, 57.00172
241.5215, 57.19881
242.0036, 57.60166
242.4857, 57.80228
242.9678, 57.57521
243.4500, 57.30438
243.9321, 57.18363
244.4142, 57.22605
244.8963, 57.31724
245.3784, 57.32393
245.8605, 57.21510
246.3427, 57.13581
246.8248, 57.08440
247.3069, 57.06190
247.7890, 57.13350
248.2711, 57.26211
248.7532, 57.30363
249.2354, 57.06631
249.7175, 56.42744
250.1996, 56.04907
250.6817, 56.00563
251.1638, 56.11692
251.6459, 56.42173
252.1281, 56.84200
252.6102, 57.16768
253.0923, 57.17527
253.5744, 56.79418
254.0565, 56.52696
254.5386, 56.42865
255.0208, 56.36906
255.5029, 56.28699
255.9850, 56.18762
256.4671, 56.10681
256.9492, 56.06947
257.4313, 56.07139
257.9135, 56.17943
258.3956, 56.55923
258.8777, 56.86278
259.3598, 56.89744
259.8419, 56.71692
260.3240, 56.51338
260.8062, 56.43510
261.2883, 56.48093
261.7704, 56.45129
262.2525, 56.33845
262.7346, 56.17896
263.2167, 55.91399
263.6989, 55.60419
264.1810, 55.40878
264.6631, 55.44101
265.1452, 55.67485
265.6273, 55.87447
266.1094, 56.03883
266.5916, 56.17877
267.0737, 56.32518
267.5558, 56.45149
268.0379, 56.47939
268.5200, 56.34435
269.0021, 56.10173
269.4843, 55.98755
269.9664, 56.08136
270.4485, 56.17544
270.9306, 56.21629
271.4127, 56.21037
271.8948, 56.16004
272.3770, 56.05370
272.8591, 55.92622
273.3412, 55.87215
273.8233, 55.90489
274.3054, 55.95895
274.7875, 56.04712
275.2697, 56.13936
275.7518, 56.17194
276.2339, 56.11489
276.7160, 56.00944
277.1981, 55.93708
277.6802, 55.91073
278.1623, 55.85409
278.6444, 55.72458
279.1266, 55.55538
279.6087, 55.37333
280.0908, 55.16308
280.5729, 55.02599
281.0550, 55.19945
281.5371, 55.69259
282.0193, 56.01178
282.5014, 55.94792
282.9835, 55.66579
283.4656, 55.37378
283.9477, 55.09681
284.4298, 54.86420
284.9120, 54.70292
285.3941, 54.60931
285.8762, 54.61636
286.3583, 54.83326
286.8404, 55.10734
287.3225, 55.26174
287.8047, 55.27857
288.2868, 55.19056
288.7689, 54.90282
289.2510, 54.51379
289.7331, 54.37825
290.2152, 54.79663
290.6974, 55.34924
291.1795, 55.60683
291.6616, 55.55611
292.1437, 55.39436
292.6258, 55.17033
293.1079, 54.93417
293.5901, 54.79805
294.0722, 54.80569
294.5543, 54.88040
295.0364, 54.98316
295.5185, 55.11145
296.0006, 55.21396
296.4828, 55.27482
296.9649, 55.28527
297.4470, 55.22626
297.9291, 55.05053
298.4112, 54.91428
298.8933, 54.99744
299.3755, 55.25114
299.8576, 55.36694
300.3397, 55.19029
300.8218, 54.88014
301.3039, 54.65177
301.7860, 54.50945
302.2682, 54.41353
302.7503, 54.33931
303.2324, 54.29304
303.7145, 54.30982
304.1966, 54.43720
304.6787, 54.56132
305.1609, 54.55615
305.6430, 54.43579
306.1251, 54.29356
306.6072, 54.14974
307.0893, 54.01498
307.5714, 53.90057
308.0536, 53.79181
308.5357, 53.74951
309.0178, 53.85370
309.4999, 54.06694
309.9820, 54.30806
310.4641, 54.70423
310.9463, 55.05261
311.4284, 54.95619
311.9105, 54.32280
312.3926, 53.71700
312.8747, 53.53503
313.3568, 53.63116
313.8390, 53.77039
314.3211, 53.93980
314.8032, 54.10389
315.2853, 54.21434
315.7674, 54.26954
316.2495, 54.35214
316.7317, 54.59840
317.2138, 54.83126
317.6959, 54.74312
318.1780, 54.17225
318.6601, 53.64565
319.1422, 53.64125
319.6243, 54.08092
320.1064, 54.43003
320.5886, 54.53935
321.0707, 54.46160
321.5528, 54.23707
322.0349, 53.84837
322.5170, 53.53873
322.9991, 53.50916
323.4813, 53.66217
323.9634, 53.70645
324.4455, 53.55487
324.9276, 53.36224
325.4097, 53.28747
325.8918, 53.30946
326.3740, 53.34119
326.8561, 53.40784
327.3382, 53.44792
327.8203, 53.31187
328.3024, 52.94454
328.7845, 52.62879
329.2667, 52.59637
329.7488, 52.78158
330.2309, 53.04293
330.7130, 53.54492
331.1951, 53.97569
331.6772, 53.94907
332.1594, 53.47204
332.6415, 52.98188
333.1236, 52.66264
333.6057, 52.50743
334.0878, 52.46562
334.5699, 52.57719
335.0521, 52.72655
335.5342, 52.86399
336.0163, 52.98362
336.4984, 53.06430
336.9805, 53.09732
337.4626, 53.08708
337.9448, 53.01929
338.4269, 52.87527
338.9090, 52.79582
339.3911, 52.92638
339.8732, 53.14373
340.3553, 53.18951
340.8375, 52.98672
341.3196, 52.71681
341.8017, 52.56629
342.2838, 52.52504
342.7659, 52.53877
343.2480, 52.68074
343.7302, 52.82586
344.2123, 52.81621
344.6944, 52.64209
345.1765, 52.44492
345.6586, 52.30571
346.1407, 52.23549
346.6229, 52.23592
347.1050, 52.39479
347.5871, 52.54582
348.0692, 52.60161
348.5513, 52.56756
349.0334, 52.45479
349.5156, 52.24595
349.9977, 51.98755
350.4798, 51.81181
350.9619, 51.74792
351.4440, 51.68995
351.9261, 51.64452
352.4083, 51.57592
352.8904, 51.37240
353.3725, 50.97944
353.8546, 50.60217
354.3367, 50.57582
354.8188, 51.00795
355.3010, 51.33103
355.7831, 51.48380
356.2652, 51.51373
356.7473, 51.43774
357.2294, 51.26616
357.7115, 51.04049
358.1937, 50.76139
358.6758, 50.42773
359.1579, 50.33565
359.6400, 50.75150
360.1221, 51.12514
360.6042, 51.13897
361.0863, 50.88558
361.5685, 50.63414
362.0506, 50.53276
362.5327, 50.55140
363.0148, 50.57016
363.4969, 50.64294
363.9790, 50.64968
364.4612, 50.53588
364.9433, 50.36118
365.4254, 50.19949
365.9075, 50.07478
366.3896, 49.95824
366.8717, 49.79523
367.3539, 49.51008
367.8360, 49.36403
368.3181, 49.44132
368.8002, 49.58204
369.2823, 49.69915
369.7644, 49.77601
370.2466, 49.82189
370.7287, 49.84026
371.2108, 49.82789
371.6929, 49.84409
372.1750, 50.01205
372.6571, 50.07529
373.1393, 49.86349
373.6214, 49.50774
374.1035, 49.22911
374.5856, 49.15131
375.0677, 49.22724
375.5498, 49.31509
376.0320, 49.52266
376.5141, 49.56754
376.9962, 49.31640
377.4783, 48.97139
377.9604, 48.68847
378.4425, 48.51287
378.9247, 48.42100
379.4068, 48.39986
379.8889, 48.48748
380.3710, 48.51211
380.8531, 48.43623
381.3352, 48.33104
381.8174, 48.19690
382.2995, 48.05559
382.7816, 47.95982
383.2637, 47.97517
383.7458, 48.07117
384.2279, 48.02254
384.7101, 47.69672
385.1922, 47.42685
385.6743, 47.27863
386.1564, 47.24641
386.6385, 47.36149
387.1206, 47.66031
387.6028, 47.98194
388.0849, 48.04153
388.5670, 47.77708
389.0491, 47.54652
389.5312, 47.51026
390.0133, 47.47523
390.4955, 47.27047
390.9776, 46.89957
391.4597, 46.57304
391.9418, 46.47996
392.4239, 46.58367
392.9060, 46.68155
393.3882, 46.78617
393.8703, 46.83434
394.3524, 46.75546
394.8345, 46.59568
395.3166, 46.45140
395.7987, 46.36605
396.2809, 46.30810
396.7630, 46.22759
397.2451, 46.12057
397.7272, 46.04496
398.2093, 46.04207
398.6914, 46.07823
399.1736, 46.09502
399.6557, 46.08252
400.1378, 46.07744
400.6199, 46.14027
401.1020, 46.22828
401.5841, 46.20701
402.0662, 46.02083
402.5483, 45.79513
403.0305, 45.68531
403.5126, 45.68259
403.9947, 45.67085
404.4768, 45.65816
404.9589, 45.60868
405.4410, 45.45179
405.9232, 45.20062
406.4053, 44.99127
406.8874, 44.92740
407.3695, 44.97536
407.8516, 44.95264
408.3337, 44.77616
408.8159, 44.63558
409.2980, 44.65149
409.7801, 44.72637
410.2622, 44.68090
410.7443, 44.45000
411.2264, 44.15708
411.7086, 44.00149
412.1907, 44.05827
412.6728, 44.07710
413.1549, 43.99856
413.6370, 43.93021
414.1191, 43.94852
414.6013, 44.04967
415.0834, 44.20525
415.5655, 44.41931
416.0476, 44.67361
416.5297, 44.63303
417.0118, 43.80796
417.4940, 43.24527
417.9761, 43.31310
418.4582, 43.66901
418.9403, 43.88000
419.4224, 43.78220
419.9045, 43.53785
420.3867, 43.43281
420.8688, 43.52905
421.3509, 43.60273
421.8330, 43.65752
422.3151, 43.67846
422.7972, 43.64870
423.2794, 43.57471
423.7615, 43.48212
424.2436, 43.40188
424.7257, 43.32191
425.2078, 43.13847
425.6899, 42.73221
426.1721, 42.43664
426.6542, 42.41608
427.1363, 42.53816
427.6184, 42.65927
428.1005, 42.73919
428.5826, 42.78451
429.0648, 42.81930
429.5469, 42.84498
430.0290, 42.76603
430.5111, 42.47403
430.9932, 42.16864
431.4753, 42.02700
431.9575, 42.03503
432.4396, 42.07544
432.9217, 42.09908
433.4038, 42.11785
433.8859, 42.16204
434.3680, 42.23775
434.8502, 42.29285
435.3323, 42.29577
435.8144, 42.25059
436.2965, 42.17553
436.7786, 42.03371
437.2607, 41.91856
437.7429, 41.89206
438.2250, 41.92919
438.7071, 41.98500
439.1892, 42.05249
439.6713, 42.09937
440.1534, 42.07714
440.6356, 41.97308
441.1177, 41.84875
441.5998, 41.66450
442.0819, 41.49506
442.5640, 41.40758
443.0461, 41.39081
443.5282, 41.38173
444.0103, 41.33784
444.4925, 41.26757
444.9746, 41.21822
445.4567, 41.22155
445.9388, 41.20684
446.4209, 41.14282
446.9030, 41.06977
447.3852, 41.04109
447.8673, 41.06469
448.3494, 41.08509
448.8315, 41.01727
449.3136, 40.82512
449.7957, 40.72637
450.2779, 40.74654
450.7600, 40.83789
451.2421, 41.06776
451.7242, 41.34881
452.2063, 41.51866
452.6884, 41.47491
453.1706, 41.30510
453.6527, 41.22789
454.1348, 41.29466
454.6169, 41.29264
455.0990, 41.12221
455.5811, 40.89306
456.0633, 40.63581
456.5454, 40.36630
457.0275, 40.17942
457.5096, 40.19546
457.9917, 40.35543
458.4738, 40.46641
458.9560, 40.53963
459.4381, 40.49651
459.9202, 40.10541
460.4023, 39.58565
460.8844, 39.37544
461.3665, 39.70866
461.8487, 40.14085
462.3308, 40.30526
462.8129, 40.28507
463.2950, 40.43215
463.7771, 40.93744
464.2592, 41.43600
464.7414, 41.31626
465.2235, 40.46651
465.7056, 39.84351
466.1877, 39.61841
466.6698, 39.60417
467.1519, 39.73842
467.6341, 39.96807
468.1162, 40.15015
468.5983, 40.19464
469.0804, 40.11844
469.5625, 39.99599
470.0446, 39.65010
470.5268, 39.48728
471.0089, 39.73468
471.4910, 40.06581
471.9731, 40.13636
472.4552, 39.90493
472.9373, 39.62107
473.4195, 39.57542
473.9016, 39.79516
474.3837, 39.88074
474.8658, 39.68459
475.3479, 39.51037
475.8300, 39.46331
476.3122, 39.48372
476.7943, 39.46416
477.2764, 39.35115
477.7585, 39.24701
478.2406, 39.36422
478.7227, 39.74490
479.2049, 39.95698
479.6870, 39.84519
480.1691, 39.61372
480.6512, 39.39034
481.1333, 39.17993
481.6154, 38.98435
482.0976, 38.76933
482.5797, 38.58564
483.0618, 38.52131
483.5439, 38.57888
484.0260, 38.70198
484.5081, 38.93610
484.9902, 39.16569
485.4724, 39.11709
485.9545, 38.64880
486.4366, 38.33395
486.9187, 38.48303
487.4008, 38.84687
487.8829, 39.14413
488.3651, 39.31935
488.8472, 39.32497
489.3293, 39.07570
489.8114, 38.57352
490.2935, 38.30718
490.7756, 38.43166
491.2578, 38.56481
491.7399, 38.63894
492.2220, 38.64518
492.7041, 38.55507
493.1862, 38.36604
493.6683, 38.15057
494.1505, 38.01566
494.6326, 37.98029
495.1147, 37.95178
495.5968, 37.96843
496.0789, 37.95398
496.5610, 37.86816
497.0432, 37.73174
497.5253, 37.57136
498.0074, 37.38551
498.4895, 37.22988
498.9716, 37.26540
499.4537, 37.54895
499.9359, 37.65051
500.4180, 37.29272
500.9001, 36.87556
501.3822, 36.75663
501.8643, 36.91335
502.3464, 37.06297
502.8286, 37.02483
503.3107, 36.92126
503.7928, 36.97261
504.2749, 37.18519
504.7570, 37.33630
505.2391, 37.28893
505.7213, 37.11418
506.2034, 36.75188
506.6855, 37.10173
507.1676, 37.26153
507.6497, 37.24150
508.1318, 36.50299
508.6140, 36.69223
509.0961, 36.50968
509.5782, 36.31189
510.0603, 36.63171
510.5424, 35.99771
511.0245, 36.30933
511.5067, 36.24345
511.9888, 36.35036
512.4709, 36.08318
512.9530, 36.18089
513.4351, 36.26317
513.9172, 36.07332
514.3994, 35.84212
514.8815, 35.90104
515.3636, 36.29101
515.8457, 36.40898
516.3278, 36.03576
516.8099, 35.67670
517.2921, 35.57017
517.7742, 35.60106
518.2563, 35.58068
518.7384, 35.42800
519.2205, 35.27199
519.7026, 35.30104
520.1848, 35.48111
520.6669, 35.51972
521.1490, 35.28819
521.6311, 35.03856
522.1132, 35.09945
522.5953, 35.40159
523.0775, 35.55880
523.5596, 35.38855
524.0417, 35.15731
524.5238, 35.04755
525.0059, 35.03002
525.4880, 35.01245
525.9702, 34.95881
526.4523, 34.87897
526.9344, 34.78098
527.4165, 34.62570
527.8986, 34.56645
528.3807, 34.64209
528.8629, 34.76935
529.3450, 34.95562
529.8271, 35.15388
530.3092, 35.26928
530.7913, 35.24370
531.2734, 35.13065
531.7556, 35.06688
532.2377, 35.08792
532.7198, 35.05777
533.2019, 34.89608
533.6840, 34.72743
534.1661, 34.59468
534.6483, 34.51107
535.1304, 34.50250
535.6125, 34.61079
536.0946, 34.78558
536.5767, 34.98376
537.0588, 35.21387
537.5410, 35.27024
538.0231, 34.99734
538.5052, 34.57853
538.9873, 34.28231
539.4694, 34.10200
539.9515, 34.03692
540.4337, 34.19465
540.9158, 34.39480
541.3979, 34.46053
541.8800, 34.39201
542.3621, 34.25383
542.8442, 34.06556
543.3264, 33.87569
543.8085, 33.85239
544.2906, 34.21683
544.7726, 34.44241
545.2548, 34.42522
545.7369, 34.34375
546.2190, 34.32246
546.7011, 34.36518
547.1832, 34.41076
547.6653, 34.40878
548.1475, 34.37724
548.6296, 34.41076
549.1117, 34.58112
549.5938, 34.62743
550.0759, 34.31866
550.5580, 33.95709
551.0402, 33.75900
551.5223, 33.74186
552.0044, 33.80854
552.4865, 33.96344
552.9686, 34.14349
553.4507, 34.22449
553.9329, 34.20100
554.4150, 34.17236
554.8971, 34.19619
555.3792, 34.24432
555.8613, 34.24323
556.3434, 34.18359
556.8256, 34.11000
557.3077, 33.98063
557.7898, 33.87526
558.2719, 33.90280
558.7540, 34.03960
559.2361, 34.14521
559.7183, 34.11499
560.2004, 33.99107
560.6825, 33.95829
561.1646, 34.11730
561.6467, 34.19447
562.1288, 34.11259
562.6110, 33.99138
563.0931, 33.90406
563.5752, 33.85882
564.0573, 33.83651
564.5394, 33.83813
565.0215, 33.84563
565.5037, 33.80736
565.9858, 33.71686
566.4679, 33.62317
566.9500, 33.55331
567.4321, 33.48050
567.9142, 33.34258
568.3964, 33.12801
568.8785, 33.00940
569.3606, 33.09239
569.8427, 33.26601
570.3248, 33.46690
570.8069, 33.66528
571.2891, 33.75792
571.7712, 33.67352
572.2533, 33.49043
572.7354, 33.40634
573.2175, 33.51214
573.6996, 33.55765
574.1818, 33.47228
574.6639, 33.39291
575.1460, 33.40686
575.6281, 33.49859
576.1102, 33.60767
576.5923, 33.69910
577.0745, 33.78569
577.5566, 33.94078
578.0387, 34.21769
578.5208, 34.25355
579.0029, 33.73502
579.4850, 33.21010
579.9672, 33.14617
580.4493, 33.44667
580.9314, 33.68344
581.4135, 33.63102
581.8956, 33.50617
582.3777, 33.53340
582.8599, 33.67280
583.3420, 33.77160
583.8241, 33.77654
584.3062, 33.72979
584.7883, 33.68801
585.2704, 33.65738
585.7526, 33.59555
586.2347, 33.45029
586.7168, 33.33125
587.1989, 33.25806
587.6810, 33.25057
588.1631, 33.37873
588.6453, 33.65810
589.1274, 33.93116
589.6095, 33.94884
590.0916, 33.68019
590.5737, 33.10337
591.0558, 33.53437
591.5380, 33.77532
592.0201, 33.83644
592.5022, 33.17909
592.9843, 33.44949
593.4664, 33.34809
593.9485, 33.23145
594.4307, 33.63242
594.9128, 33.07958
595.3949, 33.47235
595.8770, 33.48764
596.3591, 33.67570
596.8412, 33.48966
597.3234, 33.41917
597.8055, 33.72289
598.2876, 33.81940
598.7697, 33.59030
599.2518, 33.78934
599.7339, 33.22343
600.2161, 33.32877
600.6982, 33.72373
601.1803, 33.51344
601.6624, 33.71931
602.1445, 33.76669
602.6266, 33.42804
603.1088, 33.31395
603.5909, 33.24233
604.0730, 33.34452
604.5551, 33.45822
605.0372, 33.45892
605.5193, 33.34891
606.0015, 33.21626
606.4836, 33.08442
606.9657, 32.96343
607.4478, 32.89003
607.9299, 32.84988
608.4120, 32.72578
608.8942, 32.43838
609.3763, 32.16097
609.8584, 32.18822
610.3405, 32.65836
610.8226, 32.92391
611.3047, 32.85472
611.7869, 32.72718
612.2690, 32.61970
612.7511, 32.55558
613.2332, 32.57508
613.7153, 32.69006
614.1974, 32.81745
614.6796, 32.83234
615.1617, 32.72794
615.6438, 32.65421
616.1259, 32.63269
616.6080, 32.61071
617.0901, 32.57234
617.5723, 32.51250
618.0544, 32.41000
618.5365, 32.24137
619.0186, 32.10426
619.5007, 32.02190
619.9828, 32.02013
620.4650, 32.21558
620.9471, 32.59242
621.4292, 32.84911
621.9113, 32.75665
622.3934, 32.42001
622.8755, 32.24559
623.3577, 32.43110
623.8398, 32.49733
624.3219, 32.37051
624.8040, 32.18349
625.2861, 32.00410
625.7682, 31.84302
626.2504, 31.68390
626.7325, 31.50537
627.2145, 31.35863
627.6967, 31.36267
628.1788, 31.52488
628.6609, 31.66839
629.1430, 31.76335
629.6251, 31.82429
630.1072, 31.83775
630.5894, 31.82219
631.0715, 31.85006
631.5536, 32.05686
632.0357, 32.17300
632.5178, 31.95487
632.9999, 31.59442
633.4821, 31.41740
633.9642, 31.48376
634.4463, 31.59138
634.9284, 31.53550
635.4105, 31.33553
635.8926, 31.28935
636.3748, 31.53916
636.8569, 31.71758
637.3390, 31.78796
637.8211, 31.75245
638.3032, 31.52893
638.7853, 31.16369
639.2675, 30.91927
639.7496, 31.07752
640.2317, 31.38391
640.7138, 31.38547
641.1959, 31.10848
641.6780, 30.90761
642.1602, 30.92109
642.6423, 31.01566
643.1244, 31.01884
643.6065, 30.91143
644.0886, 30.82247
644.5707, 30.69046
645.0529, 30.64456
645.5350, 30.82448
646.0171, 31.08837
646.4992, 31.24829
646.9813, 31.24917
647.4634, 31.14520
647.9456, 30.95813
648.4277, 30.70300
648.9098, 30.56359
649.3919, 30.55938
649.8740, 30.62485
650.3561, 30.82272
650.8383, 31.02227
651.3204, 31.03861
651.8025, 30.85053
652.2846, 30.73966
652.7667, 30.93160
653.2488, 31.15969
653.7310, 31.12242
654.2131, 30.88529
654.6952, 30.71258
655.1773, 30.71786
655.6594, 30.78326
656.1415, 30.70922
656.6237, 30.43943
657.1058, 30.29465
657.5879, 30.39774
658.0700, 30.49546
658.5521, 30.48520
659.0342, 30.44873
659.5164, 30.51352
659.9985, 30.70766
660.4806, 30.88248
660.9627, 30.91730
661.4448, 30.84409
661.9269, 30.68732
662.4091, 30.44783
662.8912, 30.35505
663.3733, 30.58377
663.8554, 30.92681
664.3375, 30.94553
664.8196, 30.44390
665.3018, 30.18879
665.7839, 30.35514
666.2660, 30.61158
666.7481, 30.90414
667.2302, 31.12855
667.7123, 31.07779
668.1945, 30.68530
668.6766, 30.24670
669.1587, 30.16927
669.6408, 30.42534
670.1229, 30.58430
670.6050, 30.61711
671.0872, 30.60434
671.5693, 30.57050
672.0514, 30.52084
672.5335, 30.47616
673.0156, 30.45045
673.4977, 30.36251
673.9799, 30.08710
674.4620, 29.82304
674.9441, 29.74438
675.4262, 29.82173
675.9083, 29.96704
676.3904, 30.14198
676.8726, 30.28982
677.3547, 30.31000
677.8368, 30.18282
678.3189, 30.04872
678.8010, 29.81352
679.2831, 29.71334
679.7653, 29.98728
680.2474, 30.36559
680.7295, 30.51601
681.2116, 30.37810
681.6937, 30.12690
682.1758, 29.70256
682.6580, 29.31238
683.1401, 29.29499
683.6222, 29.59403
684.1043, 29.86489
684.5864, 29.95344
685.0685, 29.90215
685.5507, 29.76028
686.0328, 29.45882
686.5149, 29.34364
686.9970, 29.65976
687.4791, 29.88808
687.9612, 29.77231
688.4434, 29.53369
688.9255, 29.48038
689.4076, 29.67867
689.8897, 29.86199
690.3718, 29.72508
690.8539, 29.46663
691.3361, 29.56633
691.8182, 30.01009
692.3003, 30.24988
692.7824, 30.00635
693.2645, 29.56282
693.7466, 29.37595
694.2288, 29.53208
694.7109, 29.59211
695.1930, 29.54255
695.6751, 29.42130
696.1572, 29.13255
696.6393, 28.83185
697.1215, 28.74954
697.6036, 28.91886
698.0857, 29.10724
698.5678, 29.04895
699.0499, 29.20978
699.5320, 28.93812
700.0142, 29.29915
700.4963, 29.53876
700.9784, 29.47873
701.4605, 29.28574
701.9426, 29.18243
702.4247, 29.18575
702.9069, 29.15012
703.3890, 28.97658
703.8711, 28.87579
704.3532, 28.99306
704.8353, 29.19580
705.3174, 29.32926
705.7996, 29.35982
706.2817, 29.33464
706.7638, 29.26930
707.2459, 29.19415
707.7280, 29.26727
708.2101, 29.52796
708.6923, 29.53001
709.1743, 29.00030
709.6564, 28.39005
710.1385, 28.20097
710.6207, 28.40223
711.1028, 28.62579
711.5849, 28.97960
712.0670, 29.19508
712.5491, 29.02640
713.0313, 28.74755
713.5134, 28.67975
713.9955, 28.85127
714.4776, 29.09684
714.9597, 29.31535
715.4418, 29.47808
715.9240, 29.49139
716.4061, 29.33945
716.8882, 29.16442
717.3703, 28.94003
717.8524, 28.78677
718.3345, 28.90646
718.8167, 29.19001
719.2988, 29.24488
719.7809, 28.84249
720.2630, 28.51052
720.7451, 28.49070
721.2272, 28.58298
721.7094, 28.57544
722.1915, 28.47764
722.6736, 28.43620
723.1557, 28.54452
723.6378, 28.72022
724.1199, 28.79074
724.6021, 28.74673
725.0842, 28.73466
725.5663, 28.82653
726.0484, 28.83039
726.5305, 28.50871
727.0126, 28.05344
727.4948, 27.88014
727.9769, 28.11028
728.4590, 28.30263
728.9411, 28.30685
729.4232, 28.23859
729.9053, 28.16452
730.3875, 28.10218
730.8696, 28.05490
731.3517, 28.02536
731.8338, 28.05543
732.3159, 28.25790
732.7980, 28.63172
733.2802, 28.81112
733.7623, 28.75532
734.2444, 28.61389
734.7265, 28.37046
735.2086, 28.13136
735.6907, 28.06369
736.1729, 28.18198
736.6550, 28.26349
737.1371, 28.18432
737.6192, 28.13718
738.1013, 28.31903
738.5834, 28.58012
739.0656, 28.65067
739.5477, 28.48364
740.0298, 28.27990
740.5119, 28.23432
740.9940, 28.30818
741.4761, 28.33758
741.9583, 28.31350
742.4404, 28.29670
742.9225, 28.31198
743.4046, 28.32644
743.8867, 28.29148
744.3688, 28.22073
744.8510, 28.19582
745.3331, 28.27747
745.8152, 28.33816
746.2973, 28.29431
746.7794, 28.23799
747.2615, 28.31667
747.7437, 28.48697
748.2258, 28.52669
748.7079, 28.27783
749.1900, 27.93256
749.6721, 27.87763
750.1542, 28.10713
750.6364, 28.24416
751.1185, 28.23903
751.6006, 28.15557
752.0827, 27.97739
752.5648, 27.76955
753.0469, 27.72370
753.5291, 27.92002
754.0112, 28.04822
754.4933, 28.03610
754.9754, 27.97711
755.4575, 27.86609
755.9396, 27.76876
756.4218, 27.81965
756.9039, 28.05338
757.3860, 28.28868
757.8681, 28.33618
758.3502, 28.22906
758.8323, 28.05481
759.3145, 27.80970
759.7966, 27.61228
760.2787, 27.49842
760.7608, 27.47150
761.2429, 27.56338
761.7250, 27.79405
762.2072, 27.90493
762.6893, 27.77477
763.1714, 27.69026
763.6535, 27.76511
764.1356, 27.88059
764.6177, 27.96173
765.0999, 27.98013
765.5820, 27.87456
766.0641, 27.52078
766.5462, 27.19427
767.0283, 27.37042
767.5104, 27.89461
767.9926, 28.15106
768.4747, 28.03290
768.9568, 27.86027
769.4389, 27.86199
769.9210, 27.97461
770.4031, 27.98593
770.8853, 27.81553
771.3674, 27.70080
771.8495, 27.59303
772.3316, 27.59064
772.8137, 27.89041
773.2958, 28.26427
773.7780, 28.31628
774.2601, 27.93907
774.7422, 27.60243
775.2243, 27.70159
775.7064, 27.94256
776.1885, 27.93762
776.6707, 27.73380
777.1528, 27.54068
777.6349, 27.43170
778.1170, 27.39285
778.5991, 27.41323
779.0812, 27.49034
779.5634, 27.58364
780.0455, 27.73264
780.5276, 27.80669
781.0097, 27.71239
781.4918, 27.58772
781.9739, 27.51622
782.4561, 27.50132
782.9382, 27.55993
783.4203, 27.82206
783.9024, 27.96940
784.3845, 27.75224
784.8666, 27.40078
785.3488, 27.12290
785.8309, 26.96954
786.3130, 27.01240
786.7951, 27.30406
787.2772, 27.65164
787.7593, 27.67911
788.2415, 27.39698
788.7236, 27.26788
789.2057, 27.34357
789.6878, 27.46488
790.1699, 27.57699
790.6520, 27.67162
791.1342, 27.73071
791.6162, 27.75089
792.0983, 27.75986
792.5804, 27.71670
793.0626, 27.71178
793.5447, 27.86450
794.0268, 28.02482
794.5089, 27.97941
794.9910, 27.73539
795.4731, 27.52777
795.9553, 27.54697
796.4374, 27.63787
796.9195, 27.50980
797.4016, 27.23325
797.8837, 27.16269
798.3658, 27.36919
798.8480, 27.58964
799.3301, 27.64212
799.8122, 27.55002
800.2943, 27.37808
800.7764, 27.03065
801.2585, 26.80784
801.7407, 26.80215
802.2228, 26.82720
802.7049, 26.77489
803.1870, 26.72940
803.6691, 26.85298
804.1512, 27.18295
804.6334, 27.43033
805.1155, 27.38155
805.5976, 27.24735
806.0797, 27.23885
806.5618, 27.29663
807.0439, 27.24940
807.5261, 27.06577
808.0082, 26.91146
808.4903, 26.95390
808.9724, 27.13606
809.4545, 27.22165
809.9366, 27.18208
810.4188, 27.26203
810.9009, 27.58234
811.3830, 27.87668
811.8651, 27.94636
812.3472, 27.83038
812.8293, 27.67436
813.3115, 27.43189
813.7936, 27.24955
814.2757, 27.16176
814.7578, 27.12676
815.2399, 27.14158
815.7220, 27.18451
816.2042, 27.23069
816.6863, 27.27150
817.1684, 27.29877
817.6505, 27.28633
818.1326, 27.26443
818.6147, 27.32156
819.0969, 27.43171
819.5790, 27.42939
820.0611, 27.26246
820.5432, 27.08581
821.0253, 27.05347
821.5074, 27.14075
821.9896, 27.18645
822.4717, 27.18683
822.9538, 27.15386
823.4359, 27.06755
823.9180, 26.97030
824.4001, 26.87263
824.8823, 26.78414
825.3644, 26.71380
825.8465, 26.64856
826.3286, 26.66218
826.8107, 26.90717
827.2928, 27.13022
827.7750, 27.05544
828.2571, 26.81819
828.7392, 26.71367
829.2213, 26.81634
829.7034, 26.94670
830.1855, 26.91263
830.6677, 27.00544
831.1498, 27.08747
831.6319, 27.06506
832.1140, 27.20829
832.5961, 27.21868
833.0782, 27.15054
833.5604, 27.02119
834.0425, 26.86060
834.5246, 26.79969
835.0067, 26.95664
835.4888, 27.01103
835.9709, 26.91078
836.4531, 26.77178
836.9352, 26.58793
837.4173, 26.42131
837.8994, 26.35570
838.3815, 26.40730
838.8636, 26.52832
839.3458, 26.73043
839.8279, 26.96008
840.3100, 27.25909
840.7921, 27.52262
841.2742, 27.50124
841.7563, 27.17798
842.2385, 26.80561
842.7206, 26.57642
843.2027, 26.47090
843.6848, 26.46754
844.1669, 26.56882
844.6490, 26.62987
845.1312, 26.61217
845.6133, 26.64159
846.0954, 26.85116
846.5775, 27.10321
847.0596, 27.07152
847.5417, 26.60355
848.0239, 26.32680
848.5060, 26.34551
848.9881, 26.41990
849.4702, 26.49109
849.9523, 26.56671
850.4344, 26.71117
850.9166, 26.89342
851.3987, 26.91708
851.8808, 26.57804
852.3629, 26.20688
852.8450, 26.05616
853.3271, 26.06473
853.8093, 26.19367
854.2914, 26.39451
854.7735, 26.52023
855.2556, 26.48713
855.7377, 26.36536
856.2198, 26.25989
856.7020, 26.17015
857.1841, 26.06440
857.6662, 25.91804
858.1483, 25.90548
858.6304, 26.14837
859.1125, 26.45015
859.5947, 26.57287
860.0768, 26.51498
860.5589, 26.48703
861.0410, 26.57761
861.5231, 26.57184
862.0052, 26.28134
862.4874, 26.03810
862.9695, 26.16363
863.4516, 26.49289
863.9337, 26.63210
864.4158, 26.45502
864.8979, 26.18778
865.3801, 25.85661
865.8622, 25.59368
866.3443, 25.60827
866.8264, 25.80125
867.3085, 25.92468
867.7906, 25.90969
868.2728, 25.85817
868.7549, 25.86142
869.2370, 25.90336
869.7191, 25.95116
870.2012, 26.00423
870.6833, 25.98202
871.1655, 25.84113
871.6476, 25.78681
872.1297, 26.00954
872.6118, 26.35465
873.0939, 26.41750
873.5760, 26.05906
874.0581, 25.83004
874.5402, 25.81874
875.0223, 25.83513
875.5045, 25.87120
875.9866, 25.88155
876.4687, 25.80059
876.9508, 25.63905
877.4329, 25.50712
877.9150, 25.47408
878.3972, 25.43682
878.8793, 25.27228
879.3614, 25.12201
879.8435, 25.19898
880.3256, 25.43884
880.8077, 25.60327
881.2899, 25.24881
881.7720, 25.66243
882.2541, 25.88600
882.7362, 25.92973
883.2183, 25.25499
883.7004, 25.50801
884.1826, 25.38922
884.6647, 25.25519
885.1468, 25.63878
885.6289, 25.06855
886.1110, 25.44393
886.5931, 25.44184
887.0753, 25.61250
887.5574, 25.40908
888.0395, 25.32120
888.5216, 25.60754
889.0037, 25.68667
889.4858, 25.44018
889.9680, 25.62183
890.4501, 25.03853
890.9322, 25.12649
891.4143, 25.50406
891.8964, 25.55721
892.3785, 25.52556
892.8607, 25.31828
893.3428, 25.18383
893.8249, 25.14906
894.3070, 25.15876
894.7891, 25.20417
895.2712, 25.23447
895.7534, 25.12681
896.2355, 25.01629
896.7176, 25.19652
897.1997, 25.58765
897.6818, 25.84321
898.1639, 25.82957
898.6461, 25.65651
899.1282, 25.41750
899.6103, 25.13826
900.0924, 24.91329
900.5745, 24.74140
901.0566, 24.68107
901.5388, 24.76655
902.0209, 24.87604
902.5030, 24.93378
902.9851, 24.93908
903.4672, 24.88210
903.9493, 24.71456
904.4315, 24.62034
904.9136, 24.63887
905.3957, 24.68080
905.8778, 24.70154
906.3599, 24.74434
906.8420, 24.88702
907.3242, 25.11056
907.8063, 25.25010
908.2884, 25.23672
908.7705, 25.17384
909.2526, 25.06089
909.7347, 24.94822
910.2169, 24.90707
910.6990, 24.89693
911.1811, 24.79514
911.6632, 24.56417
912.1453, 24.38373
912.6274, 24.42325
913.1096, 24.59133
913.5917, 24.81176
914.0738, 25.03846
914.5559, 25.12455
915.0380, 25.05320
915.5201, 24.96251
916.0023, 24.94879
916.4844, 24.98956
916.9665, 25.05555
917.4486, 25.14586
917.9307, 25.16311
918.4128, 25.09783
918.8950, 24.97890
919.3771, 24.79560
919.8592, 24.61222
920.3413, 24.50929
920.8234, 24.48483
921.3055, 24.47803
921.7877, 24.51612
922.2698, 24.52369
922.7519, 24.39595
923.2340, 24.33699
923.7161, 24.52172
924.1982, 24.82402
924.6804, 25.02242
925.1625, 25.08801
925.6446, 25.10016
926.1267, 25.07907
926.6088, 25.00695
927.0909, 24.78204
927.5731, 24.56436
928.0552, 24.55643
928.5373, 24.73331
929.0194, 24.92606
929.5015, 25.07754
929.9836, 25.14643
930.4658, 24.99281
930.9479, 24.80142
931.4300, 24.88650
931.9121, 25.17090
932.3942, 25.40403
932.8763, 25.49860
933.3585, 25.44747
933.8406, 25.19287
934.3227, 24.86594
934.8048, 24.85014
935.2869, 25.09954
935.7690, 25.15875
936.2512, 24.95628
936.7333, 24.81029
937.2154, 24.90815
937.6975, 25.10196
938.1796, 25.13326
938.6617, 24.99037
939.1439, 24.96108
939.6260, 25.09942
940.1081, 25.20288
940.5902, 25.21914
941.0723, 25.19818
941.5544, 25.15202
942.0366, 25.10214
942.5187, 25.13783
943.0008, 25.35607
943.4829, 25.42278
943.9650, 25.17005
944.4471, 24.95055
944.9293, 24.95498
945.4114, 25.01739
945.8935, 24.90839
946.3756, 24.66205
946.8577, 24.58428
947.3398, 24.90756
947.8220, 25.16683
948.3041, 25.05182
948.7862, 24.85120
949.2683, 24.80558
949.7504, 24.88490
950.2325, 25.00369
950.7147, 25.13038
951.1968, 25.22811
951.6789, 25.25384
952.1610, 25.25436
952.6431, 25.29243
953.1252, 25.34888
953.6074, 25.37146
954.0895, 25.36494
954.5716, 25.41086
955.0537, 25.55246
955.5358, 25.65744
956.0179, 25.50931
956.5000, 25.16979
956.9821, 24.86695
957.4642, 24.60791
957.9464, 24.67882
958.4285, 25.18494
958.9106, 25.54453
959.3927, 25.25813
959.8748, 24.64256
960.3569, 24.60254
960.8391, 25.30876
961.3212, 25.63070
961.8033, 25.46346
962.2854, 25.19184
962.7675, 24.84628
963.2496, 24.60065
963.7318, 24.70197
964.2139, 25.08346
964.6960, 25.23612
965.1781, 24.97791
965.6602, 24.78769
966.1423, 24.67045
966.6245, 24.62038
967.1066, 24.62606
967.5887, 24.70259
968.0708, 24.91053
968.5529, 25.24088
969.0350, 25.47916
969.5172, 25.58299
969.9993, 25.58510
970.4814, 25.43039
970.9635, 25.23745
971.4456, 25.06091
971.9277, 24.92915
972.4099, 24.87591
972.8920, 24.90969
973.3741, 25.01105
973.8562, 25.28287
974.3383, 25.49830
974.8204, 25.43223
975.3026, 25.22341
975.7847, 25.02723
976.2668, 24.87877
976.7489, 24.78677
977.2310, 24.75583
977.7131, 24.77397
978.1953, 24.84701
978.6774, 24.95043
979.1595, 25.05251
979.6416, 25.14843
980.1237, 25.22134
980.6058, 25.27051
981.0880, 25.32141
981.5701, 25.39448
982.0522, 25.44528
982.5343, 25.36942
983.0164, 25.19812
983.4985, 25.11121
983.9807, 25.11022
984.4628, 25.10692
984.9449, 25.07435
985.4270, 25.04270
985.9091, 25.02878
986.3912, 25.05455
986.8734, 25.23866
987.3555, 25.21818
987.8376, 25.16518
988.3197, 25.32995
988.8018, 25.28695
989.2839, 25.35212
989.7661, 25.33856
990.2482, 25.44422
990.7303, 25.46704
991.2124, 25.50142
991.6945, 25.56889
992.1766, 25.59755
992.6588, 25.58371
993.1409, 25.52797
993.6230, 25.35670
994.1051, 25.19716
994.5872, 25.25459
995.0693, 25.52467
995.5515, 25.69137
996.0336, 25.69356
996.5157, 25.67691
996.9978, 25.64201
997.4799, 25.60864
997.9620, 25.59695
998.4442, 25.58860
998.9263, 25.53158
999.4084, 25.42253
999.8905, 25.41102
1000.373, 25.67331
1000.855, 25.85335
1001.337, 25.72367
1001.819, 25.55533
1002.301, 25.58088
1002.783, 25.72900
1003.265, 25.84499
1003.747, 25.89179
1004.230, 25.88272
1004.712, 25.78741
1005.194, 25.68087
1005.676, 25.62653
1006.158, 25.57673
1006.640, 25.42909
1007.122, 25.24076
1007.604, 25.18000
1008.086, 25.30492
1008.569, 25.48669
1009.051, 25.71466
1009.533, 25.86773
1010.015, 25.72515
1010.497, 25.45384
1010.979, 25.35358
1011.461, 25.42699
1011.943, 25.50500
1012.426, 25.50930
1012.908, 25.47363
1013.390, 25.38293
1013.872, 25.30618
1014.354, 25.42613
1014.836, 25.66091
1015.318, 25.76981
1015.800, 25.72165
1016.282, 25.60475
1016.765, 25.46407
1017.247, 25.36633
1017.729, 25.46345
1018.211, 25.67354
1018.693, 25.67560
1019.175, 25.50245
1019.657, 25.36342
1020.139, 25.30626
1020.622, 25.36356
1021.104, 25.57361
1021.586, 25.80327
1022.068, 25.78479
1022.550, 25.54667
1023.032, 25.40925
1023.514, 25.37434
1023.996, 25.31771
1024.478, 25.20730
1024.961, 25.09368
1025.443, 25.01245
1025.925, 24.95376
1026.407, 24.89852
1026.889, 24.84755
1027.371, 24.78298
1027.853, 24.69749
1028.335, 24.64395
1028.818, 24.64512
1029.300, 24.64457
1029.782, 24.58748
1030.264, 24.51320
1030.746, 24.53291
1031.228, 24.66682
1031.710, 24.77206
1032.192, 24.84526
1032.674, 24.90849
1033.156, 25.00469
1033.639, 25.00876
1034.121, 24.74984
1034.603, 24.37029
1035.085, 24.31300
1035.567, 24.72714
1036.049, 24.87933
1036.531, 24.52420
1037.013, 24.39523
1037.496, 24.86975
1037.978, 25.39294
1038.460, 25.50402
1038.942, 25.31931
1039.424, 25.20094
1039.906, 25.18644
1040.388, 25.12474
1040.870, 24.94690
1041.353, 24.82151
1041.835, 24.77549
1042.317, 24.80938
1042.799, 25.03290
1043.281, 25.32844
1043.763, 25.31409
1044.245, 24.82024
1044.727, 24.52003
1045.209, 24.56621
1045.692, 24.64205
1046.174, 24.71179
1046.656, 24.73758
1047.138, 24.65928
1047.620, 24.51835
1048.102, 24.41573
1048.584, 24.34330
1049.066, 24.37218
1049.548, 24.63829
1050.031, 24.84185
1050.513, 24.90460
1050.995, 24.85223
1051.477, 24.60032
1051.959, 24.27210
1052.441, 24.18323
1052.923, 24.43433
1053.405, 24.63045
1053.888, 24.72547
1054.370, 24.70436
1054.852, 24.38993
1055.334, 24.10956
1055.816, 24.21033
1056.298, 24.54516
1056.780, 24.73088
1057.262, 24.67914
1057.745, 24.65278
1058.227, 24.79800
1058.709, 24.88972
1059.191, 24.78886
1059.673, 24.63711
1060.155, 24.52506
1060.637, 24.46874
1061.119, 24.49161
1061.601, 24.60421
1062.083, 24.69592
1062.566, 24.76627
1063.048, 24.76041
1063.530, 24.50748
1064.012, 24.29980
1064.494, 24.53217
1064.976, 24.95595
1065.458, 24.99713
1065.940, 24.54339
1066.423, 24.20972
1066.905, 24.38470
1067.387, 24.53491
1067.869, 24.29855
1068.351, 24.04397
1068.833, 24.15176
1069.315, 24.45050
1069.797, 24.60300
1070.280, 24.54628
1070.762, 24.40977
1071.244, 24.13240
1071.726, 23.93817
1072.208, 24.03179
1072.690, 24.15141
1073.172, 24.05155
1073.654, 23.84046
1074.136, 23.70228
1074.619, 23.67272
1075.101, 23.72658
1075.583, 23.91296
1076.065, 24.08201
1076.547, 24.15668
1077.029, 24.19147
1077.511, 24.27800
1077.993, 24.32662
1078.475, 24.10370
1078.958, 23.66285
1079.440, 23.48293
1079.922, 23.88832
1080.404, 24.24478
1080.886, 24.18535
1081.368, 24.03847
1081.850, 24.00784
1082.332, 24.05556
1082.814, 24.13043
1083.297, 24.21506
1083.779, 24.30398
1084.261, 24.44548
1084.743, 24.42624
1085.225, 23.91602
1085.707, 23.47358
1086.189, 23.55842
1086.671, 23.84117
1087.154, 23.96403
1087.636, 23.91287
1088.118, 23.78352
1088.600, 23.56668
1089.082, 23.47456
1089.564, 23.67829
1090.046, 23.92977
1090.528, 24.18823
1091.010, 24.34610
1091.493, 24.18762
1091.975, 23.86746
1092.457, 23.80083
1092.939, 24.10550
1093.421, 24.32395
1093.903, 24.22783
1094.385, 24.08585
1094.867, 23.97498
1095.349, 23.90859
1095.832, 23.93023
1096.314, 23.98881
1096.796, 23.97846
1097.278, 23.88400
1097.760, 23.83589
1098.242, 24.03904
1098.724, 24.06493
1099.206, 23.51240
1099.689, 23.00619
1100.171, 23.02332
1100.653, 23.33215
1101.135, 23.62290
1101.617, 23.84573
1102.099, 23.94756
1102.581, 23.85975
1103.063, 23.74593
1103.546, 23.58995
1104.028, 23.47984
1104.510, 23.45294
1104.992, 23.50307
1105.474, 23.69355
1105.956, 23.96425
1106.438, 24.03554
1106.920, 23.74054
1107.402, 23.56401
1107.885, 23.66723
1108.367, 23.78889
1108.849, 23.85100
1109.331, 23.87824
1109.813, 23.91182
1110.295, 23.92765
1110.777, 23.83384
1111.259, 23.56724
1111.741, 23.43389
1112.224, 23.63635
1112.706, 23.71996
1113.188, 23.37360
1113.670, 23.10448
1114.152, 23.41826
1114.634, 23.94781
1115.116, 24.00712
1115.598, 23.55011
1116.081, 23.17882
1116.563, 22.75220
1117.045, 22.66961
1117.527, 23.26605
1118.009, 23.78545
1118.491, 23.84542
1118.973, 23.67861
1119.455, 23.53436
1119.938, 23.41890
1120.420, 23.39008
1120.902, 23.46865
1121.384, 23.59930
1121.866, 23.88717
1122.348, 23.97241
1122.830, 23.59693
1123.312, 23.22383
1123.794, 23.32245
1124.276, 23.72377
1124.759, 23.88265
1125.241, 23.74504
1125.723, 23.69869
1126.205, 23.80807
1126.687, 23.71539
1127.169, 23.23862
1127.651, 22.90912
1128.133, 23.12436
1128.616, 23.60474
1129.098, 23.86428
1129.580, 23.90906
1130.062, 23.82135
1130.544, 23.58247
1131.026, 23.44699
1131.508, 23.45658
1131.990, 23.51768
1132.473, 23.59304
1132.955, 23.65979
1133.437, 23.69570
1133.919, 23.69401
1134.401, 23.60359
1134.883, 23.43826
1135.365, 23.37030
1135.847, 23.40830
1136.329, 23.49662
1136.812, 23.61637
1137.294, 23.72648
1137.776, 23.79648
1138.258, 23.82900
1138.740, 23.82395
1139.222, 23.78632
1139.704, 23.71902
1140.186, 23.63362
1140.668, 23.57799
1141.151, 23.55778
1141.633, 23.54163
1142.115, 23.51301
1142.597, 23.51044
1143.079, 23.62629
1143.561, 23.75099
1144.043, 23.65938
1144.525, 23.45765
1145.008, 23.33512
1145.490, 23.31137
1145.972, 23.37837
1146.454, 23.52304
1146.936, 23.68478
1147.418, 23.87452
1147.900, 23.94779
1148.382, 23.63388
1148.865, 23.24093
1149.347, 23.11068
1149.829, 23.17554
1150.311, 23.32167
1150.793, 23.49923
1151.275, 23.64545
1151.757, 23.74346
1152.239, 23.76495
1152.721, 23.65358
1153.203, 23.50864
1153.686, 23.31229
1154.168, 23.18375
1154.650, 23.28944
1155.132, 23.54451
1155.614, 23.78048
1156.096, 23.96733
1156.578, 24.00583
1157.060, 23.77771
1157.543, 23.52845
1158.025, 23.21537
1158.507, 23.02218
1158.989, 23.12976
1159.471, 23.36583
1159.953, 23.55084
1160.435, 23.66961
1160.917, 23.68095
1161.400, 23.50862
1161.882, 23.38693
1162.364, 23.30770
1162.846, 23.29626
1163.328, 23.38950
1163.810, 23.51474
1164.292, 23.64179
1164.774, 23.74833
1165.256, 23.78848
1165.739, 23.76150
1166.221, 23.65566
1166.703, 23.41106
1167.185, 23.32738
1167.667, 23.47983
1168.149, 23.66822
1168.631, 23.82441
1169.113, 23.89354
1169.595, 23.79616
1170.078, 23.59102
1170.560, 23.49281
1171.042, 23.49806
1171.524, 23.43848
1172.006, 23.31216
1172.488, 23.29852
1172.970, 23.44044
1173.452, 23.55411
1173.934, 23.51610
1174.417, 23.43735
1174.899, 23.51033
1175.381, 23.41971
1175.863, 23.57677
1176.345, 23.38271
1176.827, 23.34810
1177.309, 23.46385
1177.791, 23.53950
1178.274, 23.51245
1178.756, 23.47039
1179.238, 23.48532
1179.720, 23.49747
1180.202, 23.39365
1180.684, 23.29052
1181.166, 23.35358
1181.648, 23.51469
1182.130, 23.71624
1182.613, 23.88402
1183.095, 23.78299
1183.577, 23.27976
1184.059, 22.95688
1184.541, 23.31148
1185.023, 23.68102
1185.505, 23.73438
1185.987, 23.62436
1186.469, 23.36788
1186.952, 23.10140
1187.434, 23.08161
1187.916, 23.30686
1188.398, 23.38080
1188.880, 23.00184
1189.362, 22.88079
1189.844, 23.36654
1190.326, 23.75179
1190.809, 23.79725
1191.291, 23.66079
1191.773, 23.36626
1192.255, 23.03926
1192.737, 23.00081
1193.219, 23.28442
1193.701, 23.49477
1194.183, 23.63928
1194.666, 23.67890
1195.148, 23.60687
1195.630, 23.41389
1196.112, 23.06428
1196.594, 22.72550
1197.076, 22.57498
1197.558, 22.58808
1198.040, 22.72747
1198.522, 22.97612
1199.005, 23.21577
1199.487, 23.43082
1199.969, 23.53062
1200.451, 23.50424
1200.933, 23.43984
1201.415, 23.38572
1201.897, 23.32055
1202.379, 23.19879
1202.861, 23.07302
1203.344, 23.04383
1203.826, 23.05998
1204.308, 22.98871
1204.790, 22.89571
1205.272, 23.01479
1205.754, 23.34152
1206.236, 23.53929
1206.718, 23.40809
1207.201, 23.25235
1207.683, 23.25333
1208.165, 23.29943
1208.647, 23.34979
1209.129, 23.37774
1209.611, 23.32714
1210.093, 23.24695
1210.575, 23.26492
1211.057, 23.40201
1211.540, 23.45054
1212.022, 23.32285
1212.504, 23.19605
1212.986, 23.07355
1213.468, 22.97880
1213.950, 22.94151
1214.432, 22.90769
1214.914, 22.81821
1215.396, 22.70267
1215.879, 22.63930
1216.361, 22.62813
1216.843, 22.67810
1217.325, 22.80308
1217.807, 22.89426
1218.289, 22.93457
1218.771, 22.92855
1219.253, 22.87147
1219.736, 22.84682
1220.218, 22.94968
1220.700, 23.11930
1221.182, 23.26610
1221.664, 23.35844
1222.146, 23.20386
1222.628, 22.90799
1223.110, 22.85446
1223.593, 23.07341
1224.075, 23.37120
1224.557, 23.65850
1225.039, 23.81121
1225.521, 23.64089
1226.003, 23.40803
1226.485, 23.33173
1226.967, 23.32593
1227.449, 23.35331
1227.932, 23.35903
1228.414, 23.22490
1228.896, 22.99120
1229.378, 22.87638
1229.860, 22.94348
1230.342, 23.08996
1230.824, 23.47677
1231.306, 23.67987
1231.788, 23.39287
1232.271, 23.09719
1232.753, 23.10913
1233.235, 23.22862
1233.717, 23.15092
1234.199, 23.34017
1234.681, 23.05923
1235.163, 23.62561
1235.645, 23.95894
1236.128, 24.03800
1236.610, 23.90500
1237.092, 23.54398
1237.574, 22.85497
1238.056, 23.29751
1238.538, 23.54999
1239.020, 23.62264
1239.502, 22.97683
1239.984, 23.25876
1240.467, 23.16891
1240.949, 23.06380
1241.431, 23.47631
1241.913, 22.93499
1242.395, 23.33929
1242.877, 23.36612
1243.359, 23.56571
1243.841, 23.39120
1244.323, 23.33224
1244.806, 23.64751
1245.288, 23.75555
1245.770, 23.53798
1246.252, 23.74855
1246.734, 23.19417
1247.216, 23.31104
1247.698, 23.71753
1248.180, 23.51877
1248.662, 23.73618
1249.145, 23.79510
1249.627, 23.13369
1250.109, 23.72499
1250.591, 23.77452
1251.073, 23.26780
1251.555, 23.81618
1252.037, 23.38614
1252.519, 23.30534
1253.002, 23.48737
1253.484, 23.39540
1253.966, 23.73540
1254.448, 23.65926
1254.930, 23.54593
1255.412, 23.59487
1255.894, 23.71320
1256.376, 23.71783
1256.859, 23.58638
1257.341, 23.48988
1257.823, 23.65591
1258.305, 23.88077
1258.787, 23.88366
1259.269, 23.78688
1259.751, 23.74389
1260.233, 23.73312
1260.715, 23.67804
1261.198, 23.59026
1261.680, 23.56176
1262.162, 23.62840
1262.644, 23.68648
1263.126, 23.71420
1263.608, 23.71376
1264.090, 23.64848
1264.572, 23.59985
1265.054, 23.64022
1265.537, 23.68585
1266.019, 23.61479
1266.501, 23.49614
1266.983, 23.60325
1267.465, 23.52532
1267.947, 23.47588
1268.429, 23.59475
1268.911, 23.43749
1269.394, 23.62982
1269.876, 23.81746
1270.358, 23.85433
1270.840, 23.87646
1271.322, 24.01645
1271.804, 24.16619
1272.286, 24.14718
1272.768, 24.03635
1273.250, 23.94052
1273.733, 23.86590
1274.215, 23.82059
1274.697, 23.79635
1275.179, 23.77013
1275.661, 23.73691
1276.143, 23.71673
1276.625, 23.73524
1277.107, 23.73220
1277.589, 23.64020
1278.072, 23.58417
1278.554, 23.60926
1279.036, 23.70695
1279.518, 23.96252
1280.000, 24.20629
1280.482, 24.10577
1280.964, 23.70615
1281.446, 23.56664
1281.929, 23.71780
1282.411, 23.88505
1282.893, 24.05945
1283.375, 24.15918
1283.857, 24.16441
1284.339, 24.07708
1284.821, 23.89775
1285.303, 23.71664
1285.786, 23.62235
1286.268, 23.61072
##END=



