##NAMES=Fupingqiuite
##RRUFFID=R160033
##IDEAL CHEMISTRY=(Na,Mn^2+^,[box])_2_Mn^2+^_2_Fe^3+^(PO_4_)_3_
##LOCALITY=Nancy Pegmatite, Argentina
##OWNER=RRUFF
##SOURCE=Jaroslav Hyrŝl
##DESCRIPTION=Brown crystals, associated with light brown fillowite.
##STATUS=The identification of this mineral is not yet confirmed.
##URL=rruff.info/R160033
##MEASURED CHEMISTRY=(Na_1.15_Mn^2+^_0. 36_Ca_0.05_)_Σ1.56_(Mn^2+^_1.20_Mg_0.41_Fe^2+^_0.39_)_Σ2.0_(Fe^3+^_0.78_Al_0.22_)_Σ1.0_(PO_4_)_3_
89.78320, 598.6121
90.26532, 598.4904
90.74744, 598.5626
91.22955, 597.7770
91.71167, 599.6243
92.19379, 611.1288
92.67590, 630.8622
93.15802, 646.7106
93.64014, 648.2122
94.12225, 638.8196
94.60437, 627.1643
95.08649, 613.7117
95.56860, 600.2415
96.05072, 592.6735
96.53284, 592.0859
97.01495, 591.7050
97.49707, 583.2760
97.97919, 567.0373
98.46130, 552.7248
98.94342, 542.6982
99.42554, 536.7456
99.90765, 534.9789
100.3898, 538.4441
100.8719, 543.6539
101.3540, 545.8752
101.8361, 545.0812
102.3182, 542.0735
102.8004, 536.4492
103.2825, 527.0758
103.7646, 520.2792
104.2467, 516.1464
104.7288, 514.4055
105.2109, 514.4025
105.6931, 515.3833
106.1752, 518.9300
106.6573, 525.7415
107.1394, 535.9456
107.6215, 548.9775
108.1036, 568.7428
108.5858, 592.7887
109.0679, 607.1932
109.5500, 608.3920
110.0321, 603.2216
110.5142, 595.3875
110.9963, 578.9904
111.4785, 566.5778
111.9606, 560.2775
112.4427, 559.8610
112.9248, 560.8539
113.4069, 562.8994
113.8890, 565.9029
114.3712, 569.8209
114.8533, 573.6009
115.3354, 579.1775
115.8175, 588.1519
116.2996, 601.0631
116.7817, 612.5764
117.2639, 621.0494
117.7460, 627.1455
118.2281, 631.6912
118.7102, 635.4683
119.1923, 637.5031
119.6744, 636.7116
120.1566, 632.5110
120.6387, 627.6833
121.1208, 623.2486
121.6029, 619.4064
122.0850, 616.6334
122.5671, 613.9981
123.0493, 613.0275
123.5314, 615.9358
124.0135, 624.2769
124.4956, 633.5115
124.9777, 641.1051
125.4598, 646.4922
125.9420, 647.3400
126.4241, 638.5729
126.9062, 624.6119
127.3883, 613.5804
127.8704, 607.5583
128.3525, 604.6486
128.8347, 601.9013
129.3168, 599.3961
129.7989, 598.6533
130.2810, 602.5059
130.7631, 609.6307
131.2452, 614.6204
131.7274, 615.4129
132.2095, 613.5286
132.6916, 613.5920
133.1737, 615.9969
133.6558, 617.5971
134.1379, 614.3782
134.6201, 606.4304
135.1022, 599.3407
135.5843, 594.8026
136.0664, 592.5773
136.5485, 591.1434
137.0306, 590.5429
137.5128, 590.6374
137.9949, 591.1572
138.4770, 592.0128
138.9591, 593.7581
139.4412, 596.5797
139.9233, 600.4529
140.4055, 605.9789
140.8876, 615.1152
141.3697, 623.8647
141.8518, 625.0400
142.3339, 615.8542
142.8160, 605.3826
143.2982, 596.5956
143.7803, 589.7155
144.2624, 584.0722
144.7445, 579.7883
145.2266, 576.7220
145.7087, 574.7560
146.1909, 574.2972
146.6730, 574.3827
147.1551, 574.6355
147.6372, 574.8934
148.1193, 575.6439
148.6014, 577.6957
149.0836, 580.3627
149.5657, 581.2909
150.0478, 578.9240
150.5299, 576.0603
151.0120, 573.8944
151.4941, 572.1387
151.9763, 571.4206
152.4584, 572.4500
152.9405, 574.7968
153.4226, 576.3193
153.9047, 576.2240
154.3868, 575.6682
154.8690, 575.2811
155.3511, 574.0770
155.8332, 574.1649
156.3153, 577.5230
156.7974, 583.4522
157.2795, 586.3146
157.7617, 582.2868
158.2438, 576.1456
158.7259, 571.3420
159.2080, 569.4759
159.6901, 568.2737
160.1722, 567.2955
160.6544, 566.5120
161.1365, 565.6017
161.6186, 564.0123
162.1007, 562.4312
162.5828, 561.4552
163.0649, 560.8051
163.5471, 561.2012
164.0292, 563.8760
164.5113, 568.8609
164.9934, 572.5250
165.4755, 572.2488
165.9576, 569.8100
166.4398, 567.4228
166.9219, 565.8663
167.4040, 564.6567
167.8861, 563.3852
168.3682, 561.9958
168.8503, 561.0751
169.3325, 561.2810
169.8146, 562.1808
170.2967, 563.0676
170.7788, 563.3030
171.2609, 563.5898
171.7430, 565.0561
172.2252, 568.0054
172.7073, 570.1021
173.1894, 568.7158
173.6715, 564.9984
174.1536, 561.6022
174.6357, 559.9536
175.1179, 559.2112
175.6000, 558.4101
176.0821, 557.4776
176.5642, 556.5033
177.0463, 555.5737
177.5284, 554.6713
178.0106, 553.7610
178.4927, 552.5168
178.9748, 551.3167
179.4569, 551.0314
179.9390, 551.9515
180.4211, 552.9900
180.9033, 552.6934
181.3854, 551.3031
181.8675, 549.9680
182.3496, 549.4227
182.8317, 549.4146
183.3138, 549.2997
183.7960, 548.9841
184.2781, 548.6292
184.7602, 548.4344
185.2423, 548.3947
185.7244, 548.4976
186.2065, 548.6130
186.6887, 548.8348
187.1708, 549.7269
187.6529, 551.6379
188.1350, 553.6118
188.6171, 553.7092
189.0992, 551.9736
189.5814, 550.0956
190.0635, 549.0804
190.5456, 548.8484
191.0277, 549.0461
191.5098, 549.8331
191.9919, 550.7224
192.4741, 550.4225
192.9562, 548.8718
193.4383, 547.5188
193.9204, 547.5099
194.4025, 548.7657
194.8846, 549.9022
195.3668, 550.6974
195.8489, 551.3526
196.3310, 552.4903
196.8131, 554.1976
197.2952, 555.7068
197.7773, 556.3796
198.2595, 556.1843
198.7416, 556.1411
199.2237, 556.3845
199.7058, 556.8445
200.1879, 557.3575
200.6700, 557.9510
201.1522, 558.5192
201.6343, 558.9133
202.1164, 559.0926
202.5985, 559.5851
203.0806, 560.5399
203.5627, 561.7977
204.0449, 562.9255
204.5270, 563.9959
205.0091, 564.6852
205.4912, 564.5386
205.9733, 563.3182
206.4554, 562.7176
206.9376, 563.0922
207.4197, 564.1779
207.9018, 565.0031
208.3839, 565.5304
208.8660, 565.9026
209.3481, 566.1591
209.8303, 566.2423
210.3124, 566.5074
210.7945, 567.0211
211.2766, 567.7493
211.7587, 568.6394
212.2408, 569.8698
212.7230, 570.8958
213.2051, 571.1818
213.6872, 570.3055
214.1693, 570.2048
214.6514, 571.4202
215.1335, 573.5524
215.6157, 574.6316
216.0978, 574.2439
216.5799, 573.5491
217.0620, 573.2897
217.5441, 573.5866
218.0262, 573.9592
218.5084, 574.4201
218.9905, 574.9271
219.4726, 575.2903
219.9547, 575.6075
220.4368, 575.6412
220.9189, 575.0817
221.4011, 573.3929
221.8832, 572.6285
222.3653, 573.4405
222.8474, 575.3254
223.3295, 575.9268
223.8116, 574.6607
224.2938, 573.0294
224.7759, 571.9309
225.2580, 571.5996
225.7401, 571.2366
226.2222, 570.7161
226.7043, 570.1127
227.1865, 569.7650
227.6686, 569.8535
228.1507, 569.9285
228.6328, 569.7623
229.1149, 569.4009
229.5970, 568.6671
230.0792, 567.3917
230.5613, 565.7394
231.0434, 564.3715
231.5255, 563.2950
232.0076, 562.5319
232.4897, 562.1666
232.9719, 562.4661
233.4540, 562.5730
233.9361, 562.3381
234.4182, 561.9044
234.9003, 561.7975
235.3824, 562.2940
235.8646, 562.7225
236.3467, 562.7045
236.8288, 561.9202
237.3109, 561.3747
237.7930, 561.0723
238.2751, 561.0139
238.7573, 561.2640
239.2394, 562.0526
239.7215, 562.7925
240.2036, 563.1681
240.6857, 562.8395
241.1678, 562.9280
241.6500, 563.7089
242.1321, 564.8218
242.6142, 565.3163
243.0963, 564.7894
243.5784, 564.2325
244.0605, 564.1441
244.5427, 564.9489
245.0248, 565.0770
245.5069, 564.0731
245.9890, 562.5811
246.4711, 562.1168
246.9532, 563.3743
247.4354, 564.5214
247.9175, 564.7843
248.3996, 563.7984
248.8817, 563.1601
249.3638, 562.9961
249.8459, 563.1216
250.3281, 563.2276
250.8102, 563.4288
251.2923, 563.4207
251.7744, 562.9881
252.2565, 561.9082
252.7386, 561.3920
253.2208, 561.5780
253.7029, 562.2275
254.1850, 563.1005
254.6671, 564.6396
255.1492, 565.4982
255.6313, 564.9696
256.1135, 562.6960
256.5956, 561.4409
257.0777, 561.5127
257.5598, 562.2963
258.0419, 563.0336
258.5240, 563.7561
259.0062, 564.3162
259.4883, 564.6400
259.9704, 564.7047
260.4525, 564.7390
260.9346, 564.6422
261.4167, 564.6416
261.8989, 565.1623
262.3810, 566.6494
262.8631, 567.4408
263.3452, 566.8752
263.8273, 564.9647
264.3094, 564.0063
264.7916, 564.3179
265.2737, 565.0692
265.7558, 565.4745
266.2379, 565.4495
266.7200, 565.3618
267.2021, 565.2602
267.6843, 565.1498
268.1664, 565.0686
268.6485, 564.9922
269.1306, 564.9828
269.6127, 565.0591
270.0948, 565.1780
270.5770, 565.5652
271.0591, 566.3875
271.5412, 567.4808
272.0233, 568.1165
272.5054, 568.2526
272.9875, 567.9843
273.4697, 567.2260
273.9518, 565.8450
274.4339, 564.7806
274.9160, 564.1357
275.3981, 563.8852
275.8802, 564.1230
276.3624, 565.0319
276.8445, 565.7134
277.3266, 565.4063
277.8087, 564.0190
278.2908, 563.1148
278.7729, 562.9634
279.2551, 563.2020
279.7372, 562.9470
280.2193, 562.1163
280.7014, 561.3385
281.1835, 561.0621
281.6656, 561.2762
282.1478, 561.0761
282.6299, 560.2719
283.1120, 559.3526
283.5941, 559.2878
284.0762, 560.1258
284.5583, 560.8467
285.0405, 560.9799
285.5226, 560.5683
286.0047, 559.9223
286.4868, 558.9666
286.9689, 558.0314
287.4510, 557.5628
287.9332, 557.5470
288.4153, 557.7501
288.8974, 558.2604
289.3795, 558.9219
289.8616, 559.0711
290.3438, 558.6604
290.8259, 558.0529
291.3080, 557.5325
291.7901, 557.1221
292.2722, 556.9539
292.7543, 557.2209
293.2365, 557.6912
293.7186, 557.8725
294.2007, 557.7639
294.6828, 557.3528
295.1649, 556.3761
295.6470, 555.0452
296.1292, 554.0469
296.6113, 553.6854
297.0934, 553.6232
297.5755, 553.2584
298.0576, 552.6290
298.5397, 552.1425
299.0219, 552.2064
299.5040, 552.6247
299.9861, 553.0328
300.4682, 553.4791
300.9503, 553.6661
301.4324, 552.9992
301.9146, 551.6765
302.3967, 550.4863
302.8788, 549.9695
303.3609, 549.8829
303.8430, 549.9116
304.3251, 550.0280
304.8073, 550.1962
305.2894, 550.4655
305.7715, 550.7629
306.2536, 550.9231
306.7357, 550.5559
307.2178, 550.1508
307.7000, 550.3517
308.1821, 551.2718
308.6642, 552.0748
309.1463, 552.1067
309.6284, 551.6158
310.1105, 550.9895
310.5927, 549.9719
311.0748, 549.1824
311.5569, 549.3143
312.0390, 550.3661
312.5211, 551.1447
313.0032, 550.4994
313.4854, 549.4224
313.9675, 548.9766
314.4496, 550.3982
314.9317, 551.7492
315.4138, 552.0287
315.8959, 551.3779
316.3781, 550.6562
316.8602, 550.2431
317.3423, 549.9130
317.8244, 549.4834
318.3065, 548.6946
318.7886, 548.1210
319.2708, 547.9838
319.7529, 548.2120
320.2350, 548.6092
320.7171, 549.7260
321.1992, 550.5264
321.6813, 550.3331
322.1635, 548.3693
322.6456, 546.9747
323.1277, 546.8991
323.6098, 547.6130
324.0919, 548.2372
324.5740, 548.7667
325.0562, 549.0521
325.5383, 548.9430
326.0204, 548.2717
326.5025, 547.8795
326.9846, 548.2957
327.4667, 548.8312
327.9489, 548.7525
328.4310, 547.0251
328.9131, 545.8618
329.3952, 545.9493
329.8773, 547.3434
330.3594, 547.8116
330.8416, 546.6346
331.3237, 545.1431
331.8058, 544.2894
332.2879, 544.4944
332.7700, 544.6190
333.2521, 544.5550
333.7343, 544.3287
334.2164, 544.0531
334.6985, 543.6411
335.1806, 543.3071
335.6627, 543.2280
336.1448, 543.5992
336.6270, 543.5660
337.1091, 542.9140
337.5912, 541.9925
338.0733, 541.5458
338.5554, 541.7060
339.0375, 541.9340
339.5197, 541.9725
340.0018, 541.7987
340.4839, 541.9676
340.9660, 542.6120
341.4481, 543.3005
341.9302, 543.3455
342.4124, 542.6834
342.8945, 542.2424
343.3766, 542.4483
343.8587, 543.0865
344.3408, 543.0590
344.8229, 542.2712
345.3051, 541.4535
345.7872, 541.5764
346.2693, 542.4219
346.7514, 542.3661
347.2335, 540.6547
347.7156, 538.4286
348.1978, 538.1496
348.6799, 539.6910
349.1620, 541.4129
349.6441, 542.3531
350.1262, 542.6595
350.6083, 542.5023
351.0905, 541.7410
351.5726, 541.1301
352.0547, 541.9433
352.5368, 543.7090
353.0189, 544.9982
353.5010, 544.4364
353.9832, 543.3078
354.4653, 543.3842
354.9474, 544.7852
355.4295, 546.0919
355.9116, 546.2100
356.3937, 545.5098
356.8759, 544.5463
357.3580, 542.9041
357.8401, 541.5726
358.3222, 541.5489
358.8043, 542.6135
359.2864, 543.4547
359.7686, 543.0317
360.2507, 542.2659
360.7328, 541.9672
361.2149, 542.5470
361.6970, 543.2128
362.1791, 543.7623
362.6613, 544.1623
363.1434, 544.3434
363.6255, 544.3430
364.1076, 544.0604
364.5897, 543.3121
365.0718, 541.8470
365.5540, 540.7700
366.0361, 540.5681
366.5182, 540.7604
367.0003, 540.7712
367.4824, 540.7249
367.9645, 540.3085
368.4467, 539.2083
368.9288, 537.3975
369.4109, 536.1678
369.8930, 535.8734
370.3751, 535.9043
370.8572, 535.8879
371.3394, 536.0244
371.8215, 535.7693
372.3036, 534.8568
372.7857, 533.5291
373.2678, 532.6880
373.7499, 532.6058
374.2321, 532.4993
374.7142, 531.9472
375.1963, 530.7733
375.6784, 529.8856
376.1605, 529.3687
376.6426, 529.0262
377.1248, 528.6082
377.6069, 528.1176
378.0890, 527.4912
378.5711, 526.6595
379.0532, 525.6581
379.5353, 524.7557
380.0175, 523.9219
380.4996, 523.3107
380.9817, 523.3453
381.4638, 523.8956
381.9459, 523.7984
382.4280, 522.6627
382.9102, 520.9611
383.3923, 519.5535
383.8744, 518.4088
384.3565, 517.3643
384.8386, 516.2980
385.3207, 515.2576
385.8029, 514.4027
386.2850, 513.7584
386.7671, 513.1933
387.2492, 512.6100
387.7313, 511.9999
388.2134, 511.3546
388.6956, 510.7189
389.1777, 510.0310
389.6598, 509.1529
390.1419, 508.1095
390.6240, 507.1961
391.1061, 506.7109
391.5883, 506.4011
392.0704, 505.9995
392.5525, 505.4029
393.0346, 504.7579
393.5167, 504.0459
393.9988, 503.3238
394.4810, 502.7388
394.9631, 502.3066
395.4452, 502.0516
395.9273, 502.0031
396.4094, 502.2021
396.8915, 502.4824
397.3737, 503.0394
397.8558, 503.5800
398.3379, 503.7430
398.8200, 502.9492
399.3021, 502.3365
399.7842, 502.1874
400.2664, 502.4949
400.7485, 502.6581
401.2306, 502.3987
401.7127, 502.2506
402.1948, 502.6086
402.6769, 503.8719
403.1591, 504.7528
403.6412, 505.0825
404.1233, 505.0269
404.6054, 504.9778
405.0875, 504.9142
405.5696, 504.9300
406.0518, 505.1526
406.5339, 505.6019
407.0160, 505.6635
407.4981, 505.2675
407.9802, 504.7093
408.4623, 504.3192
408.9445, 504.0992
409.4266, 503.9164
409.9087, 503.7528
410.3908, 503.6050
410.8729, 503.4868
411.3550, 503.3989
411.8372, 503.2537
412.3193, 502.9416
412.8014, 502.5277
413.2835, 502.0851
413.7656, 501.5474
414.2477, 501.2591
414.7299, 501.8290
415.2120, 502.9483
415.6941, 503.8668
416.1762, 503.9168
416.6583, 503.8064
417.1404, 504.3070
417.6226, 505.3975
418.1047, 506.2543
418.5868, 506.3649
419.0689, 506.0238
419.5510, 505.4764
420.0331, 504.3784
420.5153, 503.6355
420.9974, 503.7816
421.4795, 504.5682
421.9616, 505.3617
422.4437, 506.0717
422.9258, 506.7180
423.4080, 507.2646
423.8901, 507.6377
424.3722, 508.2388
424.8543, 509.2612
425.3364, 510.4660
425.8185, 511.6239
426.3007, 512.8233
426.7828, 513.8546
427.2649, 514.4897
427.7470, 514.8619
428.2291, 515.9346
428.7112, 517.9481
429.1934, 520.2216
429.6755, 522.5070
430.1576, 524.8597
430.6397, 526.7718
431.1218, 528.0594
431.6039, 529.1608
432.0861, 530.8265
432.5682, 533.0904
433.0503, 535.4186
433.5324, 537.5847
434.0145, 539.7015
434.4966, 542.2784
434.9788, 545.3374
435.4609, 548.3317
435.9430, 550.6366
436.4251, 552.5428
436.9072, 554.8405
437.3893, 557.7280
437.8715, 560.9506
438.3536, 564.1409
438.8357, 567.4169
439.3178, 571.1065
439.7999, 575.8459
440.2820, 580.7910
440.7642, 585.2227
441.2463, 589.1316
441.7284, 592.4482
442.2105, 594.5101
442.6926, 596.2764
443.1747, 598.6871
443.6569, 602.6894
444.1390, 606.5305
444.6211, 609.6784
445.1032, 612.2508
445.5853, 614.4879
446.0674, 616.6946
446.5496, 618.3861
447.0317, 619.2849
447.5138, 619.1229
447.9959, 619.0988
448.4780, 619.6613
448.9601, 620.0804
449.4423, 619.6033
449.9244, 617.8826
450.4065, 616.0149
450.8886, 614.0676
451.3707, 612.1129
451.8528, 610.5324
452.3350, 609.5779
452.8171, 608.1698
453.2992, 605.5168
453.7813, 601.5781
454.2634, 597.6803
454.7455, 593.7079
455.2277, 590.0876
455.7098, 587.4531
456.1919, 585.7076
456.6740, 584.0861
457.1561, 582.5746
457.6382, 580.8827
458.1204, 578.3358
458.6025, 575.0350
459.0846, 571.8661
459.5667, 569.4485
460.0488, 567.4844
460.5309, 565.5091
461.0131, 563.3935
461.4952, 561.6203
461.9773, 560.9120
462.4594, 560.7014
462.9415, 560.1467
463.4236, 558.2375
463.9058, 556.5755
464.3879, 556.1674
464.8700, 556.8527
465.3521, 556.9886
465.8342, 555.4549
466.3163, 553.7809
466.7985, 552.8505
467.2806, 553.3376
467.7627, 553.4483
468.2448, 552.8810
468.7269, 552.0344
469.2090, 551.4758
469.6912, 551.3796
470.1733, 551.2451
470.6554, 550.9775
471.1375, 550.5775
471.6196, 550.0710
472.1017, 549.4720
472.5839, 548.7186
473.0660, 547.6802
473.5481, 546.3583
474.0302, 545.1541
474.5123, 544.0950
474.9944, 543.1866
475.4766, 542.5602
475.9587, 542.1594
476.4408, 541.5745
476.9229, 540.4764
477.4050, 539.2170
477.8871, 538.3489
478.3693, 537.8632
478.8514, 537.6386
479.3335, 537.7899
479.8156, 538.0718
480.2977, 538.1974
480.7798, 538.1069
481.2620, 537.8768
481.7441, 537.3846
482.2262, 536.8074
482.7083, 536.4090
483.1904, 536.2061
483.6725, 536.2478
484.1547, 536.6752
484.6368, 537.4435
485.1189, 538.0568
485.6010, 538.7100
486.0831, 538.9657
486.5652, 538.4874
487.0474, 536.3641
487.5295, 535.5305
488.0116, 536.7581
488.4937, 538.7122
488.9758, 539.4688
489.4579, 538.6506
489.9401, 537.7537
490.4222, 537.0147
490.9043, 536.4887
491.3864, 536.6072
491.8685, 537.5001
492.3506, 538.1392
492.8328, 537.6011
493.3149, 536.1594
493.7970, 535.0421
494.2791, 534.3585
494.7612, 533.9200
495.2433, 533.5264
495.7255, 533.2064
496.2076, 533.0519
496.6897, 533.5067
497.1718, 533.7503
497.6539, 532.6517
498.1360, 530.5629
498.6182, 528.8123
499.1003, 528.4549
499.5824, 528.4514
500.0645, 528.1674
500.5466, 527.5427
501.0287, 526.5219
501.5109, 524.5187
501.9930, 522.3568
502.4751, 520.8853
502.9572, 521.0132
503.4393, 520.8685
503.9214, 520.0927
504.4036, 518.8907
504.8857, 517.9849
505.3678, 517.5872
505.8499, 517.1033
506.3320, 516.2524
506.8141, 515.0035
507.2963, 513.9032
507.7784, 512.9791
508.2605, 512.1003
508.7426, 511.0333
509.2247, 509.8063
509.7068, 508.8916
510.1890, 508.4651
510.6711, 508.2189
511.1532, 507.7905
511.6353, 507.1373
512.1174, 506.0910
512.5995, 504.0154
513.0817, 501.7798
513.5638, 500.6307
514.0459, 500.5390
514.5280, 500.3509
515.0101, 499.0603
515.4922, 497.4728
515.9744, 496.4015
516.4565, 496.3389
516.9386, 496.1573
517.4207, 495.5918
517.9028, 494.6608
518.3849, 493.3924
518.8671, 491.0474
519.3492, 489.1734
519.8313, 488.2504
520.3134, 488.2098
520.7955, 487.9310
521.2776, 487.2957
521.7598, 486.5842
522.2419, 485.9409
522.7240, 485.3568
523.2061, 484.8949
523.6882, 484.6364
524.1703, 484.3180
524.6525, 483.4091
525.1346, 481.9663
525.6167, 480.9672
526.0988, 480.8226
526.5809, 481.1222
527.0630, 481.2403
527.5452, 481.1748
528.0273, 480.9055
528.5094, 480.3023
528.9915, 479.5532
529.4736, 478.7213
529.9557, 477.7921
530.4379, 477.2862
530.9200, 477.9629
531.4021, 478.9875
531.8842, 479.5134
532.3663, 478.8024
532.8484, 478.3281
533.3306, 478.5800
533.8127, 479.3013
534.2948, 479.9496
534.7769, 480.2902
535.2590, 480.7895
535.7411, 481.6507
536.2233, 482.8553
536.7054, 483.8194
537.1875, 484.6451
537.6696, 485.0365
538.1517, 484.4992
538.6339, 482.9008
539.1160, 482.3929
539.5981, 483.2805
540.0802, 484.7549
540.5623, 485.8327
541.0444, 486.5723
541.5266, 487.3124
542.0087, 488.0688
542.4908, 488.9757
542.9729, 490.1026
543.4550, 491.4947
543.9371, 493.3717
544.4193, 496.5861
544.9014, 499.8675
545.3835, 502.0000
545.8656, 502.8215
546.3477, 503.7154
546.8298, 505.4045
547.3120, 507.3327
547.7941, 509.0226
548.2762, 510.0430
548.7583, 511.3256
549.2404, 513.2343
549.7225, 515.3544
550.2047, 516.9643
550.6868, 517.8413
551.1689, 518.6224
551.6510, 519.3713
552.1331, 520.1391
552.6152, 521.3071
553.0974, 522.9531
553.5795, 524.6455
554.0616, 526.1489
554.5437, 527.4762
555.0258, 528.6471
555.5079, 529.6636
555.9901, 530.6041
556.4722, 531.4647
556.9543, 532.3344
557.4364, 533.4572
557.9185, 535.2224
558.4006, 536.7397
558.8828, 536.8911
559.3649, 536.2501
559.8470, 536.1547
560.3291, 537.8632
560.8112, 539.5565
561.2933, 540.2418
561.7755, 539.8618
562.2576, 539.9017
562.7397, 541.0038
563.2218, 542.2030
563.7039, 543.0580
564.1860, 543.5416
564.6682, 543.7425
565.1503, 543.6140
565.6324, 543.2798
566.1145, 542.8998
566.5966, 542.4853
567.0787, 541.9109
567.5609, 540.9763
568.0430, 540.1083
568.5251, 540.6124
569.0072, 542.2933
569.4893, 543.5186
569.9714, 542.9531
570.4536, 541.6135
570.9357, 540.7387
571.4178, 540.3760
571.8999, 540.7119
572.3820, 542.5784
572.8641, 544.7902
573.3463, 546.2654
573.8284, 546.6625
574.3105, 546.7470
574.7926, 546.1347
575.2747, 545.5498
575.7568, 545.9262
576.2390, 548.4562
576.7211, 550.4203
577.2032, 551.0811
577.6853, 550.9993
578.1674, 552.1893
578.6495, 555.0620
579.1317, 558.0189
579.6138, 560.4608
580.0959, 562.4221
580.5780, 564.1423
581.0601, 565.6335
581.5422, 566.9440
582.0244, 568.0250
582.5065, 568.9758
582.9886, 569.9677
583.4707, 571.0078
583.9528, 572.2752
584.4349, 573.7805
584.9171, 575.6575
585.3992, 578.1148
585.8813, 581.9467
586.3634, 585.5965
586.8455, 588.1865
587.3276, 590.0745
587.8098, 592.1392
588.2919, 594.6100
588.7740, 597.2093
589.2561, 599.7770
589.7382, 602.3026
590.2203, 605.2936
590.7025, 608.8317
591.1846, 612.6250
591.6667, 616.6559
592.1488, 621.0032
592.6309, 624.5558
593.1130, 627.1752
593.5952, 629.4764
594.0773, 632.2316
594.5594, 635.3307
595.0415, 638.2316
595.5236, 640.7076
596.0057, 643.1824
596.4879, 646.3263
596.9700, 649.8239
597.4521, 652.8991
597.9342, 655.3156
598.4163, 657.1066
598.8984, 658.1835
599.3806, 658.5976
599.8627, 658.7184
600.3448, 658.5421
600.8269, 658.1517
601.3090, 657.6119
601.7911, 656.9713
602.2733, 655.9463
602.7554, 654.4600
603.2375, 652.6966
603.7196, 650.7627
604.2017, 648.6019
604.6838, 646.6533
605.1660, 644.8871
605.6481, 643.5071
606.1302, 643.3962
606.6123, 644.1612
607.0944, 643.8720
607.5765, 640.7221
608.0587, 637.2552
608.5408, 637.1360
609.0229, 639.4004
609.5050, 640.5939
609.9871, 637.7849
610.4692, 634.2596
610.9514, 632.0030
611.4335, 631.1951
611.9156, 630.4177
612.3977, 629.3847
612.8798, 628.2921
613.3619, 627.2584
613.8441, 626.2402
614.3262, 625.3915
614.8083, 624.8212
615.2904, 624.2759
615.7725, 623.5579
616.2546, 622.6954
616.7368, 621.1148
617.2189, 618.3553
617.7010, 615.4102
618.1831, 614.5159
618.6652, 615.1560
619.1473, 615.2430
619.6295, 613.4836
620.1116, 610.8725
620.5937, 608.1402
621.0758, 605.3663
621.5579, 602.8544
622.0400, 601.0770
622.5222, 599.4072
623.0043, 597.4177
623.4864, 594.9556
623.9685, 592.8375
624.4506, 591.4265
624.9327, 590.1383
625.4149, 588.5422
625.8970, 586.4287
626.3791, 584.7018
626.8612, 583.4673
627.3433, 582.4982
627.8254, 581.5037
628.3076, 580.4856
628.7897, 579.4529
629.2718, 578.2978
629.7539, 577.3090
630.2360, 577.3309
630.7181, 577.9864
631.2003, 578.0743
631.6824, 576.5795
632.1645, 574.6068
632.6466, 572.8494
633.1287, 571.3252
633.6108, 570.1099
634.0930, 569.3071
634.5751, 568.7345
635.0572, 568.3158
635.5393, 568.0367
636.0214, 567.9512
636.5035, 568.2102
636.9857, 568.4733
637.4678, 568.3473
637.9499, 567.6854
638.4320, 567.7784
638.9141, 568.8665
639.3962, 570.2512
639.8784, 570.9484
640.3605, 571.1084
640.8426, 571.4450
641.3247, 572.2765
641.8068, 573.1358
642.2889, 573.4215
642.7711, 573.3534
643.2532, 573.4343
643.7353, 573.8287
644.2174, 574.4811
644.6995, 575.5389
645.1816, 576.9122
645.6638, 578.0419
646.1459, 578.6469
646.6280, 579.1969
647.1101, 579.9457
647.5922, 580.9285
648.0743, 581.2105
648.5565, 580.5165
649.0386, 579.8077
649.5207, 579.8754
650.0028, 580.6324
650.4849, 581.4858
650.9670, 582.4303
651.4492, 583.1423
651.9313, 583.1140
652.4134, 582.6243
652.8955, 582.1956
653.3776, 581.9560
653.8597, 581.8025
654.3419, 581.9516
654.8240, 582.0845
655.3061, 581.7075
655.7882, 580.4879
656.2703, 578.9901
656.7524, 577.0345
657.2346, 574.9040
657.7167, 573.4822
658.1988, 573.0733
658.6809, 572.7184
659.1630, 572.1995
659.6451, 571.4716
660.1273, 570.0214
660.6094, 567.7700
661.0915, 565.9138
661.5736, 565.6570
662.0557, 566.2105
662.5378, 565.8786
663.0200, 564.5760
663.5021, 563.4248
663.9842, 563.8209
664.4663, 564.3928
664.9484, 563.6451
665.4305, 560.6184
665.9127, 558.3507
666.3948, 557.9070
666.8769, 558.4197
667.3590, 559.0488
667.8411, 560.1896
668.3232, 560.5811
668.8054, 559.9423
669.2875, 558.7268
669.7696, 557.5847
670.2517, 556.5089
670.7338, 555.8564
671.2159, 555.9077
671.6981, 556.2084
672.1802, 555.7982
672.6623, 554.9114
673.1444, 554.3807
673.6265, 555.1488
674.1086, 556.0287
674.5908, 556.1155
675.0729, 555.4885
675.5550, 554.8017
676.0371, 554.1344
676.5192, 553.5745
677.0013, 553.1238
677.4835, 552.7673
677.9656, 552.7020
678.4477, 553.0283
678.9298, 553.4666
679.4119, 553.9185
679.8940, 554.3877
680.3762, 554.3549
680.8583, 553.7325
681.3404, 553.0294
681.8225, 552.3846
682.3046, 552.1017
682.7867, 553.1370
683.2689, 556.2151
683.7510, 558.7645
684.2331, 558.2335
684.7152, 556.2787
685.1973, 555.0170
685.6794, 555.7211
686.1616, 556.3049
686.6437, 556.1929
687.1258, 555.7914
687.6079, 555.8709
688.0900, 556.6816
688.5721, 557.2967
689.0543, 557.4094
689.5364, 557.2239
690.0185, 557.3681
690.5006, 557.8277
690.9827, 558.3078
691.4648, 558.8275
691.9470, 559.1854
692.4291, 558.9728
692.9112, 558.2730
693.3933, 557.5555
693.8754, 557.0365
694.3575, 556.6191
694.8397, 556.2107
695.3218, 555.7946
695.8039, 555.6014
696.2860, 555.8380
696.7681, 556.1498
697.2502, 556.3943
697.7324, 556.5947
698.2145, 556.5703
698.6966, 556.2144
699.1787, 555.9449
699.6608, 556.2760
700.1429, 557.0790
700.6251, 557.7031
701.1072, 558.0261
701.5893, 558.3489
702.0714, 559.0773
702.5535, 559.9573
703.0356, 560.5866
703.5178, 560.5654
703.9999, 560.7522
704.4820, 561.8466
704.9641, 563.2377
705.4462, 563.9741
705.9283, 563.7535
706.4105, 563.2465
706.8926, 562.2210
707.3747, 561.1466
707.8568, 561.2878
708.3389, 562.7392
708.8210, 564.1866
709.3032, 565.2664
709.7853, 566.0004
710.2674, 566.3749
710.7495, 566.4220
711.2316, 566.2559
711.7137, 565.5253
712.1959, 564.9454
712.6780, 565.1292
713.1601, 566.0026
713.6422, 566.9242
714.1243, 568.0402
714.6064, 568.8482
715.0886, 569.0738
715.5707, 568.6990
716.0528, 568.4243
716.5349, 568.1498
717.0170, 568.2313
717.4991, 569.1563
717.9813, 570.7581
718.4634, 571.6910
718.9455, 571.9006
719.4276, 571.9250
719.9097, 572.0725
720.3918, 572.3818
720.8740, 572.9896
721.3561, 573.9942
721.8382, 574.8102
722.3203, 575.1006
722.8024, 575.1130
723.2845, 575.0417
723.7667, 574.5491
724.2488, 574.6476
724.7309, 575.6796
725.2130, 576.9323
725.6951, 577.4246
726.1772, 577.0677
726.6594, 577.4620
727.1415, 579.1299
727.6236, 580.7930
728.1057, 580.1640
728.5878, 578.1169
729.0699, 576.9668
729.5521, 577.9521
730.0342, 579.2921
730.5163, 579.6541
730.9984, 579.5676
731.4805, 579.9754
731.9626, 582.0902
732.4448, 583.5198
732.9269, 583.5745
733.4090, 582.7421
733.8911, 582.3104
734.3732, 582.3193
734.8553, 582.5938
735.3375, 583.1335
735.8196, 583.8611
736.3017, 584.7516
736.7838, 585.7257
737.2659, 586.2985
737.7480, 585.6201
738.2302, 584.8520
738.7123, 585.2672
739.1944, 586.6379
739.6765, 587.7813
740.1586, 588.0001
740.6407, 588.1497
741.1229, 588.6896
741.6050, 589.5977
742.0871, 590.0881
742.5692, 589.9867
743.0513, 589.8904
743.5334, 590.1589
744.0156, 590.7374
744.4977, 591.0914
744.9798, 591.2236
745.4619, 591.4276
745.9440, 592.0850
746.4261, 592.8610
746.9083, 593.2615
747.3904, 593.2348
747.8725, 593.3383
748.3546, 593.9667
748.8367, 594.7048
749.3188, 595.2881
749.8010, 595.6744
750.2831, 595.9362
750.7652, 596.1186
751.2473, 596.0917
751.7294, 595.4760
752.2115, 594.2958
752.6937, 594.2962
753.1758, 595.7181
753.6579, 597.4177
754.1400, 598.4449
754.6221, 598.8965
755.1042, 598.8363
755.5864, 598.1528
756.0685, 597.5095
756.5506, 597.2327
757.0327, 597.1979
757.5148, 597.2924
757.9969, 597.7018
758.4791, 597.9083
758.9612, 597.7344
759.4433, 597.5475
759.9254, 597.8713
760.4075, 598.7331
760.8896, 599.4035
761.3718, 599.7418
761.8539, 599.9299
762.3360, 600.0422
762.8181, 600.2034
763.3002, 600.7255
763.7823, 601.9869
764.2645, 603.1140
764.7466, 603.5939
765.2287, 603.6482
765.7108, 603.6177
766.1929, 603.2923
766.6750, 603.2963
767.1572, 603.9023
767.6393, 604.7067
768.1214, 604.7136
768.6035, 603.8165
769.0856, 603.9037
769.5677, 605.8607
770.0499, 608.2452
770.5320, 608.4955
771.0141, 607.3504
771.4962, 606.7126
771.9783, 607.9919
772.4604, 609.3517
772.9426, 609.9971
773.4247, 610.0050
773.9068, 609.4958
774.3889, 607.5184
774.8710, 606.4608
775.3531, 607.0059
775.8353, 608.6133
776.3174, 609.8483
776.7995, 610.7076
777.2816, 611.1595
777.7637, 611.1010
778.2458, 610.7385
778.7280, 610.2221
779.2101, 609.6673
779.6922, 609.4403
780.1743, 609.7621
780.6564, 610.4115
781.1385, 611.6252
781.6207, 613.1609
782.1028, 613.8959
782.5849, 612.9055
783.0670, 612.5560
783.5491, 613.8675
784.0313, 616.1782
784.5134, 616.6168
784.9955, 615.1479
785.4776, 613.8766
785.9597, 613.9313
786.4418, 614.6553
786.9240, 615.1373
787.4061, 615.4045
787.8882, 615.5546
788.3703, 615.6152
788.8524, 615.5873
789.3345, 615.1817
789.8167, 614.5644
790.2988, 614.9755
790.7809, 617.2875
791.2630, 619.0345
791.7451, 619.1313
792.2272, 618.0633
792.7094, 618.1345
793.1915, 619.2977
793.6736, 620.3093
794.1557, 620.1398
794.6378, 619.6104
795.1199, 619.8919
795.6021, 620.7947
796.0842, 621.4400
796.5663, 621.0569
797.0484, 620.6992
797.5305, 620.9798
798.0126, 621.7930
798.4948, 622.1354
798.9769, 621.7769
799.4590, 621.5029
799.9411, 621.5919
800.4232, 622.0375
800.9053, 623.1813
801.3875, 624.8938
801.8696, 625.8738
802.3517, 624.5240
802.8338, 622.6560
803.3159, 621.9916
803.7980, 622.4398
804.2802, 623.2141
804.7623, 624.5468
805.2444, 625.6353
805.7265, 625.9635
806.2086, 625.6815
806.6907, 626.3351
807.1729, 628.2083
807.6550, 629.7652
808.1371, 630.1905
808.6192, 629.8161
809.1013, 629.3087
809.5834, 628.7387
810.0656, 628.4999
810.5477, 629.0716
811.0298, 629.8563
811.5119, 630.5794
811.9940, 631.2031
812.4761, 631.5205
812.9583, 631.1788
813.4404, 630.9730
813.9225, 631.2264
814.4046, 631.8328
814.8867, 632.1415
815.3688, 632.1432
815.8510, 631.9988
816.3331, 631.6248
816.8152, 631.2421
817.2973, 631.2181
817.7794, 631.5080
818.2615, 631.9635
818.7437, 632.6580
819.2258, 633.3346
819.7079, 634.0934
820.1900, 634.7940
820.6721, 634.5469
821.1542, 632.6281
821.6364, 631.3726
822.1185, 631.7791
822.6006, 633.2946
823.0827, 634.2531
823.5648, 634.6653
824.0469, 634.6540
824.5291, 633.9589
825.0112, 633.1373
825.4933, 632.9498
825.9754, 633.1143
826.4575, 632.7181
826.9396, 630.0801
827.4218, 628.5025
827.9039, 629.2023
828.3860, 631.5255
828.8681, 633.4184
829.3502, 634.9498
829.8323, 635.6752
830.3145, 635.2195
830.7966, 634.1450
831.2787, 633.3156
831.7608, 632.7511
832.2429, 632.5458
832.7250, 632.9170
833.2072, 633.4731
833.6893, 634.1617
834.1714, 634.8767
834.6535, 635.3242
835.1356, 635.3873
835.6177, 635.4167
836.0999, 635.5582
836.5820, 635.6297
837.0641, 635.0074
837.5462, 633.7839
838.0283, 633.0231
838.5104, 633.1374
838.9926, 633.7158
839.4747, 634.6357
839.9568, 635.6229
840.4389, 636.2110
840.9210, 635.9907
841.4031, 635.6312
841.8853, 635.0218
842.3674, 634.4706
842.8495, 634.4740
843.3316, 635.1362
843.8137, 635.8329
844.2958, 636.5087
844.7780, 637.0641
845.2601, 637.5179
845.7422, 637.7225
846.2243, 637.2103
846.7064, 635.4808
847.1885, 633.9736
847.6707, 633.6729
848.1528, 633.9813
848.6349, 634.2181
849.1170, 634.4084
849.5991, 634.3414
850.0812, 633.9113
850.5634, 633.4124
851.0455, 633.1910
851.5276, 633.2193
852.0097, 633.2512
852.4918, 633.2657
852.9739, 633.2380
853.4561, 633.0980
853.9382, 632.9272
854.4203, 632.8256
854.9024, 632.8364
855.3845, 632.8104
855.8666, 632.7393
856.3488, 632.5815
856.8309, 632.2625
857.3130, 631.7230
857.7951, 631.3868
858.2772, 631.2684
858.7593, 631.2042
859.2415, 631.1586
859.7236, 631.0245
860.2057, 630.5008
860.6878, 629.5704
861.1699, 628.8582
861.6520, 629.0282
862.1342, 629.2105
862.6163, 628.8143
863.0984, 627.8281
863.5805, 626.9470
864.0626, 626.2381
864.5447, 625.4940
865.0269, 624.6062
865.5090, 623.6013
865.9911, 622.5054
866.4732, 621.3595
866.9553, 620.3712
867.4374, 619.7207
867.9196, 619.2401
868.4017, 618.8853
868.8838, 618.6248
869.3659, 618.2999
869.8480, 617.9030
870.3301, 617.3947
870.8123, 616.6393
871.2944, 615.7995
871.7765, 615.6674
872.2586, 616.1393
872.7407, 616.1136
873.2228, 614.8290
873.7050, 613.1339
874.1871, 611.9324
874.6692, 610.9962
875.1513, 609.8064
875.6334, 607.3759
876.1155, 605.7883
876.5977, 605.6442
877.0798, 606.3437
877.5619, 607.0082
878.0440, 607.6932
878.5261, 607.5525
879.0082, 606.2747
879.4904, 604.4964
879.9725, 602.7057
880.4546, 601.0728
880.9367, 599.9789
881.4188, 599.9248
881.9009, 599.5303
882.3831, 597.9479
882.8652, 595.9968
883.3473, 594.4708
883.8294, 593.2927
884.3115, 592.9678
884.7936, 593.7719
885.2758, 594.4905
885.7579, 593.4854
886.2400, 591.5388
886.7221, 590.5188
887.2042, 590.7029
887.6863, 590.9039
888.1685, 590.6776
888.6506, 590.0402
889.1327, 588.7977
889.6148, 586.7871
890.0969, 585.5145
890.5790, 585.1670
891.0612, 585.0119
891.5433, 584.6117
892.0254, 584.0350
892.5075, 583.5013
892.9896, 583.0203
893.4717, 582.7355
893.9539, 582.9465
894.4360, 583.1874
894.9181, 583.2659
895.4002, 583.1351
895.8823, 582.5784
896.3644, 581.5853
896.8466, 580.1625
897.3287, 577.9876
897.8108, 575.6614
898.2929, 575.0687
898.7750, 575.9270
899.2571, 576.3089
899.7393, 575.0432
900.2214, 573.6972
900.7035, 573.7771
901.1856, 574.6318
901.6677, 575.1664
902.1498, 574.8685
902.6320, 574.5906
903.1141, 574.4061
903.5962, 574.2177
904.0783, 573.8690
904.5604, 573.3693
905.0425, 572.9630
905.5247, 572.7084
906.0068, 572.4004
906.4889, 571.6971
906.9710, 570.9178
907.4531, 570.3730
907.9352, 570.0562
908.4174, 570.2629
908.8995, 571.6272
909.3816, 572.8133
909.8637, 572.8720
910.3458, 571.8098
910.8279, 571.0439
911.3101, 570.5667
911.7922, 570.6713
912.2743, 572.3445
912.7564, 574.1824
913.2385, 574.3669
913.7206, 573.0795
914.2028, 572.1361
914.6849, 572.1240
915.1670, 572.4925
915.6491, 573.0338
916.1312, 573.8367
916.6133, 575.4822
917.0955, 578.0029
917.5776, 580.0217
918.0597, 580.8305
918.5418, 581.2426
919.0239, 582.3117
919.5060, 583.7283
919.9882, 584.8738
920.4703, 585.1252
920.9524, 585.6641
921.4345, 586.9576
921.9166, 588.3772
922.3987, 589.0009
922.8809, 588.7424
923.3630, 588.9711
923.8451, 589.8406
924.3272, 591.1783
924.8093, 593.3582
925.2914, 595.6224
925.7736, 596.7108
926.2557, 596.1953
926.7378, 596.2062
927.2199, 597.6156
927.7020, 599.5084
928.1841, 601.6340
928.6663, 603.9864
929.1484, 605.4123
929.6305, 605.8735
930.1126, 606.5670
930.5947, 608.4660
931.0768, 610.9125
931.5590, 613.3294
932.0411, 615.6077
932.5232, 617.2404
933.0053, 617.1802
933.4874, 617.5696
933.9695, 619.1074
934.4517, 621.3588
934.9338, 623.2831
935.4159, 624.8573
935.8980, 626.6633
936.3801, 628.8830
936.8622, 631.2410
937.3444, 633.3112
937.8265, 635.2933
938.3086, 637.5632
938.7907, 640.6451
939.2728, 643.0867
939.7549, 644.0638
940.2371, 644.8903
940.7192, 646.7016
941.2013, 649.5165
941.6834, 652.4667
942.1655, 655.5328
942.6476, 658.2656
943.1298, 659.8033
943.6119, 661.0734
944.0940, 663.2180
944.5761, 666.2838
945.0582, 669.0937
945.5403, 670.8708
946.0225, 673.0004
946.5046, 676.0807
946.9867, 679.8026
947.4688, 682.8556
947.9509, 685.2629
948.4330, 687.9666
948.9152, 691.6461
949.3973, 695.3916
949.8794, 698.2383
950.3615, 700.5460
950.8436, 702.9627
951.3257, 705.3859
951.8079, 708.3223
952.2900, 712.0150
952.7721, 715.9313
953.2542, 719.2618
953.7363, 722.1500
954.2184, 725.8487
954.7006, 730.5909
955.1827, 735.1881
955.6648, 738.1806
956.1469, 741.0242
956.6290, 745.0490
957.1111, 750.5604
957.5933, 755.9346
958.0754, 760.7496
958.5575, 766.1810
959.0396, 773.0654
959.5217, 780.8272
960.0038, 787.3107
960.4860, 792.8109
960.9681, 798.8876
961.4502, 806.3064
961.9323, 814.5422
962.4144, 823.5458
962.8965, 833.0673
963.3787, 842.3280
963.8608, 851.1742
964.3429, 860.2252
964.8250, 869.6002
965.3071, 879.2513
965.7892, 888.7787
966.2714, 898.4450
966.7535, 909.3007
967.2356, 921.5912
967.7177, 933.7900
968.1998, 944.8060
968.6819, 955.4841
969.1641, 966.2619
969.6462, 977.2860
970.1283, 988.1513
970.6104, 998.9272
971.0925, 1009.906
971.5746, 1021.505
972.0568, 1033.425
972.5389, 1045.718
973.0210, 1058.054
973.5031, 1068.990
973.9852, 1076.453
974.4673, 1084.221
974.9495, 1094.018
975.4316, 1104.443
975.9137, 1112.842
976.3958, 1119.098
976.8779, 1125.278
977.3600, 1131.878
977.8422, 1137.753
978.3243, 1141.883
978.8064, 1144.567
979.2885, 1146.246
979.7706, 1147.196
980.2527, 1145.983
980.7349, 1141.232
981.2170, 1135.933
981.6991, 1131.860
982.1812, 1128.712
982.6633, 1124.450
983.1454, 1119.082
983.6276, 1112.813
984.1097, 1105.724
984.5918, 1097.763
985.0739, 1088.759
985.5560, 1078.902
986.0381, 1068.743
986.5203, 1058.113
987.0024, 1047.740
987.4845, 1037.867
987.9666, 1028.010
988.4487, 1017.209
988.9308, 1005.902
989.4130, 995.2298
989.8951, 985.5320
990.3772, 975.4315
990.8593, 963.2274
991.3414, 951.0536
991.8235, 940.6827
992.3057, 932.1493
992.7878, 922.9802
993.2699, 913.0139
993.7520, 902.8712
994.2341, 892.4872
994.7162, 882.3905
995.1984, 873.9720
995.6805, 866.6642
996.1626, 859.1684
996.6447, 850.5081
997.1268, 842.1150
997.6089, 834.1617
998.0911, 826.6055
998.5732, 819.5925
999.0553, 813.0876
999.5374, 806.3367
1000.020, 799.2902
1000.502, 792.6263
1000.984, 787.3449
1001.466, 782.6414
1001.948, 777.7579
1002.430, 772.6275
1002.912, 767.5779
1003.394, 762.5826
1003.876, 757.8242
1004.359, 753.3669
1004.841, 749.2058
1005.323, 745.6497
1005.805, 742.5198
1006.287, 739.1999
1006.769, 734.9662
1007.251, 731.0023
1007.733, 728.3195
1008.216, 726.1133
1008.698, 723.2543
1009.180, 719.3884
1009.662, 716.1517
1010.144, 713.7192
1010.626, 711.4725
1011.108, 708.6827
1011.590, 705.8063
1012.072, 703.6906
1012.555, 702.3240
1013.037, 700.7922
1013.519, 698.7503
1014.001, 696.4933
1014.483, 694.0140
1014.965, 691.4073
1015.447, 689.1492
1015.929, 687.1692
1016.411, 684.6886
1016.894, 681.1384
1017.376, 677.7730
1017.858, 675.7119
1018.340, 674.5076
1018.822, 673.7496
1019.304, 673.9674
1019.786, 673.0178
1020.268, 670.6609
1020.751, 667.7972
1021.233, 664.8547
1021.715, 661.9908
1022.197, 659.7722
1022.679, 658.1086
1023.161, 656.4769
1023.643, 654.3369
1024.125, 652.4969
1024.607, 651.7228
1025.090, 651.2912
1025.572, 649.3259
1026.054, 645.6182
1026.536, 643.4789
1027.018, 643.7873
1027.500, 644.4167
1027.982, 642.9900
1028.464, 640.6662
1028.947, 638.7908
1029.429, 637.6956
1029.911, 636.4915
1030.393, 635.0807
1030.875, 633.6107
1031.357, 632.1063
1031.839, 630.6464
1032.321, 629.4748
1032.803, 628.6030
1033.286, 628.0109
1033.768, 627.7513
1034.250, 627.7180
1034.732, 628.4866
1035.214, 629.1332
1035.696, 628.1486
1036.178, 625.0284
1036.660, 623.0621
1037.143, 622.5576
1037.625, 622.4366
1038.107, 621.6582
1038.589, 620.6663
1039.071, 620.0471
1039.553, 619.8113
1040.035, 619.5305
1040.517, 618.9919
1041.000, 618.5842
1041.482, 618.4439
1041.964, 618.4873
1042.446, 618.6412
1042.928, 618.8319
1043.410, 618.6093
1043.892, 617.5215
1044.374, 616.9778
1044.856, 618.8425
1045.339, 620.9299
1045.821, 621.0004
1046.303, 618.5473
1046.785, 618.1944
1047.267, 620.2422
1047.749, 621.7537
1048.231, 619.7750
1048.713, 616.8369
1049.195, 616.3126
1049.677, 617.5501
1050.160, 618.6370
1050.642, 618.5750
1051.124, 619.0615
1051.606, 620.6893
1052.088, 622.3066
1052.570, 621.8974
1053.052, 620.0966
1053.534, 619.5651
1054.017, 620.6482
1054.499, 621.7711
1054.981, 621.8513
1055.463, 621.7516
1055.945, 621.9293
1056.427, 622.3918
1056.909, 623.2984
1057.391, 624.7188
1057.874, 625.8546
1058.356, 626.4653
1058.838, 626.6237
1059.320, 625.9249
1059.802, 625.0358
1060.284, 624.8732
1060.766, 625.6973
1061.248, 627.3113
1061.730, 630.1166
1062.213, 632.8582
1062.695, 634.6580
1063.177, 635.6622
1063.659, 636.1186
1064.141, 636.2048
1064.623, 636.7674
1065.105, 638.7286
1065.587, 640.6641
1066.070, 641.8009
1066.552, 642.6991
1067.034, 644.2094
1067.516, 646.3395
1067.998, 648.5604
1068.480, 650.8204
1068.962, 652.8673
1069.444, 654.3740
1069.927, 655.6279
1070.409, 656.8856
1070.891, 658.1558
1071.373, 659.4666
1071.855, 660.8621
1072.337, 662.1992
1072.819, 663.4283
1073.301, 664.6173
1073.783, 665.9984
1074.266, 667.4333
1074.748, 668.5673
1075.230, 669.0316
1075.712, 669.9778
1076.194, 672.3692
1076.676, 674.5917
1077.158, 675.4650
1077.640, 675.1884
1078.122, 676.2672
1078.604, 678.4694
1079.087, 679.8396
1079.569, 678.3868
1080.051, 676.7050
1080.533, 676.4252
1081.015, 676.9169
1081.497, 676.9449
1081.979, 676.3495
1082.461, 676.1064
1082.944, 676.3770
1083.426, 676.3972
1083.908, 675.0938
1084.390, 673.3508
1084.872, 672.4175
1085.354, 672.2454
1085.836, 671.3421
1086.318, 668.8720
1086.801, 666.9271
1087.283, 666.3226
1087.765, 665.9854
1088.247, 663.4738
1088.729, 659.6690
1089.211, 657.0081
1089.693, 656.1927
1090.175, 655.4266
1090.657, 653.8893
1091.140, 652.2408
1091.622, 650.8477
1092.104, 649.6653
1092.586, 648.4194
1093.068, 647.0880
1093.550, 645.5043
1094.032, 643.6126
1094.514, 641.3972
1094.997, 638.4362
1095.479, 635.3495
1095.961, 632.8744
1096.443, 630.9069
1096.925, 630.1373
1097.407, 630.7479
1097.889, 631.3571
1098.371, 630.8381
1098.854, 629.7299
1099.336, 628.8730
1099.818, 628.0523
1100.300, 626.3686
1100.782, 622.8596
1101.264, 619.7455
1101.746, 617.2440
1102.228, 615.3837
1102.710, 614.7121
1103.193, 614.6352
1103.675, 613.4504
1104.157, 610.9698
1104.639, 608.8357
1105.121, 607.5605
1105.603, 607.1009
1106.085, 607.8426
1106.567, 609.1183
1107.049, 608.6944
1107.531, 606.7620
1108.014, 604.8746
1108.496, 603.4065
1108.978, 602.1208
1109.460, 600.6336
1109.942, 599.4083
1110.424, 599.0245
1110.906, 599.5165
1111.388, 599.4107
1111.871, 598.6917
1112.353, 597.5373
1112.835, 595.6730
1113.317, 593.8842
1113.799, 593.3880
1114.281, 593.4752
1114.763, 592.9206
1115.245, 590.9398
1115.728, 589.6754
1116.210, 589.3431
1116.692, 589.0572
1117.174, 587.8720
1117.656, 586.3497
1118.138, 585.6581
1118.620, 585.5950
1119.102, 585.2337
1119.584, 584.1719
1120.067, 582.8102
1120.549, 581.0165
1121.031, 579.2302
1121.513, 578.0732
1121.995, 577.4128
1122.477, 576.9136
1122.959, 576.5220
1123.441, 575.9850
1123.924, 574.8651
1124.406, 573.9179
1124.888, 573.5216
1125.370, 573.4939
1125.852, 573.5554
1126.334, 573.6373
1126.816, 572.7551
1127.298, 570.5037
1127.781, 568.2385
1128.263, 567.0338
1128.745, 566.2007
1129.227, 565.1387
1129.709, 563.8486
1130.191, 562.9094
1130.673, 562.3125
1131.155, 562.1476
1131.637, 562.7475
1132.120, 563.2389
1132.602, 562.5961
1133.084, 561.2913
1133.566, 559.9528
1134.048, 558.5431
1134.530, 557.4149
1135.012, 556.5435
1135.494, 556.0341
1135.976, 556.4890
1136.458, 556.9841
1136.941, 555.5172
1137.423, 552.9277
1137.905, 551.2623
1138.387, 552.0847
1138.869, 552.3738
1139.351, 551.9553
1139.833, 551.0450
1140.315, 549.6141
1140.798, 547.9278
1141.280, 546.4986
1141.762, 545.3769
1142.244, 544.7735
1142.726, 545.5038
1143.208, 545.7968
1143.690, 545.3437
1144.172, 544.2005
1144.655, 541.9533
1145.137, 539.0615
1145.619, 537.4888
1146.101, 537.5070
1146.583, 537.2000
1147.065, 535.2644
1147.547, 532.9906
1148.029, 530.7995
1148.511, 528.8259
1148.994, 527.6774
1149.476, 527.2234
1149.958, 526.1269
1150.440, 523.8854
1150.922, 521.9061
1151.404, 521.7386
1151.886, 521.7552
1152.368, 520.4498
1152.851, 518.0400
1153.333, 517.0801
1153.815, 517.5734
1154.297, 517.4023
1154.779, 515.4995
1155.261, 513.2568
1155.743, 511.9545
1156.225, 511.0514
1156.708, 509.9529
1157.190, 508.6143
1157.672, 507.1803
1158.154, 505.6447
1158.636, 504.0930
1159.118, 502.5681
1159.600, 501.0963
1160.082, 499.7715
1160.564, 498.5184
1161.047, 497.1724
1161.529, 495.4151
1162.011, 494.4192
1162.493, 494.4027
1162.975, 494.2637
1163.457, 492.9477
1163.939, 491.1367
1164.421, 489.6123
1164.903, 488.4049
1165.385, 487.5754
1165.868, 487.4539
1166.350, 487.0976
1166.832, 486.3897
1167.314, 485.5522
1167.796, 484.8365
1168.278, 484.1510
1168.760, 483.3056
1169.242, 482.3202
1169.725, 481.4100
1170.207, 480.4930
1170.689, 479.9301
1171.171, 479.9334
1171.653, 480.0258
1172.135, 479.6118
1172.617, 478.7495
1173.099, 477.3795
1173.582, 475.5218
1174.064, 473.9621
1174.546, 473.2348
1175.028, 472.5475
1175.510, 471.7359
1175.992, 470.8172
1176.474, 469.8727
1176.956, 468.8574
1177.438, 467.5623
1177.921, 465.8755
1178.403, 464.5732
1178.885, 464.3682
1179.367, 464.1590
1179.849, 463.4827
1180.331, 462.5118
1180.813, 461.8788
1181.295, 461.4453
1181.778, 460.6415
1182.260, 459.2069
1182.742, 457.7832
1183.224, 456.3829
1183.706, 455.3853
1184.188, 455.2001
1184.670, 455.5665
1185.152, 454.9813
1185.635, 453.6022
1186.117, 452.2236
1186.599, 451.1769
1187.081, 450.1200
1187.563, 448.6469
1188.045, 447.3370
1188.527, 446.7411
1189.009, 446.7796
1189.491, 446.1748
1189.974, 445.0446
1190.456, 444.2552
1190.938, 444.6994
1191.420, 444.9650
1191.902, 444.1437
1192.384, 442.9473
1192.866, 442.0349
1193.348, 441.4068
1193.830, 441.0296
1194.313, 440.8652
1194.795, 440.5009
1195.277, 439.3359
1195.759, 438.2943
1196.241, 438.0070
1196.723, 438.0735
1197.205, 438.1392
1197.687, 438.2262
1198.169, 437.2616
1198.652, 435.2587
1199.134, 433.6313
1199.616, 433.5742
1200.098, 433.9572
1200.580, 434.5066
1201.062, 434.8778
1201.544, 434.4231
1202.026, 433.1153
1202.509, 431.8971
1202.991, 430.8467
1203.473, 430.4760
1203.955, 431.8973
1204.437, 433.3729
1204.919, 433.8597
1205.401, 433.5278
1205.883, 432.4691
1206.365, 430.6348
1206.848, 430.1913
1207.330, 431.5081
1207.812, 432.6669
1208.294, 431.9173
1208.776, 430.7466
1209.258, 429.9829
1209.740, 429.6683
1210.222, 430.1235
1210.705, 431.3693
1211.187, 431.9585
1211.669, 431.5921
1212.151, 431.0250
1212.633, 430.8712
1213.115, 430.7435
1213.597, 430.2375
1214.079, 429.5264
1214.562, 429.3292
1215.044, 429.6321
1215.526, 429.7440
1216.008, 429.4760
1216.490, 429.1563
1216.972, 429.0656
1217.454, 428.9947
1217.936, 428.7525
1218.418, 428.3808
1218.901, 428.0584
1219.383, 427.7890
1219.865, 427.8871
1220.347, 428.5469
1220.829, 429.1476
1221.311, 429.4217
1221.793, 429.2520
1222.275, 428.3755
1222.757, 426.9675
1223.240, 426.2403
1223.722, 426.1667
1224.204, 426.4152
1224.686, 427.0416
1225.168, 427.4897
1225.650, 427.0883
1226.132, 426.6550
1226.614, 427.0161
1227.096, 427.9849
1227.579, 427.5678
1228.061, 425.9489
1228.543, 424.7628
1229.025, 424.8300
1229.507, 425.0107
1229.989, 424.7655
1230.471, 424.2222
1230.953, 423.3081
1231.436, 422.1427
1231.918, 422.1967
1232.400, 423.2683
1232.882, 423.9642
1233.364, 423.4049
1233.846, 422.9356
1234.328, 423.6476
1234.810, 424.2825
1235.292, 423.7147
1235.775, 422.1922
1236.257, 421.7932
1236.739, 422.3434
1237.221, 422.8918
1237.703, 423.0164
1238.185, 423.0861
1238.667, 423.2938
1239.149, 423.4362
1239.632, 423.3792
1240.114, 423.1267
1240.596, 422.4767
1241.078, 421.6014
1241.560, 421.2225
1242.042, 422.5543
1242.524, 423.0425
1243.006, 421.1974
1243.489, 419.5131
1243.971, 420.4803
1244.453, 423.2324
1244.935, 424.0616
1245.417, 423.3747
1245.899, 422.6776
1246.381, 422.6852
1246.863, 422.6193
1247.345, 422.4517
1247.828, 422.0502
1248.310, 420.8786
1248.792, 419.5244
1249.274, 420.0154
1249.756, 421.7723
1250.238, 422.7599
1250.720, 421.4302
1251.202, 420.5255
1251.684, 420.3182
1252.167, 420.4108
1252.649, 420.6142
1253.131, 420.7893
1253.613, 420.6646
1254.095, 420.2706
1254.577, 419.7172
1255.059, 418.4947
1255.541, 418.2523
1256.023, 419.3475
1256.506, 420.4828
1256.988, 420.4901
1257.470, 419.8691
1257.952, 419.1952
1258.434, 418.5037
1258.916, 417.8205
1259.398, 417.0244
1259.880, 416.5446
1260.363, 416.3732
1260.845, 416.7410
1261.327, 418.7060
1261.809, 420.5824
1262.291, 420.2053
1262.773, 418.3962
1263.255, 417.5274
1263.737, 417.9952
1264.219, 417.8191
1264.702, 416.8232
1265.184, 415.8709
1265.666, 415.5240
1266.148, 415.5815
1266.630, 416.3009
1267.112, 417.1679
1267.594, 417.0047
1268.076, 415.6938
1268.559, 415.3929
1269.041, 416.2343
1269.523, 416.9860
1270.005, 416.7632
1270.487, 416.2492
1270.969, 415.6527
1271.451, 415.1122
1271.933, 414.8181
1272.416, 414.7610
1272.898, 414.9740
1273.380, 415.4030
1273.862, 415.4303
1274.344, 414.0493
1274.826, 413.0357
1275.308, 413.1411
1275.790, 413.7162
1276.272, 414.1246
1276.755, 414.3058
1277.237, 413.8905
1277.719, 412.9496
1278.201, 412.0704
1278.683, 411.3214
1279.165, 410.9928
1279.647, 411.1974
1280.129, 411.6737
1280.611, 412.3321
1281.094, 412.9655
1281.576, 412.9573
1282.058, 412.4560
1282.540, 412.3315
1283.022, 413.2140
1283.504, 413.7071
1283.986, 413.6554
1284.468, 413.2471
1284.950, 412.2697
1285.433, 411.3270
1285.915, 411.5415
1286.397, 412.5403
1286.879, 412.6822
1287.361, 411.4679
1287.843, 411.1439
1288.325, 412.0538
1288.807, 412.6493
1289.290, 410.8229
1289.772, 408.8203
1290.254, 408.7987
1290.736, 410.0848
1291.218, 410.8166
1291.700, 410.9314
1292.182, 411.3400
1292.664, 412.0988
1293.146, 412.9219
1293.629, 414.1743
1294.111, 414.8042
1294.593, 413.5930
1295.075, 411.8013
1295.557, 410.9485
1296.039, 410.9348
1296.521, 411.0845
1297.003, 411.3056
1297.486, 411.2409
1297.968, 410.0659
1298.450, 409.6053
1298.932, 410.6723
1299.414, 411.9945
1299.896, 412.1386
1300.378, 411.4386
1300.860, 410.6373
1301.343, 409.8548
1301.825, 409.3329
##END=



