##NAMES=Fupingqiuite
##RRUFFID=R160033
##IDEAL CHEMISTRY=(Na,Mn^2+^,[box])_2_Mn^2+^_2_Fe^3+^(PO_4_)_3_
##LOCALITY=Nancy Pegmatite, Argentina
##OWNER=RRUFF
##SOURCE=Jaroslav Hyrŝl
##DESCRIPTION=Brown crystals, associated with light brown fillowite.
##STATUS=The identification of this mineral is not yet confirmed.
##URL=rruff.info/R160033
##MEASURED CHEMISTRY=(Na_1.15_Mn^2+^_0. 36_Ca_0.05_)_Σ1.56_(Mn^2+^_1.20_Mg_0.41_Fe^2+^_0.39_)_Σ2.0_(Fe^3+^_0.78_Al_0.22_)_Σ1.0_(PO_4_)_3_
90.59570, 2127.019
91.07782, 2127.974
91.55994, 2128.417
92.04205, 2129.979
92.52417, 2129.819
93.00629, 2125.858
93.48840, 2107.160
93.97052, 2063.278
94.45264, 1994.869
94.93475, 1929.207
95.41687, 1869.730
95.89898, 1818.638
96.38110, 1773.131
96.86321, 1731.150
97.34533, 1690.581
97.82745, 1647.921
98.30956, 1607.190
98.79168, 1568.472
99.27380, 1531.206
99.75591, 1494.083
100.2380, 1457.478
100.7201, 1423.215
101.2023, 1391.633
101.6844, 1363.584
102.1665, 1339.920
102.6486, 1321.660
103.1307, 1306.549
103.6128, 1293.064
104.0950, 1281.218
104.5771, 1270.039
105.0592, 1258.166
105.5413, 1246.155
106.0234, 1235.132
106.5055, 1225.742
106.9877, 1217.645
107.4698, 1209.945
107.9519, 1205.608
108.4340, 1197.418
108.9161, 1182.108
109.3982, 1160.772
109.8804, 1136.331
110.3625, 1110.448
110.8446, 1082.369
111.3267, 1057.358
111.8088, 1035.160
112.2909, 1015.745
112.7731, 999.5410
113.2552, 986.4713
113.7373, 975.7252
114.2194, 966.3923
114.7015, 959.4508
115.1836, 952.1423
115.6658, 944.0490
116.1479, 935.7660
116.6300, 927.8353
117.1121, 920.4234
117.5942, 913.4275
118.0763, 906.8575
118.5584, 901.3799
119.0406, 894.9420
119.5227, 886.1461
120.0048, 875.8073
120.4869, 865.9664
120.9690, 857.2051
121.4511, 849.9953
121.9333, 844.4984
122.4154, 840.9042
122.8975, 838.6564
123.3796, 837.8903
123.8617, 838.8377
124.3438, 839.2274
124.8260, 838.0744
125.3081, 835.7389
125.7902, 832.1798
126.2723, 827.1315
126.7544, 821.1906
127.2365, 815.6999
127.7187, 810.6237
128.2008, 806.1265
128.6829, 801.9027
129.1650, 798.2138
129.6471, 795.5782
130.1292, 794.5285
130.6114, 794.8890
131.0935, 794.0187
131.5756, 791.0837
132.0577, 787.6302
132.5398, 784.5732
133.0219, 781.3810
133.5041, 776.6387
133.9862, 768.8164
134.4683, 757.0590
134.9504, 747.8008
135.4325, 741.6973
135.9146, 736.9796
136.3968, 733.1141
136.8789, 729.8726
137.3610, 726.6907
137.8431, 722.8485
138.3252, 718.0610
138.8073, 714.1725
139.2895, 712.3853
139.7716, 711.1075
140.2537, 708.5026
140.7358, 704.1419
141.2179, 698.5866
141.7000, 692.2495
142.1821, 685.2283
142.6643, 678.1391
143.1464, 671.0208
143.6285, 663.9921
144.1106, 657.3849
144.5927, 651.1066
145.0748, 645.5925
145.5570, 641.1658
146.0391, 637.8304
146.5212, 634.8907
147.0033, 631.9740
147.4854, 629.1329
147.9675, 625.7406
148.4497, 621.3554
148.9318, 616.5107
149.4139, 611.1711
149.8960, 605.4128
150.3781, 599.7666
150.8602, 595.1620
151.3424, 592.0905
151.8245, 588.9583
152.3066, 585.4445
152.7887, 581.8969
153.2708, 578.5072
153.7529, 575.3751
154.2351, 572.5228
154.7172, 570.0363
155.1993, 568.6628
155.6814, 566.7640
156.1635, 564.1877
156.6456, 561.0756
157.1278, 557.5906
157.6099, 553.8040
158.0920, 549.7318
158.5741, 545.4130
159.0562, 540.0617
159.5383, 535.3493
160.0205, 531.9460
160.5026, 529.5194
160.9847, 527.3095
161.4668, 524.9174
161.9489, 522.4142
162.4310, 520.1563
162.9131, 518.3947
163.3953, 516.6278
163.8774, 514.7735
164.3595, 512.7894
164.8416, 510.2116
165.3237, 506.2647
165.8058, 501.6219
166.2880, 497.8356
166.7701, 495.3138
167.2522, 493.5009
167.7343, 491.8995
168.2164, 490.5580
168.6985, 489.2112
169.1807, 487.8841
169.6628, 486.4305
170.1449, 484.5779
170.6270, 482.0643
171.1091, 479.1905
171.5912, 476.7072
172.0734, 474.9330
172.5555, 472.9589
173.0376, 470.2459
173.5197, 467.1652
174.0018, 464.2053
174.4839, 461.6310
174.9661, 459.4248
175.4482, 457.5352
175.9303, 456.3777
176.4124, 455.0844
176.8945, 453.3663
177.3766, 451.3568
177.8588, 449.3268
178.3409, 447.4686
178.8230, 445.7804
179.3051, 444.0117
179.7872, 442.1822
180.2693, 440.2508
180.7515, 438.1139
181.2336, 435.8454
181.7157, 433.6212
182.1978, 431.5670
182.6799, 429.6693
183.1620, 428.1343
183.6441, 427.2832
184.1263, 426.4205
184.6084, 425.2078
185.0905, 423.6476
185.5726, 421.9397
186.0547, 420.2713
186.5368, 418.6528
187.0190, 416.9449
187.5011, 414.9532
187.9832, 413.0269
188.4653, 411.5656
188.9474, 410.5925
189.4296, 409.5572
189.9117, 407.8938
190.3938, 405.6103
190.8759, 403.2602
191.3580, 400.2794
191.8401, 397.5559
192.3223, 396.3286
192.8044, 396.9394
193.2865, 397.9781
193.7686, 398.2269
194.2507, 397.8489
194.7328, 397.1121
195.2150, 395.9586
195.6971, 394.5183
196.1792, 392.9353
196.6613, 391.0130
197.1434, 389.4245
197.6255, 389.0313
198.1077, 389.3851
198.5898, 389.3340
199.0719, 387.9839
199.5540, 385.6604
200.0361, 383.8079
200.5182, 382.7420
201.0004, 381.7696
201.4825, 380.3761
201.9646, 378.7540
202.4467, 377.4042
202.9288, 376.7821
203.4109, 376.8377
203.8930, 376.7295
204.3752, 376.4238
204.8573, 375.9659
205.3394, 375.3950
205.8215, 374.6987
206.3036, 373.8308
206.7857, 372.7168
207.2679, 371.3399
207.7500, 370.0567
208.2321, 368.9559
208.7142, 367.8718
209.1963, 366.7235
209.6784, 365.5438
210.1606, 364.4184
210.6427, 363.4071
211.1248, 362.5031
211.6069, 361.8312
212.0890, 361.6055
212.5711, 361.3886
213.0533, 360.9959
213.5354, 360.4482
214.0175, 359.8942
214.4996, 359.5079
214.9817, 359.3785
215.4638, 358.7226
215.9460, 357.1593
216.4281, 355.5335
216.9102, 354.1145
217.3923, 352.9845
217.8744, 352.2402
218.3565, 352.0537
218.8387, 352.5291
219.3208, 352.5586
219.8029, 351.8313
220.2850, 350.9694
220.7671, 350.3727
221.2492, 350.0387
221.7314, 349.7061
222.2135, 349.1941
222.6956, 348.4683
223.1777, 347.4311
223.6598, 345.6891
224.1419, 343.9242
224.6240, 342.6453
225.1062, 341.8733
225.5883, 341.3585
226.0704, 340.9597
226.5525, 340.6734
227.0346, 340.4023
227.5167, 340.2936
227.9989, 340.1042
228.4810, 339.5064
228.9631, 338.4729
229.4452, 337.5000
229.9273, 337.0314
230.4094, 336.9123
230.8916, 336.7019
231.3737, 336.2975
231.8558, 335.7893
232.3379, 335.3756
232.8200, 335.1152
233.3021, 334.5258
233.7843, 332.7194
234.2664, 330.4789
234.7485, 329.0795
235.2306, 329.2817
235.7127, 330.0889
236.1948, 330.0817
236.6770, 329.0629
237.1591, 328.0446
237.6412, 327.5985
238.1233, 327.4271
238.6054, 327.2142
239.0875, 326.8274
239.5697, 326.4098
240.0518, 326.2530
240.5339, 326.4881
241.0160, 326.5567
241.4981, 326.1678
241.9802, 325.5475
242.4624, 324.9194
242.9445, 324.3919
243.4266, 323.7855
243.9087, 322.6867
244.3908, 320.8058
244.8729, 319.2329
245.3550, 318.4342
245.8372, 317.9586
246.3193, 317.4032
246.8014, 316.6201
247.2835, 315.8486
247.7656, 315.6546
248.2477, 316.6174
248.7299, 316.7184
249.2120, 315.0139
249.6941, 312.7809
250.1762, 311.0637
250.6583, 310.1637
251.1404, 309.5003
251.6226, 307.9861
252.1047, 305.0134
252.5868, 302.5971
253.0689, 301.0522
253.5510, 299.9398
254.0331, 298.9751
254.5153, 298.0807
254.9974, 297.3197
255.4795, 296.8613
255.9616, 297.0972
256.4437, 296.7592
256.9258, 295.3052
257.4080, 293.7579
257.8901, 292.8777
258.3722, 292.7532
258.8543, 292.8330
259.3364, 292.3271
259.8185, 290.8219
260.3007, 289.7838
260.7828, 289.3645
261.2649, 289.1767
261.7470, 289.0948
262.2291, 289.0428
262.7112, 288.9147
263.1934, 288.6210
263.6755, 288.2549
264.1576, 287.3002
264.6397, 285.1603
265.1218, 283.0507
265.6039, 281.7586
266.0861, 281.2274
266.5682, 280.8166
267.0503, 279.8828
267.5324, 278.3077
268.0145, 276.9755
268.4966, 275.9973
268.9788, 275.1056
269.4609, 274.1874
269.9430, 273.2419
270.4251, 272.3311
270.9072, 271.5218
271.3893, 270.8281
271.8715, 269.9474
272.3536, 268.5353
272.8357, 267.3127
273.3178, 266.8035
273.7999, 266.7735
274.2820, 266.5341
274.7642, 265.5703
275.2463, 263.9689
275.7284, 262.8442
276.2105, 262.3082
276.6926, 261.9896
277.1747, 261.9896
277.6568, 262.1161
278.1389, 261.9091
278.6211, 261.0538
279.1032, 259.7701
279.5853, 259.0213
280.0674, 259.4262
280.5495, 259.5293
281.0316, 258.6878
281.5138, 257.3339
281.9959, 256.2313
282.4780, 255.7166
282.9601, 255.6109
283.4422, 255.5016
283.9243, 255.4548
284.4065, 255.2912
284.8886, 254.9569
285.3707, 254.4891
285.8528, 253.8970
286.3349, 253.1640
286.8170, 252.4212
287.2992, 251.8847
287.7813, 251.5641
288.2634, 251.3900
288.7455, 251.6017
289.2276, 251.8573
289.7097, 251.6811
290.1919, 250.9541
290.6740, 250.0321
291.1561, 249.2920
291.6382, 248.7379
292.1203, 248.4022
292.6024, 248.4909
293.0846, 248.6863
293.5667, 248.7127
294.0488, 248.5317
294.5309, 248.1711
295.0130, 247.6021
295.4951, 246.8208
295.9773, 246.1392
296.4594, 245.5741
296.9415, 245.1065
297.4236, 244.8145
297.9057, 244.6697
298.3878, 244.3661
298.8700, 243.5722
299.3521, 242.4254
299.8342, 241.7684
300.3163, 241.9983
300.7984, 242.3480
301.2805, 242.4256
301.7627, 242.2520
302.2448, 241.9453
302.7269, 241.5556
303.2090, 241.0735
303.6911, 240.4872
304.1732, 239.7742
304.6554, 239.0085
305.1375, 238.1821
305.6196, 237.3264
306.1017, 236.5153
306.5838, 235.7713
307.0659, 235.0999
307.5481, 234.4924
308.0302, 233.8874
308.5123, 233.5091
308.9944, 233.6456
309.4765, 234.0135
309.9586, 234.1011
310.4408, 233.7516
310.9229, 233.2192
311.4050, 232.8227
311.8871, 232.5595
312.3692, 232.3109
312.8513, 232.0864
313.3335, 231.8479
313.8156, 231.5430
314.2977, 231.1630
314.7798, 230.7393
315.2619, 230.2485
315.7440, 229.7082
316.2262, 229.3457
316.7083, 229.4126
317.1904, 229.4985
317.6725, 229.1275
318.1546, 228.3337
318.6367, 227.7791
319.1188, 228.0915
319.6010, 228.9831
320.0831, 229.0948
320.5652, 227.7303
321.0473, 226.3056
321.5294, 225.7154
322.0115, 225.7446
322.4937, 225.6124
322.9758, 224.9367
323.4579, 223.9038
323.9400, 222.9628
324.4221, 221.9703
324.9042, 221.3211
325.3864, 221.4688
325.8685, 222.0106
326.3506, 222.1477
326.8327, 221.5895
327.3148, 220.7083
327.7969, 220.0025
328.2791, 219.4217
328.7612, 219.1889
329.2433, 219.7778
329.7254, 220.5398
330.2075, 220.6243
330.6896, 219.8846
331.1718, 218.9639
331.6539, 218.5074
332.1360, 218.5622
332.6181, 218.4822
333.1002, 218.2136
333.5823, 217.8310
334.0645, 217.2183
334.5466, 216.4544
335.0287, 216.0291
335.5108, 216.4102
335.9929, 217.4304
336.4750, 217.8353
336.9572, 217.3132
337.4393, 216.5883
337.9214, 215.8121
338.4035, 215.0574
338.8856, 214.5274
339.3677, 214.3497
339.8499, 214.3721
340.3320, 214.1647
340.8141, 213.5078
341.2962, 213.0489
341.7783, 213.1228
342.2604, 213.3855
342.7426, 213.3816
343.2247, 212.9817
343.7068, 212.3772
344.1889, 211.8136
344.6710, 211.2831
345.1531, 210.8501
345.6353, 210.5650
346.1174, 210.3479
346.5995, 210.1706
347.0816, 210.0165
347.5637, 209.8275
348.0458, 209.5463
348.5280, 209.1658
349.0101, 208.8303
349.4922, 208.4932
349.9743, 208.2388
350.4564, 208.1900
350.9385, 208.2578
351.4207, 208.2265
351.9028, 207.9583
352.3849, 207.5241
352.8670, 207.2244
353.3491, 207.5215
353.8312, 207.3832
354.3134, 206.1460
354.7955, 204.6212
355.2776, 203.8897
355.7597, 204.3058
356.2418, 205.1551
356.7239, 205.2055
357.2061, 203.8794
357.6882, 202.8949
358.1703, 202.4974
358.6524, 202.2212
359.1345, 201.7338
359.6166, 201.0211
360.0987, 200.2946
360.5808, 199.7578
361.0630, 199.4277
361.5451, 199.1227
362.0272, 198.9431
362.5093, 198.6843
362.9914, 198.1695
363.4735, 197.5313
363.9557, 197.0437
364.4378, 196.8839
364.9199, 196.9634
365.4020, 196.9072
365.8841, 196.6870
366.3662, 196.3516
366.8484, 195.8242
367.3305, 195.2361
367.8126, 194.7512
368.2947, 194.4130
368.7768, 194.0698
369.2589, 193.4673
369.7411, 192.5119
370.2232, 191.5476
370.7053, 190.3161
371.1874, 189.2984
371.6695, 188.9329
372.1516, 189.0926
372.6338, 189.1767
373.1159, 188.5691
373.5980, 187.3023
374.0801, 186.4604
374.5622, 186.4397
375.0443, 186.3734
375.5265, 185.9149
376.0086, 185.2382
376.4907, 184.6427
376.9728, 184.2960
377.4549, 184.0495
377.9370, 183.5252
378.4192, 182.5746
378.9013, 181.7703
379.3834, 181.4140
379.8655, 181.1758
380.3476, 180.7765
380.8297, 180.1636
381.3119, 179.5602
381.7940, 179.3053
382.2761, 179.3858
382.7582, 179.0836
383.2403, 177.9140
383.7224, 176.8157
384.2046, 176.5436
384.6867, 176.8974
385.1688, 177.1299
385.6509, 176.7752
386.1330, 176.0330
386.6151, 175.3410
387.0973, 174.7132
387.5794, 174.0872
388.0615, 173.2923
388.5436, 172.5129
389.0257, 172.0464
389.5078, 172.0324
389.9900, 172.1868
390.4721, 172.3172
390.9542, 172.4172
391.4363, 172.4532
391.9184, 172.4632
392.4005, 172.3329
392.8827, 171.8041
393.3648, 170.8272
393.8469, 170.1063
394.3290, 170.1153
394.8111, 170.4895
395.2932, 170.6803
395.7754, 170.6109
396.2575, 170.3755
396.7396, 170.0372
397.2217, 169.5906
397.7038, 169.0568
398.1859, 168.1325
398.6681, 167.3830
399.1501, 167.3962
399.6323, 167.9525
400.1144, 168.2050
400.5965, 167.6611
401.0786, 166.6507
401.5607, 166.1466
402.0428, 166.3346
402.5250, 166.6044
403.0071, 167.0441
403.4892, 167.4226
403.9713, 167.3584
404.4534, 166.7966
404.9355, 166.1911
405.4177, 166.1170
405.8998, 166.7590
406.3819, 166.9956
406.8640, 166.5522
407.3461, 166.0215
407.8282, 165.6523
408.3104, 165.4371
408.7925, 165.2703
409.2746, 165.0766
409.7567, 164.8974
410.2388, 164.9276
410.7209, 165.6075
411.2031, 165.9144
411.6852, 165.6572
412.1673, 165.0587
412.6494, 164.1737
413.1315, 163.0827
413.6136, 162.1247
414.0958, 161.8451
414.5779, 162.5011
415.0600, 162.7975
415.5421, 162.3502
416.0242, 161.8909
416.5063, 161.7710
416.9885, 161.8718
417.4706, 161.8337
417.9527, 161.3463
418.4348, 160.6266
418.9169, 160.4981
419.3990, 161.3331
419.8812, 161.9323
420.3633, 161.8098
420.8454, 161.3628
421.3275, 160.9157
421.8096, 160.5450
422.2917, 160.1941
422.7739, 159.6687
423.2560, 158.9999
423.7381, 158.9078
424.2202, 159.9690
424.7023, 160.9755
425.1844, 160.8792
425.6666, 159.9381
426.1487, 159.0827
426.6308, 158.7016
427.1129, 158.6287
427.5950, 158.6919
428.0771, 158.9023
428.5593, 159.0345
429.0414, 158.9486
429.5235, 158.7118
430.0056, 158.4830
430.4877, 158.2291
430.9698, 158.0616
431.4520, 158.1097
431.9341, 158.2734
432.4162, 158.3696
432.8983, 158.3586
433.3804, 158.2323
433.8625, 157.9546
434.3447, 157.5009
434.8268, 157.0757
435.3089, 156.5505
435.7910, 156.1696
436.2731, 156.1970
436.7552, 156.5323
437.2374, 156.8573
437.7195, 157.0080
438.2016, 156.9697
438.6837, 156.6790
439.1658, 155.6416
439.6479, 154.9870
440.1301, 154.9715
440.6122, 155.2708
441.0943, 155.6975
441.5764, 156.1557
442.0585, 156.4723
442.5406, 156.4048
443.0227, 155.8707
443.5049, 155.5596
443.9870, 155.6085
444.4691, 155.7447
444.9512, 155.9641
445.4333, 156.2011
445.9154, 156.3482
446.3976, 156.3369
446.8797, 156.2663
447.3618, 156.3957
447.8439, 156.8524
448.3260, 157.1272
448.8081, 156.9104
449.2903, 156.6392
449.7724, 156.6525
450.2545, 156.9335
450.7366, 157.1303
451.2187, 156.8621
451.7008, 156.2639
452.1830, 155.9573
452.6651, 156.0694
453.1472, 156.1836
453.6293, 155.9939
454.1114, 155.6645
454.5935, 155.4389
455.0757, 155.4332
455.5578, 155.4146
456.0399, 155.0912
456.5220, 154.5607
457.0041, 154.2888
457.4862, 154.4897
457.9684, 154.8165
458.4505, 154.7992
458.9326, 154.4486
459.4147, 154.0842
459.8968, 153.7087
460.3789, 153.3832
460.8611, 153.1362
461.3432, 152.9815
461.8253, 152.9990
462.3074, 153.2899
462.7895, 153.7388
463.2716, 153.8609
463.7538, 153.2855
464.2359, 152.8926
464.7180, 152.9357
465.2001, 153.1214
465.6822, 153.0817
466.1643, 152.7806
466.6465, 152.5601
467.1286, 152.8537
467.6107, 153.7635
468.0928, 154.2100
468.5749, 153.7827
469.0570, 153.3188
469.5392, 152.9749
470.0213, 152.7510
470.5034, 152.6370
470.9855, 152.6313
471.4676, 152.6871
471.9497, 152.7507
472.4319, 152.8543
472.9140, 152.8252
473.3961, 152.5697
473.8782, 152.2263
474.3603, 151.8033
474.8424, 151.3461
475.3246, 150.9935
475.8067, 150.9491
476.2888, 151.0257
476.7709, 150.7555
477.2530, 150.0772
477.7351, 149.4458
478.2173, 149.0520
478.6994, 148.8513
479.1815, 148.7886
479.6636, 148.9141
480.1457, 148.9852
480.6278, 148.7616
481.1100, 148.4309
481.5920, 148.3848
482.0742, 148.7026
482.5563, 149.0548
483.0384, 149.1431
483.5205, 148.9666
484.0026, 148.8431
484.4847, 149.0021
484.9669, 148.9635
485.4490, 148.2693
485.9311, 147.2985
486.4132, 146.7369
486.8953, 146.8364
487.3774, 147.3018
487.8596, 147.6803
488.3417, 148.0577
488.8238, 148.0960
489.3059, 147.4135
489.7880, 146.8147
490.2701, 146.8300
490.7523, 147.2437
491.2344, 147.5061
491.7165, 147.2707
492.1986, 146.7119
492.6807, 146.3138
493.1628, 146.1534
493.6450, 145.9451
494.1271, 145.3549
494.6092, 144.9010
495.0913, 145.1161
495.5734, 145.9386
496.0555, 146.6132
496.5377, 146.6110
497.0198, 146.0632
497.5019, 145.1911
497.9840, 143.8773
498.4661, 142.8239
498.9482, 142.5665
499.4304, 142.7639
499.9125, 142.7270
500.3946, 142.3030
500.8767, 141.9342
501.3588, 141.9600
501.8409, 142.1561
502.3231, 142.0926
502.8052, 141.6802
503.2873, 141.1709
503.7694, 140.7831
504.2515, 140.5196
504.7336, 140.3613
505.2158, 140.1327
505.6979, 140.1890
506.1800, 141.1169
506.6621, 142.2737
507.1442, 142.5926
507.6263, 141.7148
508.1085, 140.3003
508.5906, 139.3567
509.0727, 139.0052
509.5548, 138.6828
510.0369, 138.3914
510.5190, 138.1270
511.0012, 137.8935
511.4833, 137.6840
511.9654, 137.4807
512.4475, 137.2690
512.9296, 137.0786
513.4117, 136.9894
513.8939, 137.0238
514.3760, 136.9843
514.8581, 136.7925
515.3402, 136.5457
515.8223, 136.3725
516.3044, 136.2453
516.7866, 135.9799
517.2687, 135.4095
517.7508, 134.7091
518.2329, 134.0757
518.7150, 133.5131
519.1971, 133.0078
519.6793, 132.5423
520.1614, 132.1423
520.6435, 131.8982
521.1256, 131.8560
521.6077, 131.7932
522.0898, 131.6698
522.5720, 131.5132
523.0541, 131.3755
523.5362, 131.2393
524.0183, 130.9971
524.5004, 130.5516
524.9825, 129.9662
525.4647, 129.5619
525.9468, 129.4467
526.4289, 129.3768
526.9110, 129.3457
527.3931, 129.3372
527.8752, 129.4004
528.3574, 129.5019
528.8395, 129.4712
529.3216, 129.0567
529.8037, 128.3634
530.2858, 128.0939
530.7679, 128.4849
531.2501, 128.7518
531.7322, 128.4323
532.2143, 127.8744
532.6964, 127.3474
533.1785, 126.8561
533.6606, 126.6470
534.1428, 127.1192
534.6249, 127.9411
535.1070, 128.3607
535.5891, 128.2594
536.0712, 128.0802
536.5533, 128.2112
537.0355, 128.5500
537.5176, 128.4836
537.9997, 127.4464
538.4818, 126.7316
538.9639, 127.0146
539.4460, 127.6761
539.9282, 127.9412
540.4103, 127.6562
540.8924, 127.1576
541.3745, 126.7753
541.8566, 126.5094
542.3387, 126.3487
542.8209, 126.1847
543.3029, 126.2762
543.7850, 126.8545
544.2672, 127.6274
544.7493, 128.2871
545.2314, 128.7483
545.7135, 129.0905
546.1956, 129.3323
546.6777, 129.4934
547.1599, 129.8458
547.6420, 130.5553
548.1241, 131.1334
548.6062, 131.0696
549.0883, 130.7153
549.5704, 130.6381
550.0526, 130.9910
550.5347, 131.5038
551.0168, 132.1179
551.4989, 132.7517
551.9810, 133.2115
552.4631, 133.4538
552.9453, 133.6415
553.4274, 133.9320
553.9095, 134.3267
554.3916, 134.6309
554.8737, 134.8466
555.3558, 134.9844
555.8380, 134.9848
556.3201, 134.9382
556.8022, 134.9648
557.2843, 135.0897
557.7664, 135.2296
558.2485, 135.2750
558.7307, 135.2190
559.2128, 135.2563
559.6949, 135.4599
560.1770, 135.6540
560.6591, 135.8085
561.1412, 135.9101
561.6234, 135.9483
562.1055, 135.9216
562.5876, 135.8158
563.0697, 135.5464
563.5518, 135.1831
564.0339, 135.0125
564.5161, 135.1185
564.9982, 135.1387
565.4803, 134.7151
565.9624, 133.9916
566.4445, 133.6127
566.9266, 133.8023
567.4088, 134.0139
567.8909, 134.0912
568.3730, 134.0736
568.8551, 134.0175
569.3372, 133.9294
569.8193, 133.7412
570.3015, 133.3459
570.7836, 132.7717
571.2657, 132.6094
571.7478, 133.3937
572.2299, 133.8726
572.7120, 133.5368
573.1942, 133.0220
573.6763, 132.9953
574.1584, 133.5171
574.6405, 134.0416
575.1226, 133.9742
575.6047, 133.4988
576.0869, 133.4319
576.5690, 133.8705
577.0511, 134.3054
577.5332, 134.4537
578.0153, 134.4802
578.4974, 134.6626
578.9796, 135.0412
579.4617, 135.4120
579.9438, 135.7133
580.4259, 135.9580
580.9080, 136.1565
581.3901, 136.3125
581.8723, 136.4213
582.3544, 136.4612
582.8365, 136.4890
583.3186, 136.7044
583.8007, 137.3612
584.2828, 137.8204
584.7650, 137.9669
585.2471, 138.0164
585.7292, 138.0549
586.2113, 138.1223
586.6934, 138.2849
587.1755, 138.6138
587.6577, 139.0074
588.1398, 139.1555
588.6219, 138.9821
589.1040, 139.1083
589.5861, 139.8689
590.0682, 140.7801
590.5504, 141.4026
591.0325, 141.7677
591.5146, 142.0607
591.9967, 142.3499
592.4788, 142.5767
592.9609, 142.6380
593.4431, 142.5892
593.9252, 142.5757
594.4073, 142.6445
594.8894, 142.8263
595.3715, 143.1843
595.8536, 143.7786
596.3358, 144.2814
596.8179, 144.8990
597.3000, 145.2138
597.7821, 144.7422
598.2642, 143.9986
598.7463, 143.7762
599.2285, 144.3304
599.7106, 145.0955
600.1927, 145.3792
600.6748, 145.1993
601.1569, 145.0345
601.6390, 144.9205
602.1212, 144.7872
602.6033, 144.5372
603.0854, 144.2597
603.5675, 144.1345
604.0496, 144.2781
604.5317, 144.2867
605.0139, 143.8318
605.4960, 143.1707
605.9781, 142.6468
606.4602, 142.3100
606.9423, 142.1250
607.4244, 142.0861
607.9066, 142.1616
608.3887, 142.2062
608.8708, 142.1673
609.3529, 142.1753
609.8350, 142.4623
610.3171, 142.6139
610.7993, 142.2177
611.2814, 141.3955
611.7635, 140.6294
612.2456, 140.2331
612.7277, 140.0618
613.2098, 139.7993
613.6920, 139.4291
614.1741, 139.1642
614.6562, 139.1744
615.1383, 139.1470
615.6204, 138.6333
616.1025, 137.7375
616.5847, 137.1265
617.0668, 137.2325
617.5489, 137.3689
618.0310, 137.0622
618.5131, 136.4734
618.9952, 135.9160
619.4774, 135.4870
619.9595, 135.1514
620.4416, 134.8835
620.9237, 134.6917
621.4058, 134.4254
621.8879, 133.9738
622.3701, 133.5850
622.8522, 133.3798
623.3343, 133.2233
623.8164, 132.9614
624.2985, 132.5728
624.7806, 132.1845
625.2628, 132.0443
625.7448, 131.9647
626.2269, 131.2752
626.7090, 129.8857
627.1912, 128.8235
627.6733, 128.6212
628.1554, 128.9496
628.6375, 129.2423
629.1196, 129.5152
629.6017, 129.6963
630.0839, 129.9065
630.5660, 129.9053
631.0481, 129.3536
631.5302, 128.4665
632.0123, 127.7283
632.4944, 127.3635
632.9766, 127.2625
633.4587, 127.2865
633.9408, 127.4810
634.4229, 127.5683
634.9050, 127.5378
635.3871, 127.4004
635.8693, 127.0760
636.3514, 126.6882
636.8335, 126.4505
637.3156, 126.4520
637.7977, 126.4330
638.2798, 125.9726
638.7620, 125.4374
639.2441, 125.7289
639.7262, 126.9061
640.2083, 127.8594
640.6904, 127.8204
641.1725, 127.0793
641.6547, 126.6015
642.1368, 126.4495
642.6189, 126.4980
643.1010, 127.1126
643.5831, 127.6020
644.0652, 127.3492
644.5474, 126.6060
645.0295, 126.0915
645.5116, 126.2106
645.9937, 126.6004
646.4758, 126.6706
646.9579, 126.4239
647.4401, 126.2016
647.9222, 126.0365
648.4043, 125.9439
648.8864, 126.0077
649.3685, 126.1560
649.8506, 126.1481
650.3328, 125.7837
650.8149, 125.5454
651.2970, 125.7673
651.7791, 126.1397
652.2612, 126.3102
652.7433, 126.2353
653.2255, 126.0311
653.7076, 125.7774
654.1897, 125.4749
654.6718, 125.0718
655.1539, 124.3527
655.6360, 124.0583
656.1182, 124.7916
656.6003, 125.5489
657.0824, 125.7983
657.5645, 125.6101
658.0466, 125.2622
658.5287, 124.7279
659.0109, 124.2805
659.4930, 124.2561
659.9751, 124.5230
660.4572, 124.7540
660.9393, 124.8821
661.4214, 124.8439
661.9036, 124.5628
662.3857, 124.0591
662.8678, 123.5574
663.3499, 122.7447
663.8320, 122.3619
664.3141, 122.9181
664.7963, 123.5871
665.2784, 123.6622
665.7605, 123.2062
666.2426, 122.7749
666.7247, 122.7662
667.2068, 122.8824
667.6890, 122.4375
668.1711, 121.4585
668.6532, 120.9669
669.1353, 121.3624
669.6174, 121.8792
670.0995, 121.7154
670.5817, 120.9619
671.0638, 120.5994
671.5459, 120.9648
672.0280, 121.3246
672.5101, 121.2961
672.9922, 121.2341
673.4744, 121.6857
673.9565, 122.5879
674.4386, 123.2744
674.9207, 123.2003
675.4028, 122.6004
675.8849, 122.2384
676.3671, 122.1621
676.8492, 122.1167
677.3313, 122.0803
677.8134, 122.0297
678.2955, 121.9843
678.7776, 121.9179
679.2598, 121.7222
679.7419, 121.1705
680.2240, 120.7434
680.7061, 120.8872
681.1882, 121.2756
681.6703, 121.3093
682.1525, 120.9354
682.6346, 120.7003
683.1167, 121.1209
683.5988, 121.9676
684.0809, 122.0315
684.5630, 120.7378
685.0452, 119.9199
685.5273, 120.1128
686.0094, 120.5971
686.4915, 121.1275
686.9736, 121.6148
687.4557, 121.8745
687.9379, 121.7350
688.4200, 121.5244
688.9021, 121.5216
689.3842, 121.6711
689.8663, 121.9116
690.3484, 122.2243
690.8306, 122.3686
691.3127, 122.1240
691.7948, 121.5802
692.2769, 121.1838
692.7590, 121.0134
693.2411, 120.8731
693.7233, 120.7223
694.2054, 120.6273
694.6875, 120.7012
695.1696, 120.8615
695.6517, 120.8948
696.1339, 120.6836
696.6160, 120.3935
697.0981, 120.1116
697.5802, 119.8974
698.0623, 120.0645
698.5444, 120.6929
699.0266, 121.1916
699.5087, 121.1096
699.9908, 120.5990
700.4729, 120.2400
700.9550, 120.0580
701.4371, 119.9978
701.9193, 120.1439
702.4014, 120.3319
702.8835, 120.4540
703.3656, 120.5394
703.8477, 120.7066
704.3298, 121.0228
704.8120, 121.2751
705.2941, 121.0107
705.7762, 120.4079
706.2583, 120.4817
706.7404, 121.4438
707.2225, 122.2496
707.7046, 122.2500
708.1867, 121.7197
708.6688, 121.3357
709.1509, 121.1094
709.6331, 120.9875
710.1152, 120.9482
710.5973, 121.0284
711.0794, 121.3877
711.5615, 121.8431
712.0436, 122.0062
712.5258, 121.7476
713.0079, 121.5035
713.4900, 121.9433
713.9721, 122.8857
714.4542, 123.2791
714.9363, 123.0199
715.4185, 122.6617
715.9006, 122.4021
716.3827, 122.2366
716.8648, 122.1677
717.3469, 122.2000
717.8290, 122.2851
718.3112, 122.5494
718.7933, 122.7266
719.2754, 122.5235
719.7575, 122.2166
720.2396, 122.2636
720.7217, 122.7482
721.2039, 123.2758
721.6860, 123.4069
722.1681, 123.2815
722.6502, 123.5651
723.1323, 124.3567
723.6144, 124.7252
724.0966, 124.2612
724.5787, 123.4240
725.0608, 122.5773
725.5429, 121.7269
726.0250, 121.4690
726.5071, 122.3596
726.9893, 123.2189
727.4714, 123.6492
727.9535, 123.8107
728.4356, 123.8463
728.9177, 123.8034
729.3998, 123.6980
729.8820, 123.5105
730.3641, 123.3242
730.8462, 123.3671
731.3283, 123.6484
731.8104, 123.8710
732.2925, 123.9603
732.7747, 124.0215
733.2568, 124.1631
733.7389, 124.3506
734.2210, 124.4112
734.7031, 124.2028
735.1852, 124.0855
735.6674, 124.0769
736.1495, 124.2303
736.6316, 124.7322
737.1137, 125.4315
737.5958, 125.9421
738.0779, 126.0725
738.5601, 125.9765
739.0422, 125.8165
739.5243, 125.6107
740.0064, 125.5837
740.4885, 125.8214
740.9706, 125.9090
741.4528, 125.5108
741.9349, 124.8911
742.4170, 124.6480
742.8991, 124.8604
743.3812, 125.1320
743.8633, 125.6398
744.3455, 125.9848
744.8276, 125.7562
745.3097, 125.3039
745.7918, 125.2329
746.2739, 125.6825
746.7560, 126.1652
747.2382, 126.1934
747.7203, 125.8908
748.2024, 125.5746
748.6845, 125.2402
749.1666, 125.0921
749.6487, 125.2168
750.1309, 125.5133
750.6130, 125.9134
751.0951, 126.4276
751.5772, 126.7732
752.0593, 126.9193
752.5414, 126.9488
753.0236, 126.8197
753.5057, 126.6223
753.9878, 126.3904
754.4699, 126.1612
754.9520, 125.9981
755.4341, 125.8925
755.9163, 125.9623
756.3984, 126.5404
756.8805, 127.4689
757.3626, 128.0147
757.8447, 128.0467
758.3268, 127.9307
758.8090, 127.9268
759.2911, 127.9687
759.7732, 127.8186
760.2553, 127.1972
760.7374, 126.9037
761.2195, 127.1487
761.7017, 127.4804
762.1838, 127.6973
762.6659, 127.8576
763.1480, 128.1036
763.6301, 128.4801
764.1122, 128.7887
764.5944, 128.9238
765.0765, 128.8768
765.5586, 128.5206
766.0407, 127.9287
766.5228, 127.4654
767.0049, 127.2597
767.4871, 127.3636
767.9692, 127.9474
768.4513, 129.0600
768.9334, 129.3918
769.4155, 128.1432
769.8976, 127.4208
770.3798, 128.0989
770.8619, 129.1220
771.3440, 129.7550
771.8261, 129.9873
772.3082, 130.0563
772.7903, 129.9315
773.2725, 129.8193
773.7546, 130.0090
774.2367, 130.2417
774.7188, 129.9681
775.2009, 129.2311
775.6830, 128.6797
776.1652, 128.7429
776.6473, 129.2539
777.1294, 129.9403
777.6115, 130.9169
778.0936, 131.2479
778.5757, 130.4810
779.0579, 129.7936
779.5400, 129.9931
780.0221, 130.5991
780.5042, 130.7699
780.9863, 130.3684
781.4684, 130.1062
781.9506, 130.1910
782.4327, 130.4305
782.9148, 130.8729
783.3969, 131.3232
783.8790, 131.3654
784.3611, 130.9583
784.8433, 130.6691
785.3254, 131.1801
785.8075, 132.1083
786.2896, 132.1242
786.7717, 131.2086
787.2538, 130.7722
787.7360, 131.2762
788.2181, 132.0164
788.7002, 132.3918
789.1823, 132.4316
789.6644, 132.3679
790.1465, 132.0587
790.6286, 131.8556
791.1107, 131.9634
791.5928, 132.0195
792.0750, 131.6182
792.5571, 131.0145
793.0392, 130.7569
793.5213, 131.0535
794.0034, 131.6330
794.4855, 132.4643
794.9677, 133.3324
795.4498, 133.7753
795.9319, 133.8227
796.4140, 133.8524
796.8961, 134.0303
797.3782, 134.1477
797.8604, 133.8474
798.3425, 133.0882
798.8246, 132.9108
799.3067, 133.6950
799.7888, 134.3704
800.2709, 134.6656
800.7531, 134.7594
801.2352, 134.6918
801.7173, 134.5115
802.1994, 134.4246
802.6815, 134.6454
803.1636, 134.7368
803.6458, 134.1707
804.1279, 133.5414
804.6100, 133.7098
805.0921, 134.5318
805.5742, 135.1973
806.0563, 135.2610
806.5385, 135.0287
807.0206, 134.9283
807.5027, 134.9607
807.9848, 135.1753
808.4669, 135.6189
808.9490, 136.0205
809.4312, 136.2568
809.9133, 136.3969
810.3954, 136.5876
810.8775, 136.8869
811.3596, 136.8030
811.8417, 135.8871
812.3239, 135.1661
812.8060, 134.9507
813.2881, 135.0330
813.7702, 135.3179
814.2523, 135.7205
814.7344, 136.0565
815.2166, 136.2553
815.6987, 136.3071
816.1808, 136.1214
816.6629, 135.7985
817.1450, 135.4650
817.6271, 135.1796
818.1093, 135.3226
818.5914, 136.1775
819.0735, 137.1826
819.5556, 137.1169
820.0377, 135.6976
820.5198, 135.0153
821.0020, 135.3893
821.4841, 135.8885
821.9662, 136.2268
822.4483, 136.4780
822.9304, 136.7369
823.4125, 137.0014
823.8947, 137.1579
824.3768, 137.1773
824.8589, 137.0937
825.3410, 136.7979
825.8231, 136.4896
826.3052, 136.3901
826.7874, 136.5025
827.2695, 136.7601
827.7516, 137.1791
828.2337, 137.4769
828.7158, 137.0051
829.1979, 136.0415
829.6801, 135.8670
830.1622, 136.5970
830.6443, 137.3332
831.1264, 137.6541
831.6085, 137.6703
832.0906, 137.5429
832.5728, 137.2510
833.0549, 136.9534
833.5370, 136.3478
834.0191, 136.1878
834.5012, 137.1116
834.9833, 138.1427
835.4655, 138.4426
835.9476, 138.0956
836.4297, 137.7509
836.9118, 137.5123
837.3939, 137.4608
837.8760, 137.7513
838.3582, 138.1799
838.8403, 138.5931
839.3224, 138.9209
839.8045, 139.0234
840.2866, 138.8335
840.7687, 138.5398
841.2509, 138.3843
841.7330, 138.3517
842.2151, 138.3985
842.6972, 138.5368
843.1793, 138.5124
843.6614, 138.1874
844.1436, 137.7923
844.6257, 137.5850
845.1078, 137.5613
845.5899, 137.6060
846.0720, 137.7705
846.5541, 137.9259
847.0363, 138.1547
847.5184, 138.2817
848.0005, 138.0999
848.4826, 137.7488
848.9647, 137.5722
849.4468, 137.7135
849.9290, 137.7790
850.4111, 137.3741
850.8932, 136.9365
851.3753, 136.9885
851.8574, 137.3630
852.3395, 137.6018
852.8217, 137.5754
853.3038, 137.5447
853.7859, 137.8596
854.2680, 138.2832
854.7501, 137.9187
855.2322, 136.7672
855.7144, 135.9071
856.1965, 135.5361
856.6786, 135.6047
857.1607, 136.2299
857.6428, 137.1562
858.1249, 137.5469
858.6071, 137.0880
859.0892, 136.7680
859.5713, 136.6829
860.0534, 136.6185
860.5355, 136.5298
861.0176, 136.4018
861.4998, 136.1912
861.9819, 135.9018
862.4640, 135.6719
862.9461, 135.6257
863.4282, 135.5804
863.9103, 135.3971
864.3925, 135.1446
864.8746, 134.8761
865.3567, 134.6317
865.8388, 134.5604
866.3209, 134.7793
866.8030, 134.9707
867.2852, 134.5130
867.7673, 133.5640
868.2494, 132.9817
868.7315, 132.8253
869.2136, 132.7767
869.6957, 132.7419
870.1779, 132.6154
870.6600, 132.2056
871.1421, 131.5062
871.6242, 131.1794
872.1063, 131.5112
872.5884, 131.7111
873.0705, 131.6114
873.5526, 131.3772
874.0347, 130.9750
874.5168, 130.5296
874.9990, 130.3687
875.4811, 130.6904
875.9632, 130.8524
876.4453, 130.6153
876.9274, 130.1542
877.4095, 129.3927
877.8917, 128.5777
878.3738, 128.1149
878.8559, 128.0769
879.3380, 128.1971
879.8201, 128.3803
880.3022, 128.4707
880.7844, 128.0783
881.2665, 127.3649
881.7486, 127.0051
882.2307, 127.0807
882.7128, 127.0307
883.1949, 126.4835
883.6771, 125.6706
884.1592, 125.0191
884.6413, 124.4903
885.1234, 124.5016
885.6055, 125.4646
886.0876, 125.9164
886.5698, 125.0063
887.0519, 123.7217
887.5340, 123.1836
888.0161, 123.3430
888.4982, 123.3864
888.9803, 122.9848
889.4625, 122.8991
889.9446, 123.8923
890.4267, 124.6477
890.9088, 123.9307
891.3909, 122.3788
891.8730, 121.3330
892.3552, 121.1657
892.8373, 121.2338
893.3194, 121.0521
893.8015, 120.9652
894.2836, 121.7116
894.7657, 122.7391
895.2479, 122.7234
895.7300, 121.5187
896.2121, 120.1978
896.6942, 119.5624
897.1763, 119.2948
897.6584, 118.6739
898.1406, 117.7737
898.6227, 117.3947
899.1048, 117.6484
899.5869, 117.9463
900.0690, 118.0254
900.5511, 117.9655
901.0333, 117.8711
901.5154, 117.7387
901.9975, 117.6635
902.4796, 117.7912
902.9617, 117.6983
903.4438, 116.9466
903.9260, 116.3059
904.4081, 116.5335
904.8902, 117.2467
905.3723, 117.4300
905.8544, 116.8003
906.3365, 116.1466
906.8187, 115.5661
907.3008, 115.1155
907.7829, 114.9275
908.2650, 114.8446
908.7471, 114.5822
909.2292, 114.1510
909.7114, 113.9332
910.1935, 114.2907
910.6756, 114.7385
911.1577, 114.7030
911.6398, 114.4376
912.1219, 114.5169
912.6041, 114.8774
913.0862, 114.8988
913.5683, 114.2874
914.0504, 113.4837
914.5325, 113.0540
915.0146, 112.9542
915.4968, 112.9290
915.9789, 112.9806
916.4610, 113.0796
916.9431, 113.2359
917.4252, 113.3735
917.9073, 113.4554
918.3895, 113.4484
918.8716, 113.1848
919.3537, 112.3463
919.8358, 112.0844
920.3179, 112.9272
920.8000, 113.5876
921.2822, 113.3282
921.7643, 112.7805
922.2464, 112.6273
922.7285, 112.8644
923.2106, 113.0963
923.6927, 113.3536
924.1749, 113.4833
924.6570, 113.3564
925.1391, 113.1616
925.6212, 112.9572
926.1033, 112.8269
926.5854, 112.9931
927.0676, 113.5349
927.5497, 113.8791
928.0318, 113.3429
928.5139, 112.6996
928.9960, 112.8238
929.4781, 113.3988
929.9603, 113.8444
930.4424, 114.0367
930.9245, 114.0470
931.4066, 113.9117
931.8887, 113.6739
932.3708, 113.2829
932.8530, 112.8423
933.3351, 112.8359
933.8172, 113.2676
934.2993, 113.7944
934.7814, 114.2992
935.2635, 114.7363
935.7457, 115.0787
936.2278, 115.2939
936.7099, 115.1021
937.1920, 114.3087
937.6741, 113.9934
938.1563, 114.4555
938.6384, 115.0089
939.1205, 115.2704
939.6026, 115.4027
940.0847, 115.7022
940.5668, 116.2003
941.0490, 116.6782
941.5311, 117.3597
942.0132, 117.7207
942.4953, 117.4709
942.9774, 117.0428
943.4595, 116.5819
943.9417, 116.2209
944.4238, 116.3028
944.9059, 117.0469
945.3880, 117.6438
945.8701, 117.5938
946.3522, 117.5332
946.8344, 117.9271
947.3165, 118.5445
947.7986, 119.1441
948.2807, 119.6254
948.7628, 119.8091
949.2449, 119.4584
949.7271, 119.1441
950.2092, 119.5282
950.6913, 120.2329
951.1734, 120.6632
951.6555, 120.8659
952.1376, 121.1496
952.6198, 121.6230
953.1019, 122.2233
953.5840, 122.9407
954.0661, 123.6839
954.5482, 124.2331
955.0303, 124.6032
955.5124, 124.8230
955.9945, 124.9000
956.4766, 125.1837
956.9587, 125.8866
957.4409, 126.7700
957.9230, 127.4608
958.4051, 127.9651
958.8872, 128.3257
959.3693, 128.4342
959.8514, 128.9003
960.3336, 129.9667
960.8157, 131.1682
961.2978, 132.2028
961.7799, 133.0746
962.2620, 133.7431
962.7441, 133.9470
963.2263, 134.7641
963.7084, 136.9621
964.1905, 138.7262
964.6726, 139.2766
965.1547, 139.4533
965.6368, 139.7458
966.1190, 140.2647
966.6011, 141.4397
967.0832, 143.8893
967.5653, 145.8476
968.0474, 146.3820
968.5295, 146.9311
969.0117, 148.5628
969.4938, 150.5664
969.9759, 151.8505
970.4580, 152.3787
970.9401, 153.0993
971.4222, 154.6823
971.9044, 156.1431
972.3865, 156.6012
972.8686, 156.8284
973.3507, 157.7077
973.8328, 159.0360
974.3149, 160.2455
974.7971, 161.1462
975.2792, 161.7945
975.7613, 162.1573
976.2434, 162.3696
976.7255, 162.6799
977.2076, 162.9552
977.6898, 162.7661
978.1719, 162.1997
978.6540, 161.9678
979.1361, 162.4055
979.6182, 162.9211
980.1003, 162.7601
980.5825, 162.0921
981.0646, 161.4901
981.5467, 160.9299
982.0288, 160.1804
982.5109, 159.1998
982.9930, 158.1592
983.4752, 157.1749
983.9573, 156.1936
984.4394, 155.1122
984.9215, 153.9323
985.4036, 152.7047
985.8857, 151.4133
986.3679, 150.1906
986.8500, 149.0992
987.3321, 147.9895
987.8142, 146.7600
988.2963, 145.3988
988.7784, 143.8040
989.2606, 141.7325
989.7427, 140.3482
990.2248, 140.0224
990.7069, 139.6763
991.1890, 139.0647
991.6711, 138.1938
992.1533, 136.9830
992.6354, 135.4960
993.1175, 134.1073
993.5996, 132.5407
994.0817, 131.5754
994.5638, 131.9843
995.0460, 132.0777
995.5281, 130.9497
996.0102, 129.3639
996.4923, 128.0069
996.9744, 126.9432
997.4565, 126.2835
997.9387, 126.4072
998.4208, 126.3428
998.9029, 125.8529
999.3850, 125.0965
999.8671, 123.8666
1000.349, 122.5987
1000.831, 121.9463
1001.313, 121.9439
1001.796, 122.0200
1002.278, 122.1251
1002.760, 121.9729
1003.242, 121.1015
1003.724, 120.1691
1004.206, 119.8716
1004.688, 119.9671
1005.170, 119.8667
1005.653, 119.4425
1006.135, 119.0452
1006.617, 118.9325
1007.099, 118.8864
1007.581, 118.6300
1008.063, 118.3569
1008.545, 118.4381
1009.027, 118.7509
1009.509, 118.8987
1009.992, 118.7367
1010.474, 118.3354
1010.956, 117.5805
1011.438, 116.8197
1011.920, 116.6474
1012.402, 116.8628
1012.884, 117.0081
1013.366, 117.0487
1013.849, 117.2113
1014.331, 117.5865
1014.813, 117.7987
1015.295, 117.3002
1015.777, 116.4271
1016.259, 116.0570
1016.741, 116.0849
1017.223, 115.9700
1017.705, 115.6629
1018.188, 115.6292
1018.670, 116.1234
1019.152, 116.7257
1019.634, 116.8530
1020.116, 116.5891
1020.598, 116.3076
1021.080, 116.0122
1021.562, 115.8106
1022.044, 115.7309
1022.527, 115.5152
1023.009, 114.9761
1023.491, 114.4148
1023.973, 114.3698
1024.455, 114.7954
1024.937, 114.8949
1025.419, 114.6259
1025.901, 114.3988
1026.384, 114.3062
1026.866, 114.1880
1027.348, 113.9551
1027.830, 113.6043
1028.312, 113.0756
1028.794, 112.3409
1029.276, 112.0848
1029.758, 112.4015
1030.240, 112.9285
1030.723, 113.8211
1031.205, 114.3687
1031.687, 113.9837
1032.169, 113.0809
1032.651, 112.4844
1033.133, 112.2183
1033.615, 112.0406
1034.097, 111.8272
1034.579, 112.0127
1035.062, 113.0632
1035.544, 113.9355
1036.026, 113.7725
1036.508, 113.0590
1036.990, 112.8382
1037.472, 113.2361
1037.954, 113.4130
1038.436, 113.1986
1038.919, 113.0326
1039.401, 112.9559
1039.883, 112.9873
1040.365, 113.2563
1040.847, 113.6071
1041.329, 113.6788
1041.811, 113.3968
1042.293, 113.2388
1042.776, 113.2168
1043.258, 113.3164
1043.740, 113.7096
1044.222, 114.0511
1044.704, 114.1873
1045.186, 114.0917
1045.668, 113.6039
1046.150, 112.5956
1046.632, 112.0644
1047.115, 112.3955
1047.597, 112.8280
1048.079, 113.2358
1048.561, 113.6269
1049.043, 114.2517
1049.525, 114.7791
1050.007, 114.3482
1050.489, 112.7109
1050.971, 112.0320
1051.454, 113.8218
1051.936, 115.1329
1052.418, 114.5834
1052.900, 113.7459
1053.382, 113.7959
1053.864, 114.3780
1054.346, 114.7533
1054.828, 114.8162
1055.311, 114.7675
1055.793, 114.5179
1056.275, 114.3585
1056.757, 114.4303
1057.239, 114.5885
1057.721, 114.7853
1058.203, 114.9647
1058.685, 115.0239
1059.167, 114.9518
1059.650, 114.9351
1060.132, 115.0270
1060.614, 115.1950
1061.096, 115.6559
1061.578, 115.9650
1062.060, 115.4995
1062.542, 114.7767
1063.024, 114.7576
1063.506, 115.5366
1063.989, 116.1825
1064.471, 116.2893
1064.953, 116.3012
1065.435, 116.3590
1065.917, 116.4314
1066.399, 116.3936
1066.881, 116.4049
1067.363, 116.8244
1067.846, 117.6228
1068.328, 118.1671
1068.810, 118.1833
1069.292, 117.9723
1069.774, 117.3978
1070.256, 116.9226
1070.738, 116.9187
1071.220, 117.2223
1071.703, 117.7042
1072.185, 118.2560
1072.667, 118.4816
1073.149, 117.9733
1073.631, 117.7252
1074.113, 118.7029
1074.595, 119.5808
1075.077, 119.1050
1075.559, 118.1258
1076.042, 117.8228
1076.524, 118.2198
1077.006, 118.6232
1077.488, 118.8507
1077.970, 118.8886
1078.452, 118.5274
1078.934, 118.1980
1079.416, 118.2368
1079.898, 118.4417
1080.380, 118.6270
1080.863, 118.7315
1081.345, 118.6225
1081.827, 118.1660
1082.309, 117.9703
1082.791, 118.6830
1083.273, 119.3023
1083.755, 119.1349
1084.237, 118.6149
1084.720, 118.0394
1085.202, 117.5732
1085.684, 117.5362
1086.166, 118.0654
1086.648, 118.4765
1087.130, 118.3611
1087.612, 118.2023
1088.094, 118.2564
1088.577, 118.3782
1089.059, 118.5885
1089.541, 118.7023
1090.023, 118.1948
1090.505, 116.9536
1090.987, 116.2726
1091.469, 117.1849
1091.951, 118.0217
1092.433, 118.1203
1092.916, 117.8214
1093.398, 117.1667
1093.880, 116.4148
1094.362, 115.9378
1094.844, 115.7818
1095.326, 115.7310
1095.808, 115.7833
1096.290, 115.8366
1096.772, 115.8271
1097.255, 115.8411
1097.737, 116.0361
1098.219, 116.2246
1098.701, 116.1334
1099.183, 115.7719
1099.665, 115.3836
1100.147, 114.9718
1100.629, 114.6443
1101.112, 114.3384
1101.594, 114.2313
1102.076, 114.6056
1102.558, 115.0725
1103.040, 115.2510
1103.522, 115.1536
1104.004, 114.9384
1104.486, 114.6030
1104.969, 114.2303
1105.451, 113.7177
1105.933, 113.3241
1106.415, 113.1127
1106.897, 113.0776
1107.379, 113.4262
1107.861, 113.8975
1108.343, 113.8139
1108.825, 112.9956
1109.307, 112.3845
1109.790, 112.1338
1110.272, 111.9944
1110.754, 112.0371
1111.236, 112.0524
1111.718, 111.8404
1112.200, 111.5558
1112.682, 111.5058
1113.164, 111.7150
1113.647, 111.6988
1114.129, 111.2511
1114.611, 110.9259
1115.093, 110.9303
1115.575, 110.8318
1116.057, 110.4305
1116.539, 109.8446
1117.021, 109.0799
1117.504, 108.2193
1117.986, 107.9153
1118.468, 108.5891
1118.950, 108.8006
1119.432, 108.3098
1119.914, 107.8121
1120.396, 107.5340
1120.878, 107.2913
1121.360, 106.8678
1121.843, 106.3989
1122.325, 106.3228
1122.807, 106.7430
1123.289, 106.9240
1123.771, 106.8230
1124.253, 106.6319
1124.735, 106.3965
1125.217, 106.0442
1125.699, 105.4814
1126.182, 104.8756
1126.664, 104.5113
1127.146, 104.3833
1127.628, 104.4923
1128.110, 104.9210
1128.592, 104.7311
1129.074, 103.6986
1129.556, 102.8415
1130.039, 102.6359
1130.521, 102.7231
1131.003, 102.7200
1131.485, 102.6426
1131.967, 102.4939
1132.449, 102.2907
1132.931, 102.4582
1133.413, 102.9997
1133.896, 103.0462
1134.378, 102.3340
1134.860, 101.6491
1135.342, 101.6311
1135.824, 101.8469
1136.306, 101.3817
1136.788, 100.4930
1137.270, 100.2427
1137.752, 100.5160
1138.234, 100.7528
1138.717, 100.8205
1139.199, 100.6094
1139.681, 100.0612
1140.163, 99.50861
1140.645, 99.34273
1141.127, 99.39742
1141.609, 99.49461
1142.091, 99.52178
1142.574, 99.10413
1143.056, 98.37509
1143.538, 97.85095
1144.020, 97.69449
1144.502, 97.75852
1144.984, 98.02911
1145.466, 98.25851
1145.948, 98.10088
1146.431, 97.82207
1146.913, 97.63565
1147.395, 97.64162
1147.877, 98.19109
1148.359, 99.10986
1148.841, 99.52927
1149.323, 99.04360
1149.805, 98.28236
1150.287, 97.51716
1150.770, 96.75861
1151.252, 95.86936
1151.734, 95.10741
1152.216, 94.84501
1152.698, 94.91573
1153.180, 94.83833
1153.662, 94.51476
1154.144, 94.48206
1154.626, 95.33593
1155.109, 95.91831
1155.591, 95.79725
1156.073, 95.34656
1156.555, 94.40130
1157.037, 93.52235
1157.519, 93.62894
1158.001, 94.55782
1158.483, 94.86880
1158.966, 94.00322
1159.448, 93.43190
1159.930, 93.43117
1160.412, 93.47782
1160.894, 93.38747
1161.376, 93.35059
1161.858, 93.56320
1162.340, 93.89912
1162.822, 94.10943
1163.305, 94.20844
1163.787, 94.00285
1164.269, 93.33386
1164.751, 92.81841
1165.233, 92.53110
1165.715, 92.42048
1166.197, 92.45705
1166.679, 92.70467
1167.161, 93.33398
1167.644, 94.13960
1168.126, 94.16077
1168.608, 93.35815
1169.090, 93.05024
1169.572, 93.30866
1170.054, 93.45262
1170.536, 93.29427
1171.018, 93.14052
1171.500, 93.21705
1171.983, 93.30975
1172.465, 93.03218
1172.947, 92.50674
1173.429, 92.08167
1173.911, 91.77491
1174.393, 91.71432
1174.875, 91.85622
1175.357, 91.89004
1175.840, 91.71465
1176.322, 91.63038
1176.804, 91.95772
1177.286, 92.33186
1177.768, 92.30476
1178.250, 92.03141
1178.732, 91.51557
1179.214, 91.02708
1179.697, 91.29135
1180.179, 92.13002
1180.661, 92.29471
1181.143, 91.16505
1181.625, 90.19148
1182.107, 90.50451
1182.589, 90.96603
1183.071, 90.84401
1183.553, 90.50660
1184.036, 90.29824
1184.518, 90.16708
1185.000, 89.92969
1185.482, 89.57030
1185.964, 89.29802
1186.446, 89.18604
1186.928, 89.12163
1187.410, 89.18704
1187.892, 89.17168
1188.375, 88.76975
1188.857, 88.44413
1189.339, 88.75194
1189.821, 89.43321
1190.303, 89.69962
1190.785, 89.43832
1191.267, 89.45267
1191.749, 89.90367
1192.232, 90.16359
1192.714, 90.07724
1193.196, 89.96053
1193.678, 89.98618
1194.160, 89.99992
1194.642, 89.78198
1195.124, 89.43258
1195.606, 89.40205
1196.089, 89.67164
1196.571, 89.69605
1197.053, 89.46899
1197.535, 89.47274
1198.017, 89.80383
1198.499, 89.86259
1198.981, 89.25127
1199.463, 88.56954
1199.945, 88.71945
1200.427, 89.27776
1200.910, 89.37212
1201.392, 89.22057
1201.874, 89.38093
1202.356, 89.74745
1202.838, 89.74822
1203.320, 89.30137
1203.802, 89.04565
1204.284, 89.44061
1204.767, 89.86576
1205.249, 89.89356
1205.731, 89.71158
1206.213, 89.30361
1206.695, 88.90537
1207.177, 88.85220
1207.659, 89.02679
1208.141, 89.03608
1208.624, 88.78838
1209.106, 88.65309
1209.588, 88.81068
1210.070, 88.95103
1210.552, 88.79639
1211.034, 88.86514
1211.516, 89.76638
1211.998, 90.71137
1212.480, 90.86718
1212.963, 90.41586
1213.445, 90.04121
1213.927, 89.76136
1214.409, 89.44013
1214.891, 89.01636
1215.373, 88.80912
1215.855, 88.90798
1216.337, 89.11140
1216.819, 89.34326
1217.302, 89.45441
1217.784, 89.20672
1218.266, 88.78703
1218.748, 88.90102
1219.230, 89.37875
1219.712, 89.23139
1220.194, 88.56898
1220.676, 88.30009
1221.159, 88.55764
1221.641, 88.65987
1222.123, 88.22775
1222.605, 87.82278
1223.087, 88.13180
1223.569, 88.64185
1224.051, 88.81037
1224.533, 88.78613
1225.016, 88.64662
1225.498, 88.52092
1225.980, 88.71037
1226.462, 89.16940
1226.944, 89.32250
1227.426, 88.77028
1227.908, 88.48880
1228.390, 89.07327
1228.872, 89.65109
1229.354, 89.87878
1229.837, 89.93604
1230.319, 90.03233
1230.801, 90.02528
1231.283, 89.58870
1231.765, 88.74155
1232.247, 88.15828
1232.729, 87.83173
1233.211, 87.84924
1233.694, 88.37218
1234.176, 88.64050
1234.658, 88.35680
1235.140, 88.09978
1235.622, 88.31462
1236.104, 88.68882
1236.586, 88.65786
1237.068, 88.34207
1237.551, 88.31909
1238.033, 88.47495
1238.515, 88.12028
1238.997, 87.38663
1239.479, 87.33253
1239.961, 88.15254
1240.443, 88.82146
1240.925, 88.66456
1241.407, 88.28003
1241.890, 88.09074
1242.372, 88.11203
1242.854, 88.55183
1243.336, 89.05795
1243.818, 89.19261
1244.300, 89.04821
1244.782, 88.87024
1245.264, 88.71217
1245.746, 88.62600
1246.229, 88.58580
1246.711, 88.69203
1247.193, 89.14079
1247.675, 89.49767
1248.157, 89.70652
1248.639, 89.64999
1249.121, 89.04601
1249.603, 88.32189
1250.085, 88.31581
1250.568, 88.96810
1251.050, 89.22134
1251.532, 89.04086
1252.014, 88.76354
1252.496, 88.40052
1252.978, 88.39063
1253.460, 88.86341
1253.942, 89.36413
1254.425, 89.58007
1254.907, 89.64754
1255.389, 89.73965
1255.871, 89.82081
1256.353, 89.89880
1256.835, 89.87352
1257.317, 89.33268
1257.799, 88.58871
1258.281, 88.56859
1258.764, 89.29544
1259.246, 89.67749
1259.728, 89.15099
1260.210, 88.62105
1260.692, 88.56851
1261.174, 88.53284
1261.656, 87.97831
1262.138, 87.67883
1262.620, 88.62036
1263.103, 89.98155
1263.585, 90.32800
1264.067, 89.80700
1264.549, 89.72110
1265.031, 90.28520
1265.513, 90.54325
1265.995, 90.44300
1266.477, 90.21394
1266.960, 89.88036
1267.442, 89.59100
1267.924, 89.42213
1268.406, 89.40488
1268.888, 89.62480
1269.370, 89.93100
1269.852, 89.95593
1270.334, 89.79797
1270.817, 89.69114
1271.299, 89.62505
1271.781, 89.51411
1272.263, 89.36533
1272.745, 89.20134
1273.227, 89.03123
1273.709, 89.19164
1274.191, 90.34383
1274.673, 91.23667
1275.156, 91.07024
1275.638, 90.63905
1276.120, 90.35756
1276.602, 90.19071
1277.084, 90.03855
1277.566, 89.94480
1278.048, 90.09041
1278.530, 90.52612
1279.012, 90.71337
1279.495, 90.54470
1279.977, 90.47200
1280.459, 90.51196
1280.941, 90.92361
1281.423, 91.86317
1281.905, 92.61893
1282.387, 92.61764
1282.869, 92.18967
1283.352, 91.81351
1283.834, 91.47018
1284.316, 91.11377
1284.798, 90.74845
##END=



