##NAMES=Fupingqiuite
##RRUFFID=R160052
##IDEAL CHEMISTRY=(Na,Mn^2+^,[box])_2_Mn^2+^_2_Fe^3+^(PO_4_)_3_
##LOCALITY=Nancy Pegmatite, Chacabuco Dept, San Luis, Argentina
##OWNER=RRUFF
##SOURCE=Donald Doell
##DESCRIPTION=Dark green or brown crystals with good cleavage. Type sample
##STATUS=The identification of this mineral is confirmed by single-crystal X-ray diffraction and chemical analysis.
##URL=rruff.info/R160052
##MEASURED CHEMISTRY=(Na_0.98_Mn_0.46_Ca_0.03_)_Σ1.47_(Mn_1.32_Mg_0.44_Fe^2+^_0.20_Fe^3+^_0.04_)_Σ2.00_(Fe^3+^_0.88_Al_0.12_)_Σ1.00_(P_1.00_O_4_)_3_
88.46484, 912.8680
88.94696, 913.8972
89.42908, 913.8690
89.91119, 912.6536
90.39331, 911.1459
90.87543, 910.2365
91.35754, 908.6239
91.83966, 897.2533
92.32178, 869.9403
92.80389, 842.6826
93.28601, 817.1118
93.76813, 793.8362
94.25024, 772.7024
94.73236, 752.9997
95.21448, 734.6126
95.69659, 715.8840
96.17871, 699.1755
96.66083, 684.5193
97.14294, 671.2893
97.62506, 658.8448
98.10718, 647.0541
98.58929, 636.2330
99.07141, 625.7219
99.55353, 616.2018
100.0356, 608.2383
100.5178, 601.4901
100.9999, 594.8570
101.4820, 587.2154
101.9641, 578.2936
102.4462, 570.1094
102.9283, 563.0518
103.4105, 556.3417
103.8926, 548.8759
104.3747, 540.2474
104.8568, 531.9337
105.3389, 526.1686
105.8210, 522.4424
106.3032, 518.4377
106.7853, 512.9254
107.2674, 506.1865
107.7495, 499.4854
108.2316, 492.8975
108.7137, 486.5909
109.1959, 480.5006
109.6780, 474.6522
110.1601, 469.3701
110.6422, 465.1105
111.1243, 462.1140
111.6064, 459.2849
112.0886, 456.1403
112.5707, 453.2878
113.0528, 451.4475
113.5349, 450.7854
114.0170, 450.5924
114.4991, 449.2119
114.9813, 445.3170
115.4634, 441.8572
115.9455, 439.5840
116.4276, 437.6967
116.9097, 435.1721
117.3918, 431.4138
117.8740, 426.6999
118.3561, 422.6083
118.8382, 419.0284
119.3203, 416.0305
119.8024, 413.9767
120.2845, 412.6280
120.7667, 411.1967
121.2488, 409.0655
121.7309, 406.3441
122.2130, 404.0003
122.6951, 402.8589
123.1772, 401.5975
123.6594, 398.8315
124.1415, 394.3023
124.6236, 389.5318
125.1057, 385.2752
125.5878, 381.5656
126.0699, 378.7479
126.5521, 377.4894
127.0342, 377.2465
127.5163, 376.3633
127.9984, 374.5926
128.4805, 372.4578
128.9626, 370.1138
129.4448, 367.6538
129.9269, 365.3074
130.4090, 363.2955
130.8911, 361.6637
131.3732, 359.8852
131.8553, 357.6943
132.3375, 355.5695
132.8196, 353.8476
133.3017, 352.4486
133.7838, 350.9710
134.2659, 348.8828
134.7480, 345.7958
135.2302, 343.0862
135.7123, 340.7202
136.1944, 338.6863
136.6765, 337.1095
137.1586, 335.9790
137.6407, 335.0229
138.1229, 333.7602
138.6050, 332.0466
139.0871, 330.2671
139.5692, 328.5220
140.0513, 326.6974
140.5334, 324.5872
141.0156, 322.0455
141.4977, 319.3244
141.9798, 316.9127
142.4619, 314.7068
142.9440, 312.8798
143.4261, 311.7842
143.9083, 311.2150
144.3904, 310.2802
144.8725, 308.2674
145.3546, 306.0078
145.8367, 304.8612
146.3188, 305.2669
146.8010, 305.7509
147.2831, 304.8381
147.7652, 302.3602
148.2473, 299.8605
148.7294, 297.8208
149.2115, 296.0938
149.6937, 294.6879
150.1758, 293.6705
150.6579, 292.7724
151.1400, 291.4878
151.6221, 289.7307
152.1042, 287.7311
152.5864, 285.2959
153.0685, 282.7972
153.5506, 280.7217
154.0327, 279.3496
154.5148, 278.4466
154.9969, 276.9556
155.4791, 274.1873
155.9612, 271.5441
156.4433, 269.2559
156.9254, 267.2315
157.4075, 265.3329
157.8896, 263.4702
158.3718, 261.6436
158.8539, 259.8788
159.3360, 258.0194
159.8181, 256.3586
160.3002, 255.0782
160.7823, 254.1077
161.2645, 253.2199
161.7466, 252.2447
162.2287, 251.1828
162.7108, 250.2041
163.1929, 249.3694
163.6750, 248.5625
164.1572, 247.7448
164.6393, 246.9090
165.1214, 245.9718
165.6035, 244.7813
166.0856, 243.3864
166.5677, 242.1944
167.0499, 241.4686
167.5320, 240.8676
168.0141, 239.9360
168.4962, 238.5566
168.9783, 237.1829
169.4604, 236.3471
169.9426, 235.8242
170.4247, 235.1007
170.9068, 233.8407
171.3889, 232.2327
171.8710, 230.7650
172.3531, 229.4519
172.8353, 228.3095
173.3174, 227.4171
173.7995, 226.6797
174.2816, 225.8861
174.7637, 224.8685
175.2458, 223.6387
175.7280, 222.4330
176.2101, 221.2278
176.6922, 220.0731
177.1743, 218.9527
177.6564, 217.8933
178.1385, 216.9477
178.6207, 216.2171
179.1028, 215.7567
179.5849, 215.0935
180.0670, 214.1394
180.5491, 213.0641
181.0313, 211.7562
181.5134, 210.3223
181.9955, 209.0923
182.4776, 208.4674
182.9597, 208.7275
183.4418, 208.5807
183.9240, 207.7964
184.4061, 206.8833
184.8882, 206.0938
185.3703, 205.4745
185.8524, 204.9631
186.3345, 204.5027
186.8167, 204.1532
187.2988, 203.6486
187.7809, 202.7226
188.2630, 201.8069
188.7451, 201.3451
189.2272, 201.4110
189.7094, 201.6042
190.1915, 201.3907
190.6736, 200.6734
191.1557, 200.0114
191.6378, 199.6087
192.1199, 199.2318
192.6021, 198.4899
193.0842, 197.2367
193.5663, 195.9476
194.0484, 195.4625
194.5305, 195.7137
195.0126, 195.7041
195.4948, 194.8557
195.9769, 193.5634
196.4590, 192.6408
196.9411, 192.3178
197.4232, 192.2664
197.9053, 192.1530
198.3875, 191.9897
198.8696, 191.8842
199.3517, 191.9249
199.8338, 192.0813
200.3159, 192.2406
200.7980, 192.4935
201.2802, 192.5939
201.7623, 192.2416
202.2444, 191.5305
202.7265, 190.9675
203.2086, 191.1030
203.6907, 191.9091
204.1729, 192.3240
204.6550, 191.8255
205.1371, 191.3045
205.6192, 191.2505
206.1013, 191.6138
206.5834, 192.0512
207.0656, 192.2428
207.5477, 192.1544
208.0298, 192.0505
208.5119, 191.6233
208.9940, 191.4406
209.4761, 191.9167
209.9583, 192.9500
210.4404, 194.0342
210.9225, 194.6114
211.4046, 194.5199
211.8867, 194.6002
212.3689, 195.0175
212.8510, 195.4505
213.3331, 195.7454
213.8152, 195.8983
214.2973, 196.0007
214.7794, 196.1690
215.2616, 196.4792
215.7437, 196.5620
216.2258, 196.4346
216.7079, 196.1245
217.1900, 195.5797
217.6721, 194.8349
218.1543, 194.0168
218.6364, 193.2601
219.1185, 192.5637
219.6006, 191.9690
220.0827, 191.5994
220.5648, 191.2301
221.0470, 190.6775
221.5291, 189.9396
222.0112, 189.1761
222.4933, 188.5435
222.9754, 188.0652
223.4575, 187.7007
223.9397, 187.6209
224.4218, 187.5441
224.9039, 187.1832
225.3860, 186.5199
225.8681, 185.8630
226.3502, 185.5809
226.8324, 185.7002
227.3145, 185.5395
227.7966, 184.8446
228.2787, 183.9765
228.7608, 183.2955
229.2429, 182.8468
229.7251, 182.3965
230.2072, 181.6925
230.6893, 180.7827
231.1714, 179.9560
231.6535, 179.1920
232.1356, 178.5629
232.6178, 178.2171
233.0999, 178.2032
233.5820, 178.2103
234.0641, 178.0431
234.5462, 177.7148
235.0283, 177.2152
235.5105, 176.2093
235.9926, 175.1604
236.4747, 174.9341
236.9568, 175.7996
237.4389, 176.4442
237.9210, 175.5575
238.4032, 173.9438
238.8853, 172.7711
239.3674, 172.6360
239.8495, 173.0182
240.3316, 173.0638
240.8137, 172.7023
241.2959, 172.2002
241.7780, 171.4916
242.2601, 170.7776
242.7422, 170.3399
243.2243, 170.3704
243.7064, 170.6228
244.1886, 170.6323
244.6707, 170.3270
245.1528, 169.9508
245.6349, 169.5872
246.1170, 169.2090
246.5991, 168.7747
247.0813, 168.2601
247.5634, 167.7107
248.0455, 167.2036
248.5276, 166.7361
249.0097, 166.3337
249.4918, 166.0994
249.9740, 165.8794
250.4561, 165.4860
250.9382, 164.8408
251.4203, 164.1310
251.9024, 163.7327
252.3845, 163.7905
252.8667, 163.8580
253.3488, 163.8799
253.8309, 163.8741
254.3130, 163.8688
254.7951, 163.8703
255.2772, 163.8385
255.7594, 163.7105
256.2415, 163.5022
256.7236, 163.1449
257.2057, 162.4227
257.6878, 161.7137
258.1699, 161.3197
258.6520, 161.3037
259.1342, 161.4863
259.6163, 161.6048
260.0984, 161.6689
260.5805, 161.6360
261.0626, 161.5743
261.5447, 161.3909
262.0269, 160.9366
262.5090, 160.2328
262.9911, 159.5124
263.4732, 159.1383
263.9553, 159.4280
264.4374, 159.1591
264.9196, 157.9068
265.4017, 156.5457
265.8838, 155.6096
266.3659, 155.1273
266.8480, 154.7973
267.3301, 154.2954
267.8123, 153.5926
268.2944, 152.8248
268.7765, 151.9628
269.2586, 151.0782
269.7407, 150.1463
270.2228, 149.2057
270.7050, 148.3632
271.1871, 147.7229
271.6692, 147.3043
272.1513, 146.9231
272.6334, 146.6728
273.1155, 146.3628
273.5977, 145.8681
274.0798, 145.2262
274.5619, 144.5711
275.0440, 143.9976
275.5261, 143.5047
276.0082, 143.0182
276.4904, 142.5776
276.9725, 142.1042
277.4546, 141.5369
277.9367, 140.9132
278.4188, 140.3036
278.9009, 139.7369
279.3831, 139.2347
279.8652, 138.9584
280.3473, 139.2992
280.8294, 139.3821
281.3115, 138.7074
281.7936, 137.6280
282.2758, 136.8657
282.7579, 136.8152
283.2400, 137.1756
283.7221, 136.9804
284.2042, 135.7470
284.6863, 134.7480
285.1685, 134.4782
285.6506, 134.5478
286.1327, 134.3784
286.6148, 133.7533
287.0969, 132.8252
287.5790, 131.8499
288.0612, 130.7102
288.5433, 129.8038
289.0254, 129.2250
289.5075, 128.9004
289.9896, 128.8271
290.4717, 129.0173
290.9539, 129.2116
291.4360, 129.0049
291.9181, 128.2773
292.4002, 127.7291
292.8823, 127.5721
293.3644, 127.5432
293.8466, 127.3458
294.3287, 126.9342
294.8108, 126.5383
295.2929, 126.4305
295.7750, 126.6410
296.2571, 126.6259
296.7393, 126.3063
297.2214, 125.7962
297.7035, 125.1006
298.1856, 124.2463
298.6677, 123.4498
299.1498, 122.8943
299.6320, 122.5630
300.1141, 122.1859
300.5962, 121.7006
301.0783, 121.2243
301.5604, 120.8339
302.0425, 120.5178
302.5247, 120.2290
303.0068, 119.9643
303.4889, 119.6943
303.9710, 119.3212
304.4531, 118.7992
304.9352, 118.2527
305.4174, 117.7485
305.8995, 117.2655
306.3816, 116.7139
306.8637, 116.0097
307.3458, 115.3030
307.8279, 114.9538
308.3101, 115.0734
308.7922, 115.1345
309.2743, 114.9766
309.7564, 114.6497
310.2385, 114.2030
310.7206, 113.6183
311.2028, 113.0306
311.6849, 112.6510
312.1670, 112.4888
312.6491, 112.3261
313.1312, 112.1688
313.6133, 111.9657
314.0955, 111.6000
314.5776, 111.0468
315.0597, 110.5261
315.5418, 110.2682
316.0239, 110.2733
316.5060, 110.3063
316.9882, 110.5142
317.4703, 110.6288
317.9524, 110.3600
318.4345, 109.7243
318.9166, 109.0337
319.3987, 108.4681
319.8809, 108.0412
320.3630, 107.7323
320.8451, 107.6595
321.3272, 107.5897
321.8093, 107.4397
322.2914, 107.1972
322.7736, 106.7825
323.2557, 106.0795
323.7378, 105.2670
324.2199, 104.8181
324.7020, 104.8388
325.1841, 104.9427
325.6663, 104.9446
326.1484, 104.9440
326.6305, 105.2542
327.1126, 106.0730
327.5947, 106.8707
328.0768, 106.6288
328.5590, 105.1300
329.0411, 103.9081
329.5232, 103.3309
330.0053, 103.1271
330.4874, 103.0608
330.9695, 103.0892
331.4517, 103.0498
331.9338, 102.7223
332.4159, 102.0660
332.8980, 101.6598
333.3801, 101.7165
333.8622, 101.8797
334.3444, 101.8479
334.8265, 101.6391
335.3086, 101.5226
335.7907, 101.7323
336.2729, 102.2022
336.7550, 102.4097
337.2371, 102.2711
337.7192, 101.9934
338.2013, 101.5499
338.6834, 101.0309
339.1656, 100.6573
339.6477, 100.5539
340.1298, 100.6147
340.6119, 100.5462
341.0940, 100.2455
341.5761, 100.0190
342.0583, 99.97810
342.5404, 100.0226
343.0225, 99.99978
343.5046, 99.86588
343.9867, 99.75329
344.4688, 99.88337
344.9510, 100.4527
345.4331, 100.6560
345.9152, 100.1595
346.3973, 99.52630
346.8794, 99.21310
347.3615, 99.23722
347.8437, 99.31701
348.3258, 99.19960
348.8079, 98.87218
349.2900, 98.65188
349.7721, 98.63767
350.2542, 98.61306
350.7364, 98.47005
351.2185, 98.24477
351.7006, 98.03844
352.1827, 97.91402
352.6648, 97.83955
353.1469, 97.68186
353.6291, 97.14686
354.1112, 96.89294
354.5933, 97.26671
355.0754, 97.85106
355.5575, 98.13189
356.0396, 97.94699
356.5218, 97.55289
357.0039, 97.38069
357.4860, 97.56645
357.9681, 97.69886
358.4502, 97.71498
358.9323, 97.72985
359.4145, 97.90596
359.8966, 98.19773
360.3787, 98.33376
360.8608, 97.99444
361.3429, 97.10042
361.8250, 96.70155
362.3072, 97.39423
362.7893, 97.92687
363.2714, 97.79807
363.7535, 97.22615
364.2356, 96.63283
364.7177, 96.25285
365.1999, 96.06911
365.6820, 96.02016
366.1641, 96.21180
366.6462, 96.40230
367.1283, 96.63906
367.6104, 96.82533
368.0926, 96.83255
368.5747, 96.63515
369.0568, 96.37150
369.5389, 96.26476
370.0210, 96.39133
370.5031, 96.45668
370.9853, 96.39613
371.4674, 96.32613
371.9495, 96.29715
372.4316, 96.31275
372.9137, 96.35780
373.3958, 96.42520
373.8780, 96.51338
374.3601, 96.59204
374.8422, 96.64798
375.3243, 96.71162
375.8064, 96.84846
376.2885, 96.98444
376.7707, 97.02406
377.2528, 96.92905
377.7349, 96.69545
378.2170, 96.26840
378.6991, 95.54145
379.1812, 94.93623
379.6634, 94.66831
380.1455, 94.48732
380.6276, 94.23324
381.1097, 93.87600
381.5918, 93.45065
382.0739, 92.97450
382.5561, 92.45169
383.0382, 91.91673
383.5203, 91.29519
384.0024, 90.76888
384.4845, 90.48652
384.9666, 90.38403
385.4488, 90.27196
385.9309, 89.99887
386.4130, 89.66624
386.8951, 89.55595
387.3772, 89.75654
387.8593, 89.83486
388.3415, 89.37981
388.8236, 88.72423
389.3057, 88.30623
389.7878, 88.27341
390.2699, 88.32498
390.7520, 88.18990
391.2342, 87.89373
391.7163, 87.65565
392.1984, 87.60094
392.6805, 87.54037
393.1626, 87.15503
393.6447, 86.43893
394.1269, 85.92241
394.6090, 85.90095
395.0911, 86.17079
395.5732, 86.47492
396.0553, 86.79359
396.5374, 87.00093
397.0196, 86.90652
397.5017, 86.58030
397.9838, 86.48581
398.4659, 86.81043
398.9480, 87.21933
399.4301, 87.52394
399.9123, 87.74283
400.3944, 87.96575
400.8765, 88.25124
401.3586, 88.52904
401.8407, 88.57504
402.3228, 88.11814
402.8050, 88.05042
403.2871, 88.91979
403.7692, 90.06077
404.2513, 90.72445
404.7334, 90.77946
405.2155, 90.59673
405.6977, 90.55909
406.1798, 90.69058
406.6619, 90.80697
407.1440, 90.79869
407.6261, 90.88398
408.1082, 91.26445
408.5904, 91.81713
409.0725, 92.27624
409.5546, 92.49353
410.0367, 92.49435
410.5188, 92.35918
411.0009, 91.93204
411.4831, 91.57094
411.9652, 91.32157
412.4473, 91.12650
412.9294, 91.00213
413.4115, 90.91911
413.8936, 90.72182
414.3758, 90.14955
414.8579, 89.06341
415.3400, 88.37694
415.8221, 88.44868
416.3042, 88.58952
416.7863, 88.63167
417.2685, 88.56192
417.7506, 88.39708
418.2327, 88.14312
418.7148, 87.80969
419.1969, 87.40072
419.6790, 86.82182
420.1612, 86.38771
420.6433, 86.31586
421.1254, 86.32407
421.6075, 86.13699
422.0896, 85.71091
422.5717, 85.32069
423.0539, 85.32921
423.5360, 85.69981
424.0181, 85.80608
424.5002, 85.39571
424.9823, 84.99611
425.4644, 84.99123
425.9466, 85.26436
426.4287, 85.52702
426.9108, 85.69127
427.3929, 85.76637
427.8750, 85.74343
428.3571, 85.61835
428.8393, 85.47336
429.3214, 85.27355
429.8035, 85.13103
430.2856, 85.22438
430.7677, 85.60857
431.2498, 86.03262
431.7320, 86.43137
432.2141, 86.77635
432.6962, 86.99953
433.1783, 87.08106
433.6604, 87.09885
434.1425, 87.12895
434.6247, 87.16982
435.1068, 87.16208
435.5889, 86.86341
436.0710, 86.73108
436.5531, 87.18700
437.0352, 88.06398
437.5174, 88.84485
437.9995, 89.25903
438.4816, 89.43752
438.9637, 89.73265
439.4458, 90.16785
439.9279, 90.68884
440.4101, 91.29004
440.8922, 91.97746
441.3743, 92.81668
441.8564, 93.78582
442.3385, 94.73769
442.8206, 95.52995
443.3028, 96.15144
443.7849, 96.76275
444.2670, 97.19678
444.7491, 97.80715
445.2312, 98.81691
445.7133, 100.0212
446.1955, 101.1459
446.6776, 102.0707
447.1597, 102.8463
447.6418, 103.5296
448.1239, 104.0483
448.6060, 104.6958
449.0882, 105.8372
449.5703, 106.8464
450.0524, 107.2827
450.5345, 107.2251
451.0166, 107.1127
451.4987, 107.2666
451.9809, 107.6077
452.4630, 107.8868
452.9451, 108.1657
453.4272, 108.2145
453.9093, 107.6830
454.3914, 106.9506
454.8736, 106.4551
455.3557, 106.3303
455.8378, 106.2430
456.3199, 105.8987
456.8020, 105.3590
457.2841, 104.9026
457.7663, 104.6295
458.2484, 104.3449
458.7305, 103.8297
459.2126, 103.1114
459.6947, 102.3355
460.1768, 101.3386
460.6590, 100.4382
461.1411, 100.0316
461.6232, 100.0053
462.1053, 99.80051
462.5874, 99.10042
463.0695, 98.09423
463.5517, 97.29525
464.0338, 96.84201
464.5159, 96.32895
464.9980, 95.53060
465.4801, 94.76351
465.9622, 94.33665
466.4444, 94.27307
466.9265, 94.40760
467.4086, 94.65022
467.8907, 95.00319
468.3728, 94.81826
468.8549, 93.50564
469.3371, 92.31382
469.8192, 91.56812
470.3013, 91.04690
470.7834, 90.45292
471.2655, 89.68301
471.7477, 88.90517
472.2298, 88.40700
472.7119, 88.26796
473.1940, 88.03687
473.6761, 87.65760
474.1582, 87.20788
474.6404, 86.63268
475.1225, 86.01336
475.6046, 85.54813
476.0867, 85.40137
476.5688, 85.40800
477.0509, 85.13539
477.5331, 84.48613
478.0152, 84.30916
478.4973, 85.51565
478.9794, 86.86604
479.4615, 86.81022
479.9436, 85.18434
480.4258, 83.59901
480.9079, 82.83933
481.3900, 82.62386
481.8721, 82.54665
482.3542, 82.56882
482.8363, 82.57121
483.3185, 82.44334
483.8006, 82.22078
484.2827, 82.11201
484.7648, 82.20796
485.2469, 82.30428
485.7290, 82.32131
486.2112, 82.29774
486.6933, 82.32975
487.1754, 82.43893
487.6575, 82.47378
488.1396, 82.20781
488.6217, 81.51836
489.1039, 81.12231
489.5860, 81.22160
490.0681, 81.34990
490.5502, 81.32915
491.0323, 81.20322
491.5144, 81.07945
491.9966, 81.01244
492.4787, 80.95595
492.9608, 80.79526
493.4429, 80.46871
493.9250, 80.22129
494.4071, 80.26347
494.8893, 80.23402
495.3714, 79.85880
495.8535, 79.21597
496.3356, 78.62601
496.8177, 78.27194
497.2998, 78.11164
497.7820, 78.08655
498.2641, 78.23313
498.7462, 78.31548
499.2283, 78.22240
499.7104, 78.01926
500.1925, 77.77401
500.6747, 77.47652
501.1568, 77.22820
501.6389, 77.19579
502.1210, 77.20515
502.6031, 76.92168
503.0852, 76.30489
503.5674, 75.65317
504.0495, 75.18256
504.5316, 74.87692
505.0137, 74.60217
505.4958, 74.31552
505.9779, 74.10601
506.4601, 74.06660
506.9422, 74.08981
507.4243, 74.05437
507.9064, 73.92376
508.3885, 73.69520
508.8706, 73.33411
509.3528, 72.79372
509.8349, 72.48837
510.3170, 72.55661
510.7991, 72.71282
511.2812, 73.01402
511.7633, 73.31126
512.2454, 73.38899
512.7275, 73.15777
513.2097, 72.77843
513.6918, 72.45406
514.1739, 72.17513
514.6560, 72.05701
515.1381, 72.27090
515.6202, 72.46529
516.1024, 72.34892
516.5845, 72.04336
517.0666, 71.88676
517.5487, 72.11994
518.0308, 72.44669
518.5129, 72.40440
518.9951, 72.05293
519.4772, 72.01925
519.9593, 72.61533
520.4414, 73.45107
520.9235, 73.92655
521.4056, 74.02822
521.8878, 74.14682
522.3699, 74.34615
522.8520, 74.58700
523.3341, 74.76590
523.8162, 74.94318
524.2983, 75.36185
524.7805, 76.18703
525.2626, 77.23901
525.7447, 78.01696
526.2268, 78.14071
526.7089, 78.58083
527.1910, 79.73399
527.6732, 80.85994
528.1553, 81.42490
528.6374, 81.48872
529.1195, 81.45348
529.6016, 81.60181
530.0837, 81.88207
530.5659, 82.15759
531.0480, 82.56210
531.5301, 82.60906
532.0122, 81.98608
532.4943, 81.05656
532.9764, 79.94572
533.4586, 78.69871
533.9407, 77.63599
534.4228, 77.05376
534.9049, 76.76765
535.3870, 76.41251
535.8691, 75.96671
536.3513, 75.56404
536.8334, 75.26794
537.3155, 75.07487
537.7976, 74.97691
538.2797, 75.02892
538.7618, 75.03578
539.2440, 74.90385
539.7261, 74.72221
540.2082, 74.61543
540.6903, 74.57919
541.1724, 74.47413
541.6545, 74.17071
542.1367, 73.70684
542.6188, 73.38968
543.1009, 73.36646
543.5830, 73.30618
544.0651, 73.18321
544.5472, 73.00669
545.0294, 72.77158
545.5115, 72.48573
545.9936, 72.18148
546.4757, 71.86722
546.9578, 71.55647
547.4399, 71.34794
547.9221, 71.29166
548.4042, 71.22121
548.8863, 71.08879
549.3684, 70.89212
549.8505, 70.56801
550.3326, 70.07698
550.8148, 69.71864
551.2969, 69.76573
551.7790, 70.04394
552.2611, 70.23007
552.7432, 70.28712
553.2253, 70.29762
553.7075, 70.29629
554.1896, 70.29930
554.6717, 70.39307
555.1538, 70.73722
555.6359, 70.93933
556.1180, 70.77702
556.6002, 70.52640
557.0823, 70.42536
557.5644, 70.52771
558.0465, 70.84448
558.5286, 71.44538
559.0107, 72.26330
559.4929, 72.60238
559.9750, 72.04308
560.4571, 71.66823
560.9392, 71.82026
561.4213, 72.13772
561.9034, 72.33644
562.3856, 72.36587
562.8677, 72.30726
563.3498, 72.16176
563.8319, 71.98054
564.3140, 71.93101
564.7961, 72.03130
565.2783, 72.18049
565.7604, 72.36311
566.2425, 72.54284
566.7246, 72.62496
567.2067, 72.53962
567.6888, 72.59619
568.1710, 72.94443
568.6531, 73.46089
569.1352, 74.08603
569.6173, 74.77143
570.0994, 75.30343
570.5815, 75.48849
571.0637, 75.48488
571.5458, 75.95869
572.0279, 77.41476
572.5100, 78.61558
572.9921, 79.28465
573.4742, 79.86302
573.9564, 80.64957
574.4385, 81.64880
574.9206, 82.72905
575.4027, 83.84451
575.8848, 84.92216
576.3669, 85.63905
576.8491, 85.85397
577.3312, 86.45637
577.8133, 88.06718
578.2954, 89.86186
578.7775, 91.00450
579.2596, 91.51884
579.7418, 91.92294
580.2239, 92.51819
580.7060, 93.01369
581.1881, 92.96569
581.6702, 92.49744
582.1523, 92.23874
582.6345, 92.50256
583.1166, 92.95947
583.5988, 92.97860
584.0809, 92.28886
584.5630, 91.88913
585.0451, 91.91507
585.5272, 92.07278
586.0093, 92.22574
586.4915, 92.39548
586.9736, 92.68294
587.4557, 93.14000
587.9378, 93.62498
588.4199, 93.86944
588.9020, 93.84338
589.3842, 93.82792
589.8663, 93.74111
590.3484, 93.82199
590.8305, 94.34728
591.3126, 95.11696
591.7947, 95.68307
592.2769, 95.84750
592.7590, 95.92394
593.2411, 96.14529
593.7232, 96.46957
594.2053, 96.81474
594.6874, 97.16860
595.1696, 97.46255
595.6517, 97.63115
596.1338, 97.67480
596.6159, 97.66521
597.0980, 97.76335
597.5801, 97.61863
598.0623, 96.95304
598.5444, 96.11689
599.0265, 95.48083
599.5086, 95.10725
599.9907, 94.82632
600.4728, 94.52657
600.9550, 94.18101
601.4371, 93.54185
601.9192, 92.43264
602.4013, 91.45798
602.8834, 90.98799
603.3655, 90.65276
603.8477, 90.06033
604.3298, 89.18003
604.8119, 88.45651
605.2940, 88.23796
605.7761, 88.22507
606.2582, 88.04411
606.7404, 87.69479
607.2225, 87.31528
607.7046, 86.96638
608.1867, 86.64029
608.6688, 86.30322
609.1509, 85.84411
609.6331, 85.66138
610.1152, 86.02492
610.5973, 86.38881
611.0794, 86.46596
611.5615, 86.32368
612.0436, 86.12243
612.5258, 85.93118
613.0079, 85.77567
613.4900, 85.76275
613.9721, 85.91316
614.4542, 85.76723
614.9363, 85.05051
615.4185, 84.41072
615.9006, 84.50093
616.3827, 84.92587
616.8648, 84.88136
617.3469, 84.00600
617.8290, 83.07901
618.3112, 82.62246
618.7933, 82.39159
619.2754, 81.91209
619.7575, 81.13274
620.2396, 80.50208
620.7217, 80.45004
621.2039, 80.82710
621.6860, 80.63060
622.1681, 79.25593
622.6502, 78.12925
623.1323, 77.47910
623.6144, 77.00072
624.0966, 76.52251
624.5787, 76.00059
625.0608, 75.40623
625.5429, 74.67611
626.0250, 73.91289
626.5071, 73.39743
626.9893, 73.14759
627.4714, 72.72980
627.9535, 71.97402
628.4356, 71.09536
628.9177, 70.26437
629.3998, 69.48682
629.8820, 68.84727
630.3641, 68.45510
630.8462, 68.10396
631.3283, 67.62655
631.8104, 67.12495
632.2925, 66.84228
632.7747, 66.82278
633.2568, 66.77254
633.7389, 66.32858
634.2210, 65.48837
634.7031, 64.85896
635.1852, 64.52263
635.6674, 64.28384
636.1495, 64.25346
636.6316, 64.18673
637.1137, 63.77905
637.5958, 63.02222
638.0779, 62.32236
638.5601, 61.97580
639.0422, 61.83830
639.5243, 61.70047
640.0064, 61.55556
640.4885, 61.34657
640.9706, 61.01364
641.4528, 60.69246
641.9349, 60.64744
642.4170, 61.05195
642.8991, 61.07297
643.3812, 60.43428
643.8633, 59.70720
644.3455, 58.99961
644.8276, 58.43073
645.3097, 58.19273
645.7918, 58.33522
646.2739, 58.61461
646.7560, 58.77082
647.2382, 58.80465
647.7203, 58.68941
648.2024, 58.38201
648.6845, 58.02965
649.1666, 57.65606
649.6487, 57.29892
650.1309, 57.01367
650.6130, 56.81242
651.0951, 56.63334
651.5772, 56.50995
652.0593, 56.35684
652.5414, 55.98224
653.0236, 55.47869
653.5057, 55.24301
653.9878, 55.48673
654.4699, 55.91566
654.9520, 55.94649
655.4341, 55.39588
655.9163, 55.05392
656.3984, 55.13947
656.8805, 55.20874
657.3626, 55.13667
657.8447, 54.95124
658.3268, 54.67837
658.8090, 54.31849
659.2911, 53.97136
659.7732, 53.69883
660.2553, 53.50573
660.7374, 53.41118
661.2195, 53.41693
661.7017, 53.51213
662.1838, 53.73823
662.6659, 53.99121
663.1480, 53.99294
663.6301, 53.52058
664.1122, 53.27300
664.5944, 53.55824
665.0765, 53.79305
665.5586, 53.55605
666.0407, 53.02729
666.5228, 52.60009
667.0049, 52.43911
667.4871, 52.41176
667.9692, 52.33769
668.4513, 52.22398
668.9334, 52.20132
669.4155, 52.31636
669.8976, 52.41380
670.3798, 52.41267
670.8619, 52.32805
671.3440, 52.19062
671.8261, 51.97102
672.3082, 51.79047
672.7903, 51.72618
673.2725, 51.68297
673.7546, 51.54592
674.2367, 51.35134
674.7188, 51.22592
675.2009, 51.23307
675.6830, 51.32710
676.1652, 51.43720
676.6473, 51.57414
677.1294, 51.65997
677.6115, 51.61784
678.0936, 51.63288
678.5757, 51.94749
679.0579, 52.30788
679.5400, 52.29264
680.0221, 51.76123
680.5042, 51.24516
680.9863, 51.05760
681.4684, 51.05132
681.9506, 51.05917
682.4327, 51.06303
682.9148, 51.05456
683.3969, 51.02324
683.8790, 51.01111
684.3611, 51.11826
684.8433, 51.42186
685.3254, 51.60632
685.8075, 51.63569
686.2896, 51.57976
686.7717, 51.39219
687.2538, 51.15981
687.7360, 50.99915
688.2181, 50.94242
688.7002, 50.92420
689.1823, 50.90414
689.6644, 50.88285
690.1465, 50.86139
690.6287, 50.83992
691.1108, 50.82621
691.5929, 50.83307
692.0750, 50.82741
692.5571, 50.73796
693.0392, 50.50733
693.5214, 50.37516
694.0035, 50.42073
694.4856, 50.46793
694.9677, 50.40294
695.4498, 50.31619
695.9319, 50.36918
696.4141, 50.59474
696.8962, 50.80037
697.3783, 50.77369
697.8604, 50.59050
698.3425, 50.43382
698.8246, 50.30024
699.3068, 50.35970
699.7889, 50.73913
700.2710, 51.25642
700.7531, 51.66639
701.2352, 51.98211
701.7173, 52.08015
702.1995, 51.88250
702.6816, 51.55166
703.1637, 50.87178
703.6458, 50.22937
704.1279, 50.24430
704.6100, 50.98287
705.0922, 51.80006
705.5743, 52.14097
706.0564, 52.07742
706.5385, 51.76318
707.0206, 51.15126
707.5027, 50.72258
707.9849, 50.63834
708.4670, 50.78728
708.9491, 51.12457
709.4312, 51.64629
709.9133, 51.98373
710.3954, 51.92165
710.8776, 51.89522
711.3597, 52.16960
711.8418, 52.52623
712.3239, 52.69044
712.8060, 52.62846
713.2881, 52.47082
713.7703, 52.29447
714.2524, 52.13855
714.7345, 52.15842
715.2166, 52.38472
715.6987, 52.52465
716.1808, 52.47623
716.6630, 52.38198
717.1451, 52.41966
717.6272, 52.53447
718.1093, 52.46794
718.5914, 51.93062
719.0735, 51.55592
719.5557, 51.70095
720.0378, 52.02056
720.5199, 52.15890
721.0020, 52.10118
721.4841, 52.03111
721.9662, 52.07225
722.4484, 52.14813
722.9305, 52.05996
723.4126, 51.78220
723.8947, 51.65493
724.3768, 51.80357
724.8589, 51.94067
725.3411, 51.86229
725.8232, 51.63691
726.3053, 51.41526
726.7874, 51.16896
727.2695, 51.01460
727.7516, 51.03631
728.2338, 51.12463
728.7159, 51.23024
729.1980, 51.31739
729.6801, 51.31211
730.1622, 51.17967
730.6443, 51.00496
731.1265, 50.92102
731.6086, 50.92820
732.0907, 50.89796
732.5728, 50.81015
733.0549, 50.73522
733.5370, 50.72145
734.0192, 50.72773
734.5013, 50.69112
734.9834, 50.60901
735.4655, 50.50764
735.9476, 50.36014
736.4297, 50.22705
736.9119, 50.16446
737.3940, 50.13677
737.8761, 50.08805
738.3582, 50.00124
738.8403, 49.88593
739.3224, 49.74264
739.8046, 49.58097
740.2867, 49.44833
740.7688, 49.35058
741.2509, 49.23838
741.7330, 49.03649
742.2151, 48.89960
742.6973, 49.08247
743.1794, 49.52843
743.6615, 49.76548
744.1436, 49.57903
744.6257, 49.39617
745.1078, 49.42629
745.5900, 49.49166
746.0721, 49.38114
746.5542, 49.10581
747.0363, 48.81750
747.5184, 48.59690
748.0005, 48.46893
748.4827, 48.51012
748.9648, 48.71769
749.4469, 48.91489
749.9290, 49.09296
750.4111, 49.21324
750.8932, 49.23722
751.3754, 49.18705
751.8575, 49.14092
752.3396, 49.15038
752.8217, 49.04486
753.3038, 48.58991
753.7859, 48.21651
754.2681, 48.27848
754.7502, 48.60143
755.2323, 48.86383
755.7144, 48.94940
756.1965, 48.90391
756.6786, 48.72615
757.1608, 48.45875
757.6429, 48.23487
758.1250, 48.05737
758.6071, 47.98037
759.0892, 48.06709
759.5714, 48.17266
760.0535, 48.06887
760.5356, 47.70928
761.0177, 47.55764
761.4998, 47.76329
761.9819, 47.96961
762.4641, 48.11269
762.9462, 48.19900
763.4283, 48.24116
763.9104, 48.23764
764.3925, 48.17280
764.8746, 48.02248
765.3568, 47.82914
765.8389, 47.60338
766.3210, 47.37819
766.8031, 47.31020
767.2852, 47.43079
767.7673, 47.57401
768.2495, 47.61432
768.7316, 47.58524
769.2137, 47.60720
769.6958, 47.67695
770.1779, 47.80528
770.6600, 48.08519
771.1422, 48.32396
771.6243, 48.44724
772.1064, 48.46880
772.5885, 48.41118
773.0706, 48.27840
773.5527, 48.08891
774.0349, 47.72227
774.5170, 47.39199
774.9991, 47.48405
775.4812, 47.87929
775.9633, 48.09941
776.4454, 47.96766
776.9276, 47.66737
777.4097, 47.39392
777.8918, 47.15179
778.3739, 47.12567
778.8560, 47.46248
779.3381, 47.68617
779.8203, 47.57936
780.3024, 47.40459
780.7845, 47.37191
781.2666, 47.45859
781.7487, 47.54369
782.2308, 47.69553
782.7130, 47.70966
783.1951, 47.33856
783.6772, 46.86960
784.1593, 46.63504
784.6414, 46.64294
785.1235, 46.74155
785.6057, 46.84796
786.0878, 46.97384
786.5699, 47.20411
787.0520, 47.53071
787.5341, 47.51777
788.0162, 47.01353
788.4984, 46.66907
788.9805, 46.94514
789.4626, 47.45097
789.9447, 47.43451
790.4268, 46.75908
790.9089, 46.30522
791.3911, 46.16092
791.8732, 46.19493
792.3553, 46.56069
792.8374, 46.95628
793.3195, 46.98210
793.8016, 46.62987
794.2838, 46.28705
794.7659, 46.23330
795.2480, 46.31320
795.7301, 46.27087
796.2122, 46.14695
796.6943, 46.13729
797.1765, 46.28284
797.6586, 46.45761
798.1407, 46.56425
798.6228, 46.62954
799.1049, 46.75570
799.5870, 47.03612
800.0692, 47.17854
800.5513, 47.06643
801.0334, 46.93273
801.5155, 46.84237
801.9976, 46.79606
802.4797, 46.82123
802.9619, 46.93315
803.4440, 46.95128
803.9261, 46.66623
804.4082, 46.35221
804.8903, 46.26522
805.3724, 46.35540
805.8546, 46.54427
806.3367, 46.78661
806.8188, 46.92736
807.3009, 46.77893
807.7830, 46.44866
808.2651, 46.41391
808.7473, 46.73885
809.2294, 46.90796
809.7115, 46.77903
810.1936, 46.56196
810.6757, 46.36371
811.1578, 46.20930
811.6400, 46.20369
812.1221, 46.48745
812.6042, 46.63372
813.0863, 46.42829
813.5684, 46.22261
814.0505, 46.26473
814.5327, 46.45285
815.0148, 46.60182
815.4969, 46.65462
815.9790, 46.64726
816.4611, 46.58892
816.9432, 46.50036
817.4254, 46.40276
817.9075, 46.30520
818.3896, 46.26904
818.8717, 46.31498
819.3538, 46.35539
819.8359, 46.29021
820.3181, 46.14810
820.8002, 46.14213
821.2823, 46.36731
821.7644, 46.51003
822.2465, 46.47638
822.7286, 46.41445
823.2108, 46.39391
823.6929, 46.40703
824.1750, 46.44186
824.6571, 46.50698
825.1392, 46.55616
825.6213, 46.57895
826.1035, 46.57309
826.5856, 46.52284
827.0677, 46.44643
827.5498, 46.36028
828.0319, 46.27692
828.5140, 46.24923
828.9962, 46.37370
829.4783, 46.55890
829.9604, 46.47760
830.4425, 46.14102
830.9246, 46.00731
831.4067, 46.21729
831.8889, 46.47868
832.3710, 46.54600
832.8531, 46.46697
833.3352, 46.45470
833.8173, 46.54419
834.2994, 46.64245
834.7816, 46.82676
835.2637, 46.93579
835.7458, 46.85827
836.2279, 46.67820
836.7100, 46.50568
837.1921, 46.36162
837.6743, 46.26134
838.1564, 46.18652
838.6385, 46.18196
839.1206, 46.32081
839.6027, 46.55164
840.0848, 46.80195
840.5670, 47.03857
841.0491, 47.20596
841.5312, 47.25547
842.0133, 47.20863
842.4954, 47.10001
842.9775, 46.92721
843.4597, 46.78852
843.9418, 46.69133
844.4239, 46.65491
844.9060, 46.73393
845.3881, 46.84264
845.8702, 46.77994
846.3524, 46.46279
846.8345, 46.22430
847.3166, 45.96968
847.7987, 45.90547
848.2808, 46.25441
848.7629, 46.72467
849.2451, 47.03761
849.7272, 47.16225
850.2093, 47.17961
850.6914, 47.08605
851.1735, 46.95678
851.6556, 46.83070
852.1378, 46.72182
852.6199, 46.63651
853.1020, 46.58685
853.5841, 46.62498
854.0662, 46.78383
854.5483, 46.98810
855.0305, 47.09060
855.5126, 47.09947
855.9947, 47.28076
856.4768, 47.70373
856.9589, 47.93297
857.4410, 47.76732
857.9232, 47.41021
858.4053, 47.06003
858.8874, 46.71689
859.3695, 46.50769
859.8516, 46.45591
860.3337, 46.49970
860.8159, 46.68996
861.2980, 46.92036
861.7801, 47.19421
862.2622, 47.43855
862.7443, 47.47449
863.2264, 47.20520
863.7086, 46.99416
864.1907, 47.12106
864.6728, 47.37009
865.1549, 47.57108
865.6370, 47.69054
866.1191, 47.65185
866.6013, 47.45092
867.0834, 47.23181
867.5655, 47.10398
868.0476, 47.08848
868.5297, 47.34608
869.0118, 47.87180
869.4940, 48.05237
869.9761, 47.72031
870.4582, 47.36202
870.9403, 47.30367
871.4224, 47.43761
871.9045, 47.48182
872.3867, 47.36620
872.8688, 47.36726
873.3509, 47.51960
873.8330, 47.75145
874.3151, 48.18719
874.7972, 48.59551
875.2794, 48.70844
875.7615, 48.54108
876.2436, 48.36875
876.7257, 48.20484
877.2078, 48.15425
877.6899, 48.38848
878.1721, 48.68468
878.6542, 48.76961
879.1363, 48.67978
879.6184, 48.62288
880.1005, 48.69236
880.5826, 48.76704
881.0648, 48.62177
881.5469, 48.38702
882.0290, 48.49274
882.5111, 48.91045
882.9932, 49.31038
883.4753, 49.59853
883.9575, 49.69920
884.4396, 49.48674
884.9217, 49.06043
885.4038, 48.96633
885.8859, 49.33725
886.3680, 49.64475
886.8502, 49.87275
887.3323, 49.98197
887.8144, 49.83227
888.2965, 49.60002
888.7786, 49.62362
889.2607, 49.97878
889.7429, 50.14861
890.2250, 49.83158
890.7071, 49.59237
891.1892, 49.74574
891.6713, 50.03602
892.1534, 50.17569
892.6356, 50.17864
893.1177, 50.26519
893.5998, 50.58963
894.0819, 50.87165
894.5640, 50.76917
895.0461, 50.51324
895.5283, 50.43707
896.0104, 50.55630
896.4925, 50.85435
896.9746, 51.31436
897.4567, 51.72631
897.9388, 51.81192
898.4210, 51.67418
898.9031, 51.80684
899.3852, 52.22568
899.8673, 52.50950
900.3494, 52.56781
900.8315, 52.48812
901.3137, 52.24946
901.7958, 52.00414
902.2779, 52.23283
902.7600, 53.29404
903.2421, 53.81227
903.7242, 53.30440
904.2064, 52.88296
904.6885, 52.81340
905.1706, 53.03068
905.6527, 53.63168
906.1348, 54.53478
906.6169, 55.12444
907.0991, 55.04346
907.5812, 54.92399
908.0633, 54.93559
908.5454, 55.06432
909.0275, 55.33641
909.5096, 55.70487
909.9918, 56.09913
910.4739, 56.49166
910.9560, 56.85260
911.4381, 57.15510
911.9202, 57.41283
912.4023, 57.62681
912.8845, 57.81319
913.3666, 57.98136
913.8487, 58.15081
914.3308, 58.47755
914.8129, 59.11009
915.2950, 59.81519
915.7772, 59.99375
916.2593, 59.65558
916.7414, 59.62823
917.2235, 59.96119
917.7056, 60.58321
918.1877, 61.55654
918.6699, 62.59172
919.1520, 63.30678
919.6341, 63.71334
920.1162, 64.19870
920.5983, 64.87381
921.0804, 65.43342
921.5626, 65.73011
922.0447, 66.02096
922.5268, 66.39427
923.0089, 66.86495
923.4910, 67.47090
923.9731, 68.23194
924.4553, 69.01662
924.9374, 69.65787
925.4195, 70.46575
925.9016, 71.70974
926.3837, 73.11922
926.8658, 74.43906
927.3480, 75.64031
927.8301, 76.76704
928.3122, 77.79452
928.7943, 78.91933
929.2764, 80.33611
929.7585, 81.93801
930.2407, 83.61049
930.7228, 85.32056
931.2049, 86.95079
931.6870, 88.49028
932.1691, 90.21524
932.6512, 92.39305
933.1334, 94.89851
933.6155, 97.44076
934.0976, 100.0218
934.5797, 102.6387
935.0618, 105.2690
935.5439, 108.3235
936.0261, 112.0256
936.5082, 116.2026
936.9903, 120.5932
937.4724, 125.1671
937.9545, 130.0848
938.4366, 135.1750
938.9188, 141.0369
939.4009, 147.9538
939.8830, 155.4557
940.3651, 163.0642
940.8472, 171.0108
941.3293, 180.1655
941.8115, 190.8195
942.2936, 202.0218
942.7757, 213.9600
943.2578, 226.1775
943.7399, 238.9298
944.2220, 251.5933
944.7042, 263.9078
945.1863, 275.5743
945.6684, 285.4429
946.1505, 293.4593
946.6326, 299.0863
947.1147, 302.4620
947.5969, 302.9930
948.0790, 299.8948
948.5611, 293.6361
949.0432, 284.8183
949.5253, 273.7876
950.0074, 261.3981
950.4896, 247.7816
950.9717, 233.7894
951.4538, 220.1782
951.9359, 207.1261
952.4180, 194.8601
952.9001, 183.4716
953.3823, 173.1729
953.8644, 164.0278
954.3465, 155.9897
954.8286, 149.1404
955.3107, 143.3088
955.7928, 137.7194
956.2750, 132.3678
956.7571, 127.8388
957.2392, 124.2741
957.7213, 121.5061
958.2034, 119.5038
958.6855, 117.9469
959.1677, 115.8927
959.6498, 113.1210
960.1319, 111.1313
960.6140, 110.0392
961.0961, 109.4199
961.5782, 109.3119
962.0604, 109.3581
962.5425, 109.1651
963.0246, 108.7851
963.5067, 108.6249
963.9888, 108.7431
964.4709, 108.9898
964.9531, 109.2626
965.4352, 109.7737
965.9173, 110.7103
966.3994, 111.8739
966.8815, 113.0791
967.3636, 114.2989
967.8458, 115.3973
968.3279, 116.0427
968.8100, 116.9816
969.2921, 118.7189
969.7742, 120.5943
970.2563, 122.0464
970.7385, 123.2719
971.2206, 124.6883
971.7027, 126.3974
972.1848, 128.2942
972.6669, 130.4783
973.1490, 132.6507
973.6312, 134.6073
974.1133, 136.3694
974.5954, 137.8169
975.0775, 139.0979
975.5596, 140.7505
976.0417, 143.0278
976.5239, 145.2245
977.0060, 146.4487
977.4881, 147.2494
977.9702, 148.5680
978.4523, 150.2787
978.9344, 152.1216
979.4166, 153.9499
979.8987, 155.2386
980.3808, 155.6127
980.8629, 155.5552
981.3450, 155.9134
981.8271, 156.5811
982.3093, 156.9866
982.7914, 157.1150
983.2735, 156.9567
983.7556, 156.4918
984.2377, 155.9774
984.7198, 155.6468
985.2020, 155.4195
985.6841, 155.0934
986.1662, 154.6983
986.6483, 153.9262
987.1304, 152.7299
987.6125, 151.2604
988.0947, 149.4868
988.5768, 147.6175
989.0589, 145.8969
989.5410, 144.2939
990.0231, 142.5893
990.5052, 140.7539
990.9874, 138.8729
991.4695, 136.8965
991.9516, 134.9704
992.4337, 133.2774
992.9158, 131.5654
993.3979, 129.3575
993.8801, 126.6563
994.3622, 124.4506
994.8443, 123.1833
995.3264, 121.7586
995.8085, 120.0794
996.2906, 118.1859
996.7728, 115.9070
997.2549, 113.5221
997.7370, 111.3820
998.2191, 109.5225
998.7012, 108.0299
999.1833, 107.2109
999.6655, 106.3719
1000.148, 105.2503
1000.630, 104.0277
1001.112, 102.8187
1001.594, 101.6313
1002.076, 100.4093
1002.558, 99.13876
1003.040, 98.00832
1003.522, 97.27928
1004.005, 96.52952
1004.487, 95.44567
1004.969, 94.20576
1005.451, 92.97150
1005.933, 91.78050
1006.415, 90.64944
1006.897, 89.58431
1007.379, 88.56898
1007.861, 87.57561
1008.344, 86.63813
1008.826, 85.87772
1009.308, 85.16477
1009.790, 84.19556
1010.272, 83.03683
1010.754, 82.12645
1011.236, 81.67210
1011.718, 81.34067
1012.201, 80.68004
1012.683, 79.95335
1013.165, 79.77482
1013.647, 79.92597
1014.129, 79.62633
1014.611, 78.84114
1015.093, 78.35503
1015.575, 78.63873
1016.057, 79.21678
1016.540, 79.43291
1017.022, 79.37373
1017.504, 79.32508
1017.986, 79.28636
1018.468, 79.22287
1018.950, 79.12989
1019.432, 79.08492
1019.914, 79.15481
1020.396, 79.21741
1020.879, 79.01440
1021.361, 78.57276
1021.843, 78.21449
1022.325, 77.94307
1022.807, 77.62343
1023.289, 77.21349
1023.771, 76.86397
1024.253, 76.71525
1024.735, 76.61660
1025.218, 76.14355
1025.700, 75.25004
1026.182, 74.80962
1026.664, 74.89351
1027.146, 75.05825
1027.628, 75.25373
1028.110, 75.23635
1028.592, 74.72691
1029.075, 73.96981
1029.557, 73.67146
1030.039, 73.95696
1030.521, 73.99563
1031.003, 73.69667
1031.485, 73.37822
1031.967, 72.98463
1032.449, 72.89847
1032.932, 73.58871
1033.414, 74.74522
1033.896, 75.32410
1034.378, 75.02586
1034.860, 75.22462
1035.342, 76.17463
1035.824, 77.12737
1036.306, 77.83312
1036.788, 78.52259
1037.271, 79.34891
1037.753, 80.31551
1038.235, 81.44807
1038.717, 82.70496
1039.199, 84.24639
1039.681, 86.22866
1040.163, 88.27680
1040.645, 90.35824
1041.127, 92.43382
1041.610, 94.60026
1042.092, 96.74561
1042.574, 98.47901
1043.056, 99.58696
1043.538, 100.9070
1044.020, 103.2767
1044.502, 104.8075
1044.984, 104.8687
1045.467, 103.9789
1045.949, 102.2909
1046.431, 100.0200
1046.913, 97.74403
1047.395, 95.57552
1047.877, 93.18533
1048.359, 90.35324
1048.841, 87.51826
1049.323, 84.59560
1049.806, 81.94619
1050.288, 79.91261
1050.770, 78.39423
1051.252, 77.10901
1051.734, 76.03600
1052.216, 75.09239
1052.698, 74.24873
1053.180, 73.54112
1053.662, 73.13135
1054.145, 72.73119
1054.627, 72.01378
1055.109, 71.11384
1055.591, 70.41252
1056.073, 69.99976
1056.555, 69.65203
1057.037, 69.25780
1057.519, 68.97817
1058.002, 68.95186
1058.484, 69.00896
1058.966, 68.88548
1059.448, 68.74986
1059.930, 69.09528
1060.412, 70.09020
1060.894, 70.82800
1061.376, 70.74773
1061.859, 70.65620
1062.341, 70.91797
1062.823, 71.32713
1063.305, 71.75952
1063.787, 72.16492
1064.269, 72.43803
1064.751, 72.54905
1065.233, 72.82746
1065.715, 73.58094
1066.198, 74.30266
1066.680, 74.65134
1067.162, 74.95178
1067.644, 75.42923
1068.126, 76.09722
1068.608, 76.92900
1069.090, 77.91863
1069.572, 79.06211
1070.054, 80.55888
1070.537, 81.94206
1071.019, 82.85799
1071.501, 83.68262
1071.983, 84.60751
1072.465, 85.71838
1072.947, 87.21448
1073.429, 89.07522
1073.911, 90.77764
1074.394, 91.85439
1074.876, 93.08583
1075.358, 95.05470
1075.840, 97.11697
1076.322, 98.64226
1076.804, 99.97330
1077.286, 101.8120
1077.768, 104.1661
1078.250, 106.2403
1078.733, 107.7412
1079.215, 108.9254
1079.697, 109.7626
1080.179, 110.4820
1080.661, 111.4930
1081.143, 112.3504
1081.625, 112.3425
1082.107, 111.5058
1082.590, 110.4972
1083.072, 109.5229
1083.554, 108.4697
1084.036, 107.2740
1084.518, 105.9997
1085.000, 104.6838
1085.482, 103.3164
1085.964, 101.7536
1086.447, 100.1267
1086.929, 98.94449
1087.411, 98.49524
1087.893, 97.91633
1088.375, 96.76174
1088.857, 95.47307
1089.339, 94.22923
1089.821, 93.03865
1090.303, 91.86588
1090.786, 90.74107
1091.268, 89.72314
1091.750, 88.81937
1092.232, 88.11533
1092.714, 87.85542
1093.196, 87.53951
1093.678, 86.79311
1094.160, 86.01381
1094.642, 85.56324
1095.125, 85.35448
1095.607, 85.22988
1096.089, 85.16894
1096.571, 84.79915
1097.053, 83.69878
1097.535, 82.68985
1098.017, 82.13504
1098.499, 81.69643
1098.982, 81.08961
1099.464, 80.44356
1099.946, 80.00143
1100.428, 79.77837
1100.910, 79.58781
1101.392, 79.55905
1101.874, 79.29649
1102.356, 78.41830
1102.839, 77.60726
1103.321, 77.37545
1103.803, 77.33660
1104.285, 76.89558
1104.767, 76.13284
1105.249, 75.78596
1105.731, 76.22288
1106.213, 76.54227
1106.695, 76.50595
1107.177, 76.45178
1107.660, 76.52976
1108.142, 76.63833
1108.624, 76.77637
1109.106, 76.85880
1109.588, 76.58549
1110.070, 75.76739
1110.552, 75.13331
1111.034, 74.84620
1111.517, 74.58973
1111.999, 74.37183
1112.481, 74.07533
1112.963, 73.58999
1113.445, 72.97791
1113.927, 72.35727
1114.409, 71.71827
1114.891, 71.12016
1115.374, 70.42725
1115.856, 70.01437
1116.338, 70.12784
1116.820, 70.25361
1117.302, 70.16294
1117.784, 69.89674
1118.266, 69.42925
1118.748, 68.78436
1119.230, 68.53281
1119.713, 68.93957
1120.195, 69.06534
1120.677, 68.68557
1121.159, 68.40202
1121.641, 68.51742
1122.123, 68.70137
1122.605, 68.63905
1123.087, 68.35436
1123.569, 67.91606
1124.052, 67.24501
1124.534, 66.77705
1125.016, 66.58763
1125.498, 66.30013
1125.980, 65.76069
1126.462, 65.27670
1126.944, 65.08216
1127.426, 65.09396
1127.909, 65.19656
1128.391, 65.38639
1128.873, 65.11811
1129.355, 64.33629
1129.837, 63.64418
1130.319, 63.11395
1130.801, 63.00936
1131.283, 63.52522
1131.766, 64.20227
1132.248, 64.47253
1132.730, 64.35660
1133.212, 63.78093
1133.694, 62.81094
1134.176, 62.34789
1134.658, 62.44605
1135.140, 62.48709
1135.622, 62.25361
1136.104, 62.12149
1136.587, 62.49536
1137.069, 62.92110
1137.551, 62.33662
1138.033, 61.08356
1138.515, 60.21314
1138.997, 59.76852
1139.479, 59.85440
1139.961, 60.37264
1140.444, 60.53762
1140.926, 59.87293
1141.408, 59.03178
1141.890, 58.83464
1142.372, 58.96513
1142.854, 58.93838
1143.336, 58.78810
1143.818, 58.54572
1144.301, 58.26300
1144.783, 58.09819
1145.265, 58.09412
1145.747, 58.02474
1146.229, 57.63680
1146.711, 57.24226
1147.193, 57.26369
1147.675, 57.35854
1148.157, 57.02340
1148.640, 56.46605
1149.122, 56.10201
1149.604, 56.00782
1150.086, 56.09857
1150.568, 56.44490
1151.050, 56.60150
1151.532, 55.99110
1152.014, 55.46373
1152.496, 55.71675
1152.979, 56.30705
1153.461, 56.96018
1153.943, 57.44703
1154.425, 57.22210
1154.907, 56.06843
1155.389, 55.31132
1155.871, 55.80619
1156.353, 56.09946
1156.836, 55.52325
1157.318, 54.80953
1157.800, 54.42058
1158.282, 54.21598
1158.764, 53.93119
1159.246, 53.56807
1159.728, 53.38500
1160.210, 53.51197
1160.693, 53.63298
1161.175, 53.76161
1161.657, 53.85760
1162.139, 53.90396
1162.621, 53.91855
1163.103, 53.91915
1163.585, 53.89648
1164.067, 53.80207
1164.549, 53.59583
1165.031, 53.63698
1165.514, 54.03405
1165.996, 54.30085
1166.478, 54.36800
1166.960, 54.23194
1167.442, 53.86150
1167.924, 53.36140
1168.406, 52.81715
1168.888, 52.31428
1169.371, 52.38961
1169.853, 53.02874
1170.335, 53.36809
1170.817, 53.35256
1171.299, 53.29160
1171.781, 53.28139
1172.263, 53.16364
1172.745, 52.79625
1173.228, 52.39209
1173.710, 52.35970
1174.192, 52.55813
1174.674, 52.59601
1175.156, 52.49933
1175.638, 52.36146
1176.120, 52.19894
1176.602, 51.98388
1177.084, 51.70995
1177.567, 51.48730
1178.049, 51.43122
1178.531, 51.43353
1179.013, 51.40871
1179.495, 51.33755
1179.977, 51.14537
1180.459, 50.90741
1180.941, 50.75603
1181.423, 50.71507
1181.906, 50.77356
1182.388, 50.98476
1182.870, 51.05274
1183.352, 50.65353
1183.834, 50.26638
1184.316, 50.21756
1184.798, 50.28345
1185.280, 50.23527
1185.763, 50.12921
1186.245, 50.12127
1186.727, 50.23414
1187.209, 50.38012
1187.691, 50.79619
1188.173, 50.85823
1188.655, 50.07125
1189.137, 49.42821
1189.620, 49.47280
1190.102, 49.70171
1190.584, 49.60744
1191.066, 49.29763
1191.548, 49.17471
1192.030, 49.30114
1192.512, 49.29772
1192.994, 49.14271
1193.476, 48.89285
1193.958, 48.48117
1194.441, 48.34410
1194.923, 48.80994
1195.405, 49.33754
1195.887, 49.13192
1196.369, 48.44788
1196.851, 48.37387
1197.333, 48.82604
1197.815, 48.94818
1198.298, 48.70848
1198.780, 48.33335
1199.262, 47.91319
1199.744, 47.72437
1200.226, 47.96872
1200.708, 48.33735
1201.190, 48.47110
1201.672, 48.43394
1202.155, 48.14972
1202.637, 47.87215
1203.119, 48.29417
1203.601, 49.14302
1204.083, 49.43859
1204.565, 48.94627
1205.047, 48.35641
1205.529, 47.96856
1206.011, 47.77401
1206.494, 47.85023
1206.976, 48.03236
1207.458, 48.36600
1207.940, 48.60602
1208.422, 48.28387
1208.904, 47.64254
1209.386, 47.56795
1209.868, 48.35084
1210.350, 48.73624
1210.833, 48.04689
1211.315, 47.67375
1211.797, 48.18104
1212.279, 48.67387
1212.761, 48.78839
1213.243, 48.63762
1213.725, 48.24090
1214.207, 47.71791
1214.690, 47.65011
1215.172, 48.15233
1215.654, 48.54133
1216.136, 48.84008
1216.618, 48.82908
1217.100, 48.42683
1217.582, 47.97827
1218.064, 47.66097
1218.547, 47.53126
1219.029, 47.71108
1219.511, 48.06368
1219.993, 48.21875
1220.475, 48.21049
1220.957, 48.12468
1221.439, 47.99316
1221.921, 47.88185
1222.403, 47.81389
1222.885, 47.79878
1223.368, 47.83826
1223.850, 47.96251
1224.332, 48.40092
1224.814, 48.71987
1225.296, 48.27048
1225.778, 47.64726
1226.260, 47.55077
1226.742, 47.85258
1227.225, 48.26702
1227.707, 48.69757
1228.189, 48.87596
1228.671, 48.59485
1229.153, 48.34006
1229.635, 48.22904
1230.117, 48.15947
1230.599, 48.10427
1231.082, 48.06709
1231.564, 48.06226
1232.046, 48.06892
1232.528, 48.03136
1233.010, 47.95150
1233.492, 48.01216
1233.974, 48.25689
1234.456, 48.46201
1234.938, 48.62025
1235.421, 48.67345
1235.903, 48.59301
1236.385, 48.48438
1236.867, 48.43103
1237.349, 48.39428
1237.831, 48.29669
1238.313, 48.16472
1238.795, 48.08007
1239.277, 48.03913
1239.760, 48.01707
1240.242, 48.02609
1240.724, 48.16999
1241.206, 48.44429
1241.688, 48.57360
1242.170, 48.33777
1242.652, 48.08163
1243.134, 48.13033
1243.617, 48.21838
1244.099, 48.06885
1244.581, 47.87944
1245.063, 47.84176
1245.545, 47.96567
1246.027, 48.33059
1246.509, 48.94249
1246.991, 49.12797
1247.474, 48.26089
1247.956, 47.81403
1248.438, 48.22884
1248.920, 48.56585
1249.402, 48.52823
1249.884, 48.33178
1250.366, 48.11663
1250.848, 47.88261
1251.330, 47.59358
1251.813, 47.27551
1252.295, 47.32022
1252.777, 47.72544
1253.259, 48.08705
1253.741, 48.35672
1254.223, 48.41457
1254.705, 48.23936
1255.187, 48.12795
1255.669, 48.30842
1256.152, 48.50370
1256.634, 48.23040
1257.116, 47.87530
1257.598, 48.12059
1258.080, 48.58718
1258.562, 48.67924
1259.044, 48.47477
1259.526, 48.26926
1260.009, 48.13432
1260.491, 48.01603
1260.973, 47.79961
1261.455, 47.84714
1261.937, 48.66385
1262.419, 49.25233
1262.901, 49.05421
1263.383, 48.64440
1263.865, 48.31193
1264.348, 48.13334
1264.830, 48.28334
1265.312, 48.70733
1265.794, 48.85948
1266.276, 48.67468
1266.758, 48.62077
1267.240, 48.73833
1267.722, 48.72290
1268.204, 48.49562
1268.687, 48.29388
1269.169, 48.25655
1269.651, 48.32017
1270.133, 48.40841
1270.615, 48.54719
1271.097, 48.89528
1271.579, 49.26336
1272.061, 49.24365
1272.544, 48.96820
1273.026, 48.70453
1273.508, 48.54267
1273.990, 48.60621
1274.472, 48.96684
1274.954, 49.18520
1275.436, 48.87086
1275.918, 48.64775
1276.401, 48.92821
1276.883, 49.17291
1277.365, 48.95911
1277.847, 48.62098
1278.329, 48.52330
1278.811, 48.60768
1279.293, 48.69067
1279.775, 48.76519
1280.257, 48.95369
1280.740, 49.31380
1281.222, 49.32195
1281.704, 48.88619
1282.186, 48.47652
1282.668, 48.26025
##END=



