##NAMES=Gadolinite-(Y)
##RRUFFID=R080129
##IDEAL CHEMISTRY=Fe^2+^Be_2_Y^3+^_2_(SiO_4_)_2_O_2_
##LOCALITY=Ytterøya mine, Røvika, Ytterøya (island), Levanger, Nord-Trøndelag, Norway
##OWNER=RRUFF
##SOURCE=Michael Scott
##DESCRIPTION=Reddish-brown fragment from metamict sample R070340, after heating at T = 1000 C for 23 hours
##STATUS=The identification of this mineral has been confirmed only by X-ray diffraction
##URL=rruff.info/R080129
93.30109, 0.0000000E+00
93.78320, 514.2726
94.26532, 512.1173
94.74744, 513.8428
95.22955, 518.1920
95.71167, 524.7532
96.19379, 530.2749
96.67590, 536.1340
97.15802, 540.5620
97.64014, 542.8200
98.12225, 543.6057
98.60437, 544.1523
99.08649, 544.9764
99.56860, 545.9892
100.0507, 546.9235
100.5328, 546.8658
101.0150, 546.6148
101.4971, 546.7210
101.9792, 547.2073
102.4613, 548.2075
102.9434, 549.8850
103.4255, 551.9435
103.9077, 554.2466
104.3898, 556.7565
104.8719, 559.4635
105.3540, 562.4141
105.8361, 565.8897
106.3182, 569.0588
106.8004, 571.4754
107.2825, 573.5892
107.7646, 575.9149
108.2467, 578.7737
108.7288, 582.0936
109.2109, 585.0483
109.6931, 587.3958
110.1752, 589.6249
110.6573, 591.7023
111.1394, 593.7246
111.6215, 595.9207
112.1036, 598.5165
112.5858, 601.6093
113.0679, 604.3243
113.5500, 606.5197
114.0321, 608.4606
114.5142, 610.2769
114.9964, 611.9891
115.4785, 613.6672
115.9606, 615.3956
116.4427, 617.1650
116.9248, 618.8632
117.4069, 620.5159
117.8891, 622.0680
118.3712, 623.4423
118.8533, 624.6555
119.3354, 625.5795
119.8175, 625.9993
120.2996, 625.9650
120.7818, 626.0247
121.2639, 626.7454
121.7460, 628.1627
122.2281, 629.2015
122.7102, 629.2289
123.1923, 629.0941
123.6745, 629.2975
124.1566, 629.9034
124.6387, 630.5329
125.1208, 630.5482
125.6029, 629.4033
126.0850, 628.8085
126.5672, 629.2274
127.0493, 629.9579
127.5314, 630.4005
128.0135, 630.3237
128.4956, 629.9583
128.9777, 629.9548
129.4599, 629.8323
129.9420, 630.7069
130.4241, 633.9733
130.9062, 638.1004
131.3883, 640.6635
131.8704, 640.1556
132.3526, 637.2629
132.8347, 635.9207
133.3168, 636.8178
133.7989, 638.1688
134.2810, 639.2474
134.7632, 640.1280
135.2453, 641.2324
135.7274, 642.8273
136.2095, 644.9169
136.6916, 647.2785
137.1737, 650.2245
137.6559, 653.2524
138.1380, 655.6651
138.6201, 657.2575
139.1022, 659.2282
139.5843, 662.9902
140.0664, 667.5829
140.5486, 671.5831
141.0307, 674.1401
141.5128, 675.7408
141.9949, 677.7264
142.4770, 680.0398
142.9591, 682.9346
143.4413, 686.6140
143.9234, 690.8373
144.4055, 695.2316
144.8876, 699.6212
145.3697, 704.0027
145.8518, 707.8636
146.3340, 710.4447
146.8161, 713.1349
147.2982, 716.3937
147.7803, 720.1576
148.2624, 724.0798
148.7445, 727.8150
149.2267, 731.1771
149.7088, 735.0598
150.1909, 739.8078
150.6730, 744.6708
151.1551, 749.3124
151.6372, 753.6595
152.1194, 757.7126
152.6015, 761.4678
153.0836, 764.6990
153.5657, 768.1971
154.0478, 772.1726
154.5299, 776.3171
155.0121, 780.2820
155.4942, 783.9631
155.9763, 787.5751
156.4584, 791.5592
156.9405, 796.0013
157.4226, 800.0172
157.9048, 803.1369
158.3869, 805.6696
158.8690, 808.2440
159.3511, 811.0156
159.8332, 813.9163
160.3153, 816.9531
160.7975, 820.1428
161.2796, 823.1264
161.7617, 825.6408
162.2438, 827.7227
162.7259, 829.6230
163.2081, 831.0601
163.6902, 832.6447
164.1723, 835.0340
164.6544, 838.2975
165.1365, 841.4900
165.6186, 843.5226
166.1008, 844.1297
166.5829, 844.7415
167.0650, 845.6811
167.5471, 846.6511
168.0292, 847.3801
168.5113, 847.8226
168.9935, 848.2579
169.4756, 849.2200
169.9577, 851.2339
170.4398, 852.7668
170.9219, 853.3900
171.4040, 853.7350
171.8862, 854.3269
172.3683, 855.3583
172.8504, 856.6436
173.3325, 857.7532
173.8146, 858.4244
174.2967, 859.2054
174.7789, 860.2099
175.2610, 861.2983
175.7431, 862.3103
176.2252, 863.1827
176.7073, 863.9321
177.1894, 864.6018
177.6716, 865.0492
178.1537, 865.5972
178.6358, 866.3420
179.1179, 867.2286
179.6000, 868.1641
180.0821, 869.0995
180.5643, 870.0555
181.0464, 871.1008
181.5285, 872.3490
182.0106, 873.5268
182.4927, 874.3705
182.9748, 874.9809
183.4570, 875.8219
183.9391, 877.1698
184.4212, 878.8859
184.9033, 880.5584
185.3854, 882.1123
185.8675, 883.7387
186.3497, 885.6198
186.8318, 887.7613
187.3139, 889.9651
187.7960, 892.2529
188.2781, 894.5088
188.7602, 896.5760
189.2424, 898.4003
189.7245, 900.0977
190.2066, 901.7140
190.6887, 903.1266
191.1708, 904.9301
191.6530, 907.8103
192.1351, 910.9420
192.6172, 913.5355
193.0993, 915.2312
193.5814, 916.5438
194.0635, 918.5137
194.5457, 921.4627
195.0278, 924.4555
195.5099, 927.5024
195.9920, 930.3890
196.4741, 932.7798
196.9562, 934.4948
197.4384, 935.8853
197.9205, 938.0095
198.4026, 941.4418
198.8847, 944.8875
199.3668, 948.2794
199.8489, 951.5579
200.3311, 954.5858
200.8132, 957.2823
201.2953, 959.8206
201.7774, 962.8516
202.2595, 966.7960
202.7416, 970.8257
203.2238, 974.9240
203.7059, 979.0621
204.1880, 983.3227
204.6701, 987.7554
205.1522, 992.2431
205.6343, 996.2184
206.1165, 999.3289
206.5986, 1002.444
207.0807, 1005.651
207.5628, 1008.995
208.0449, 1012.634
208.5270, 1016.723
209.0092, 1021.061
209.4913, 1024.726
209.9734, 1026.688
210.4555, 1029.323
210.9376, 1034.242
211.4197, 1040.607
211.9019, 1046.049
212.3840, 1049.095
212.8661, 1050.599
213.3482, 1053.080
213.8303, 1056.917
214.3124, 1060.996
214.7946, 1064.491
215.2767, 1067.586
215.7588, 1071.242
216.2409, 1076.192
216.7230, 1081.777
217.2052, 1086.750
217.6873, 1090.791
218.1694, 1094.820
218.6515, 1099.525
219.1336, 1104.909
219.6157, 1110.504
220.0979, 1116.266
220.5800, 1122.126
221.0621, 1128.223
221.5442, 1134.771
222.0263, 1140.748
222.5084, 1145.265
222.9906, 1148.323
223.4727, 1150.086
223.9548, 1150.718
224.4369, 1149.828
224.9190, 1146.482
225.4011, 1140.376
225.8833, 1133.637
226.3654, 1128.810
226.8475, 1126.301
227.3296, 1123.828
227.8117, 1120.333
228.2938, 1117.108
228.7760, 1115.216
229.2581, 1114.817
229.7402, 1114.979
230.2223, 1114.337
230.7044, 1112.403
231.1865, 1111.245
231.6687, 1111.975
232.1508, 1112.867
232.6329, 1112.764
233.1150, 1111.498
233.5971, 1109.820
234.0792, 1108.917
234.5614, 1109.537
235.0435, 1109.045
235.5256, 1106.399
236.0077, 1103.520
236.4898, 1101.650
236.9719, 1100.973
237.4541, 1100.779
237.9362, 1100.053
238.4183, 1098.306
238.9004, 1097.260
239.3825, 1097.293
239.8646, 1097.604
240.3468, 1097.792
240.8289, 1097.749
241.3110, 1097.479
241.7931, 1096.941
242.2752, 1095.906
242.7573, 1095.291
243.2395, 1094.910
243.7216, 1094.998
244.2037, 1095.969
244.6858, 1097.736
245.1679, 1099.608
245.6501, 1100.807
246.1322, 1101.133
246.6143, 1101.500
247.0964, 1101.427
247.5785, 1101.746
248.0606, 1103.269
248.5428, 1105.932
249.0249, 1108.844
249.5070, 1111.260
249.9891, 1113.161
250.4712, 1114.086
250.9533, 1113.002
251.4355, 1111.817
251.9176, 1111.975
252.3997, 1113.460
252.8818, 1115.117
253.3639, 1115.970
253.8460, 1115.993
254.3282, 1116.251
254.8103, 1116.994
255.2924, 1117.772
255.7745, 1118.084
256.2566, 1117.997
256.7387, 1118.239
257.2209, 1119.380
257.7030, 1121.358
258.1851, 1123.311
258.6672, 1125.184
259.1493, 1127.061
259.6314, 1128.926
260.1136, 1130.797
260.5957, 1132.857
261.0778, 1135.238
261.5599, 1137.908
262.0420, 1140.729
262.5241, 1144.032
263.0063, 1147.083
263.4884, 1149.136
263.9705, 1150.314
264.4526, 1151.700
264.9347, 1153.647
265.4168, 1156.268
265.8990, 1159.616
266.3811, 1164.048
266.8632, 1168.505
267.3453, 1172.143
267.8274, 1175.064
268.3095, 1178.058
268.7917, 1181.156
269.2738, 1184.734
269.7559, 1189.203
270.2380, 1194.690
270.7201, 1200.442
271.2022, 1206.291
271.6844, 1212.116
272.1665, 1217.040
272.6486, 1220.315
273.1307, 1223.124
273.6128, 1226.573
274.0949, 1230.686
274.5771, 1235.231
275.0592, 1239.887
275.5413, 1244.794
276.0234, 1250.826
276.5055, 1258.932
276.9876, 1267.155
277.4698, 1273.820
277.9519, 1279.190
278.4340, 1284.668
278.9161, 1291.082
279.3982, 1298.292
279.8803, 1305.887
280.3625, 1314.042
280.8446, 1322.221
281.3267, 1330.071
281.8088, 1337.651
282.2909, 1345.154
282.7730, 1352.401
283.2552, 1359.627
283.7373, 1367.823
284.2194, 1377.802
284.7015, 1387.182
285.1836, 1394.562
285.6658, 1400.825
286.1479, 1407.408
286.6300, 1415.273
287.1121, 1423.496
287.5942, 1429.916
288.0764, 1434.146
288.5585, 1437.387
289.0406, 1440.175
289.5227, 1442.283
290.0048, 1443.307
290.4869, 1443.039
290.9691, 1441.940
291.4512, 1440.808
291.9333, 1439.777
292.4154, 1438.308
292.8975, 1435.729
293.3796, 1433.000
293.8618, 1430.872
294.3439, 1429.535
294.8260, 1428.629
295.3081, 1427.830
295.7902, 1427.259
296.2723, 1426.226
296.7545, 1423.594
297.2366, 1421.184
297.7187, 1420.322
298.2008, 1420.993
298.6829, 1421.913
299.1650, 1421.666
299.6472, 1420.093
300.1293, 1418.778
300.6114, 1417.899
301.0935, 1417.220
301.5756, 1416.655
302.0577, 1416.202
302.5399, 1415.904
303.0220, 1415.967
303.5041, 1416.348
303.9862, 1416.022
304.4683, 1414.245
304.9504, 1412.612
305.4326, 1411.673
305.9147, 1411.304
306.3968, 1411.266
306.8789, 1411.511
307.3610, 1411.935
307.8431, 1412.031
308.3253, 1411.552
308.8074, 1411.141
309.2895, 1411.031
309.7716, 1411.063
310.2537, 1411.035
310.7358, 1410.845
311.2180, 1410.589
311.7001, 1410.495
312.1822, 1410.649
312.6643, 1410.751
313.1464, 1410.833
313.6285, 1410.778
314.1107, 1410.407
314.5928, 1409.683
315.0749, 1408.864
315.5570, 1408.327
316.0391, 1408.127
316.5212, 1407.994
317.0034, 1407.807
317.4855, 1407.747
317.9676, 1408.223
318.4497, 1409.099
318.9318, 1409.581
319.4139, 1408.521
319.8961, 1405.665
320.3782, 1403.858
320.8603, 1403.927
321.3424, 1404.385
321.8245, 1405.023
322.3066, 1405.621
322.7888, 1405.766
323.2709, 1405.037
323.7530, 1403.577
324.2351, 1402.393
324.7172, 1401.160
325.1993, 1400.745
325.6815, 1402.046
326.1636, 1404.055
326.6457, 1405.316
327.1278, 1405.008
327.6099, 1403.807
328.0920, 1403.315
328.5742, 1403.662
329.0563, 1404.480
329.5384, 1406.101
330.0205, 1407.856
330.5026, 1409.046
330.9847, 1409.480
331.4669, 1409.790
331.9490, 1410.993
332.4311, 1413.389
332.9132, 1415.367
333.3953, 1416.349
333.8774, 1417.106
334.3596, 1417.800
334.8417, 1418.561
335.3238, 1419.771
335.8059, 1421.997
336.2880, 1425.267
336.7701, 1428.124
337.2523, 1430.021
337.7344, 1432.088
338.2165, 1434.954
338.6986, 1438.380
339.1807, 1441.831
339.6628, 1445.067
340.1450, 1448.050
340.6271, 1450.555
341.1092, 1452.160
341.5913, 1454.098
342.0735, 1457.403
342.5556, 1461.073
343.0377, 1463.810
343.5198, 1465.001
344.0019, 1465.479
344.4840, 1466.568
344.9662, 1468.408
345.4483, 1470.265
345.9304, 1472.019
346.4125, 1473.654
346.8946, 1475.221
347.3767, 1476.734
347.8589, 1477.906
348.3410, 1478.359
348.8231, 1478.108
349.3052, 1477.816
349.7873, 1477.649
350.2694, 1477.344
350.7516, 1476.681
351.2337, 1475.717
351.7158, 1474.729
352.1979, 1473.778
352.6800, 1472.916
353.1621, 1472.392
353.6443, 1472.374
354.1264, 1472.322
354.6085, 1471.965
355.0906, 1471.370
355.5727, 1470.620
356.0548, 1469.807
356.5370, 1468.789
357.0191, 1467.115
357.5012, 1464.685
357.9833, 1462.875
358.4654, 1462.824
358.9475, 1463.388
359.4297, 1463.086
359.9118, 1461.596
360.3939, 1460.179
360.8760, 1459.866
361.3581, 1460.469
361.8402, 1461.135
362.3224, 1461.926
362.8045, 1462.280
363.2866, 1461.186
363.7687, 1458.833
364.2508, 1457.222
364.7329, 1457.670
365.2151, 1459.183
365.6972, 1460.081
366.1793, 1460.158
366.6614, 1460.040
367.1435, 1460.164
367.6256, 1460.467
368.1078, 1460.754
368.5899, 1461.196
369.0720, 1461.461
369.5541, 1460.991
370.0362, 1459.950
370.5183, 1459.487
371.0005, 1460.376
371.4826, 1461.978
371.9647, 1462.798
372.4468, 1462.560
372.9289, 1462.344
373.4110, 1462.641
373.8932, 1463.225
374.3753, 1463.598
374.8574, 1463.579
375.3395, 1463.629
375.8216, 1464.469
376.3037, 1466.227
376.7859, 1467.514
377.2680, 1467.707
377.7501, 1467.700
378.2322, 1468.442
378.7143, 1469.879
379.1964, 1471.010
379.6786, 1470.955
380.1607, 1469.875
380.6428, 1469.690
381.1249, 1471.090
381.6070, 1472.482
382.0891, 1473.245
382.5713, 1473.616
383.0534, 1474.061
383.5355, 1474.784
384.0176, 1475.684
384.4997, 1476.535
384.9818, 1476.973
385.4640, 1478.021
385.9461, 1480.697
386.4282, 1483.378
386.9103, 1484.430
387.3924, 1483.754
387.8745, 1482.627
388.3567, 1482.447
388.8388, 1483.418
389.3209, 1483.857
389.8030, 1483.325
390.2851, 1482.804
390.7672, 1482.771
391.2494, 1483.028
391.7315, 1483.070
392.2136, 1482.568
392.6957, 1481.754
393.1778, 1481.542
393.6599, 1482.429
394.1421, 1483.244
394.6242, 1484.036
395.1063, 1484.623
395.5884, 1484.635
396.0706, 1484.066
396.5527, 1483.516
397.0348, 1483.995
397.5169, 1486.020
397.9990, 1486.967
398.4811, 1485.959
398.9633, 1484.615
399.4454, 1483.561
399.9275, 1482.698
400.4096, 1481.613
400.8917, 1480.003
401.3738, 1477.970
401.8560, 1475.919
402.3381, 1473.767
402.8202, 1471.786
403.3023, 1470.471
403.7844, 1469.161
404.2665, 1467.200
404.7487, 1464.400
405.2308, 1460.931
405.7129, 1456.723
406.1950, 1451.681
406.6771, 1447.318
407.1592, 1444.484
407.6414, 1441.846
408.1235, 1438.465
408.6056, 1434.409
409.0877, 1430.167
409.5698, 1425.854
410.0519, 1421.591
410.5341, 1417.604
411.0162, 1413.883
411.4983, 1410.543
411.9804, 1407.949
412.4625, 1405.727
412.9446, 1403.319
413.4268, 1400.681
413.9089, 1397.755
414.3910, 1394.208
414.8731, 1390.236
415.3552, 1386.853
415.8373, 1384.508
416.3195, 1382.683
416.8016, 1380.539
417.2837, 1378.018
417.7658, 1375.961
418.2479, 1375.101
418.7300, 1374.556
419.2122, 1373.165
419.6943, 1370.844
420.1764, 1368.487
420.6585, 1366.751
421.1406, 1365.626
421.6227, 1364.794
422.1049, 1364.525
422.5870, 1364.205
423.0691, 1363.591
423.5512, 1362.755
424.0333, 1361.843
424.5154, 1360.917
424.9976, 1359.910
425.4797, 1358.705
425.9618, 1357.276
426.4439, 1355.684
426.9260, 1353.814
427.4081, 1351.886
427.8903, 1349.946
428.3724, 1348.075
428.8545, 1346.487
429.3366, 1345.381
429.8187, 1344.738
430.3008, 1344.084
430.7830, 1343.559
431.2651, 1342.876
431.7472, 1341.752
432.2293, 1340.540
432.7114, 1339.717
433.1935, 1339.447
433.6757, 1339.424
434.1578, 1339.088
434.6399, 1338.225
435.1220, 1337.759
435.6041, 1338.414
436.0862, 1338.890
436.5684, 1338.381
437.0505, 1337.084
437.5326, 1335.793
438.0147, 1335.075
438.4968, 1334.769
438.9789, 1334.220
439.4611, 1333.138
439.9432, 1332.554
440.4253, 1333.445
440.9074, 1334.813
441.3895, 1335.585
441.8716, 1335.475
442.3538, 1335.203
442.8359, 1335.398
443.3180, 1336.003
443.8001, 1336.636
444.2822, 1337.170
444.7643, 1337.840
445.2465, 1339.045
445.7286, 1340.654
446.2107, 1342.005
446.6928, 1342.493
447.1749, 1342.927
447.6570, 1344.206
448.1392, 1346.270
448.6213, 1348.481
449.1034, 1350.581
449.5855, 1352.523
450.0677, 1354.118
450.5498, 1355.052
451.0319, 1356.338
451.5140, 1358.127
451.9961, 1360.451
452.4782, 1363.484
452.9604, 1367.219
453.4425, 1371.217
453.9246, 1375.102
454.4067, 1378.912
454.8888, 1382.142
455.3709, 1383.834
455.8531, 1386.069
456.3352, 1389.808
456.8173, 1394.557
457.2994, 1399.600
457.7815, 1404.598
458.2636, 1409.408
458.7458, 1413.631
459.2279, 1416.524
459.7100, 1420.455
460.1921, 1426.075
460.6742, 1432.122
461.1563, 1438.011
461.6385, 1443.673
462.1206, 1449.146
462.6027, 1454.383
463.0848, 1459.469
463.5669, 1464.894
464.0490, 1470.731
464.5312, 1476.668
465.0133, 1482.582
465.4954, 1488.495
465.9775, 1494.510
466.4596, 1500.695
466.9417, 1506.751
467.4239, 1512.300
467.9060, 1517.440
468.3881, 1522.939
468.8702, 1529.031
469.3523, 1535.316
469.8344, 1541.512
470.3166, 1547.649
470.7987, 1553.702
471.2808, 1559.622
471.7629, 1565.521
472.2450, 1571.418
472.7271, 1577.348
473.2093, 1583.473
473.6914, 1589.937
474.1735, 1596.504
474.6556, 1602.761
475.1377, 1608.736
475.6198, 1614.405
476.1020, 1619.669
476.5841, 1624.698
477.0662, 1629.740
477.5483, 1634.733
478.0304, 1639.350
478.5125, 1643.201
478.9947, 1646.462
479.4768, 1650.611
479.9589, 1656.766
480.4410, 1662.487
480.9231, 1667.502
481.4052, 1671.907
481.8874, 1675.772
482.3695, 1679.137
482.8516, 1681.980
483.3337, 1684.208
483.8158, 1685.750
484.2979, 1687.296
484.7801, 1689.101
485.2622, 1690.602
485.7443, 1691.739
486.2264, 1692.421
486.7085, 1692.475
487.1906, 1691.772
487.6728, 1690.623
488.1549, 1689.501
488.6370, 1688.431
489.1191, 1686.982
489.6012, 1684.917
490.0833, 1682.584
490.5655, 1680.651
491.0476, 1678.939
491.5297, 1676.186
492.0118, 1671.007
492.4939, 1665.012
492.9760, 1660.477
493.4582, 1657.353
493.9403, 1654.012
494.4224, 1649.658
494.9045, 1644.521
495.3866, 1639.270
495.8687, 1634.167
496.3509, 1628.323
496.8330, 1620.684
497.3151, 1612.660
497.7972, 1606.078
498.2793, 1600.967
498.7614, 1595.807
499.2436, 1589.379
499.7257, 1581.728
500.2078, 1573.252
500.6899, 1563.180
501.1720, 1553.187
501.6541, 1543.441
502.1363, 1533.960
502.6184, 1524.769
503.1005, 1515.848
503.5826, 1506.970
504.0647, 1497.832
504.5468, 1488.380
505.0290, 1479.310
505.5111, 1470.924
505.9932, 1462.523
506.4753, 1453.900
506.9575, 1445.106
507.4396, 1436.152
507.9217, 1426.953
508.4038, 1417.922
508.8859, 1409.754
509.3680, 1402.383
509.8502, 1394.947
510.3323, 1387.248
510.8144, 1379.410
511.2965, 1371.273
511.7786, 1362.984
512.2607, 1355.204
512.7429, 1348.338
513.2250, 1341.872
513.7071, 1335.320
514.1892, 1328.731
514.6713, 1322.228
515.1534, 1315.792
515.6356, 1309.607
516.1177, 1304.092
516.5998, 1299.705
517.0819, 1294.866
517.5640, 1289.215
518.0461, 1283.374
518.5283, 1277.436
519.0104, 1271.647
519.4925, 1266.702
519.9746, 1263.144
520.4567, 1260.507
520.9388, 1256.949
521.4210, 1251.457
521.9031, 1246.950
522.3852, 1244.233
522.8673, 1242.104
523.3494, 1239.888
523.8315, 1237.457
524.3137, 1234.843
524.7958, 1232.046
525.2779, 1229.096
525.7600, 1226.071
526.2421, 1222.859
526.7242, 1219.992
527.2064, 1217.585
527.6885, 1215.767
528.1706, 1214.925
528.6527, 1215.345
529.1348, 1215.331
529.6169, 1213.500
530.0991, 1210.867
530.5812, 1209.195
531.0633, 1208.690
531.5454, 1208.297
532.0275, 1207.198
532.5096, 1205.543
532.9918, 1204.405
533.4739, 1204.217
533.9560, 1203.907
534.4381, 1202.903
534.9202, 1201.853
535.4023, 1201.566
535.8845, 1202.128
536.3666, 1202.924
536.8487, 1203.354
537.3308, 1203.420
537.8129, 1203.348
538.2950, 1202.870
538.7772, 1202.605
539.2593, 1202.938
539.7414, 1203.413
540.2235, 1203.419
540.7056, 1202.821
541.1877, 1202.295
541.6699, 1202.625
542.1520, 1203.684
542.6341, 1204.667
543.1162, 1205.634
543.5983, 1206.226
544.0804, 1205.825
544.5626, 1204.957
545.0447, 1204.633
545.5268, 1205.211
546.0089, 1205.919
546.4910, 1206.680
546.9731, 1207.184
547.4553, 1206.532
547.9374, 1204.521
548.4195, 1202.534
548.9016, 1201.973
549.3837, 1202.873
549.8658, 1203.387
550.3480, 1203.594
550.8301, 1203.404
551.3122, 1202.443
551.7943, 1201.228
552.2764, 1200.420
552.7585, 1200.175
553.2407, 1200.105
553.7228, 1199.676
554.2049, 1198.836
554.6870, 1198.616
555.1691, 1199.949
555.6512, 1200.543
556.1334, 1198.787
556.6155, 1196.221
557.0976, 1194.966
557.5797, 1195.709
558.0618, 1196.805
558.5439, 1196.751
559.0261, 1195.813
559.5082, 1194.996
559.9903, 1194.476
560.4724, 1193.902
560.9545, 1192.958
561.4366, 1191.722
561.9188, 1190.626
562.4009, 1189.802
562.8830, 1188.963
563.3651, 1188.060
563.8472, 1187.051
564.3293, 1185.668
564.8115, 1183.942
565.2936, 1182.613
565.7757, 1182.571
566.2578, 1183.824
566.7399, 1184.019
567.2220, 1181.885
567.7042, 1180.196
568.1863, 1179.744
568.6684, 1179.775
569.1505, 1179.615
569.6326, 1179.081
570.1147, 1178.230
570.5969, 1176.891
571.0790, 1175.199
571.5611, 1174.152
572.0432, 1174.056
572.5253, 1173.728
573.0074, 1172.372
573.4896, 1170.493
573.9717, 1168.807
574.4538, 1167.393
574.9359, 1166.113
575.4180, 1164.955
575.9001, 1163.876
576.3823, 1162.927
576.8644, 1162.074
577.3465, 1160.955
577.8286, 1159.263
578.3107, 1157.139
578.7928, 1155.286
579.2750, 1154.176
579.7571, 1152.706
580.2392, 1150.597
580.7213, 1148.280
581.2034, 1145.976
581.6855, 1143.776
582.1677, 1141.783
582.6498, 1140.213
583.1319, 1138.781
583.6140, 1136.414
584.0961, 1132.762
584.5782, 1129.311
585.0604, 1126.232
585.5425, 1123.712
586.0246, 1122.235
586.5067, 1121.684
586.9889, 1120.705
587.4710, 1118.716
587.9531, 1116.002
588.4352, 1112.524
588.9174, 1108.492
589.3995, 1105.032
589.8816, 1102.741
590.3637, 1100.961
590.8458, 1098.493
591.3279, 1094.925
591.8101, 1091.834
592.2922, 1089.527
592.7743, 1087.369
593.2564, 1085.121
593.7385, 1082.754
594.2206, 1080.345
594.7028, 1077.940
595.1849, 1075.316
595.6670, 1071.933
596.1491, 1067.599
596.6312, 1063.971
597.1133, 1061.557
597.5955, 1059.318
598.0776, 1056.657
598.5597, 1053.764
599.0418, 1051.058
599.5239, 1048.843
600.0060, 1046.382
600.4882, 1042.823
600.9703, 1038.605
601.4524, 1034.729
601.9345, 1031.396
602.4166, 1028.401
602.8987, 1025.713
603.3809, 1023.267
603.8630, 1020.311
604.3451, 1016.388
604.8272, 1012.583
605.3093, 1009.200
605.7914, 1005.958
606.2736, 1002.585
606.7557, 999.0341
607.2378, 995.3527
607.7199, 991.5293
608.2020, 987.6082
608.6841, 983.8975
609.1663, 980.5425
609.6484, 976.9890
610.1305, 972.6375
610.6126, 968.3339
611.0947, 964.9854
611.5768, 962.5637
612.0590, 959.9364
612.5411, 956.3593
613.0232, 952.4912
613.5053, 949.0789
613.9874, 946.0682
614.4695, 943.0129
614.9517, 939.6939
615.4338, 936.3147
615.9159, 933.1190
616.3980, 929.9922
616.8801, 927.5383
617.3622, 926.2436
617.8444, 924.9908
618.3265, 923.4765
618.8086, 921.6231
619.2907, 919.3109
619.7728, 916.4910
620.2549, 913.4919
620.7371, 910.5431
621.2192, 907.6663
621.7013, 905.6817
622.1834, 905.1371
622.6655, 904.3152
623.1476, 901.5254
623.6298, 898.0488
624.1119, 896.1026
624.5940, 896.2901
625.0761, 896.7201
625.5582, 897.0136
626.0403, 896.8265
626.5225, 895.5291
627.0046, 893.2020
627.4867, 890.6171
627.9688, 888.1962
628.4509, 885.9993
628.9330, 884.1677
629.4152, 882.7913
629.8973, 881.6669
630.3794, 881.0007
630.8615, 880.3558
631.3436, 879.6306
631.8257, 878.7151
632.3079, 877.3488
632.7900, 875.2695
633.2721, 873.0398
633.7542, 871.2928
634.2363, 870.0483
634.7184, 869.7200
635.2006, 870.7052
635.6827, 871.6654
636.1648, 871.2974
636.6469, 869.7766
637.1290, 868.7152
637.6111, 868.5255
638.0933, 868.3077
638.5754, 867.7855
639.0575, 867.0775
639.5396, 866.1682
640.0217, 865.1525
640.5038, 864.4354
640.9860, 864.4177
641.4681, 864.8926
641.9502, 864.8008
642.4323, 863.8571
642.9144, 863.0471
643.3965, 862.6288
643.8787, 862.3676
644.3608, 862.1090
644.8429, 861.8655
645.3250, 861.7468
645.8071, 862.0416
646.2892, 862.2629
646.7714, 861.7234
647.2535, 860.6833
647.7356, 860.0811
648.2177, 860.2274
648.6998, 860.4374
649.1819, 859.8967
649.6641, 858.5535
650.1462, 857.6169
650.6283, 857.5065
651.1104, 857.2651
651.5925, 856.4033
652.0746, 855.5070
652.5568, 855.3386
653.0389, 855.8858
653.5210, 856.3029
654.0031, 855.8411
654.4852, 854.7659
654.9673, 853.6946
655.4495, 852.5836
655.9316, 851.9973
656.4137, 852.4362
656.8958, 853.0908
657.3779, 852.7132
657.8600, 851.3383
658.3422, 850.4374
658.8243, 850.4210
659.3064, 850.7069
659.7885, 851.2704
660.2706, 851.8259
660.7527, 851.9170
661.2349, 851.4271
661.7170, 850.6187
662.1991, 849.7125
662.6812, 848.7271
663.1633, 848.1752
663.6454, 848.4843
664.1276, 848.3669
664.6097, 846.6902
665.0918, 844.8641
665.5739, 844.2689
666.0560, 844.9430
666.5381, 845.5914
667.0203, 845.6507
667.5024, 845.3780
667.9845, 844.8597
668.4666, 844.2266
668.9487, 844.0807
669.4308, 844.6991
669.9130, 845.1091
670.3951, 843.8890
670.8772, 840.7592
671.3593, 838.3202
671.8414, 837.2093
672.3235, 836.0681
672.8057, 834.3978
673.2878, 832.6937
673.7699, 831.5740
674.2520, 831.0983
674.7341, 830.6600
675.2162, 829.8484
675.6984, 828.7500
676.1805, 827.5034
676.6626, 826.1075
677.1447, 824.6719
677.6268, 823.2381
678.1089, 821.7641
678.5911, 820.1435
679.0732, 818.2879
679.5553, 816.7835
680.0374, 815.4987
680.5195, 814.6903
681.0016, 815.0384
681.4838, 815.6375
681.9659, 815.4163
682.4480, 814.1185
682.9301, 812.1165
683.4122, 809.4742
683.8943, 806.4602
684.3765, 804.2168
684.8586, 802.9172
685.3407, 801.3988
685.8228, 799.1995
686.3049, 796.6870
686.7870, 794.2468
687.2692, 791.8777
687.7513, 789.6884
688.2334, 787.7504
688.7155, 785.9355
689.1976, 784.2938
689.6797, 782.6981
690.1619, 780.9627
690.6440, 779.0395
691.1261, 776.9648
691.6082, 774.7379
692.0903, 772.3980
692.5724, 770.2524
693.0546, 768.4538
693.5367, 766.4318
694.0188, 763.7595
694.5009, 761.0416
694.9830, 758.8445
695.4651, 757.1328
695.9473, 755.5075
696.4294, 754.0820
696.9116, 752.4806
697.3937, 750.2914
697.8758, 747.7852
698.3579, 745.3674
698.8400, 743.1688
699.3221, 741.3379
699.8043, 740.1271
700.2864, 739.3808
700.7685, 737.8303
701.2506, 734.7971
701.7327, 732.3864
702.2148, 731.5027
702.6970, 730.9686
703.1791, 730.2128
703.6612, 729.1780
704.1433, 727.7957
704.6254, 725.8658
705.1075, 723.8232
705.5897, 722.0750
706.0718, 720.4722
706.5539, 718.6126
707.0360, 716.4508
707.5181, 714.5824
708.0002, 713.5742
708.4824, 713.1680
708.9645, 711.9870
709.4466, 709.3712
709.9287, 707.2463
710.4108, 706.1188
710.8929, 705.1935
711.3751, 704.1526
711.8572, 702.9478
712.3393, 701.5219
712.8214, 699.7375
713.3035, 698.0186
713.7856, 696.5291
714.2678, 695.4235
714.7499, 695.3622
715.2320, 696.3321
715.7141, 696.8281
716.1962, 695.8113
716.6783, 693.7042
717.1605, 691.7293
717.6426, 689.7977
718.1247, 688.1999
718.6068, 687.1146
719.0889, 686.1628
719.5710, 685.1100
720.0532, 684.0895
720.5353, 683.4260
721.0174, 683.2693
721.4995, 683.0128
721.9816, 682.1174
722.4637, 680.7952
722.9459, 679.3695
723.4280, 677.8856
723.9101, 676.5670
724.3922, 675.5402
724.8743, 674.6342
725.3564, 673.5141
725.8386, 672.0605
726.3207, 670.8037
726.8028, 669.9025
727.2849, 668.9915
727.7670, 667.9293
728.2491, 666.8054
728.7313, 665.8015
729.2134, 664.9229
729.6955, 663.8486
730.1776, 662.1381
730.6597, 660.2071
731.1418, 658.6141
731.6240, 657.3821
732.1061, 656.6585
732.5882, 656.5550
733.0703, 656.5879
733.5524, 656.2383
734.0345, 655.5197
734.5167, 654.1393
734.9988, 651.3696
735.4809, 648.8767
735.9630, 647.0541
736.4451, 645.5094
736.9272, 643.8691
737.4094, 642.1725
737.8915, 640.7642
738.3736, 640.1330
738.8557, 639.4667
739.3378, 637.6010
739.8199, 634.9465
740.3021, 632.7865
740.7842, 631.3760
741.2663, 630.0610
741.7484, 628.2504
742.2305, 626.1427
742.7126, 624.7785
743.1948, 624.9080
743.6769, 624.4020
744.1590, 622.7473
744.6411, 620.8625
745.1232, 619.1959
745.6053, 617.6638
746.0875, 616.0436
746.5696, 614.2829
747.0517, 612.3834
747.5338, 610.0459
748.0159, 607.7169
748.4980, 606.4073
748.9802, 606.0167
749.4623, 605.3838
749.9444, 603.8874
750.4265, 601.9467
750.9086, 600.3591
751.3907, 599.2814
751.8729, 597.8214
752.3550, 595.7314
752.8371, 593.5550
753.3192, 591.3929
753.8013, 589.2783
754.2834, 587.3139
754.7656, 585.4879
755.2477, 583.5024
755.7298, 580.8914
756.2119, 578.3193
756.6940, 576.4648
757.1761, 575.1496
757.6583, 574.0174
758.1404, 572.9394
758.6225, 571.6911
759.1046, 569.9919
759.5867, 567.9482
760.0688, 566.2482
760.5510, 565.1005
761.0331, 563.7747
761.5152, 562.0239
761.9973, 560.1625
762.4794, 558.4034
762.9615, 556.7294
763.4437, 555.0789
763.9258, 553.4717
764.4079, 551.8317
764.8900, 549.9155
765.3721, 548.0847
765.8542, 546.9022
766.3364, 546.2361
766.8185, 545.4020
767.3006, 544.0101
767.7827, 542.4557
768.2648, 541.5634
768.7469, 541.3751
769.2291, 540.6420
769.7112, 539.1945
770.1933, 537.4750
770.6754, 535.5363
771.1575, 533.5441
771.6396, 531.7823
772.1218, 530.2415
772.6039, 528.8652
773.0860, 527.9918
773.5681, 526.9112
774.0502, 525.0148
774.5323, 522.7891
775.0145, 520.8873
775.4966, 519.4695
775.9787, 518.3951
776.4608, 517.6749
776.9429, 517.1035
777.4250, 516.1028
777.9072, 514.6897
778.3893, 513.4540
778.8714, 512.5652
779.3535, 511.7539
779.8356, 510.8148
780.3177, 509.7481
780.7999, 508.5720
781.2820, 506.9867
781.7641, 505.7149
782.2462, 505.1050
782.7283, 504.5100
783.2104, 503.4574
783.6926, 502.1169
784.1747, 500.8927
784.6568, 499.9154
785.1389, 499.0461
785.6210, 498.1073
786.1031, 497.2024
786.5853, 496.6763
787.0674, 496.4588
787.5495, 495.8905
788.0316, 494.6656
788.5137, 493.1803
788.9958, 491.9838
789.4780, 491.0880
789.9601, 490.3364
790.4422, 489.7752
790.9243, 489.2925
791.4064, 488.9561
791.8885, 488.6145
792.3707, 488.1169
792.8528, 487.4901
793.3349, 486.9023
793.8170, 486.4796
794.2991, 486.0157
794.7813, 485.3281
795.2634, 484.5479
795.7455, 483.8554
796.2276, 483.2612
796.7097, 482.6429
797.1918, 481.9048
797.6740, 481.2274
798.1561, 481.1552
798.6382, 481.7375
799.1203, 481.3922
799.6024, 479.6487
800.0845, 478.0697
800.5667, 477.5366
801.0488, 477.5350
801.5309, 477.1285
802.0130, 476.2429
802.4951, 475.4649
802.9772, 474.9588
803.4594, 474.4319
803.9415, 473.7927
804.4236, 473.0443
804.9057, 472.0561
805.3878, 470.9201
805.8699, 470.1615
806.3521, 470.3745
806.8342, 470.8168
807.3163, 470.2556
807.7985, 468.9164
808.2806, 467.6377
808.7627, 466.5695
809.2448, 465.9448
809.7269, 466.0469
810.2090, 466.5240
810.6912, 466.2572
811.1733, 464.8745
811.6554, 463.6380
812.1375, 462.7028
812.6196, 461.7354
813.1017, 460.4334
813.5839, 459.1123
814.0660, 458.2967
814.5481, 458.0710
815.0302, 457.6823
815.5123, 456.6956
815.9944, 455.5316
816.4766, 454.3918
816.9587, 453.3579
817.4408, 452.6292
817.9229, 452.2093
818.4050, 451.8724
818.8871, 451.4962
819.3693, 450.9501
819.8514, 449.6615
820.3335, 447.5768
820.8156, 446.2406
821.2977, 446.1789
821.7798, 445.9764
822.2620, 444.5362
822.7441, 442.3188
823.2262, 440.6924
823.7083, 439.9224
824.1904, 439.1082
824.6725, 438.2029
825.1547, 437.2679
825.6368, 436.3950
826.1189, 435.4816
826.6010, 434.3549
827.0831, 432.9980
827.5652, 431.6245
828.0474, 430.2732
828.5295, 429.0558
829.0116, 428.2518
829.4937, 427.6761
829.9758, 426.7591
830.4579, 425.4150
830.9401, 424.1795
831.4222, 423.5034
831.9043, 423.1269
832.3864, 422.2507
832.8685, 420.8090
833.3506, 419.1527
833.8328, 416.9945
834.3149, 415.2341
834.7970, 414.7753
835.2791, 414.8414
835.7612, 413.9533
836.2433, 411.8860
836.7255, 410.1398
837.2076, 409.2292
837.6897, 408.3866
838.1718, 407.2277
838.6539, 405.9364
839.1360, 404.7160
839.6182, 403.6174
840.1003, 402.6415
840.5824, 401.8621
841.0645, 401.0797
841.5466, 399.9207
842.0287, 398.5303
842.5109, 397.4745
842.9930, 396.8072
843.4751, 396.0204
843.9572, 394.7975
844.4393, 393.3180
844.9214, 391.9887
845.4036, 390.8427
845.8857, 389.6437
846.3678, 388.3202
846.8499, 387.0612
847.3320, 386.0440
847.8141, 385.0520
848.2963, 383.7503
848.7784, 382.1713
849.2605, 380.9176
849.7426, 380.5355
850.2247, 379.9653
850.7068, 378.7325
851.1890, 377.1545
851.6711, 375.2792
852.1532, 373.3654
852.6353, 372.0670
853.1174, 371.7604
853.5995, 371.7192
854.0817, 371.2328
854.5638, 370.3353
855.0459, 368.9424
855.5280, 367.1258
856.0101, 365.6718
856.4922, 364.9193
856.9744, 364.3669
857.4565, 363.3483
857.9386, 361.8854
858.4207, 360.7650
858.9028, 360.1815
859.3849, 359.4590
859.8671, 358.3048
860.3492, 357.1554
860.8313, 356.4306
861.3134, 355.9547
861.7955, 355.2426
862.2776, 354.2100
862.7598, 353.0371
863.2419, 351.5310
863.7240, 350.1461
864.2061, 349.3828
864.6882, 348.8856
865.1703, 348.0096
865.6525, 346.6085
866.1346, 345.0891
866.6167, 343.6961
867.0988, 342.4258
867.5809, 341.2842
868.0630, 340.2635
868.5452, 339.4089
869.0273, 338.7112
869.5094, 337.9174
869.9915, 336.8139
870.4736, 335.5747
870.9557, 334.6971
871.4379, 334.2711
871.9200, 333.6743
872.4021, 332.8966
872.8842, 331.9009
873.3663, 330.4593
873.8484, 328.9472
874.3306, 328.0151
874.8127, 327.6822
875.2948, 327.1508
875.7769, 326.1017
876.2590, 325.2003
876.7411, 324.9044
877.2233, 324.6270
877.7054, 323.7127
878.1875, 322.3702
878.6696, 321.3322
879.1517, 320.9613
879.6339, 320.6387
880.1160, 319.7579
880.5981, 318.7005
881.0802, 318.0596
881.5623, 317.7314
882.0444, 317.2138
882.5266, 316.3486
883.0087, 315.4228
883.4908, 314.6921
883.9729, 314.1805
884.4550, 314.1485
884.9371, 314.6501
885.4193, 314.5887
885.9014, 313.5977
886.3835, 312.6225
886.8656, 312.3466
887.3477, 312.5414
887.8298, 312.6026
888.3120, 312.6093
888.7941, 312.2668
889.2762, 311.0801
889.7583, 310.1494
890.2404, 310.0273
890.7225, 310.1676
891.2047, 309.9200
891.6868, 309.3198
892.1689, 309.0381
892.6510, 309.6481
893.1331, 310.1500
893.6152, 309.8489
894.0974, 309.3242
894.5795, 309.2576
895.0616, 309.5341
895.5437, 309.6198
896.0258, 309.2949
896.5079, 308.8785
896.9901, 308.6811
897.4722, 308.6559
897.9543, 308.7177
898.4364, 308.8558
898.9185, 309.0706
899.4006, 309.3612
899.8828, 309.5438
900.3649, 309.4278
900.8470, 309.1251
901.3291, 309.0597
901.8112, 309.2855
902.2933, 309.4875
902.7755, 309.6644
903.2576, 309.7674
903.7397, 309.7495
904.2218, 309.6618
904.7039, 309.5636
905.1860, 309.4416
905.6682, 309.4384
906.1503, 309.6853
906.6324, 309.8877
907.1145, 309.9450
907.5966, 309.9602
908.0787, 310.0459
908.5609, 310.1614
909.0430, 310.1801
909.5251, 310.0644
910.0072, 309.8382
910.4893, 309.5164
910.9714, 309.0840
911.4536, 308.5170
911.9357, 307.8264
912.4178, 306.9838
912.8999, 306.0107
913.3820, 305.1157
913.8641, 304.5304
914.3463, 304.0207
914.8284, 303.1179
915.3105, 301.8979
915.7926, 300.6704
916.2748, 299.4874
916.7569, 298.3424
917.2390, 297.2329
917.7211, 296.1634
918.2032, 295.1423
918.6854, 294.1833
919.1675, 293.0792
919.6496, 291.7899
920.1317, 290.4901
920.6138, 289.1860
921.0959, 287.9165
921.5781, 286.6147
922.0602, 285.3616
922.5423, 284.5977
923.0244, 284.9182
923.5065, 284.5897
923.9886, 282.9328
924.4708, 281.3082
924.9529, 280.4038
925.4350, 279.8210
925.9171, 279.0404
926.3992, 278.0171
926.8813, 277.0448
927.3635, 276.1496
927.8456, 275.4445
928.3277, 275.1412
928.8098, 274.9595
929.2919, 274.6149
929.7740, 274.1002
930.2562, 273.4766
930.7383, 272.7726
931.2204, 272.0689
931.7025, 271.4271
932.1846, 270.8481
932.6667, 270.3631
933.1489, 269.9480
933.6310, 269.5515
934.1131, 269.1517
934.5952, 268.6468
935.0773, 267.9474
935.5594, 267.1469
936.0416, 266.4596
936.5237, 265.8835
937.0058, 265.3803
937.4879, 264.9271
937.9700, 264.7272
938.4521, 265.0024
938.9343, 265.2254
939.4164, 264.7255
939.8985, 263.5509
940.3806, 262.5254
940.8627, 261.6531
941.3448, 260.9293
941.8270, 260.2662
942.3091, 259.8605
942.7912, 259.9757
943.2733, 260.3419
943.7554, 260.5941
944.2375, 260.7416
944.7197, 260.5341
945.2018, 259.6360
945.6839, 258.7439
946.1660, 258.1881
946.6481, 257.6992
947.1302, 256.9133
947.6124, 255.9688
948.0945, 255.3581
948.5766, 255.2988
949.0587, 255.3004
949.5408, 255.0477
950.0229, 254.7143
950.5051, 254.5048
950.9872, 254.3338
951.4693, 254.0222
951.9514, 253.5406
952.4335, 252.9681
952.9156, 252.3121
953.3978, 251.7311
953.8799, 251.5525
954.3620, 251.6114
954.8441, 251.4845
955.3262, 251.1421
955.8083, 250.6215
956.2905, 249.9379
956.7726, 249.2518
957.2547, 248.7518
957.7368, 248.3916
958.2189, 247.9442
958.7010, 247.4026
959.1832, 246.8820
959.6653, 246.3831
960.1474, 245.9434
960.6295, 245.5356
961.1116, 245.2977
961.5938, 245.5742
962.0759, 246.4866
962.5580, 246.6940
963.0401, 245.8717
963.5222, 245.0087
964.0043, 244.2061
964.4865, 243.5538
964.9686, 243.2653
965.4507, 243.1724
965.9328, 242.6990
966.4149, 241.5343
966.8970, 240.8328
967.3792, 241.1394
967.8613, 241.3504
968.3434, 240.8891
968.8255, 240.2691
969.3076, 240.1325
969.7897, 240.3616
970.2719, 240.2010
970.7540, 239.2322
971.2361, 238.3169
971.7182, 237.8176
972.2003, 237.5001
972.6824, 237.2973
973.1646, 237.1006
973.6467, 236.6903
974.1288, 236.0792
974.6109, 235.6499
975.0930, 235.7575
975.5751, 235.9162
976.0573, 235.5901
976.5394, 235.0758
977.0215, 234.9164
977.5036, 234.9854
977.9857, 234.6691
978.4678, 233.7757
978.9500, 232.9089
979.4321, 232.7324
979.9142, 232.9054
980.3963, 232.7616
980.8784, 232.3764
981.3605, 231.9683
981.8427, 231.5907
982.3248, 231.3748
982.8069, 231.3911
983.2890, 231.6003
983.7711, 232.0865
984.2532, 232.7323
984.7354, 232.5509
985.2175, 231.5120
985.6996, 230.7202
986.1817, 230.4092
986.6638, 230.4147
987.1459, 230.6875
987.6281, 231.0503
988.1102, 231.0559
988.5923, 230.6178
989.0744, 230.5113
989.5565, 230.9061
990.0386, 231.1116
990.5208, 230.8450
991.0029, 230.4949
991.4850, 230.4320
991.9671, 230.5536
992.4492, 230.4500
992.9313, 229.9642
993.4135, 229.6305
993.8956, 229.5438
994.3777, 229.4839
994.8598, 229.4809
995.3419, 229.3982
995.8240, 229.0547
996.3062, 228.4990
996.7883, 228.0135
997.2704, 227.6711
997.7525, 227.3092
998.2346, 226.7664
998.7167, 226.3537
999.1989, 226.3025
999.6810, 226.4176
1000.163, 226.5076
1000.645, 226.5339
1001.127, 226.4216
1001.609, 226.0239
1002.092, 225.6852
1002.574, 225.7362
1003.056, 225.7142
1003.538, 225.0574
1004.020, 224.1573
1004.502, 223.7066
1004.984, 223.8135
1005.466, 224.0330
1005.948, 224.1423
1006.431, 224.2697
1006.913, 224.6003
1007.395, 224.9343
1007.877, 225.0266
1008.359, 224.9174
1008.841, 224.6965
1009.323, 224.4182
1009.805, 224.2948
1010.288, 224.5886
1010.770, 225.0075
1011.252, 225.1890
1011.734, 225.2437
1012.216, 225.3747
1012.698, 225.5816
1013.180, 225.7382
1013.662, 225.7986
1014.144, 225.9154
1014.627, 226.2901
1015.109, 226.7875
1015.591, 227.1240
1016.073, 227.3480
1016.555, 227.6389
1017.037, 228.0012
1017.519, 228.2527
1018.001, 228.2973
1018.484, 228.3491
1018.966, 228.7641
1019.448, 229.3788
1019.930, 229.4702
1020.412, 229.1281
1020.894, 229.2810
1021.376, 230.0786
1021.858, 230.8452
1022.340, 231.1917
1022.823, 231.3134
1023.305, 231.5181
1023.787, 231.7908
1024.269, 231.9238
1024.751, 231.8983
1025.233, 232.1988
1025.715, 232.9770
1026.197, 233.6736
1026.680, 233.8995
1027.162, 233.9385
1027.644, 234.3464
1028.126, 235.1360
1028.608, 235.7757
1029.090, 236.2766
1029.572, 236.5159
1030.054, 236.3431
1030.536, 236.2617
1031.019, 236.6054
1031.501, 237.2900
1031.983, 238.2189
1032.465, 239.4867
1032.947, 240.1451
1033.429, 239.8374
1033.911, 239.8727
1034.393, 240.6874
1034.875, 241.6440
1035.358, 242.3492
1035.840, 242.8309
1036.322, 243.1178
1036.804, 243.1153
1037.286, 243.3861
1037.768, 244.1153
1038.250, 244.7814
1038.732, 245.2137
1039.215, 245.6248
1039.697, 246.2098
1040.179, 246.8748
1040.661, 247.3610
1041.143, 247.5946
1041.625, 247.9307
1042.107, 248.5391
1042.589, 249.0190
1043.072, 249.0250
1043.554, 249.1337
1044.036, 249.9272
1044.518, 251.0892
1045.000, 251.8362
1045.482, 252.0422
1045.964, 252.2411
1046.446, 252.3328
1046.928, 252.6041
1047.411, 253.2097
1047.893, 253.9439
1048.375, 254.7206
1048.857, 255.4975
1049.339, 256.1986
1049.821, 256.8234
1050.303, 257.3448
1050.785, 257.5574
1051.267, 257.9302
1051.750, 258.6798
1052.232, 259.5803
1052.714, 260.6111
1053.196, 261.6068
1053.678, 262.1420
1054.160, 262.0399
1054.642, 262.2738
1055.124, 263.2688
1055.607, 264.3732
1056.089, 265.4124
1056.571, 266.4029
1057.053, 267.4244
1057.535, 268.3957
1058.017, 269.0956
1058.499, 269.4471
1058.981, 269.9531
1059.464, 270.6576
1059.946, 271.6818
1060.428, 273.3684
1060.910, 275.1380
1061.392, 276.4792
1061.874, 277.5409
1062.356, 278.7156
1062.838, 280.0858
1063.320, 281.4456
1063.802, 282.6606
1064.285, 283.9291
1064.767, 285.3647
1065.249, 286.8609
1065.731, 288.2666
1066.213, 289.6759
1066.695, 291.3185
1067.177, 293.2319
1067.659, 295.1069
1068.142, 296.7132
1068.624, 298.3891
1069.106, 300.2988
1069.588, 302.3246
1070.070, 304.2706
1070.552, 306.3016
1071.034, 308.8412
1071.516, 311.9173
1071.999, 314.8828
1072.481, 317.4374
1072.963, 319.8603
1073.445, 322.2224
1073.927, 324.5767
1074.409, 326.7706
1074.891, 329.0799
1075.373, 332.0666
1075.855, 335.7283
1076.338, 339.2158
1076.820, 341.9508
1077.302, 344.8721
1077.784, 348.7854
1078.266, 352.6953
1078.748, 355.5806
1079.230, 358.0744
1079.712, 361.1166
1080.194, 364.8213
1080.677, 368.7827
1081.159, 372.9235
1081.641, 377.0957
1082.123, 381.2469
1082.605, 385.3385
1083.087, 389.1906
1083.569, 393.0262
1084.052, 397.2159
1084.534, 401.7236
1085.016, 406.1241
1085.498, 410.2120
1085.980, 414.3580
1086.462, 419.0422
1086.944, 423.5114
1087.426, 427.0132
1087.908, 430.2177
1088.391, 433.8371
1088.873, 437.9293
1089.355, 442.3187
1089.837, 447.0851
1090.319, 451.6193
1090.801, 455.5723
1091.283, 459.3861
1091.765, 463.3482
1092.247, 467.2647
1092.730, 470.7703
1093.212, 474.0932
1093.694, 478.0420
1094.176, 482.9251
1094.658, 487.2762
1095.140, 490.0922
1095.622, 492.8478
1096.104, 496.2857
1096.587, 499.8897
1097.069, 503.2453
1097.551, 506.3902
1098.033, 509.4948
1098.515, 512.5892
1098.997, 515.5459
1099.479, 518.4237
1099.961, 521.0264
1100.443, 522.8868
1100.926, 524.8755
1101.408, 527.9483
1101.890, 531.3818
1102.372, 533.8923
1102.854, 535.3807
1103.336, 536.9931
1103.818, 539.2764
1104.300, 541.2494
1104.782, 542.4700
1105.265, 543.5842
1105.747, 545.0052
1106.229, 546.4815
1106.711, 547.6715
1107.193, 548.5865
1107.675, 549.4619
1108.157, 550.0195
1108.639, 551.1338
1109.122, 553.4199
1109.604, 555.6465
1110.086, 557.5770
1110.568, 559.0374
1111.050, 559.5826
1111.532, 559.5093
1112.014, 560.0167
1112.496, 561.6169
1112.979, 562.5394
1113.461, 561.9821
1113.943, 561.7507
1114.425, 562.8207
1114.907, 563.8064
1115.389, 563.3362
1115.871, 562.2123
1116.353, 562.3656
1116.835, 564.1312
1117.318, 565.1814
1117.800, 565.1111
1118.282, 565.0797
1118.764, 565.3395
1119.246, 565.5428
1119.728, 565.4341
1120.210, 565.2157
1120.692, 565.1474
1121.174, 565.2348
1121.657, 565.7380
1122.139, 566.9255
1122.621, 567.7885
1123.103, 568.1566
1123.585, 568.4039
1124.067, 568.6463
1124.549, 568.9039
1125.031, 569.2106
1125.514, 569.5375
1125.996, 569.7238
1126.478, 569.6868
1126.960, 569.9916
1127.442, 570.7944
1127.924, 571.1537
1128.406, 570.6102
1128.888, 570.3236
1129.370, 571.3791
1129.853, 572.9718
1130.335, 573.0914
1130.817, 571.7435
1131.299, 571.1517
1131.781, 571.3715
1132.263, 570.9871
1132.745, 569.6667
1133.227, 568.5839
1133.709, 568.4111
1134.192, 568.8898
1134.674, 569.7848
1135.156, 570.9335
1135.638, 571.7028
1136.120, 572.0978
1136.602, 572.0696
1137.084, 571.6506
1137.566, 571.2162
1138.049, 570.9120
1138.531, 570.5247
1139.013, 569.7472
1139.495, 569.0096
1139.977, 569.2820
1140.459, 570.2431
1140.941, 571.0272
1141.423, 571.6288
1141.906, 572.4203
1142.388, 573.3937
1142.870, 573.7787
1143.352, 572.9874
1143.834, 572.1747
1144.316, 573.0262
1144.798, 574.4875
1145.280, 574.8517
1145.762, 574.6298
1146.245, 574.8829
1146.727, 575.6876
1147.209, 576.6630
1147.691, 577.6644
1148.173, 578.6381
1148.655, 579.5201
1149.137, 580.4017
1149.619, 581.4793
1150.101, 582.5077
1150.584, 583.0493
1151.066, 583.3615
1151.548, 583.9758
1152.030, 584.9922
1152.512, 586.1839
1152.994, 587.4044
1153.476, 588.8619
1153.958, 591.0560
1154.441, 593.0647
1154.923, 594.0517
1155.405, 594.6549
1155.887, 595.6273
1156.369, 596.9602
1156.851, 598.2639
1157.333, 599.3616
1157.815, 600.8624
1158.297, 603.4395
1158.780, 605.6956
1159.262, 606.7899
1159.744, 607.8124
1160.226, 609.5749
1160.708, 611.8019
1161.190, 613.9246
1161.672, 615.8976
1162.154, 618.2454
1162.636, 621.4225
1163.119, 624.1124
1163.601, 626.0007
1164.083, 627.7582
1164.565, 629.5450
1165.047, 631.4896
1165.529, 633.7316
1166.011, 636.2433
1166.493, 638.8975
1166.976, 641.6622
1167.458, 644.8715
1167.940, 648.7048
1168.422, 652.0294
1168.904, 654.4686
1169.386, 656.9694
1169.868, 660.1555
1170.350, 663.6768
1170.833, 666.9306
1171.315, 669.9780
1171.797, 673.1144
1172.279, 676.3398
1172.761, 679.7090
1173.243, 683.2350
1173.725, 686.7894
1174.207, 690.3455
1174.689, 694.1539
1175.172, 698.4833
1175.654, 703.0926
1176.136, 707.6819
1176.618, 712.1864
1177.100, 716.1699
1177.582, 719.9352
1178.064, 724.6000
1178.546, 730.1537
1179.028, 735.3276
1179.511, 739.4849
1179.993, 743.8210
1180.475, 749.7224
1180.957, 755.9916
1181.439, 761.5973
1181.921, 766.8136
1182.403, 771.6304
1182.885, 776.5078
1183.368, 782.3826
1183.850, 789.3647
1184.332, 796.4389
1184.814, 802.9659
1185.296, 809.9040
1185.778, 818.1318
1186.260, 826.2929
1186.742, 833.0863
1187.224, 839.7030
1187.707, 847.4305
1188.189, 856.1804
1188.671, 865.4005
1189.153, 875.3563
1189.635, 884.6523
1190.117, 892.2133
1190.599, 900.7527
1191.081, 911.2196
1191.564, 922.0712
1192.046, 932.4387
1192.528, 942.7997
1193.010, 953.7929
1193.492, 965.3681
1193.974, 977.2579
1194.456, 989.5300
1194.938, 1001.610
1195.421, 1013.312
1195.903, 1025.535
1196.385, 1038.419
1196.867, 1052.569
1197.349, 1068.733
1197.831, 1085.364
1198.313, 1099.247
1198.795, 1111.166
1199.277, 1124.678
1199.760, 1139.590
1200.242, 1154.591
1200.724, 1169.464
1201.206, 1183.728
1201.688, 1197.244
1202.170, 1210.879
1202.652, 1225.547
1203.134, 1240.161
1203.616, 1253.230
1204.099, 1265.526
1204.581, 1278.230
1205.063, 1290.858
1205.545, 1302.487
1206.027, 1312.977
1206.509, 1322.683
1206.991, 1331.656
1207.473, 1340.343
1207.956, 1349.428
1208.438, 1357.637
1208.920, 1364.226
1209.402, 1369.757
1209.884, 1374.345
1210.366, 1378.341
1210.848, 1382.509
1211.330, 1386.705
1211.813, 1389.044
1212.295, 1388.274
1212.777, 1387.752
1213.259, 1388.042
1213.741, 1387.835
1214.223, 1386.792
1214.705, 1385.150
1215.187, 1382.895
1215.669, 1380.371
1216.151, 1378.297
1216.634, 1376.618
1217.116, 1374.138
1217.598, 1370.683
1218.080, 1369.101
1218.562, 1369.791
1219.044, 1369.747
1219.526, 1367.898
1220.008, 1365.823
1220.491, 1364.708
1220.973, 1364.608
1221.455, 1366.068
1221.937, 1368.420
1222.419, 1369.648
1222.901, 1370.386
1223.383, 1372.465
1223.865, 1375.852
1224.348, 1379.338
1224.830, 1382.537
1225.312, 1386.061
1225.794, 1390.056
1226.276, 1395.028
1226.758, 1401.859
1227.240, 1409.355
1227.722, 1416.730
1228.204, 1423.842
1228.687, 1430.234
1229.169, 1436.264
1229.651, 1443.047
1230.133, 1450.805
1230.615, 1459.074
1231.097, 1468.318
1231.579, 1477.217
1232.061, 1485.200
1232.543, 1493.245
1233.026, 1501.676
1233.508, 1510.556
1233.990, 1519.997
1234.472, 1529.936
1234.954, 1539.979
1235.436, 1550.187
1235.918, 1560.087
1236.400, 1569.593
1236.883, 1579.938
1237.365, 1591.357
1237.847, 1602.496
1238.329, 1612.572
1238.811, 1622.290
1239.293, 1632.417
1239.775, 1642.785
1240.257, 1653.129
1240.740, 1663.510
1241.222, 1673.882
1241.704, 1684.593
1242.186, 1697.139
1242.668, 1711.150
1243.150, 1723.532
1243.632, 1732.787
1244.114, 1743.173
1244.596, 1758.616
1245.078, 1774.719
1245.561, 1788.357
1246.043, 1801.791
1246.525, 1817.405
1247.007, 1833.843
1247.489, 1848.761
1247.971, 1862.309
1248.453, 1876.956
1248.935, 1893.588
1249.418, 1909.576
1249.900, 1924.622
1250.382, 1939.689
1250.864, 1955.170
1251.346, 1970.115
1251.828, 1983.789
1252.310, 1997.124
1252.792, 2011.457
1253.275, 2026.531
1253.757, 2041.872
1254.239, 2057.269
1254.721, 2069.215
1255.203, 2078.097
1255.685, 2088.614
1256.167, 2101.556
1256.649, 2113.802
1257.131, 2123.822
1257.614, 2132.782
1258.096, 2141.729
1258.578, 2150.500
1259.060, 2159.827
1259.542, 2168.121
1260.024, 2172.743
1260.506, 2175.073
1260.988, 2177.334
1261.470, 2179.925
1261.953, 2182.791
1262.435, 2186.214
1262.917, 2188.478
1263.399, 2189.481
1263.881, 2188.813
1264.363, 2185.073
1264.845, 2181.189
1265.327, 2178.749
1265.810, 2176.795
1266.292, 2174.453
1266.774, 2171.546
1267.256, 2167.103
1267.738, 2160.898
1268.220, 2155.796
1268.702, 2151.854
1269.184, 2147.457
1269.667, 2142.350
1270.149, 2137.751
1270.631, 2134.200
1271.113, 2131.346
1271.595, 2129.046
1272.077, 2126.696
1272.559, 2122.707
1273.041, 2118.637
1273.523, 2116.999
1274.005, 2116.932
1274.488, 2116.583
1274.970, 2116.145
1275.452, 2117.289
1275.934, 2120.468
1276.416, 2123.196
1276.898, 2123.982
1277.380, 2125.072
1277.862, 2126.221
1278.345, 2128.860
1278.827, 2134.571
1279.309, 2141.217
1279.791, 2147.305
1280.273, 2152.940
1280.755, 2158.227
1281.237, 2163.170
1281.719, 2168.070
1282.202, 2172.794
1282.684, 2178.985
1283.166, 2186.824
1283.648, 2193.917
1284.130, 2199.516
1284.612, 2205.475
1285.094, 2213.213
1285.576, 2221.034
1286.058, 2226.379
1286.541, 2230.742
1287.023, 2236.512
##END=



