##NAMES=Gadolinite-(Y)
##RRUFFID=R060351
##IDEAL CHEMISTRY=Fe^2+^Be_2_Y^3+^_2_(SiO_4_)_2_O_2_
##LOCALITY=Hittero, Vest-Agder, Norway
##OWNER=RRUFF
##SOURCE=Herb Obodda
##DESCRIPTION=Dark brown vitreous fragment
##STATUS=The identification of this mineral is confirmed by single-crystal X-ray diffraction and chemical analysis.
##URL=rruff.info/R060351
##MEASURED CHEMISTRY=Be_2.00_Fe^2+^_1.00_(Y_1.75_Nd_0.14_Ce_0.09_La_0.02_)_Î£=2_Si_2.00_O_10_; trace amounts of Ca and Sm; Be not measured but assumed by stoichiometry
172.9341, 1146.984
173.4163, 1141.658
173.8984, 1137.236
174.3805, 1134.639
174.8626, 1132.665
175.3447, 1130.196
175.8268, 1127.293
176.3090, 1124.271
176.7911, 1121.459
177.2732, 1118.658
177.7553, 1115.447
178.2374, 1111.139
178.7195, 1106.988
179.2017, 1105.214
179.6838, 1105.532
180.1659, 1105.417
180.6480, 1101.451
181.1301, 1095.537
181.6122, 1092.213
182.0944, 1094.020
182.5765, 1098.176
183.0586, 1100.110
183.5407, 1099.817
184.0228, 1098.632
184.5049, 1096.722
184.9871, 1094.625
185.4692, 1094.488
185.9513, 1098.069
186.4334, 1103.616
186.9155, 1107.035
187.3976, 1108.206
187.8798, 1108.518
188.3619, 1109.906
188.8440, 1112.011
189.3261, 1112.307
189.8082, 1108.888
190.2903, 1103.033
190.7725, 1099.540
191.2546, 1098.651
191.7367, 1098.609
192.2188, 1097.311
192.7009, 1094.815
193.1830, 1092.523
193.6652, 1091.384
194.1473, 1091.033
194.6294, 1088.873
195.1115, 1084.475
195.5936, 1079.689
196.0757, 1076.979
196.5579, 1076.387
197.0400, 1076.456
197.5221, 1076.677
198.0042, 1077.063
198.4863, 1078.150
198.9684, 1080.403
199.4506, 1082.337
199.9327, 1081.211
200.4148, 1076.672
200.8969, 1072.347
201.3790, 1069.639
201.8611, 1068.594
202.3433, 1068.052
202.8254, 1067.991
203.3075, 1068.430
203.7896, 1069.961
204.2717, 1073.090
204.7538, 1074.730
205.2360, 1072.714
205.7181, 1066.389
206.2002, 1062.510
206.6823, 1061.625
207.1644, 1062.505
207.6465, 1063.057
208.1287, 1063.304
208.6108, 1063.166
209.0929, 1062.445
209.5750, 1060.950
210.0571, 1060.059
210.5392, 1060.011
211.0214, 1060.396
211.5035, 1060.325
211.9856, 1059.689
212.4677, 1058.977
212.9498, 1058.489
213.4319, 1058.392
213.9141, 1057.823
214.3962, 1056.614
214.8783, 1055.016
215.3604, 1053.477
215.8425, 1051.643
216.3246, 1050.570
216.8067, 1050.982
217.2889, 1053.532
217.7710, 1055.166
218.2531, 1055.477
218.7352, 1054.999
219.2173, 1055.318
219.6994, 1057.496
220.1816, 1058.406
220.6637, 1055.980
221.1458, 1047.898
221.6279, 1043.397
222.1100, 1043.997
222.5921, 1047.696
223.0743, 1049.158
223.5564, 1047.346
224.0385, 1045.161
224.5206, 1043.989
225.0027, 1044.215
225.4848, 1044.471
225.9670, 1044.902
226.4491, 1045.315
226.9312, 1045.044
227.4133, 1043.411
227.8954, 1042.189
228.3775, 1042.329
228.8597, 1044.556
229.3418, 1046.263
229.8239, 1047.068
230.3060, 1047.390
230.7881, 1048.516
231.2702, 1051.212
231.7524, 1053.504
232.2345, 1054.300
232.7166, 1052.511
233.1987, 1051.858
233.6808, 1053.203
234.1629, 1055.474
234.6451, 1055.706
235.1272, 1052.963
235.6093, 1049.629
236.0914, 1046.546
236.5735, 1043.069
237.0556, 1041.601
237.5378, 1043.496
238.0199, 1047.051
238.5020, 1047.732
238.9841, 1043.846
239.4662, 1039.641
239.9483, 1036.864
240.4305, 1035.916
240.9126, 1035.512
241.3947, 1035.743
241.8768, 1036.465
242.3589, 1037.445
242.8410, 1039.123
243.3232, 1040.335
243.8053, 1040.450
244.2874, 1038.780
244.7695, 1037.657
245.2516, 1037.262
245.7337, 1037.329
246.2159, 1037.176
246.6980, 1036.250
247.1801, 1036.001
247.6622, 1037.428
248.1443, 1042.127
248.6264, 1043.827
249.1086, 1041.047
249.5907, 1036.026
250.0728, 1033.363
250.5549, 1033.753
251.0370, 1035.336
251.5191, 1037.747
252.0013, 1041.633
252.4834, 1043.979
252.9655, 1044.099
253.4476, 1043.048
253.9297, 1042.777
254.4118, 1043.589
254.8940, 1044.601
255.3761, 1045.730
255.8582, 1047.366
256.3403, 1047.356
256.8224, 1044.786
257.3046, 1041.285
257.7867, 1039.770
258.2688, 1041.179
258.7509, 1042.611
259.2330, 1043.147
259.7151, 1042.706
260.1973, 1041.906
260.6794, 1040.458
261.1615, 1038.980
261.6436, 1038.476
262.1257, 1039.291
262.6078, 1040.230
263.0900, 1040.901
263.5721, 1041.254
264.0542, 1041.896
264.5363, 1043.111
265.0184, 1044.252
265.5005, 1044.290
265.9827, 1042.627
266.4648, 1041.587
266.9469, 1042.083
267.4290, 1044.156
267.9111, 1045.422
268.3932, 1045.855
268.8754, 1045.487
269.3575, 1044.115
269.8396, 1041.339
270.3217, 1038.986
270.8038, 1037.493
271.2859, 1036.835
271.7681, 1036.697
272.2502, 1037.158
272.7323, 1037.988
273.2144, 1039.059
273.6965, 1040.471
274.1786, 1041.677
274.6608, 1042.834
275.1429, 1043.755
275.6250, 1042.698
276.1071, 1039.002
276.5892, 1035.237
277.0714, 1033.804
277.5535, 1034.841
278.0356, 1036.985
278.5177, 1040.647
278.9998, 1045.074
279.4819, 1046.702
279.9641, 1044.993
280.4462, 1042.849
280.9283, 1043.026
281.4104, 1045.646
281.8925, 1046.798
282.3746, 1045.484
282.8568, 1042.633
283.3389, 1040.688
283.8210, 1039.654
284.3031, 1039.433
284.7852, 1039.996
285.2673, 1041.318
285.7495, 1043.434
286.2316, 1046.625
286.7137, 1050.163
287.1958, 1052.649
287.6779, 1054.064
288.1600, 1054.610
288.6422, 1054.013
289.1243, 1052.448
289.6064, 1051.183
290.0885, 1050.204
290.5706, 1049.802
291.0527, 1051.051
291.5349, 1053.808
292.0170, 1055.867
292.4991, 1054.939
292.9812, 1052.172
293.4633, 1052.459
293.9454, 1056.743
294.4276, 1061.223
294.9097, 1059.716
295.3918, 1053.362
295.8739, 1048.167
296.3560, 1048.696
296.8381, 1052.300
297.3203, 1051.902
297.8024, 1046.906
298.2845, 1042.082
298.7666, 1043.935
299.2487, 1050.374
299.7308, 1055.034
300.2130, 1053.495
300.6951, 1049.251
301.1772, 1048.237
301.6593, 1050.445
302.1414, 1053.233
302.6235, 1054.657
303.1057, 1054.984
303.5878, 1054.635
304.0699, 1052.939
304.5520, 1051.309
305.0341, 1051.823
305.5162, 1054.240
305.9984, 1056.499
306.4805, 1056.787
306.9626, 1056.068
307.4447, 1055.743
307.9268, 1056.660
308.4089, 1057.425
308.8911, 1055.909
309.3732, 1052.835
309.8553, 1051.216
310.3374, 1055.307
310.8195, 1060.575
311.3016, 1062.020
311.7838, 1056.945
312.2659, 1051.474
312.7480, 1049.402
313.2301, 1050.031
313.7122, 1051.548
314.1943, 1055.049
314.6765, 1057.925
315.1586, 1057.748
315.6407, 1053.106
316.1228, 1049.251
316.6049, 1049.022
317.0870, 1051.201
317.5692, 1053.768
318.0513, 1058.081
318.5334, 1060.918
319.0155, 1059.620
319.4976, 1053.141
319.9797, 1048.566
320.4619, 1049.825
320.9440, 1053.622
321.4261, 1056.252
321.9082, 1055.865
322.3903, 1055.113
322.8724, 1055.129
323.3546, 1055.980
323.8367, 1055.585
324.3188, 1051.871
324.8009, 1047.694
325.2830, 1045.278
325.7651, 1046.291
326.2473, 1047.534
326.7294, 1048.902
327.2115, 1050.313
327.6936, 1051.060
328.1757, 1050.846
328.6578, 1050.159
329.1400, 1049.228
329.6221, 1047.609
330.1042, 1046.343
330.5863, 1045.340
331.0684, 1044.672
331.5505, 1044.646
332.0327, 1046.146
332.5148, 1047.206
332.9969, 1046.883
333.4790, 1044.363
333.9611, 1042.691
334.4432, 1042.102
334.9254, 1042.212
335.4075, 1042.415
335.8896, 1042.784
336.3717, 1043.108
336.8538, 1043.308
337.3359, 1043.379
337.8180, 1043.510
338.3001, 1043.727
338.7823, 1043.985
339.2644, 1044.342
339.7465, 1044.951
340.2286, 1044.958
340.7107, 1043.855
341.1928, 1041.901
341.6750, 1041.071
342.1571, 1041.472
342.6392, 1042.496
343.1213, 1044.354
343.6034, 1047.067
344.0855, 1047.288
344.5677, 1043.669
345.0498, 1038.039
345.5319, 1034.917
346.0140, 1034.354
346.4961, 1034.797
346.9782, 1035.933
347.4604, 1037.442
347.9425, 1037.534
348.4246, 1035.855
348.9067, 1033.356
349.3888, 1030.809
349.8709, 1028.410
350.3531, 1027.187
350.8352, 1028.813
351.3173, 1031.725
351.7994, 1032.614
352.2815, 1031.227
352.7636, 1029.514
353.2458, 1029.541
353.7279, 1030.638
354.2100, 1031.348
354.6921, 1030.704
355.1742, 1029.672
355.6563, 1029.127
356.1385, 1029.066
356.6206, 1029.471
357.1027, 1031.425
357.5848, 1033.426
358.0669, 1033.482
358.5490, 1029.395
359.0312, 1025.725
359.5133, 1026.556
359.9954, 1030.391
360.4775, 1032.604
360.9596, 1028.196
361.4417, 1023.213
361.9239, 1022.219
362.4060, 1027.416
362.8881, 1032.187
363.3702, 1033.974
363.8523, 1033.792
364.3344, 1033.197
364.8166, 1033.414
365.2987, 1032.584
365.7808, 1029.064
366.2629, 1022.170
366.7450, 1017.892
367.2271, 1019.645
367.7093, 1023.214
368.1914, 1024.893
368.6735, 1022.373
369.1556, 1020.161
369.6377, 1018.480
370.1198, 1017.410
370.6020, 1018.042
371.0841, 1022.793
371.5662, 1027.009
372.0483, 1027.968
372.5304, 1023.082
373.0125, 1019.902
373.4947, 1019.499
373.9768, 1020.583
374.4589, 1019.849
374.9410, 1015.953
375.4231, 1013.007
375.9052, 1012.979
376.3874, 1016.414
376.8695, 1018.449
377.3516, 1018.844
377.8337, 1018.285
378.3158, 1017.675
378.7979, 1017.085
379.2801, 1015.771
379.7622, 1012.931
380.2443, 1009.265
380.7264, 1008.158
381.2085, 1009.887
381.6906, 1012.257
382.1728, 1013.843
382.6549, 1014.603
383.1370, 1013.903
383.6191, 1011.037
384.1012, 1007.727
384.5833, 1007.148
385.0655, 1008.994
385.5476, 1010.912
386.0297, 1011.220
386.5118, 1010.768
386.9939, 1011.417
387.4760, 1013.512
387.9582, 1015.305
388.4403, 1014.491
388.9224, 1012.180
389.4045, 1010.688
389.8866, 1012.196
390.3687, 1014.072
390.8509, 1013.925
391.3330, 1011.880
391.8151, 1009.512
392.2972, 1006.706
392.7793, 1004.517
393.2614, 1004.201
393.7436, 1008.411
394.2257, 1011.210
394.7078, 1008.481
395.1899, 1002.263
395.6720, 997.9113
396.1541, 998.1127
396.6363, 999.7873
397.1184, 1001.948
397.6005, 1005.252
398.0826, 1006.639
398.5647, 1003.523
399.0468, 998.9748
399.5290, 996.7150
400.0111, 999.9462
400.4932, 1002.297
400.9753, 1002.312
401.4574, 999.9969
401.9395, 998.4274
402.4217, 998.1335
402.9038, 997.9952
403.3859, 997.2226
403.8680, 995.4423
404.3501, 993.8458
404.8322, 992.3838
405.3144, 991.2128
405.7965, 990.9902
406.2786, 992.0733
406.7607, 992.9022
407.2428, 992.4949
407.7249, 990.7830
408.2071, 990.2274
408.6892, 991.0934
409.1713, 992.3082
409.6534, 992.4066
410.1355, 991.4503
410.6176, 990.7167
411.0998, 990.7205
411.5819, 991.0977
412.0640, 990.7398
412.5461, 989.6918
413.0282, 989.0214
413.5103, 990.4738
413.9925, 992.7872
414.4746, 993.2419
414.9567, 991.1303
415.4388, 987.8438
415.9209, 983.5767
416.4030, 979.1635
416.8852, 976.5610
417.3673, 978.2197
417.8494, 981.1765
418.3315, 983.3840
418.8136, 984.7069
419.2957, 984.7673
419.7779, 982.0646
420.2600, 978.5243
420.7421, 976.1193
421.2242, 976.0156
421.7063, 976.4911
422.1884, 977.5716
422.6706, 978.9291
423.1527, 979.3502
423.6348, 977.6061
424.1169, 975.6387
424.5990, 974.4788
425.0811, 975.1240
425.5633, 974.4660
426.0454, 970.8915
426.5275, 966.6136
427.0096, 964.4123
427.4917, 965.1378
427.9738, 966.7552
428.4560, 969.3629
428.9381, 972.8701
429.4202, 974.7429
429.9023, 974.6985
430.3844, 973.5025
430.8665, 971.3876
431.3487, 968.0921
431.8308, 965.3419
432.3129, 963.1157
432.7950, 961.7026
433.2771, 962.2697
433.7592, 964.8993
434.2414, 967.0978
434.7235, 967.8561
435.2056, 967.2518
435.6877, 964.9348
436.1698, 960.7198
436.6519, 957.1003
437.1341, 957.2166
437.6162, 959.9471
438.0983, 962.4904
438.5804, 964.4756
439.0625, 965.4097
439.5446, 963.9794
440.0268, 960.8001
440.5089, 958.1016
440.9910, 957.6889
441.4731, 958.0552
441.9552, 957.9678
442.4373, 957.3038
442.9195, 956.0920
443.4016, 953.4202
443.8837, 950.5156
444.3658, 948.8692
444.8479, 950.5734
445.3300, 951.9431
445.8122, 951.5056
446.2943, 949.4717
446.7764, 947.8873
447.2585, 947.4181
447.7406, 947.1797
448.2227, 946.7440
448.7049, 946.0800
449.1870, 945.2648
449.6691, 944.2297
450.1512, 943.0806
450.6333, 942.0439
451.1154, 941.2925
451.5976, 940.2059
452.0797, 938.2783
452.5618, 935.6508
453.0439, 934.9318
453.5260, 936.7162
454.0081, 938.5883
454.4903, 938.3602
454.9724, 936.0709
455.4545, 934.2040
455.9366, 932.9742
456.4187, 932.4954
456.9008, 933.4368
457.3830, 935.6063
457.8651, 937.4034
458.3472, 937.9943
458.8293, 937.7624
459.3114, 937.3068
459.7935, 936.6431
460.2757, 935.9150
460.7578, 935.1004
461.2399, 934.3415
461.7220, 933.9320
462.2041, 934.4037
462.6862, 934.4405
463.1684, 932.8184
463.6505, 930.0889
464.1326, 927.5688
464.6147, 924.8846
465.0968, 923.2592
465.5789, 923.9828
466.0611, 927.5727
466.5432, 929.8724
467.0253, 929.1664
467.5074, 927.2755
467.9895, 925.7217
468.4716, 924.7567
468.9538, 923.8915
469.4359, 923.1260
469.9180, 922.4520
470.4001, 921.9620
470.8822, 922.2554
471.3643, 921.6650
471.8465, 918.9409
472.3286, 913.6566
472.8107, 911.2122
473.2928, 912.3860
473.7749, 914.5862
474.2570, 915.1948
474.7392, 914.2239
475.2213, 911.7563
475.7034, 906.6985
476.1855, 901.5042
476.6676, 902.5716
477.1497, 909.2308
477.6319, 915.0879
478.1140, 914.9539
478.5961, 911.9807
479.0782, 912.1592
479.5603, 916.1630
480.0424, 919.2002
480.5246, 915.4847
481.0067, 908.8544
481.4888, 904.7952
481.9709, 906.8431
482.4530, 909.7865
482.9352, 910.8018
483.4173, 910.5153
483.8994, 910.9111
484.3815, 915.2709
484.8636, 918.3203
485.3457, 916.6003
485.8279, 907.8328
486.3100, 902.1221
486.7921, 902.8324
487.2742, 905.5978
487.7563, 906.6102
488.2384, 904.6869
488.7206, 903.0442
489.2027, 902.1216
489.6848, 901.7292
490.1669, 901.1501
490.6490, 900.2519
491.1311, 899.6108
491.6133, 899.7792
492.0954, 900.7380
492.5775, 900.5859
493.0596, 899.1063
493.5417, 897.4588
494.0238, 897.2051
494.5060, 897.9899
494.9881, 897.9609
495.4702, 896.0477
495.9523, 894.0823
496.4344, 895.4650
496.9165, 899.3123
497.3987, 902.2994
497.8808, 901.8643
498.3629, 900.1285
498.8450, 899.3232
499.3271, 899.6689
499.8092, 899.3168
500.2914, 896.0565
500.7735, 892.2060
501.2556, 889.8814
501.7377, 890.3283
502.2198, 891.5049
502.7019, 894.1556
503.1841, 897.2860
503.6662, 898.2051
504.1483, 894.2471
504.6304, 890.6740
505.1125, 889.1339
505.5946, 889.8127
506.0768, 890.0400
506.5589, 889.4794
507.0410, 888.9898
507.5231, 889.4330
508.0052, 891.0253
508.4873, 892.3420
508.9695, 893.5434
509.4516, 893.8871
509.9337, 890.9728
510.4158, 885.0303
510.8979, 880.4666
511.3800, 880.1360
511.8622, 882.1714
512.3443, 882.0541
512.8264, 879.9068
513.3085, 878.0961
513.7906, 878.9207
514.2728, 880.9662
514.7549, 882.4084
515.2370, 882.8254
515.7191, 882.8406
516.2012, 883.0396
516.6833, 883.0522
517.1655, 882.3125
517.6476, 879.8447
518.1297, 877.3979
518.6118, 875.7629
519.0939, 874.8538
519.5760, 873.4871
520.0582, 870.4715
520.5403, 867.8991
521.0224, 866.7672
521.5045, 867.6061
521.9866, 868.3621
522.4688, 869.2421
522.9509, 869.7958
523.4330, 869.2738
523.9151, 867.4066
524.3972, 865.9686
524.8793, 865.5222
525.3615, 865.5946
525.8436, 864.8634
526.3257, 863.3350
526.8078, 861.7711
527.2899, 859.9118
527.7720, 858.4438
528.2542, 859.7758
528.7363, 864.1178
529.2184, 867.7334
529.7005, 866.1912
530.1826, 862.3677
530.6647, 860.2486
531.1469, 861.8264
531.6290, 863.8775
532.1111, 865.4608
532.5932, 866.1759
533.0753, 865.2107
533.5574, 859.8257
534.0396, 855.1192
534.5217, 853.0891
535.0038, 853.9771
535.4859, 854.7386
535.9680, 855.4030
536.4501, 855.7945
536.9323, 855.8195
537.4144, 855.4767
537.8965, 854.7143
538.3786, 853.3997
538.8607, 851.8531
539.3428, 850.6430
539.8250, 849.8038
540.3071, 848.7573
540.7892, 847.3306
541.2713, 845.6268
541.7534, 843.9267
542.2355, 842.2278
542.7177, 840.4636
543.1998, 837.8146
543.6819, 835.3428
544.1640, 835.2098
544.6461, 837.6860
545.1282, 839.8922
545.6104, 839.9156
546.0925, 838.4886
546.5746, 836.3073
547.0567, 832.0406
547.5388, 829.1622
548.0209, 830.0226
548.5031, 833.0612
548.9852, 834.8566
549.4673, 833.6441
549.9494, 832.4621
550.4315, 832.2263
550.9136, 832.9304
551.3958, 832.9475
551.8779, 832.2302
552.3600, 830.9072
552.8421, 828.7117
553.3242, 825.4301
553.8063, 823.4778
554.2885, 823.2126
554.7706, 823.5753
555.2527, 823.0140
555.7348, 821.7243
556.2169, 821.0157
556.6990, 821.6985
557.1812, 822.6209
557.6633, 822.1771
558.1454, 820.5546
558.6275, 818.4501
559.1096, 815.1544
559.5917, 812.3193
560.0739, 811.8826
560.5560, 814.0081
561.0381, 815.4626
561.5202, 814.5399
562.0023, 812.6691
562.4844, 810.8776
562.9666, 809.1671
563.4487, 807.7380
563.9308, 806.1983
564.4129, 805.0891
564.8950, 805.5753
565.3771, 809.1122
565.8593, 810.8304
566.3414, 809.0236
566.8235, 804.6335
567.3056, 801.9337
567.7877, 801.1152
568.2698, 800.6767
568.7520, 799.8736
569.2341, 798.7305
569.7162, 797.2454
570.1983, 795.4196
570.6804, 793.4825
571.1625, 791.0593
571.6447, 788.8450
572.1268, 788.3156
572.6089, 791.0347
573.0910, 792.8705
573.5731, 789.3097
574.0552, 783.3597
574.5374, 780.2011
575.0195, 786.1324
575.5016, 790.5005
575.9837, 787.9573
576.4658, 779.2879
576.9479, 775.1260
577.4301, 779.4131
577.9122, 783.8684
578.3943, 784.7240
578.8764, 781.1189
579.3585, 778.7609
579.8406, 777.9440
580.3228, 777.7127
580.8049, 776.9519
581.2870, 775.7203
581.7691, 775.3495
582.2512, 776.4306
582.7333, 777.5712
583.2155, 776.3417
583.6976, 773.3649
584.1797, 770.5511
584.6617, 768.4517
585.1439, 767.1591
585.6260, 766.9171
586.1081, 767.6163
586.5902, 768.7286
587.0723, 771.4930
587.5544, 773.4308
588.0366, 772.6774
588.5187, 768.1651
589.0008, 764.8429
589.4829, 764.3088
589.9650, 764.5146
590.4471, 763.9231
590.9293, 761.9962
591.4114, 760.5512
591.8935, 759.7944
592.3756, 759.4714
592.8577, 759.2412
593.3398, 759.1315
593.8220, 758.6932
594.3041, 757.5899
594.7862, 756.2078
595.2683, 755.6072
595.7504, 755.6757
596.2325, 755.5537
596.7147, 754.4033
597.1968, 752.9353
597.6789, 751.9802
598.1610, 751.6077
598.6431, 751.3351
599.1252, 751.4767
599.6074, 751.2791
600.0895, 749.9890
600.5716, 746.2244
601.0537, 743.5578
601.5358, 742.9495
602.0179, 743.5803
602.5001, 744.6152
602.9822, 746.9371
603.4643, 747.8058
603.9464, 746.4130
604.4285, 743.3881
604.9106, 740.3812
605.3928, 737.2844
605.8749, 735.3303
606.3570, 735.5977
606.8391, 737.4465
607.3212, 738.9384
607.8033, 740.0665
608.2855, 740.8636
608.7676, 741.4666
609.2497, 741.6927
609.7318, 741.0817
610.2139, 739.3261
610.6960, 737.9324
611.1782, 738.7938
611.6603, 739.9788
612.1424, 739.4373
612.6245, 734.3073
613.1066, 730.3358
613.5887, 728.5422
614.0709, 728.3149
614.5530, 728.5817
615.0351, 729.7376
615.5172, 730.5428
615.9993, 730.6492
616.4814, 730.1412
616.9636, 729.3395
617.4457, 728.2095
617.9278, 727.2576
618.4099, 727.0461
618.8920, 727.2532
619.3741, 726.9970
619.8563, 726.2426
620.3384, 725.1825
620.8205, 724.2490
621.3026, 722.9773
621.7847, 720.4509
622.2668, 715.4891
622.7490, 711.9005
623.2311, 712.4267
623.7132, 714.8655
624.1953, 716.4020
624.6774, 715.2371
625.1595, 714.8112
625.6417, 716.1287
626.1238, 718.3636
626.6059, 719.1148
627.0880, 718.0287
627.5701, 716.5435
628.0522, 715.0284
628.5344, 713.5390
629.0165, 712.2299
629.4986, 711.0945
629.9807, 710.4969
630.4628, 711.0866
630.9449, 712.2803
631.4271, 713.0898
631.9092, 713.4402
632.3913, 713.2947
632.8734, 712.0894
633.3555, 710.6299
633.8376, 709.8021
634.3198, 710.3024
634.8019, 710.4484
635.2840, 709.7758
635.7661, 708.4923
636.2482, 706.8149
636.7303, 703.7935
637.2125, 701.9860
637.6946, 701.9307
638.1767, 703.2355
638.6588, 705.1823
639.1409, 708.0411
639.6230, 709.7923
640.1052, 709.3346
640.5873, 707.3168
641.0694, 705.3797
641.5515, 703.5544
642.0336, 702.2821
642.5157, 702.2553
642.9979, 702.7448
643.4800, 702.7358
643.9621, 702.1052
644.4442, 702.0740
644.9263, 704.4567
645.4084, 706.9612
645.8906, 707.6122
646.3727, 704.5564
646.8548, 702.4670
647.3369, 702.0496
647.8190, 702.3499
648.3011, 702.1050
648.7833, 700.8011
649.2654, 700.9047
649.7475, 703.6589
650.2296, 706.9179
650.7117, 705.1715
651.1938, 698.9192
651.6760, 694.3781
652.1581, 694.7118
652.6402, 697.7100
653.1223, 701.0482
653.6044, 704.3682
654.0865, 706.3226
654.5687, 705.0463
655.0508, 703.0056
655.5329, 701.7405
656.0150, 701.3997
656.4971, 701.1462
656.9792, 700.8072
657.4614, 700.4971
657.9435, 700.2568
658.4256, 700.0452
658.9077, 700.0507
659.3898, 700.3445
659.8719, 700.7147
660.3541, 701.1619
660.8362, 701.6566
661.3183, 701.0887
661.8004, 699.0597
662.2825, 696.7075
662.7646, 695.5023
663.2468, 695.1565
663.7289, 694.9641
664.2110, 694.6047
664.6931, 694.4136
665.1752, 694.7422
665.6573, 695.4277
666.1395, 696.0795
666.6216, 696.6962
667.1037, 697.1568
667.5858, 697.2694
668.0679, 697.1254
668.5500, 697.4147
669.0322, 698.5010
669.5143, 699.3174
669.9964, 699.5737
670.4785, 699.2263
670.9606, 696.8942
671.4427, 692.2485
671.9249, 688.7548
672.4070, 690.5520
672.8891, 695.2363
673.3712, 697.4339
673.8533, 696.4447
674.3354, 694.9879
674.8176, 694.9954
675.2997, 695.5886
675.7818, 695.8730
676.2639, 695.6962
676.7460, 695.1323
677.2281, 693.9708
677.7103, 692.5434
678.1924, 691.2011
678.6745, 689.7164
679.1566, 688.9022
679.6387, 689.0523
680.1208, 689.7589
680.6030, 690.1684
681.0851, 690.2726
681.5672, 690.3186
682.0493, 690.5092
682.5314, 690.5693
683.0135, 689.9758
683.4957, 688.8084
683.9778, 687.4230
684.4599, 685.1945
684.9420, 683.4680
685.4241, 683.5301
685.9063, 685.2587
686.3884, 686.5324
686.8705, 686.4789
687.3526, 686.1485
687.8347, 686.1350
688.3168, 686.6090
688.7990, 686.2182
689.2811, 684.8242
689.7632, 682.8947
690.2453, 680.2178
690.7274, 676.9633
691.2095, 676.0510
691.6917, 677.9362
692.1738, 680.1495
692.6559, 679.6404
693.1380, 677.7563
693.6201, 676.9113
694.1022, 678.0822
694.5844, 679.1309
695.0665, 678.8505
695.5486, 677.7045
696.0307, 676.2853
696.5128, 673.7909
696.9949, 672.2775
697.4771, 672.6248
697.9592, 673.7498
698.4413, 673.2526
698.9234, 670.5182
699.4055, 668.7497
699.8876, 669.2232
700.3698, 670.7979
700.8519, 670.1290
701.3340, 667.6141
701.8161, 665.9012
702.2982, 667.5501
702.7803, 669.9318
703.2625, 669.9523
703.7446, 668.0141
704.2267, 666.2406
704.7088, 665.8031
705.1909, 665.5607
705.6730, 664.7348
706.1552, 663.1889
706.6373, 662.7781
707.1194, 664.7786
707.6015, 666.1023
708.0836, 664.3412
708.5657, 659.1967
709.0479, 657.5811
709.5300, 660.0045
710.0121, 662.7246
710.4942, 661.6802
710.9763, 658.4216
711.4584, 656.8679
711.9406, 657.7689
712.4227, 658.3713
712.9048, 655.6948
713.3869, 652.1336
713.8690, 650.2795
714.3511, 651.8723
714.8333, 653.1389
715.3154, 653.2234
715.7975, 652.7559
716.2796, 652.4958
716.7617, 652.9269
717.2438, 651.9876
717.7260, 648.8508
718.2081, 645.2003
718.6902, 644.5105
719.1723, 646.3672
719.6544, 647.5436
720.1365, 646.8588
720.6187, 645.3127
721.1008, 643.3900
721.5829, 641.5264
722.0650, 640.7027
722.5471, 643.0598
723.0292, 644.8096
723.5114, 643.8463
723.9935, 640.7569
724.4756, 638.1697
724.9577, 635.8997
725.4398, 634.6971
725.9219, 635.4059
726.4041, 637.4230
726.8862, 636.6246
727.3683, 632.6861
727.8504, 629.6265
728.3325, 630.5317
728.8146, 633.6321
729.2968, 635.2895
729.7789, 635.5883
730.2610, 635.4847
730.7431, 635.4719
731.2252, 635.3708
731.7073, 635.2832
732.1895, 635.2914
732.6716, 634.1679
733.1537, 629.4186
733.6358, 625.5615
734.1179, 625.2835
734.6000, 629.5578
735.0822, 631.8141
735.5643, 631.9880
736.0464, 630.4181
736.5285, 625.8240
737.0106, 619.5510
737.4927, 617.5223
737.9749, 620.7401
738.4570, 624.0733
738.9391, 622.3358
739.4212, 618.5455
739.9033, 616.2188
740.3854, 616.7957
740.8676, 617.1661
741.3497, 615.8701
741.8318, 614.3111
742.3139, 614.0102
742.7960, 615.8116
743.2781, 616.6111
743.7603, 615.7705
744.2424, 614.5898
744.7245, 615.5161
745.2066, 618.1493
745.6887, 619.1553
746.1708, 617.4268
746.6530, 614.6052
747.1351, 611.9749
747.6172, 609.7003
748.0993, 608.1044
748.5814, 607.6612
749.0635, 607.5023
749.5457, 607.9039
750.0278, 608.2936
750.5099, 607.2760
750.9920, 602.8461
751.4741, 601.0881
751.9562, 604.3515
752.4384, 610.0164
752.9205, 610.7791
753.4026, 606.7959
753.8847, 603.2688
754.3668, 602.4543
754.8489, 602.9207
755.3311, 602.9822
755.8132, 602.6311
756.2953, 601.8427
756.7774, 600.3075
757.2595, 598.6166
757.7416, 596.6328
758.2238, 594.6159
758.7059, 593.8559
759.1880, 596.0131
759.6701, 596.7420
760.1522, 593.9680
760.6343, 588.7313
761.1165, 586.7054
761.5986, 588.0179
762.0807, 590.1227
762.5628, 592.0876
763.0449, 593.7314
763.5270, 595.0886
764.0092, 595.9782
764.4913, 595.4479
764.9734, 590.9781
765.4555, 586.6129
765.9376, 585.1366
766.4197, 586.6573
766.9019, 587.7043
767.3840, 588.2342
767.8661, 588.0251
768.3482, 586.6349
768.8303, 584.1486
769.3124, 583.3311
769.7946, 584.3606
770.2767, 584.9771
770.7588, 582.9709
771.2409, 579.6984
771.7230, 577.2330
772.2051, 575.7040
772.6873, 575.4886
773.1694, 578.2452
773.6515, 581.2845
774.1336, 582.7946
774.6157, 582.3801
775.0978, 581.6688
775.5800, 580.7634
776.0621, 579.5319
776.5442, 577.5720
777.0263, 574.7812
777.5084, 573.7122
777.9905, 574.5063
778.4727, 575.5670
778.9548, 575.2689
779.4369, 574.3951
779.9190, 574.4483
780.4011, 575.6234
780.8832, 576.7073
781.3654, 576.9061
781.8475, 576.8204
782.3296, 577.0551
782.8117, 578.1928
783.2938, 577.7223
783.7759, 574.2827
784.2581, 571.1457
784.7402, 571.3497
785.2223, 574.8987
785.7044, 577.0631
786.1865, 577.6395
786.6686, 576.8680
787.1508, 573.5008
787.6329, 569.4607
788.1150, 568.0588
788.5971, 570.1887
789.0792, 572.1721
789.5613, 572.4306
790.0435, 571.6724
790.5256, 570.2587
791.0077, 567.4980
791.4898, 566.1880
791.9719, 566.8356
792.4540, 568.0988
792.9362, 568.8318
793.4183, 569.0717
793.9004, 569.1761
794.3825, 569.2042
794.8646, 568.8768
795.3467, 567.3302
795.8289, 565.5211
796.3110, 564.9631
796.7931, 566.2939
797.2752, 567.1924
797.7573, 566.6196
798.2394, 565.4059
798.7216, 564.1701
799.2037, 562.5480
799.6858, 561.9240
800.1679, 562.4482
800.6500, 563.6218
801.1321, 565.3592
801.6143, 567.4114
802.0964, 568.4910
802.5785, 568.3818
803.0606, 567.9266
803.5427, 567.7682
804.0248, 567.7088
804.5070, 567.4223
804.9891, 566.5567
805.4712, 566.3750
805.9533, 568.1188
806.4354, 569.9254
806.9175, 570.3148
807.3997, 568.7996
807.8818, 568.0205
808.3639, 568.1224
808.8460, 568.6971
809.3281, 569.7296
809.8102, 570.8707
810.2924, 570.9730
810.7745, 569.7480
811.2566, 568.7928
811.7387, 569.3188
812.2208, 570.5793
812.7029, 571.9950
813.1851, 573.6727
813.6672, 574.9590
814.1493, 575.9823
814.6314, 576.4244
815.1135, 575.8400
815.5956, 574.1652
816.0778, 572.8098
816.5599, 571.8389
817.0420, 571.0474
817.5241, 569.5029
818.0062, 568.2947
818.4883, 569.6313
818.9705, 574.1695
819.4526, 578.0321
819.9347, 578.7527
820.4168, 578.5733
820.8989, 579.2156
821.3810, 581.1329
821.8632, 582.1140
822.3453, 581.8235
822.8274, 581.3381
823.3095, 581.5630
823.7916, 582.3699
824.2737, 583.3080
824.7559, 584.3731
825.2380, 584.6340
825.7201, 581.4337
826.2022, 578.2344
826.6843, 579.4506
827.1664, 586.2742
827.6486, 590.6588
828.1307, 588.5368
828.6128, 585.5880
829.0949, 584.2877
829.5770, 584.6830
830.0591, 586.6328
830.5413, 590.4962
831.0234, 593.6481
831.5055, 593.2263
831.9876, 591.0167
832.4697, 590.7922
832.9518, 592.5554
833.4340, 594.0409
833.9161, 592.7891
834.3982, 591.7641
834.8803, 593.2043
835.3624, 597.4616
835.8445, 600.6667
836.3267, 602.6810
836.8088, 603.8820
837.2909, 604.1374
837.7730, 603.6893
838.2551, 603.8705
838.7372, 604.6813
839.2194, 606.0430
839.7015, 608.9726
840.1836, 611.6679
840.6657, 611.7466
841.1478, 609.6738
841.6299, 608.4865
842.1121, 609.5348
842.5942, 611.2607
843.0763, 613.3136
843.5584, 615.5987
844.0405, 617.5657
844.5226, 619.1629
845.0048, 620.7621
845.4869, 622.7331
845.9690, 624.6215
846.4511, 625.4168
846.9332, 625.3301
847.4153, 625.0520
847.8975, 624.0695
848.3796, 623.8349
848.8617, 625.8152
849.3438, 629.1709
849.8259, 630.9922
850.3080, 630.5076
850.7902, 630.0493
851.2723, 629.9262
851.7544, 630.3625
852.2365, 632.1697
852.7186, 635.1300
853.2007, 637.9851
853.6829, 640.4437
854.1650, 642.3254
854.6471, 643.1407
855.1292, 643.3653
855.6113, 643.8007
856.0934, 644.3699
856.5756, 645.5935
857.0577, 647.9033
857.5398, 650.5485
858.0219, 652.6309
858.5040, 654.1601
858.9861, 654.8004
859.4683, 654.3526
859.9504, 653.5355
860.4325, 652.9184
860.9146, 652.6412
861.3967, 652.9196
861.8788, 653.7164
862.3610, 655.3039
862.8431, 658.7679
863.3252, 662.4407
863.8073, 664.6550
864.2894, 664.7299
864.7715, 665.7331
865.2537, 668.1153
865.7358, 670.1484
866.2179, 668.8972
866.7000, 666.0687
867.1821, 667.0150
867.6642, 672.4474
868.1464, 677.4433
868.6285, 678.6678
869.1106, 678.2780
869.5927, 677.5693
870.0748, 676.3776
870.5569, 676.8334
871.0391, 679.7806
871.5212, 682.7933
872.0033, 684.2900
872.4854, 684.5076
872.9675, 685.2045
873.4496, 686.3601
873.9318, 687.6845
874.4139, 689.4747
874.8960, 690.9525
875.3781, 691.2059
875.8602, 690.3658
876.3423, 689.6495
876.8245, 688.6898
877.3066, 688.7666
877.7887, 690.6820
878.2708, 693.8395
878.7529, 695.6988
879.2350, 696.2637
879.7172, 696.5175
880.1993, 696.6637
880.6814, 696.9639
881.1635, 698.0459
881.6456, 699.5430
882.1277, 700.5911
882.6099, 699.7719
883.0920, 699.7950
883.5741, 702.5490
884.0562, 706.0556
884.5383, 706.8996
885.0204, 704.5390
885.5026, 702.8406
885.9847, 702.3631
886.4668, 703.1307
886.9489, 706.6829
887.4310, 711.2322
887.9131, 712.5606
888.3953, 707.9529
888.8774, 704.8616
889.3595, 708.7224
889.8416, 714.3044
890.3237, 716.4012
890.8058, 713.0864
891.2880, 711.8408
891.7701, 713.1738
892.2522, 715.0090
892.7343, 715.2880
893.2164, 714.6114
893.6985, 714.6386
894.1807, 715.4932
894.6628, 716.4540
895.1449, 717.0756
895.6270, 717.6214
896.1091, 718.3485
896.5912, 719.2902
897.0734, 719.7776
897.5555, 719.5697
898.0376, 719.4848
898.5197, 720.1207
899.0018, 721.1137
899.4839, 721.1202
899.9661, 720.2427
900.4482, 719.0776
900.9303, 717.3410
901.4124, 716.0038
901.8945, 716.4163
902.3766, 717.8129
902.8588, 717.4954
903.3409, 713.6651
903.8230, 711.1676
904.3051, 711.3231
904.7872, 712.6998
905.2693, 712.5189
905.7515, 710.9446
906.2336, 708.8474
906.7157, 706.1352
907.1978, 703.8615
907.6799, 702.8818
908.1620, 702.8813
908.6442, 703.5775
909.1263, 706.3711
909.6084, 707.0977
910.0905, 704.8782
910.5726, 701.7025
911.0547, 699.0690
911.5369, 697.0087
912.0190, 695.9791
912.5011, 696.0549
912.9832, 695.8310
913.4653, 693.8922
913.9474, 691.2817
914.4296, 688.8026
914.9117, 686.5250
915.3938, 684.8340
915.8759, 683.9842
916.3580, 683.4040
916.8401, 682.8608
917.3223, 682.3834
917.8044, 682.6798
918.2865, 683.6173
918.7686, 683.1291
919.2507, 678.4380
919.7328, 673.2505
920.2150, 671.7733
920.6971, 672.6635
921.1792, 672.5438
921.6613, 669.6258
922.1434, 666.7194
922.6255, 663.7286
923.1077, 661.3932
923.5898, 661.7347
924.0719, 664.5226
924.5540, 665.6197
925.0361, 664.1082
925.5182, 661.0813
926.0004, 656.2584
926.4825, 651.2038
926.9646, 647.7555
927.4467, 646.4968
927.9288, 646.3167
928.4109, 648.0795
928.8931, 649.5137
929.3752, 648.8312
929.8573, 646.0862
930.3394, 643.7484
930.8215, 641.8399
931.3036, 640.3131
931.7858, 639.6758
932.2679, 639.0349
932.7500, 637.0521
933.2321, 634.0180
933.7142, 632.0981
934.1964, 633.1453
934.6785, 633.5674
935.1606, 632.4031
935.6427, 630.0516
936.1248, 627.5097
936.6069, 624.7853
937.0891, 622.4769
937.5712, 620.9637
938.0533, 619.4753
938.5354, 616.9992
939.0175, 614.1287
939.4996, 611.7839
939.9818, 610.6282
940.4639, 609.2428
940.9460, 607.2105
941.4281, 605.4432
941.9102, 605.2849
942.3923, 606.4815
942.8745, 606.4893
943.3566, 605.0963
943.8387, 603.5212
944.3208, 603.1354
944.8029, 602.7519
945.2850, 601.1431
945.7672, 598.1687
946.2493, 595.6396
946.7314, 593.5009
947.2135, 592.1661
947.6956, 592.0060
948.1777, 592.6759
948.6599, 593.1507
949.1420, 593.3803
949.6241, 593.0142
950.1062, 590.9744
950.5883, 589.3748
951.0704, 590.9777
951.5526, 593.7610
952.0347, 593.6495
952.5168, 588.2578
952.9989, 584.2821
953.4810, 582.2874
953.9631, 581.6868
954.4453, 582.6796
954.9274, 584.4940
955.4095, 583.7964
955.8916, 579.9180
956.3737, 576.9739
956.8558, 579.8562
957.3380, 583.0392
957.8201, 581.6144
958.3022, 574.9716
958.7843, 571.1221
959.2664, 570.5566
959.7485, 571.3305
960.2307, 573.4476
960.7128, 575.6100
961.1949, 573.8720
961.6770, 569.2985
962.1591, 565.6818
962.6412, 566.1227
963.1234, 566.3470
963.6055, 563.7091
964.0876, 560.1188
964.5697, 559.0897
965.0518, 561.5743
965.5339, 562.1083
966.0161, 559.7901
966.4982, 556.2679
966.9803, 552.6007
967.4624, 549.3958
967.9445, 547.9939
968.4266, 548.7745
968.9088, 549.6140
969.3909, 550.2262
969.8730, 550.1477
970.3551, 548.9932
970.8372, 546.8431
971.3193, 544.7454
971.8015, 542.6906
972.2836, 541.2625
972.7657, 541.2466
973.2478, 541.6456
973.7299, 541.5797
974.2120, 540.9693
974.6942, 539.6270
975.1763, 536.3397
975.6584, 533.9109
976.1405, 532.8351
976.6226, 532.5800
977.1047, 532.7558
977.5869, 533.2397
978.0690, 532.4690
978.5511, 530.1263
979.0332, 527.5558
979.5153, 525.3880
979.9974, 523.8411
980.4796, 523.2783
980.9617, 523.8910
981.4438, 524.3304
981.9259, 524.8167
982.4080, 524.5605
982.8901, 523.0098
983.3723, 520.5488
983.8544, 518.1472
984.3365, 515.8660
984.8186, 513.9625
985.3007, 512.6922
985.7828, 511.6798
986.2650, 510.9819
986.7471, 510.3162
987.2292, 509.1559
987.7113, 507.2154
988.1934, 506.0434
988.6755, 506.1015
989.1577, 505.6278
989.6398, 501.9695
990.1219, 496.7318
990.6040, 492.2730
991.0861, 488.8576
991.5682, 487.1895
992.0504, 490.0162
992.5325, 492.0677
993.0146, 490.7223
993.4967, 486.6495
993.9788, 483.1290
994.4609, 480.1674
994.9431, 478.1931
995.4252, 477.7344
995.9073, 477.8203
996.3894, 477.9057
996.8715, 477.6532
997.3536, 476.5024
997.8358, 473.3791
998.3179, 470.6292
998.8000, 467.9449
999.2821, 466.2063
999.7642, 467.2087
1000.246, 470.1156
1000.728, 470.0150
1001.211, 466.7497
1001.693, 463.0371
1002.175, 460.1124
1002.657, 457.7919
1003.139, 456.0410
1003.621, 454.8354
1004.103, 454.1024
1004.585, 453.9732
1005.068, 453.9272
1005.550, 454.0817
1006.032, 453.7339
1006.514, 450.7828
1006.996, 446.6835
1007.478, 444.5077
1007.960, 446.1133
1008.442, 447.1679
1008.924, 445.7531
1009.407, 443.8042
1009.889, 442.4421
1010.371, 441.6776
1010.853, 441.7008
1011.335, 442.5221
1011.817, 442.9222
1012.299, 441.9019
1012.781, 440.2487
1013.263, 438.6788
1013.746, 437.0840
1014.228, 434.9347
1014.710, 431.1701
1015.192, 428.7858
1015.674, 428.6357
1016.156, 429.3727
1016.638, 429.0740
1017.120, 427.9517
1017.603, 426.7506
1018.085, 425.6455
1018.567, 423.9267
1019.049, 420.2006
1019.531, 416.5454
1020.013, 414.4986
1020.495, 413.9884
1020.977, 413.2435
1021.459, 412.2822
1021.942, 410.8727
1022.424, 408.5078
1022.906, 406.1051
1023.388, 405.0865
1023.870, 404.9225
1024.352, 404.5746
1024.834, 403.6154
1025.316, 402.6186
1025.799, 401.6730
1026.281, 400.6801
1026.763, 399.4352
1027.245, 398.0320
1027.727, 397.0216
1028.209, 396.4180
1028.691, 395.7480
1029.173, 394.5321
1029.656, 393.2730
1030.138, 392.0558
1030.620, 391.0638
1031.102, 391.3336
1031.584, 393.5503
1032.066, 394.0526
1032.548, 391.5071
1033.030, 387.9013
1033.512, 386.0986
1033.995, 385.3474
1034.477, 384.4323
1034.959, 383.0783
1035.441, 381.5942
1035.923, 380.3779
1036.405, 378.6375
1036.887, 375.3346
1037.369, 370.9126
1037.851, 369.5482
1038.334, 370.9903
1038.816, 372.6384
1039.298, 373.6148
1039.780, 373.7328
1040.262, 372.4444
1040.744, 370.3156
1041.226, 368.4644
1041.708, 366.9482
1042.191, 365.7663
1042.673, 365.0612
1043.155, 364.0897
1043.637, 361.6612
1044.119, 358.5915
1044.601, 356.0347
1045.083, 354.0953
1045.565, 353.2143
1046.047, 355.2266
1046.530, 356.1872
1047.012, 354.2060
1047.494, 350.7458
1047.976, 350.4997
1048.458, 352.9358
1048.940, 353.6376
1049.422, 350.9566
1049.904, 347.6875
1050.386, 345.4490
1050.869, 343.9626
1051.351, 343.0934
1051.833, 342.9430
1052.315, 342.3173
1052.797, 340.9695
1053.279, 340.3072
1053.761, 342.5505
1054.243, 345.0516
1054.726, 342.0269
1055.208, 335.5083
1055.690, 330.8777
1056.172, 331.4286
1056.654, 332.2111
1057.136, 332.7539
1057.618, 332.9218
1058.100, 332.5620
1058.583, 331.6871
1059.065, 330.1278
1059.547, 327.8965
1060.029, 326.0145
1060.511, 325.1666
1060.993, 324.9586
1061.475, 325.6337
1061.957, 326.8094
1062.439, 326.9032
1062.922, 325.7711
1063.404, 324.4159
1063.886, 323.0254
1064.368, 321.7162
1064.850, 320.7991
1065.332, 319.9603
1065.814, 318.7022
1066.296, 316.7931
1066.778, 315.2153
1067.261, 314.5088
1067.743, 313.2645
1068.225, 310.2213
1068.707, 306.3437
1069.189, 304.8855
1069.671, 305.4976
1070.153, 307.0437
1070.635, 310.8253
1071.118, 312.9881
1071.600, 310.6773
1072.082, 306.7696
1072.564, 303.9586
1073.046, 302.3097
1073.528, 301.1937
1074.010, 300.5962
1074.492, 300.6222
1074.974, 302.1401
1075.457, 303.6620
1075.939, 304.0687
1076.421, 303.3312
1076.903, 301.3822
1077.385, 297.2575
1077.867, 294.8529
1078.349, 295.1916
1078.831, 296.4309
1079.313, 295.9605
1079.796, 294.7276
1080.278, 294.8787
1080.760, 296.8412
1081.242, 297.2537
1081.724, 292.9321
1082.206, 289.2928
1082.688, 288.6376
1083.170, 289.8487
1083.652, 289.1479
1084.135, 286.9606
1084.617, 285.4775
1085.099, 285.4674
1085.581, 286.1685
1086.063, 288.4153
1086.545, 290.1880
1087.027, 289.4561
1087.509, 285.8901
1087.992, 283.3369
1088.474, 281.8430
1088.956, 280.6891
1089.438, 279.2862
1089.920, 278.1360
1090.402, 277.8698
1090.884, 278.2176
1091.366, 278.6503
1091.849, 279.5088
1092.331, 279.5386
1092.813, 278.5791
1093.295, 277.0264
1093.777, 274.9914
1094.259, 272.7538
1094.741, 270.9259
1095.223, 269.4721
1095.705, 267.8935
1096.188, 264.7244
1096.670, 263.2244
1097.152, 264.9153
1097.634, 267.9274
1098.116, 268.8096
1098.598, 267.9089
1099.080, 267.1805
1099.562, 266.9973
1100.044, 266.4179
1100.527, 264.2114
1101.009, 261.9587
1101.491, 261.0978
1101.973, 261.2163
1102.455, 259.0784
1102.937, 254.5141
1103.419, 252.6561
1103.901, 256.2174
1104.384, 260.6435
1104.866, 261.4897
1105.348, 260.2949
1105.830, 258.7289
1106.312, 256.8843
1106.794, 255.1869
1107.276, 253.4879
1107.758, 252.4705
1108.240, 252.8812
1108.723, 253.9080
1109.205, 254.2697
1109.687, 254.0930
1110.169, 253.6785
1110.651, 252.0420
1111.133, 251.9845
1111.615, 254.6278
1112.097, 257.2942
1112.579, 257.4452
1113.062, 255.5951
1113.544, 253.1293
1114.026, 250.2811
1114.508, 248.2938
1114.990, 248.9007
1115.472, 249.1416
1115.954, 247.3876
1116.436, 245.0973
1116.919, 244.7762
1117.401, 246.2487
1117.883, 246.5501
1118.365, 245.3083
1118.847, 244.1162
1119.329, 244.3192
1119.811, 244.8513
1120.293, 244.8908
1120.776, 244.6054
1121.258, 244.9548
1121.740, 246.0870
1122.222, 246.4588
1122.704, 245.6938
1123.186, 244.1462
1123.668, 240.7477
1124.150, 237.6453
1124.632, 237.9441
1125.115, 242.6108
1125.597, 243.9503
1126.079, 240.9295
1126.561, 237.6698
1127.043, 235.4344
1127.525, 234.3814
1128.007, 235.4997
1128.489, 237.7239
1128.971, 239.2690
1129.454, 239.7191
1129.936, 239.3321
1130.418, 237.9772
1130.900, 236.2021
1131.382, 233.9149
1131.864, 231.6305
1132.346, 231.1527
1132.828, 231.9760
1133.311, 232.4993
1133.793, 231.4011
1134.275, 230.8894
1134.757, 231.9671
1135.239, 233.1937
1135.721, 233.4543
1136.203, 232.7691
1136.685, 230.6009
1137.167, 227.2494
1137.650, 225.3859
1138.132, 228.1270
1138.614, 230.9317
1139.096, 231.3148
1139.578, 230.7423
1140.060, 231.3240
1140.542, 233.0865
1141.024, 234.2614
1141.506, 234.7117
1141.989, 234.3331
1142.471, 232.6095
1142.953, 230.4388
1143.435, 228.2099
1143.917, 226.0679
1144.399, 224.0771
1144.881, 222.0501
1145.363, 222.0904
1145.846, 224.8819
1146.328, 227.7439
1146.810, 227.6856
1147.292, 226.5582
1147.774, 226.5448
1148.256, 227.6490
1148.738, 226.1287
1149.220, 220.7739
1149.703, 217.5766
1150.185, 218.6311
1150.667, 221.1871
1151.149, 221.7641
1151.631, 221.5018
1152.113, 222.2400
1152.595, 224.5716
1153.077, 225.2108
1153.559, 223.3927
1154.042, 221.3965
1154.524, 219.8611
1155.006, 219.0660
1155.488, 220.4078
1155.970, 222.6532
1156.452, 223.1701
1156.934, 220.4283
1157.416, 218.7392
1157.898, 218.9170
1158.381, 219.5784
1158.863, 220.2632
1159.345, 220.6996
1159.827, 219.3212
1160.309, 217.0546
1160.791, 216.5978
1161.273, 221.0329
1161.755, 223.4444
1162.238, 221.1774
1162.720, 218.3109
1163.202, 217.9638
1163.684, 219.6083
1164.166, 220.6016
1164.648, 221.0104
1165.130, 221.1003
1165.612, 221.3848
1166.094, 220.8224
1166.577, 218.3730
1167.059, 215.6314
1167.541, 214.1657
1168.023, 213.8567
1168.505, 213.8537
1168.987, 214.1059
1169.469, 214.4814
1169.951, 215.2026
1170.433, 215.6770
1170.916, 214.9286
1171.398, 214.2470
1171.880, 215.9942
1172.362, 219.9517
1172.844, 221.2124
1173.326, 219.4453
1173.808, 216.6467
1174.290, 212.3737
1174.773, 209.3666
1175.255, 210.0909
1175.737, 212.9180
1176.219, 215.2855
1176.701, 217.2183
1177.183, 217.0562
1177.665, 214.4382
1178.147, 212.4442
1178.630, 214.5536
1179.112, 217.1877
1179.594, 218.1067
1180.076, 217.4107
1180.558, 215.0691
1181.040, 210.8834
1181.522, 208.9582
1182.004, 210.3710
1182.486, 212.0366
1182.969, 210.6072
1183.451, 208.7596
1183.933, 208.8066
1184.415, 210.5759
1184.897, 212.5420
1185.379, 214.8701
1185.861, 215.3722
1186.343, 213.0315
1186.825, 210.6361
1187.308, 212.2070
1187.790, 214.1246
1188.272, 211.6679
1188.754, 204.9572
1189.236, 203.5669
1189.718, 208.1436
1190.200, 212.1560
1190.682, 213.5002
1191.165, 213.5763
1191.647, 213.4252
1192.129, 213.0928
1192.611, 212.4667
1193.093, 211.4985
1193.575, 211.3616
1194.057, 212.1709
1194.539, 213.0110
1195.021, 213.6796
1195.504, 213.8977
1195.986, 212.8299
1196.468, 211.3914
1196.950, 210.8663
1197.432, 211.5487
1197.914, 211.8969
1198.396, 211.9242
1198.878, 211.4872
1199.360, 210.3628
1199.843, 208.9883
1200.325, 207.2179
1200.807, 205.8458
1201.289, 206.3593
1201.771, 209.6152
1202.253, 211.2670
1202.735, 211.1786
1203.217, 210.3602
1203.700, 209.0591
1204.182, 207.7157
1204.664, 206.7750
1205.146, 206.1543
1205.628, 205.6851
1206.110, 205.1942
1206.592, 205.5102
1207.074, 206.8117
1207.557, 207.7705
1208.039, 207.2073
1208.521, 206.1759
1209.003, 205.5678
1209.485, 205.4111
1209.967, 205.9187
1210.449, 207.8445
1210.931, 207.7976
1211.413, 205.3596
1211.896, 203.6251
1212.378, 205.8204
1212.860, 208.8792
1213.342, 209.2071
1213.824, 208.0188
1214.306, 208.0219
1214.788, 210.4586
1215.270, 209.9056
1215.752, 205.7601
1216.235, 202.6361
1216.717, 205.4311
1217.199, 209.6163
1217.681, 210.9948
1218.163, 210.1875
1218.645, 208.5406
1219.127, 205.6752
1219.609, 204.3838
1220.092, 204.9775
1220.574, 205.1635
1221.056, 201.5588
1221.538, 198.1270
1222.020, 199.4193
1222.502, 203.5521
1222.984, 206.0935
1223.466, 206.9093
1223.948, 205.4942
1224.431, 201.5770
1224.913, 198.6165
1225.395, 200.5784
1225.877, 203.5557
1226.359, 204.2805
1226.841, 203.5187
1227.323, 203.3957
1227.805, 203.9482
1228.287, 205.1956
1228.770, 207.1895
1229.252, 208.8307
1229.734, 209.2092
1230.216, 208.9196
1230.698, 207.9599
1231.180, 206.7721
1231.662, 206.3791
1232.144, 206.8569
1232.627, 206.9856
1233.109, 206.6547
1233.591, 206.2762
1234.073, 206.3285
1234.555, 206.2648
1235.037, 205.1628
1235.519, 203.9352
1236.001, 204.6584
1236.484, 207.3283
1236.966, 208.7369
1237.448, 208.5875
1237.930, 207.2920
1238.412, 203.1186
1238.894, 200.0404
1239.376, 201.9290
1239.858, 199.1375
1240.340, 204.5858
1240.823, 199.8318
1241.305, 199.2457
1241.787, 203.4407
1242.269, 207.4313
1242.751, 208.8766
1243.233, 208.3261
1243.715, 204.8567
1244.197, 200.6900
1244.679, 199.3259
1245.162, 200.3455
1245.644, 202.1669
1246.126, 204.5178
1246.608, 205.4401
1247.090, 202.0340
1247.572, 199.4654
1248.054, 199.6048
1248.536, 200.9749
1249.019, 201.1956
1249.501, 200.7957
1249.983, 201.7186
1250.465, 203.9976
1250.947, 205.9632
1251.429, 207.5359
1251.911, 207.5853
1252.393, 205.3132
1252.875, 202.5375
1253.358, 201.8530
1253.840, 202.4817
1254.322, 202.7161
1254.804, 202.4627
1255.286, 202.2877
1255.768, 203.0020
1256.250, 202.3832
1256.732, 199.4075
1257.214, 196.7908
1257.697, 198.6732
1258.179, 202.6988
1258.661, 205.5075
1259.143, 206.8779
1259.625, 206.8432
1260.107, 204.6457
1260.589, 203.3680
1261.071, 203.5162
1261.554, 204.3715
1262.036, 205.8815
1262.518, 207.1411
1263.000, 206.9112
1263.482, 205.4062
1263.964, 203.8687
1264.446, 202.0305
1264.928, 202.0398
1265.411, 204.4646
1265.893, 206.3310
1266.375, 204.0161
1266.857, 200.8328
1267.339, 199.4982
1267.821, 199.7089
1268.303, 200.1088
1268.785, 200.7363
1269.267, 201.0491
1269.750, 200.9831
1270.232, 200.7687
1270.714, 200.3862
1271.196, 200.1097
1271.678, 200.1755
1272.160, 200.4434
1272.642, 200.7129
1273.124, 200.9889
1273.606, 201.3345
1274.089, 201.7553
1274.571, 202.2638
1275.053, 203.4721
1275.535, 203.9628
1276.017, 202.8768
1276.499, 201.2565
1276.981, 200.3558
1277.463, 200.1053
1277.946, 200.4021
1278.428, 201.1518
1278.910, 201.8036
1279.392, 201.9439
1279.874, 202.2494
1280.356, 203.0648
1280.838, 203.6431
1281.320, 202.4804
1281.802, 200.7837
1282.285, 201.8353
1282.767, 204.8778
1283.249, 205.9929
1283.731, 202.1958
1284.213, 200.4333
1284.695, 201.5439
1285.177, 203.5666
1285.659, 205.6075
1286.141, 206.8452
1286.624, 205.4485
1287.106, 202.4262
1287.588, 200.6483
1288.070, 200.4192
1288.552, 201.1408
1289.034, 202.8965
1289.516, 204.2789
1289.998, 204.2336
1290.481, 203.3571
1290.963, 200.6233
1291.445, 198.1769
1291.927, 200.1079
1292.409, 206.8995
1292.891, 208.6347
1293.373, 205.4392
1293.855, 202.6578
1294.338, 204.4959
1294.820, 206.3096
1295.302, 205.8348
1295.784, 204.3747
1296.266, 202.4426
1296.748, 200.3601
1297.230, 200.7793
1297.712, 203.2111
1298.194, 205.4271
1298.677, 206.7432
1299.159, 207.0626
1299.641, 206.3655
1300.123, 204.8987
1300.605, 201.9216
1301.087, 198.7786
1301.569, 199.3794
1302.051, 202.2790
1302.533, 204.2056
1303.016, 204.2827
##END=



