##NAMES=Gadolinite-(Y)
##RRUFFID=R070340
##IDEAL CHEMISTRY=Fe^2+^Be_2_Y^3+^_2_(SiO_4_)_2_O_2_
##LOCALITY=Ytterøya Mine, Røvika, Ytterøya (island), Levanger, Nord-Trøndelag, Norway
##OWNER=RRUFF
##SOURCE=Michael Scott
##DESCRIPTION=Black vitreous, metamict massive, a portion of the sample was heated, and is recorded under R080129.
##STATUS=The identification of this mineral has been made only by X-ray diffraction.
##URL=rruff.info/R070340
191.1239, 2425.554
191.6060, 2423.397
192.0881, 2415.710
192.5702, 2403.156
193.0524, 2390.237
193.5345, 2375.704
194.0166, 2364.079
194.4987, 2365.586
194.9808, 2381.249
195.4629, 2394.594
195.9451, 2395.636
196.4272, 2384.708
196.9093, 2378.794
197.3914, 2379.248
197.8735, 2383.425
198.3556, 2387.097
198.8378, 2390.436
199.3199, 2392.156
199.8020, 2390.238
200.2841, 2384.223
200.7662, 2382.051
201.2483, 2385.203
201.7305, 2391.506
202.2126, 2395.498
202.6947, 2396.638
203.1768, 2397.483
203.6589, 2400.879
204.1410, 2407.946
204.6232, 2408.721
205.1053, 2400.020
205.5874, 2385.467
206.0695, 2378.120
206.5516, 2380.586
207.0337, 2383.411
207.5159, 2378.002
207.9980, 2361.033
208.4801, 2352.579
208.9622, 2357.262
209.4443, 2372.296
209.9264, 2384.467
210.4086, 2393.812
210.8907, 2400.235
211.3728, 2403.756
211.8549, 2404.675
212.3370, 2401.164
212.8191, 2390.087
213.3013, 2373.341
213.7834, 2368.000
214.2655, 2380.269
214.7476, 2393.984
215.2297, 2392.500
215.7118, 2366.636
216.1940, 2351.567
216.6761, 2356.831
217.1582, 2381.245
217.6403, 2398.369
218.1224, 2406.813
218.6045, 2409.592
219.0867, 2409.203
219.5688, 2405.251
220.0509, 2398.708
220.5330, 2387.784
221.0151, 2372.058
221.4972, 2366.148
221.9794, 2375.401
222.4615, 2388.439
222.9436, 2392.587
223.4257, 2383.058
223.9078, 2374.236
224.3899, 2368.178
224.8721, 2364.419
225.3542, 2369.512
225.8363, 2389.723
226.3184, 2412.887
226.8005, 2424.336
227.2827, 2418.918
227.7648, 2411.235
228.2469, 2403.670
228.7290, 2395.606
229.2111, 2392.862
229.6932, 2397.762
230.1754, 2406.123
230.6575, 2413.419
231.1396, 2422.552
231.6217, 2425.066
232.1038, 2415.725
232.5859, 2390.198
233.0681, 2376.652
233.5502, 2379.582
234.0323, 2391.242
234.5144, 2400.963
234.9965, 2408.696
235.4786, 2414.397
235.9608, 2417.636
236.4429, 2417.700
236.9250, 2418.427
237.4071, 2419.819
237.8892, 2421.876
238.3713, 2424.709
238.8535, 2428.864
239.3356, 2432.914
239.8177, 2436.754
240.2998, 2441.003
240.7819, 2442.292
241.2640, 2438.250
241.7462, 2432.647
242.2283, 2432.438
242.7104, 2441.288
243.1925, 2449.506
243.6746, 2453.795
244.1567, 2453.110
244.6389, 2451.982
245.1210, 2450.206
245.6031, 2448.116
246.0852, 2445.760
246.5673, 2440.727
247.0494, 2439.604
247.5316, 2445.964
248.0137, 2463.484
248.4958, 2476.106
248.9779, 2483.063
249.4600, 2485.468
249.9421, 2484.938
250.4243, 2480.444
250.9064, 2474.831
251.3885, 2468.305
251.8706, 2459.036
252.3527, 2455.283
252.8348, 2458.877
253.3170, 2466.827
253.7991, 2474.096
254.2812, 2481.916
254.7633, 2486.509
255.2454, 2485.067
255.7275, 2474.381
256.2097, 2469.795
256.6918, 2472.838
257.1739, 2480.970
257.6560, 2490.240
258.1381, 2502.136
258.6202, 2512.113
259.1024, 2518.204
259.5845, 2519.405
260.0666, 2521.032
260.5487, 2524.716
261.0308, 2527.570
261.5129, 2522.419
261.9951, 2503.877
262.4772, 2490.391
262.9593, 2491.973
263.4414, 2513.972
263.9235, 2524.420
264.4056, 2518.463
264.8878, 2505.579
265.3699, 2503.070
265.8520, 2514.280
266.3341, 2526.248
266.8162, 2533.496
267.2983, 2534.744
267.7805, 2539.680
268.2626, 2550.157
268.7447, 2562.216
269.2268, 2569.563
269.7089, 2572.229
270.1910, 2569.974
270.6732, 2559.490
271.1553, 2538.872
271.6374, 2530.777
272.1195, 2538.688
272.6016, 2554.025
273.0837, 2562.662
273.5659, 2563.512
274.0480, 2563.407
274.5301, 2563.301
275.0122, 2562.971
275.4943, 2572.257
275.9764, 2595.445
276.4586, 2620.184
276.9407, 2624.424
277.4228, 2605.314
277.9049, 2590.169
278.3870, 2592.661
278.8691, 2611.704
279.3513, 2621.187
279.8334, 2618.980
280.3155, 2612.694
280.7976, 2613.276
281.2798, 2621.072
281.7619, 2627.477
282.2440, 2627.884
282.7261, 2623.465
283.2082, 2623.891
283.6903, 2630.091
284.1725, 2637.719
284.6546, 2640.004
285.1367, 2637.244
285.6188, 2638.025
286.1009, 2648.394
286.5830, 2665.052
287.0652, 2673.414
287.5473, 2672.793
288.0294, 2667.562
288.5115, 2658.935
288.9936, 2647.996
289.4757, 2644.037
289.9579, 2653.344
290.4400, 2671.025
290.9221, 2683.844
291.4042, 2691.556
291.8863, 2697.465
292.3684, 2706.403
292.8506, 2716.878
293.3327, 2722.159
293.8148, 2715.975
294.2969, 2705.716
294.7790, 2709.455
295.2611, 2727.239
295.7433, 2741.837
296.2254, 2731.312
296.7075, 2704.922
297.1896, 2689.212
297.6717, 2694.387
298.1538, 2711.509
298.6360, 2730.424
299.1181, 2750.879
299.6002, 2767.859
300.0823, 2779.843
300.5644, 2785.534
301.0465, 2781.190
301.5287, 2758.893
302.0108, 2734.904
302.4929, 2729.344
302.9750, 2739.827
303.4571, 2752.968
303.9392, 2761.745
304.4214, 2767.177
304.9035, 2770.703
305.3856, 2772.271
305.8677, 2772.494
306.3498, 2769.604
306.8319, 2765.106
307.3141, 2764.316
307.7962, 2773.491
308.2783, 2786.448
308.7604, 2797.816
309.2425, 2807.247
309.7246, 2812.805
310.2068, 2809.695
310.6889, 2801.296
311.1710, 2796.349
311.6531, 2800.945
312.1352, 2809.457
312.6173, 2819.395
313.0995, 2833.007
313.5816, 2839.909
314.0637, 2823.803
314.5458, 2798.281
315.0279, 2788.742
315.5100, 2826.416
315.9922, 2866.437
316.4743, 2882.691
316.9564, 2866.529
317.4385, 2850.012
317.9206, 2839.867
318.4027, 2836.558
318.8849, 2840.730
319.3670, 2867.106
319.8491, 2888.203
320.3312, 2890.114
320.8133, 2867.593
321.2954, 2851.975
321.7776, 2853.652
322.2597, 2863.420
322.7418, 2871.473
323.2239, 2870.276
323.7060, 2873.354
324.1881, 2887.540
324.6703, 2914.584
325.1524, 2932.238
325.6345, 2923.784
326.1166, 2934.600
326.5987, 2940.977
327.0808, 2943.154
327.5630, 2928.551
328.0451, 2935.616
328.5272, 2933.998
329.0093, 2932.023
329.4914, 2942.138
329.9735, 2929.976
330.4557, 2939.898
330.9378, 2941.005
331.4199, 2946.147
331.9020, 2942.552
332.3841, 2941.655
332.8662, 2949.498
333.3484, 2952.502
333.8305, 2947.901
334.3126, 2953.299
334.7947, 2940.832
335.2768, 2944.042
335.7589, 2954.016
336.2411, 2949.854
336.7232, 2955.412
337.2053, 2957.268
337.6874, 2942.301
338.1695, 2956.591
338.6516, 2963.291
339.1338, 2971.289
339.6159, 2972.272
340.0980, 2970.813
340.5801, 2976.142
341.0622, 2989.426
341.5443, 2999.170
342.0265, 2998.637
342.5086, 2989.259
342.9907, 2985.185
343.4728, 2987.425
343.9549, 2991.145
344.4370, 2988.900
344.9192, 2981.577
345.4013, 2977.755
345.8834, 2982.098
346.3655, 2991.686
346.8476, 2999.232
347.3297, 3004.706
347.8119, 3008.453
348.2940, 3010.565
348.7761, 3011.125
349.2582, 3009.740
349.7403, 3002.944
350.2225, 2997.562
350.7046, 3007.000
351.1867, 3029.359
351.6688, 3049.320
352.1509, 3056.404
352.6331, 3053.952
353.1152, 3045.382
353.5973, 3027.048
354.0794, 3011.105
354.5615, 3009.074
355.0436, 3018.507
355.5258, 3031.954
356.0079, 3053.754
356.4900, 3073.099
356.9721, 3077.901
357.4542, 3061.405
357.9363, 3046.994
358.4185, 3050.689
358.9006, 3065.037
359.3827, 3077.146
359.8648, 3080.542
360.3469, 3081.553
360.8290, 3084.324
361.3112, 3090.006
361.7933, 3091.496
362.2754, 3078.348
362.7575, 3062.918
363.2396, 3058.619
363.7217, 3086.932
364.2039, 3108.283
364.6860, 3107.505
365.1681, 3084.109
365.6502, 3068.929
366.1323, 3070.817
366.6144, 3078.637
367.0966, 3084.796
367.5787, 3089.631
368.0608, 3091.961
368.5429, 3090.996
369.0250, 3087.221
369.5071, 3082.816
369.9893, 3074.391
370.4714, 3069.258
370.9535, 3071.698
371.4356, 3086.303
371.9177, 3098.278
372.3998, 3108.512
372.8820, 3115.484
373.3641, 3113.761
373.8462, 3098.319
374.3283, 3087.331
374.8104, 3090.628
375.2925, 3110.159
375.7747, 3120.534
376.2568, 3119.715
376.7389, 3113.961
377.2210, 3112.039
377.7031, 3114.351
378.1852, 3114.151
378.6674, 3105.461
379.1495, 3092.788
379.6316, 3100.023
380.1137, 3129.393
380.5958, 3157.941
381.0779, 3159.886
381.5601, 3140.631
382.0422, 3126.986
382.5243, 3125.852
383.0064, 3131.731
383.4885, 3136.186
383.9706, 3139.476
384.4528, 3143.215
384.9349, 3153.290
385.4170, 3163.358
385.8991, 3160.466
386.3812, 3138.553
386.8633, 3117.006
387.3455, 3117.635
387.8276, 3132.634
388.3097, 3144.175
388.7918, 3139.500
389.2739, 3130.067
389.7560, 3124.413
390.2382, 3123.280
390.7203, 3124.908
391.2024, 3128.665
391.6845, 3134.531
392.1666, 3142.556
392.6487, 3162.699
393.1309, 3175.623
393.6130, 3168.393
394.0951, 3143.069
394.5772, 3124.100
395.0593, 3119.716
395.5414, 3122.343
396.0236, 3127.332
396.5057, 3135.842
396.9878, 3144.583
397.4699, 3157.895
397.9520, 3171.794
398.4341, 3173.580
398.9163, 3151.887
399.3984, 3129.800
399.8805, 3114.808
400.3626, 3106.805
400.8447, 3106.825
401.3268, 3118.805
401.8090, 3135.903
402.2911, 3149.279
402.7732, 3159.071
403.2553, 3164.168
403.7374, 3162.312
404.2195, 3154.155
404.7017, 3152.506
405.1838, 3159.248
405.6659, 3167.435
406.1480, 3171.821
406.6301, 3172.462
407.1122, 3166.814
407.5944, 3150.750
408.0765, 3131.903
408.5586, 3131.789
409.0407, 3150.034
409.5228, 3168.136
410.0049, 3171.431
410.4871, 3164.959
410.9692, 3163.352
411.4513, 3168.831
411.9334, 3176.183
412.4155, 3178.944
412.8976, 3178.704
413.3798, 3179.924
413.8619, 3188.223
414.3440, 3196.972
414.8261, 3197.919
415.3082, 3190.940
415.7903, 3184.348
416.2725, 3186.243
416.7546, 3190.509
417.2367, 3190.215
417.7188, 3181.044
418.2009, 3169.237
418.6830, 3151.731
419.1652, 3132.284
419.6473, 3125.376
420.1294, 3148.008
420.6115, 3175.358
421.0937, 3194.282
421.5758, 3199.805
422.0579, 3203.056
422.5400, 3205.695
423.0221, 3206.897
423.5042, 3205.307
423.9864, 3198.469
424.4685, 3191.589
424.9506, 3185.722
425.4327, 3181.029
425.9148, 3176.087
426.3969, 3169.512
426.8791, 3164.265
427.3612, 3163.156
427.8433, 3167.056
428.3254, 3172.577
428.8075, 3180.151
429.2896, 3188.687
429.7718, 3194.019
430.2539, 3195.696
430.7360, 3196.677
431.2181, 3198.811
431.7002, 3201.969
432.1823, 3203.608
432.6645, 3202.885
433.1466, 3203.044
433.6287, 3211.352
434.1108, 3225.654
434.5929, 3235.054
435.0750, 3232.364
435.5572, 3223.034
436.0393, 3215.184
436.5214, 3208.877
437.0035, 3205.447
437.4856, 3208.497
437.9677, 3214.348
438.4499, 3217.451
438.9320, 3214.187
439.4141, 3211.627
439.8962, 3218.432
440.3783, 3230.199
440.8604, 3235.768
441.3426, 3226.112
441.8247, 3211.893
442.3068, 3195.225
442.7889, 3172.573
443.2710, 3165.916
443.7531, 3201.597
444.2353, 3248.263
444.7174, 3271.857
445.1995, 3239.609
445.6816, 3214.271
446.1637, 3212.144
446.6458, 3230.149
447.1280, 3233.912
447.6101, 3211.125
448.0922, 3187.619
448.5743, 3178.636
449.0564, 3191.253
449.5385, 3199.228
450.0207, 3200.558
450.5028, 3198.150
450.9849, 3196.079
451.4670, 3193.390
451.9491, 3196.352
452.4312, 3212.142
452.9134, 3237.456
453.3955, 3243.904
453.8776, 3229.287
454.3597, 3211.519
454.8418, 3209.192
455.3239, 3219.042
455.8061, 3227.521
456.2882, 3231.032
456.7703, 3225.375
457.2524, 3235.471
457.7345, 3241.128
458.2166, 3242.585
458.6988, 3227.263
459.1809, 3233.608
459.6630, 3231.270
460.1451, 3228.575
460.6272, 3237.970
461.1093, 3225.088
461.5915, 3234.291
462.0736, 3234.678
462.5557, 3239.100
463.0378, 3234.784
463.5199, 3233.168
464.0020, 3240.291
464.4842, 3242.575
464.9663, 3237.254
465.4484, 3241.933
465.9305, 3228.745
466.4126, 3231.236
466.8947, 3240.490
467.3769, 3235.608
467.8590, 3240.446
468.3411, 3241.583
468.8232, 3225.896
469.3053, 3239.466
469.7874, 3240.384
470.2696, 3220.686
470.7517, 3231.087
471.2338, 3237.334
471.7159, 3239.649
472.1980, 3226.258
472.6801, 3233.148
473.1623, 3231.910
473.6444, 3230.339
474.1265, 3240.084
474.6086, 3228.977
475.0907, 3238.543
475.5728, 3239.856
476.0550, 3244.946
476.5371, 3241.858
477.0192, 3241.296
477.5013, 3248.915
477.9834, 3252.004
478.4655, 3247.974
478.9477, 3253.305
479.4298, 3241.912
479.9119, 3245.194
480.3940, 3254.807
480.8761, 3251.189
481.3582, 3256.669
481.8404, 3258.684
482.3225, 3244.951
482.8046, 3258.605
483.2867, 3260.415
483.7688, 3250.064
484.2509, 3262.779
484.7331, 3254.105
485.2152, 3253.065
485.6973, 3257.771
486.1794, 3256.488
486.6615, 3264.647
487.1436, 3263.710
487.6258, 3261.959
488.1079, 3263.756
488.5900, 3255.501
489.0721, 3265.894
489.5542, 3263.549
490.0363, 3267.535
490.5185, 3272.957
491.0006, 3267.390
491.4827, 3273.457
491.9648, 3261.482
492.4470, 3264.603
492.9291, 3266.099
493.4112, 3277.243
493.8933, 3265.356
494.3754, 3268.058
494.8575, 3276.971
495.3397, 3277.193
495.8218, 3281.049
496.3039, 3274.147
496.7860, 3277.351
497.2681, 3267.411
497.7502, 3256.194
498.2324, 3248.061
498.7145, 3243.660
499.1966, 3243.725
499.6787, 3251.194
500.1608, 3260.487
500.6429, 3272.939
501.1251, 3287.798
501.6072, 3294.337
502.0893, 3284.119
502.5714, 3272.347
503.0535, 3265.947
503.5356, 3266.366
504.0178, 3269.002
504.4999, 3275.104
504.9820, 3282.263
505.4641, 3287.522
505.9462, 3291.257
506.4283, 3290.710
506.9105, 3282.845
507.3926, 3270.587
507.8747, 3266.468
508.3568, 3270.837
508.8389, 3276.851
509.3210, 3279.074
509.8032, 3279.053
510.2853, 3282.543
510.7674, 3291.763
511.2495, 3298.051
511.7316, 3287.355
512.2137, 3267.381
512.6959, 3253.958
513.1780, 3260.229
513.6601, 3269.656
514.1422, 3270.565
514.6243, 3264.236
515.1064, 3260.189
515.5886, 3267.266
516.0707, 3274.193
516.5528, 3273.214
517.0349, 3257.222
517.5170, 3246.145
517.9991, 3242.285
518.4813, 3244.252
518.9634, 3251.152
519.4455, 3267.455
519.9276, 3281.236
520.4097, 3291.366
520.8918, 3297.190
521.3740, 3294.058
521.8561, 3279.873
522.3382, 3263.670
522.8203, 3249.280
523.3024, 3237.081
523.7845, 3232.713
524.2667, 3237.667
524.7488, 3246.001
525.2309, 3250.181
525.7130, 3251.612
526.1951, 3255.290
526.6772, 3265.521
527.1594, 3276.450
527.6415, 3284.886
528.1236, 3289.250
528.6057, 3282.533
529.0878, 3242.346
529.5699, 3201.625
530.0521, 3189.106
530.5342, 3215.094
531.0163, 3238.247
531.4984, 3242.844
531.9805, 3239.162
532.4626, 3238.188
532.9448, 3246.862
533.4269, 3251.657
533.9090, 3250.519
534.3911, 3244.350
534.8732, 3235.850
535.3553, 3221.402
535.8375, 3211.326
536.3196, 3211.968
536.8017, 3224.075
537.2838, 3230.916
537.7659, 3231.895
538.2480, 3229.766
538.7302, 3226.368
539.2123, 3222.024
539.6944, 3219.684
540.1765, 3221.276
540.6586, 3222.772
541.1407, 3214.048
541.6229, 3199.195
542.1050, 3192.702
542.5871, 3213.323
543.0692, 3238.601
543.5513, 3247.514
544.0334, 3238.955
544.5156, 3226.900
544.9977, 3211.741
545.4798, 3199.306
545.9619, 3194.840
546.4440, 3207.745
546.9261, 3216.096
547.4083, 3213.513
547.8904, 3205.166
548.3725, 3200.865
548.8546, 3206.052
549.3367, 3205.996
549.8188, 3194.554
550.3010, 3173.278
550.7831, 3160.601
551.2652, 3157.696
551.7473, 3159.492
552.2294, 3165.369
552.7115, 3174.353
553.1937, 3174.377
553.6758, 3162.617
554.1579, 3149.666
554.6400, 3154.386
555.1221, 3169.164
555.6042, 3171.287
556.0864, 3138.982
556.5685, 3104.412
557.0506, 3103.961
557.5327, 3129.220
558.0148, 3149.014
558.4969, 3144.763
558.9791, 3132.901
559.4612, 3121.524
559.9433, 3110.459
560.4254, 3105.597
560.9075, 3114.390
561.3896, 3126.308
561.8718, 3132.645
562.3539, 3135.957
562.8360, 3128.111
563.3181, 3101.529
563.8002, 3066.841
564.2823, 3050.251
564.7645, 3054.723
565.2466, 3065.088
565.7287, 3079.750
566.2108, 3095.738
566.6929, 3093.983
567.1750, 3073.701
567.6572, 3053.731
568.1393, 3053.474
568.6214, 3064.499
569.1035, 3069.145
569.5856, 3063.128
570.0677, 3056.998
570.5499, 3062.464
571.0320, 3072.966
571.5141, 3078.163
571.9962, 3071.544
572.4783, 3061.628
572.9604, 3048.123
573.4426, 3032.941
573.9247, 3025.194
574.4068, 3036.110
574.8889, 3045.870
575.3710, 3045.774
575.8531, 3032.948
576.3353, 3025.427
576.8174, 3024.229
577.2995, 3026.933
577.7816, 3033.176
578.2637, 3043.779
578.7458, 3048.112
579.2280, 3043.493
579.7101, 3034.054
580.1922, 3026.268
580.6743, 3019.993
581.1564, 3014.444
581.6385, 3009.310
582.1207, 3004.654
582.6028, 3001.004
583.0849, 2998.226
583.5670, 2995.006
584.0491, 2989.752
584.5313, 2984.276
585.0134, 2979.566
585.4955, 2975.084
585.9776, 2973.663
586.4597, 2979.007
586.9418, 2986.571
587.4240, 2991.066
587.9061, 2989.524
588.3882, 2989.799
588.8703, 2996.155
589.3524, 3003.933
589.8345, 2995.979
590.3167, 2966.330
590.7988, 2944.126
591.2809, 2946.806
591.7630, 2968.197
592.2451, 2976.021
592.7272, 2969.908
593.2094, 2959.253
593.6915, 2950.871
594.1736, 2943.709
594.6557, 2934.093
595.1378, 2919.771
595.6199, 2910.970
596.1021, 2923.630
596.5842, 2944.540
597.0663, 2954.893
597.5485, 2933.922
598.0306, 2916.570
598.5127, 2917.686
598.9948, 2932.653
599.4769, 2940.821
599.9590, 2935.449
600.4412, 2930.044
600.9233, 2931.170
601.4054, 2940.059
601.8875, 2933.630
602.3696, 2905.746
602.8517, 2877.710
603.3339, 2872.347
603.8160, 2887.257
604.2981, 2890.062
604.7802, 2875.039
605.2623, 2854.760
605.7444, 2842.348
606.2266, 2837.551
606.7087, 2840.510
607.1908, 2858.558
607.6729, 2876.685
608.1550, 2880.874
608.6371, 2874.928
609.1193, 2871.349
609.6014, 2882.235
610.0835, 2890.549
610.5656, 2886.799
611.0477, 2868.729
611.5298, 2851.665
612.0120, 2834.089
612.4941, 2819.848
612.9762, 2812.268
613.4583, 2813.343
613.9404, 2813.802
614.4225, 2812.864
614.9047, 2811.995
615.3868, 2813.930
615.8689, 2818.406
616.3510, 2821.883
616.8331, 2823.788
617.3152, 2823.573
617.7974, 2817.189
618.2795, 2807.060
618.7616, 2802.201
619.2437, 2813.047
619.7258, 2826.980
620.2079, 2835.779
620.6901, 2838.862
621.1722, 2837.177
621.6543, 2830.297
622.1364, 2819.240
622.6185, 2803.299
623.1006, 2774.064
623.5828, 2759.180
624.0649, 2765.664
624.5470, 2780.064
625.0291, 2786.382
625.5112, 2783.275
625.9933, 2779.275
626.4755, 2776.074
626.9576, 2772.648
627.4397, 2765.979
627.9218, 2756.587
628.4039, 2748.454
628.8860, 2741.631
629.3682, 2738.194
629.8503, 2744.629
630.3324, 2759.208
630.8145, 2768.906
631.2966, 2757.851
631.7787, 2744.869
632.2609, 2745.252
632.7430, 2765.727
633.2251, 2780.600
633.7072, 2777.766
634.1893, 2771.623
634.6714, 2775.547
635.1536, 2801.261
635.6357, 2809.380
636.1178, 2789.749
636.5999, 2758.911
637.0820, 2748.979
637.5641, 2760.906
638.0463, 2772.148
638.5284, 2776.472
639.0105, 2774.761
639.4926, 2765.074
639.9747, 2749.246
640.4568, 2738.122
640.9390, 2742.877
641.4211, 2752.232
641.9032, 2755.629
642.3853, 2752.318
642.8674, 2748.330
643.3495, 2744.090
643.8317, 2741.344
644.3138, 2741.752
644.7959, 2750.045
645.2780, 2752.217
645.7601, 2743.771
646.2422, 2733.159
646.7244, 2730.931
647.2065, 2738.849
647.6886, 2746.779
648.1707, 2754.375
648.6528, 2759.024
649.1349, 2749.294
649.6171, 2728.479
650.0992, 2719.441
650.5813, 2747.146
651.0634, 2783.569
651.5455, 2791.761
652.0276, 2776.193
652.5098, 2760.440
652.9919, 2760.808
653.4740, 2762.025
653.9561, 2752.091
654.4382, 2726.565
654.9203, 2710.275
655.4025, 2710.739
655.8846, 2717.649
656.3667, 2725.516
656.8488, 2736.978
657.3309, 2740.612
657.8130, 2733.892
658.2952, 2723.225
658.7773, 2716.139
659.2594, 2712.675
659.7415, 2714.727
660.2236, 2725.014
660.7057, 2737.331
661.1879, 2741.521
661.6700, 2740.243
662.1521, 2740.860
662.6342, 2755.337
663.1163, 2765.590
663.5984, 2753.433
664.0806, 2722.666
664.5627, 2705.412
665.0448, 2726.172
665.5269, 2747.125
666.0090, 2751.162
666.4911, 2735.467
666.9733, 2723.675
667.4554, 2716.854
667.9375, 2711.813
668.4196, 2704.363
668.9017, 2694.799
669.3839, 2694.979
669.8660, 2708.047
670.3481, 2720.990
670.8302, 2714.858
671.3123, 2697.462
671.7944, 2685.698
672.2766, 2686.192
672.7587, 2691.566
673.2408, 2701.577
673.7229, 2712.469
674.2050, 2717.105
674.6871, 2706.283
675.1693, 2696.727
675.6514, 2691.893
676.1335, 2691.734
676.6156, 2697.804
677.0977, 2715.140
677.5798, 2727.054
678.0620, 2723.354
678.5441, 2706.238
679.0262, 2698.962
679.5083, 2702.078
679.9904, 2704.964
680.4725, 2698.691
680.9547, 2686.554
681.4368, 2672.577
681.9189, 2656.708
682.4010, 2645.091
682.8831, 2641.518
683.3652, 2644.604
683.8474, 2653.949
684.3295, 2681.309
684.8116, 2696.073
685.2937, 2687.591
685.7758, 2666.908
686.2579, 2646.898
686.7401, 2626.107
687.2222, 2609.470
687.7043, 2596.119
688.1864, 2589.286
688.6685, 2603.248
689.1506, 2636.251
689.6328, 2659.637
690.1149, 2649.894
690.5970, 2630.224
691.0791, 2644.686
691.5612, 2684.800
692.0433, 2707.206
692.5255, 2667.837
693.0076, 2620.418
693.4897, 2601.069
693.9718, 2615.213
694.4539, 2624.188
694.9360, 2616.150
695.4182, 2607.770
695.9003, 2610.447
696.3824, 2630.978
696.8645, 2630.025
697.3466, 2600.671
697.8287, 2567.992
698.3109, 2561.301
698.7930, 2576.059
699.2751, 2589.633
699.7572, 2599.345
700.2393, 2602.167
700.7214, 2587.278
701.2036, 2564.854
701.6857, 2551.899
702.1678, 2558.990
702.6499, 2571.296
703.1320, 2590.648
703.6141, 2611.015
704.0963, 2616.450
704.5784, 2593.035
705.0605, 2575.563
705.5426, 2573.212
706.0247, 2582.331
706.5068, 2587.364
706.9890, 2588.270
707.4711, 2585.712
707.9532, 2577.262
708.4353, 2566.200
708.9174, 2562.951
709.3995, 2566.625
709.8817, 2568.637
710.3638, 2559.506
710.8459, 2548.422
711.3280, 2543.304
711.8101, 2545.222
712.2922, 2550.686
712.7744, 2565.900
713.2565, 2578.964
713.7386, 2581.687
714.2207, 2569.059
714.7028, 2558.937
715.1849, 2551.704
715.6671, 2546.148
716.1492, 2541.182
716.6313, 2536.744
717.1134, 2530.767
717.5955, 2521.827
718.0776, 2514.913
718.5598, 2518.736
719.0419, 2528.784
719.5240, 2536.375
720.0061, 2539.467
720.4882, 2538.217
720.9703, 2530.987
721.4525, 2519.580
721.9346, 2507.968
722.4167, 2490.588
722.8988, 2481.174
723.3809, 2485.283
723.8630, 2498.970
724.3452, 2506.239
724.8273, 2506.394
725.3094, 2504.937
725.7915, 2502.918
726.2736, 2501.656
726.7557, 2506.921
727.2379, 2517.573
727.7200, 2524.648
728.2021, 2520.741
728.6842, 2511.948
729.1663, 2501.591
729.6484, 2489.898
730.1306, 2481.687
730.6127, 2476.552
731.0948, 2477.058
731.5769, 2485.941
732.0590, 2507.330
732.5411, 2519.627
733.0233, 2520.935
733.5054, 2517.404
733.9875, 2514.176
734.4696, 2511.066
734.9517, 2506.352
735.4338, 2499.438
735.9160, 2493.203
736.3981, 2492.321
736.8802, 2493.454
737.3623, 2491.295
737.8444, 2481.925
738.3266, 2473.964
738.8087, 2468.981
739.2908, 2467.902
739.7729, 2472.941
740.2551, 2493.396
740.7372, 2502.291
741.2193, 2492.270
741.7014, 2472.666
742.1835, 2464.432
742.6656, 2467.757
743.1478, 2466.818
743.6299, 2451.488
744.1120, 2435.439
744.5941, 2449.211
745.0762, 2481.824
745.5583, 2499.596
746.0405, 2466.119
746.5226, 2431.424
747.0047, 2428.279
747.4868, 2450.756
747.9689, 2461.216
748.4510, 2443.256
748.9332, 2428.235
749.4153, 2427.923
749.8974, 2440.499
750.3795, 2441.875
750.8616, 2430.064
751.3438, 2422.365
751.8259, 2438.030
752.3080, 2464.126
752.7901, 2465.971
753.2722, 2444.071
753.7543, 2423.931
754.2365, 2424.914
754.7186, 2433.057
755.2007, 2437.121
755.6828, 2434.774
756.1649, 2434.783
756.6470, 2440.836
757.1292, 2447.704
757.6113, 2453.288
758.0934, 2458.976
758.5755, 2455.369
759.0576, 2439.867
759.5397, 2423.639
760.0219, 2416.833
760.5040, 2418.740
760.9861, 2431.064
761.4682, 2457.051
761.9503, 2476.148
762.4324, 2462.808
762.9146, 2437.385
763.3967, 2424.226
763.8788, 2438.434
764.3609, 2450.118
764.8430, 2452.578
765.3251, 2451.135
765.8073, 2453.073
766.2894, 2461.803
766.7715, 2458.955
767.2536, 2438.313
767.7357, 2412.024
768.2178, 2400.300
768.7000, 2400.774
769.1821, 2403.726
769.6642, 2405.668
770.1463, 2409.454
770.6284, 2423.397
771.1105, 2440.193
771.5927, 2445.724
772.0748, 2420.091
772.5569, 2400.824
773.0390, 2400.434
773.5211, 2411.727
774.0032, 2416.672
774.4854, 2413.525
774.9675, 2410.705
775.4496, 2411.365
775.9317, 2413.405
776.4138, 2410.401
776.8959, 2403.442
777.3781, 2398.295
777.8602, 2400.305
778.3423, 2403.546
778.8244, 2402.398
779.3065, 2397.944
779.7886, 2394.997
780.2708, 2397.622
780.7529, 2399.103
781.2350, 2395.073
781.7171, 2386.911
782.1992, 2390.245
782.6813, 2409.388
783.1635, 2422.625
783.6456, 2413.708
784.1277, 2391.119
784.6098, 2384.163
785.0919, 2391.430
785.5740, 2398.490
786.0562, 2392.505
786.5383, 2384.928
787.0204, 2385.026
787.5025, 2393.409
787.9846, 2405.487
788.4667, 2431.024
788.9489, 2449.271
789.4310, 2450.244
789.9131, 2433.007
790.3952, 2413.947
790.8773, 2391.431
791.3594, 2375.429
791.8416, 2376.294
792.3237, 2389.212
792.8058, 2403.178
793.2879, 2417.665
793.7700, 2429.261
794.2521, 2437.497
794.7343, 2440.634
795.2164, 2436.120
795.6985, 2421.950
796.1806, 2407.504
796.6627, 2388.200
797.1448, 2374.839
797.6270, 2376.583
798.1091, 2395.947
798.5912, 2410.844
799.0733, 2421.427
799.5554, 2426.533
800.0375, 2418.159
800.5197, 2405.291
801.0018, 2409.313
801.4839, 2435.786
801.9660, 2455.774
802.4481, 2444.989
802.9302, 2424.218
803.4124, 2411.423
803.8945, 2415.501
804.3766, 2411.971
804.8587, 2393.310
805.3408, 2376.980
805.8229, 2383.259
806.3051, 2411.932
806.7872, 2427.934
807.2693, 2427.042
807.7514, 2421.209
808.2335, 2423.005
808.7156, 2427.903
809.1978, 2428.346
809.6799, 2420.945
810.1620, 2415.214
810.6441, 2420.092
811.1262, 2425.630
811.6083, 2420.878
812.0905, 2394.562
812.5726, 2383.808
813.0547, 2391.670
813.5368, 2410.762
814.0189, 2441.172
814.5010, 2478.146
814.9832, 2490.140
815.4653, 2468.050
815.9474, 2439.954
816.4295, 2428.250
816.9116, 2427.177
817.3937, 2429.814
817.8759, 2435.100
818.3580, 2442.900
818.8401, 2458.276
819.3222, 2472.706
819.8043, 2476.296
820.2864, 2464.874
820.7686, 2463.453
821.2507, 2476.841
821.7328, 2492.747
822.2149, 2496.343
822.6970, 2489.724
823.1791, 2474.947
823.6613, 2447.197
824.1434, 2429.596
824.6255, 2449.911
825.1076, 2483.313
825.5897, 2501.886
826.0718, 2485.459
826.5540, 2476.065
827.0361, 2476.797
827.5182, 2481.085
828.0003, 2479.135
828.4824, 2471.124
828.9645, 2473.665
829.4467, 2491.639
829.9288, 2510.319
830.4109, 2510.942
830.8930, 2501.801
831.3751, 2495.930
831.8572, 2498.818
832.3394, 2500.407
832.8215, 2494.301
833.3036, 2486.748
833.7857, 2484.745
834.2678, 2490.305
834.7499, 2495.971
835.2321, 2501.915
835.7142, 2506.388
836.1963, 2504.996
836.6784, 2499.989
837.1605, 2500.302
837.6426, 2508.530
838.1248, 2518.076
838.6069, 2523.915
839.0890, 2528.226
839.5711, 2533.526
840.0532, 2542.901
840.5353, 2548.146
841.0175, 2545.561
841.4996, 2542.157
841.9817, 2547.113
842.4638, 2561.099
842.9459, 2565.886
843.4280, 2558.620
843.9102, 2548.000
844.3923, 2539.236
844.8744, 2534.936
845.3565, 2541.559
845.8386, 2564.497
846.3207, 2582.713
846.8029, 2582.795
847.2850, 2577.526
847.7671, 2578.676
848.2492, 2591.063
848.7313, 2596.127
849.2134, 2591.037
849.6956, 2585.759
850.1777, 2594.952
850.6598, 2612.570
851.1419, 2612.918
851.6240, 2590.695
852.1061, 2574.899
852.5883, 2598.693
853.0704, 2632.272
853.5525, 2645.900
854.0346, 2623.552
854.5167, 2618.767
854.9988, 2650.231
855.4810, 2679.337
855.9631, 2671.897
856.4452, 2626.973
856.9273, 2611.376
857.4094, 2628.507
857.8915, 2650.028
858.3737, 2651.472
858.8558, 2642.301
859.3379, 2632.579
859.8200, 2623.285
860.3021, 2618.154
860.7842, 2618.751
861.2664, 2624.292
861.7485, 2636.006
862.2306, 2655.491
862.7127, 2664.288
863.1948, 2660.298
863.6769, 2655.178
864.1591, 2658.497
864.6412, 2666.560
865.1233, 2671.645
865.6054, 2673.418
866.0875, 2670.969
866.5696, 2653.949
867.0518, 2640.733
867.5339, 2646.552
868.0160, 2673.539
868.4981, 2691.330
868.9802, 2700.469
869.4623, 2698.882
869.9445, 2680.687
870.4266, 2651.191
870.9087, 2633.599
871.3908, 2627.558
871.8729, 2631.075
872.3550, 2653.399
872.8372, 2676.154
873.3193, 2682.009
873.8014, 2673.449
874.2835, 2666.347
874.7656, 2664.575
875.2477, 2664.401
875.7299, 2665.113
876.2120, 2666.704
876.6941, 2670.400
877.1762, 2676.186
877.6583, 2678.333
878.1404, 2672.792
878.6226, 2663.882
879.1047, 2655.430
879.5869, 2648.239
880.0690, 2644.150
880.5511, 2644.585
881.0332, 2647.456
881.5153, 2652.515
881.9974, 2659.460
882.4796, 2670.223
882.9617, 2687.382
883.4438, 2691.662
883.9259, 2673.585
884.4080, 2650.643
884.8901, 2656.563
885.3723, 2679.014
885.8544, 2688.269
886.3365, 2663.819
886.8186, 2640.988
887.3007, 2634.257
887.7828, 2639.063
888.2650, 2649.996
888.7471, 2672.561
889.2292, 2685.368
889.7113, 2685.795
890.1934, 2678.019
890.6755, 2663.042
891.1577, 2644.300
891.6398, 2633.256
892.1219, 2633.562
892.6040, 2634.292
893.0861, 2622.502
893.5682, 2610.735
894.0504, 2612.736
894.5325, 2641.583
895.0146, 2654.284
895.4967, 2645.209
895.9788, 2630.409
896.4609, 2623.187
896.9431, 2622.251
897.4252, 2618.822
897.9073, 2612.407
898.3894, 2609.146
898.8715, 2616.791
899.3536, 2627.301
899.8358, 2635.842
900.3179, 2642.282
900.8000, 2638.484
901.2821, 2612.421
901.7642, 2593.285
902.2463, 2597.429
902.7285, 2620.883
903.2106, 2634.657
903.6927, 2638.848
904.1748, 2638.273
904.6569, 2633.421
905.1390, 2627.088
905.6212, 2622.252
906.1033, 2618.534
906.5854, 2613.715
907.0675, 2603.098
907.5496, 2596.685
908.0317, 2599.105
908.5139, 2606.412
908.9960, 2605.724
909.4781, 2596.999
909.9602, 2588.950
910.4423, 2585.637
910.9244, 2582.928
911.4066, 2572.922
911.8887, 2560.477
912.3708, 2554.438
912.8529, 2563.412
913.3350, 2572.190
913.8171, 2579.507
914.2993, 2584.219
914.7814, 2584.426
915.2635, 2579.956
915.7456, 2572.693
916.2277, 2562.300
916.7098, 2551.767
917.1920, 2545.899
917.6741, 2541.727
918.1562, 2533.727
918.6383, 2518.284
919.1204, 2508.454
919.6025, 2510.630
920.0847, 2518.004
920.5668, 2527.127
921.0489, 2538.773
921.5310, 2546.146
922.0131, 2548.766
922.4952, 2550.930
922.9774, 2560.247
923.4595, 2569.280
923.9416, 2564.555
924.4237, 2546.270
924.9058, 2529.178
925.3879, 2517.568
925.8701, 2510.203
926.3522, 2508.129
926.8343, 2510.121
927.3164, 2504.514
927.7985, 2489.922
928.2806, 2480.639
928.7628, 2488.263
929.2449, 2500.277
929.7270, 2492.070
930.2091, 2471.866
930.6912, 2461.714
931.1733, 2490.024
931.6555, 2506.962
932.1376, 2486.102
932.6197, 2449.613
933.1018, 2434.986
933.5839, 2445.045
934.0660, 2455.943
934.5482, 2464.641
935.0303, 2469.120
935.5124, 2462.318
935.9945, 2450.792
936.4766, 2447.469
936.9587, 2460.501
937.4409, 2467.277
937.9230, 2451.118
938.4051, 2433.118
938.8872, 2432.311
939.3693, 2454.834
939.8514, 2453.404
940.3336, 2424.264
940.8157, 2398.610
941.2978, 2413.758
941.7799, 2442.957
942.2620, 2442.665
942.7441, 2412.266
943.2263, 2389.188
943.7084, 2396.629
944.1905, 2405.534
944.6726, 2402.029
945.1547, 2389.467
945.6368, 2393.028
946.1190, 2414.276
946.6011, 2424.870
947.0832, 2405.450
947.5653, 2375.940
948.0474, 2358.041
948.5295, 2351.192
949.0117, 2354.086
949.4938, 2386.123
949.9759, 2401.581
950.4580, 2382.841
950.9401, 2350.781
951.4222, 2337.747
951.9044, 2343.995
952.3865, 2349.673
952.8686, 2352.222
953.3507, 2350.734
953.8328, 2339.950
954.3149, 2326.591
954.7971, 2320.056
955.2792, 2324.905
955.7613, 2326.125
956.2434, 2317.620
956.7255, 2309.577
957.2076, 2310.224
957.6898, 2319.047
958.1719, 2314.391
958.6540, 2296.485
959.1361, 2283.373
959.6182, 2295.786
960.1003, 2312.036
960.5825, 2310.712
961.0646, 2294.127
961.5467, 2280.013
962.0288, 2271.511
962.5109, 2265.833
962.9930, 2261.916
963.4752, 2260.937
963.9573, 2270.262
964.4394, 2287.097
964.9215, 2293.477
965.4036, 2278.099
965.8857, 2261.294
966.3679, 2262.669
966.8500, 2271.097
967.3321, 2271.895
967.8142, 2260.065
968.2963, 2244.522
968.7784, 2221.791
969.2606, 2202.679
969.7427, 2202.667
970.2248, 2215.761
970.7069, 2219.365
971.1890, 2211.861
971.6711, 2203.785
972.1533, 2200.068
972.6354, 2199.802
973.1175, 2204.833
973.5996, 2214.730
974.0817, 2216.815
974.5638, 2208.768
975.0460, 2201.487
975.5281, 2201.886
976.0102, 2203.615
976.4923, 2189.879
976.9744, 2165.784
977.4565, 2146.330
977.9387, 2140.876
978.4208, 2137.876
978.9029, 2132.847
979.3850, 2128.300
979.8671, 2128.520
980.3492, 2134.914
980.8314, 2137.571
981.3135, 2135.031
981.7956, 2130.353
982.2777, 2126.751
982.7598, 2123.200
983.2419, 2117.399
983.7241, 2108.410
984.2062, 2102.391
984.6883, 2103.320
985.1704, 2105.793
985.6525, 2109.883
986.1346, 2114.386
986.6168, 2102.685
987.0989, 2075.388
987.5810, 2051.633
988.0631, 2045.984
988.5452, 2045.882
989.0273, 2037.804
989.5095, 2025.949
989.9916, 2021.444
990.4737, 2032.010
990.9558, 2041.801
991.4379, 2050.141
991.9200, 2055.210
992.4022, 2054.362
992.8843, 2047.733
993.3664, 2032.521
993.8485, 2005.672
994.3306, 1987.414
994.8127, 2005.578
995.2949, 2029.102
995.7770, 2026.623
996.2591, 1991.091
996.7412, 1974.709
997.2233, 1981.988
997.7054, 1992.465
998.1876, 1993.700
998.6697, 1989.465
999.1518, 1989.400
999.6339, 1991.737
1000.116, 1989.480
1000.598, 1973.021
1001.080, 1958.882
1001.562, 1953.073
1002.044, 1952.892
1002.527, 1954.500
1003.009, 1958.087
1003.491, 1960.937
1003.973, 1962.920
1004.455, 1962.358
1004.937, 1956.689
1005.419, 1947.664
1005.901, 1936.614
1006.384, 1922.312
1006.866, 1912.702
1007.348, 1910.553
1007.830, 1910.211
1008.312, 1909.830
1008.794, 1908.712
1009.276, 1900.156
1009.758, 1885.392
1010.240, 1874.333
1010.723, 1875.925
1011.205, 1879.927
1011.687, 1881.628
1012.169, 1880.547
1012.651, 1875.694
1013.133, 1865.032
1013.615, 1856.496
1014.097, 1851.159
1014.580, 1848.561
1015.062, 1850.773
1015.544, 1854.542
1016.026, 1851.914
1016.508, 1839.539
1016.990, 1832.278
1017.472, 1847.205
1017.954, 1858.232
1018.436, 1847.754
1018.919, 1817.272
1019.401, 1797.076
1019.883, 1787.169
1020.365, 1785.992
1020.847, 1799.729
1021.329, 1815.878
1021.811, 1821.661
1022.293, 1820.059
1022.776, 1818.720
1023.258, 1824.998
1023.740, 1820.301
1024.222, 1797.670
1024.704, 1772.055
1025.186, 1767.924
1025.668, 1778.316
1026.150, 1777.517
1026.632, 1760.907
1027.115, 1747.605
1027.597, 1755.027
1028.079, 1764.746
1028.561, 1762.740
1029.043, 1749.606
1029.525, 1743.307
1030.007, 1744.870
1030.489, 1745.437
1030.972, 1739.095
1031.454, 1731.633
1031.936, 1732.160
1032.418, 1737.622
1032.900, 1741.458
1033.382, 1746.406
1033.864, 1741.450
1034.346, 1719.298
1034.828, 1695.802
1035.311, 1691.518
1035.793, 1703.148
1036.275, 1709.575
1036.757, 1709.130
1037.239, 1705.200
1037.721, 1695.126
1038.203, 1686.786
1038.685, 1689.470
1039.167, 1701.181
1039.650, 1699.697
1040.132, 1681.152
1040.614, 1666.554
1041.096, 1664.384
1041.578, 1667.800
1042.060, 1667.970
1042.542, 1665.385
1043.024, 1660.571
1043.507, 1650.930
1043.989, 1644.980
1044.471, 1648.990
1044.953, 1651.570
1045.435, 1639.508
1045.917, 1615.029
1046.399, 1611.083
1046.881, 1627.310
1047.364, 1642.903
1047.846, 1644.447
1048.328, 1639.942
1048.810, 1631.266
1049.292, 1620.818
1049.774, 1618.273
1050.256, 1627.835
1050.738, 1629.625
1051.220, 1617.673
1051.703, 1601.930
1052.185, 1598.494
1052.667, 1600.868
1053.149, 1596.650
1053.631, 1580.656
1054.113, 1571.449
1054.595, 1580.290
1055.077, 1589.873
1055.559, 1591.533
1056.042, 1586.308
1056.524, 1580.770
1057.006, 1574.976
1057.488, 1569.390
1057.970, 1563.197
1058.452, 1558.401
1058.934, 1557.792
1059.416, 1558.935
1059.899, 1556.618
1060.381, 1548.265
1060.863, 1546.765
1061.345, 1555.121
1061.827, 1562.010
1062.309, 1551.546
1062.791, 1534.192
1063.273, 1527.438
1063.755, 1532.365
1064.238, 1532.378
1064.720, 1514.635
1065.202, 1502.558
1065.684, 1505.678
1066.166, 1517.235
1066.648, 1518.103
1067.130, 1510.089
1067.612, 1501.545
1068.094, 1495.043
1068.577, 1488.767
1069.059, 1479.589
1069.541, 1471.493
1070.023, 1468.601
1070.505, 1472.101
1070.987, 1474.038
1071.469, 1474.441
1071.951, 1473.307
1072.434, 1467.959
1072.916, 1463.022
1073.398, 1468.192
1073.880, 1478.928
1074.362, 1479.004
1074.844, 1452.043
1075.326, 1436.939
1075.808, 1442.289
1076.291, 1454.112
1076.773, 1451.180
1077.255, 1438.841
1077.737, 1433.668
1078.219, 1438.516
1078.701, 1440.779
1079.183, 1430.013
1079.665, 1419.088
1080.147, 1413.875
1080.630, 1413.983
1081.112, 1419.315
1081.594, 1429.517
1082.076, 1433.242
1082.558, 1423.811
1083.040, 1410.940
1083.522, 1401.272
1084.004, 1394.357
1084.486, 1389.922
1084.969, 1388.750
1085.451, 1387.074
1085.933, 1384.449
1086.415, 1383.046
1086.897, 1385.808
1087.379, 1390.262
1087.861, 1392.534
1088.343, 1392.635
1088.826, 1391.072
1089.308, 1385.784
1089.790, 1381.691
1090.272, 1378.942
1090.754, 1378.615
1091.236, 1384.784
1091.718, 1395.308
1092.200, 1399.842
1092.682, 1396.551
1093.165, 1391.301
1093.647, 1385.410
1094.129, 1380.945
1094.611, 1380.585
1095.093, 1383.172
1095.575, 1379.964
1096.057, 1370.759
1096.539, 1360.501
1097.022, 1350.578
1097.504, 1341.643
1097.986, 1333.485
1098.468, 1327.190
1098.950, 1324.525
1099.432, 1326.665
1099.914, 1330.666
1100.396, 1337.726
1100.879, 1342.559
1101.361, 1338.878
1101.843, 1331.435
1102.325, 1330.689
1102.807, 1334.657
1103.289, 1335.659
1103.771, 1325.611
1104.253, 1319.957
1104.735, 1324.314
1105.218, 1330.125
1105.700, 1322.374
1106.182, 1304.928
1106.664, 1297.983
1107.146, 1303.827
1107.628, 1309.872
1108.110, 1309.557
1108.592, 1305.979
1109.074, 1298.368
1109.557, 1289.083
1110.039, 1289.224
1110.521, 1298.940
1111.003, 1306.632
1111.485, 1309.211
1111.967, 1307.653
1112.449, 1298.963
1112.931, 1288.870
1113.414, 1284.655
1113.896, 1289.189
1114.378, 1287.015
1114.860, 1276.421
1115.342, 1266.515
1115.824, 1261.390
1116.306, 1260.931
1116.788, 1268.695
1117.271, 1280.517
1117.753, 1287.200
1118.235, 1278.102
1118.717, 1276.093
1119.199, 1286.369
1119.681, 1296.784
1120.163, 1294.082
1120.645, 1282.037
1121.127, 1269.280
1121.609, 1256.943
1122.092, 1250.899
1122.574, 1264.745
1123.056, 1271.991
1123.538, 1259.460
1124.020, 1239.051
1124.502, 1235.395
1124.984, 1246.635
1125.466, 1258.502
1125.949, 1268.956
1126.431, 1273.876
1126.913, 1266.328
1127.395, 1255.458
1127.877, 1246.455
1128.359, 1239.749
1128.841, 1240.367
1129.323, 1248.979
1129.806, 1252.169
1130.288, 1242.611
1130.770, 1231.008
1131.252, 1225.706
1131.734, 1226.128
1132.216, 1233.184
1132.698, 1251.242
1133.180, 1258.942
1133.662, 1254.695
1134.145, 1246.521
1134.627, 1236.639
1135.109, 1227.833
1135.591, 1224.987
1136.073, 1226.825
1136.555, 1230.186
1137.037, 1237.267
1137.519, 1240.682
1138.001, 1238.372
1138.484, 1235.787
1138.966, 1241.318
1139.448, 1250.244
1139.930, 1249.349
1140.412, 1239.077
1140.894, 1230.313
1141.376, 1227.905
1141.858, 1227.204
1142.341, 1227.389
1142.823, 1227.965
1143.305, 1228.505
1143.787, 1228.704
1144.269, 1227.114
1144.751, 1223.422
1145.233, 1218.751
1145.715, 1211.675
1146.198, 1205.863
1146.680, 1202.904
1147.162, 1202.722
1147.644, 1206.252
1148.126, 1213.131
1148.608, 1218.894
1149.090, 1223.812
1149.572, 1222.909
1150.054, 1204.750
1150.536, 1184.463
1151.019, 1177.297
1151.501, 1184.488
1151.983, 1190.381
1152.465, 1195.077
1152.947, 1196.691
1153.429, 1190.744
1153.911, 1185.162
1154.393, 1188.323
1154.876, 1196.874
1155.358, 1205.280
1155.840, 1213.248
1156.322, 1220.698
1156.804, 1228.084
1157.286, 1232.456
1157.768, 1229.520
1158.250, 1223.550
1158.733, 1221.510
1159.215, 1221.398
1159.697, 1214.213
1160.179, 1191.048
1160.661, 1178.228
1161.143, 1180.558
1161.625, 1188.829
1162.107, 1193.993
1162.589, 1197.092
1163.072, 1200.590
1163.554, 1204.417
1164.036, 1203.871
1164.518, 1192.135
1165.000, 1185.833
1165.482, 1190.343
1165.964, 1199.943
1166.446, 1204.730
1166.928, 1206.383
1167.411, 1209.811
1167.893, 1216.938
1168.375, 1217.947
1168.857, 1200.038
1169.339, 1187.939
1169.821, 1193.870
1170.303, 1210.250
1170.785, 1216.080
1171.268, 1213.335
1171.750, 1208.085
1172.232, 1200.417
1172.714, 1195.294
1173.196, 1197.603
1173.678, 1200.279
1174.160, 1197.611
1174.642, 1203.139
1175.125, 1196.050
1175.607, 1209.422
1176.089, 1219.401
1176.571, 1219.218
1177.053, 1215.911
1177.535, 1211.618
1178.017, 1206.219
1178.499, 1198.762
1178.981, 1189.255
1179.464, 1184.483
1179.946, 1184.121
1180.428, 1182.600
1180.910, 1169.729
1181.392, 1162.051
1181.874, 1172.033
1182.356, 1191.173
1182.838, 1210.163
1183.320, 1229.728
1183.803, 1225.547
1184.285, 1194.919
1184.767, 1168.561
1185.249, 1175.047
1185.731, 1188.272
1186.213, 1190.853
1186.695, 1185.805
1187.177, 1183.333
1187.660, 1183.755
1188.142, 1180.515
1188.624, 1171.699
1189.106, 1166.242
1189.588, 1178.812
1190.070, 1192.429
1190.552, 1190.030
1191.034, 1174.259
1191.516, 1168.530
1191.999, 1173.866
1192.481, 1179.757
1192.963, 1183.855
1193.445, 1186.616
1193.927, 1187.834
1194.409, 1188.395
1194.891, 1190.681
1195.373, 1194.906
1195.855, 1187.173
1196.338, 1164.746
1196.820, 1155.320
1197.302, 1176.677
1197.784, 1200.921
1198.266, 1190.600
1198.748, 1168.664
1199.230, 1167.158
1199.712, 1194.770
1200.195, 1204.055
1200.677, 1192.648
1201.159, 1179.305
1201.641, 1173.139
1202.123, 1171.281
1202.605, 1172.783
1203.087, 1175.570
1203.569, 1176.236
1204.052, 1174.330
1204.534, 1169.183
1205.016, 1159.270
1205.498, 1155.038
1205.980, 1170.043
1206.462, 1189.463
1206.944, 1197.180
1207.426, 1195.911
1207.908, 1190.963
1208.391, 1180.202
1208.873, 1174.514
1209.355, 1174.726
1209.837, 1177.740
1210.319, 1182.787
1210.801, 1187.732
1211.283, 1188.099
1211.765, 1186.087
1212.247, 1191.024
1212.730, 1210.037
1213.212, 1213.569
1213.694, 1196.087
1214.176, 1174.715
1214.658, 1163.538
1215.140, 1159.100
1215.622, 1157.436
1216.104, 1158.787
1216.587, 1167.030
1217.069, 1187.279
1217.551, 1195.162
1218.033, 1184.324
1218.515, 1170.737
1218.997, 1177.138
1219.479, 1187.250
1219.961, 1177.699
1220.443, 1149.388
1220.926, 1140.632
1221.408, 1159.485
1221.890, 1170.134
1222.372, 1162.454
1222.854, 1150.287
1223.336, 1149.391
1223.818, 1153.806
1224.300, 1157.074
1224.782, 1158.399
1225.265, 1160.045
1225.747, 1161.917
1226.229, 1164.773
1226.711, 1169.070
1227.193, 1173.823
1227.675, 1178.742
1228.157, 1182.915
1228.639, 1185.716
1229.122, 1187.213
1229.604, 1182.864
1230.086, 1171.376
1230.568, 1162.627
1231.050, 1161.041
1231.532, 1162.506
1232.014, 1161.891
1232.496, 1161.795
1232.979, 1166.698
1233.461, 1177.909
1233.943, 1183.522
1234.425, 1183.241
1234.907, 1179.704
1235.389, 1172.715
1235.871, 1165.286
1236.353, 1158.508
1236.835, 1153.943
1237.318, 1154.372
1237.800, 1160.357
1238.282, 1166.102
1238.764, 1171.656
1239.246, 1174.976
1239.728, 1172.447
1240.210, 1170.246
1240.692, 1174.120
1241.175, 1181.274
1241.657, 1188.904
1242.139, 1198.466
1242.621, 1195.729
1243.103, 1180.528
1243.585, 1169.196
1244.067, 1177.121
1244.549, 1186.330
1245.031, 1183.355
1245.514, 1174.872
1245.996, 1170.999
1246.478, 1172.368
1246.960, 1167.936
1247.442, 1158.008
1247.924, 1152.992
1248.406, 1165.045
1248.888, 1177.918
1249.370, 1181.484
1249.853, 1181.201
1250.335, 1185.588
1250.817, 1194.236
1251.299, 1193.213
1251.781, 1182.673
1252.263, 1173.938
1252.745, 1175.853
1253.227, 1178.907
1253.710, 1176.975
1254.192, 1175.429
1254.674, 1183.855
1255.156, 1199.927
1255.638, 1207.163
1256.120, 1204.792
1256.602, 1196.545
1257.084, 1172.766
1257.567, 1159.248
1258.049, 1168.612
1258.531, 1185.584
1259.013, 1187.469
1259.495, 1179.009
1259.977, 1179.426
1260.459, 1189.005
1260.941, 1193.675
1261.423, 1181.281
1261.906, 1170.545
1262.388, 1164.339
1262.870, 1163.676
1263.352, 1174.345
1263.834, 1190.379
1264.316, 1196.260
1264.798, 1191.554
1265.280, 1190.039
1265.762, 1202.072
1266.245, 1206.637
1266.727, 1198.008
1267.209, 1185.267
1267.691, 1180.283
1268.173, 1179.962
1268.655, 1178.804
1269.137, 1176.523
1269.619, 1178.376
1270.102, 1188.344
1270.584, 1192.100
1271.066, 1185.274
1271.548, 1176.044
1272.030, 1173.567
1272.512, 1175.426
1272.994, 1180.015
1273.476, 1186.817
1273.958, 1191.856
1274.441, 1194.737
1274.923, 1197.157
1275.405, 1199.474
1275.887, 1201.381
1276.369, 1202.740
1276.851, 1203.397
1277.333, 1203.912
1277.815, 1203.714
1278.297, 1197.627
1278.780, 1185.091
1279.262, 1181.332
1279.744, 1191.599
1280.226, 1200.389
1280.708, 1188.998
1281.190, 1177.265
1281.672, 1182.328
1282.154, 1198.337
1282.637, 1204.014
1283.119, 1200.257
1283.601, 1194.388
1284.083, 1187.128
1284.565, 1183.928
1285.047, 1194.529
1285.529, 1202.560
1286.011, 1198.777
1286.494, 1187.959
1286.976, 1182.425
1287.458, 1181.566
1287.940, 1184.495
1288.422, 1191.723
1288.904, 1196.762
1289.386, 1194.032
1289.868, 1193.078
1290.350, 1197.318
1290.833, 1204.610
1291.315, 1212.702
1291.797, 1219.976
1292.279, 1222.188
1292.761, 1217.655
1293.243, 1217.353
1293.725, 1227.306
1294.207, 1227.448
1294.689, 1207.068
1295.172, 1183.646
1295.654, 1186.550
1296.136, 1199.971
1296.618, 1201.610
1297.100, 1186.939
1297.582, 1181.255
1298.064, 1185.727
1298.546, 1191.885
1299.029, 1197.650
1299.511, 1202.404
1299.993, 1204.898
1300.475, 1206.446
1300.957, 1208.459
1301.439, 1209.718
1301.921, 1210.473
1302.403, 1211.537
1302.885, 1211.264
1303.368, 1211.330
1303.850, 1211.357
1304.332, 1214.988
1304.814, 1213.797
1305.296, 1199.623
1305.778, 1178.779
1306.260, 1175.095
1306.742, 1184.729
1307.224, 1192.039
1307.707, 1192.634
1308.189, 1194.033
1308.671, 1202.965
1309.153, 1207.595
1309.635, 1201.592
1310.117, 1191.350
1310.599, 1191.647
1311.081, 1197.663
1311.564, 1198.545
1312.046, 1190.866
1312.528, 1190.952
1313.010, 1203.439
1313.492, 1213.662
1313.974, 1216.579
1314.456, 1215.171
1314.938, 1212.806
##END=



