##NAMES=Gadolinite-(Y)
##RRUFFID=R070340
##IDEAL CHEMISTRY=Fe^2+^Be_2_Y^3+^_2_(SiO_4_)_2_O_2_
##LOCALITY=Ytterøya Mine, Røvika, Ytterøya (island), Levanger, Nord-Trøndelag, Norway
##OWNER=RRUFF
##SOURCE=Michael Scott
##DESCRIPTION=Black vitreous, metamict massive, a portion of the sample was heated, and is recorded under R080129.
##STATUS=The identification of this mineral has been made only by X-ray diffraction.
##URL=rruff.info/R070340
169.7132, 1429.064
170.1953, 1423.000
170.6774, 1410.020
171.1595, 1401.531
171.6417, 1404.248
172.1238, 1414.168
172.6059, 1421.031
173.0880, 1422.886
173.5701, 1425.620
174.0522, 1436.613
174.5344, 1449.307
175.0165, 1452.994
175.4986, 1438.932
175.9807, 1414.704
176.4628, 1400.873
176.9449, 1399.661
177.4271, 1405.850
177.9092, 1423.677
178.3913, 1444.987
178.8734, 1457.721
179.3555, 1453.701
179.8376, 1439.577
180.3197, 1435.491
180.8019, 1446.882
181.2840, 1459.215
181.7661, 1471.022
182.2482, 1480.065
182.7303, 1482.889
183.2124, 1477.023
183.6946, 1465.186
184.1767, 1453.848
184.6588, 1437.882
185.1409, 1432.583
185.6230, 1450.471
186.1051, 1476.341
186.5873, 1491.818
187.0694, 1487.192
187.5515, 1470.643
188.0336, 1464.036
188.5157, 1472.959
188.9978, 1482.963
189.4800, 1494.142
189.9621, 1503.250
190.4442, 1505.899
190.9263, 1499.638
191.4084, 1488.732
191.8905, 1483.756
192.3727, 1488.349
192.8548, 1492.699
193.3369, 1496.459
193.8190, 1498.631
194.3011, 1496.595
194.7832, 1489.176
195.2654, 1481.182
195.7475, 1484.630
196.2296, 1511.141
196.7117, 1527.005
197.1938, 1521.796
197.6759, 1509.343
198.1581, 1500.815
198.6402, 1500.059
199.1223, 1504.596
199.6044, 1510.581
200.0865, 1520.748
200.5686, 1526.600
201.0508, 1524.976
201.5329, 1521.130
202.0150, 1519.004
202.4971, 1519.695
202.9792, 1521.668
203.4613, 1522.319
203.9435, 1520.475
204.4256, 1519.992
204.9077, 1523.744
205.3898, 1526.878
205.8719, 1524.472
206.3540, 1516.290
206.8362, 1507.738
207.3183, 1507.227
207.8004, 1520.031
208.2825, 1527.373
208.7646, 1529.641
209.2467, 1526.914
209.7289, 1515.041
210.2110, 1495.867
210.6931, 1478.579
211.1752, 1475.311
211.6573, 1491.373
212.1395, 1502.054
212.6216, 1501.793
213.1037, 1501.239
213.5858, 1507.369
214.0679, 1518.957
214.5500, 1528.816
215.0322, 1528.607
215.5143, 1515.832
215.9964, 1509.730
216.4785, 1519.910
216.9606, 1527.749
217.4427, 1522.942
217.9249, 1508.938
218.4070, 1497.010
218.8891, 1497.464
219.3712, 1510.781
219.8533, 1518.879
220.3354, 1516.836
220.8176, 1514.041
221.2997, 1511.697
221.7818, 1510.538
222.2639, 1511.856
222.7460, 1517.218
223.2281, 1525.877
223.7103, 1529.234
224.1924, 1519.629
224.6745, 1512.881
225.1566, 1513.532
225.6387, 1518.831
226.1208, 1525.091
226.6030, 1530.539
227.0851, 1534.512
227.5672, 1533.691
228.0493, 1520.203
228.5314, 1512.748
229.0135, 1519.343
229.4957, 1531.472
229.9778, 1538.432
230.4599, 1535.193
230.9420, 1527.137
231.4241, 1528.707
231.9062, 1550.788
232.3884, 1563.454
232.8705, 1555.727
233.3526, 1542.315
233.8347, 1537.258
234.3168, 1544.945
234.7989, 1557.116
235.2811, 1558.478
235.7632, 1542.029
236.2453, 1531.415
236.7274, 1530.833
237.2095, 1534.313
237.6916, 1538.267
238.1738, 1541.894
238.6559, 1546.273
239.1380, 1553.778
239.6201, 1566.490
240.1022, 1574.513
240.5843, 1574.810
241.0665, 1572.558
241.5486, 1569.092
242.0307, 1565.043
242.5128, 1561.365
242.9949, 1558.503
243.4770, 1556.284
243.9592, 1557.113
244.4413, 1566.261
244.9234, 1573.504
245.4055, 1572.936
245.8876, 1567.052
246.3697, 1562.939
246.8519, 1567.418
247.3340, 1578.821
247.8161, 1581.169
248.2982, 1565.059
248.7803, 1552.330
249.2624, 1553.051
249.7446, 1561.412
250.2267, 1567.321
250.7088, 1564.030
251.1909, 1556.289
251.6730, 1559.866
252.1551, 1584.443
252.6373, 1600.343
253.1194, 1589.758
253.6015, 1569.989
254.0836, 1560.499
254.5657, 1569.546
255.0478, 1586.488
255.5300, 1594.501
256.0121, 1591.632
256.4942, 1587.076
256.9763, 1578.661
257.4584, 1572.324
257.9406, 1574.687
258.4227, 1587.456
258.9048, 1600.777
259.3869, 1603.248
259.8690, 1594.333
260.3511, 1586.886
260.8333, 1583.148
261.3154, 1581.882
261.7975, 1582.503
262.2796, 1584.870
262.7617, 1587.859
263.2438, 1592.107
263.7260, 1596.863
264.2081, 1597.106
264.6902, 1589.634
265.1723, 1581.674
265.6544, 1577.532
266.1365, 1576.936
266.6187, 1579.459
267.1008, 1588.202
267.5829, 1599.338
268.0650, 1603.632
268.5471, 1598.788
269.0292, 1593.902
269.5114, 1598.153
269.9935, 1606.430
270.4756, 1609.703
270.9577, 1603.834
271.4398, 1593.504
271.9219, 1581.729
272.4041, 1568.318
272.8862, 1559.816
273.3683, 1560.406
273.8504, 1568.032
274.3325, 1578.534
274.8146, 1595.043
275.2968, 1608.410
275.7789, 1610.259
276.2610, 1603.126
276.7431, 1597.615
277.2252, 1598.026
277.7073, 1600.935
278.1895, 1599.424
278.6716, 1591.582
279.1537, 1588.506
279.6358, 1599.141
280.1179, 1616.054
280.6000, 1625.639
281.0822, 1624.299
281.5643, 1619.473
282.0464, 1620.791
282.5285, 1629.124
283.0106, 1632.342
283.4927, 1624.570
283.9749, 1613.964
284.4570, 1607.227
284.9391, 1605.025
285.4212, 1605.652
285.9033, 1607.887
286.3854, 1611.854
286.8676, 1617.715
287.3497, 1633.288
287.8318, 1643.100
288.3139, 1633.545
288.7960, 1611.507
289.2781, 1595.954
289.7603, 1598.027
290.2424, 1613.430
290.7245, 1624.238
291.2066, 1629.684
291.6887, 1631.920
292.1708, 1627.694
292.6530, 1621.674
293.1351, 1621.094
293.6172, 1628.334
294.0993, 1637.440
294.5814, 1637.228
295.0635, 1617.519
295.5457, 1607.974
296.0278, 1618.116
296.5099, 1630.811
296.9920, 1632.170
297.4741, 1621.927
297.9562, 1610.737
298.4384, 1610.044
298.9205, 1621.757
299.4026, 1630.836
299.8847, 1636.532
300.3668, 1640.441
300.8489, 1642.162
301.3310, 1642.523
301.8131, 1643.112
302.2953, 1645.137
302.7774, 1648.061
303.2595, 1649.274
303.7416, 1649.505
304.2237, 1646.558
304.7058, 1637.352
305.1880, 1626.266
305.6701, 1617.307
306.1522, 1611.887
306.6343, 1610.415
307.1164, 1615.553
307.5985, 1630.682
308.0807, 1639.698
308.5628, 1631.372
309.0449, 1621.845
309.5270, 1621.682
310.0091, 1631.395
310.4912, 1642.657
310.9734, 1648.789
311.4555, 1650.111
311.9376, 1650.232
312.4197, 1650.893
312.9018, 1647.824
313.3839, 1635.423
313.8661, 1617.366
314.3482, 1603.427
314.8303, 1598.485
315.3124, 1600.125
315.7945, 1605.697
316.2766, 1616.164
316.7588, 1624.754
317.2409, 1625.071
317.7230, 1622.054
318.2051, 1624.615
318.6872, 1637.681
319.1693, 1649.572
319.6515, 1649.601
320.1336, 1640.292
320.6157, 1633.215
321.0978, 1632.970
321.5799, 1635.564
322.0620, 1634.027
322.5442, 1627.508
323.0263, 1622.996
323.5084, 1623.639
323.9905, 1626.873
324.4726, 1629.402
324.9547, 1630.682
325.4369, 1632.035
325.9190, 1635.096
326.4011, 1640.110
326.8832, 1642.669
327.3653, 1642.696
327.8474, 1640.486
328.3296, 1634.306
328.8117, 1625.751
329.2938, 1619.209
329.7759, 1617.311
330.2580, 1619.229
330.7401, 1621.289
331.2223, 1620.625
331.7044, 1623.710
332.1865, 1636.281
332.6686, 1650.638
333.1507, 1657.900
333.6328, 1655.574
334.1150, 1648.610
334.5971, 1644.491
335.0792, 1645.339
335.5613, 1643.242
336.0434, 1632.113
336.5255, 1623.718
337.0077, 1626.380
337.4898, 1637.802
337.9719, 1649.257
338.4540, 1653.500
338.9361, 1651.515
339.4182, 1652.494
339.9004, 1659.938
340.3825, 1665.084
340.8646, 1667.911
341.3467, 1666.433
341.8288, 1655.876
342.3109, 1632.702
342.7931, 1608.158
343.2752, 1601.548
343.7573, 1615.963
344.2394, 1625.919
344.7215, 1617.837
345.2036, 1609.393
345.6858, 1618.412
346.1679, 1645.065
346.6500, 1667.001
347.1321, 1666.892
347.6142, 1651.381
348.0963, 1638.025
348.5785, 1628.147
349.0606, 1621.550
349.5427, 1619.062
350.0248, 1619.882
350.5069, 1622.050
350.9890, 1627.362
351.4712, 1632.221
351.9533, 1632.442
352.4354, 1629.060
352.9175, 1627.981
353.3996, 1632.922
353.8817, 1640.800
354.3639, 1643.392
354.8460, 1640.305
355.3281, 1634.369
355.8102, 1621.578
356.2923, 1608.334
356.7744, 1603.655
357.2566, 1609.055
357.7387, 1617.690
358.2208, 1622.270
358.7029, 1622.496
359.1850, 1619.723
359.6671, 1608.060
360.1493, 1599.645
360.6314, 1602.641
361.1135, 1613.057
361.5956, 1621.768
362.0777, 1623.308
362.5598, 1619.610
363.0420, 1617.645
363.5241, 1617.633
364.0062, 1619.227
364.4883, 1627.332
364.9704, 1633.811
365.4525, 1629.294
365.9347, 1612.880
366.4168, 1595.215
366.8989, 1589.385
367.3810, 1596.200
367.8631, 1600.665
368.3452, 1601.749
368.8274, 1600.795
369.3095, 1596.934
369.7916, 1591.724
370.2737, 1588.786
370.7558, 1589.952
371.2379, 1594.230
371.7201, 1600.732
372.2022, 1609.748
372.6843, 1617.990
373.1664, 1623.117
373.6485, 1627.249
374.1306, 1634.347
374.6128, 1646.071
375.0949, 1655.171
375.5770, 1657.860
376.0591, 1655.222
376.5412, 1648.852
377.0233, 1638.865
377.5055, 1626.464
377.9876, 1611.008
378.4697, 1591.994
378.9518, 1581.969
379.4339, 1586.543
379.9160, 1595.279
380.3982, 1605.063
380.8803, 1614.128
381.3624, 1618.512
381.8445, 1615.760
382.3266, 1608.024
382.8087, 1601.668
383.2909, 1594.524
383.7730, 1592.150
384.2551, 1598.474
384.7372, 1607.048
385.2193, 1613.716
385.7014, 1617.232
386.1836, 1617.107
386.6657, 1611.083
387.1478, 1598.431
387.6299, 1594.733
388.1120, 1611.527
388.5941, 1624.001
389.0763, 1619.501
389.5584, 1606.622
390.0405, 1599.362
390.5226, 1604.351
391.0047, 1615.343
391.4868, 1624.279
391.9690, 1631.570
392.4511, 1632.234
392.9332, 1621.356
393.4153, 1606.217
393.8974, 1591.899
394.3795, 1578.595
394.8617, 1571.270
395.3438, 1576.858
395.8259, 1588.424
396.3080, 1594.412
396.7901, 1593.655
397.2722, 1590.068
397.7544, 1584.259
398.2365, 1577.942
398.7186, 1578.653
399.2007, 1593.790
399.6828, 1607.495
400.1649, 1615.491
400.6471, 1617.593
401.1292, 1611.446
401.6113, 1596.174
402.0934, 1578.765
402.5755, 1569.427
403.0576, 1570.597
403.5398, 1573.196
404.0219, 1581.684
404.5040, 1587.324
404.9861, 1584.092
405.4682, 1574.186
405.9503, 1562.769
406.4325, 1552.343
406.9146, 1544.542
407.3967, 1546.535
407.8788, 1564.992
408.3609, 1579.542
408.8430, 1586.147
409.3252, 1587.825
409.8073, 1585.131
410.2894, 1578.676
410.7715, 1572.857
411.2536, 1571.871
411.7357, 1574.907
412.2179, 1578.110
412.7000, 1581.580
413.1821, 1584.362
413.6642, 1586.212
414.1463, 1586.860
414.6284, 1585.150
415.1106, 1577.989
415.5927, 1571.927
416.0748, 1573.728
416.5569, 1580.779
417.0390, 1584.032
417.5211, 1579.527
418.0033, 1573.537
418.4854, 1576.790
418.9675, 1594.870
419.4496, 1602.424
419.9317, 1589.799
420.4138, 1573.551
420.8960, 1562.795
421.3781, 1558.231
421.8602, 1558.555
422.3423, 1563.330
422.8244, 1571.460
423.3065, 1578.644
423.7887, 1589.792
424.2708, 1591.667
424.7529, 1574.348
425.2350, 1553.872
425.7171, 1542.309
426.1992, 1541.746
426.6814, 1548.062
427.1635, 1561.825
427.6456, 1581.659
428.1277, 1588.637
428.6098, 1577.205
429.0919, 1563.454
429.5741, 1551.590
430.0562, 1543.755
430.5383, 1545.180
431.0204, 1561.338
431.5025, 1577.773
431.9846, 1583.531
432.4668, 1579.794
432.9489, 1568.241
433.4310, 1546.599
433.9131, 1526.537
434.3952, 1523.408
434.8773, 1539.220
435.3595, 1552.294
435.8416, 1562.754
436.3237, 1569.031
436.8058, 1568.682
437.2879, 1563.362
437.7701, 1556.552
438.2522, 1549.840
438.7343, 1544.010
439.2164, 1541.139
439.6985, 1542.340
440.1806, 1544.730
440.6628, 1549.311
441.1449, 1554.032
441.6270, 1559.531
442.1091, 1564.366
442.5912, 1564.210
443.0733, 1554.088
443.5555, 1537.087
444.0376, 1524.738
444.5197, 1517.036
445.0018, 1514.048
445.4839, 1520.708
445.9660, 1529.641
446.4482, 1532.976
446.9303, 1529.046
447.4124, 1525.084
447.8945, 1526.227
448.3766, 1530.331
448.8587, 1532.974
449.3409, 1533.539
449.8230, 1533.187
450.3051, 1532.279
450.7872, 1531.118
451.2693, 1532.171
451.7514, 1538.173
452.2336, 1543.039
452.7157, 1544.725
453.1978, 1544.087
453.6799, 1541.744
454.1620, 1538.058
454.6441, 1534.392
455.1263, 1532.750
455.6084, 1533.789
456.0905, 1533.148
456.5726, 1528.154
457.0547, 1524.201
457.5368, 1524.835
458.0190, 1527.138
458.5011, 1525.282
458.9832, 1515.853
459.4653, 1506.113
459.9474, 1509.418
460.4295, 1526.062
460.9117, 1533.757
461.3938, 1521.923
461.8759, 1508.643
462.3580, 1513.806
462.8401, 1533.299
463.3222, 1545.100
463.8044, 1538.376
464.2865, 1525.333
464.7686, 1514.164
465.2507, 1505.590
465.7328, 1501.759
466.2149, 1504.015
466.6971, 1510.092
467.1792, 1515.918
467.6613, 1523.623
468.1434, 1526.056
468.6255, 1519.802
469.1076, 1511.365
469.5898, 1501.993
470.0719, 1493.865
470.5540, 1491.670
471.0361, 1498.970
471.5182, 1512.474
472.0003, 1523.224
472.4825, 1531.427
472.9646, 1536.086
473.4467, 1537.370
473.9288, 1534.491
474.4109, 1523.518
474.8930, 1505.781
475.3752, 1491.956
475.8573, 1490.076
476.3394, 1495.236
476.8215, 1501.592
477.3036, 1509.020
477.7857, 1508.669
478.2679, 1491.803
478.7500, 1467.902
479.2321, 1461.144
479.7142, 1477.504
480.1963, 1492.873
480.6784, 1503.611
481.1606, 1510.795
481.6427, 1515.253
482.1248, 1517.119
482.6069, 1516.237
483.0890, 1512.444
483.5711, 1505.873
484.0533, 1496.506
484.5354, 1477.879
485.0175, 1467.473
485.4996, 1473.985
485.9817, 1484.227
486.4638, 1488.232
486.9460, 1484.805
487.4281, 1478.182
487.9102, 1468.585
488.3923, 1458.465
488.8744, 1456.826
489.3565, 1465.318
489.8387, 1473.071
490.3208, 1474.401
490.8029, 1471.572
491.2850, 1469.564
491.7671, 1468.457
492.2492, 1467.891
492.7314, 1468.657
493.2135, 1469.402
493.6956, 1467.658
494.1777, 1463.742
494.6598, 1461.480
495.1419, 1464.289
495.6241, 1470.919
496.1062, 1473.186
496.5883, 1466.280
497.0704, 1461.665
497.5525, 1463.121
498.0346, 1465.372
498.5168, 1462.504
498.9989, 1454.864
499.4810, 1449.456
499.9631, 1455.190
500.4452, 1467.662
500.9273, 1467.766
501.4095, 1451.564
501.8916, 1439.719
502.3737, 1442.850
502.8558, 1454.838
503.3379, 1466.736
503.8200, 1479.574
504.3022, 1487.065
504.7843, 1483.328
505.2664, 1474.991
505.7485, 1468.709
506.2306, 1465.318
506.7127, 1465.115
507.1949, 1469.246
507.6770, 1475.368
508.1591, 1472.906
508.6412, 1449.800
509.1233, 1435.834
509.6054, 1440.175
510.0876, 1447.904
510.5697, 1444.809
511.0518, 1433.145
511.5339, 1429.120
512.0161, 1449.935
512.4982, 1483.180
512.9803, 1492.347
513.4624, 1473.315
513.9445, 1454.495
514.4266, 1444.470
514.9088, 1440.604
515.3909, 1440.207
515.8730, 1443.705
516.3551, 1445.123
516.8372, 1441.506
517.3193, 1435.882
517.8015, 1428.547
518.2836, 1421.248
518.7657, 1420.789
519.2478, 1431.679
519.7299, 1447.521
520.2120, 1452.647
520.6942, 1439.669
521.1763, 1429.902
521.6584, 1422.246
522.1405, 1418.392
522.6226, 1422.789
523.1047, 1431.717
523.5869, 1436.062
524.0690, 1430.176
524.5511, 1419.329
525.0332, 1411.474
525.5153, 1406.604
525.9974, 1402.928
526.4796, 1399.114
526.9617, 1397.880
527.4438, 1405.364
527.9259, 1420.116
528.4080, 1427.755
528.8901, 1421.600
529.3723, 1412.418
529.8544, 1404.239
530.3365, 1398.068
530.8186, 1395.588
531.3007, 1397.329
531.7828, 1402.315
532.2650, 1410.258
532.7471, 1422.810
533.2292, 1428.039
533.7113, 1418.025
534.1934, 1409.613
534.6755, 1407.996
535.1577, 1410.947
535.6398, 1416.722
536.1219, 1425.474
536.6040, 1430.921
537.0861, 1424.415
537.5682, 1409.812
538.0504, 1399.203
538.5325, 1394.025
539.0146, 1393.059
539.4967, 1396.711
539.9788, 1403.891
540.4609, 1409.040
540.9431, 1413.282
541.4252, 1414.316
541.9073, 1408.176
542.3894, 1400.885
542.8715, 1399.634
543.3536, 1403.945
543.8358, 1406.683
544.3179, 1401.684
544.8000, 1391.001
545.2821, 1383.578
545.7642, 1380.070
546.2463, 1378.050
546.7285, 1377.301
547.2106, 1377.635
547.6926, 1378.972
548.1747, 1381.289
548.6569, 1384.457
549.1390, 1392.165
549.6211, 1398.038
550.1032, 1391.524
550.5853, 1375.896
551.0674, 1366.488
551.5496, 1370.009
552.0317, 1379.014
552.5138, 1381.100
552.9959, 1372.701
553.4780, 1369.526
553.9601, 1374.966
554.4423, 1381.192
554.9244, 1385.672
555.4065, 1388.674
555.8886, 1391.420
556.3707, 1394.421
556.8528, 1395.636
557.3350, 1391.365
557.8171, 1382.440
558.2992, 1376.212
558.7813, 1374.456
559.2634, 1371.644
559.7455, 1361.274
560.2277, 1347.538
560.7098, 1343.477
561.1919, 1353.765
561.6740, 1365.651
562.1561, 1377.832
562.6382, 1388.019
563.1204, 1394.884
563.6025, 1397.604
564.0846, 1393.600
564.5667, 1379.869
565.0488, 1359.843
565.5309, 1346.465
566.0131, 1339.800
566.4952, 1339.655
566.9773, 1353.202
567.4594, 1367.609
567.9415, 1376.855
568.4236, 1380.203
568.9058, 1376.548
569.3879, 1359.496
569.8700, 1340.541
570.3521, 1329.708
570.8342, 1326.544
571.3163, 1331.545
571.7985, 1345.591
572.2806, 1360.671
572.7627, 1367.223
573.2448, 1364.629
573.7269, 1359.341
574.2090, 1350.109
574.6912, 1339.744
575.1733, 1323.909
575.6554, 1309.940
576.1375, 1308.066
576.6196, 1319.588
577.1017, 1332.690
577.5839, 1334.912
578.0660, 1330.159
578.5481, 1333.705
579.0302, 1347.273
579.5123, 1354.870
579.9944, 1345.477
580.4766, 1329.135
580.9587, 1326.986
581.4408, 1343.176
581.9229, 1353.315
582.4050, 1350.769
582.8871, 1344.137
583.3693, 1337.718
583.8514, 1331.953
584.3335, 1326.188
584.8156, 1320.157
585.2977, 1314.913
585.7798, 1311.762
586.2620, 1310.621
586.7441, 1312.778
587.2262, 1318.688
587.7083, 1327.345
588.1904, 1343.618
588.6725, 1360.841
589.1547, 1366.926
589.6368, 1357.126
590.1189, 1344.600
590.6010, 1333.876
591.0831, 1324.941
591.5652, 1316.795
592.0474, 1310.028
592.5295, 1308.524
593.0116, 1315.565
593.4937, 1327.721
593.9758, 1334.718
594.4579, 1336.188
594.9401, 1333.293
595.4222, 1319.730
595.9043, 1307.630
596.3864, 1302.521
596.8685, 1303.792
597.3506, 1310.407
597.8328, 1326.832
598.3149, 1338.930
598.7970, 1326.334
599.2791, 1300.084
599.7612, 1291.821
600.2433, 1307.674
600.7255, 1325.080
601.2076, 1324.819
601.6897, 1309.075
602.1718, 1295.566
602.6539, 1279.868
603.1360, 1272.992
603.6182, 1284.978
604.1003, 1298.665
604.5824, 1299.858
605.0645, 1290.097
605.5466, 1281.032
606.0287, 1279.419
606.5109, 1281.977
606.9930, 1283.913
607.4751, 1285.457
607.9572, 1289.365
608.4393, 1297.465
608.9214, 1303.421
609.4036, 1299.302
609.8857, 1285.058
610.3678, 1278.504
610.8499, 1287.704
611.3320, 1293.638
611.8141, 1290.081
612.2963, 1282.319
612.7784, 1274.470
613.2605, 1267.820
613.7426, 1263.162
614.2247, 1260.464
614.7068, 1260.700
615.1890, 1269.276
615.6711, 1286.910
616.1532, 1295.656
616.6353, 1287.210
617.1174, 1273.610
617.5995, 1267.683
618.0817, 1269.615
618.5638, 1273.520
619.0459, 1286.288
619.5280, 1292.786
620.0101, 1279.040
620.4922, 1259.757
620.9744, 1256.299
621.4565, 1270.678
621.9386, 1284.379
622.4207, 1278.993
622.9028, 1260.369
623.3849, 1252.149
623.8671, 1256.068
624.3492, 1260.394
624.8313, 1261.912
625.3134, 1262.012
625.7955, 1261.489
626.2776, 1260.398
626.7598, 1261.738
627.2419, 1268.718
627.7240, 1275.194
628.2061, 1277.049
628.6882, 1276.825
629.1703, 1278.714
629.6525, 1283.433
630.1346, 1288.111
630.6167, 1290.276
631.0988, 1289.918
631.5809, 1285.360
632.0630, 1273.710
632.5452, 1270.028
633.0273, 1287.486
633.5094, 1306.478
633.9915, 1301.153
634.4736, 1273.135
634.9557, 1254.411
635.4379, 1258.064
635.9200, 1265.554
636.4021, 1268.974
636.8842, 1268.508
637.3663, 1263.785
637.8484, 1255.355
638.3306, 1246.719
638.8127, 1240.756
639.2948, 1237.745
639.7769, 1240.341
640.2590, 1250.290
640.7411, 1259.895
641.2233, 1269.042
641.7054, 1274.818
642.1875, 1271.865
642.6696, 1261.185
643.1517, 1255.757
643.6339, 1264.928
644.1160, 1272.873
644.5981, 1268.466
645.0802, 1258.177
645.5623, 1252.642
646.0444, 1253.698
646.5266, 1254.495
647.0087, 1247.439
647.4908, 1235.540
647.9729, 1235.578
648.4550, 1252.665
648.9371, 1260.411
649.4193, 1244.874
649.9014, 1225.542
650.3835, 1223.168
650.8656, 1235.055
651.3477, 1242.132
651.8298, 1236.319
652.3120, 1230.619
652.7941, 1233.233
653.2762, 1238.571
653.7583, 1237.694
654.2404, 1230.257
654.7225, 1224.422
655.2047, 1227.384
655.6868, 1236.156
656.1689, 1240.771
656.6510, 1240.641
657.1331, 1239.705
657.6152, 1237.498
658.0974, 1236.575
658.5795, 1243.395
659.0616, 1254.658
659.5437, 1254.476
660.0258, 1225.847
660.5079, 1204.966
660.9901, 1209.217
661.4722, 1224.027
661.9543, 1237.079
662.4364, 1245.367
662.9185, 1247.567
663.4006, 1241.694
663.8828, 1232.324
664.3649, 1229.298
664.8470, 1232.762
665.3291, 1238.994
665.8112, 1250.288
666.2933, 1257.209
666.7755, 1248.929
667.2576, 1230.321
667.7397, 1222.869
668.2218, 1234.062
668.7039, 1244.114
669.1860, 1249.672
669.6682, 1252.337
670.1503, 1252.344
670.6324, 1250.650
671.1145, 1249.012
671.5966, 1248.234
672.0787, 1248.318
672.5609, 1250.910
673.0430, 1255.038
673.5251, 1251.997
674.0072, 1239.284
674.4893, 1229.624
674.9714, 1231.945
675.4536, 1241.351
675.9357, 1244.960
676.4178, 1239.022
676.8999, 1235.495
677.3820, 1235.963
677.8641, 1237.597
678.3463, 1240.425
678.8284, 1242.907
679.3105, 1241.700
679.7926, 1235.758
680.2747, 1231.164
680.7568, 1236.599
681.2390, 1246.918
681.7211, 1249.272
682.2032, 1243.452
682.6853, 1234.745
683.1674, 1223.882
683.6495, 1216.576
684.1317, 1223.909
684.6138, 1251.688
685.0959, 1263.110
685.5780, 1242.048
686.0601, 1223.936
686.5422, 1218.119
687.0244, 1218.843
687.5065, 1220.512
687.9886, 1222.203
688.4707, 1224.766
688.9528, 1230.616
689.4349, 1236.106
689.9171, 1236.992
690.3992, 1234.054
690.8813, 1229.023
691.3634, 1222.453
691.8455, 1215.749
692.3276, 1209.783
692.8098, 1205.057
693.2919, 1207.270
693.7740, 1222.589
694.2561, 1231.072
694.7382, 1222.069
695.2203, 1211.364
695.7025, 1209.315
696.1846, 1214.700
696.6667, 1222.205
697.1488, 1232.839
697.6309, 1241.834
698.1130, 1247.189
698.5952, 1249.122
699.0773, 1246.599
699.5594, 1240.591
700.0415, 1234.840
700.5236, 1231.689
701.0057, 1229.810
701.4879, 1225.778
701.9700, 1219.317
702.4521, 1216.636
702.9342, 1219.367
703.4163, 1222.961
703.8984, 1223.184
704.3806, 1223.102
704.8627, 1231.773
705.3448, 1256.285
705.8269, 1268.744
706.3090, 1255.472
706.7911, 1239.046
707.2733, 1233.345
707.7554, 1233.729
708.2375, 1229.557
708.7196, 1217.979
709.2017, 1208.997
709.6838, 1215.980
710.1660, 1231.805
710.6481, 1236.949
711.1302, 1231.866
711.6123, 1229.515
712.0944, 1235.228
712.5765, 1242.224
713.0587, 1242.032
713.5408, 1234.338
714.0229, 1225.964
714.5050, 1210.711
714.9871, 1203.590
715.4692, 1214.674
715.9514, 1228.532
716.4335, 1231.514
716.9156, 1225.110
717.3977, 1220.994
717.8798, 1225.598
718.3619, 1231.533
718.8441, 1233.096
719.3262, 1231.924
719.8083, 1230.088
720.2904, 1228.259
720.7725, 1227.694
721.2546, 1229.322
721.7368, 1232.416
722.2189, 1235.222
722.7010, 1237.626
723.1831, 1240.983
723.6652, 1247.377
724.1473, 1250.785
724.6295, 1246.388
725.1116, 1237.223
725.5937, 1229.093
726.0758, 1221.270
726.5579, 1217.317
727.0400, 1222.442
727.5222, 1226.963
728.0043, 1221.125
728.4864, 1212.258
728.9685, 1216.901
729.4506, 1237.431
729.9327, 1251.021
730.4149, 1225.184
730.8970, 1182.520
731.3791, 1182.381
731.8612, 1219.250
732.3433, 1238.079
732.8254, 1220.887
733.3076, 1194.701
733.7897, 1186.866
734.2718, 1196.005
734.7539, 1203.738
735.2360, 1210.598
735.7181, 1215.143
736.2003, 1216.677
736.6824, 1216.486
737.1645, 1215.569
737.6466, 1213.557
738.1287, 1208.440
738.6108, 1196.205
739.0930, 1189.332
739.5751, 1201.324
740.0572, 1218.091
740.5393, 1222.311
741.0214, 1215.705
741.5035, 1208.110
741.9857, 1204.131
742.4678, 1204.698
742.9499, 1214.551
743.4320, 1232.362
743.9141, 1237.695
744.3962, 1227.540
744.8784, 1220.632
745.3605, 1225.901
745.8426, 1235.278
746.3247, 1238.198
746.8068, 1234.127
747.2889, 1228.035
747.7711, 1214.161
748.2532, 1205.750
748.7353, 1209.287
749.2174, 1217.041
749.6995, 1224.115
750.1816, 1228.974
750.6638, 1229.052
751.1459, 1220.494
751.6280, 1211.761
752.1101, 1212.643
752.5922, 1218.197
753.0743, 1218.005
753.5565, 1211.869
754.0386, 1208.568
754.5207, 1213.799
755.0028, 1220.871
755.4849, 1213.559
755.9670, 1188.812
756.4492, 1180.398
756.9313, 1195.898
757.4134, 1209.887
757.8955, 1208.736
758.3776, 1202.060
758.8597, 1207.088
759.3419, 1225.847
759.8240, 1233.680
760.3061, 1218.003
760.7882, 1203.784
761.2703, 1202.177
761.7524, 1205.569
762.2346, 1205.359
762.7167, 1201.204
763.1988, 1198.380
763.6809, 1200.070
764.1630, 1204.035
764.6451, 1211.661
765.1273, 1218.846
765.6094, 1210.957
766.0915, 1188.219
766.5736, 1172.248
767.0557, 1177.017
767.5378, 1193.803
768.0200, 1204.901
768.5021, 1210.449
768.9842, 1207.930
769.4663, 1191.534
769.9484, 1179.589
770.4305, 1183.609
770.9127, 1194.010
771.3948, 1195.370
771.8769, 1186.477
772.3590, 1184.763
772.8411, 1202.989
773.3232, 1215.787
773.8054, 1206.204
774.2875, 1191.034
774.7696, 1191.076
775.2517, 1204.838
775.7338, 1212.791
776.2159, 1200.996
776.6981, 1185.956
777.1802, 1187.601
777.6623, 1199.782
778.1444, 1209.719
778.6265, 1215.514
779.1086, 1217.462
779.5908, 1215.558
780.0729, 1210.938
780.5550, 1204.741
781.0371, 1196.381
781.5192, 1192.972
782.0013, 1196.187
782.4835, 1199.823
782.9656, 1200.866
783.4477, 1201.846
783.9298, 1207.187
784.4119, 1217.079
784.8940, 1222.607
785.3762, 1219.024
785.8583, 1216.680
786.3404, 1221.162
786.8225, 1225.794
787.3046, 1222.781
787.7867, 1214.500
788.2689, 1210.741
788.7510, 1217.092
789.2331, 1224.052
789.7152, 1223.058
790.1973, 1217.772
790.6794, 1213.908
791.1616, 1211.482
791.6437, 1207.088
792.1258, 1199.216
792.6079, 1193.184
793.0900, 1197.560
793.5721, 1210.935
794.0543, 1219.666
794.5364, 1223.780
795.0185, 1222.557
795.5006, 1213.782
795.9827, 1203.549
796.4648, 1195.814
796.9470, 1191.281
797.4291, 1197.741
797.9112, 1234.725
798.3933, 1254.463
798.8754, 1239.678
799.3575, 1222.199
799.8397, 1222.727
800.3218, 1233.022
800.8039, 1234.778
801.2860, 1222.434
801.7681, 1211.647
802.2502, 1214.312
802.7324, 1218.386
803.2145, 1210.994
803.6966, 1197.357
804.1787, 1187.404
804.6608, 1183.959
805.1429, 1185.279
805.6251, 1190.450
806.1072, 1198.665
806.5893, 1211.404
807.0714, 1226.976
807.5535, 1229.579
808.0356, 1215.668
808.5178, 1203.406
808.9999, 1205.514
809.4820, 1215.934
809.9641, 1219.208
810.4462, 1213.115
810.9283, 1207.599
811.4105, 1199.250
811.8926, 1197.106
812.3747, 1210.993
812.8568, 1228.697
813.3389, 1235.375
813.8210, 1230.935
814.3032, 1227.814
814.7853, 1227.340
815.2674, 1229.043
815.7495, 1233.478
816.2316, 1239.455
816.7137, 1248.796
817.1959, 1258.641
817.6780, 1260.625
818.1601, 1249.628
818.6422, 1237.824
819.1243, 1236.699
819.6064, 1240.701
820.0886, 1241.578
820.5707, 1239.556
821.0528, 1238.112
821.5349, 1238.381
822.0170, 1237.255
822.4991, 1229.564
822.9813, 1218.532
823.4634, 1220.868
823.9455, 1237.646
824.4276, 1243.793
824.9097, 1231.070
825.3918, 1219.511
825.8740, 1225.396
826.3561, 1243.104
826.8382, 1253.750
827.3203, 1255.409
827.8024, 1254.355
828.2845, 1247.272
828.7667, 1241.550
829.2488, 1242.232
829.7309, 1244.263
830.2130, 1239.106
830.6951, 1226.467
831.1772, 1222.700
831.6594, 1239.830
832.1415, 1256.661
832.6236, 1265.810
833.1057, 1268.936
833.5878, 1263.857
834.0699, 1254.573
834.5521, 1252.697
835.0342, 1264.760
835.5163, 1277.656
835.9984, 1276.932
836.4805, 1270.411
836.9626, 1272.416
837.4448, 1280.787
837.9269, 1284.168
838.4090, 1278.935
838.8911, 1271.626
839.3732, 1268.890
839.8553, 1269.798
840.3375, 1270.770
840.8196, 1271.771
841.3017, 1276.007
841.7838, 1285.606
842.2659, 1289.873
842.7480, 1279.020
843.2302, 1261.167
843.7123, 1257.440
844.1944, 1273.146
844.6765, 1285.417
845.1586, 1294.345
845.6407, 1299.686
846.1229, 1298.523
846.6050, 1295.681
847.0871, 1297.239
847.5692, 1302.536
848.0513, 1302.660
848.5334, 1288.371
849.0156, 1279.648
849.4977, 1287.193
849.9798, 1297.576
850.4619, 1300.425
850.9440, 1297.762
851.4261, 1295.983
851.9083, 1297.150
852.3904, 1297.587
852.8725, 1292.118
853.3546, 1287.031
853.8367, 1289.367
854.3188, 1297.130
854.8010, 1307.817
855.2831, 1319.634
855.7652, 1327.356
856.2473, 1326.713
856.7294, 1321.017
857.2115, 1314.925
857.6937, 1308.790
858.1758, 1303.929
858.6579, 1300.510
859.1400, 1299.463
859.6221, 1301.466
860.1042, 1304.149
860.5864, 1303.603
861.0685, 1300.090
861.5506, 1301.447
862.0327, 1309.417
862.5148, 1315.032
862.9969, 1314.441
863.4791, 1315.169
863.9612, 1326.029
864.4433, 1342.159
864.9254, 1345.067
865.4075, 1322.392
865.8896, 1312.382
866.3718, 1321.534
866.8539, 1334.982
867.3360, 1352.849
867.8181, 1368.989
868.3002, 1375.546
868.7823, 1372.633
869.2645, 1369.063
869.7466, 1369.235
870.2287, 1366.347
870.7108, 1352.843
871.1929, 1339.306
871.6750, 1334.749
872.1572, 1338.171
872.6393, 1347.055
873.1214, 1360.960
873.6035, 1370.884
874.0856, 1367.949
874.5677, 1359.666
875.0499, 1352.821
875.5320, 1347.714
876.0141, 1343.994
876.4962, 1341.859
876.9783, 1342.884
877.4604, 1348.497
877.9426, 1356.292
878.4247, 1364.727
878.9068, 1371.984
879.3889, 1369.491
879.8710, 1357.520
880.3531, 1344.073
880.8353, 1331.953
881.3174, 1327.889
881.7995, 1343.038
882.2816, 1372.200
882.7637, 1380.135
883.2458, 1363.530
883.7280, 1350.364
884.2101, 1345.978
884.6922, 1342.729
885.1743, 1335.161
885.6564, 1326.284
886.1385, 1322.865
886.6207, 1326.130
887.1028, 1329.400
887.5849, 1332.671
888.0670, 1335.926
888.5491, 1338.351
889.0313, 1341.474
889.5134, 1349.329
889.9955, 1359.569
890.4776, 1361.094
890.9597, 1345.030
891.4418, 1334.994
891.9240, 1337.850
892.4061, 1343.465
892.8882, 1350.421
893.3703, 1354.743
893.8524, 1347.875
894.3345, 1330.353
894.8167, 1321.501
895.2988, 1337.502
895.7809, 1353.834
896.2630, 1357.880
896.7451, 1355.394
897.2272, 1349.639
897.7094, 1343.113
898.1915, 1339.385
898.6736, 1339.722
899.1557, 1343.677
899.6378, 1353.519
900.1199, 1364.704
900.6021, 1372.807
901.0842, 1377.515
901.5663, 1378.416
902.0484, 1375.512
902.5305, 1368.032
903.0126, 1354.617
903.4948, 1342.077
903.9769, 1343.048
904.4590, 1352.696
904.9411, 1356.132
905.4232, 1353.159
905.9053, 1346.143
906.3875, 1335.977
906.8696, 1331.540
907.3517, 1343.638
907.8338, 1364.253
908.3159, 1364.388
908.7980, 1343.840
909.2802, 1333.324
909.7623, 1337.141
910.2444, 1342.133
910.7265, 1341.577
911.2086, 1340.331
911.6907, 1346.442
912.1729, 1359.712
912.6550, 1364.825
913.1371, 1359.924
913.6192, 1351.999
914.1013, 1338.227
914.5834, 1329.567
915.0656, 1336.810
915.5477, 1351.870
916.0298, 1355.797
916.5119, 1345.334
916.9940, 1335.804
917.4761, 1324.256
917.9583, 1317.853
918.4404, 1323.263
918.9225, 1330.059
919.4046, 1327.526
919.8867, 1319.281
920.3688, 1319.697
920.8510, 1336.578
921.3331, 1347.109
921.8152, 1340.794
922.2973, 1335.831
922.7794, 1347.612
923.2615, 1360.779
923.7437, 1351.177
924.2258, 1321.926
924.7079, 1307.885
925.1900, 1330.406
925.6721, 1351.655
926.1542, 1355.018
926.6364, 1352.225
927.1185, 1351.211
927.6006, 1351.363
928.0827, 1349.481
928.5648, 1345.212
929.0469, 1342.914
929.5291, 1349.603
930.0112, 1353.844
930.4933, 1342.279
930.9754, 1326.593
931.4575, 1321.358
931.9396, 1325.486
932.4218, 1331.661
932.9039, 1337.173
933.3860, 1342.305
933.8681, 1349.583
934.3502, 1354.773
934.8323, 1349.302
935.3145, 1338.579
935.7966, 1333.813
936.2787, 1335.930
936.7608, 1340.427
937.2429, 1345.147
937.7250, 1347.657
938.2072, 1344.195
938.6893, 1336.626
939.1714, 1325.942
939.6535, 1314.840
940.1356, 1316.052
940.6177, 1331.005
941.0999, 1344.330
941.5820, 1345.081
942.0641, 1338.680
942.5462, 1334.562
943.0283, 1331.988
943.5104, 1324.334
943.9926, 1312.440
944.4747, 1313.355
944.9568, 1332.709
945.4389, 1350.539
945.9210, 1347.665
946.4031, 1332.822
946.8853, 1331.089
947.3674, 1342.401
947.8495, 1353.676
948.3316, 1364.836
948.8137, 1364.682
949.2958, 1346.384
949.7780, 1328.391
950.2601, 1333.401
950.7422, 1355.223
951.2243, 1358.403
951.7064, 1338.482
952.1885, 1330.798
952.6707, 1343.187
953.1528, 1350.001
953.6349, 1336.732
954.1170, 1317.552
954.5991, 1312.006
955.0812, 1319.365
955.5634, 1322.352
956.0455, 1318.325
956.5276, 1318.582
957.0097, 1327.598
957.4918, 1334.351
957.9739, 1331.200
958.4561, 1324.212
958.9382, 1323.969
959.4203, 1331.307
959.9024, 1333.132
960.3845, 1325.391
960.8666, 1320.069
961.3488, 1317.031
961.8309, 1319.669
962.3130, 1336.640
962.7951, 1357.343
963.2772, 1359.787
963.7593, 1340.093
964.2415, 1322.853
964.7236, 1307.452
965.2057, 1295.403
965.6878, 1281.096
966.1699, 1275.899
966.6520, 1297.149
967.1342, 1330.604
967.6163, 1341.696
968.0984, 1322.088
968.5805, 1310.583
969.0626, 1315.784
969.5447, 1320.219
970.0269, 1318.495
970.5090, 1315.374
970.9911, 1314.205
971.4732, 1314.616
971.9553, 1315.626
972.4374, 1317.966
972.9196, 1317.941
973.4017, 1309.497
973.8838, 1305.688
974.3659, 1315.867
974.8480, 1328.624
975.3301, 1335.670
975.8123, 1336.563
976.2944, 1330.427
976.7765, 1312.577
977.2586, 1303.028
977.7407, 1315.083
978.2228, 1325.603
978.7050, 1321.341
979.1871, 1313.128
979.6692, 1312.081
980.1513, 1317.084
980.6334, 1320.927
981.1155, 1321.676
981.5977, 1322.446
982.0798, 1324.670
982.5619, 1326.541
983.0440, 1328.194
983.5261, 1328.256
984.0082, 1323.956
984.4904, 1316.627
984.9725, 1311.603
985.4546, 1310.695
985.9367, 1310.919
986.4188, 1314.269
986.9009, 1314.979
987.3831, 1304.127
987.8652, 1292.564
988.3473, 1297.462
988.8294, 1314.654
989.3115, 1320.099
989.7936, 1300.757
990.2758, 1286.462
990.7579, 1293.998
991.2400, 1305.566
991.7221, 1312.040
992.2042, 1314.388
992.6863, 1314.128
993.1685, 1311.749
993.6506, 1307.373
994.1327, 1299.110
994.6148, 1294.587
995.0969, 1300.445
995.5790, 1307.712
996.0612, 1311.716
996.5433, 1312.573
997.0254, 1310.080
997.5075, 1304.953
997.9896, 1298.650
998.4717, 1288.469
998.9539, 1286.899
999.4360, 1310.862
999.9181, 1333.528
1000.400, 1333.397
1000.882, 1322.494
1001.364, 1315.302
1001.847, 1313.485
1002.329, 1314.351
1002.811, 1319.338
1003.293, 1319.438
1003.775, 1301.045
1004.257, 1286.443
1004.739, 1297.776
1005.221, 1317.609
1005.703, 1323.259
1006.186, 1315.009
1006.668, 1305.891
1007.150, 1298.581
1007.632, 1296.522
1008.114, 1305.935
1008.596, 1315.961
1009.078, 1321.266
1009.560, 1321.947
1010.043, 1316.735
1010.525, 1307.410
1011.007, 1299.601
1011.489, 1294.933
1011.971, 1292.130
1012.453, 1289.809
1012.935, 1290.100
1013.417, 1297.772
1013.899, 1306.232
1014.382, 1307.236
1014.864, 1302.137
1015.346, 1297.270
1015.828, 1293.025
1016.310, 1294.970
1016.792, 1313.462
1017.274, 1329.003
1017.756, 1328.742
1018.239, 1321.997
1018.721, 1317.018
1019.203, 1314.546
1019.685, 1313.198
1020.167, 1312.446
1020.649, 1313.893
1021.131, 1323.012
1021.613, 1328.306
1022.095, 1321.784
1022.578, 1311.339
1023.060, 1301.002
1023.542, 1293.538
1024.024, 1295.963
1024.506, 1312.185
1024.988, 1320.884
1025.470, 1306.812
1025.952, 1297.007
1026.435, 1307.233
1026.917, 1320.400
1027.399, 1320.632
1027.881, 1313.674
1028.363, 1315.485
1028.845, 1330.262
1029.327, 1334.677
1029.809, 1313.026
1030.292, 1296.459
1030.774, 1294.121
1031.256, 1298.653
1031.738, 1310.257
1032.220, 1322.989
1032.702, 1325.382
1033.184, 1315.618
1033.666, 1310.378
1034.148, 1316.052
1034.630, 1319.459
1035.113, 1317.943
1035.595, 1314.218
1036.077, 1306.420
1036.559, 1299.097
1037.041, 1300.798
1037.523, 1312.010
1038.005, 1317.236
1038.487, 1310.963
1038.970, 1307.437
1039.452, 1308.993
1039.934, 1311.474
1040.416, 1314.182
1040.898, 1315.938
1041.380, 1314.752
1041.862, 1310.994
1042.344, 1308.757
1042.826, 1308.350
1043.309, 1309.114
1043.791, 1313.723
1044.273, 1314.087
1044.755, 1303.906
1045.237, 1293.075
1045.719, 1292.720
1046.201, 1299.982
1046.683, 1300.835
1047.166, 1291.215
1047.648, 1289.620
1048.130, 1298.857
1048.612, 1308.728
1049.094, 1317.698
1049.576, 1321.768
1050.058, 1314.853
1050.540, 1304.089
1051.022, 1311.552
1051.505, 1340.679
1051.987, 1352.467
1052.469, 1344.367
1052.951, 1333.688
1053.433, 1323.749
1053.915, 1315.354
1054.397, 1308.546
1054.879, 1305.094
1055.361, 1309.880
1055.844, 1321.652
1056.326, 1324.289
1056.808, 1317.856
1057.290, 1314.354
1057.772, 1315.835
1058.254, 1319.624
1058.736, 1324.402
1059.218, 1330.130
1059.701, 1338.590
1060.183, 1346.387
1060.665, 1338.027
1061.147, 1317.607
1061.629, 1308.355
1062.111, 1311.885
1062.593, 1318.120
1063.075, 1323.013
1063.557, 1327.776
1064.040, 1334.153
1064.522, 1339.806
1065.004, 1340.479
1065.486, 1337.016
1065.968, 1327.589
1066.450, 1316.054
1066.932, 1316.906
1067.414, 1332.208
1067.896, 1347.167
1068.379, 1351.618
1068.861, 1351.833
1069.343, 1355.934
1069.825, 1359.399
1070.307, 1352.573
1070.789, 1341.513
1071.271, 1341.098
1071.753, 1350.195
1072.236, 1352.066
1072.718, 1337.809
1073.200, 1325.242
1073.682, 1331.615
1074.164, 1340.400
1074.646, 1334.584
1075.128, 1325.403
1075.610, 1330.989
1076.093, 1345.147
1076.575, 1345.148
1077.057, 1324.353
1077.539, 1311.188
1078.021, 1325.926
1078.503, 1340.515
1078.985, 1340.340
1079.467, 1337.043
1079.949, 1338.695
1080.432, 1344.104
1080.914, 1352.198
1081.396, 1362.273
1081.878, 1365.828
1082.360, 1355.478
1082.842, 1347.534
1083.324, 1346.101
1083.806, 1345.588
1084.288, 1341.909
1084.771, 1339.109
1085.253, 1344.026
1085.735, 1354.124
1086.217, 1356.608
1086.699, 1347.667
1087.181, 1341.141
1087.663, 1337.043
1088.145, 1335.530
1088.628, 1337.568
1089.110, 1340.497
1089.592, 1342.372
1090.074, 1343.878
1090.556, 1346.921
1091.038, 1351.680
1091.520, 1351.798
1092.002, 1345.861
1092.484, 1345.271
1092.967, 1352.868
1093.449, 1358.957
1093.931, 1358.448
1094.413, 1355.436
1094.895, 1355.561
1095.377, 1356.987
1095.859, 1350.554
1096.341, 1338.191
1096.823, 1336.807
1097.306, 1346.497
1097.788, 1353.271
1098.270, 1352.968
1098.752, 1355.863
1099.234, 1371.553
1099.716, 1388.579
1100.198, 1386.184
1100.680, 1374.039
1101.163, 1372.074
1101.645, 1377.281
1102.127, 1380.595
1102.609, 1380.432
1103.091, 1377.953
1103.573, 1373.381
1104.055, 1372.601
1104.537, 1385.605
1105.020, 1399.116
1105.502, 1401.220
1105.984, 1396.471
1106.466, 1386.254
1106.948, 1375.469
1107.430, 1375.206
1107.912, 1386.835
1108.394, 1392.926
1108.876, 1377.309
1109.359, 1368.665
1109.841, 1389.254
1110.323, 1407.030
1110.805, 1395.780
1111.287, 1375.162
1111.769, 1369.995
1112.251, 1378.897
1112.733, 1386.553
1113.215, 1392.493
1113.698, 1395.034
1114.180, 1393.481
1114.662, 1389.552
1115.144, 1382.097
1115.626, 1374.044
1116.108, 1364.183
1116.590, 1358.462
1117.072, 1370.777
1117.555, 1401.294
1118.037, 1413.405
1118.519, 1402.796
1119.001, 1399.257
1119.483, 1407.932
1119.965, 1411.292
1120.447, 1400.826
1120.929, 1390.930
1121.411, 1397.975
1121.894, 1412.832
1122.376, 1408.486
1122.858, 1390.107
1123.340, 1384.991
1123.822, 1392.407
1124.304, 1403.002
1124.786, 1413.772
1125.268, 1421.952
1125.750, 1426.011
1126.233, 1426.117
1126.715, 1419.394
1127.197, 1411.389
1127.679, 1410.579
1128.161, 1413.339
1128.643, 1414.830
1129.125, 1414.296
1129.607, 1410.672
1130.090, 1404.309
1130.572, 1400.980
1131.054, 1404.307
1131.536, 1410.053
1132.018, 1418.451
1132.500, 1425.834
1132.982, 1432.200
1133.464, 1434.340
1133.947, 1425.872
1134.429, 1409.736
1134.911, 1397.990
1135.393, 1392.593
1135.875, 1389.838
1136.357, 1388.751
1136.839, 1391.713
1137.321, 1402.620
1137.803, 1412.520
1138.286, 1415.782
1138.768, 1415.749
1139.250, 1416.838
1139.732, 1419.202
1140.214, 1425.634
1140.696, 1437.697
1141.178, 1440.879
1141.660, 1433.477
1142.142, 1424.628
1142.625, 1416.816
1143.107, 1416.712
1143.589, 1430.707
1144.071, 1449.296
1144.553, 1456.822
1145.035, 1455.240
1145.517, 1445.713
1145.999, 1433.001
1146.482, 1435.260
1146.964, 1449.852
1147.446, 1454.926
1147.928, 1442.923
1148.410, 1429.784
1148.892, 1424.987
1149.374, 1427.772
1149.856, 1444.386
1150.339, 1461.770
1150.821, 1465.218
1151.303, 1461.552
1151.785, 1462.058
1152.267, 1466.881
1152.749, 1469.515
1153.231, 1468.202
1153.713, 1465.391
1154.195, 1457.484
1154.677, 1453.912
1155.160, 1465.667
1155.642, 1473.396
1156.124, 1460.699
1156.606, 1440.662
1157.088, 1431.881
1157.570, 1433.683
1158.052, 1438.793
1158.534, 1448.550
1159.017, 1455.371
1159.499, 1458.571
1159.981, 1459.780
1160.463, 1458.929
1160.945, 1461.790
1161.427, 1473.610
1161.909, 1486.136
1162.391, 1482.619
1162.874, 1469.526
1163.356, 1470.497
1163.838, 1480.447
1164.320, 1481.504
1164.802, 1474.699
1165.284, 1475.140
1165.766, 1486.290
1166.248, 1491.811
1166.730, 1477.578
1167.213, 1462.602
1167.695, 1462.396
1168.177, 1468.582
1168.659, 1478.031
1169.141, 1486.227
1169.623, 1488.070
1170.105, 1484.303
1170.587, 1476.569
1171.069, 1463.552
1171.552, 1460.348
1172.034, 1482.434
1172.516, 1494.372
1172.998, 1482.896
1173.480, 1471.730
1173.962, 1470.151
1174.444, 1474.500
1174.926, 1482.512
1175.409, 1492.163
1175.891, 1495.153
1176.373, 1490.545
1176.855, 1495.587
1177.337, 1510.783
1177.819, 1508.424
1178.301, 1484.127
1178.783, 1475.109
1179.266, 1499.575
1179.748, 1525.437
1180.230, 1516.568
1180.712, 1492.727
1181.194, 1483.657
1181.676, 1483.459
1182.158, 1481.602
1182.640, 1480.793
1183.122, 1490.490
1183.604, 1508.975
1184.087, 1525.246
1184.569, 1536.379
1185.051, 1536.254
1185.533, 1509.815
1186.015, 1488.287
1186.497, 1486.277
1186.979, 1492.112
1187.461, 1503.754
1187.944, 1514.169
1188.426, 1513.093
1188.908, 1502.278
1189.390, 1492.115
1189.872, 1481.267
1190.354, 1475.691
1190.836, 1475.568
1191.318, 1480.760
1191.801, 1492.118
1192.283, 1502.856
1192.765, 1509.205
1193.247, 1512.126
1193.729, 1512.244
1194.211, 1510.761
1194.693, 1509.968
1195.175, 1510.210
1195.657, 1513.240
1196.140, 1517.950
1196.622, 1523.290
1197.104, 1527.146
1197.586, 1519.443
1198.068, 1493.556
1198.550, 1478.996
1199.032, 1504.710
1199.514, 1533.472
1199.996, 1551.467
1200.479, 1556.581
1200.961, 1534.097
1201.443, 1506.032
1201.925, 1510.600
1202.407, 1542.699
1202.889, 1548.932
1203.371, 1512.395
1203.853, 1506.668
1204.336, 1546.177
1204.818, 1568.018
1205.300, 1555.923
1205.782, 1542.600
1206.264, 1545.814
1206.746, 1553.558
1207.228, 1551.123
1207.710, 1543.596
1208.193, 1544.564
1208.675, 1550.636
1209.157, 1551.525
1209.639, 1548.772
1210.121, 1549.310
1210.603, 1552.936
1211.085, 1551.748
1211.567, 1542.412
1212.049, 1538.175
1212.531, 1553.420
1213.014, 1567.447
1213.496, 1568.372
1213.978, 1565.303
1214.460, 1566.813
1214.942, 1566.340
1215.424, 1547.483
1215.906, 1519.911
1216.388, 1521.257
1216.871, 1558.449
1217.353, 1582.121
1217.835, 1590.835
1218.317, 1590.844
1218.799, 1581.462
1219.281, 1574.798
1219.763, 1576.164
1220.245, 1577.531
1220.728, 1571.502
1221.210, 1561.354
1221.692, 1548.849
1222.174, 1538.947
1222.656, 1546.595
1223.138, 1562.627
1223.620, 1567.673
1224.102, 1563.068
1224.584, 1560.049
1225.067, 1561.531
1225.549, 1563.321
1226.031, 1564.145
1226.513, 1564.009
1226.995, 1563.874
1227.477, 1561.539
1227.959, 1550.088
1228.441, 1542.559
1228.923, 1551.269
1229.406, 1567.462
1229.888, 1575.967
1230.370, 1577.662
1230.852, 1582.523
1231.334, 1590.932
1231.816, 1590.109
1232.298, 1580.069
1232.780, 1581.568
1233.263, 1598.440
1233.745, 1608.767
1234.227, 1599.816
1234.709, 1589.320
1235.191, 1599.922
1235.673, 1613.610
1236.155, 1607.344
1236.637, 1596.100
1237.120, 1599.527
1237.602, 1608.269
1238.084, 1603.079
1238.566, 1586.872
1239.048, 1582.165
1239.530, 1598.454
1240.012, 1600.126
1240.494, 1570.936
1240.976, 1556.576
1241.458, 1567.093
1241.941, 1581.054
1242.423, 1590.212
1242.905, 1597.697
##END=



