##NAMES=Gadolinite-(Y)
##RRUFFID=R080129
##IDEAL CHEMISTRY=Fe^2+^Be_2_Y^3+^_2_(SiO_4_)_2_O_2_
##LOCALITY=Ytterøya mine, Røvika, Ytterøya (island), Levanger, Nord-Trøndelag, Norway
##OWNER=RRUFF
##SOURCE=Michael Scott
##DESCRIPTION=Reddish-brown fragment from metamict sample R070340, after heating at T = 1000 C for 23 hours
##STATUS=The identification of this mineral has been confirmed only by X-ray diffraction
##URL=rruff.info/R080129
91.00781, 11.61824
91.48993, 12.22644
91.97205, 12.47000
92.45416, 11.98856
92.93628, 11.15813
93.41840, 10.86678
93.90051, 11.40073
94.38263, 12.27082
94.86475, 12.69302
95.34686, 12.67053
95.82898, 12.51401
96.31110, 12.44548
96.79321, 12.45709
97.27533, 12.45767
97.75745, 12.37632
98.23956, 12.27405
98.72168, 12.45459
99.20380, 12.97033
99.68591, 13.59851
100.1680, 14.08468
100.6501, 14.38536
101.1323, 14.73813
101.6144, 15.23030
102.0965, 15.87807
102.5786, 16.43684
103.0607, 16.80810
103.5428, 17.18069
104.0250, 17.88634
104.5071, 19.00565
104.9892, 20.31424
105.4713, 21.74520
105.9534, 23.38406
106.4355, 24.95778
106.9177, 26.53373
107.3998, 28.04797
107.8819, 29.33786
108.3640, 29.92942
108.8461, 30.66133
109.3282, 31.93943
109.8104, 34.48137
110.2925, 36.71624
110.7746, 38.34517
111.2567, 39.46315
111.7388, 40.88802
112.2209, 42.87865
112.7031, 45.09159
113.1852, 47.31362
113.6673, 49.48161
114.1494, 51.65755
114.6315, 53.83757
115.1136, 56.03848
115.5958, 58.33790
116.0779, 60.95263
116.5600, 63.62382
117.0421, 66.05088
117.5242, 67.77073
118.0063, 69.51412
118.4885, 71.71943
118.9706, 74.47862
119.4527, 77.40262
119.9348, 80.19450
120.4169, 82.99105
120.8990, 86.09286
121.3812, 90.65228
121.8633, 95.09839
122.3454, 97.75160
122.8275, 98.01170
123.3096, 97.40366
123.7917, 96.87867
124.2739, 96.48817
124.7560, 96.42083
125.2381, 96.81480
125.7202, 97.61335
126.2023, 98.71170
126.6844, 100.0997
127.1666, 101.7702
127.6487, 103.9835
128.1308, 106.6989
128.6129, 109.1050
129.0950, 110.3539
129.5771, 110.7120
130.0593, 111.1402
130.5414, 111.9469
131.0235, 112.9882
131.5056, 113.6852
131.9877, 113.5743
132.4698, 113.1074
132.9520, 113.3864
133.4341, 114.3764
133.9162, 115.5876
134.3983, 116.9066
134.8804, 118.3160
135.3625, 119.6889
135.8447, 120.9955
136.3268, 122.3588
136.8089, 124.1248
137.2910, 126.4343
137.7731, 128.3789
138.2552, 129.7609
138.7374, 130.6441
139.2195, 130.3781
139.7016, 128.6438
140.1837, 126.0819
140.6658, 123.9611
141.1479, 122.2044
141.6301, 120.9736
142.1122, 120.3937
142.5943, 120.6890
143.0764, 120.9922
143.5585, 121.2588
144.0406, 121.5153
144.5228, 121.8904
145.0049, 122.4983
145.4870, 123.0774
145.9691, 123.5021
146.4512, 123.9313
146.9333, 123.9484
147.4155, 123.2937
147.8976, 122.0727
148.3797, 121.3339
148.8618, 121.3025
149.3439, 121.5789
149.8260, 121.9033
150.3082, 122.4512
150.7903, 122.8545
151.2724, 122.9820
151.7545, 122.8201
152.2366, 122.8788
152.7188, 123.3028
153.2009, 123.8852
153.6830, 124.4553
154.1651, 125.7524
154.6472, 126.3019
155.1293, 125.4176
155.6115, 122.8644
156.0936, 120.7976
156.5757, 119.7432
157.0578, 119.2901
157.5399, 119.0070
158.0220, 118.8131
158.5042, 118.7584
158.9863, 118.9198
159.4684, 119.3625
159.9505, 119.7290
160.4326, 119.7368
160.9147, 119.6304
161.3969, 119.7725
161.8790, 120.8933
162.3611, 121.8619
162.8432, 121.9485
163.3253, 120.7703
163.8074, 119.6084
164.2896, 119.0728
164.7717, 118.9630
165.2538, 118.8815
165.7359, 118.4325
166.2180, 118.0623
166.7001, 118.1777
167.1823, 119.0599
167.6644, 119.9528
168.1465, 120.3078
168.6286, 120.2777
169.1107, 120.2928
169.5928, 120.8624
170.0750, 121.4839
170.5571, 121.6037
171.0392, 120.9094
171.5213, 120.0019
172.0034, 119.2752
172.4855, 118.7291
172.9677, 118.3762
173.4498, 118.3320
173.9319, 118.4552
174.4140, 118.5401
174.8961, 118.4973
175.3782, 118.4366
175.8604, 118.4651
176.3425, 118.5808
176.8246, 118.7628
177.3067, 119.0721
177.7888, 119.4356
178.2709, 119.6967
178.7531, 119.7788
179.2352, 119.7627
179.7173, 119.7318
180.1994, 119.6881
180.6815, 119.7032
181.1636, 119.8849
181.6458, 120.1848
182.1279, 120.4464
182.6100, 120.5493
183.0921, 120.6133
183.5742, 120.9586
184.0563, 121.5934
184.5385, 122.2213
185.0206, 122.5269
185.5027, 122.5558
185.9848, 122.5059
186.4669, 122.3520
186.9490, 122.1787
187.4312, 122.3224
187.9133, 122.8264
188.3954, 123.3355
188.8775, 123.3308
189.3596, 122.8730
189.8417, 122.5381
190.3239, 122.5270
190.8060, 122.8182
191.2881, 123.3842
191.7702, 124.2794
192.2523, 125.2168
192.7344, 125.7930
193.2166, 126.0068
193.6987, 126.2312
194.1808, 126.6147
194.6629, 127.1471
195.1450, 127.7476
195.6271, 128.4485
196.1093, 129.1362
196.5914, 129.5092
197.0735, 129.5158
197.5556, 129.8350
198.0377, 130.8242
198.5198, 132.4952
199.0020, 134.2267
199.4841, 136.0432
199.9662, 137.8795
200.4483, 139.5972
200.9304, 141.1438
201.4125, 142.8843
201.8947, 145.0968
202.3768, 147.8416
202.8589, 150.2419
203.3410, 152.1750
203.8231, 153.9289
204.3052, 156.0807
204.7874, 158.7662
205.2695, 161.3314
205.7516, 163.4215
206.2337, 164.9497
206.7158, 166.5838
207.1979, 168.3029
207.6801, 170.1656
208.1622, 172.3090
208.6443, 174.8344
209.1264, 177.3647
209.6085, 179.6623
210.0906, 181.6051
210.5728, 183.8689
211.0549, 186.4157
211.5370, 189.3096
212.0191, 192.6186
212.5012, 196.3656
212.9833, 200.5345
213.4655, 205.0250
213.9476, 209.7592
214.4297, 215.2214
214.9118, 221.5910
215.3939, 228.5974
215.8760, 235.7207
216.3581, 242.7273
216.8403, 250.2103
217.3224, 258.5363
217.8045, 268.2570
218.2866, 277.3622
218.7687, 285.9463
219.2508, 293.7998
219.7330, 300.3522
220.2151, 306.2006
220.6972, 309.6264
221.1793, 309.8039
221.6614, 306.6159
222.1435, 300.3346
222.6257, 290.1665
223.1078, 277.1569
223.5899, 263.6888
224.0720, 249.0501
224.5541, 235.0455
225.0362, 222.1178
225.5184, 210.1278
226.0005, 199.8541
226.4826, 191.4395
226.9647, 184.6827
227.4468, 178.8294
227.9289, 174.0780
228.4111, 169.9996
228.8932, 166.4173
229.3753, 163.3644
229.8574, 160.7462
230.3395, 158.5862
230.8216, 156.8755
231.3038, 155.5699
231.7859, 154.7166
232.2680, 154.2127
232.7501, 154.0615
233.2322, 154.4797
233.7143, 154.7402
234.1965, 154.7022
234.6786, 154.5320
235.1607, 154.6912
235.6428, 155.2348
236.1249, 156.0224
236.6070, 157.0638
237.0892, 158.6930
237.5713, 159.8252
238.0534, 160.3675
238.5355, 160.4348
239.0176, 160.3475
239.4997, 160.2789
239.9819, 159.7968
240.4640, 158.6699
240.9461, 156.5896
241.4282, 154.5885
241.9103, 152.7292
242.3924, 150.9313
242.8746, 148.9802
243.3567, 146.7382
243.8388, 144.5537
244.3209, 142.5032
244.8030, 140.4465
245.2851, 138.9603
245.7673, 138.1323
246.2494, 137.8396
246.7315, 137.8937
247.2136, 138.6417
247.6957, 139.1854
248.1778, 139.0993
248.6600, 138.0617
249.1421, 137.3726
249.6242, 137.0946
250.1063, 137.1244
250.5884, 137.2761
251.0705, 137.5787
251.5527, 137.9500
252.0348, 138.3125
252.5169, 138.5642
252.9990, 139.2409
253.4811, 140.6424
253.9632, 142.2805
254.4454, 143.2077
254.9275, 143.0153
255.4096, 142.8989
255.8917, 143.2361
256.3738, 144.0634
256.8560, 145.2266
257.3381, 146.9698
257.8202, 148.8527
258.3023, 150.1976
258.7844, 150.7680
259.2665, 151.2818
259.7487, 151.9002
260.2308, 152.5894
260.7129, 153.6345
261.1950, 155.1406
261.6771, 156.8791
262.1592, 158.5088
262.6414, 159.8876
263.1235, 161.4882
263.6056, 163.4884
264.0877, 165.9418
264.5698, 168.2155
265.0519, 170.1745
265.5341, 172.1282
266.0162, 174.4904
266.4983, 177.3466
266.9804, 180.3060
267.4625, 183.3381
267.9446, 186.4152
268.4268, 189.4263
268.9089, 192.3002
269.3910, 195.1289
269.8731, 198.0186
270.3552, 200.9509
270.8373, 203.9379
271.3195, 206.9836
271.8016, 210.0880
272.2837, 213.3859
272.7658, 216.9422
273.2479, 220.6397
273.7300, 224.4647
274.2122, 228.4277
274.6943, 232.3506
275.1764, 236.0946
275.6585, 239.7516
276.1406, 243.7984
276.6227, 248.2576
277.1049, 253.0387
277.5870, 258.1008
278.0691, 263.4548
278.5512, 269.0022
279.0333, 274.7944
279.5154, 280.7368
279.9976, 286.4527
280.4797, 291.9066
280.9618, 297.3947
281.4439, 303.4272
281.9260, 309.9865
282.4081, 316.0630
282.8903, 321.5517
283.3724, 326.4576
283.8545, 330.8101
284.3366, 334.6146
284.8187, 337.8142
285.3008, 340.6350
285.7830, 343.0019
286.2651, 343.6911
286.7472, 342.4994
287.2293, 339.8014
287.7114, 336.0079
288.1935, 331.1235
288.6757, 325.7982
289.1578, 320.4456
289.6399, 314.9718
290.1220, 309.0809
290.6041, 302.6241
291.0862, 296.0670
291.5684, 290.0064
292.0505, 284.4052
292.5326, 279.1827
293.0147, 274.4901
293.4968, 270.1366
293.9789, 265.3556
294.4611, 260.1381
294.9432, 254.7155
295.4253, 249.2672
295.9074, 243.8064
296.3895, 238.5254
296.8716, 233.3974
297.3538, 228.4809
297.8359, 223.9270
298.3180, 219.7078
298.8001, 215.6226
299.2822, 211.3648
299.7643, 207.0237
300.2465, 202.8950
300.7286, 199.0865
301.2107, 195.5513
301.6928, 192.1838
302.1749, 189.0127
302.6570, 186.0171
303.1392, 183.1621
303.6213, 180.4968
304.1034, 178.1918
304.5855, 176.4049
305.0676, 174.8325
305.5497, 173.1270
306.0319, 171.3256
306.5140, 169.5341
306.9961, 167.8127
307.4782, 166.1682
307.9603, 164.5796
308.4424, 163.0311
308.9246, 161.5818
309.4067, 160.3374
309.8888, 159.2439
310.3709, 158.1246
310.8530, 156.7826
311.3351, 155.4414
311.8173, 154.3045
312.2994, 153.4235
312.7815, 152.6465
313.2636, 151.9420
313.7457, 151.2821
314.2278, 150.6113
314.7100, 149.9939
315.1921, 149.3045
315.6742, 148.3989
316.1563, 147.2115
316.6384, 146.1619
317.1205, 145.4714
317.6027, 145.0285
318.0848, 144.6975
318.5669, 144.4860
319.0490, 144.3327
319.5311, 144.2067
320.0132, 144.1042
320.4954, 144.0710
320.9775, 144.2852
321.4596, 144.4940
321.9417, 144.4783
322.4238, 143.6321
322.9059, 143.1388
323.3881, 143.4720
323.8702, 144.5513
324.3523, 145.3969
324.8344, 145.7887
325.3165, 145.9606
325.7986, 146.0562
326.2808, 145.8964
326.7629, 145.8873
327.2450, 146.0322
327.7271, 146.3422
328.2092, 146.8604
328.6913, 147.7447
329.1735, 148.6980
329.6556, 149.6295
330.1377, 150.5968
330.6198, 151.4231
331.1019, 151.9866
331.5840, 152.4409
332.0662, 153.0838
332.5483, 153.9351
333.0304, 154.9574
333.5125, 156.1900
333.9946, 157.7449
334.4767, 158.9388
334.9589, 159.5134
335.4410, 159.9629
335.9231, 160.9612
336.4052, 162.7292
336.8873, 164.4457
337.3694, 165.9031
337.8516, 167.1095
338.3336, 168.2609
338.8158, 169.3229
339.2979, 170.4159
339.7800, 171.7033
340.2621, 173.2135
340.7442, 174.6672
341.2263, 175.9811
341.7085, 177.2051
342.1906, 178.3938
342.6727, 179.5352
343.1548, 180.7823
343.6369, 182.3658
344.1190, 184.2394
344.6012, 185.8693
345.0833, 187.1603
345.5654, 188.2295
346.0475, 189.2200
346.5296, 190.1337
347.0117, 191.1004
347.4939, 192.1771
347.9760, 193.3472
348.4581, 194.6413
348.9402, 196.0927
349.4223, 197.4659
349.9044, 198.5391
350.3866, 199.3405
350.8687, 199.9792
351.3508, 200.3772
351.8329, 200.7012
352.3150, 201.2629
352.7971, 202.0572
353.2793, 202.8136
353.7614, 203.3888
354.2435, 203.7852
354.7256, 203.9915
355.2077, 203.8753
355.6898, 203.7305
356.1720, 203.9051
356.6541, 204.3102
357.1362, 204.5652
357.6183, 204.3653
358.1004, 203.9656
358.5826, 203.6026
359.0647, 203.3584
359.5468, 203.0552
360.0289, 202.5517
360.5110, 201.9244
360.9931, 201.3170
361.4753, 200.9713
361.9574, 200.5194
362.4395, 199.6962
362.9216, 198.4019
363.4037, 197.2386
363.8858, 196.3463
364.3680, 195.6918
364.8501, 195.2388
365.3322, 195.4235
365.8143, 195.3664
366.2964, 194.6838
366.7785, 193.3924
367.2607, 192.4218
367.7428, 192.3421
368.2249, 192.2850
368.7070, 191.7137
369.1891, 190.0078
369.6712, 188.6145
370.1534, 187.6070
370.6355, 186.9327
371.1176, 186.4504
371.5997, 186.3149
372.0818, 186.1609
372.5639, 185.7898
373.0461, 185.0243
373.5282, 184.6236
374.0103, 184.6988
374.4924, 185.0201
374.9745, 185.2427
375.4566, 185.3348
375.9388, 185.4360
376.4209, 185.6048
376.9030, 185.8358
377.3851, 185.9429
377.8672, 185.8766
378.3493, 185.8609
378.8315, 186.0831
379.3136, 186.5486
379.7957, 187.2611
380.2778, 188.2903
380.7599, 189.5093
381.2420, 190.6191
381.7242, 191.6012
382.2063, 192.6551
382.6884, 193.8656
383.1705, 195.2402
383.6526, 196.8169
384.1347, 198.6298
384.6169, 200.4898
385.0990, 202.0230
385.5811, 203.3519
386.0632, 204.8122
386.5453, 206.5339
387.0274, 208.4938
387.5096, 210.7153
387.9917, 213.1844
388.4738, 215.6736
388.9559, 217.9756
389.4380, 220.1453
389.9201, 222.2554
390.4023, 224.1384
390.8844, 226.1691
391.3665, 228.8074
391.8486, 231.8797
392.3307, 234.6508
392.8128, 236.5885
393.2950, 238.2210
393.7771, 239.8872
394.2592, 241.5841
394.7413, 243.4414
395.2234, 245.7057
395.7055, 248.0985
396.1877, 250.1913
396.6698, 251.6975
397.1519, 253.0698
397.6340, 254.5565
398.1161, 256.2324
398.5982, 257.4069
399.0804, 257.9323
399.5625, 258.0065
400.0446, 257.7698
400.5267, 257.2299
401.0088, 256.3723
401.4909, 255.1383
401.9731, 253.5910
402.4552, 252.0271
402.9373, 250.6389
403.4194, 248.9243
403.9015, 246.5947
404.3836, 243.5070
404.8658, 240.3311
405.3479, 237.0461
405.8300, 233.7370
406.3121, 230.4561
406.7942, 227.1783
407.2763, 224.1048
407.7585, 221.4832
408.2406, 219.1243
408.7227, 215.8908
409.2048, 211.6964
409.6869, 207.4501
410.1690, 204.0144
410.6512, 201.2785
411.1333, 198.5267
411.6154, 195.5517
412.0975, 192.6395
412.5796, 190.2306
413.0617, 188.2623
413.5439, 186.3707
414.0260, 184.3537
414.5081, 182.2633
414.9902, 180.1937
415.4723, 178.1425
415.9544, 176.1072
416.4366, 174.0263
416.9187, 171.9899
417.4008, 170.1396
417.8829, 168.5094
418.3650, 167.0785
418.8471, 165.8634
419.3293, 164.8505
419.8114, 163.8917
420.2935, 162.9457
420.7756, 162.0238
421.2577, 161.1508
421.7398, 160.2840
422.2220, 159.5265
422.7041, 158.9776
423.1862, 158.5366
423.6683, 158.0199
424.1504, 157.3376
424.6325, 156.6350
425.1147, 155.9176
425.5968, 155.1543
426.0789, 154.5756
426.5610, 154.2451
427.0431, 154.0406
427.5252, 153.8875
428.0074, 153.8521
428.4895, 153.6977
428.9716, 153.3343
429.4537, 152.8569
429.9358, 152.5953
430.4179, 152.6021
430.9001, 152.6359
431.3822, 152.5903
431.8643, 152.4648
432.3464, 152.2326
432.8285, 151.8418
433.3106, 151.5137
433.7928, 151.6350
434.2749, 152.1421
434.7570, 152.4944
435.2391, 152.4891
435.7212, 152.2567
436.2033, 151.9361
436.6855, 151.5564
437.1676, 151.3780
437.6497, 151.7367
438.1318, 152.3740
438.6139, 152.8978
439.0960, 153.2356
439.5782, 153.4948
440.0603, 153.6959
440.5424, 153.8875
441.0245, 154.1563
441.5066, 154.6824
441.9887, 155.1810
442.4709, 155.4078
442.9530, 155.3722
443.4351, 155.4768
443.9172, 156.0681
444.3993, 156.7398
444.8814, 157.1874
445.3636, 157.2216
445.8457, 157.2185
446.3278, 157.0913
446.8099, 156.9610
447.2920, 157.1302
447.7741, 157.8889
448.2563, 158.6344
448.7384, 159.1792
449.2205, 159.5068
449.7026, 159.8233
450.1847, 160.1216
450.6668, 160.4168
451.1490, 160.7267
451.6311, 161.0650
452.1132, 161.3747
452.5953, 161.6478
453.0774, 161.8910
453.5595, 162.0983
454.0417, 162.2547
454.5238, 162.5208
455.0059, 163.0986
455.4880, 163.8931
455.9701, 164.3942
456.4522, 164.5498
456.9344, 164.6340
457.4165, 164.9263
457.8986, 165.3846
458.3807, 165.8918
458.8628, 166.4720
459.3449, 167.0208
459.8271, 167.4204
460.3092, 167.6870
460.7913, 167.8990
461.2734, 168.0402
461.7555, 168.1846
462.2376, 168.4160
462.7198, 168.7683
463.2019, 169.0908
463.6840, 169.1896
464.1661, 169.2565
464.6482, 169.5232
465.1303, 170.2260
465.6125, 170.9473
466.0946, 171.6544
466.5767, 172.3278
467.0588, 172.7602
467.5409, 172.6790
468.0230, 172.5820
468.5052, 172.6854
468.9873, 173.0514
469.4694, 173.4771
469.9515, 174.0066
470.4336, 174.5590
470.9157, 175.0063
471.3979, 175.2966
471.8800, 175.6605
472.3621, 176.1698
472.8442, 176.7976
473.3263, 177.4677
473.8084, 178.1938
474.2906, 178.8543
474.7727, 179.2728
475.2548, 179.5219
475.7369, 179.9832
476.2190, 180.7265
476.7011, 181.5585
477.1833, 182.2720
477.6654, 182.8946
478.1475, 183.5039
478.6296, 184.1597
479.1117, 184.7991
479.5938, 185.3204
480.0760, 185.7481
480.5581, 186.2254
481.0402, 186.9677
481.5223, 187.7207
482.0044, 188.2469
482.4865, 188.3892
482.9687, 188.6058
483.4508, 189.1686
483.9329, 189.8699
484.4150, 190.4055
484.8971, 190.6081
485.3792, 190.7642
485.8614, 190.9470
486.3435, 191.1514
486.8256, 191.2909
487.3077, 191.4298
487.7898, 191.4273
488.2719, 191.1563
488.7541, 190.4693
489.2362, 190.0295
489.7183, 189.9290
490.2004, 189.9582
490.6825, 189.8247
491.1646, 189.5241
491.6468, 189.0855
492.1289, 188.5022
492.6110, 187.7936
493.0931, 186.8503
493.5752, 185.6751
494.0573, 184.7443
494.5395, 184.7320
495.0216, 185.1475
495.5037, 184.8708
495.9858, 183.6840
496.4679, 182.3340
496.9500, 181.4311
497.4322, 180.8455
497.9143, 180.3787
498.3964, 180.1100
498.8785, 179.7969
499.3606, 179.3700
499.8427, 178.8024
500.3249, 178.0017
500.8070, 176.5168
501.2891, 175.1121
501.7712, 174.2504
502.2533, 174.2133
502.7354, 174.0486
503.2176, 173.6071
503.6997, 173.0459
504.1818, 172.5282
504.6639, 172.1411
505.1460, 171.6188
505.6281, 170.8565
506.1103, 169.9346
506.5924, 169.1898
507.0745, 168.6299
507.5566, 168.2120
508.0387, 168.0404
508.5208, 168.0852
509.0030, 167.6545
509.4851, 166.6746
509.9672, 165.6347
510.4493, 165.0950
510.9314, 164.9370
511.4135, 164.7547
511.8957, 164.4352
512.3778, 164.0817
512.8599, 163.7841
513.3420, 163.5503
513.8242, 163.3994
514.3063, 163.4225
514.7884, 163.4759
515.2705, 163.4754
515.7526, 163.4160
516.2347, 163.2449
516.7169, 162.7928
517.1990, 162.3055
517.6811, 161.9678
518.1632, 161.8280
518.6453, 161.8087
519.1274, 161.9723
519.6096, 162.2366
520.0917, 162.4616
520.5738, 162.6909
521.0559, 162.7968
521.5380, 162.6777
522.0201, 162.3586
522.5023, 162.3332
522.9844, 162.7143
523.4665, 163.0715
523.9486, 163.0361
524.4307, 162.6327
524.9128, 162.3542
525.3950, 162.2509
525.8771, 162.2457
526.3592, 162.2410
526.8413, 162.2485
527.3234, 162.3262
527.8055, 162.6419
528.2877, 162.8938
528.7698, 162.5907
529.2519, 161.8669
529.7340, 161.2854
530.2161, 161.3663
530.6982, 161.5753
531.1804, 161.4660
531.6625, 160.9218
532.1446, 160.4721
532.6267, 160.4568
533.1088, 160.5400
533.5909, 160.4123
534.0731, 159.8704
534.5552, 159.3148
535.0373, 158.6589
535.5194, 158.0276
536.0015, 157.7347
536.4836, 157.9374
536.9658, 158.1604
537.4479, 158.2175
537.9300, 158.1197
538.4121, 158.2021
538.8942, 158.5227
539.3763, 158.7680
539.8585, 158.5822
540.3406, 158.0511
540.8227, 157.6781
541.3048, 157.5360
541.7869, 157.5152
542.2690, 157.5268
542.7512, 157.5532
543.2333, 157.5519
543.7154, 157.5322
544.1975, 157.4558
544.6796, 157.2077
545.1617, 156.8456
545.6439, 156.6320
546.1260, 156.9512
546.6081, 157.2532
547.0902, 157.1393
547.5723, 156.4134
548.0544, 155.9333
548.5366, 155.9515
549.0187, 156.1910
549.5008, 156.4142
549.9829, 156.6416
550.4650, 156.8276
550.9471, 157.0237
551.4293, 157.1477
551.9114, 156.9395
552.3935, 156.3093
552.8756, 155.7865
553.3577, 155.6049
553.8398, 155.6943
554.3220, 155.7386
554.8041, 155.7366
555.2862, 155.7301
555.7683, 155.7434
556.2504, 155.7770
556.7325, 155.8663
557.2147, 156.0427
557.6968, 156.1238
558.1789, 155.7647
558.6610, 155.2570
559.1431, 155.0344
559.6252, 155.4402
560.1074, 155.9629
560.5895, 156.4761
561.0716, 156.9596
561.5537, 157.3391
562.0358, 157.6673
562.5179, 157.8242
563.0001, 157.7063
563.4822, 157.2747
563.9643, 157.0001
564.4464, 156.9022
564.9285, 156.9353
565.4106, 157.1039
565.8928, 157.4442
566.3749, 157.6928
566.8570, 157.8320
567.3391, 157.8761
567.8212, 157.7942
568.3033, 157.6100
568.7855, 157.5091
569.2676, 157.6028
569.7497, 157.7629
570.2318, 157.7304
570.7139, 157.5693
571.1960, 157.5568
571.6782, 158.0579
572.1603, 158.6392
572.6424, 158.8935
573.1245, 158.7650
573.6066, 158.7075
574.0887, 158.9726
574.5709, 159.3329
575.0530, 159.6159
575.5351, 159.8643
576.0172, 159.9342
576.4993, 159.6560
576.9814, 159.2797
577.4636, 159.2336
577.9457, 159.6396
578.4278, 160.0546
578.9099, 160.3721
579.3920, 160.6145
579.8741, 160.8536
580.3563, 161.0855
580.8384, 161.3501
581.3205, 161.7307
581.8026, 162.1615
582.2847, 162.3331
582.7668, 162.2289
583.2490, 162.3069
583.7311, 163.1618
584.2132, 164.3454
584.6953, 165.2673
585.1774, 165.6776
585.6595, 166.0641
586.1416, 166.6927
586.6237, 167.4543
587.1058, 168.1926
587.5880, 168.8933
588.0701, 169.5433
588.5522, 170.0491
589.0343, 170.4764
589.5164, 171.1648
589.9985, 172.3111
590.4807, 173.3841
590.9628, 174.1116
591.4449, 174.4811
591.9270, 175.1620
592.4091, 176.2245
592.8912, 177.2911
593.3734, 177.9413
593.8555, 178.2795
594.3376, 178.7965
594.8197, 179.5788
595.3018, 180.4612
595.7839, 181.3273
596.2661, 182.1550
596.7482, 182.8994
597.2303, 183.4849
597.7124, 184.0509
598.1945, 184.8047
598.6766, 185.6255
599.1588, 186.1459
599.6409, 185.9553
600.1230, 185.7274
600.6051, 185.7551
601.0872, 186.0655
601.5693, 186.2268
602.0515, 186.2018
602.5336, 186.0726
603.0157, 185.8972
603.4978, 185.6886
603.9799, 185.3232
604.4620, 184.7807
604.9442, 184.1142
605.4263, 183.3703
605.9084, 182.5498
606.3905, 181.7271
606.8726, 180.9050
607.3547, 180.0873
607.8369, 179.2921
608.3190, 178.5000
608.8011, 177.6381
609.2832, 176.6082
609.7653, 175.5606
610.2474, 174.5434
610.7296, 173.5638
611.2117, 172.7342
611.6938, 172.1928
612.1759, 171.7045
612.6580, 171.1918
613.1401, 170.6970
613.6223, 169.9330
614.1044, 168.7492
614.5865, 167.5132
615.0686, 166.6036
615.5507, 166.0777
616.0328, 165.3813
616.5150, 164.4083
616.9971, 163.3971
617.4792, 162.7584
617.9613, 162.4182
618.4434, 162.0166
618.9255, 161.3715
619.4077, 160.6898
619.8898, 160.2504
620.3719, 159.9790
620.8540, 159.6308
621.3361, 158.9064
621.8182, 158.2292
622.3004, 157.8654
622.7825, 157.8246
623.2646, 157.8016
623.7467, 157.8235
624.2288, 157.7746
624.7109, 157.5627
625.1931, 157.0713
625.6752, 156.8062
626.1573, 156.7838
626.6394, 156.9495
627.1215, 157.3500
627.6036, 157.9913
628.0858, 158.3428
628.5679, 158.2737
629.0500, 158.0106
629.5321, 157.7877
630.0142, 157.6411
630.4963, 157.6967
630.9785, 158.0997
631.4606, 158.6316
631.9427, 159.2108
632.4248, 159.7822
632.9069, 160.1678
633.3890, 160.0842
633.8712, 159.9854
634.3533, 160.1045
634.8354, 160.4724
635.3175, 160.7389
635.7996, 160.7565
636.2817, 160.8223
636.7639, 161.1278
637.2460, 161.7421
637.7281, 162.2124
638.2102, 162.5068
638.6923, 162.7466
639.1744, 163.0669
639.6566, 163.4505
640.1387, 163.8175
640.6208, 164.1384
641.1029, 164.4595
641.5850, 164.8498
642.0671, 165.2759
642.5493, 165.6801
643.0314, 166.0417
643.5135, 166.3704
643.9956, 166.7205
644.4777, 167.0505
644.9598, 167.2327
645.4420, 166.9230
645.9241, 166.8009
646.4062, 167.1351
646.8883, 167.9002
647.3704, 168.5547
647.8525, 169.1143
648.3347, 169.5197
648.8168, 169.6774
649.2989, 169.5977
649.7810, 169.5692
650.2631, 169.5946
650.7452, 169.6485
651.2274, 169.7747
651.7095, 169.8979
652.1916, 169.8255
652.6737, 169.4669
653.1558, 169.1267
653.6379, 168.9884
654.1201, 169.0127
654.6022, 169.1459
655.0843, 169.7724
655.5664, 170.0428
656.0485, 169.5832
656.5306, 168.6462
657.0128, 167.7986
657.4949, 167.0236
657.9770, 166.3855
658.4591, 165.9740
658.9412, 165.7057
659.4233, 165.1435
659.9055, 164.2492
660.3876, 163.4713
660.8697, 163.2399
661.3518, 163.2674
661.8339, 162.7520
662.3160, 161.7255
662.7982, 160.7228
663.2803, 160.2135
663.7624, 159.8585
664.2445, 159.3198
664.7266, 158.5171
665.2087, 157.7469
665.6909, 157.1340
666.1730, 156.5799
666.6551, 156.0051
667.1372, 155.4197
667.6193, 154.7694
668.1014, 153.9791
668.5836, 153.2066
669.0657, 152.7168
669.5478, 152.5433
670.0299, 152.2644
670.5120, 151.7187
670.9941, 151.1614
671.4763, 151.3284
671.9584, 151.9528
672.4405, 152.0033
672.9226, 150.4002
673.4047, 148.5357
673.8868, 147.7217
674.3690, 147.7010
674.8511, 147.5293
675.3332, 146.6578
675.8153, 145.7336
676.2974, 145.0019
676.7795, 144.4761
677.2617, 144.0459
677.7438, 143.7115
678.2259, 143.4663
678.7080, 143.3472
679.1901, 143.3690
679.6722, 143.1988
680.1544, 142.8025
680.6365, 142.4013
681.1186, 142.2294
681.6007, 142.2075
682.0828, 142.1173
682.5649, 141.9157
683.0471, 141.7200
683.5292, 141.5418
684.0113, 141.4621
684.4934, 141.6085
684.9755, 142.3564
685.4576, 142.8056
685.9398, 142.5347
686.4219, 141.8840
686.9040, 141.4228
687.3861, 141.2183
687.8682, 141.0688
688.3503, 140.9315
688.8325, 140.8395
689.3146, 140.8912
689.7967, 141.0883
690.2788, 141.3581
690.7609, 141.8033
691.2430, 142.2025
691.7252, 141.9658
692.2073, 141.2544
692.6894, 140.8062
693.1715, 141.4306
693.6536, 142.1639
694.1357, 142.2517
694.6179, 141.6845
695.1000, 141.2066
695.5821, 140.9464
696.0642, 140.8677
696.5463, 140.9838
697.0284, 141.3359
697.5106, 141.6192
697.9927, 141.8486
698.4748, 141.9780
698.9569, 141.9135
699.4390, 141.6885
699.9211, 141.5713
700.4033, 141.5879
700.8854, 141.6758
701.3675, 141.8648
701.8496, 142.0580
702.3317, 142.0950
702.8138, 141.9120
703.2960, 141.6401
703.7781, 141.1146
704.2602, 140.6241
704.7423, 140.5217
705.2244, 141.4026
705.7065, 141.9668
706.1887, 142.0200
706.6708, 141.7639
707.1529, 141.5515
707.6350, 141.3831
708.1171, 141.2552
708.5992, 141.1971
709.0814, 141.1395
709.5635, 140.8999
710.0456, 140.5141
710.5277, 140.1579
711.0098, 139.8730
711.4919, 139.6931
711.9741, 139.7337
712.4562, 139.9300
712.9383, 140.0210
713.4204, 139.9402
713.9025, 139.7096
714.3846, 139.2379
714.8668, 138.5463
715.3489, 138.1262
715.8310, 138.1117
716.3131, 138.0932
716.7952, 137.8321
717.2773, 137.3526
717.7595, 136.9840
718.2416, 136.7336
718.7237, 136.4919
719.2058, 136.2014
719.6879, 135.8493
720.1700, 135.3675
720.6522, 134.7327
721.1343, 134.2157
721.6164, 134.1653
722.0985, 134.1740
722.5806, 133.8616
723.0627, 132.8844
723.5449, 132.2764
724.0270, 132.2669
724.5091, 132.4571
724.9912, 132.5353
725.4733, 132.5326
725.9554, 132.1527
726.4376, 131.2654
726.9197, 130.3116
727.4018, 129.9751
727.8839, 130.0843
728.3660, 130.0919
728.8481, 129.8168
729.3303, 129.4939
729.8124, 129.3455
730.2945, 129.2766
730.7766, 129.1437
731.2587, 128.8346
731.7408, 128.5362
732.2230, 128.3398
732.7051, 128.1679
733.1872, 127.8578
733.6693, 127.3492
734.1514, 126.8867
734.6335, 126.5379
735.1157, 126.2621
735.5978, 125.9237
736.0799, 125.5414
736.5620, 125.2699
737.0441, 125.2923
737.5262, 125.3742
738.0084, 125.2317
738.4905, 124.9158
738.9726, 124.6006
739.4547, 124.2867
739.9368, 124.0601
740.4189, 124.0773
740.9011, 124.2985
741.3832, 124.1263
741.8653, 123.2855
742.3474, 122.5483
742.8295, 122.3031
743.3116, 122.4656
743.7938, 122.3546
744.2759, 121.9629
744.7580, 121.5175
745.2401, 121.1309
745.7222, 120.8161
746.2043, 120.6190
746.6865, 120.5353
747.1686, 120.4474
747.6507, 120.3428
748.1328, 120.1736
748.6149, 119.8739
749.0970, 119.3963
749.5792, 119.0376
750.0613, 118.8366
750.5434, 118.7182
751.0255, 118.6314
751.5076, 118.5729
751.9897, 118.6345
752.4719, 118.8503
752.9540, 118.9921
753.4361, 118.7955
753.9182, 118.3813
754.4003, 117.9558
754.8824, 117.5367
755.3646, 117.2182
755.8467, 117.1488
756.3288, 117.1650
756.8109, 117.1125
757.2930, 116.9056
757.7751, 116.7599
758.2573, 116.7619
758.7394, 116.7588
759.2215, 116.5542
759.7036, 116.0857
760.1857, 115.8816
760.6678, 116.0350
761.1500, 116.3057
761.6321, 116.3983
762.1142, 116.3665
762.5963, 116.3425
763.0784, 116.3592
763.5605, 116.3842
764.0427, 116.4330
764.5248, 116.4610
765.0069, 116.4132
765.4890, 116.1913
765.9711, 116.0084
766.4532, 115.9156
766.9354, 115.8441
767.4175, 115.6612
767.8996, 115.3268
768.3817, 115.1518
768.8638, 115.2131
769.3459, 115.3999
769.8281, 115.6188
770.3102, 115.8232
770.7923, 115.8529
771.2744, 115.5033
771.7565, 115.1998
772.2386, 115.3431
772.7208, 115.7083
773.2029, 115.9035
773.6850, 115.6456
774.1671, 115.4508
774.6492, 115.4003
775.1313, 115.4479
775.6135, 115.4999
776.0956, 115.5524
776.5777, 115.6325
777.0598, 115.7624
777.5419, 115.8993
778.0240, 116.0178
778.5062, 116.0864
778.9883, 116.0049
779.4704, 115.5367
779.9525, 115.1010
780.4346, 114.9047
780.9167, 114.9389
781.3989, 115.1745
781.8810, 116.0865
782.3631, 116.5907
782.8452, 116.3164
783.3273, 115.5661
783.8094, 115.2430
784.2916, 115.3846
784.7737, 115.5872
785.2558, 115.7384
785.7379, 115.8372
786.2200, 115.8593
786.7021, 115.8226
787.1843, 115.7858
787.6664, 115.8398
788.1485, 115.8418
788.6306, 115.6280
789.1127, 115.2806
789.5948, 115.1273
790.0770, 115.4011
790.5591, 115.5692
791.0412, 115.4973
791.5233, 115.2322
792.0054, 114.8361
792.4875, 114.3021
792.9697, 114.0752
793.4518, 114.5694
793.9339, 115.2967
794.4160, 115.4528
794.8981, 115.1676
795.3802, 114.8746
795.8624, 114.6866
796.3445, 114.6308
796.8266, 114.8854
797.3087, 115.3305
797.7908, 115.3528
798.2729, 114.6060
798.7551, 114.1009
799.2372, 114.2331
799.7193, 114.7779
800.2014, 114.8357
800.6835, 114.4491
801.1656, 114.2087
801.6478, 114.6201
802.1299, 115.1798
802.6120, 115.2187
803.0941, 114.8950
803.5762, 114.7159
804.0583, 115.1607
804.5405, 115.5039
805.0226, 115.4279
805.5047, 115.0158
805.9868, 114.5190
806.4689, 113.8310
806.9510, 113.4118
807.4332, 113.4991
807.9153, 113.9060
808.3974, 114.1479
808.8795, 114.2350
809.3616, 114.2238
809.8438, 114.1327
810.3259, 113.9678
810.8080, 113.7000
811.2901, 113.3603
811.7722, 113.0392
812.2543, 112.5773
812.7365, 112.3665
813.2186, 112.5761
813.7007, 113.0924
814.1828, 113.5438
814.6649, 113.9491
815.1470, 114.1366
815.6292, 113.9334
816.1113, 113.5881
816.5934, 113.6453
817.0755, 113.9752
817.5576, 114.1489
818.0397, 113.7380
818.5219, 113.3395
819.0040, 113.3045
819.4861, 113.5312
819.9682, 113.6676
820.4503, 113.5579
820.9324, 113.6134
821.4146, 114.0208
821.8967, 114.5705
822.3788, 114.6733
822.8609, 114.3541
823.3430, 113.9851
823.8251, 113.6377
824.3073, 113.3982
824.7894, 113.3985
825.2715, 113.5803
825.7536, 113.8167
826.2357, 114.1977
826.7178, 114.4677
827.2000, 114.4320
827.6821, 114.2662
828.1642, 114.2945
828.6463, 114.5590
829.1284, 114.8792
829.6105, 115.2400
830.0927, 115.6088
830.5748, 115.9326
831.0569, 116.2196
831.5390, 116.5079
832.0211, 116.8617
832.5032, 117.1416
832.9854, 117.1607
833.4675, 117.0663
833.9496, 117.0805
834.4317, 117.4018
834.9138, 117.6161
835.3959, 117.6458
835.8781, 117.6043
836.3602, 117.6680
836.8423, 117.8354
837.3244, 117.9982
837.8065, 118.1264
838.2886, 118.2719
838.7708, 118.4654
839.2529, 118.7280
839.7350, 119.1108
840.2171, 119.7147
840.6992, 120.2609
841.1813, 120.6381
841.6635, 120.9243
842.1456, 121.2164
842.6277, 121.5531
843.1098, 121.7484
843.5919, 121.7511
844.0740, 121.7254
844.5562, 121.8437
845.0383, 122.0943
845.5204, 122.4797
846.0025, 123.0252
846.4846, 123.5267
846.9667, 123.8312
847.4489, 124.0270
847.9310, 124.1897
848.4131, 124.3286
848.8952, 124.4314
849.3773, 124.4291
849.8594, 124.4890
850.3416, 124.7621
850.8237, 125.2426
851.3058, 125.6882
851.7879, 126.0882
852.2700, 126.5486
852.7521, 127.2643
853.2343, 128.0426
853.7164, 128.6702
854.1985, 129.1177
854.6806, 129.4536
855.1627, 129.4929
855.6448, 129.6260
856.1270, 130.1078
856.6091, 130.9521
857.0912, 131.4890
857.5733, 131.6780
858.0554, 131.7567
858.5375, 131.7968
859.0197, 131.8557
859.5018, 132.0818
859.9839, 132.4553
860.4660, 132.8614
860.9481, 133.2116
861.4302, 133.6000
861.9124, 134.1570
862.3945, 134.8435
862.8766, 135.3015
863.3587, 135.4617
863.8408, 135.5288
864.3229, 135.5251
864.8051, 135.5088
865.2872, 135.7154
865.7693, 136.0990
866.2514, 136.3764
866.7335, 136.2357
867.2156, 136.1013
867.6978, 136.3568
868.1799, 136.8625
868.6620, 137.3048
869.1441, 137.5703
869.6262, 137.8140
870.1083, 138.0519
870.5905, 138.2850
871.0726, 138.5681
871.5547, 138.8983
872.0368, 138.9678
872.5189, 138.6243
873.0010, 138.2086
873.4832, 138.0119
873.9653, 138.0390
874.4474, 138.3255
874.9295, 139.1884
875.4116, 139.7735
875.8937, 139.7089
876.3759, 139.3891
876.8580, 139.1142
877.3401, 138.8425
877.8222, 138.9140
878.3043, 139.4251
878.7864, 139.9560
879.2686, 139.9716
879.7507, 139.7211
880.2328, 139.6799
880.7149, 139.9378
881.1970, 140.1827
881.6791, 140.3006
882.1613, 140.3206
882.6434, 140.2405
883.1255, 140.0437
883.6076, 139.9205
884.0897, 139.8864
884.5718, 139.8811
885.0540, 139.8179
885.5361, 139.7566
886.0182, 139.9117
886.5003, 140.2647
886.9824, 140.6590
887.4645, 141.1243
887.9467, 141.4870
888.4288, 141.5823
888.9109, 141.4312
889.3930, 141.3558
889.8751, 141.3819
890.3572, 141.4447
890.8394, 141.5280
891.3215, 141.6300
891.8036, 141.7440
892.2857, 141.8711
892.7678, 142.0285
893.2499, 142.3210
893.7321, 142.5282
894.2142, 142.4310
894.6963, 142.1444
895.1784, 141.8873
895.6605, 141.5894
896.1426, 141.5111
896.6248, 141.7774
897.1069, 142.1541
897.5890, 142.2475
898.0711, 142.0943
898.5532, 142.0838
899.0353, 142.3266
899.5175, 142.5192
899.9996, 142.2820
900.4817, 141.8753
900.9638, 141.6040
901.4459, 141.5399
901.9280, 141.5581
902.4102, 141.7175
902.8923, 141.8568
903.3744, 141.8752
903.8565, 141.7717
904.3386, 141.4917
904.8207, 141.0293
905.3029, 140.6717
905.7850, 140.8231
906.2671, 141.0904
906.7492, 141.0049
907.2313, 140.5679
907.7134, 140.1727
908.1956, 139.9154
908.6777, 139.7499
909.1598, 139.7016
909.6419, 139.7319
910.1240, 139.7025
910.6061, 139.6187
911.0883, 139.2629
911.5704, 138.4237
912.0525, 137.4085
912.5346, 136.5562
913.0167, 135.8298
913.4988, 135.1499
913.9810, 134.7020
914.4631, 134.0135
914.9452, 132.7314
915.4273, 131.3372
915.9094, 130.6236
916.3915, 130.6702
916.8737, 130.3736
917.3558, 129.5299
917.8379, 128.5426
918.3200, 127.8423
918.8021, 127.3047
919.2842, 126.7371
919.7664, 126.0856
920.2485, 125.5105
920.7306, 125.2287
921.2127, 124.8854
921.6948, 124.2178
922.1769, 123.1840
922.6591, 122.4345
923.1412, 121.9822
923.6233, 121.6634
924.1054, 121.4801
924.5875, 121.2883
925.0696, 120.7902
925.5518, 120.0542
926.0339, 119.4735
926.5160, 119.3451
926.9981, 119.2503
927.4802, 119.0415
927.9623, 118.7657
928.4445, 118.5968
928.9266, 118.5532
929.4087, 118.3580
929.8908, 117.8487
930.3729, 117.3112
930.8550, 117.2973
931.3372, 117.4943
931.8193, 117.3216
932.3014, 116.2493
932.7835, 115.3867
933.2656, 115.1433
933.7477, 115.0966
934.2299, 114.8440
934.7120, 114.3454
935.1941, 114.0840
935.6762, 114.1079
936.1583, 114.1657
936.6404, 114.0125
937.1226, 113.7590
937.6047, 113.5648
938.0868, 113.4437
938.5689, 113.2586
939.0510, 112.9874
939.5331, 112.6037
940.0153, 112.0095
940.4974, 111.2747
940.9795, 110.9038
941.4616, 110.8971
941.9437, 110.9933
942.4258, 111.1197
942.9080, 111.2327
943.3901, 111.3276
943.8722, 111.3629
944.3543, 111.2487
944.8364, 110.8041
945.3185, 110.4164
945.8007, 110.1842
946.2828, 109.9988
946.7649, 109.6860
947.2470, 109.2518
947.7291, 108.8972
948.2112, 108.6464
948.6934, 108.4928
949.1755, 108.5226
949.6576, 108.5896
950.1397, 108.4920
950.6218, 108.1498
951.1039, 107.9987
951.5861, 108.3255
952.0682, 108.4978
952.5503, 108.0232
953.0324, 105.9956
953.5145, 106.8326
953.9966, 107.2692
954.4788, 107.3268
954.9609, 105.8706
955.4430, 106.3692
955.9251, 106.0844
956.4072, 105.7675
956.8893, 106.5412
957.3715, 105.3052
957.8536, 106.0616
958.3357, 106.0227
958.8178, 106.3478
959.2999, 105.8847
959.7820, 105.6650
960.2642, 106.2338
960.7463, 105.8394
961.2284, 105.6149
961.7105, 105.0083
962.1926, 104.3815
962.6747, 104.0871
963.1569, 104.2422
963.6390, 104.2692
964.1211, 104.1260
964.6032, 103.9695
965.0853, 103.9137
965.5674, 103.9164
966.0496, 103.8918
966.5317, 103.8257
967.0138, 103.6450
967.4959, 103.1257
967.9780, 102.6800
968.4601, 102.6107
968.9423, 102.7448
969.4244, 102.6854
969.9065, 102.3871
970.3886, 102.0851
970.8707, 101.8144
971.3528, 101.5600
971.8350, 101.2790
972.3171, 101.0022
972.7992, 100.7827
973.2813, 100.6362
973.7634, 100.5085
974.2455, 100.4309
974.7277, 100.3143
975.2098, 100.0671
975.6919, 99.68490
976.1740, 99.51414
976.6561, 99.55916
977.1382, 99.71551
977.6204, 100.0731
978.1025, 100.3970
978.5846, 100.3650
979.0667, 100.0618
979.5488, 99.74036
980.0309, 99.44682
980.5131, 99.18375
980.9952, 98.93325
981.4773, 98.73014
981.9594, 98.65681
982.4415, 98.69676
982.9236, 98.70540
983.4058, 98.64779
983.8879, 98.61571
984.3700, 98.81681
984.8521, 98.99570
985.3342, 98.87058
985.8163, 98.31808
986.2985, 97.91159
986.7806, 97.65794
987.2627, 97.55453
987.7448, 97.67777
988.2269, 97.91872
988.7090, 97.88482
989.1912, 97.64888
989.6733, 97.51059
990.1554, 97.80376
990.6375, 98.03283
991.1196, 97.97771
991.6017, 97.69511
992.0839, 97.24682
992.5660, 96.54350
993.0481, 96.07603
993.5302, 95.91145
994.0123, 95.93700
994.4944, 96.19186
994.9766, 96.47457
995.4587, 96.40919
995.9408, 95.92242
996.4229, 95.53535
996.9050, 95.50446
997.3871, 95.52621
997.8693, 95.52499
998.3514, 95.47082
998.8335, 95.10085
999.3156, 94.44138
999.7977, 93.92056
1000.280, 93.76225
1000.762, 93.78869
1001.244, 93.94849
1001.726, 94.15224
1002.208, 94.25034
1002.690, 94.27208
1003.173, 94.03807
1003.655, 93.37954
1004.137, 92.79845
1004.619, 92.97997
1005.101, 93.67068
1005.583, 93.93835
1006.065, 93.74400
1006.547, 93.53897
1007.029, 93.60929
1007.512, 93.72644
1007.994, 93.74682
1008.476, 93.69465
1008.958, 93.68083
1009.440, 93.69711
1009.922, 93.83343
1010.404, 94.21296
1010.886, 94.51545
1011.369, 94.10548
1011.851, 93.36333
1012.333, 92.95609
1012.815, 93.23045
1013.297, 93.40276
1013.779, 93.13411
1014.261, 92.96833
1014.743, 93.38647
1015.225, 94.34690
1015.708, 94.98462
1016.190, 95.30138
1016.672, 95.31179
1017.154, 94.78697
1017.636, 94.17973
1018.118, 93.72248
1018.600, 93.45082
1019.082, 93.45745
1019.565, 93.88418
1020.047, 94.18277
1020.529, 94.22765
1021.011, 94.20769
1021.493, 94.45762
1021.975, 94.82185
1022.457, 94.96382
1022.939, 94.81190
1023.421, 94.57210
1023.904, 94.24871
1024.386, 93.94042
1024.868, 93.65904
1025.350, 93.42204
1025.832, 93.42845
1026.314, 93.67651
1026.796, 93.95011
1027.278, 94.19727
1027.760, 94.36519
1028.243, 94.33561
1028.725, 94.21230
1029.207, 94.16997
1029.689, 94.37930
1030.171, 94.42333
1030.653, 94.23939
1031.135, 94.01080
1031.617, 93.90962
1032.100, 93.90956
1032.582, 93.96085
1033.064, 94.05058
1033.546, 94.07629
1034.028, 93.86436
1034.510, 93.69972
1034.992, 93.74305
1035.474, 93.93168
1035.957, 94.11515
1036.439, 94.30042
1036.921, 94.38791
1037.403, 94.33259
1037.885, 94.25233
1038.367, 94.35485
1038.849, 94.47314
1039.331, 94.33788
1039.813, 93.76381
1040.296, 93.58228
1040.778, 94.06783
1041.260, 94.46670
1041.742, 94.27568
1042.224, 93.70836
1042.706, 93.50739
1043.188, 93.59421
1043.670, 93.65519
1044.152, 93.51521
1044.635, 93.34546
1045.117, 93.15670
1045.599, 93.00989
1046.081, 93.01102
1046.563, 93.19344
1047.045, 93.22386
1047.527, 93.06602
1048.009, 92.94015
1048.492, 93.14314
1048.974, 93.41212
1049.456, 93.48105
1049.938, 93.34276
1050.420, 93.10631
1050.902, 92.66679
1051.384, 92.38000
1051.866, 92.35889
1052.349, 92.49598
1052.831, 92.68770
1053.313, 92.86179
1053.795, 92.75301
1054.277, 92.18385
1054.759, 91.80281
1055.241, 92.14330
1055.723, 92.56808
1056.205, 92.66059
1056.688, 92.42839
1057.170, 92.11929
1057.652, 91.73277
1058.134, 91.61465
1058.616, 92.23019
1059.098, 92.88180
1059.580, 92.82198
1060.062, 92.35677
1060.544, 92.06211
1061.027, 92.11803
1061.509, 92.14165
1061.991, 92.10757
1062.473, 92.07190
1062.955, 92.11909
1063.437, 92.19475
1063.919, 92.20053
1064.401, 92.12589
1064.884, 91.94379
1065.366, 91.45145
1065.848, 91.08643
1066.330, 91.01973
1066.812, 91.13247
1067.294, 91.18079
1067.776, 91.16956
1068.258, 91.14915
1068.740, 91.12961
1069.223, 91.10680
1069.705, 91.09093
1070.187, 91.06063
1070.669, 90.99667
1071.151, 90.89771
1071.633, 90.75078
1072.115, 90.52550
1072.597, 90.38125
1073.079, 89.24740
1073.562, 90.61684
1074.044, 91.38564
1074.526, 91.58605
1075.008, 89.51572
1075.490, 90.37759
1075.972, 90.06437
1076.454, 89.70296
1076.936, 90.97752
1077.419, 89.23746
1077.901, 90.48608
1078.383, 90.54167
1078.865, 91.14329
1079.347, 90.56255
1079.829, 90.34701
1080.311, 91.31419
1080.793, 90.56002
1081.275, 90.71154
1081.758, 90.58173
1082.240, 90.14542
1082.722, 89.89671
1083.204, 89.91621
1083.686, 89.91096
1084.168, 89.45486
1084.650, 88.97454
1085.132, 88.92824
1085.615, 89.32844
1086.097, 89.57308
1086.579, 89.62483
1087.061, 89.59161
1087.543, 89.49678
1088.025, 89.35452
1088.507, 89.16721
1088.989, 88.95712
1089.471, 88.76151
1089.953, 88.58826
1090.436, 88.43037
1090.918, 88.22172
1091.400, 88.11698
1091.882, 88.24495
1092.364, 88.53271
1092.846, 88.66916
1093.328, 88.66299
1093.810, 88.56165
1094.293, 88.28592
1094.775, 88.05547
1095.257, 87.97250
1095.739, 87.98818
1096.221, 88.06779
1096.703, 88.22807
1097.185, 88.31169
1097.667, 88.31655
1098.150, 88.23497
1098.632, 87.92640
1099.114, 87.64778
1099.596, 87.73891
1100.078, 88.04252
1100.560, 88.01134
1101.042, 87.44547
1101.524, 87.06803
1102.006, 86.97655
1102.489, 87.06770
1102.971, 87.39980
1103.453, 87.74833
1103.935, 87.70047
1104.417, 87.23369
1104.899, 86.84400
1105.381, 86.66256
1105.863, 86.55785
1106.345, 86.50365
1106.828, 86.50034
1107.310, 86.62111
1107.792, 86.79389
1108.274, 86.75643
1108.756, 86.38876
1109.238, 86.09169
1109.720, 86.20635
1110.202, 86.29819
1110.685, 86.07778
1111.167, 85.60843
1111.649, 85.41851
1112.131, 85.47800
1112.613, 85.47058
1113.095, 85.16724
1113.577, 84.92163
1114.059, 85.11440
1114.542, 85.43298
1115.024, 85.49364
1115.506, 85.22440
1115.988, 85.00513
1116.470, 84.82993
1116.952, 84.76179
1117.434, 84.94771
1117.916, 85.17785
1118.398, 85.21011
1118.880, 85.10731
1119.363, 85.01676
1119.845, 84.87245
1120.327, 84.98855
1120.809, 85.50032
1121.291, 85.90876
1121.773, 85.50792
1122.255, 84.75677
1122.737, 84.50539
1123.220, 84.72295
1123.702, 84.88112
1124.184, 84.83170
1124.666, 84.64323
1125.148, 84.26066
1125.630, 83.84203
1126.112, 83.59142
1126.594, 83.51845
1127.077, 83.76237
1127.559, 84.36219
1128.041, 84.71866
1128.523, 84.20637
1129.005, 83.76743
1129.487, 83.89797
1129.969, 84.36111
1130.451, 84.33408
1130.933, 83.90144
1131.416, 83.77415
1131.898, 84.24255
1132.380, 84.60804
1132.862, 84.07276
1133.344, 83.51669
1133.826, 83.79001
1134.308, 84.82195
1134.790, 85.08083
1135.272, 84.54659
1135.755, 84.08305
1136.237, 84.07008
1136.719, 84.21632
1137.201, 84.26630
1137.683, 84.30572
1138.165, 84.48518
1138.647, 84.90666
1139.129, 85.02090
1139.612, 84.79704
1140.094, 84.47881
1140.576, 84.09581
1141.058, 83.81111
1141.540, 83.96227
1142.022, 84.35001
1142.504, 84.54499
1142.986, 84.30626
1143.469, 84.17464
1143.951, 84.17013
1144.433, 84.24776
1144.915, 84.38110
1145.397, 84.56430
1145.879, 84.81984
1146.361, 85.12265
1146.843, 85.37230
1147.325, 85.57088
1147.807, 85.65347
1148.290, 85.58601
1148.772, 85.45096
1149.254, 85.35397
1149.736, 85.26714
1150.218, 85.05858
1150.700, 84.74015
1151.182, 84.57874
1151.664, 84.63038
1152.147, 84.98885
1152.629, 85.88873
1153.111, 86.85451
1153.593, 86.84214
1154.075, 86.09476
1154.557, 85.55606
1155.039, 85.36756
1155.521, 85.44752
1156.004, 86.11243
1156.486, 86.63358
1156.968, 86.61242
1157.450, 86.24023
1157.932, 86.10920
1158.414, 86.18837
1158.896, 86.22585
1159.378, 86.12183
1159.860, 86.16238
1160.343, 86.76575
1160.825, 87.37580
1161.307, 87.55891
1161.789, 87.38625
1162.271, 87.46912
1162.753, 87.78974
1163.235, 87.91056
1163.717, 87.57761
1164.199, 87.24290
1164.682, 87.26041
1165.164, 87.47290
1165.646, 87.77674
1166.128, 88.17773
1166.610, 88.32228
1167.092, 88.19942
1167.574, 88.07119
1168.056, 88.04057
1168.539, 88.09672
1169.021, 88.30840
1169.503, 88.56478
1169.985, 88.71091
1170.467, 88.73624
1170.949, 88.66448
1171.431, 88.48264
1171.913, 88.33916
1172.396, 88.35648
1172.878, 88.43858
1173.360, 88.47812
1173.842, 88.51065
1174.324, 88.60877
1174.806, 88.78114
1175.288, 89.04301
1175.770, 89.43822
1176.252, 89.67927
1176.734, 89.29711
1177.217, 88.81026
1177.699, 88.97571
1178.181, 89.57056
1178.663, 89.89391
1179.145, 89.62027
1179.627, 89.66763
1180.109, 90.16171
1180.591, 90.73315
1181.074, 91.05472
1181.556, 91.21251
1182.038, 91.34985
1182.520, 91.44434
1183.002, 91.33472
1183.484, 90.77827
1183.966, 90.51754
1184.448, 90.68965
1184.931, 91.03660
1185.413, 91.33324
1185.895, 91.57729
1186.377, 91.78611
1186.859, 91.94973
1187.341, 91.95692
1187.823, 91.62619
1188.305, 91.47873
1188.787, 91.65788
1189.270, 91.93722
1189.752, 91.94324
1190.234, 91.85835
1190.716, 92.06840
1191.198, 92.59708
1191.680, 92.92066
1192.162, 92.80766
1192.644, 92.70830
1193.126, 92.70329
1193.609, 92.81414
1194.091, 93.20044
1194.573, 93.68089
1195.055, 93.86227
1195.537, 93.66877
1196.019, 93.62113
1196.501, 93.93250
1196.983, 94.21790
1197.466, 94.35909
1197.948, 94.42190
1198.430, 94.51904
1198.912, 94.63303
1199.394, 94.70327
1199.876, 94.69371
1200.358, 94.84045
1200.840, 95.31664
1201.323, 95.72312
1201.805, 95.91340
1202.287, 95.95244
1202.769, 95.83305
1203.251, 95.69770
1203.733, 95.91190
1204.215, 96.68595
1204.697, 97.20329
1205.179, 97.20548
1205.661, 97.19643
1206.144, 97.41277
1206.626, 97.74065
1207.108, 97.93031
1207.590, 98.02315
1208.072, 98.09053
1208.554, 98.11045
1209.036, 98.25056
1209.518, 98.60622
1210.001, 98.91780
1210.483, 98.98905
1210.965, 98.98335
1211.447, 99.33852
1211.929, 99.91454
1212.411, 100.4154
1212.893, 100.7145
1213.375, 101.0419
1213.858, 101.4650
1214.340, 101.8315
1214.822, 102.0416
1215.304, 102.1529
1215.786, 102.2597
1216.268, 102.3856
1216.750, 102.5756
1217.232, 102.8155
1217.714, 103.2134
1218.197, 103.8661
1218.679, 104.4702
1219.161, 104.8200
1219.643, 104.9974
1220.125, 105.1050
1220.607, 105.2026
1221.089, 105.4421
1221.571, 106.1222
1222.053, 106.4058
1222.536, 106.0839
1223.018, 105.8169
1223.500, 106.0950
1223.982, 106.6973
1224.464, 107.3387
1224.946, 107.9334
1225.428, 108.2822
1225.910, 107.8939
1226.393, 108.0514
1226.875, 108.9176
1227.357, 109.8692
1227.839, 110.5924
1228.321, 111.0160
1228.803, 110.6804
1229.285, 110.0122
1229.767, 110.0207
1230.250, 111.5309
1230.732, 112.5357
1231.214, 112.9432
1231.696, 113.1250
1232.178, 113.2275
1232.660, 113.3729
1233.142, 113.8272
1233.624, 114.4443
1234.106, 114.8540
1234.589, 114.8292
1235.071, 115.0658
1235.553, 115.5998
1236.035, 116.2940
1236.517, 117.2345
1236.999, 118.1146
1237.481, 118.4211
1237.963, 118.4125
1238.445, 118.7173
1238.928, 119.5197
1239.410, 120.1162
1239.892, 120.4740
1240.374, 120.7424
1240.856, 120.9393
1241.338, 121.1881
1241.820, 121.6221
1242.302, 122.1942
1242.785, 122.8100
1243.267, 123.5071
1243.749, 124.0215
1244.231, 124.3357
1244.713, 124.6757
1245.195, 125.2494
1245.677, 125.8683
1246.159, 126.3731
1246.641, 126.8297
1247.124, 127.3550
1247.606, 127.9544
1248.088, 128.5585
1248.570, 129.1548
1249.052, 129.6469
1249.534, 129.7793
1250.016, 129.9993
1250.498, 130.6504
1250.980, 131.5089
1251.463, 132.3423
1251.945, 133.1461
1252.427, 133.6571
1252.909, 133.8939
1253.391, 134.1744
1253.873, 134.6388
1254.355, 135.2559
1254.837, 136.1454
1255.320, 137.0716
1255.802, 137.7628
1256.284, 138.2465
1256.766, 138.5926
1257.248, 138.8524
1257.730, 139.3592
1258.212, 140.6494
1258.694, 141.7102
1259.177, 142.2097
1259.659, 142.4902
1260.141, 142.8657
1260.623, 143.3170
1261.105, 143.6964
1261.587, 144.0664
1262.069, 144.7361
1262.551, 146.2923
1263.033, 147.4318
1263.516, 147.8707
1263.998, 148.1497
1264.480, 148.8532
1264.962, 149.7547
1265.444, 150.3309
1265.926, 150.6739
1266.408, 151.1710
1266.890, 151.9024
1267.372, 152.9145
1267.855, 154.3255
1268.337, 155.6362
1268.819, 156.2421
1269.301, 156.6295
1269.783, 157.5140
1270.265, 158.7279
1270.747, 159.8023
1271.229, 160.7473
1271.712, 161.2903
1272.194, 161.3581
1272.676, 161.4948
1273.158, 162.1652
1273.640, 163.0638
1274.122, 163.9322
1274.604, 164.8175
1275.086, 165.8531
1275.568, 167.1338
1276.051, 167.8941
1276.533, 168.1174
1277.015, 168.3461
1277.497, 168.9099
1277.979, 169.6378
1278.461, 170.5580
1278.943, 171.5083
1279.425, 172.2451
1279.907, 172.7833
1280.390, 173.6573
1280.872, 174.8228
1281.354, 175.8445
1281.836, 176.3331
1282.318, 176.8311
1282.800, 177.4697
1283.282, 178.2523
1283.764, 179.2495
1284.247, 180.4099
1284.729, 181.3667
1285.211, 182.1884
1285.693, 183.1245
1286.175, 184.6335
1286.657, 185.7077
1287.139, 186.1669
1287.621, 186.3635
1288.104, 186.3902
1288.586, 186.4390
1289.068, 186.9753
1289.550, 187.8615
1290.032, 188.7863
1290.514, 189.7278
1290.996, 190.6281
1291.478, 191.5426
1291.960, 192.1938
1292.443, 192.2049
1292.925, 192.0832
1293.407, 192.4800
1293.889, 193.1603
1294.371, 193.7325
1294.853, 194.1277
1295.335, 194.7390
1295.817, 195.5798
1296.299, 196.1764
1296.782, 196.1251
1297.264, 195.9964
1297.746, 196.1645
1298.228, 196.5277
1298.710, 197.0463
1299.192, 197.6976
1299.674, 197.9225
1300.156, 197.7895
1300.639, 197.7546
1301.121, 198.1407
1301.603, 198.3451
1302.085, 197.8087
1302.567, 197.3705
1303.049, 197.4195
1303.531, 197.9222
##END=



