##NAMES=Gahnite
##RRUFFID=R040027
##IDEAL CHEMISTRY=Zn^2+^Al_2_O_4_
##LOCALITY=Rowe, Franklin County, Massachusetts, USA
##OWNER=RRUFF
##SOURCE=University of Arizona Mineral Museum
##DESCRIPTION=Dark blue octahedral single crystals embedded in quartz matrix
##STATUS=The identification of this mineral has been confirmed by X-ray diffraction and chemical analysis
##URL=rruff.info/R040027
##MEASURED CHEMISTRY=(Zn_0.83_Fe_0.11_Mg_0.06_)_Σ=1_(Al_0.96_Fe_0.04_)_Σ=2_O_4_
124.7438, 139.7795
125.2259, 138.3698
125.7081, 138.4523
126.1902, 139.7330
126.6723, 140.6202
127.1544, 140.5990
127.6365, 140.4934
128.1186, 140.8582
128.6008, 141.9100
129.0829, 143.3317
129.5650, 145.0993
130.0471, 147.1564
130.5292, 148.3814
131.0113, 147.4950
131.4935, 144.8937
131.9756, 142.0785
132.4577, 138.9769
132.9398, 136.1056
133.4219, 135.3409
133.9040, 136.8271
134.3862, 139.0443
134.8683, 140.5613
135.3504, 141.3997
135.8325, 141.7540
136.3146, 141.3168
136.7967, 140.2588
137.2789, 140.4896
137.7610, 142.2959
138.2431, 144.6814
138.7252, 146.5580
139.2073, 148.0378
139.6894, 148.5288
140.1716, 147.5273
140.6537, 144.7424
141.1358, 142.5885
141.6179, 141.0269
142.1000, 140.0616
142.5821, 139.8250
143.0643, 140.6184
143.5464, 141.4845
144.0285, 142.0142
144.5106, 141.9950
144.9927, 142.1781
145.4748, 142.5496
145.9570, 143.1218
146.4391, 143.9944
146.9212, 145.7825
147.4033, 147.1459
147.8854, 147.4243
148.3675, 145.7193
148.8497, 144.3150
149.3318, 143.0481
149.8139, 142.0529
150.2960, 142.0936
150.7781, 144.3717
151.2602, 146.8024
151.7424, 148.2422
152.2245, 147.9024
152.7066, 147.4956
153.1887, 146.9971
153.6708, 146.4403
154.1529, 146.1799
154.6351, 146.8001
155.1172, 147.3954
155.5993, 147.3627
156.0814, 146.1312
156.5635, 144.7869
157.0456, 143.2799
157.5278, 141.6331
158.0099, 140.7045
158.4920, 141.1786
158.9741, 142.2056
159.4562, 143.0297
159.9383, 143.2793
160.4205, 143.4808
160.9026, 143.9029
161.3847, 144.5857
161.8668, 145.0002
162.3489, 144.8552
162.8310, 144.3794
163.3132, 143.8381
163.7953, 143.4542
164.2774, 142.9244
164.7595, 142.0047
165.2416, 140.6095
165.7237, 139.2841
166.2059, 138.1626
166.6880, 137.2861
167.1701, 136.7188
167.6522, 136.6289
168.1343, 136.7642
168.6164, 136.9818
169.0985, 137.2875
169.5807, 137.5754
170.0628, 137.9170
170.5449, 138.1945
171.0270, 138.1703
171.5091, 137.7666
171.9912, 136.9912
172.4734, 135.6716
172.9555, 133.5564
173.4376, 131.6539
173.9197, 130.8379
174.4018, 130.9169
174.8839, 131.3927
175.3661, 132.2859
175.8482, 133.3038
176.3303, 134.0453
176.8124, 134.4018
177.2945, 134.5874
177.7766, 134.8444
178.2588, 135.1396
178.7409, 135.3268
179.2230, 134.9780
179.7051, 134.5023
180.1872, 134.7245
180.6693, 135.9475
181.1515, 137.6142
181.6336, 139.1729
182.1157, 140.5868
182.5978, 141.5845
183.0799, 141.8875
183.5620, 141.6300
184.0442, 141.0769
184.5263, 140.0365
185.0084, 139.0466
185.4905, 139.3342
185.9726, 140.8434
186.4547, 142.1720
186.9369, 141.9636
187.4190, 140.5743
187.9011, 139.5033
188.3832, 139.0983
188.8653, 139.1414
189.3474, 139.1622
189.8296, 139.1578
190.3117, 139.2377
190.7938, 139.3943
191.2759, 139.6632
191.7580, 140.4121
192.2401, 142.0592
192.7223, 144.0668
193.2044, 144.6124
193.6865, 143.5347
194.1686, 142.2940
194.6507, 142.5911
195.1328, 144.3216
195.6150, 145.1589
196.0971, 144.3806
196.5792, 142.3352
197.0613, 140.1363
197.5434, 137.6618
198.0255, 135.6248
198.5077, 134.9859
198.9898, 135.7944
199.4719, 136.5843
199.9540, 137.0804
200.4361, 137.2821
200.9182, 137.1134
201.4004, 136.4924
201.8825, 135.7564
202.3646, 135.1531
202.8467, 134.6594
203.3288, 134.5720
203.8109, 135.1328
204.2931, 136.2255
204.7752, 136.7681
205.2573, 136.5969
205.7394, 136.2707
206.2215, 136.4656
206.7036, 137.3293
207.1858, 137.9359
207.6679, 138.0984
208.1500, 137.8191
208.6321, 136.9765
209.1142, 135.2813
209.5963, 133.5635
210.0785, 132.7956
210.5606, 133.2227
211.0427, 133.7448
211.5248, 134.3307
212.0069, 134.9569
212.4890, 134.2938
212.9712, 131.7859
213.4533, 128.8398
213.9354, 127.1094
214.4175, 126.9597
214.8996, 126.8524
215.3817, 126.2791
215.8639, 125.2400
216.3460, 125.1893
216.8281, 126.7031
217.3102, 128.4405
217.7923, 128.7192
218.2744, 126.8095
218.7565, 125.3546
219.2387, 125.2249
219.7208, 126.4660
220.2029, 126.7133
220.6850, 125.3835
221.1671, 123.7491
221.6492, 123.3374
222.1314, 124.7622
222.6135, 125.9840
223.0956, 126.4096
223.5777, 125.9965
224.0598, 126.0937
224.5419, 127.0642
225.0241, 128.1455
225.5062, 128.4681
225.9883, 127.6090
226.4704, 126.8710
226.9525, 126.5236
227.4346, 126.5685
227.9168, 126.8742
228.3989, 127.6635
228.8810, 128.4765
229.3631, 128.7781
229.8452, 128.2502
230.3273, 127.8641
230.8095, 127.9579
231.2916, 128.5706
231.7737, 128.5274
232.2558, 127.4996
232.7379, 126.1581
233.2200, 125.1685
233.7022, 124.5995
234.1843, 124.2622
234.6664, 124.2354
235.1485, 124.5274
235.6306, 124.4893
236.1127, 123.9735
236.5949, 123.2765
237.0770, 122.6569
237.5591, 122.0910
238.0412, 121.6492
238.5233, 121.3589
239.0054, 121.2196
239.4876, 121.1338
239.9697, 121.0044
240.4518, 121.0322
240.9339, 121.4474
241.4160, 122.5518
241.8981, 123.4593
242.3803, 124.0798
242.8624, 124.4087
243.3445, 124.2290
243.8266, 123.2292
244.3087, 122.0719
244.7908, 121.2931
245.2730, 120.9839
245.7551, 120.8656
246.2372, 120.8873
246.7193, 121.0549
247.2014, 121.5433
247.6835, 122.7327
248.1657, 123.7746
248.6478, 123.9472
249.1299, 122.7892
249.6120, 121.7602
250.0941, 120.9990
250.5762, 120.5032
251.0584, 120.2644
251.5405, 120.3394
252.0226, 120.6001
252.5047, 120.9968
252.9868, 121.6696
253.4689, 122.1791
253.9511, 122.5707
254.4332, 122.7846
254.9153, 122.3936
255.3974, 121.0590
255.8795, 119.6512
256.3616, 118.7050
256.8438, 118.2711
257.3259, 118.1724
257.8080, 118.5291
258.2901, 119.2022
258.7722, 119.6078
259.2543, 119.5030
259.7365, 119.5411
260.2186, 120.2884
260.7007, 122.3365
261.1828, 123.1878
261.6649, 122.1869
262.1470, 120.0675
262.6292, 119.0254
263.1113, 119.3525
263.5934, 120.1817
264.0755, 121.1983
264.5576, 122.5864
265.0397, 123.5535
265.5219, 124.1550
266.0040, 124.2866
266.4861, 123.4412
266.9682, 121.0109
267.4503, 119.1433
267.9324, 119.1784
268.4146, 121.7803
268.8967, 123.1054
269.3788, 122.7481
269.8609, 121.5251
270.3430, 121.0034
270.8251, 121.3881
271.3073, 121.7909
271.7894, 121.7694
272.2715, 121.2506
272.7536, 121.1296
273.2357, 121.5238
273.7178, 122.1428
274.2000, 122.6076
274.6821, 122.9341
275.1642, 122.9960
275.6463, 122.5956
276.1284, 121.7301
276.6105, 121.4278
277.0927, 121.8489
277.5748, 122.4843
278.0569, 122.6566
278.5390, 122.3090
279.0211, 121.9757
279.5032, 121.8300
279.9854, 121.8520
280.4675, 121.8639
280.9496, 121.8812
281.4317, 121.8417
281.9138, 121.5563
282.3959, 121.0038
282.8781, 120.8399
283.3602, 121.4679
283.8423, 122.5844
284.3244, 122.6848
284.8065, 121.6167
285.2886, 120.5011
285.7708, 120.4199
286.2529, 121.3228
286.7350, 122.3457
287.2171, 123.5349
287.6992, 124.5721
288.1813, 124.2063
288.6635, 122.3516
289.1456, 120.6593
289.6277, 120.6601
290.1098, 122.1031
290.5919, 123.3135
291.0740, 124.0437
291.5562, 124.4044
292.0383, 124.5548
292.5204, 124.4996
293.0025, 124.3136
293.4846, 124.0914
293.9667, 123.7877
294.4489, 123.1292
294.9310, 121.9472
295.4131, 120.7838
295.8952, 120.6290
296.3773, 121.3345
296.8594, 121.9313
297.3416, 121.4066
297.8237, 120.4281
298.3058, 120.8207
298.7879, 122.9604
299.2700, 125.2233
299.7521, 125.4555
300.2343, 124.1506
300.7164, 122.8716
301.1985, 122.1998
301.6806, 122.0608
302.1627, 122.5985
302.6448, 123.8797
303.1270, 124.9545
303.6091, 124.5939
304.0912, 123.3936
304.5733, 122.5760
305.0554, 123.0842
305.5375, 123.9894
306.0197, 124.1687
306.5018, 123.6615
306.9839, 123.1829
307.4660, 123.2914
307.9481, 123.7571
308.4302, 124.2616
308.9124, 124.7828
309.3945, 125.2355
309.8766, 125.5824
310.3587, 125.8173
310.8408, 125.8869
311.3229, 125.7302
311.8051, 125.4059
312.2872, 124.9533
312.7693, 124.2705
313.2514, 123.6478
313.7335, 123.2179
314.2156, 122.9756
314.6978, 122.8974
315.1799, 123.1170
315.6620, 123.4063
316.1441, 123.6054
316.6262, 123.6855
317.1083, 123.6843
317.5905, 123.4908
318.0726, 123.2387
318.5547, 123.1597
319.0368, 123.4182
319.5189, 123.8053
320.0010, 124.3274
320.4832, 125.0848
320.9653, 125.4554
321.4474, 124.9223
321.9295, 124.0246
322.4116, 123.3932
322.8937, 122.9125
323.3759, 122.9624
323.8580, 124.0443
324.3401, 126.2394
324.8222, 127.6282
325.3043, 127.5404
325.7864, 126.7560
326.2686, 125.8763
326.7507, 124.8020
327.2328, 123.8081
327.7149, 122.6877
328.1970, 121.5298
328.6791, 121.1928
329.1613, 122.5681
329.6434, 124.0664
330.1255, 124.8742
330.6076, 124.2140
331.0897, 123.9957
331.5718, 124.5408
332.0540, 125.5406
332.5361, 126.1050
333.0182, 125.9829
333.5003, 125.7640
333.9824, 125.7134
334.4645, 125.9841
334.9467, 125.9229
335.4288, 125.3236
335.9109, 124.5401
336.3930, 124.2059
336.8751, 124.5420
337.3572, 124.7912
337.8394, 124.5959
338.3215, 123.9110
338.8036, 123.9750
339.2857, 125.1126
339.7678, 126.4356
340.2499, 126.8709
340.7320, 126.2215
341.2141, 125.8529
341.6963, 126.2353
342.1784, 127.1202
342.6605, 127.2063
343.1426, 126.3399
343.6247, 125.3909
344.1068, 125.0767
344.5890, 125.3753
345.0711, 125.7273
345.5532, 126.0042
346.0353, 126.3543
346.5174, 127.3494
346.9995, 128.9806
347.4817, 130.1322
347.9638, 129.7810
348.4459, 128.3459
348.9280, 127.2855
349.4101, 126.6916
349.8922, 126.5483
350.3744, 127.0070
350.8565, 127.9559
351.3386, 128.9762
351.8207, 130.2306
352.3028, 131.3026
352.7849, 131.2509
353.2671, 130.0502
353.7492, 128.8971
354.2313, 128.9783
354.7134, 129.7998
355.1955, 130.5065
355.6776, 130.8084
356.1598, 130.8731
356.6419, 130.7159
357.1240, 130.3995
357.6061, 130.2577
358.0882, 130.6170
358.5703, 131.1930
359.0525, 131.7348
359.5346, 132.2676
360.0167, 132.5954
360.4988, 132.3217
360.9809, 131.7480
361.4630, 131.5424
361.9452, 132.5571
362.4273, 133.5811
362.9094, 133.8403
363.3915, 133.0720
363.8736, 132.3654
364.3557, 131.9743
364.8379, 131.8721
365.3200, 132.0325
365.8021, 132.8000
366.2842, 133.4861
366.7663, 133.9775
367.2484, 134.2740
367.7306, 134.1600
368.2127, 133.1107
368.6948, 131.9577
369.1769, 131.2447
369.6590, 131.4061
370.1411, 131.5056
370.6233, 131.6150
371.1054, 131.6526
371.5875, 131.2665
372.0696, 130.0370
372.5517, 128.8983
373.0338, 128.2221
373.5160, 128.0822
373.9981, 128.2310
374.4802, 128.8411
374.9623, 129.6031
375.4444, 130.0395
375.9265, 130.1461
376.4087, 129.9157
376.8908, 129.1326
377.3729, 127.8346
377.8550, 127.4087
378.3371, 127.9846
378.8192, 129.0967
379.3014, 130.5007
379.7835, 132.2439
380.2656, 133.4687
380.7477, 133.9645
381.2298, 133.8878
381.7119, 133.4119
382.1941, 132.5258
382.6762, 131.9082
383.1583, 132.1431
383.6404, 133.0538
384.1225, 133.9329
384.6046, 134.6860
385.0868, 135.4894
385.5689, 136.6157
386.0510, 138.0040
386.5331, 139.4346
387.0152, 140.8075
387.4973, 142.1749
387.9795, 143.6546
388.4616, 145.2486
388.9437, 146.8032
389.4258, 148.1734
389.9079, 149.4432
390.3900, 150.7016
390.8722, 151.9150
391.3543, 153.2042
391.8364, 154.5604
392.3185, 156.0239
392.8006, 157.7883
393.2827, 159.5710
393.7649, 161.9281
394.2470, 165.4626
394.7291, 170.8535
395.2112, 175.7690
395.6933, 178.5740
396.1754, 180.5612
396.6576, 183.6671
397.1397, 188.7574
397.6218, 194.6503
398.1039, 201.0458
398.5860, 207.9331
399.0681, 215.2251
399.5503, 223.8359
400.0324, 232.3206
400.5145, 239.5454
400.9966, 244.9490
401.4787, 249.9379
401.9608, 254.4176
402.4430, 258.5343
402.9251, 262.8360
403.4072, 267.3021
403.8893, 272.0060
404.3714, 276.8712
404.8535, 281.8041
405.3357, 287.3465
405.8178, 293.3116
406.2999, 300.0377
406.7820, 308.0395
407.2641, 317.4030
407.7462, 327.4854
408.2284, 337.9361
408.7105, 348.8579
409.1926, 361.8163
409.6747, 376.8770
410.1568, 393.4778
410.6389, 411.7837
411.1211, 431.3613
411.6032, 450.7465
412.0853, 469.9552
412.5674, 488.4927
413.0495, 506.9531
413.5316, 525.0411
414.0138, 540.7540
414.4959, 556.0641
414.9780, 567.4334
415.4601, 569.8157
415.9422, 562.9701
416.4243, 547.0202
416.9065, 518.7706
417.3886, 482.1618
417.8707, 443.5222
418.3528, 401.3876
418.8349, 361.0515
419.3170, 324.5451
419.7992, 291.7681
420.2813, 264.0211
420.7634, 242.3845
421.2455, 224.8652
421.7276, 210.3740
422.2097, 199.1910
422.6919, 189.5710
423.1740, 181.0559
423.6561, 173.7923
424.1382, 167.7999
424.6203, 163.8826
425.1024, 160.6081
425.5846, 157.5748
426.0667, 154.7610
426.5488, 152.7249
427.0309, 152.0525
427.5130, 151.6200
427.9951, 150.5848
428.4773, 148.4037
428.9594, 146.8668
429.4415, 146.4433
429.9236, 146.5808
430.4057, 145.6921
430.8878, 143.3690
431.3700, 141.3036
431.8521, 140.4041
432.3342, 140.6711
432.8163, 140.4003
433.2984, 139.4947
433.7805, 138.3943
434.2627, 137.4304
434.7448, 136.6353
435.2269, 136.3929
435.7090, 136.9999
436.1911, 138.0073
436.6732, 138.6109
437.1554, 138.8211
437.6375, 138.6891
438.1196, 138.2805
438.6017, 137.5407
439.0838, 136.1942
439.5659, 134.0603
440.0480, 132.1223
440.5302, 131.5202
441.0123, 131.6174
441.4944, 131.3455
441.9765, 129.3878
442.4586, 127.6592
442.9407, 127.5943
443.4229, 129.0169
443.9050, 130.3345
444.3871, 130.9137
444.8692, 131.1469
445.3513, 131.3489
445.8334, 132.0293
446.3156, 131.8477
446.7977, 129.7345
447.2798, 126.7409
447.7619, 124.7244
448.2440, 124.3116
448.7261, 124.3680
449.2083, 124.7941
449.6904, 125.6205
450.1725, 126.2711
450.6546, 126.9383
451.1367, 127.1849
451.6188, 126.4413
452.1010, 124.1143
452.5831, 122.9026
453.0652, 123.3516
453.5473, 124.7232
454.0294, 125.3018
454.5115, 124.9849
454.9937, 124.7224
455.4758, 125.0188
455.9579, 125.7591
456.4400, 126.2293
456.9221, 126.3957
457.4042, 126.6384
457.8864, 127.3997
458.3685, 128.5429
458.8506, 129.7514
459.3327, 131.0894
459.8148, 132.1978
460.2969, 132.3602
460.7791, 131.8654
461.2612, 131.6633
461.7433, 132.3895
462.2254, 133.5739
462.7075, 135.0144
463.1896, 136.7672
463.6718, 138.0022
464.1539, 137.7089
464.6360, 136.9317
465.1181, 136.7133
465.6002, 138.0342
466.0823, 139.1799
466.5645, 139.3904
467.0466, 138.9974
467.5287, 139.2809
468.0108, 141.0390
468.4929, 142.9075
468.9750, 144.4191
469.4572, 145.5058
469.9393, 146.4663
470.4214, 147.2787
470.9035, 147.9736
471.3856, 148.5663
471.8677, 149.0222
472.3499, 149.4777
472.8320, 149.9415
473.3141, 150.4357
473.7962, 151.1862
474.2783, 152.2828
474.7604, 152.9994
475.2426, 152.6248
475.7247, 151.3894
476.2068, 150.7354
476.6889, 150.7608
477.1710, 151.0522
477.6531, 151.3074
478.1353, 151.4736
478.6174, 151.4001
479.0995, 150.9961
479.5816, 150.3741
480.0637, 149.4988
480.5458, 148.4660
481.0280, 147.6536
481.5101, 147.3468
481.9922, 147.2948
482.4743, 147.3380
482.9564, 147.4746
483.4385, 147.5853
483.9207, 147.6802
484.4028, 147.6995
484.8849, 147.5791
485.3670, 146.9323
485.8491, 146.5657
486.3312, 146.7141
486.8134, 147.3042
487.2955, 147.9515
487.7776, 148.9808
488.2597, 149.6615
488.7418, 149.5392
489.2239, 148.2968
489.7061, 147.9123
490.1882, 148.8269
490.6703, 149.9492
491.1524, 149.8100
491.6345, 148.1437
492.1166, 147.3350
492.5988, 148.0800
493.0809, 149.7140
493.5630, 150.5487
494.0451, 150.6081
494.5272, 150.4951
495.0093, 150.4096
495.4915, 150.4347
495.9736, 150.9779
496.4557, 152.1003
496.9378, 152.8835
497.4199, 151.9177
497.9020, 150.2215
498.3842, 149.4093
498.8663, 150.3848
499.3484, 151.7523
499.8305, 152.5064
500.3126, 152.9570
500.7947, 153.8858
501.2769, 156.1820
501.7590, 158.5185
502.2411, 160.2695
502.7232, 161.3447
503.2053, 162.2891
503.6874, 162.8476
504.1696, 163.5029
504.6517, 164.6192
505.1338, 166.5905
505.6159, 168.3402
506.0980, 169.8621
506.5801, 171.0900
507.0623, 171.9200
507.5444, 172.4365
508.0265, 172.2756
508.5086, 171.1203
508.9907, 169.1070
509.4728, 167.3032
509.9550, 165.7123
510.4371, 164.3474
510.9192, 163.4490
511.4013, 162.8399
511.8834, 161.8335
512.3655, 160.2690
512.8477, 158.4637
513.3298, 156.5225
513.8119, 154.6201
514.2940, 153.1707
514.7761, 152.6849
515.2582, 152.4790
515.7404, 152.0943
516.2225, 151.5317
516.7046, 150.8613
517.1867, 149.7151
517.6688, 148.7471
518.1509, 148.5254
518.6331, 149.7114
519.1152, 150.1988
519.5973, 148.8503
520.0794, 146.9223
520.5615, 146.0243
521.0436, 146.8274
521.5258, 147.6170
522.0079, 148.2223
522.4900, 148.6135
522.9721, 148.6044
523.4542, 148.1047
523.9363, 147.4725
524.4185, 146.7890
524.9006, 146.0557
525.3827, 145.7940
525.8648, 146.0944
526.3469, 146.4116
526.8290, 146.0580
527.3112, 145.1964
527.7933, 144.4321
528.2754, 143.8896
528.7575, 143.5333
529.2396, 143.3257
529.7217, 143.2640
530.2039, 143.3403
530.6860, 143.8854
531.1681, 144.3127
531.6502, 144.0805
532.1323, 143.1780
532.6144, 142.3637
533.0966, 142.3562
533.5787, 142.2669
534.0608, 141.3741
534.5429, 138.2946
535.0250, 136.5053
535.5071, 137.2634
535.9893, 139.1048
536.4714, 139.8751
536.9535, 138.8846
537.4356, 138.1832
537.9177, 138.3986
538.3998, 139.3040
538.8820, 139.3980
539.3641, 138.5374
539.8462, 137.5369
540.3283, 136.8382
540.8104, 136.4307
541.2925, 136.2532
541.7747, 136.3196
542.2568, 136.5204
542.7389, 136.7411
543.2210, 137.0057
543.7031, 137.4086
544.1852, 138.1398
544.6674, 138.7525
545.1495, 138.4957
545.6316, 137.7728
546.1137, 137.5911
546.5958, 139.0184
547.0779, 140.5866
547.5601, 141.4791
548.0422, 141.6344
548.5243, 141.8141
549.0064, 142.0941
549.4885, 142.5084
549.9706, 143.1094
550.4528, 144.2362
550.9349, 144.8514
551.4170, 144.5625
551.8991, 144.0789
552.3812, 144.5556
552.8633, 146.2706
553.3455, 147.8049
553.8276, 148.7918
554.3097, 149.3783
554.7918, 149.9993
555.2739, 150.6453
555.7560, 151.3402
556.2382, 152.2128
556.7203, 153.1228
557.2024, 153.6729
557.6845, 153.8354
558.1666, 154.0470
558.6487, 154.7664
559.1309, 155.7142
559.6130, 156.5072
560.0951, 156.9677
560.5772, 157.4367
561.0593, 158.1600
561.5414, 158.9914
562.0236, 159.6620
562.5057, 159.5858
562.9878, 159.8877
563.4699, 161.1569
563.9520, 163.2554
564.4341, 164.8200
564.9163, 165.7198
565.3984, 166.2652
565.8805, 166.5477
566.3626, 166.5073
566.8447, 166.5603
567.3268, 166.6949
567.8090, 166.9524
568.2911, 167.5105
568.7732, 168.3127
569.2553, 168.8096
569.7374, 168.8833
570.2195, 168.6269
570.7017, 167.8627
571.1838, 166.8220
571.6659, 166.2475
572.1480, 167.1530
572.6301, 168.1958
573.1122, 168.0812
573.5944, 166.9289
574.0765, 165.9358
574.5586, 165.4363
575.0407, 165.4036
575.5228, 165.9490
576.0049, 167.4632
576.4871, 168.4715
576.9692, 168.4802
577.4513, 168.1817
577.9334, 168.2871
578.4155, 169.2292
578.8976, 169.4346
579.3798, 168.2770
579.8619, 166.6262
580.3440, 166.9242
580.8261, 169.3495
581.3082, 171.4079
581.7903, 171.7909
582.2725, 171.1047
582.7546, 171.0834
583.2367, 171.6891
583.7188, 172.4711
584.2009, 173.0665
584.6830, 173.6477
585.1652, 174.5144
585.6473, 175.7665
586.1294, 176.8904
586.6115, 177.4404
587.0936, 177.7785
587.5757, 178.2786
588.0578, 179.4068
588.5399, 180.2625
589.0220, 180.3232
589.5042, 180.0279
589.9863, 180.4119
590.4684, 181.9131
590.9505, 183.3933
591.4326, 184.6746
591.9147, 185.7210
592.3969, 186.0165
592.8790, 185.3370
593.3611, 184.8728
593.8432, 185.8352
594.3253, 187.8134
594.8074, 188.3081
595.2896, 187.0701
595.7717, 185.8878
596.2538, 186.8083
596.7359, 188.9670
597.2180, 190.8454
597.7001, 192.0168
598.1823, 192.8396
598.6644, 193.3454
599.1465, 193.6921
599.6286, 194.1518
600.1107, 194.8735
600.5928, 195.6497
601.0750, 196.2998
601.5571, 196.8873
602.0392, 197.9096
602.5213, 199.4443
603.0034, 201.3305
603.4855, 203.5865
603.9677, 206.2758
604.4498, 208.5878
604.9319, 210.3942
605.4140, 212.2719
605.8961, 214.8581
606.3782, 218.0429
606.8604, 220.8557
607.3425, 223.1628
607.8246, 225.2113
608.3067, 226.8291
608.7888, 228.4261
609.2709, 230.8903
609.7531, 235.2046
610.2352, 239.6930
610.7173, 243.3425
611.1994, 246.3246
611.6815, 249.1399
612.1636, 251.3600
612.6458, 254.0370
613.1279, 257.8432
613.6100, 262.8001
614.0921, 267.3660
614.5742, 271.5305
615.0563, 275.3901
615.5385, 278.8760
616.0206, 281.8764
616.5027, 285.4822
616.9848, 289.8833
617.4669, 294.3087
617.9490, 297.8045
618.4312, 300.4710
618.9133, 302.6132
619.3954, 304.1360
619.8775, 305.6353
620.3596, 307.8208
620.8417, 310.5462
621.3239, 313.4306
621.8060, 317.5902
622.2881, 320.7505
622.7702, 320.9897
623.2523, 318.9538
623.7344, 317.3283
624.2166, 317.0170
624.6987, 317.0424
625.1808, 317.2344
625.6629, 317.6554
626.1450, 317.2545
626.6271, 315.9195
627.1093, 313.9236
627.5914, 311.3724
628.0735, 308.2413
628.5556, 304.8656
629.0377, 301.2478
629.5198, 297.5200
630.0020, 293.6708
630.4841, 289.8008
630.9662, 286.2229
631.4483, 283.0373
631.9304, 280.1387
632.4125, 277.3335
632.8947, 274.7636
633.3768, 272.6442
633.8589, 271.3257
634.3410, 270.2578
634.8231, 269.1937
635.3052, 268.1732
635.7874, 267.4376
636.2695, 266.2903
636.7516, 266.2591
637.2337, 268.0584
637.7158, 271.7826
638.1979, 275.3291
638.6801, 278.3914
639.1622, 282.1717
639.6443, 287.9893
640.1264, 295.5480
640.6085, 302.5218
641.0906, 308.5152
641.5728, 314.9867
642.0549, 323.8368
642.5370, 334.2281
643.0191, 344.8190
643.5012, 355.3252
643.9833, 365.8210
644.4655, 376.3654
644.9476, 386.9644
645.4297, 398.0437
645.9118, 409.2924
646.3939, 421.3725
646.8760, 434.3445
647.3582, 448.2747
647.8403, 462.9420
648.3224, 478.1724
648.8045, 494.9087
649.2866, 513.8703
649.7687, 534.9798
650.2509, 555.9788
650.7330, 577.0475
651.2151, 598.0046
651.6972, 618.3963
652.1793, 638.8350
652.6614, 660.4357
653.1436, 683.4042
653.6257, 705.4567
654.1078, 725.6802
654.5899, 743.2737
655.0720, 757.8016
655.5541, 769.9262
656.0363, 777.0430
656.5184, 778.6171
657.0005, 774.5460
657.4826, 764.5092
657.9647, 747.9500
658.4468, 726.6936
658.9290, 700.5123
659.4111, 669.9900
659.8932, 635.7176
660.3753, 597.2424
660.8574, 558.6462
661.3395, 520.7348
661.8217, 484.1458
662.3038, 450.3763
662.7859, 419.3765
663.2680, 390.8002
663.7501, 364.5354
664.2322, 340.5731
664.7144, 318.5694
665.1965, 298.5199
665.6786, 280.5906
666.1607, 265.4467
666.6428, 252.0138
667.1249, 239.6281
667.6071, 228.1256
668.0892, 218.1059
668.5713, 210.0063
669.0534, 202.8060
669.5355, 195.5978
670.0176, 188.1929
670.4998, 181.9282
670.9819, 177.0833
671.4640, 173.0019
671.9461, 168.6595
672.4282, 164.2858
672.9103, 160.4841
673.3925, 157.5184
673.8746, 155.0601
674.3567, 152.9982
674.8388, 151.2004
675.3209, 149.3963
675.8030, 147.2798
676.2852, 145.3579
676.7673, 143.9439
677.2494, 142.9386
677.7315, 141.7247
678.2136, 139.9137
678.6957, 138.3985
679.1779, 137.6067
679.6600, 137.4877
680.1421, 136.9781
680.6242, 135.9883
681.1063, 135.0978
681.5884, 134.8457
682.0706, 135.0086
682.5527, 134.7764
683.0348, 134.0928
683.5169, 133.5293
683.9990, 133.4305
684.4811, 133.7450
684.9633, 134.5306
685.4454, 136.0308
685.9275, 137.2332
686.4096, 137.6338
686.8917, 137.6473
687.3738, 137.7142
687.8560, 137.8079
688.3381, 138.0103
688.8202, 138.1924
689.3023, 138.6088
689.7844, 139.7380
690.2665, 141.6247
690.7487, 143.7832
691.2308, 146.2595
691.7129, 148.6748
692.1950, 150.3029
692.6771, 151.3179
693.1592, 152.3874
693.6414, 153.8787
694.1235, 155.5158
694.6056, 157.2087
695.0877, 158.8799
695.5698, 160.2834
696.0519, 161.1229
696.5341, 161.8871
697.0162, 162.7146
697.4983, 163.6062
697.9804, 164.7770
698.4625, 166.3801
698.9446, 167.9633
699.4268, 169.3128
699.9089, 170.4328
700.3910, 171.1682
700.8731, 171.4974
701.3552, 171.7256
701.8373, 172.1987
702.3195, 172.7292
702.8016, 172.9374
703.2837, 172.7303
703.7658, 172.5224
704.2479, 172.9290
704.7300, 173.2657
705.2122, 172.8463
705.6943, 170.8961
706.1764, 169.2599
706.6585, 168.4412
707.1406, 167.7366
707.6227, 166.1852
708.1049, 163.4832
708.5870, 161.1902
709.0691, 159.6045
709.5512, 158.4349
710.0333, 157.1949
710.5154, 155.9197
710.9976, 154.8925
711.4797, 154.6492
711.9618, 154.1098
712.4439, 151.5667
712.9260, 147.8513
713.4081, 144.9133
713.8903, 144.2437
714.3724, 143.7810
714.8545, 142.6615
715.3366, 140.9944
715.8187, 139.6859
716.3008, 139.0420
716.7830, 138.2135
717.2651, 136.8204
717.7472, 134.9525
718.2293, 133.3300
718.7114, 131.9481
719.1935, 130.9017
719.6757, 130.3246
720.1578, 130.0930
720.6399, 130.0527
721.1220, 130.1800
721.6041, 130.2203
722.0862, 129.9341
722.5684, 129.5470
723.0505, 129.2010
723.5326, 128.9057
724.0147, 128.7001
724.4968, 128.4957
724.9789, 128.4649
725.4611, 128.7681
725.9432, 129.5373
726.4253, 130.1426
726.9074, 130.5972
727.3895, 130.8664
727.8716, 130.6970
728.3538, 130.2747
728.8359, 130.4611
729.3180, 131.5283
729.8001, 132.6142
730.2822, 132.7334
730.7643, 132.4688
731.2465, 132.6287
731.7286, 133.9323
732.2107, 134.9109
732.6928, 134.4901
733.1749, 133.7471
733.6570, 134.3881
734.1392, 137.2820
734.6213, 139.5683
735.1034, 140.7073
735.5855, 141.2156
736.0676, 142.0553
736.5497, 143.2169
737.0319, 144.6008
737.5140, 146.2595
737.9961, 147.9774
738.4782, 149.5547
738.9603, 150.9614
739.4424, 152.1180
739.9246, 152.5166
740.4067, 153.1326
740.8888, 154.5855
741.3709, 156.6833
741.8530, 158.5367
742.3351, 159.9503
742.8173, 161.3379
743.2994, 162.7458
743.7815, 164.2292
744.2636, 166.0888
744.7457, 168.3303
745.2278, 170.8820
745.7100, 173.8437
746.1921, 176.9880
746.6742, 179.8885
747.1563, 182.5544
747.6384, 184.9678
748.1205, 186.9816
748.6027, 188.8898
749.0848, 190.9056
749.5669, 193.0430
750.0490, 195.0196
750.5311, 196.8692
751.0132, 198.4784
751.4954, 199.7695
751.9775, 200.7251
752.4596, 201.6272
752.9417, 202.4557
753.4238, 203.3846
753.9059, 204.9201
754.3881, 206.6307
754.8702, 207.2873
755.3523, 206.7807
755.8344, 206.1174
756.3165, 207.1185
756.7986, 207.6293
757.2808, 205.0687
757.7629, 197.5372
758.2450, 192.6613
758.7271, 193.7619
759.2092, 196.1724
759.6913, 196.7922
760.1735, 195.2185
760.6556, 193.5197
761.1377, 191.8279
761.6198, 189.7383
762.1019, 186.3181
762.5840, 182.0884
763.0662, 178.9638
763.5483, 177.4168
764.0304, 176.1412
764.5125, 173.9663
764.9946, 171.5313
765.4767, 169.6047
765.9589, 168.6175
766.4410, 167.6573
766.9231, 166.5824
767.4052, 165.4603
767.8873, 164.3762
768.3694, 163.4261
768.8516, 162.1960
769.3337, 160.6218
769.8158, 158.8052
770.2979, 156.6350
770.7800, 154.3097
771.2621, 152.6291
771.7443, 152.0315
772.2264, 151.5684
772.7085, 150.3220
773.1906, 148.7204
773.6727, 147.4019
774.1548, 146.8776
774.6370, 146.2466
775.1191, 145.2848
775.6012, 144.1642
776.0833, 143.2030
776.5654, 142.4881
777.0475, 141.4978
777.5297, 140.0295
778.0118, 138.4169
778.4939, 137.2716
778.9760, 136.5044
779.4581, 135.7831
779.9402, 135.0044
780.4224, 134.2104
780.9045, 133.3933
781.3866, 132.5959
781.8687, 131.9082
782.3508, 131.5683
782.8329, 131.0688
783.3151, 130.2594
783.7972, 129.2613
784.2793, 128.3341
784.7614, 127.5067
785.2435, 126.5815
785.7256, 125.3306
786.2077, 124.1884
786.6898, 124.4835
787.1719, 125.7579
787.6541, 126.3204
788.1362, 124.7595
788.6183, 122.8888
789.1004, 121.9353
789.5825, 121.6143
790.0646, 121.2375
790.5468, 120.6026
791.0289, 119.9520
791.5110, 119.3291
791.9931, 118.7302
792.4752, 118.2422
792.9573, 117.9024
793.4395, 117.2478
793.9216, 115.8884
794.4037, 114.3412
794.8858, 113.6745
795.3679, 113.6728
795.8500, 113.6892
796.3322, 113.1688
796.8143, 112.8058
797.2964, 113.3896
797.7785, 114.5122
798.2606, 114.6402
798.7427, 112.6950
799.2249, 111.2019
799.7070, 110.9054
800.1891, 111.4093
800.6712, 111.3486
801.1533, 110.7163
801.6354, 110.1050
802.1176, 109.7732
802.5997, 109.5965
803.0818, 109.4631
803.5639, 109.3388
804.0460, 109.1180
804.5281, 108.8611
805.0103, 108.3883
805.4924, 107.3871
805.9745, 106.0520
806.4566, 105.2286
806.9387, 105.0998
807.4208, 105.1184
807.9030, 105.1859
808.3851, 105.2608
808.8672, 105.1879
809.3493, 104.9840
809.8314, 104.8136
810.3135, 104.8906
810.7957, 104.9148
811.2778, 104.5537
811.7599, 103.8861
812.2420, 103.1341
812.7241, 102.2140
813.2062, 101.3986
813.6884, 100.6831
814.1705, 100.1350
814.6526, 100.0175
815.1347, 100.3910
815.6168, 100.9991
816.0989, 101.9606
816.5811, 102.9006
817.0632, 102.9055
817.5453, 102.1208
818.0274, 101.1457
818.5095, 100.0044
818.9916, 99.02647
819.4738, 98.46049
819.9559, 98.22764
820.4380, 98.12505
820.9201, 98.26678
821.4022, 98.35648
821.8843, 98.44975
822.3665, 98.40576
822.8486, 97.64169
823.3307, 96.12881
823.8128, 95.07713
824.2949, 94.99998
824.7770, 95.42870
825.2592, 95.87443
825.7413, 96.26517
826.2234, 96.45058
826.7055, 96.31529
827.1876, 96.01651
827.6697, 95.53608
828.1519, 94.94132
828.6340, 94.32301
829.1161, 93.43343
829.5982, 93.22493
830.0803, 94.18227
830.5624, 95.47580
831.0446, 95.30891
831.5267, 93.94907
832.0088, 92.74014
832.4909, 92.03658
832.9730, 91.81528
833.4551, 92.59617
833.9373, 93.70830
834.4194, 94.06887
834.9015, 92.24831
835.3836, 91.17509
835.8657, 91.61609
836.3478, 92.66297
836.8300, 92.88608
837.3121, 92.18130
837.7942, 91.66258
838.2763, 91.54575
838.7584, 91.58100
839.2405, 91.41698
839.7227, 91.14982
840.2048, 90.99950
840.6869, 91.13226
841.1690, 91.14982
841.6511, 90.70864
842.1332, 90.12106
842.6154, 89.75158
843.0975, 89.56911
843.5796, 89.77584
844.0617, 90.62075
844.5438, 91.40466
845.0259, 91.08049
845.5081, 89.88761
845.9902, 88.96992
846.4723, 88.48620
846.9544, 88.37307
847.4365, 88.79781
847.9186, 89.45071
848.4008, 90.05787
848.8829, 90.76598
849.3650, 90.85866
849.8471, 89.82899
850.3292, 88.61158
850.8113, 87.89323
851.2935, 87.72216
851.7756, 87.65337
852.2577, 87.71848
852.7398, 87.57949
853.2219, 86.43005
853.7040, 85.07177
854.1862, 85.00642
854.6683, 86.45775
855.1504, 87.69017
855.6325, 87.73048
856.1146, 87.41776
856.5967, 87.28020
857.0789, 87.35742
857.5610, 87.33356
858.0431, 87.18311
858.5252, 87.00524
859.0073, 86.83945
859.4894, 86.69821
859.9716, 86.66494
860.4537, 86.72426
860.9358, 86.72128
861.4179, 86.42666
861.9000, 86.14300
862.3821, 86.22146
862.8643, 86.63431
863.3464, 86.56789
863.8285, 85.75109
864.3106, 84.81419
864.7927, 83.80893
865.2748, 82.88994
865.7570, 83.11420
866.2391, 84.39702
866.7212, 85.24691
867.2033, 84.48183
867.6854, 83.23168
868.1675, 82.62110
868.6497, 82.50826
869.1318, 82.50677
869.6139, 82.74306
870.0960, 82.74839
870.5781, 82.15128
871.0602, 81.34956
871.5424, 81.55320
872.0245, 82.93027
872.5066, 83.57689
872.9887, 82.72377
873.4708, 81.42969
873.9529, 81.42772
874.4351, 82.20688
874.9172, 82.63670
875.3993, 81.96223
875.8814, 81.44893
876.3635, 81.87845
876.8456, 82.60430
877.3278, 82.68930
877.8099, 81.82604
878.2920, 81.29139
878.7741, 81.26370
879.2562, 81.42270
879.7383, 81.36926
880.2205, 81.17080
880.7026, 81.03330
881.1847, 81.01232
881.6668, 80.94080
882.1489, 80.52480
882.6310, 80.12085
883.1132, 80.12530
883.5953, 80.89561
884.0774, 81.03100
884.5595, 80.26123
885.0416, 79.35939
885.5237, 78.91423
886.0059, 78.86069
886.4880, 78.85784
886.9701, 78.89294
887.4522, 78.88760
887.9343, 78.55538
888.4164, 78.32738
888.8986, 78.76182
889.3807, 79.87321
889.8628, 80.48676
890.3449, 80.17152
890.8270, 79.74360
891.3091, 79.50767
891.7913, 79.40636
892.2734, 79.05563
892.7555, 78.47754
893.2376, 78.07915
893.7197, 78.30460
894.2018, 78.62830
894.6840, 78.44206
895.1661, 77.89973
895.6482, 77.43429
896.1303, 77.02785
896.6124, 76.91727
897.0945, 77.28571
897.5767, 77.88258
898.0588, 78.12471
898.5409, 77.99754
899.0230, 78.03498
899.5051, 78.46433
899.9872, 78.82722
900.4694, 78.32483
900.9515, 77.42258
901.4336, 76.94072
901.9157, 77.45705
902.3978, 77.71079
902.8799, 77.04044
903.3621, 76.18592
903.8442, 75.73490
904.3263, 75.70776
904.8084, 76.14049
905.2905, 77.16700
905.7726, 77.96219
906.2548, 77.34512
906.7369, 76.12952
907.2190, 75.74241
907.7011, 75.50343
908.1832, 76.57355
908.6653, 77.16487
909.1475, 77.30311
909.6296, 75.63129
910.1117, 76.29679
910.5938, 76.02560
911.0759, 75.71600
911.5580, 76.71048
912.0402, 75.30192
912.5223, 76.27571
913.0044, 76.29852
913.4865, 76.75656
913.9686, 76.27213
914.4507, 76.07880
914.9329, 76.82825
915.4150, 77.05568
915.8971, 76.46275
916.3792, 76.94846
916.8613, 75.50697
917.3434, 75.75664
917.8256, 75.88843
918.3077, 75.51503
918.7898, 75.45903
919.2719, 75.61049
919.7540, 75.73217
920.2361, 75.81667
920.7183, 75.71098
921.2004, 75.06685
921.6825, 74.36468
922.1646, 74.12525
922.6467, 74.61774
923.1288, 74.70573
923.6110, 74.26039
924.0931, 73.82340
924.5752, 73.84444
925.0573, 74.27574
925.5394, 75.25320
926.0215, 76.76220
926.5037, 77.82815
926.9858, 77.90855
927.4679, 77.40174
927.9500, 76.26167
928.4321, 74.59071
928.9142, 73.47392
929.3964, 72.92861
929.8785, 72.90968
930.3606, 73.66162
930.8427, 74.70992
931.3248, 74.93330
931.8069, 74.51480
932.2891, 74.05488
932.7712, 73.53558
933.2533, 73.35348
933.7354, 74.00820
934.2175, 75.01871
934.6996, 75.42044
935.1818, 75.00758
935.6639, 74.69943
936.1460, 74.61513
936.6281, 74.66149
937.1102, 74.84272
937.5923, 75.03584
938.0745, 74.89401
938.5566, 74.25716
939.0387, 73.79050
939.5208, 73.96045
940.0029, 74.32946
940.4850, 74.57542
940.9672, 74.67075
941.4493, 74.79631
941.9314, 74.93632
942.4135, 75.17246
942.8956, 75.84550
943.3777, 76.53884
943.8599, 76.22510
944.3420, 75.10168
944.8241, 74.20838
945.3062, 74.42387
945.7883, 74.57149
946.2704, 73.95605
946.7526, 72.93847
947.2347, 72.54008
947.7168, 72.86125
948.1989, 73.13609
948.6810, 73.12366
949.1631, 73.08686
949.6453, 73.45460
950.1274, 74.06461
950.6095, 74.63737
951.0916, 75.20742
951.5737, 75.49380
952.0558, 75.02292
952.5380, 74.52543
953.0201, 74.70832
953.5022, 75.75748
953.9843, 75.84336
954.4664, 74.82961
954.9485, 73.93674
955.4307, 74.67829
955.9128, 75.83846
956.3949, 75.65417
956.8770, 74.16425
957.3591, 72.97570
957.8412, 72.51286
958.3234, 72.61179
958.8055, 73.41294
959.2876, 74.66418
959.7697, 75.47353
960.2518, 75.84328
960.7339, 75.77468
961.2161, 75.06882
961.6982, 74.28105
962.1803, 73.93394
962.6624, 73.92442
963.1445, 74.08952
963.6266, 74.77755
964.1088, 75.01223
964.5909, 74.51130
965.0730, 73.86459
965.5551, 73.66855
966.0372, 73.88750
966.5193, 74.31614
967.0015, 74.94338
967.4836, 75.35325
967.9657, 75.06829
968.4478, 74.53757
968.9299, 74.05191
969.4120, 73.64564
969.8942, 73.47458
970.3763, 73.59963
970.8584, 73.83268
971.3405, 74.14438
971.8226, 74.48991
972.3047, 74.92348
972.7869, 75.32502
973.2690, 75.17681
973.7511, 73.74859
974.2332, 72.47806
974.7153, 72.19975
975.1974, 72.54442
975.6796, 73.01128
976.1617, 73.73071
976.6438, 74.09267
977.1259, 74.01115
977.6080, 73.76431
978.0901, 73.58482
978.5723, 73.46495
979.0544, 73.40479
979.5365, 73.40302
980.0186, 73.38684
980.5007, 73.17575
980.9828, 73.09388
981.4650, 73.40164
981.9471, 74.00028
982.4291, 74.24362
982.9113, 74.11504
983.3934, 73.80003
983.8755, 73.28780
984.3576, 72.75054
984.8397, 72.31557
985.3218, 72.03770
985.8040, 72.03177
986.2861, 72.66174
986.7682, 73.08242
987.2503, 73.06429
987.7324, 72.95207
988.2145, 73.10146
988.6967, 73.50050
989.1788, 73.96450
989.6609, 74.49069
990.1430, 74.86844
990.6251, 74.70093
991.1072, 74.49333
991.5894, 74.92395
992.0715, 75.96031
992.5536, 76.07995
993.0357, 74.80711
993.5178, 73.41373
993.9999, 72.05461
994.4821, 71.11513
994.9642, 72.18765
995.4463, 74.57813
995.9284, 75.84971
996.4105, 74.52520
996.8926, 73.05685
997.3748, 72.46730
997.8569, 72.57553
998.3390, 73.26028
998.8211, 74.96732
999.3032, 75.43493
999.7853, 74.39885
1000.267, 73.34972
1000.750, 74.02749
1001.232, 75.29768
1001.714, 75.05238
1002.196, 73.44212
1002.678, 72.42625
1003.160, 73.48219
1003.642, 74.43979
1004.124, 74.63023
1004.607, 74.27427
1005.089, 73.90174
1005.571, 73.51565
1006.053, 73.24112
1006.535, 73.09604
1007.017, 73.10985
1007.499, 73.48695
1007.981, 73.94341
1008.463, 74.16988
1008.946, 74.12952
1009.428, 73.66724
1009.910, 72.46867
1010.392, 71.49126
1010.874, 71.57393
1011.356, 72.41165
1011.838, 73.10519
1012.320, 73.59135
1012.802, 73.54637
1013.285, 72.10208
1013.767, 70.80544
1014.249, 70.56374
1014.731, 70.98030
1015.213, 71.28072
1015.695, 71.48299
1016.177, 71.40264
1016.659, 70.93513
1017.142, 70.47919
1017.624, 70.55359
1018.106, 70.93079
1018.588, 71.39025
1019.070, 71.97140
1019.552, 72.08824
1020.034, 71.02753
1020.516, 70.27379
1020.998, 70.67915
1021.481, 71.95641
1021.963, 72.52673
1022.445, 72.46974
1022.927, 72.31316
1023.409, 72.30657
1023.891, 72.29910
1024.373, 72.25684
1024.855, 72.12484
1025.338, 71.74189
1025.820, 70.78838
1026.302, 70.60951
1026.784, 71.49308
1027.266, 72.45206
1027.748, 72.21049
1028.230, 71.40739
1028.712, 71.42725
1029.194, 72.31213
1029.677, 72.72629
1030.159, 71.63595
1030.641, 70.50343
1031.123, 69.74345
1031.605, 69.37638
1032.087, 69.61929
1032.569, 70.43240
1033.051, 71.11538
1033.534, 71.39909
1034.016, 71.59776
1034.498, 72.16543
1034.980, 72.73072
1035.462, 72.80287
1035.944, 72.06948
1036.426, 71.53767
1036.908, 71.23598
1037.391, 71.05973
1037.873, 70.87551
1038.355, 70.78098
1038.837, 71.22684
1039.319, 72.05430
1039.801, 72.53519
1040.283, 72.08279
1040.765, 71.51176
1041.247, 70.95026
1041.729, 70.50748
1042.212, 70.38227
1042.694, 70.57898
1043.176, 70.87554
1043.658, 71.25747
1044.140, 71.63099
1044.622, 71.86014
1045.104, 72.08383
1045.586, 72.66257
1046.069, 73.68342
1046.551, 73.43176
1047.033, 71.05422
1047.515, 69.50452
1047.997, 70.26401
1048.479, 72.15365
1048.961, 72.75314
1049.443, 72.37155
1049.926, 71.75263
1050.408, 70.84557
1050.890, 70.29693
1051.372, 70.65099
1051.854, 71.21359
1052.336, 71.38650
1052.818, 71.13369
1053.300, 71.37754
1053.782, 72.13032
1054.265, 72.66109
1054.747, 72.20151
1055.229, 71.50863
1055.711, 71.17204
1056.193, 71.14408
1056.675, 71.19331
1057.157, 71.42357
1057.639, 71.38493
1058.121, 70.94572
1058.604, 70.36926
1059.086, 69.94552
1059.568, 69.67493
1060.050, 69.56847
1060.532, 69.63590
1061.014, 69.76971
1061.496, 70.09583
1061.978, 70.29031
1062.461, 70.18256
1062.943, 69.83752
1063.425, 69.43031
1063.907, 69.00520
1064.389, 69.04872
1064.871, 70.07584
1065.353, 71.03075
1065.835, 70.98949
1066.318, 70.46304
1066.800, 70.12438
1067.282, 70.12773
1067.764, 69.91198
1068.246, 69.43570
1068.728, 68.94225
1069.210, 68.42729
1069.692, 68.11982
1070.174, 68.68295
1070.656, 69.83228
1071.139, 70.46702
1071.621, 69.69660
1072.103, 69.07256
1072.585, 68.84867
1073.067, 68.87251
1073.549, 68.90051
1074.031, 68.96811
1074.513, 69.32616
1074.996, 70.02782
1075.478, 70.55177
1075.960, 70.24092
1076.442, 69.94308
1076.924, 70.37802
1077.406, 71.35356
1077.888, 71.60002
1078.370, 71.08583
1078.853, 70.52915
1079.335, 70.21981
1079.817, 69.86381
1080.299, 68.75529
1080.781, 67.56010
1081.263, 67.24889
1081.745, 68.50565
1082.227, 69.24318
1082.709, 69.26921
1083.192, 69.24832
1083.674, 69.86727
1084.156, 70.66026
1084.638, 70.20847
1085.120, 68.85735
1085.602, 67.78280
1086.084, 67.45297
1086.566, 67.49408
1087.048, 67.85961
1087.531, 68.47588
1088.013, 69.49479
1088.495, 70.82191
1088.977, 71.20570
1089.459, 70.56438
1089.941, 69.75107
1090.423, 69.19994
1090.905, 68.83794
1091.387, 68.63683
1091.870, 68.59049
1092.352, 68.70870
1092.834, 69.01923
1093.316, 69.31848
1093.798, 69.58348
1094.280, 69.74214
1094.762, 69.65044
1095.244, 69.43385
1095.727, 69.22250
1096.209, 69.02505
1096.691, 68.93002
1097.173, 68.89771
1097.655, 69.08526
1098.137, 69.73299
1098.619, 70.48775
1099.101, 70.47489
1099.583, 69.88541
1100.066, 69.18751
1100.548, 68.32650
1101.030, 67.76527
1101.512, 67.68981
1101.994, 67.89182
1102.476, 68.38843
1102.958, 69.12409
1103.440, 69.02327
1103.922, 68.19789
1104.405, 67.87980
1104.887, 69.49501
1105.369, 71.09386
1105.851, 71.62163
1106.333, 71.35604
1106.815, 70.79897
1107.297, 69.85990
1107.779, 69.37102
1108.262, 69.46246
1108.744, 69.53846
1109.226, 68.73169
1109.708, 67.86819
1110.190, 67.86748
1110.672, 68.70533
1111.154, 69.43449
1111.636, 70.11253
1112.119, 70.28186
1112.601, 69.65417
1113.083, 68.90280
1113.565, 69.31062
1114.047, 70.21786
1114.529, 70.26125
1115.011, 68.97572
1115.493, 68.45168
1115.975, 70.04466
1116.458, 71.05749
1116.940, 70.00141
1117.422, 67.75320
1117.904, 67.16769
1118.386, 67.88797
1118.868, 68.68551
1119.350, 69.13400
1119.832, 69.55305
1120.314, 70.11014
1120.797, 70.66086
1121.279, 71.11272
1121.761, 71.46483
1122.243, 71.68926
1122.725, 71.78300
1123.207, 71.70927
1123.689, 71.27415
1124.171, 70.84215
1124.654, 70.61539
1125.136, 70.57104
1125.618, 70.64590
1126.100, 70.84863
1126.582, 71.23478
1127.064, 71.87029
1127.546, 72.11601
1128.028, 70.70766
1128.510, 69.17188
1128.993, 69.52280
1129.475, 71.33257
1129.957, 71.89867
1130.439, 70.37569
1130.921, 69.55280
1131.403, 70.02086
1131.885, 70.93493
1132.367, 71.30176
1132.849, 71.34032
1133.332, 71.46462
1133.814, 71.72932
1134.296, 71.57706
1134.778, 70.28857
1135.260, 69.64993
1135.742, 70.42029
1136.224, 71.88123
1136.706, 72.63254
1137.189, 72.82328
1137.671, 72.87045
1138.153, 72.91247
1138.635, 72.65176
1139.117, 71.47529
1139.599, 70.51595
1140.081, 70.47999
1140.563, 71.09621
1141.046, 70.85878
1141.528, 69.98813
1142.010, 69.63951
1142.492, 70.63478
1142.974, 71.62257
1143.456, 71.97002
1143.938, 71.92867
1144.420, 71.65158
1144.902, 71.11526
1145.385, 71.05212
1145.867, 71.43118
1146.349, 71.58750
1146.831, 70.58085
1147.313, 69.75227
1147.795, 70.52650
1148.277, 71.89782
1148.759, 72.08247
1149.241, 70.71497
1149.724, 69.99721
1150.206, 70.04517
1150.688, 70.58358
1151.170, 71.96812
1151.652, 73.24466
1152.134, 73.27037
1152.616, 72.39163
1153.098, 72.08104
1153.581, 72.73246
1154.063, 72.74771
1154.545, 71.75614
1155.027, 70.80906
1155.509, 71.39271
1155.991, 72.53273
1156.473, 72.99122
1156.955, 72.71111
1157.438, 72.46852
1157.920, 72.30941
1158.402, 72.30650
1158.884, 72.51645
1159.366, 72.79571
1159.848, 72.99361
1160.330, 73.08591
1160.812, 73.00172
1161.294, 72.71304
1161.776, 72.44013
1162.259, 72.23734
1162.741, 72.02009
1163.223, 71.70751
1163.705, 71.42040
1164.187, 71.46695
1164.669, 71.74735
1165.151, 72.04322
1165.633, 72.32260
1166.116, 72.52254
1166.598, 72.51633
1167.080, 72.59195
1167.562, 73.00888
1168.044, 73.56707
1168.526, 73.38342
1169.008, 72.68928
1169.490, 72.31091
1169.973, 72.69247
1170.455, 73.14855
1170.937, 73.65001
1171.419, 73.93091
1171.901, 73.67400
1172.383, 72.98643
1172.865, 72.60207
1173.347, 72.55242
1173.829, 72.97831
1174.312, 74.62206
1174.794, 75.94788
1175.276, 76.09110
1175.758, 75.80163
1176.240, 75.85281
1176.722, 76.21863
1177.204, 75.84984
1177.686, 74.79550
1178.168, 73.89877
1178.651, 73.55600
1179.133, 73.66161
1179.615, 74.37301
1180.097, 75.40154
1180.579, 76.55822
1181.061, 77.84103
1181.543, 77.89593
1182.025, 76.62943
1182.508, 75.56697
1182.990, 76.26860
1183.472, 77.09293
1183.954, 76.75459
1184.436, 75.80089
1184.918, 75.51600
1185.400, 75.94084
1185.882, 76.29359
1186.365, 76.47563
1186.847, 76.54709
1187.329, 76.56972
1187.811, 76.49259
1188.293, 76.02456
1188.775, 75.42366
1189.257, 75.79053
1189.739, 77.22967
1190.221, 78.27541
1190.703, 78.67610
1191.186, 78.47211
1191.668, 76.96754
1192.150, 75.45943
1192.632, 75.38505
1193.114, 76.56206
1193.596, 76.88357
1194.078, 76.24777
1194.560, 75.72935
1195.043, 75.63152
1195.525, 75.71799
1196.007, 75.88457
1196.489, 76.02188
1196.971, 75.94752
1197.453, 75.65750
1197.935, 75.70180
1198.417, 76.12122
1198.900, 76.51072
1199.382, 76.66792
1199.864, 76.88319
1200.346, 77.87083
1200.828, 78.85081
1201.310, 78.76551
1201.792, 77.41418
1202.274, 76.35007
1202.756, 75.55252
1203.239, 75.27457
1203.721, 75.85426
1204.203, 76.61552
1204.685, 77.25357
1205.167, 77.40074
1205.649, 76.20779
1206.131, 73.06481
1206.613, 71.98769
1207.095, 73.19270
1207.578, 74.45943
1208.060, 74.43289
1208.542, 74.08498
1209.024, 74.44698
1209.506, 75.21060
1209.988, 75.97438
1210.470, 76.94727
1210.952, 76.76360
1211.435, 75.23586
1211.917, 74.08298
1212.399, 74.80410
1212.881, 76.03421
1213.363, 76.44870
1213.845, 76.32513
1214.327, 76.17947
1214.809, 76.09632
1215.292, 75.80405
1215.774, 75.25939
1216.256, 74.86629
1216.738, 75.17915
1217.220, 75.55561
1217.702, 75.13923
1218.184, 74.38569
1218.666, 74.33802
1219.148, 75.31430
1219.630, 75.80344
1220.113, 75.70184
1220.595, 75.50150
1221.077, 75.55169
1221.559, 75.71255
1222.041, 75.80750
1222.523, 75.93513
1223.005, 76.31887
1223.487, 76.97622
1223.970, 78.00490
1224.452, 79.49980
1224.934, 80.38738
1225.416, 79.22412
1225.898, 77.62403
1226.380, 76.76408
1226.862, 76.62607
1227.344, 76.97318
1227.827, 77.93565
1228.309, 78.43889
1228.791, 78.36286
1229.273, 78.22793
1229.755, 78.71335
1230.237, 79.08566
1230.719, 78.63269
1231.201, 77.60852
1231.683, 76.66992
1232.166, 75.76116
1232.648, 75.75155
1233.130, 76.76582
1233.612, 78.13286
1234.094, 80.01635
1234.576, 81.38928
1235.058, 81.08888
1235.540, 79.76827
1236.022, 78.89144
1236.505, 78.45755
1236.987, 78.62548
1237.469, 79.45369
1237.951, 80.11935
1238.433, 79.74250
1238.915, 79.23479
1239.397, 79.16717
1239.879, 79.41813
1240.362, 79.80783
1240.844, 80.31344
1241.326, 80.57200
1241.808, 80.51093
1242.290, 80.49020
1242.772, 80.90281
1243.254, 81.25954
1243.736, 81.23501
1244.219, 81.01340
1244.701, 81.16611
1245.183, 81.57286
1245.665, 81.17815
1246.147, 79.72277
1246.629, 79.00717
1247.111, 81.08253
1247.593, 82.90933
1248.075, 82.98311
1248.557, 82.13505
1249.040, 82.40559
1249.522, 83.46484
1250.004, 83.90272
1250.486, 83.45193
1250.968, 83.02922
1251.450, 83.31272
1251.932, 83.32893
1252.414, 82.50687
1252.897, 81.51086
1253.379, 82.11999
1253.861, 83.66142
1254.343, 84.23772
1254.825, 83.45950
1255.307, 82.97517
1255.789, 83.50640
1256.271, 84.13279
1256.754, 84.63886
1257.236, 85.02187
1257.718, 85.22897
1258.200, 85.32101
1258.682, 85.48607
1259.164, 85.78568
1259.646, 85.61437
1260.128, 84.74193
1260.610, 83.71689
1261.093, 82.53068
1261.575, 81.68212
1262.057, 82.22560
1262.539, 83.46264
1263.021, 84.42928
1263.503, 84.97294
1263.985, 85.39729
1264.467, 85.80775
1264.949, 85.81459
1265.432, 85.27007
1265.914, 84.37952
1266.396, 82.79585
1266.878, 81.41523
1267.360, 81.56297
1267.842, 83.38184
1268.324, 84.42680
1268.806, 84.62752
1269.289, 84.57251
1269.771, 84.36369
1270.253, 84.18814
1270.735, 84.43589
1271.217, 84.64507
1271.699, 84.17028
1272.181, 83.19063
1272.663, 82.96841
1273.146, 83.48730
1273.628, 83.62599
1274.110, 82.98296
1274.592, 82.40234
1275.074, 82.89116
1275.556, 83.27013
1276.038, 82.46313
1276.520, 81.00027
1277.002, 81.20572
1277.484, 82.74756
1277.967, 83.56481
1278.449, 83.03246
1278.931, 82.46133
1279.413, 82.64431
1279.895, 82.84626
1280.377, 82.77685
1280.859, 82.46543
1281.341, 81.78955
1281.823, 80.95027
1282.306, 80.55040
1282.788, 80.76762
1283.270, 81.06168
1283.752, 81.16741
1284.234, 81.53698
1284.716, 82.45034
1285.198, 83.49039
1285.680, 83.88850
1286.163, 83.86978
1286.645, 83.85948
1287.127, 83.93774
##END=



