##NAMES=Galenobismutite
##RRUFFID=R110057
##IDEAL CHEMISTRY=Pb^2+^Bi^3+^_2_S^2-^_4_
##LOCALITY=Vena Cobalt mines, Bergslagen, Sweden
##OWNER=RRUFF
##SOURCE=William W Pinch
##DESCRIPTION=Gray metallic massive
##STATUS=The identification of this mineral has been confirmed by single-crystal X-ray diffraction.
##URL=rruff.info/R110057
92.56775, 1884.717
93.04987, 1946.437
93.53198, 2024.485
94.01410, 2080.439
94.49622, 2113.769
94.97833, 2133.521
95.46045, 2147.298
95.94257, 2154.998
96.42468, 2161.095
96.90680, 2170.368
97.38892, 2176.887
97.87103, 2178.540
98.35315, 2173.179
98.83527, 2161.664
99.31738, 2150.809
99.79950, 2141.198
100.2816, 2133.198
100.7637, 2127.675
101.2458, 2122.291
101.7280, 2114.226
102.2101, 2102.329
102.6922, 2089.880
103.1743, 2082.644
103.6564, 2080.395
104.1385, 2078.009
104.6207, 2074.050
105.1028, 2068.518
105.5849, 2061.170
106.0670, 2050.271
106.5491, 2038.176
107.0313, 2027.945
107.5134, 2019.939
107.9955, 2011.845
108.4776, 2000.766
108.9597, 1985.675
109.4418, 1971.768
109.9240, 1961.052
110.4061, 1951.655
110.8882, 1942.130
111.3703, 1931.826
111.8524, 1921.628
112.3345, 1914.232
112.8167, 1913.960
113.2988, 1910.689
113.7809, 1900.967
114.2630, 1887.990
114.7451, 1875.684
115.2272, 1866.608
115.7094, 1860.525
116.1915, 1854.721
116.6736, 1849.651
117.1557, 1844.293
117.6378, 1838.622
118.1199, 1832.429
118.6021, 1825.069
119.0842, 1815.637
119.5663, 1803.961
120.0484, 1794.190
120.5305, 1787.196
121.0126, 1781.433
121.4948, 1775.693
121.9769, 1769.812
122.4590, 1764.010
122.9411, 1758.692
123.4232, 1753.709
123.9053, 1748.566
124.3875, 1743.106
124.8696, 1737.363
125.3517, 1731.293
125.8338, 1724.115
126.3159, 1717.788
126.7980, 1714.184
127.2802, 1712.769
127.7623, 1711.082
128.2444, 1706.820
128.7265, 1699.712
129.2086, 1693.157
129.6907, 1687.725
130.1729, 1682.702
130.6550, 1677.585
131.1371, 1672.419
131.6192, 1667.838
132.1013, 1664.959
132.5834, 1665.277
133.0656, 1664.300
133.5477, 1660.933
134.0298, 1657.097
134.5119, 1654.040
134.9940, 1652.233
135.4761, 1651.586
135.9583, 1651.959
136.4404, 1654.741
136.9225, 1656.878
137.4046, 1657.615
137.8867, 1657.743
138.3688, 1658.435
138.8510, 1660.303
139.3331, 1662.937
139.8152, 1665.029
140.2973, 1666.941
140.7794, 1668.021
141.2615, 1667.331
141.7437, 1665.293
142.2258, 1663.808
142.7079, 1663.897
143.1900, 1665.262
143.6721, 1667.113
144.1542, 1670.160
144.6364, 1672.767
145.1185, 1673.238
145.6006, 1671.374
146.0827, 1668.577
146.5648, 1665.603
147.0469, 1662.052
147.5291, 1657.268
148.0112, 1650.769
148.4933, 1643.180
148.9754, 1636.095
149.4575, 1630.557
149.9396, 1623.501
150.4218, 1614.204
150.9039, 1603.037
151.3860, 1590.294
151.8681, 1575.806
152.3502, 1559.838
152.8323, 1545.550
153.3145, 1534.949
153.7966, 1524.182
154.2787, 1512.771
154.7608, 1500.546
155.2429, 1487.175
155.7250, 1472.107
156.2072, 1455.130
156.6893, 1440.172
157.1714, 1428.235
157.6535, 1416.865
158.1356, 1405.036
158.6177, 1392.755
159.0999, 1380.504
159.5820, 1368.720
160.0641, 1357.433
160.5462, 1346.443
161.0283, 1335.642
161.5104, 1325.244
161.9926, 1315.312
162.4747, 1305.884
162.9568, 1297.205
163.4389, 1290.164
163.9210, 1284.631
164.4031, 1278.192
164.8853, 1269.685
165.3674, 1260.263
165.8495, 1251.811
166.3316, 1244.735
166.8137, 1238.143
167.2958, 1231.032
167.7780, 1223.575
168.2601, 1216.582
168.7422, 1210.617
169.2243, 1205.475
169.7064, 1200.442
170.1885, 1195.428
170.6707, 1190.573
171.1528, 1186.056
171.6349, 1181.793
172.1170, 1177.410
172.5991, 1172.775
173.0812, 1167.910
173.5634, 1162.258
174.0455, 1153.714
174.5276, 1146.011
175.0097, 1141.307
175.4918, 1139.284
175.9739, 1137.919
176.4561, 1134.978
176.9382, 1129.833
177.4203, 1125.120
177.9024, 1120.583
178.3845, 1116.603
178.8666, 1113.899
179.3488, 1112.305
179.8309, 1110.677
180.3130, 1107.376
180.7951, 1101.153
181.2772, 1096.073
181.7593, 1092.379
182.2415, 1089.502
182.7236, 1087.402
183.2057, 1085.957
183.6878, 1084.519
184.1699, 1082.062
184.6520, 1077.822
185.1342, 1074.038
185.6163, 1071.042
186.0984, 1068.411
186.5805, 1065.748
187.0626, 1062.942
187.5447, 1060.015
188.0269, 1056.911
188.5090, 1053.490
188.9911, 1050.427
189.4732, 1048.561
189.9553, 1047.046
190.4374, 1044.077
190.9196, 1038.545
191.4017, 1032.642
191.8838, 1029.794
192.3659, 1030.113
192.8480, 1030.406
193.3301, 1029.217
193.8123, 1026.812
194.2944, 1024.183
194.7765, 1021.615
195.2586, 1018.799
195.7407, 1015.323
196.2228, 1011.180
196.7050, 1007.174
197.1871, 1004.097
197.6692, 1001.893
198.1513, 999.2606
198.6334, 995.4835
199.1155, 991.5958
199.5977, 988.1561
200.0798, 985.2277
200.5619, 982.8465
201.0440, 981.1942
201.5261, 980.3920
202.0082, 979.4802
202.4904, 978.6323
202.9725, 977.4263
203.4546, 975.3784
203.9367, 972.5410
204.4188, 969.5914
204.9009, 967.4014
205.3831, 966.2143
205.8652, 965.0703
206.3473, 964.0992
206.8294, 963.0345
207.3115, 961.5532
207.7936, 959.6906
208.2758, 957.8787
208.7579, 956.7371
209.2400, 956.4776
209.7221, 956.5048
210.2042, 957.3828
210.6863, 958.1104
211.1685, 958.0865
211.6506, 957.1617
212.1327, 955.4656
212.6148, 953.0479
213.0969, 948.9695
213.5790, 946.3171
214.0612, 946.2774
214.5433, 946.8212
215.0254, 946.2937
215.5075, 944.3289
215.9896, 941.7243
216.4717, 939.5954
216.9539, 938.1281
217.4360, 936.7529
217.9181, 935.6575
218.4002, 934.5499
218.8823, 932.8050
219.3644, 930.2673
219.8466, 928.0428
220.3287, 927.8633
220.8108, 930.1053
221.2929, 932.1760
221.7750, 934.2970
222.2571, 935.8586
222.7393, 935.7990
223.2214, 933.7328
223.7035, 931.0540
224.1856, 929.3602
224.6677, 928.5545
225.1498, 928.2994
225.6320, 929.2457
226.1141, 930.5175
226.5962, 930.3996
227.0783, 928.2033
227.5604, 925.8341
228.0425, 925.7570
228.5247, 927.3741
229.0068, 928.1180
229.4889, 926.2714
229.9710, 922.9255
230.4531, 920.3707
230.9352, 918.7064
231.4174, 918.1906
231.8995, 919.8417
232.3816, 922.8486
232.8637, 924.9418
233.3458, 924.5707
233.8279, 922.3976
234.3101, 920.5004
234.7922, 918.8870
235.2743, 917.6846
235.7564, 916.7242
236.2385, 916.1470
236.7206, 916.2907
237.2028, 917.5792
237.6849, 919.7576
238.1670, 921.9573
238.6491, 925.1889
239.1312, 926.7360
239.6133, 924.7956
240.0955, 920.7897
240.5776, 917.0895
241.0597, 915.1885
241.5418, 914.6843
242.0239, 913.5740
242.5060, 910.6961
242.9882, 908.8777
243.4703, 909.5571
243.9524, 911.5757
244.4345, 913.1859
244.9166, 913.2789
245.3987, 912.3132
245.8809, 912.5433
246.3630, 915.6633
246.8451, 917.7784
247.3272, 917.5028
247.8093, 915.9865
248.2914, 914.8311
248.7736, 914.9604
249.2557, 915.8539
249.7378, 915.3680
250.2199, 912.0497
250.7020, 909.0575
251.1841, 906.7302
251.6663, 904.9783
252.1484, 903.8307
252.6305, 903.3087
253.1126, 903.1219
253.5947, 902.3119
254.0768, 899.6080
254.5590, 897.8485
255.0411, 897.7535
255.5232, 898.4643
256.0053, 899.1974
256.4874, 899.6144
256.9695, 899.6056
257.4517, 898.9027
257.9338, 896.2224
258.4159, 894.3747
258.8980, 894.2467
259.3801, 894.5774
259.8622, 893.9112
260.3444, 891.7606
260.8265, 888.9161
261.3086, 886.8916
261.7907, 886.7119
262.2728, 885.6951
262.7549, 882.5008
263.2371, 879.0781
263.7192, 877.6526
264.2013, 878.7669
264.6834, 880.9082
265.1655, 881.9133
265.6476, 881.4879
266.1298, 880.3515
266.6119, 878.1580
267.0940, 875.4575
267.5761, 872.4658
268.0582, 869.2692
268.5403, 866.5565
269.0225, 865.2865
269.5046, 865.9382
269.9867, 865.9609
270.4688, 864.9033
270.9509, 863.4505
271.4330, 862.3340
271.9152, 861.6085
272.3973, 860.5158
272.8794, 858.1503
273.3615, 854.3923
273.8436, 851.3893
274.3257, 849.6497
274.8079, 848.3203
275.2900, 846.6621
275.7721, 844.6641
276.2542, 843.0098
276.7363, 842.4466
277.2184, 842.7657
277.7006, 842.1225
278.1827, 839.2051
278.6648, 836.3663
279.1469, 835.4800
279.6290, 836.3665
280.1111, 837.4376
280.5933, 837.8582
281.0754, 837.6995
281.5575, 837.4626
282.0396, 837.6326
282.5217, 837.1603
283.0038, 834.7183
283.4860, 830.7670
283.9681, 827.7977
284.4502, 827.3307
284.9323, 828.2297
285.4144, 828.0056
285.8965, 826.3428
286.3787, 824.4083
286.8608, 822.7260
287.3429, 821.2737
287.8250, 819.9213
288.3071, 818.5654
288.7892, 817.3966
289.2714, 816.7936
289.7535, 816.8496
290.2356, 816.6701
290.7177, 815.5069
291.1998, 813.7780
291.6819, 812.7223
292.1641, 812.9285
292.6462, 813.2293
293.1283, 812.1614
293.6104, 809.9017
294.0925, 807.7272
294.5746, 806.0593
295.0568, 804.8363
295.5389, 804.0237
296.0210, 803.7291
296.5031, 803.5159
296.9852, 802.8990
297.4673, 802.0387
297.9495, 801.3917
298.4316, 801.7217
298.9137, 802.1161
299.3958, 800.9074
299.8779, 797.7228
300.3600, 794.5771
300.8422, 792.7451
301.3243, 791.8875
301.8064, 791.6046
302.2885, 792.0901
302.7706, 792.8412
303.2527, 793.3156
303.7349, 793.5048
304.2170, 793.5717
304.6991, 793.6408
305.1812, 793.5926
305.6633, 793.3310
306.1454, 792.9346
306.6276, 792.0954
307.1097, 790.0876
307.5918, 787.0229
308.0739, 784.8726
308.5560, 784.8690
309.0381, 785.5970
309.5203, 785.3801
310.0024, 784.0974
310.4845, 782.6827
310.9666, 781.7003
311.4487, 781.1015
311.9308, 780.6309
312.4130, 780.0994
312.8951, 779.9215
313.3772, 780.8307
313.8593, 782.6074
314.3414, 783.7266
314.8235, 782.7899
315.3057, 780.6607
315.7878, 779.7751
316.2699, 780.8793
316.7520, 781.9078
317.2341, 781.0616
317.7162, 779.0045
318.1984, 777.0878
318.6805, 775.7346
319.1626, 774.8358
319.6447, 774.2194
320.1268, 773.8766
320.6089, 773.8897
321.0911, 774.9662
321.5732, 776.2471
322.0553, 776.3963
322.5374, 774.7063
323.0195, 772.5432
323.5016, 771.2951
323.9838, 770.9589
324.4659, 770.8510
324.9480, 770.9648
325.4301, 770.9936
325.9122, 770.4539
326.3943, 769.1736
326.8765, 768.0785
327.3586, 768.2307
327.8407, 769.3130
328.3228, 769.4454
328.8049, 767.7350
329.2870, 765.5766
329.7692, 764.4715
330.2513, 764.3282
330.7334, 764.1810
331.2155, 763.4039
331.6976, 762.3058
332.1797, 761.6489
332.6619, 761.6100
333.1440, 761.7354
333.6261, 761.6405
334.1082, 761.4188
334.5903, 761.3008
335.0724, 761.5057
335.5546, 761.7764
336.0367, 761.8370
336.5188, 761.6954
337.0009, 761.2233
337.4830, 759.9835
337.9651, 758.4763
338.4473, 757.6407
338.9294, 757.7390
339.4115, 758.2751
339.8936, 759.4513
340.3757, 761.0417
340.8578, 761.0305
341.3400, 757.5815
341.8221, 753.2974
342.3042, 752.4837
342.7863, 755.8151
343.2684, 758.5974
343.7505, 757.9711
344.2327, 755.1187
344.7148, 752.8074
345.1969, 751.5999
345.6790, 751.0844
346.1611, 751.1251
346.6432, 751.6179
347.1254, 751.8130
347.6075, 751.2792
348.0896, 750.4579
348.5717, 749.9193
349.0538, 749.7179
349.5359, 749.5416
350.0181, 749.1816
350.5002, 748.6483
350.9823, 748.0430
351.4644, 747.1324
351.9465, 746.3597
352.4286, 746.2816
352.9108, 746.7059
353.3929, 746.6203
353.8750, 745.3214
354.3571, 743.4261
354.8392, 742.5606
355.3214, 743.2627
355.8035, 743.6318
356.2856, 742.6373
356.7677, 740.9183
357.2498, 739.7081
357.7319, 739.4192
358.2141, 739.3268
358.6962, 738.0933
359.1783, 735.2627
359.6604, 734.2051
360.1425, 737.5273
360.6246, 741.4156
361.1068, 741.7986
361.5889, 738.4952
362.0710, 734.8127
362.5531, 733.5471
363.0352, 734.6891
363.5173, 735.1280
363.9995, 734.4984
364.4816, 733.6072
364.9637, 732.4183
365.4458, 731.2453
365.9279, 730.9046
366.4100, 731.9042
366.8922, 733.8217
367.3743, 735.2946
367.8564, 736.5067
368.3385, 737.0590
368.8206, 736.6417
369.3027, 735.6416
369.7849, 734.4609
370.2670, 733.2234
370.7491, 731.8488
371.2312, 730.1619
371.7133, 727.8597
372.1954, 726.2741
372.6776, 725.4516
373.1597, 725.2395
373.6418, 726.0825
374.1239, 727.5986
374.6060, 728.5444
375.0881, 727.8573
375.5703, 725.5953
376.0524, 723.7137
376.5345, 721.9506
377.0166, 720.8419
377.4987, 720.8703
377.9808, 721.5404
378.4630, 722.2543
378.9451, 722.7405
379.4272, 722.9156
379.9093, 722.5437
380.3914, 721.1749
380.8735, 719.9840
381.3557, 718.7457
381.8378, 717.8578
382.3199, 717.9225
382.8020, 718.8373
383.2841, 719.6530
383.7662, 719.1347
384.2484, 716.9521
384.7305, 715.7270
385.2126, 716.2230
385.6947, 716.9800
386.1768, 717.6882
386.6589, 718.3026
387.1411, 718.8291
387.6232, 719.2626
388.1053, 719.6275
388.5874, 720.1594
389.0695, 721.6267
389.5516, 721.7145
390.0338, 718.2971
390.5159, 714.3317
390.9980, 712.8702
391.4801, 714.7288
391.9622, 717.5770
392.4443, 718.4667
392.9265, 717.1687
393.4086, 716.1447
393.8907, 715.6119
394.3728, 715.5468
394.8549, 716.3185
395.3370, 717.6419
395.8192, 718.4996
396.3013, 717.8493
396.7834, 716.2460
397.2655, 715.7724
397.7476, 717.1041
398.2297, 717.8054
398.7119, 715.6422
399.1940, 712.3694
399.6761, 710.2042
400.1582, 709.7728
400.6403, 710.4189
401.1224, 712.0291
401.6046, 714.5079
402.0867, 715.9371
402.5688, 715.1781
403.0509, 713.7360
403.5330, 713.4376
404.0151, 714.2910
404.4973, 715.3006
404.9794, 716.2572
405.4615, 717.0250
405.9436, 717.2447
406.4257, 716.8118
406.9078, 716.3496
407.3900, 716.4022
407.8721, 716.8809
408.3542, 717.2521
408.8363, 717.3729
409.3184, 717.4784
409.8005, 717.9481
410.2827, 718.5809
410.7648, 718.4824
411.2469, 717.0123
411.7290, 715.0789
412.2111, 714.8701
412.6932, 716.8454
413.1754, 719.0429
413.6575, 721.5892
414.1396, 723.9482
414.6217, 725.4954
415.1038, 726.1473
415.5859, 726.3330
416.0681, 726.4039
416.5502, 726.3215
417.0323, 726.5856
417.5144, 727.0670
417.9965, 727.9545
418.4786, 729.5953
418.9608, 731.6669
419.4429, 733.6156
419.9250, 735.1600
420.4071, 736.3661
420.8892, 737.4164
421.3713, 738.3582
421.8535, 739.0391
422.3356, 738.4761
422.8177, 738.3445
423.2998, 740.5361
423.7819, 744.9149
424.2640, 749.2451
424.7462, 751.0101
425.2283, 749.9736
425.7104, 750.0112
426.1925, 752.6089
426.6746, 754.6951
427.1567, 754.5850
427.6389, 753.5764
428.1210, 753.8607
428.6031, 756.6364
429.0852, 760.6030
429.5673, 763.0564
430.0494, 763.5803
430.5316, 764.1251
431.0137, 765.7078
431.4958, 767.0426
431.9779, 766.8420
432.4600, 765.2020
432.9421, 763.9718
433.4243, 765.0517
433.9064, 767.8164
434.3885, 769.4778
434.8706, 769.6061
435.3527, 769.3430
435.8348, 769.2875
436.3170, 769.3613
436.7991, 769.4645
437.2812, 769.6680
437.7633, 769.7537
438.2454, 769.6272
438.7275, 769.2499
439.2097, 768.2438
439.6918, 766.1814
440.1739, 763.8799
440.6560, 762.7881
441.1381, 763.0155
441.6202, 762.7317
442.1024, 761.1147
442.5845, 758.8998
443.0666, 756.7740
443.5487, 754.8369
444.0308, 753.3007
444.5129, 752.5297
444.9951, 752.3442
445.4772, 751.0313
445.9593, 747.4188
446.4414, 744.2280
446.9235, 742.7194
447.4056, 742.0248
447.8878, 740.6843
448.3699, 738.2173
448.8520, 735.5071
449.3341, 733.9732
449.8162, 734.3403
450.2983, 733.8340
450.7805, 731.9650
451.2626, 729.8196
451.7447, 727.5851
452.2268, 725.5367
452.7089, 724.2498
453.1910, 724.2345
453.6732, 725.0406
454.1553, 724.6436
454.6374, 721.7112
455.1195, 719.8721
455.6016, 720.6134
456.0837, 721.9492
456.5659, 722.3066
457.0480, 721.3677
457.5301, 719.6939
458.0122, 717.5146
458.4943, 714.8467
458.9764, 713.0178
459.4586, 712.0877
459.9407, 712.0472
460.4228, 713.6006
460.9049, 715.8139
461.3870, 717.0072
461.8691, 716.4957
462.3513, 714.8976
462.8334, 712.4007
463.3155, 709.0780
463.7976, 706.9568
464.2797, 707.1866
464.7618, 708.2871
465.2440, 708.5018
465.7261, 707.8571
466.2082, 706.6722
466.6903, 704.2701
467.1724, 701.8019
467.6545, 700.8857
468.1367, 701.5721
468.6188, 702.5170
469.1009, 702.9313
469.5830, 702.8448
470.0651, 702.4301
470.5472, 701.6210
471.0294, 700.6246
471.5115, 698.9794
471.9936, 697.3861
472.4757, 696.8327
472.9578, 697.5372
473.4399, 698.8564
473.9221, 700.1145
474.4042, 701.4196
474.8863, 701.9817
475.3684, 701.5813
475.8505, 700.7729
476.3326, 699.2427
476.8148, 697.5479
477.2969, 696.7281
477.7790, 697.3253
478.2611, 698.4978
478.7432, 698.3079
479.2253, 696.0587
479.7075, 694.4362
480.1896, 694.4541
480.6717, 694.5877
481.1538, 693.9044
481.6359, 692.5247
482.1180, 691.2314
482.6002, 690.5316
483.0823, 690.3104
483.5644, 690.4711
484.0465, 691.3390
484.5286, 691.3401
485.0107, 688.5782
485.4929, 685.1946
485.9750, 683.9051
486.4571, 685.3243
486.9392, 687.0902
487.4213, 687.9570
487.9034, 688.1152
488.3856, 687.8387
488.8677, 687.1024
489.3498, 686.4576
489.8319, 686.4839
490.3140, 687.1085
490.7961, 687.2969
491.2783, 687.1276
491.7604, 686.4492
492.2425, 684.7666
492.7246, 682.6035
493.2067, 680.9807
493.6888, 680.2628
494.1710, 679.8958
494.6531, 678.9619
495.1352, 676.9368
495.6173, 676.0741
496.0994, 677.0696
496.5815, 678.3723
497.0637, 679.4200
497.5458, 680.1679
498.0279, 680.7281
498.5100, 681.1750
498.9921, 681.4067
499.4742, 681.2355
499.9564, 680.8417
500.4385, 679.5416
500.9206, 675.4474
501.4027, 671.8255
501.8848, 671.2737
502.3669, 673.4167
502.8491, 675.5032
503.3312, 675.6251
503.8133, 674.3328
504.2954, 672.8275
504.7775, 670.9003
505.2596, 669.8464
505.7418, 671.1221
506.2239, 673.1652
506.7060, 673.5139
507.1881, 671.5493
507.6702, 670.0052
508.1523, 670.6886
508.6345, 672.5363
509.1166, 674.1047
509.5987, 675.1852
510.0808, 675.0054
510.5629, 672.3414
511.0450, 667.6197
511.5272, 665.6347
512.0093, 668.9016
512.4914, 671.5148
512.9735, 670.9456
513.4556, 669.0667
513.9377, 668.5969
514.4199, 670.1771
514.9020, 672.1135
515.3841, 672.2127
515.8662, 670.1695
516.3483, 668.4088
516.8304, 667.2307
517.3126, 666.0331
517.7947, 664.9262
518.2768, 663.6160
518.7589, 661.2679
519.2410, 657.4516
519.7231, 654.0391
520.2053, 654.4444
520.6874, 659.0446
521.1695, 661.8110
521.6516, 660.9680
522.1337, 659.3472
522.6158, 659.0147
523.0980, 659.5228
523.5801, 659.5710
524.0622, 658.4246
524.5443, 656.9012
525.0264, 655.5102
525.5085, 654.3683
525.9907, 654.5235
526.4728, 656.8312
526.9549, 659.4930
527.4370, 659.4111
527.9191, 655.9269
528.4012, 654.1160
528.8834, 656.0156
529.3655, 658.4263
529.8476, 659.2429
530.3297, 658.6661
530.8118, 657.6071
531.2939, 656.5026
531.7761, 655.5394
532.2582, 655.2437
532.7403, 656.1717
533.2224, 656.7335
533.7045, 657.0266
534.1866, 656.8806
534.6688, 655.7330
535.1509, 654.0036
535.6330, 652.8614
536.1151, 653.1579
536.5972, 654.4401
537.0793, 655.6726
537.5615, 657.0142
538.0436, 657.6283
538.5257, 656.8008
539.0078, 655.4860
539.4899, 654.4462
539.9720, 653.7118
540.4542, 653.1251
540.9363, 652.8099
541.4184, 652.5078
541.9005, 651.6280
542.3826, 650.2100
542.8647, 649.2999
543.3469, 649.5809
543.8290, 650.5716
544.3111, 651.0610
544.7932, 651.0397
545.2753, 650.6356
545.7574, 649.4801
546.2396, 648.2123
546.7217, 647.1436
547.2038, 646.4420
547.6859, 646.6062
548.1680, 648.1418
548.6501, 650.5126
549.1323, 651.2415
549.6144, 649.0089
550.0965, 647.3936
550.5786, 647.1450
551.0607, 647.2933
551.5428, 647.0592
552.0250, 646.4728
552.5071, 646.1816
552.9892, 646.7985
553.4713, 648.0109
553.9534, 648.9294
554.4355, 649.5182
554.9177, 650.0188
555.3998, 650.8846
555.8819, 651.4122
556.3640, 650.3937
556.8461, 647.5320
557.3282, 645.4538
557.8104, 645.7455
558.2925, 647.0158
558.7746, 647.7390
559.2567, 647.8224
559.7388, 647.6376
560.2209, 647.3878
560.7031, 647.0610
561.1852, 646.6146
561.6673, 645.4947
562.1494, 645.0615
562.6315, 646.2322
563.1136, 647.3936
563.5958, 647.0547
564.0779, 645.5174
564.5600, 644.3290
565.0421, 644.6986
565.5242, 646.0109
566.0063, 646.0298
566.4885, 644.0999
566.9706, 642.7904
567.4527, 643.3859
567.9348, 644.3055
568.4169, 644.4434
568.8990, 643.8306
569.3812, 643.2081
569.8633, 642.9993
570.3454, 642.9905
570.8275, 642.8270
571.3096, 642.5299
571.7917, 642.4407
572.2739, 642.7638
572.7560, 643.2797
573.2381, 643.6465
573.7202, 643.9400
574.2023, 643.8323
574.6844, 642.5979
575.1666, 641.5593
575.6487, 641.7283
576.1308, 642.8602
576.6129, 644.4301
577.0950, 646.2316
577.5771, 647.5834
578.0593, 646.6173
578.5414, 641.7873
579.0235, 638.8651
579.5056, 639.8160
579.9877, 641.1712
580.4698, 641.2452
580.9520, 640.5154
581.4341, 640.4245
581.9162, 641.9644
582.3983, 643.6801
582.8804, 643.2539
583.3625, 640.9258
583.8447, 639.4088
584.3268, 639.6246
584.8089, 640.1253
585.2910, 638.9055
585.7731, 636.2776
586.2552, 635.5900
586.7374, 639.0187
587.2195, 642.4842
587.7016, 643.8116
588.1837, 643.7491
588.6658, 643.6522
589.1479, 643.9319
589.6301, 644.1204
590.1122, 643.5514
590.5943, 642.0831
591.0764, 641.2139
591.5585, 641.2513
592.0406, 641.5602
592.5228, 642.0752
593.0049, 642.7367
593.4870, 643.4686
593.9691, 644.2557
594.4512, 645.1716
594.9333, 646.4329
595.4155, 647.9130
595.8976, 649.0104
596.3797, 649.6274
596.8618, 650.1680
597.3439, 651.0104
597.8260, 651.8633
598.3082, 652.0644
598.7903, 651.4583
599.2724, 650.6082
599.7545, 649.2757
600.2366, 648.0500
600.7188, 647.6282
601.2009, 648.0009
601.6830, 648.7040
602.1651, 649.4440
602.6472, 650.2282
603.1293, 651.0996
603.6115, 652.1702
604.0936, 653.1143
604.5757, 654.2744
605.0578, 655.0001
605.5399, 654.8115
606.0220, 653.8189
606.5042, 652.3592
606.9863, 650.2792
607.4684, 648.3586
607.9505, 648.2684
608.4326, 649.9469
608.9147, 650.7649
609.3969, 649.6974
609.8790, 648.1956
610.3611, 647.9561
610.8432, 648.8547
611.3253, 649.3663
611.8074, 649.2440
612.2896, 648.7922
612.7717, 648.3207
613.2538, 647.5847
613.7359, 645.7980
614.2180, 642.8401
614.7001, 640.0953
615.1823, 639.2678
615.6644, 640.4536
616.1465, 641.5605
616.6286, 642.9305
617.1107, 643.7025
617.5928, 643.5141
618.0750, 642.7513
618.5571, 641.4871
619.0392, 639.8082
619.5213, 638.7616
620.0034, 639.8444
620.4855, 641.9558
620.9677, 642.2846
621.4498, 640.6492
621.9319, 639.5984
622.4140, 640.7302
622.8961, 642.8445
623.3782, 643.2552
623.8604, 641.3777
624.3425, 639.9003
624.8246, 639.2858
625.3067, 639.0220
625.7888, 638.9576
626.2709, 638.9421
626.7531, 638.6006
627.2352, 637.7343
627.7173, 636.8748
628.1994, 637.1761
628.6815, 638.9581
629.1636, 640.1166
629.6458, 640.4260
630.1279, 640.2003
630.6100, 639.2292
631.0921, 637.9786
631.5742, 637.3271
632.0563, 637.6326
632.5385, 638.1362
633.0206, 638.6677
633.5027, 638.9184
633.9848, 637.9481
634.4669, 635.6630
634.9490, 633.5928
635.4312, 632.9063
635.9133, 633.2986
636.3954, 633.3103
636.8775, 631.6655
637.3596, 631.4033
637.8417, 634.6118
638.3239, 637.6086
638.8060, 637.1190
639.2881, 633.9323
639.7702, 631.3053
640.2523, 631.2778
640.7344, 632.6525
641.2166, 633.0751
641.6987, 632.4849
642.1808, 632.4026
642.6629, 633.4095
643.1450, 634.5306
643.6271, 634.9552
644.1093, 634.7825
644.5914, 634.2543
645.0735, 633.0814
645.5556, 631.9319
646.0377, 631.0478
646.5198, 630.4080
647.0020, 629.9645
647.4841, 629.7234
647.9662, 629.8329
648.4483, 630.5259
648.9304, 631.6365
649.4125, 631.9642
649.8947, 631.1114
650.3768, 630.2043
650.8589, 629.0723
651.3410, 628.2449
651.8231, 628.1928
652.3052, 628.8384
652.7874, 629.6824
653.2695, 630.7040
653.7516, 631.5789
654.2337, 631.8071
654.7158, 631.5012
655.1979, 631.1945
655.6801, 631.0485
656.1622, 630.8803
656.6443, 630.4941
657.1264, 629.8856
657.6085, 629.1525
658.0906, 627.5795
658.5728, 626.7904
659.0549, 627.8841
659.5370, 629.5173
660.0191, 630.2623
660.5012, 629.9574
660.9833, 629.4551
661.4655, 629.5187
661.9476, 629.8811
662.4297, 629.5579
662.9118, 628.4119
663.3939, 627.7183
663.8760, 628.1290
664.3582, 628.8459
664.8403, 628.7589
665.3224, 627.9520
665.8045, 627.6664
666.2866, 628.3771
666.7687, 629.3633
667.2509, 630.7070
667.7330, 631.8976
668.2151, 631.8578
668.6972, 630.4363
669.1793, 628.9250
669.6614, 628.7609
670.1436, 629.8098
670.6257, 630.0629
671.1078, 629.0038
671.5899, 628.2191
672.0720, 628.4622
672.5541, 628.9249
673.0363, 628.9379
673.5184, 628.5058
674.0005, 628.1404
674.4826, 628.3062
674.9647, 628.4333
675.4468, 627.8073
675.9290, 626.6607
676.4111, 625.6311
676.8932, 624.9119
677.3753, 624.5693
677.8574, 624.6798
678.3395, 625.2437
678.8217, 626.2869
679.3038, 628.9886
679.7859, 630.6379
680.2680, 629.8088
680.7501, 628.3966
681.2322, 628.2419
681.7144, 629.4030
682.1965, 630.5032
682.6786, 630.5605
683.1607, 630.0706
683.6428, 629.7766
684.1249, 629.6660
684.6071, 629.6601
685.0892, 629.7468
685.5713, 629.8876
686.0534, 630.1016
686.5355, 630.4092
687.0176, 630.2783
687.4998, 628.9717
687.9819, 628.1825
688.4640, 628.8367
688.9461, 629.8941
689.4282, 630.1153
689.9103, 629.5001
690.3925, 629.2275
690.8746, 630.5251
691.3567, 632.4603
691.8388, 632.4586
692.3209, 630.4219
692.8030, 629.1530
693.2852, 629.7126
693.7673, 630.6632
694.2494, 630.4324
694.7315, 629.1158
695.2136, 628.2831
695.6957, 628.1270
696.1779, 628.2990
696.6600, 629.0179
697.1421, 629.8030
697.6242, 629.8800
698.1063, 629.3459
698.5884, 629.1926
699.0706, 630.2148
699.5527, 632.0823
700.0348, 634.1332
700.5169, 636.5734
700.9990, 637.7403
701.4811, 636.7745
701.9633, 635.2067
702.4454, 634.1130
702.9275, 633.4522
703.4096, 633.1440
703.8917, 633.3147
704.3738, 633.6452
704.8560, 634.4621
705.3381, 635.1036
705.8202, 634.2826
706.3023, 632.2715
706.7844, 631.0672
707.2665, 632.1673
707.7487, 634.5477
708.2308, 635.1855
708.7129, 633.5127
709.1950, 632.8026
709.6771, 634.0189
710.1592, 635.5051
710.6414, 636.4454
711.1235, 636.8486
711.6056, 636.5873
712.0877, 635.2137
712.5698, 634.1969
713.0519, 634.6639
713.5341, 635.6323
714.0162, 635.6613
714.4983, 634.9493
714.9804, 635.0404
715.4625, 636.8904
715.9446, 639.5275
716.4268, 640.8690
716.9089, 640.6633
717.3910, 640.3307
717.8731, 640.1796
718.3552, 639.5063
718.8373, 637.1100
719.3195, 634.3642
719.8016, 633.4457
720.2837, 634.9402
720.7658, 636.5837
721.2479, 637.5235
721.7300, 637.9065
722.2122, 637.5526
722.6943, 636.7523
723.1764, 636.4977
723.6585, 637.2294
724.1406, 638.2283
724.6227, 638.2245
725.1049, 636.9796
725.5870, 637.1204
726.0691, 639.8857
726.5512, 642.0200
727.0333, 642.0131
727.5154, 641.1127
727.9976, 640.2093
728.4797, 639.4273
728.9618, 639.5253
729.4439, 641.6683
729.9260, 644.1000
730.4081, 645.3766
730.8903, 645.6518
731.3724, 645.1696
731.8545, 644.0618
732.3366, 643.0203
732.8187, 642.8097
733.3008, 643.3561
733.7830, 643.7637
734.2651, 644.0828
734.7472, 644.1598
735.2293, 643.5882
735.7114, 643.0745
736.1935, 643.4341
736.6757, 644.3802
737.1578, 644.5389
737.6399, 642.4247
738.1220, 640.8018
738.6041, 642.4522
739.0862, 645.4209
739.5684, 646.3893
740.0505, 645.0584
740.5326, 643.3607
741.0147, 642.6449
741.4968, 642.7103
741.9789, 643.0868
742.4611, 644.0494
742.9432, 644.2216
743.4253, 642.4537
743.9074, 641.1735
744.3895, 642.3918
744.8716, 644.8518
745.3538, 646.1516
745.8359, 645.5881
746.3180, 644.9623
746.8001, 645.1823
747.2822, 645.6664
747.7643, 645.6532
748.2465, 645.3461
748.7286, 645.6852
749.2107, 647.0996
749.6928, 648.6788
750.1749, 648.9451
750.6570, 647.8203
751.1392, 647.0516
751.6213, 646.7700
752.1034, 646.5383
752.5855, 646.2322
753.0676, 645.8508
753.5497, 645.2144
754.0319, 644.2979
754.5140, 644.0699
754.9961, 645.4693
755.4782, 646.8766
755.9603, 647.0895
756.4424, 646.7553
756.9246, 647.0189
757.4067, 648.0405
757.8888, 649.0116
758.3709, 649.2770
758.8530, 648.9201
759.3351, 647.9403
759.8173, 646.1402
760.2994, 645.5715
760.7815, 647.3115
761.2636, 649.2388
761.7457, 649.4410
762.2278, 648.2664
762.7100, 647.4991
763.1921, 647.4174
763.6742, 647.3773
764.1563, 647.1700
764.6384, 647.0059
765.1205, 646.8167
765.6027, 646.8412
766.0848, 647.8749
766.5669, 650.3666
767.0490, 652.7523
767.5311, 652.6264
768.0132, 650.4662
768.4954, 648.8390
768.9775, 647.8878
769.4596, 647.5948
769.9417, 648.1396
770.4238, 649.0506
770.9059, 649.4389
771.3881, 649.0081
771.8702, 649.2635
772.3523, 651.2551
772.8344, 652.6591
773.3165, 652.1764
773.7986, 650.9755
774.2808, 650.3653
774.7629, 650.5195
775.2450, 650.7844
775.7271, 650.7051
776.2092, 650.5110
776.6913, 650.5123
777.1735, 650.6945
777.6556, 650.8735
778.1377, 650.9881
778.6198, 651.7451
779.1019, 653.9703
779.5840, 657.1835
780.0662, 658.8645
780.5483, 658.2092
781.0304, 657.5284
781.5125, 656.6089
781.9946, 656.0489
782.4767, 656.4027
782.9589, 657.2600
783.4410, 657.9366
783.9231, 658.3477
784.4052, 658.1596
784.8873, 656.4510
785.3694, 654.5159
785.8516, 654.2761
786.3337, 655.3079
786.8158, 655.7155
787.2979, 654.7523
787.7800, 653.5548
788.2621, 653.7878
788.7443, 653.1750
789.2264, 652.5866
789.7085, 653.5637
790.1906, 653.8212
790.6727, 653.8643
791.1548, 656.1672
791.6370, 658.4896
792.1191, 660.7225
792.6012, 661.9440
793.0833, 661.1098
793.5654, 660.3802
794.0475, 660.6508
794.5297, 661.3568
795.0118, 662.1000
795.4939, 662.7209
795.9760, 663.0990
796.4581, 663.2087
796.9402, 662.7692
797.4224, 660.6545
797.9045, 657.3441
798.3866, 656.5578
798.8687, 658.8983
799.3508, 660.9796
799.8329, 660.9437
800.3151, 659.8554
800.7972, 659.7421
801.2793, 661.0619
801.7614, 661.5381
802.2435, 660.4547
802.7256, 659.4958
803.2078, 658.9438
803.6899, 658.8937
804.1720, 659.5925
804.6541, 660.9450
805.1362, 662.3138
805.6183, 663.3537
806.1005, 664.2667
806.5826, 665.5063
807.0647, 666.7260
807.5468, 667.1863
808.0289, 666.7527
808.5110, 665.2303
808.9932, 662.1783
809.4753, 658.9457
809.9574, 659.6592
810.4395, 665.7115
810.9216, 669.4266
811.4037, 669.8437
811.8859, 668.8489
812.3680, 666.2460
812.8501, 663.3051
813.3322, 662.0878
813.8143, 662.9764
814.2964, 663.3904
814.7786, 661.4584
815.2607, 660.2525
815.7428, 662.3090
816.2249, 665.8605
816.7070, 668.4795
817.1891, 669.6663
817.6713, 670.1779
818.1534, 670.4822
818.6355, 670.6102
819.1176, 670.6545
819.5997, 670.5917
820.0818, 670.0219
820.5640, 668.7408
821.0461, 668.2455
821.5282, 669.9066
822.0103, 672.7717
822.4924, 673.8937
822.9745, 672.3225
823.4567, 671.1310
823.9388, 670.3508
824.4209, 669.9089
824.9030, 670.0659
825.3851, 670.4048
825.8672, 670.2193
826.3494, 669.4407
826.8315, 669.2311
827.3136, 671.0129
827.7957, 672.7619
828.2778, 672.3770
828.7599, 670.8569
829.2421, 670.0139
829.7242, 670.1968
830.2063, 670.9067
830.6884, 671.9417
831.1705, 672.7458
831.6526, 671.3036
832.1348, 667.4753
832.6169, 666.0616
833.0990, 668.2393
833.5811, 670.8477
834.0632, 672.1234
834.5453, 672.5318
835.0275, 673.1749
835.5096, 674.4033
835.9917, 674.7331
836.4738, 672.7457
836.9559, 671.5156
837.4380, 672.9734
837.9202, 675.2859
838.4023, 676.3226
838.8844, 675.9273
839.3665, 675.4958
839.8486, 676.0603
840.3307, 676.5761
840.8129, 675.6000
841.2950, 673.9238
841.7771, 672.9015
842.2592, 672.8308
842.7413, 674.2680
843.2234, 677.7828
843.7056, 681.5568
844.1877, 681.3030
844.6698, 676.5593
845.1519, 673.6515
845.6340, 673.1779
846.1161, 673.3788
846.5983, 673.7214
847.0804, 674.1640
847.5625, 674.6340
848.0446, 675.1211
848.5267, 675.7711
849.0089, 676.6563
849.4910, 677.6121
849.9731, 678.5894
850.4552, 679.6247
850.9373, 681.2322
851.4194, 682.9449
851.9016, 683.2394
852.3837, 681.1146
852.8658, 678.6572
853.3479, 677.6289
853.8300, 677.6198
854.3121, 678.2345
854.7943, 679.2352
855.2764, 679.7704
855.7585, 679.4647
856.2406, 678.9821
856.7227, 679.2480
857.2048, 680.1799
857.6870, 680.6478
858.1691, 680.4321
858.6512, 680.7169
859.1333, 682.3838
859.6154, 683.6553
860.0975, 682.2454
860.5797, 678.9287
861.0618, 678.1141
861.5439, 682.4171
862.0260, 684.7952
862.5081, 682.7621
862.9902, 680.3864
863.4724, 680.4510
863.9545, 681.6900
864.4366, 681.6082
864.9187, 679.6366
865.4008, 677.8693
865.8829, 677.9027
866.3651, 678.6921
866.8472, 679.1646
867.3293, 679.3984
867.8114, 679.5411
868.2935, 679.6738
868.7756, 680.1342
869.2578, 681.2501
869.7399, 682.6288
870.2220, 683.3846
870.7041, 683.5168
871.1862, 682.5949
871.6683, 680.0604
872.1505, 678.4448
872.6326, 679.4344
873.1147, 681.6440
873.5968, 682.6913
874.0789, 682.2310
874.5610, 682.4583
875.0432, 684.8923
875.5253, 685.9847
876.0074, 683.3178
876.4895, 680.2875
876.9716, 680.2379
877.4537, 682.4958
877.9359, 683.7148
878.4180, 682.4244
878.9001, 680.7919
879.3822, 679.6163
879.8643, 679.1900
880.3464, 680.4035
880.8286, 682.6101
881.3107, 684.1418
881.7928, 684.3908
882.2749, 683.8941
882.7570, 682.8967
883.2391, 681.7557
883.7213, 681.7859
884.2034, 682.9114
884.6855, 683.9039
885.1676, 684.5150
885.6497, 684.6539
886.1318, 684.1368
886.6140, 683.2239
887.0961, 682.8525
887.5782, 683.4291
888.0603, 683.4462
888.5424, 681.9554
889.0245, 681.2009
889.5067, 683.0649
889.9888, 685.5336
890.4709, 685.9383
890.9530, 684.2066
891.4351, 683.4528
891.9172, 685.7413
892.3994, 687.3433
892.8815, 685.7142
893.3636, 683.4701
893.8457, 683.3905
894.3278, 685.0685
894.8099, 686.5193
895.2921, 686.9177
895.7742, 686.7725
896.2563, 686.4618
896.7384, 685.9832
897.2205, 685.0349
897.7026, 683.8831
898.1848, 683.7172
898.6669, 684.8635
899.1490, 686.1852
899.6311, 686.5634
900.1132, 686.2537
900.5953, 686.3319
901.0775, 686.8896
901.5596, 686.5350
902.0417, 684.5521
902.5238, 683.4730
903.0059, 685.3173
903.4880, 688.4851
903.9702, 689.5833
904.4523, 687.8674
904.9344, 687.0436
905.4165, 687.4346
905.8986, 688.2903
906.3807, 689.8360
906.8629, 691.4725
907.3450, 692.8773
907.8271, 693.9337
908.3092, 694.3044
908.7913, 693.6879
909.2734, 692.8367
909.7556, 691.7432
910.2377, 690.8594
910.7198, 690.5035
911.2019, 690.6989
911.6840, 691.7078
912.1661, 693.4791
912.6483, 694.8499
913.1304, 694.4434
913.6125, 693.4125
914.0946, 693.6165
914.5767, 694.7946
915.0588, 696.3669
915.5410, 698.1312
916.0231, 699.2166
916.5052, 699.0023
916.9873, 698.2267
917.4694, 698.3983
917.9515, 699.5626
918.4337, 700.4519
918.9158, 701.1053
919.3979, 701.1086
919.8800, 699.7807
920.3621, 698.8723
920.8442, 700.6384
921.3264, 704.7059
921.8085, 707.0239
922.2906, 705.7369
922.7727, 705.7582
923.2548, 709.1428
923.7369, 711.8261
924.2191, 711.0172
924.7012, 708.7013
925.1833, 708.0325
925.6654, 709.4387
926.1475, 710.6068
926.6296, 709.9059
927.1118, 709.9181
927.5939, 713.3826
928.0760, 717.2389
928.5581, 717.6182
929.0402, 715.1437
929.5223, 712.9851
930.0045, 712.3923
930.4866, 713.3751
930.9687, 717.0277
931.4508, 721.6068
931.9329, 724.2897
932.4150, 725.4464
932.8972, 726.8235
933.3793, 728.8202
933.8614, 730.0771
934.3435, 729.1593
934.8256, 727.2442
935.3077, 727.2839
935.7899, 729.1678
936.2720, 731.6507
936.7541, 734.7305
937.2362, 736.4357
937.7183, 735.3375
938.2004, 733.8412
938.6826, 735.8248
939.1647, 741.4036
939.6468, 745.2629
940.1289, 746.9036
940.6110, 747.9635
941.0931, 747.9977
941.5753, 748.4955
942.0574, 751.2122
942.5395, 755.0602
943.0216, 756.8915
943.5037, 755.5355
943.9858, 755.7386
944.4680, 759.0120
944.9501, 762.5222
945.4322, 765.0408
945.9143, 767.4200
946.3964, 770.5003
946.8785, 774.3293
947.3607, 778.7081
947.8428, 784.2765
948.3249, 788.9244
948.8070, 790.4179
949.2891, 791.3927
949.7712, 794.5554
950.2534, 799.0762
950.7355, 802.9731
951.2176, 805.7159
951.6997, 808.0273
952.1818, 810.1882
952.6639, 812.5189
953.1461, 815.5499
953.6282, 819.0550
954.1103, 822.4073
954.5924, 825.6116
955.0745, 829.4023
955.5566, 834.1923
956.0388, 838.6182
956.5209, 840.3939
957.0030, 840.2533
957.4851, 842.0438
957.9672, 845.7698
958.4493, 849.9382
958.9315, 854.4140
959.4136, 857.7380
959.8957, 858.6711
960.3778, 858.0684
960.8599, 858.1749
961.3420, 859.2532
961.8242, 859.5894
962.3063, 858.7074
962.7884, 858.3164
963.2705, 859.5648
963.7526, 860.7253
964.2347, 859.8333
964.7169, 857.2148
965.1990, 855.2556
965.6811, 854.8514
966.1632, 853.7363
966.6453, 851.5817
967.1274, 849.0953
967.6096, 846.6233
968.0917, 843.9443
968.5738, 840.8312
969.0559, 837.2459
969.5380, 833.1432
970.0201, 826.9674
970.5023, 822.2809
970.9844, 822.1426
971.4665, 822.3381
971.9486, 819.1014
972.4307, 813.6108
972.9128, 808.6888
973.3950, 805.0778
973.8771, 801.6629
974.3592, 797.5659
974.8413, 793.5518
975.3234, 790.4581
975.8055, 787.7747
976.2877, 784.7784
976.7698, 781.4216
977.2519, 778.0165
977.7340, 774.7151
978.2161, 771.2079
978.6982, 766.1868
979.1804, 761.2554
979.6625, 760.4340
980.1446, 762.4718
980.6267, 762.7105
981.1088, 760.3473
981.5909, 758.1176
982.0731, 757.9208
982.5552, 758.7800
983.0373, 759.1875
983.5194, 759.0966
984.0015, 757.9943
984.4836, 755.8700
984.9658, 753.8290
985.4479, 752.2177
985.9300, 750.7735
986.4121, 749.2311
986.8942, 747.7020
987.3763, 746.5391
987.8585, 745.6807
988.3406, 745.7598
988.8227, 747.1912
989.3048, 748.2611
989.7869, 748.3166
990.2690, 747.5657
990.7512, 746.0068
991.2333, 743.7718
991.7154, 742.6525
992.1975, 743.5974
992.6796, 743.5799
993.1617, 741.1623
993.6439, 739.4774
994.1260, 740.6030
994.6081, 742.9637
995.0902, 744.5146
995.5723, 745.2618
996.0544, 745.1595
996.5366, 742.9271
997.0187, 741.6865
997.5008, 742.9583
997.9829, 744.3232
998.4650, 743.8427
998.9471, 742.6341
999.4293, 743.0172
999.9114, 745.4119
1000.393, 746.6404
1000.876, 745.0414
1001.358, 743.1047
1001.840, 741.4593
1002.322, 740.2753
1002.804, 739.8535
1003.286, 739.9531
1003.768, 739.9515
1004.250, 739.6521
1004.733, 739.8073
1005.215, 741.8831
1005.697, 743.4246
1006.179, 741.7698
1006.661, 739.0026
1007.143, 737.8197
1007.625, 738.1947
1008.107, 738.6844
1008.589, 738.6763
1009.072, 738.8804
1009.554, 740.4781
1010.036, 742.1213
1010.518, 741.7724
1011.000, 740.3705
1011.482, 739.8605
1011.964, 740.4377
1012.446, 741.1744
1012.929, 741.5890
1013.411, 741.7644
1013.893, 741.3734
1014.375, 741.0275
1014.857, 742.3337
1015.339, 744.8092
1015.821, 746.8196
1016.303, 747.9594
1016.785, 748.4319
1017.268, 748.3487
1017.750, 747.8514
1018.232, 746.9929
1018.714, 745.9190
1019.196, 745.1395
1019.678, 744.6979
1020.160, 744.9460
1020.642, 745.9719
1021.125, 746.8651
1021.607, 746.9504
1022.089, 746.2300
1022.571, 744.2953
1023.053, 741.2607
1023.535, 739.7726
1024.017, 739.9740
1024.499, 740.4077
1024.981, 740.6013
1025.464, 741.0765
1025.946, 742.3883
1026.428, 744.1978
1026.910, 745.5392
1027.392, 746.4553
1027.874, 746.1522
1028.356, 744.0734
1028.838, 743.4778
1029.321, 745.8170
1029.803, 749.0959
1030.285, 751.4968
1030.767, 753.1402
1031.249, 754.7101
1031.731, 754.9201
1032.213, 756.7039
1032.695, 754.1411
1033.177, 751.7455
1033.660, 750.5797
1034.142, 749.8847
1034.624, 748.5988
1035.106, 747.0794
1035.588, 747.7932
1036.070, 752.6314
1036.552, 755.0676
1037.034, 753.5984
1037.516, 752.0971
1037.999, 751.8145
1038.481, 752.3668
1038.963, 753.8507
1039.445, 755.9744
1039.927, 756.4083
1040.409, 753.0229
1040.891, 751.7383
1041.373, 754.6702
1041.855, 757.0372
1042.338, 756.3582
1042.820, 754.8124
1043.302, 754.5863
1043.784, 755.5446
1044.266, 756.5704
1044.748, 758.4502
1045.230, 759.0190
1045.712, 757.4307
1046.195, 755.4003
1046.677, 752.5760
1047.159, 750.3730
1047.641, 750.7986
1048.123, 753.4509
1048.605, 755.2966
1049.087, 755.7980
1049.569, 755.8777
1050.052, 755.3691
1050.534, 754.8035
1051.016, 754.5292
1051.498, 754.2432
1051.980, 753.3386
1052.462, 752.0100
1052.944, 751.4661
1053.426, 751.9152
1053.908, 753.1562
1054.391, 756.5872
1054.873, 759.1287
1055.355, 758.1909
1055.837, 756.2519
1056.319, 756.3551
1056.801, 758.2924
1057.283, 759.6291
1057.765, 759.5653
1058.248, 759.4229
1058.730, 759.5534
1059.212, 759.7529
1059.694, 759.9423
1060.176, 760.1202
1060.658, 760.3713
1061.140, 760.6298
1061.622, 760.5375
1062.104, 759.6392
1062.587, 759.4211
1063.069, 761.3102
1063.551, 763.0145
1064.033, 763.2241
1064.515, 762.4988
1064.997, 760.9443
1065.479, 759.1166
1065.961, 758.6941
1066.443, 760.5779
1066.926, 762.3652
1067.408, 762.8451
1067.890, 763.2037
1068.372, 764.1946
1068.854, 765.4171
1069.336, 766.9095
1069.818, 768.1570
1070.300, 767.4511
1070.782, 763.6467
1071.265, 761.1331
1071.747, 763.1950
1072.229, 765.5440
1072.711, 765.7438
1073.193, 764.7581
1073.675, 763.3633
1074.157, 761.8713
1074.639, 760.6332
1075.122, 759.7355
1075.604, 759.1964
1076.086, 758.7457
1076.568, 758.9891
1077.050, 761.1808
1077.532, 763.5308
1078.014, 764.1713
1078.496, 763.3771
1078.979, 761.9324
1079.461, 759.9405
1079.943, 759.2878
1080.425, 762.1859
1080.907, 765.0074
1081.389, 765.4823
1081.871, 765.1627
1082.353, 765.3889
1082.835, 766.0911
1083.318, 766.6816
1083.800, 767.0370
1084.282, 767.9534
1084.764, 771.3136
1085.246, 773.3482
1085.728, 770.7880
1086.210, 767.3800
1086.692, 766.4387
1087.175, 767.0455
1087.657, 767.0444
1088.139, 766.0972
1088.621, 765.6107
1089.103, 766.1521
1089.585, 767.2461
1090.067, 769.2245
1090.549, 771.1407
1091.031, 772.1614
1091.514, 772.6744
1091.996, 773.3513
1092.478, 774.2398
1092.960, 774.8665
1093.442, 775.0003
1093.924, 774.9834
1094.406, 775.2100
1094.888, 775.0417
1095.370, 773.6599
1095.853, 771.9047
1096.335, 770.8310
1096.817, 770.4582
1097.299, 770.1857
1097.781, 769.7012
1098.263, 769.7285
1098.745, 771.6637
1099.227, 772.8049
1099.709, 770.3157
1100.192, 767.4007
1100.674, 768.0596
1101.156, 771.3552
1101.638, 773.2190
1102.120, 772.5110
1102.602, 771.7673
1103.084, 771.1943
1103.566, 771.2020
1104.049, 772.4913
1104.531, 773.9255
1105.013, 774.3245
1105.495, 774.1490
1105.977, 774.5810
1106.459, 775.7912
1106.941, 777.3914
1107.423, 780.1047
1107.906, 782.1072
1108.388, 782.8484
1108.870, 782.8024
1109.352, 781.8511
1109.834, 780.5177
1110.316, 779.7306
1110.798, 779.5771
1111.280, 779.1512
1111.762, 778.7744
1112.245, 777.5455
1112.727, 773.9081
1113.209, 771.0579
1113.691, 771.2161
1114.173, 772.6021
1114.655, 772.9938
1115.137, 772.4601
1115.619, 772.0760
1116.102, 771.1760
1116.584, 771.6255
1117.066, 774.3641
1117.548, 777.1149
1118.030, 779.7625
1118.512, 781.3578
1118.994, 780.4857
1119.476, 777.8836
1119.958, 776.5438
1120.441, 776.7834
1120.923, 777.2608
1121.405, 777.7772
1121.887, 779.0682
1122.369, 781.8896
1122.851, 784.5339
1123.333, 785.9708
1123.815, 786.0904
1124.297, 784.3148
1124.780, 780.3433
1125.262, 778.6243
1125.744, 779.8854
1126.226, 780.6676
1126.708, 780.1454
1127.190, 779.8752
1127.672, 780.6965
1128.154, 782.3340
1128.636, 784.6842
1129.119, 787.4425
1129.601, 787.6556
1130.083, 784.9756
1130.565, 783.6760
1131.047, 784.3073
1131.529, 785.1968
1132.011, 785.7276
1132.493, 785.8477
1132.976, 785.4034
1133.458, 784.7175
1133.940, 784.8948
1134.422, 784.5932
1134.904, 784.5291
1135.386, 785.0328
1135.868, 785.0005
1136.350, 786.2169
1136.833, 787.4944
1137.315, 787.9127
1137.797, 788.4919
1138.279, 791.7346
1138.761, 796.4006
1139.243, 797.7295
1139.725, 796.4806
1140.207, 796.1005
1140.689, 796.9757
1141.172, 797.1948
1141.654, 795.8629
1142.136, 794.5350
1142.618, 795.2894
1143.100, 793.9070
1143.582, 795.4958
1144.064, 793.2454
1144.546, 792.5274
1145.029, 793.4127
1145.511, 795.4495
1145.993, 798.2949
1146.475, 800.7725
1146.957, 802.1949
1147.439, 802.6437
1147.921, 801.6318
1148.403, 800.1628
1148.885, 799.3793
1149.368, 799.0927
1149.850, 799.1149
1150.332, 799.1751
1150.814, 798.3177
1151.296, 795.8499
1151.778, 794.3312
1152.260, 795.5801
1152.742, 797.9832
1153.224, 801.4323
1153.707, 804.6816
1154.189, 806.7242
1154.671, 807.4571
1155.153, 806.6182
1155.635, 804.1356
1156.117, 802.1843
1156.599, 802.1432
1157.081, 801.7432
1157.563, 799.0770
1158.046, 797.1548
1158.528, 798.8312
1159.010, 801.7480
1159.492, 802.5825
1159.974, 801.4489
1160.456, 800.9492
1160.938, 801.4520
1161.420, 802.2680
1161.903, 803.7321
1162.385, 805.0095
1162.867, 806.5939
1163.349, 806.9859
1163.831, 803.9349
1164.313, 799.4512
1164.795, 798.7020
1165.277, 802.2639
1165.760, 804.7331
1166.242, 806.0333
1166.724, 806.2888
1167.206, 804.9798
1167.688, 804.4760
1168.170, 806.2665
1168.652, 808.6921
1169.134, 809.6106
1169.616, 809.3275
1170.099, 809.1642
1170.581, 809.1203
1171.063, 809.4116
1171.545, 810.0530
1172.027, 810.8164
1172.509, 811.6438
1172.991, 811.8853
1173.473, 810.9390
1173.956, 809.7520
1174.438, 810.1603
1174.920, 811.6118
1175.402, 812.2662
1175.884, 812.3541
1176.366, 812.8030
1176.848, 813.6834
1177.330, 814.4826
1177.813, 814.9913
1178.295, 815.5057
1178.777, 816.0717
1179.259, 817.1251
1179.741, 820.2736
1180.223, 823.4905
1180.705, 823.4201
1181.187, 821.1689
1181.669, 819.4900
1182.151, 818.7708
1182.634, 817.4356
1183.116, 814.4495
1183.598, 812.0008
1184.080, 811.4293
1184.562, 811.7661
1185.044, 812.6508
1185.526, 813.8672
1186.008, 815.5408
1186.490, 817.3049
1186.973, 818.4128
1187.455, 818.7246
1187.937, 818.6262
1188.419, 817.4608
1188.901, 816.9828
1189.383, 817.3604
1189.865, 818.6971
1190.347, 822.5383
1190.830, 826.1826
1191.312, 826.3686
1191.794, 823.7958
1192.276, 821.8871
1192.758, 820.6501
1193.240, 820.0121
1193.722, 819.8860
1194.204, 820.8790
1194.687, 823.7579
1195.169, 825.6311
1195.651, 824.3611
1196.133, 821.9308
1196.615, 821.5676
1197.097, 822.8809
1197.579, 823.3584
1198.061, 823.0761
1198.543, 823.5025
1199.026, 824.7380
1199.508, 826.0986
1199.990, 827.3403
1200.472, 828.6522
1200.954, 830.2752
1201.436, 831.5280
1201.918, 831.0221
1202.400, 829.6122
1202.883, 829.0316
1203.365, 828.9641
1203.847, 828.5162
1204.329, 827.7072
1204.811, 827.1392
1205.293, 827.0320
1205.775, 827.0371
1206.257, 826.6863
1206.740, 826.6855
1207.222, 827.8889
1207.704, 829.3443
1208.186, 830.1864
1208.668, 830.7015
1209.150, 831.6686
1209.632, 832.8785
1210.114, 832.8492
1210.596, 830.5173
1211.078, 829.3966
1211.561, 831.5039
1212.043, 833.0693
1212.525, 832.4513
1213.007, 831.4700
1213.489, 831.3005
1213.971, 831.4694
1214.453, 831.0530
1214.935, 831.9943
1215.417, 830.7798
1215.900, 833.6006
1216.382, 835.3815
1216.864, 835.6896
1217.346, 836.1584
1217.828, 837.4068
1218.310, 838.2930
1218.792, 837.8560
1219.274, 836.9310
1219.757, 837.3270
1220.239, 838.5498
1220.721, 837.6199
1221.203, 835.2308
1221.685, 835.0045
1222.167, 837.0555
1222.649, 839.4447
1223.131, 841.4118
1223.614, 842.7513
1224.096, 843.1073
1224.578, 843.3947
1225.060, 845.2137
1225.542, 846.9957
1226.024, 846.5408
1226.506, 844.9187
1226.988, 843.7557
1227.470, 843.1389
1227.953, 842.4089
1228.435, 841.3630
1228.917, 840.9506
1229.399, 842.2494
1229.881, 843.2061
1230.363, 842.9003
1230.845, 842.3444
1231.327, 842.1996
1231.810, 842.0797
1232.292, 841.1969
1232.774, 839.9164
1233.256, 839.8152
1233.738, 841.3266
1234.220, 841.9913
1234.702, 841.1214
1235.184, 841.9450
1235.667, 845.7692
1236.149, 848.3221
1236.631, 847.1190
1237.113, 844.9832
1237.595, 845.4362
1238.077, 847.3245
1238.559, 846.9267
1239.041, 844.7991
1239.523, 843.7161
1240.005, 843.6730
1240.488, 844.2410
1240.970, 845.1041
1241.452, 844.8168
1241.934, 842.6379
1242.416, 841.6658
1242.898, 846.7285
1243.380, 852.0917
1243.862, 850.9613
1244.344, 847.8845
1244.827, 847.5157
1245.309, 849.2897
1245.791, 852.3949
1246.273, 856.0140
1246.755, 857.5159
1247.237, 855.6611
1247.719, 853.6642
1248.201, 852.0927
1248.684, 850.6867
1249.166, 849.0025
1249.648, 847.9313
1250.130, 848.2871
1250.612, 849.2013
1251.094, 849.2873
1251.576, 848.9006
1252.058, 850.7003
1252.541, 855.3007
1253.023, 857.3705
1253.505, 856.5533
1253.987, 855.7863
1254.469, 855.7397
1254.951, 856.4071
1255.433, 857.7956
1255.915, 859.7628
1256.397, 862.6537
1256.880, 865.2861
1257.362, 864.6161
1257.844, 862.3512
1258.326, 861.4590
1258.808, 862.0592
1259.290, 864.4754
1259.772, 868.0096
1260.254, 869.8311
1260.737, 868.5805
1261.219, 867.2540
1261.701, 867.4932
1262.183, 867.9650
1262.665, 868.3966
1263.147, 868.4330
1263.629, 866.7096
1264.111, 865.1469
1264.594, 867.3873
1265.076, 872.4862
1265.558, 874.5540
1266.040, 872.6468
1266.522, 871.0043
1267.004, 869.4757
1267.486, 868.7350
1267.968, 868.9554
1268.450, 869.9156
1268.932, 871.6418
1269.415, 873.1169
1269.897, 873.1044
1270.379, 872.2430
1270.861, 872.0449
1271.343, 872.2950
1271.825, 872.0401
1272.307, 871.7053
1272.789, 873.1267
1273.271, 875.9598
1273.754, 877.3423
1274.236, 876.2751
1274.718, 875.9276
1275.200, 879.7276
1275.682, 882.8218
1276.164, 881.2255
1276.646, 879.1183
1277.128, 879.6052
1277.611, 881.1816
1278.093, 882.3790
1278.575, 882.9851
1279.057, 882.2884
1279.539, 879.8674
1280.021, 880.1682
1280.503, 884.4463
1280.985, 887.4222
1281.468, 888.8344
1281.950, 888.5617
1282.432, 886.0496
1282.914, 884.7446
1283.396, 887.8248
1283.878, 892.6448
1284.360, 894.1229
1284.842, 893.0558
1285.324, 891.8385
##END=



