##NAMES=Galenobismutite
##RRUFFID=R110057
##IDEAL CHEMISTRY=Pb^2+^Bi^3+^_2_S^2-^_4_
##LOCALITY=Vena Cobalt mines, Bergslagen, Sweden
##OWNER=RRUFF
##SOURCE=William W Pinch
##DESCRIPTION=Gray metallic massive
##STATUS=The identification of this mineral has been confirmed by single-crystal X-ray diffraction.
##URL=rruff.info/R110057
152.6852, 21.68446
153.1674, 21.74743
153.6495, 22.13468
154.1316, 22.76226
154.6137, 23.95263
155.0958, 25.10050
155.5779, 25.98499
156.0601, 26.43038
156.5422, 26.98293
157.0243, 27.72395
157.5064, 28.61966
157.9885, 29.60465
158.4706, 30.78624
158.9528, 31.96517
159.4349, 33.05324
159.9170, 34.03572
160.3991, 34.92861
160.8812, 35.60015
161.3633, 36.16700
161.8455, 36.93544
162.3276, 38.05607
162.8097, 39.37914
163.2918, 40.86792
163.7739, 42.76379
164.2560, 44.46185
164.7382, 45.51316
165.2203, 46.08574
165.7024, 46.82276
166.1845, 48.28960
166.6666, 49.94835
167.1487, 51.28796
167.6309, 51.87048
168.1130, 52.42820
168.5951, 53.48513
169.0772, 54.96457
169.5593, 56.37809
170.0414, 57.40591
170.5236, 58.21718
171.0057, 59.00068
171.4878, 59.82220
171.9699, 60.65015
172.4520, 61.44278
172.9341, 62.20597
173.4163, 62.97081
173.8984, 63.64009
174.3805, 64.34684
174.8626, 65.28622
175.3447, 66.79630
175.8268, 68.45136
176.3090, 69.69930
176.7911, 70.52516
177.2732, 71.39010
177.7553, 72.66174
178.2374, 73.95219
178.7195, 74.71725
179.2017, 74.29488
179.6838, 73.41010
180.1659, 73.17107
180.6480, 73.59895
181.1301, 74.34608
181.6122, 75.28780
182.0944, 76.32806
182.5765, 77.11941
183.0586, 77.30193
183.5407, 77.17184
184.0228, 77.43025
184.5049, 78.13621
184.9871, 78.93123
185.4692, 79.35149
185.9513, 79.45985
186.4334, 79.56942
186.9155, 79.98592
187.3976, 80.53846
187.8798, 80.56321
188.3619, 79.94381
188.8440, 79.16422
189.3261, 78.96355
189.8082, 79.29619
190.2903, 79.61269
190.7725, 79.54475
191.2546, 79.18167
191.7367, 79.10661
192.2188, 79.42493
192.7009, 79.82938
193.1830, 79.71091
193.6652, 79.06782
194.1473, 78.51031
194.6294, 78.37530
195.1115, 78.63878
195.5936, 79.06980
196.0757, 79.71727
196.5579, 80.41781
197.0400, 80.81950
197.5221, 80.89716
198.0042, 80.95478
198.4863, 81.17102
198.9684, 81.54699
199.4506, 81.91618
199.9327, 82.26920
200.4148, 82.60389
200.8969, 82.88622
201.3790, 83.10032
201.8611, 83.36420
202.3433, 83.80459
202.8254, 84.45145
203.3075, 84.92175
203.7896, 85.16608
204.2717, 85.23399
204.7538, 85.19910
205.2360, 85.01491
205.7181, 84.89281
206.2002, 84.96787
206.6823, 85.26075
207.1644, 85.61272
207.6465, 86.04299
208.1287, 86.50418
208.6108, 86.85056
209.0929, 87.04128
209.5750, 87.22889
210.0571, 87.54781
210.5392, 88.07007
211.0214, 88.38241
211.5035, 88.39414
211.9856, 88.19260
212.4677, 88.03173
212.9498, 87.83512
213.4319, 87.85263
213.9140, 88.37669
214.3962, 89.70377
214.8783, 90.43969
215.3604, 90.24449
215.8425, 89.40202
216.3246, 89.10405
216.8067, 89.58620
217.2889, 90.14976
217.7710, 90.34143
218.2531, 90.00206
218.7352, 89.76646
219.2173, 89.73096
219.6994, 89.83646
220.1816, 89.77526
220.6637, 89.39440
221.1458, 89.10252
221.6279, 89.27474
222.1100, 90.33737
222.5921, 90.68239
223.0743, 89.84608
223.5564, 88.17995
224.0385, 87.37228
224.5206, 87.88245
225.0027, 88.55128
225.4848, 88.61800
225.9670, 87.70615
226.4491, 87.12560
226.9312, 87.10933
227.4133, 87.51357
227.8954, 87.61277
228.3775, 87.21767
228.8597, 86.79320
229.3418, 86.66868
229.8239, 87.10104
230.3060, 87.21841
230.7881, 86.82139
231.2702, 86.04079
231.7524, 85.53225
232.2345, 85.44263
232.7166, 85.41936
233.1987, 85.24364
233.6808, 84.78765
234.1629, 84.47704
234.6451, 84.47208
235.1272, 84.64046
235.6093, 84.32720
236.0914, 83.05872
236.5735, 81.95770
237.0556, 81.74536
237.5378, 83.06815
238.0199, 83.86295
238.5020, 83.89975
238.9841, 83.33134
239.4662, 82.73090
239.9483, 81.96568
240.4305, 81.35313
240.9126, 81.09083
241.3947, 81.39696
241.8768, 81.58231
242.3589, 81.63042
242.8410, 81.53909
243.3232, 81.26807
243.8053, 80.68026
244.2874, 80.10152
244.7695, 79.69711
245.2516, 79.49934
245.7337, 79.40150
246.2159, 79.46758
246.6980, 79.62014
247.1801, 79.60533
247.6622, 79.34624
248.1443, 79.03296
248.6264, 78.77650
249.1086, 78.67896
249.5907, 78.37171
250.0728, 77.72779
250.5549, 76.90581
251.0370, 76.33164
251.5191, 76.08046
252.0013, 75.95975
252.4834, 75.91147
252.9655, 76.01508
253.4476, 75.97559
253.9297, 75.70777
254.4118, 75.33649
254.8940, 75.17487
255.3761, 75.41918
255.8582, 75.52332
256.3403, 75.18975
256.8224, 74.18755
257.3046, 73.53767
257.7867, 73.40293
258.2688, 73.51962
258.7509, 73.36735
259.2330, 72.84142
259.7151, 72.26119
260.1973, 71.72612
260.6794, 71.23743
261.1615, 70.83244
261.6436, 70.53207
262.1257, 70.30229
262.6078, 70.10855
263.0900, 70.00085
263.5721, 69.81770
264.0542, 69.49522
264.5363, 69.00990
265.0184, 68.51110
265.5005, 67.95924
265.9827, 67.43232
266.4648, 67.06147
266.9469, 66.92248
267.4290, 66.72198
267.9111, 66.30833
268.3932, 65.65469
268.8754, 65.27023
269.3575, 65.20630
269.8396, 65.32863
270.3217, 65.54720
270.8038, 65.95408
271.2859, 66.07969
271.7681, 65.68375
272.2502, 64.79341
272.7323, 64.20240
273.2144, 63.97401
273.6965, 63.93689
274.1786, 63.97817
274.6608, 64.14703
275.1429, 64.11587
275.6250, 63.73346
276.1071, 63.06463
276.5892, 62.57721
277.0714, 62.29291
277.5535, 62.15102
278.0356, 62.14524
278.5177, 62.29511
278.9998, 62.37217
279.4819, 62.31562
279.9641, 62.15329
280.4462, 61.99400
280.9283, 61.82969
281.4104, 61.70030
281.8925, 61.67788
282.3746, 61.76577
282.8568, 61.75322
283.3389, 61.60714
283.8210, 61.34113
284.3031, 60.95190
284.7852, 60.42306
285.2673, 59.91124
285.7495, 59.55214
286.2316, 59.33195
286.7137, 59.03583
287.1958, 58.59298
287.6779, 58.12730
288.1600, 58.00268
288.6422, 58.22718
289.1243, 58.28508
289.6064, 57.70066
290.0885, 56.61334
290.5706, 55.77060
291.0527, 55.25530
291.5349, 54.96277
292.0170, 54.77029
292.4991, 54.67312
292.9812, 54.60855
293.4633, 54.53941
293.9454, 54.47591
294.4276, 54.49971
294.9097, 54.65071
295.3918, 54.73005
295.8739, 54.41505
296.3560, 53.77834
296.8381, 53.14643
297.3203, 52.72243
297.8024, 52.40746
298.2845, 51.97066
298.7666, 51.39449
299.2487, 50.81605
299.7308, 50.36597
300.2130, 50.01772
300.6951, 49.70112
301.1772, 49.36118
301.6593, 49.04988
302.1414, 48.88137
302.6235, 48.85299
303.1057, 48.79548
303.5878, 48.52624
304.0699, 48.13272
304.5520, 47.78115
305.0341, 47.53741
305.5162, 47.34887
305.9984, 47.14654
306.4805, 46.94065
306.9626, 46.78770
307.4447, 46.82400
307.9268, 46.90778
308.4089, 46.83404
308.8911, 46.44155
309.3732, 46.04637
309.8553, 46.03272
310.3374, 46.26496
310.8195, 46.28106
311.3016, 45.46903
311.7838, 44.50486
312.2659, 44.02430
312.7480, 44.30290
313.2301, 44.71698
313.7122, 45.00257
314.1943, 45.15603
314.6765, 45.16241
315.1586, 44.87517
315.6407, 44.53851
316.1228, 44.33287
316.6049, 44.33118
317.0870, 44.24812
317.5692, 43.79686
318.0513, 43.22453
318.5334, 42.87992
319.0155, 43.17537
319.4976, 43.46486
319.9797, 43.40168
320.4619, 42.92531
320.9440, 42.57740
321.4261, 42.64205
321.9082, 42.85858
322.3903, 42.98024
322.8724, 42.96393
323.3546, 42.83741
323.8367, 42.52036
324.3188, 42.02637
324.8009, 41.69382
325.2830, 41.80677
325.7651, 41.96009
326.2473, 41.89171
326.7294, 41.20512
327.2115, 40.72767
327.6936, 40.64789
328.1757, 40.88174
328.6578, 41.00031
329.1400, 40.90493
329.6221, 40.77330
330.1042, 40.67744
330.5863, 40.62116
331.0684, 40.59472
331.5505, 40.59686
332.0327, 40.62830
332.5148, 40.68735
332.9969, 40.73962
333.4790, 40.86795
333.9611, 41.16312
334.4432, 41.75540
334.9254, 41.96785
335.4075, 41.67065
335.8896, 41.09949
336.3717, 40.52911
336.8538, 39.87080
337.3359, 39.44938
337.8180, 39.43462
338.3001, 39.81733
338.7823, 39.97573
339.2644, 39.80220
339.7465, 39.61509
340.2286, 39.82415
340.7107, 40.54771
341.1928, 40.93312
341.6750, 40.71391
342.1571, 40.06651
342.6392, 39.69007
343.1213, 39.61469
343.6034, 39.63346
344.0855, 39.58947
344.5677, 39.48832
345.0498, 39.47942
345.5319, 39.61626
346.0140, 39.79447
346.4961, 39.78587
346.9782, 39.59812
347.4604, 39.41818
347.9425, 39.34705
348.4246, 39.36927
348.9067, 39.46480
349.3888, 39.65443
349.8709, 39.80883
350.3531, 39.75546
350.8352, 39.52848
351.3173, 39.25607
351.7994, 38.89528
352.2815, 38.55374
352.7636, 38.43264
353.2458, 38.53151
353.7279, 38.70732
354.2100, 38.94595
354.6921, 39.16310
355.1742, 39.19489
355.6563, 38.82104
356.1385, 38.42308
356.6206, 38.44400
357.1027, 38.80044
357.5848, 39.07672
358.0669, 38.95868
358.5490, 38.67790
359.0312, 38.45048
359.5133, 38.32516
359.9954, 38.24056
360.4775, 38.16313
360.9596, 38.10057
361.4417, 38.06978
361.9239, 38.10197
362.4060, 38.14911
362.8881, 38.19902
363.3702, 38.26139
363.8523, 38.26738
364.3344, 38.17890
364.8166, 38.02795
365.2987, 37.84952
365.7808, 37.51003
366.2629, 37.29052
366.7450, 37.37732
367.2271, 37.76701
367.7093, 37.91740
368.1914, 37.57208
368.6735, 37.08952
369.1556, 36.69762
369.6377, 36.32599
370.1198, 36.15773
370.6020, 36.27129
371.0841, 36.60293
371.5662, 36.94032
372.0483, 37.41437
372.5304, 37.72908
373.0125, 37.71429
373.4947, 37.17755
373.9768, 36.87365
374.4589, 36.88747
374.9410, 37.06261
375.4231, 37.14862
375.9052, 37.11543
376.3874, 37.08527
376.8695, 37.12495
377.3516, 37.22991
377.8337, 37.16104
378.3158, 36.88736
378.7979, 36.52885
379.2801, 36.14001
379.7622, 35.70634
380.2443, 35.53929
380.7264, 35.83052
381.2085, 36.31538
381.6906, 36.15710
382.1728, 35.34203
382.6549, 34.60937
383.1370, 34.52052
383.6191, 34.94687
384.1012, 35.46340
384.5833, 36.09946
385.0655, 36.58263
385.5476, 36.34669
386.0297, 35.58934
386.5118, 35.04316
386.9939, 35.28530
387.4760, 35.85414
387.9582, 36.03799
388.4403, 35.82061
388.9224, 35.58739
389.4045, 35.72086
389.8866, 36.01849
390.3687, 36.19350
390.8509, 36.10044
391.3330, 35.91009
391.8151, 35.71836
392.2972, 35.52480
392.7793, 35.32353
393.2614, 35.10815
393.7436, 34.88735
394.2257, 34.66031
394.7078, 34.42225
395.1899, 34.19309
395.6720, 33.86359
396.1541, 33.56682
396.6363, 33.51696
397.1184, 34.14148
397.6005, 34.67110
398.0826, 34.81856
398.5647, 34.52930
399.0468, 34.20411
399.5290, 33.66423
400.0111, 33.22518
400.4932, 33.14806
400.9753, 33.89999
401.4574, 34.38607
401.9395, 34.44067
402.4217, 34.14112
402.9038, 33.82616
403.3859, 33.42154
403.8680, 33.11081
404.3501, 33.01358
404.8322, 33.22330
405.3144, 33.30549
405.7965, 33.19596
406.2786, 33.03410
406.7607, 33.09352
407.2428, 33.43836
407.7249, 33.64061
408.2071, 33.45797
408.6892, 32.98917
409.1713, 32.95053
409.6534, 33.41227
410.1355, 33.89520
410.6176, 33.92688
411.0998, 33.57459
411.5819, 33.19748
412.0640, 32.80970
412.5461, 32.52095
413.0282, 32.59638
413.5103, 32.97650
413.9925, 33.31031
414.4746, 33.39453
414.9567, 33.30421
415.4388, 33.10648
415.9209, 32.78677
416.4030, 32.52948
416.8852, 32.52714
417.3673, 32.68216
417.8494, 32.83409
418.3315, 32.97120
418.8136, 33.04551
419.2957, 33.08223
419.7779, 33.05811
420.2600, 32.82335
420.7421, 31.99883
421.2242, 31.12648
421.7063, 30.62204
422.1884, 30.65470
422.6706, 30.85409
423.1527, 31.27563
423.6348, 31.78773
424.1169, 32.14480
424.5990, 32.15592
425.0811, 32.15987
425.5633, 32.30443
426.0454, 32.64063
426.5275, 32.75681
427.0096, 32.50999
427.4917, 32.15562
427.9738, 31.87718
428.4560, 31.59106
428.9381, 31.58903
429.4202, 32.09978
429.9023, 32.87527
430.3844, 32.98283
430.8665, 32.16994
431.3487, 31.40482
431.8308, 31.27182
432.3129, 31.81587
432.7950, 32.04678
433.2771, 31.90582
433.7592, 31.58022
434.2414, 31.22692
434.7235, 30.86086
435.2056, 30.67252
435.6877, 30.78642
436.1698, 31.07061
436.6519, 31.25483
437.1341, 31.34308
437.6162, 31.40934
438.0983, 31.50097
438.5804, 31.61058
439.0625, 31.73709
439.5446, 31.89548
440.0268, 32.01920
440.5089, 32.05176
440.9910, 32.00554
441.4731, 31.90642
441.9552, 31.73749
442.4373, 31.54123
442.9195, 31.28248
443.4016, 30.96854
443.8837, 30.81717
444.3658, 31.12142
444.8479, 31.51076
445.3300, 31.68663
445.8122, 31.35021
446.2943, 31.11350
446.7764, 31.14332
447.2585, 31.34777
447.7406, 31.49198
448.2227, 31.51430
448.7049, 31.51984
449.1870, 31.53271
449.6691, 31.55042
450.1512, 31.59934
450.6333, 31.72920
451.1154, 31.83667
451.5976, 31.81147
452.0797, 31.61426
452.5618, 31.40762
453.0439, 31.17540
453.5260, 30.97246
454.0081, 31.02159
454.4903, 31.37402
454.9724, 31.64609
455.4545, 31.57401
455.9366, 31.20904
456.4187, 30.86440
456.9008, 30.52827
457.3830, 30.34398
457.8651, 30.63909
458.3472, 31.25654
458.8293, 31.67210
459.3114, 31.66418
459.7935, 31.42805
460.2757, 31.07217
460.7578, 30.65213
461.2399, 30.43892
461.7220, 30.86289
462.2041, 31.42873
462.6862, 31.62122
463.1684, 31.28905
463.6505, 30.93744
464.1326, 30.78444
464.6147, 30.77875
465.0968, 30.85339
465.5789, 31.11276
466.0611, 31.32369
466.5432, 31.41615
467.0253, 31.39392
467.5074, 31.32443
467.9895, 31.19267
468.4716, 31.03337
468.9538, 30.85571
469.4359, 30.61992
469.9180, 30.45814
470.4001, 30.38866
470.8822, 30.37849
471.3643, 30.39304
471.8465, 30.46317
472.3286, 30.45974
472.8107, 30.31016
473.2928, 30.05660
473.7749, 29.95486
474.2570, 30.02913
474.7392, 30.13097
475.2213, 30.13401
475.7034, 30.05789
476.1855, 30.04350
476.6676, 30.11480
477.1497, 30.21926
477.6319, 30.33435
478.1140, 30.43348
478.5961, 30.42406
479.0782, 30.05180
479.5603, 29.68210
480.0424, 29.89720
480.5246, 30.61313
481.0067, 31.14061
481.4888, 30.80241
481.9709, 30.21938
482.4530, 29.97888
482.9352, 30.36148
483.4173, 30.66957
483.8994, 30.48654
484.3815, 30.08639
484.8636, 29.88834
485.3457, 30.28092
485.8279, 30.58340
486.3100, 30.57409
486.7921, 30.24740
487.2742, 29.97291
487.7563, 29.65049
488.2384, 29.47980
488.7206, 29.64387
489.2027, 30.44534
489.6848, 30.71783
490.1669, 30.23045
490.6490, 29.44568
491.1311, 29.12415
491.6133, 29.33781
492.0954, 29.53046
492.5775, 29.49760
493.0596, 29.32276
493.5417, 29.34101
494.0238, 29.55435
494.5060, 29.78773
494.9881, 29.92109
495.4702, 29.97293
495.9523, 29.97182
496.4344, 29.90305
496.9165, 29.86433
497.3987, 29.97313
497.8808, 30.18009
498.3629, 30.39037
498.8450, 30.67095
499.3271, 30.85325
499.8092, 30.77325
500.2914, 30.47146
500.7735, 30.17866
501.2556, 29.94512
501.7377, 29.77253
502.2198, 29.67067
502.7019, 29.66836
503.1841, 29.66144
503.6662, 29.57901
504.1483, 29.51072
504.6304, 29.56741
505.1125, 29.85367
505.5946, 30.09630
506.0768, 30.26757
506.5589, 30.36447
507.0410, 30.35266
507.5231, 30.18193
508.0052, 30.04268
508.4873, 30.06554
508.9695, 30.25204
509.4516, 30.32021
509.9337, 30.23621
510.4158, 30.16708
510.8979, 30.41987
511.3800, 30.89188
511.8622, 31.07680
512.3443, 30.70240
512.8264, 30.18366
513.3085, 30.12723
513.7906, 30.41753
514.2728, 30.63979
514.7549, 30.49313
515.2370, 30.22186
515.7191, 30.00747
516.2012, 29.86297
516.6833, 29.80476
517.1655, 29.97235
517.6476, 30.15844
518.1297, 30.18327
518.6118, 29.79479
519.0939, 29.51139
519.5760, 29.44713
520.0582, 29.54209
520.5403, 29.65223
521.0224, 29.85921
521.5045, 29.96186
521.9866, 29.86462
522.4688, 29.56726
522.9509, 29.37515
523.4330, 29.27889
523.9151, 29.30428
524.3972, 29.57760
524.8793, 30.10818
525.3615, 30.24680
525.8436, 29.82887
526.3257, 29.30322
526.8078, 29.43251
527.2899, 30.08498
527.7720, 30.64416
528.2542, 30.92002
528.7363, 30.92479
529.2184, 30.46705
529.7005, 29.66051
530.1826, 29.10176
530.6647, 29.43360
531.1469, 30.00683
531.6290, 30.25373
532.1111, 30.04090
532.5932, 29.76658
533.0753, 29.54536
533.5574, 29.36029
534.0396, 29.19742
534.5217, 28.93438
535.0038, 28.83447
535.4859, 29.06822
535.9680, 29.49883
536.4501, 29.67780
536.9323, 29.43940
537.4144, 29.23285
537.8965, 29.25320
538.3786, 29.50835
538.8607, 29.62531
539.3428, 29.58964
539.8250, 29.45622
540.3071, 29.17827
540.7892, 28.79505
541.2713, 28.71150
541.7534, 29.06785
542.2355, 29.52447
542.7177, 29.54476
543.1998, 29.25652
543.6819, 29.06605
544.1640, 29.31746
544.6461, 29.64329
545.1282, 29.71404
545.6104, 29.54916
546.0925, 29.28140
546.5746, 28.82407
547.0567, 28.39814
547.5388, 28.16113
548.0209, 28.18202
548.5031, 28.23854
548.9852, 28.26411
549.4673, 28.31290
549.9494, 28.44547
550.4315, 28.74229
550.9136, 28.99737
551.3958, 29.18647
551.8779, 29.32130
552.3600, 29.45142
552.8421, 29.60846
553.3242, 29.65092
553.8063, 29.48020
554.2885, 29.12796
554.7706, 28.79710
555.2527, 28.47424
555.7348, 28.31336
556.2169, 28.61372
556.6990, 29.17465
557.1812, 29.46025
557.6633, 29.34560
558.1454, 29.10495
558.6275, 28.89681
559.1096, 28.76375
559.5917, 28.77670
560.0739, 29.22661
560.5560, 29.58202
561.0381, 29.55298
561.5202, 29.19423
562.0023, 28.75733
562.4844, 28.00238
562.9666, 27.44201
563.4487, 27.38793
563.9308, 27.97161
564.4129, 28.38753
564.8950, 28.59008
565.3771, 28.67406
565.8593, 28.69240
566.3414, 28.60935
566.8235, 28.63592
567.3056, 28.84620
567.7877, 29.09276
568.2698, 29.08083
568.7520, 28.82430
569.2341, 28.54905
569.7162, 28.26264
570.1983, 28.06186
570.6804, 28.23828
571.1625, 28.72898
571.6447, 29.09886
572.1268, 28.98927
572.6089, 28.66582
573.0910, 28.34140
573.5731, 28.02205
574.0552, 27.83302
574.5374, 27.87234
575.0195, 28.04597
575.5016, 28.26532
575.9837, 28.66715
576.4658, 28.92084
576.9479, 28.91357
577.4301, 28.75999
577.9122, 28.68751
578.3943, 28.74553
578.8764, 28.78609
579.3585, 28.78523
579.8406, 28.73549
580.3228, 28.55172
580.8049, 28.20891
581.2870, 27.89437
581.7691, 27.74709
582.2512, 27.73466
582.7333, 27.69440
583.2155, 27.60549
583.6975, 27.61079
584.1796, 28.04394
584.6617, 28.61747
585.1439, 28.84074
585.6260, 28.46755
586.1081, 27.92025
586.5902, 27.25863
587.0723, 26.62422
587.5544, 26.29873
588.0366, 26.54964
588.5187, 26.92071
589.0008, 27.33756
589.4829, 27.78437
589.9650, 28.08779
590.4471, 28.24534
590.9293, 28.25911
591.4114, 28.09745
591.8935, 27.72579
592.3756, 27.40227
592.8577, 27.10579
593.3398, 26.91340
593.8220, 26.92225
594.3041, 27.11664
594.7862, 27.41747
595.2683, 27.87918
595.7504, 28.26140
596.2325, 28.13151
596.7147, 27.66723
597.1968, 27.33296
597.6789, 27.47884
598.1610, 27.70485
598.6431, 27.69267
599.1252, 27.49682
599.6074, 27.37827
600.0895, 27.58243
600.5716, 27.75579
601.0537, 27.67106
601.5358, 27.21180
602.0179, 27.00788
602.5001, 27.30495
602.9822, 27.62091
603.4643, 27.54000
603.9464, 26.88194
604.4285, 26.55381
604.9106, 26.66660
605.3928, 27.01475
605.8749, 27.35774
606.3570, 27.68670
606.8391, 27.86047
607.3212, 27.77800
607.8033, 27.59321
608.2855, 27.51391
608.7676, 27.52979
609.2497, 27.60070
609.7318, 27.75042
610.2139, 27.91222
610.6960, 28.05231
611.1782, 28.16615
611.6603, 28.20573
612.1424, 28.00933
612.6245, 27.83923
613.1066, 27.88200
613.5887, 28.31883
614.0709, 28.58321
614.5530, 28.66771
615.0351, 28.58909
615.5172, 28.30121
615.9993, 27.70232
616.4814, 27.37262
616.9636, 27.46487
617.4457, 27.75894
617.9278, 27.83320
618.4099, 27.70543
618.8920, 27.56300
619.3741, 27.42907
619.8563, 27.36258
620.3384, 27.55782
620.8205, 27.94485
621.3026, 28.17445
621.7847, 27.87614
622.2668, 27.46455
622.7490, 27.24644
623.2311, 27.26042
623.7132, 27.32888
624.1953, 27.39350
624.6774, 27.50591
625.1595, 27.71738
625.6417, 28.19697
626.1238, 28.43041
626.6059, 28.31241
627.0880, 28.06268
627.5701, 27.99459
628.0522, 28.13598
628.5344, 28.21237
629.0165, 28.21282
629.4986, 28.04823
629.9807, 27.28620
630.4628, 26.08720
630.9449, 25.33268
631.4271, 25.81785
631.9092, 26.72684
632.3913, 27.18902
632.8734, 27.25899
633.3555, 27.30961
633.8376, 27.66622
634.3198, 27.95391
634.8019, 27.87137
635.2840, 27.27468
635.7661, 26.92315
636.2482, 27.05786
636.7303, 27.32127
637.2125, 27.47630
637.6946, 27.48464
638.1767, 27.49055
638.6588, 27.48724
639.1409, 27.50433
639.6230, 27.61220
640.1052, 27.80223
640.5873, 27.92450
641.0694, 27.91721
641.5515, 27.86457
642.0336, 27.93051
642.5157, 28.06118
642.9979, 28.09933
643.4800, 27.75011
643.9621, 27.46090
644.4442, 27.68899
644.9263, 28.32573
645.4084, 28.71379
645.8906, 28.36679
646.3727, 27.96115
646.8548, 27.86816
647.3369, 28.16619
647.8190, 28.17190
648.3011, 27.68309
648.7833, 27.20523
649.2654, 27.16007
649.7475, 27.58963
650.2296, 27.95212
650.7117, 28.22944
651.1938, 28.39592
651.6760, 28.39097
652.1581, 28.24330
652.6402, 28.00590
653.1223, 27.59135
653.6044, 27.30616
654.0865, 27.60338
654.5687, 28.20383
655.0508, 28.57141
655.5329, 28.22137
656.0150, 27.90005
656.4971, 27.95750
656.9792, 28.30757
657.4614, 28.46965
657.9435, 28.27884
658.4256, 28.10366
658.9077, 28.06873
659.3898, 28.16794
659.8719, 28.25241
660.3541, 28.31909
660.8362, 28.38464
661.3183, 28.47969
661.8004, 28.58574
662.2825, 28.60212
662.7646, 28.51560
663.2468, 28.47839
663.7289, 28.76664
664.2110, 29.12982
664.6931, 29.21087
665.1752, 28.82321
665.6573, 28.43899
666.1395, 28.28557
666.6216, 28.24149
667.1037, 28.15721
667.5858, 27.89972
668.0679, 27.74549
668.5500, 27.72075
669.0322, 27.80987
669.5143, 28.00863
669.9964, 28.35294
670.4785, 28.63812
670.9606, 28.80915
671.4427, 28.87357
671.9249, 28.80594
672.4070, 28.62375
672.8891, 28.47087
673.3712, 28.45661
673.8533, 28.50394
674.3354, 28.53900
674.8176, 28.55808
675.2997, 28.55143
675.7818, 28.44688
676.2639, 28.36648
676.7460, 28.41090
677.2281, 28.64670
677.7103, 28.77905
678.1924, 28.76200
678.6745, 28.67615
679.1566, 28.56174
679.6387, 28.39657
680.1208, 28.30528
680.6030, 28.29166
681.0851, 28.35730
681.5672, 28.57449
682.0493, 28.88909
682.5314, 29.05875
683.0135, 28.97459
683.4957, 28.84258
683.9778, 28.90137
684.4599, 29.06560
684.9420, 29.17251
685.4241, 29.17998
685.9063, 29.10168
686.3884, 28.86319
686.8705, 28.53185
687.3526, 28.33130
687.8347, 28.20946
688.3168, 28.32186
688.7990, 28.85140
689.2811, 29.68089
689.7632, 29.89262
690.2453, 29.39857
690.7274, 28.89594
691.2095, 28.86820
691.6917, 29.14001
692.1738, 29.16140
692.6559, 28.93663
693.1380, 28.70878
693.6201, 28.53613
694.1022, 28.51727
694.5844, 28.85162
695.0665, 29.64532
695.5486, 30.20695
696.0307, 30.01849
696.5128, 29.68363
696.9949, 29.69947
697.4771, 30.36083
697.9592, 30.76111
698.4413, 30.80996
698.9234, 30.71010
699.4055, 30.74292
699.8876, 30.91470
700.3698, 30.86809
700.8519, 30.49045
701.3340, 30.01713
701.8161, 29.74964
702.2982, 29.64961
702.7803, 29.62665
703.2625, 29.72532
703.7446, 29.79444
704.2267, 29.60327
704.7088, 29.31410
705.1909, 29.28719
705.6730, 29.96621
706.1552, 30.52435
706.6373, 30.71697
707.1194, 30.62358
707.6015, 30.62287
708.0836, 30.75941
708.5657, 30.84109
709.0479, 30.70366
709.5300, 30.45718
710.0121, 30.67314
710.4942, 31.33184
710.9763, 31.92572
711.4584, 32.15181
711.9406, 32.10107
712.4227, 31.76446
712.9048, 31.16095
713.3869, 30.74974
713.8690, 30.95879
714.3511, 31.28660
714.8333, 31.37951
715.3154, 31.07443
715.7975, 30.95355
716.2796, 31.07989
716.7617, 31.31650
717.2438, 31.59356
717.7260, 31.92358
718.2081, 32.12197
718.6902, 32.15526
719.1723, 32.14462
719.6544, 32.25852
720.1365, 32.43750
720.6187, 32.51232
721.1008, 32.40462
721.5829, 32.31332
722.0650, 32.42720
722.5471, 32.63444
723.0292, 32.78774
723.5114, 32.76129
723.9935, 32.77674
724.4756, 32.90887
724.9577, 33.08730
725.4398, 33.20206
725.9219, 33.25208
726.4041, 33.23425
726.8862, 33.13976
727.3683, 32.98475
727.8504, 32.74004
728.3325, 32.43850
728.8146, 32.31618
729.2968, 32.60823
729.7789, 33.02530
730.2610, 33.27336
730.7431, 33.37425
731.2252, 33.40054
731.7073, 33.34761
732.1895, 33.26141
732.6716, 33.15203
733.1537, 33.02180
733.6358, 32.88966
734.1179, 32.70998
734.6000, 32.60552
735.0822, 32.63835
735.5643, 32.79746
736.0464, 33.00042
736.5285, 33.25187
737.0106, 33.45896
737.4927, 33.55209
737.9749, 33.55860
738.4570, 33.50331
738.9391, 33.39085
739.4212, 33.28770
739.9033, 33.20450
740.3854, 33.16563
740.8676, 33.21062
741.3497, 33.38575
741.8318, 33.46688
742.3139, 33.37817
742.7960, 33.26507
743.2781, 33.21931
743.7603, 33.24457
744.2424, 33.33362
744.7245, 33.50908
745.2066, 33.65590
745.6887, 33.58346
746.1708, 33.39378
746.6530, 33.39217
747.1351, 33.67367
747.6172, 33.91468
748.0993, 33.84883
748.5814, 33.62352
749.0635, 33.39870
749.5457, 33.14778
750.0278, 32.99520
750.5099, 32.93669
750.9920, 32.99552
751.4741, 33.26762
751.9562, 33.86577
752.4384, 34.15406
752.9205, 33.97448
753.4026, 33.60185
753.8847, 33.42756
754.3668, 33.43153
754.8489, 33.55084
755.3311, 33.84611
755.8132, 34.09841
756.2953, 34.02624
756.7774, 33.79064
757.2595, 33.67572
757.7416, 33.88723
758.2238, 34.09037
758.7059, 34.14925
759.1880, 34.16541
759.6701, 34.39643
760.1522, 34.97233
760.6343, 35.33929
761.1165, 35.31173
761.5986, 35.04128
762.0807, 34.89192
762.5628, 34.84170
763.0449, 34.75994
763.5270, 34.51945
764.0092, 34.27996
764.4913, 34.22411
764.9734, 34.29700
765.4555, 34.32678
765.9376, 34.23113
766.4197, 34.10194
766.9019, 33.86042
767.3840, 33.58561
767.8661, 33.75138
768.3482, 34.60394
768.8303, 35.15617
769.3124, 34.85812
769.7946, 34.01117
770.2767, 33.67237
770.7588, 33.80368
771.2409, 34.05012
771.7230, 34.30064
772.2051, 34.48942
772.6873, 34.56295
773.1694, 34.51834
773.6515, 34.35169
774.1336, 33.79067
774.6157, 33.37233
775.0978, 33.38374
775.5800, 33.80519
776.0621, 34.15181
776.5442, 34.43752
777.0263, 34.60781
777.5084, 34.55896
777.9905, 34.36071
778.4727, 34.39637
778.9548, 34.64994
779.4369, 34.83942
779.9190, 34.71215
780.4011, 34.45580
780.8832, 34.21172
781.3654, 33.99561
781.8475, 33.88574
782.3296, 33.95996
782.8117, 34.10386
783.2938, 34.27673
783.7759, 34.48707
784.2581, 34.61826
784.7402, 34.64595
785.2223, 34.66959
785.7044, 34.80499
786.1865, 34.99819
786.6686, 35.02275
787.1508, 34.87363
787.6329, 34.66877
788.1150, 34.36954
788.5971, 34.13429
789.0792, 34.18599
789.5613, 34.59166
790.0435, 34.84396
790.5256, 34.69069
791.0077, 34.46441
791.4898, 34.31715
791.9719, 34.24558
792.4540, 34.30396
792.9362, 34.51830
793.4183, 34.74835
793.9004, 34.97769
794.3825, 35.12099
794.8646, 34.82392
795.3467, 34.05332
795.8289, 33.35925
796.3110, 33.17275
796.7931, 33.22074
797.2752, 33.28940
797.7573, 33.34004
798.2394, 33.46810
798.7216, 33.74679
799.2037, 34.03579
799.6858, 34.24117
800.1679, 34.35080
800.6500, 34.48594
801.1321, 34.65585
801.6143, 34.80610
802.0964, 34.91516
802.5785, 34.96215
803.0606, 34.86971
803.5427, 34.61834
804.0248, 34.40810
804.5070, 34.39094
804.9891, 34.43623
805.4712, 34.42944
805.9533, 34.30042
806.4354, 34.32881
806.9175, 34.61897
807.3997, 34.91490
807.8818, 35.04150
808.3639, 34.99911
808.8460, 34.79204
809.3281, 34.40140
809.8102, 34.08100
810.2924, 34.11221
810.7745, 34.33030
811.2566, 34.53213
811.7387, 34.69223
812.2208, 34.80443
812.7029, 34.88084
813.1851, 34.89590
813.6672, 34.80382
814.1493, 34.54511
814.6314, 34.47503
815.1135, 34.67278
815.5956, 34.86274
816.0778, 34.77685
816.5599, 34.48302
817.0420, 34.30775
817.5241, 34.26963
818.0062, 34.24316
818.4883, 34.03780
818.9705, 33.85123
819.4526, 33.93498
819.9347, 34.37149
820.4168, 34.65784
820.8989, 34.66956
821.3810, 34.51256
821.8632, 34.13161
822.3453, 33.45016
822.8274, 33.44477
823.3095, 34.23528
823.7916, 34.97172
824.2737, 34.79517
824.7559, 34.13015
825.2380, 33.84503
825.7201, 33.98675
826.2022, 34.18257
826.6843, 34.27086
827.1664, 34.28743
827.6486, 34.22756
828.1307, 34.06912
828.6128, 34.01242
829.0949, 34.10639
829.5770, 34.21756
830.0591, 34.28909
830.5413, 34.31785
831.0234, 34.23951
831.5055, 34.05590
831.9876, 33.92599
832.4697, 34.01355
832.9518, 34.18162
833.4340, 34.32839
833.9161, 34.43690
834.3982, 34.40067
834.8803, 34.03166
835.3624, 33.65379
835.8445, 33.36049
836.3267, 33.15840
836.8088, 33.25547
837.2909, 33.72111
837.7730, 34.16657
838.2551, 34.35347
838.7372, 34.37132
839.2194, 34.43855
839.7015, 34.54576
840.1836, 34.63814
840.6657, 34.81696
841.1478, 34.85234
841.6299, 34.42010
842.1121, 33.61031
842.5942, 33.27162
843.0763, 33.68279
843.5584, 34.14008
844.0405, 34.44796
844.5226, 34.62611
845.0048, 34.76126
845.4869, 34.84931
845.9690, 34.82961
846.4511, 34.63395
846.9332, 34.34780
847.4153, 34.01178
847.8975, 33.65835
848.3796, 33.37898
848.8617, 33.22639
849.3438, 33.13236
849.8259, 33.10680
850.3080, 33.11798
850.7902, 33.03548
851.2723, 32.80466
851.7544, 32.86563
852.2365, 33.50365
852.7186, 34.24839
853.2007, 34.09566
853.6829, 33.35457
854.1650, 32.87785
854.6471, 33.26139
855.1292, 33.64383
855.6113, 33.56188
856.0934, 33.21355
856.5756, 32.95721
857.0577, 32.79911
857.5398, 32.77135
858.0219, 32.92917
858.5040, 33.13584
858.9861, 33.11386
859.4683, 32.92115
859.9504, 32.92072
860.4325, 33.28269
860.9146, 33.57129
861.3967, 33.24632
861.8788, 32.67434
862.3610, 32.30844
862.8431, 32.38367
863.3252, 32.44591
863.8073, 32.44698
864.2894, 32.42752
864.7715, 32.44469
865.2537, 32.50539
865.7358, 32.46373
866.2179, 32.30227
866.7000, 32.08524
867.1821, 31.81780
867.6642, 31.56132
868.1464, 31.43155
868.6285, 31.46518
869.1106, 31.47489
869.5927, 31.32324
870.0748, 31.17758
870.5569, 31.16405
871.0391, 31.31516
871.5212, 31.38593
872.0033, 31.38765
872.4854, 31.25305
872.9675, 30.71995
873.4496, 30.05947
873.9318, 30.06783
874.4139, 30.70859
874.8960, 31.27069
875.3781, 31.33104
875.8602, 31.18430
876.3423, 30.93409
876.8245, 30.59847
877.3066, 30.41309
877.7887, 30.42446
878.2708, 30.49287
878.7529, 30.61933
879.2350, 30.73787
879.7172, 30.54250
880.1993, 30.08905
880.6814, 29.72041
881.1635, 29.70476
881.6456, 29.77007
882.1277, 29.75643
882.6099, 29.66189
883.0920, 29.48281
883.5741, 29.02645
884.0562, 28.76402
884.5383, 28.82643
885.0204, 29.07191
885.5026, 29.21839
885.9847, 29.26635
886.4668, 29.22939
886.9489, 29.10175
887.4310, 28.91107
887.9131, 28.62184
888.3953, 28.31318
888.8774, 28.10218
889.3595, 28.04882
889.8416, 28.06424
890.3237, 28.25369
890.8058, 28.40617
891.2880, 28.26852
891.7701, 27.81506
892.2522, 27.36288
892.7343, 26.90857
893.2164, 26.62957
893.6985, 26.87437
894.1807, 27.34367
894.6628, 27.61108
895.1449, 27.59532
895.6270, 27.47737
896.1091, 27.13566
896.5912, 26.88005
897.0734, 26.97137
897.5555, 27.47210
898.0376, 27.45629
898.5197, 26.83770
899.0018, 26.22965
899.4839, 26.20426
899.9661, 26.42840
900.4482, 26.17439
900.9303, 25.52262
901.4124, 25.08141
901.8945, 25.27518
902.3766, 25.61966
902.8588, 25.99117
903.3409, 26.33454
903.8230, 26.39798
904.3051, 26.09672
904.7872, 25.85543
905.2693, 25.84647
905.7515, 25.93628
906.2336, 25.81944
906.7157, 25.56996
907.1978, 25.40321
907.6799, 25.44041
908.1620, 25.53870
908.6442, 25.67765
909.1263, 25.82292
909.6084, 25.93042
910.0905, 26.03943
910.5726, 25.98342
911.0547, 25.69914
911.5369, 25.36200
912.0190, 25.23944
912.5011, 25.24967
912.9832, 25.12915
913.4653, 24.80415
913.9474, 24.54257
914.4296, 24.53205
914.9117, 24.64647
915.3938, 24.80984
915.8759, 25.05786
916.3580, 25.12874
916.8401, 24.93734
917.3223, 24.77841
917.8044, 24.92639
918.2865, 25.27264
918.7686, 25.35856
919.2507, 25.21600
919.7328, 25.17001
920.2150, 25.69548
920.6971, 26.13623
921.1792, 25.96299
921.6613, 25.26096
922.1434, 24.84738
922.6255, 24.90693
923.1077, 24.84888
923.5898, 24.44434
924.0719, 23.88202
924.5540, 23.56515
925.0361, 23.46927
925.5182, 23.51090
926.0004, 23.74151
926.4825, 23.96124
926.9646, 24.00919
927.4467, 23.98024
927.9288, 24.02054
928.4109, 24.19340
928.8931, 24.33251
929.3752, 24.44416
929.8573, 24.48982
930.3394, 24.39570
930.8215, 24.19788
931.3036, 23.97818
931.7858, 23.73510
932.2679, 23.65569
932.7500, 24.04272
933.2321, 24.51495
933.7142, 24.79865
934.1964, 24.85169
934.6785, 24.78664
935.1606, 24.53546
935.6427, 24.33775
936.1248, 24.35877
936.6069, 24.51921
937.0891, 24.59347
937.5712, 24.57342
938.0533, 24.41009
938.5354, 23.77402
939.0175, 23.29013
939.4996, 23.49600
939.9818, 24.13093
940.4639, 24.41986
940.9460, 24.20335
941.4281, 24.00553
941.9102, 23.93919
942.3923, 23.88835
942.8745, 23.56088
943.3566, 23.09330
943.8387, 22.91739
944.3208, 23.19951
944.8029, 23.55285
945.2850, 23.87490
945.7672, 24.09347
946.2493, 24.11466
946.7314, 23.87817
947.2135, 23.70401
947.6956, 23.58494
948.1777, 23.55387
948.6599, 23.69221
949.1420, 23.92474
949.6241, 24.10432
950.1062, 24.21754
950.5883, 24.20501
951.0704, 23.87918
951.5526, 23.57063
952.0347, 23.45935
952.5168, 23.50777
952.9989, 23.62966
953.4810, 23.88694
953.9631, 23.87891
954.4453, 23.36112
954.9274, 22.75646
955.4095, 22.86698
955.8916, 23.41397
956.3737, 23.80003
956.8558, 23.78755
957.3380, 23.68412
957.8201, 23.62368
958.3022, 23.49674
958.7843, 23.13365
959.2664, 22.41891
959.7485, 22.19501
960.2307, 22.54409
960.7128, 22.95490
961.1949, 22.80901
961.6770, 22.52797
962.1591, 22.86697
962.6412, 23.82224
963.1234, 24.43360
963.6055, 24.10488
964.0876, 23.64796
964.5697, 23.27478
965.0518, 23.01585
965.5339, 23.09339
966.0161, 23.50701
966.4982, 23.72126
966.9803, 23.44284
967.4624, 23.02045
967.9445, 22.74673
968.4266, 22.62836
968.9088, 22.68167
969.3909, 23.18545
969.8730, 23.45910
970.3551, 23.38183
970.8372, 23.17241
971.3193, 22.99368
971.8015, 22.86366
972.2836, 23.02155
972.7657, 23.49584
973.2478, 23.88462
973.7299, 23.81077
974.2120, 23.56881
974.6942, 23.41132
975.1763, 23.35777
975.6584, 23.18103
976.1405, 22.76182
976.6226, 22.45999
977.1047, 22.44758
977.5869, 22.60715
978.0690, 22.58755
978.5511, 22.44928
979.0332, 22.42696
979.5153, 22.72636
979.9974, 23.00149
980.4796, 22.99436
980.9617, 22.88397
981.4438, 22.95944
981.9259, 23.41126
982.4080, 23.40815
982.8901, 22.80232
983.3723, 22.15861
983.8544, 22.14531
984.3365, 22.46182
984.8186, 22.46899
985.3007, 22.12782
985.7828, 22.00382
986.2650, 22.68484
986.7471, 23.27678
987.2292, 23.35546
987.7113, 23.01713
988.1934, 22.76297
988.6755, 22.59726
989.1577, 22.39552
989.6398, 22.05615
990.1219, 21.75239
990.6040, 21.73641
991.0861, 21.89215
991.5682, 22.02088
992.0504, 21.90411
992.5325, 22.04095
993.0146, 22.67242
993.4967, 23.28846
993.9788, 23.30364
994.4609, 22.81408
994.9431, 22.74971
995.4252, 23.15633
995.9073, 23.45872
996.3894, 23.09171
996.8715, 22.58191
997.3536, 22.25352
997.8358, 22.14441
998.3179, 22.29731
998.8000, 22.91055
999.2821, 23.22761
999.7642, 22.91321
1000.246, 22.34964
1000.728, 22.41248
1001.211, 22.85399
1001.693, 23.00758
1002.175, 22.48247
1002.657, 22.05640
1003.139, 22.17039
1003.621, 22.46760
1004.103, 22.60513
1004.585, 22.52704
1005.068, 22.66442
1005.550, 23.04799
1006.032, 23.35547
1006.514, 23.26384
1006.996, 23.00866
1007.478, 22.86400
1007.960, 22.82608
1008.442, 22.80545
1008.924, 22.74762
1009.407, 22.75199
1009.889, 22.88424
1010.371, 23.04700
1010.853, 22.97832
1011.335, 22.72870
1011.817, 22.66928
1012.299, 22.93899
1012.781, 23.17744
1013.263, 23.13306
1013.746, 22.91589
1014.228, 22.55884
1014.710, 21.97627
1015.192, 21.84187
1015.674, 22.29318
1016.156, 22.74754
1016.638, 22.82019
1017.120, 22.66711
1017.603, 22.55398
1018.085, 22.50227
1018.567, 22.59246
1019.049, 23.17392
1019.531, 23.50946
1020.013, 23.14419
1020.495, 22.57394
1020.977, 22.60670
1021.459, 23.26285
1021.942, 23.58824
1022.424, 23.44036
1022.906, 23.13277
1023.388, 22.85263
1023.870, 22.62896
1024.352, 22.51064
1024.834, 22.51107
1025.316, 22.47888
1025.799, 22.34098
1026.281, 22.30779
1026.763, 22.52037
1027.245, 22.84634
1027.727, 22.92100
1028.209, 22.81233
1028.691, 22.73974
1029.173, 22.73225
1029.656, 22.86933
1030.138, 23.42234
1030.620, 23.98643
1031.102, 24.09730
1031.584, 23.63436
1032.066, 23.40731
1032.548, 23.44701
1033.030, 23.57050
1033.512, 23.70137
1033.995, 23.78072
1034.477, 23.70215
1034.959, 23.48915
1035.441, 23.30787
1035.923, 23.21648
1036.405, 23.12603
1036.887, 23.01163
1037.369, 22.89685
1037.851, 22.83646
1038.334, 22.81632
1038.816, 22.76746
1039.298, 22.66016
1039.780, 22.59046
1040.262, 22.67795
1040.744, 22.77966
1041.226, 22.76294
1041.708, 22.61576
1042.191, 22.58966
1042.673, 22.70729
1043.155, 22.74553
1043.637, 22.48290
1044.119, 22.15956
1044.601, 22.18798
1045.083, 22.40896
1045.565, 22.45747
1046.047, 21.90422
1046.530, 21.65750
1047.012, 21.89503
1047.494, 22.30519
1047.976, 22.58414
1048.458, 22.73888
1048.940, 22.75832
1049.422, 22.64621
1049.904, 22.52840
1050.386, 22.47559
1050.869, 22.44786
1051.351, 22.35000
1051.833, 22.24854
1052.315, 22.55198
1052.797, 23.37440
1053.279, 23.67745
1053.761, 23.05513
1054.243, 22.15801
1054.726, 21.66326
1055.208, 21.48131
1055.690, 21.52570
1056.172, 21.88397
1056.654, 22.13248
1057.136, 22.24263
1057.618, 22.23516
1058.100, 22.08071
1058.583, 21.82581
1059.065, 21.60224
1059.547, 21.43199
1060.029, 21.41702
1060.511, 21.89651
1060.993, 22.21297
1061.475, 21.96807
1061.957, 21.45644
1062.439, 21.04246
1062.922, 20.71872
1063.404, 20.59736
1063.886, 20.70692
1064.368, 20.83493
1064.850, 20.75794
1065.332, 20.62998
1065.814, 20.62837
1066.296, 20.75022
1066.778, 20.78134
1067.261, 20.61106
1067.743, 20.57606
1068.225, 20.82722
1068.707, 21.14750
1069.189, 21.08527
1069.671, 20.78032
1070.153, 20.55076
1070.635, 20.47567
1071.118, 20.47991
1071.600, 20.68304
1072.082, 20.80645
1072.564, 20.59654
1073.046, 20.11324
1073.528, 20.23959
1074.010, 20.92000
1074.492, 21.36059
1074.974, 20.88325
1075.457, 20.29920
1075.939, 20.26617
1076.421, 20.51417
1076.903, 20.54950
1077.385, 20.16017
1077.867, 20.20774
1078.349, 20.84711
1078.831, 21.41590
1079.313, 21.12236
1079.796, 20.46455
1080.278, 20.22726
1080.760, 20.38085
1081.242, 20.43972
1081.724, 20.01208
1082.206, 19.82504
1082.688, 20.14427
1083.170, 20.62926
1083.652, 20.57068
1084.135, 20.12593
1084.617, 19.90899
1085.099, 20.05828
1085.581, 20.25895
1086.063, 20.47659
1086.545, 20.53708
1087.027, 20.22224
1087.509, 19.60974
1087.992, 19.59624
1088.474, 20.19101
1088.956, 20.55771
1089.438, 20.18130
1089.920, 19.74655
1090.402, 20.01259
1090.884, 20.60047
1091.366, 21.00334
1091.849, 21.17337
1092.331, 21.07361
1092.813, 20.63967
1093.295, 20.15384
1093.777, 19.73089
1094.259, 19.44231
1094.741, 19.46545
1095.223, 19.74221
1095.705, 20.06727
1096.188, 20.58809
1096.670, 20.80797
1097.152, 20.51282
1097.634, 20.08053
1098.116, 20.04201
1098.598, 20.30247
1099.080, 20.41244
1099.562, 20.33223
1100.044, 20.21816
1100.527, 20.11734
1101.009, 20.05871
1101.491, 20.06903
1101.973, 20.13074
1102.455, 20.21862
1102.937, 20.33476
1103.419, 20.34914
1103.901, 20.21817
1104.384, 20.02489
1104.866, 19.83377
1105.348, 19.63336
1105.830, 19.34562
1106.312, 18.92244
1106.794, 18.96534
1107.276, 19.64475
1107.758, 20.09004
1108.240, 19.73635
1108.723, 19.13403
1109.205, 19.18895
1109.687, 19.64327
1110.169, 19.99719
1110.651, 20.03361
1111.133, 20.12180
1111.615, 20.35478
1112.097, 20.52877
1112.579, 20.45736
1113.062, 20.20240
1113.544, 19.96564
1114.026, 19.74412
1114.508, 19.52347
1114.990, 19.24708
1115.472, 19.03235
1115.954, 18.91710
1116.436, 18.88345
1116.919, 18.90363
1117.401, 18.98230
1117.883, 19.26107
1118.365, 19.75290
1118.847, 20.06799
1119.329, 19.73735
1119.811, 19.31422
1120.293, 19.17697
1120.776, 19.25338
1121.258, 19.29203
1121.740, 19.30155
1122.222, 19.14577
1122.704, 18.74494
1123.186, 18.39500
1123.668, 18.51187
1124.150, 18.76175
1124.632, 18.73860
1125.115, 18.35723
1125.597, 18.26428
1126.079, 18.55084
1126.561, 18.84440
1127.043, 19.00546
1127.525, 19.09855
1128.007, 19.23680
1128.489, 19.38310
1128.971, 19.48063
1129.454, 19.54397
1129.936, 19.45967
1130.418, 19.14546
1130.900, 18.83679
1131.382, 18.67758
1131.864, 18.62968
1132.346, 18.60853
1132.828, 18.59592
1133.311, 18.53189
1133.793, 18.20461
1134.275, 18.08253
1134.757, 18.40463
1135.239, 18.81420
1135.721, 18.96173
1136.203, 18.88133
1136.685, 18.90670
1137.167, 19.03014
1137.650, 19.07005
1138.132, 18.79103
1138.614, 18.54016
1139.096, 18.58822
1139.578, 18.72460
1140.060, 18.53441
1140.542, 18.00297
1141.024, 17.87983
1141.506, 18.26124
1141.989, 18.70522
1142.471, 18.93050
1142.953, 19.02349
1143.435, 18.97693
1143.917, 18.84681
1144.399, 18.91264
1144.881, 19.23116
1145.363, 19.33901
1145.846, 19.10571
1146.328, 18.75651
1146.810, 18.40049
1147.292, 18.15208
1147.774, 18.20152
1148.256, 18.60119
1148.738, 18.75528
1149.220, 18.56948
1149.703, 18.45545
1150.185, 18.58913
1150.667, 18.79998
1151.149, 18.94917
1151.631, 18.95929
1152.113, 18.62924
1152.595, 17.69084
1153.077, 17.29312
1153.559, 17.71119
1154.042, 18.16121
1154.524, 18.20378
1155.006, 18.02726
1155.488, 18.06858
1155.970, 18.23144
1156.452, 18.27180
1156.934, 17.94058
1157.416, 17.81157
1157.898, 18.04298
1158.381, 18.32547
1158.863, 18.39164
1159.345, 18.31784
1159.827, 18.44063
1160.309, 18.70990
1160.791, 18.92085
1161.273, 18.98161
1161.755, 18.95740
1162.238, 18.76282
1162.720, 18.60602
1163.202, 18.80910
1163.684, 19.27988
1164.166, 19.36763
1164.648, 19.08375
1165.130, 18.81498
1165.612, 18.83972
1166.094, 18.85820
1166.577, 18.70611
1167.059, 18.49759
1167.541, 18.39792
1168.023, 18.40513
1168.505, 18.54772
1168.987, 18.83038
1169.469, 19.03132
1169.951, 18.93301
1170.433, 18.76782
1170.916, 18.61985
1171.398, 18.52552
1171.880, 18.64251
1172.362, 18.96605
1172.844, 19.05375
1173.326, 18.80199
1173.808, 18.46776
1174.290, 18.07594
1174.773, 17.84662
1175.255, 18.13192
1175.737, 18.77537
1176.219, 18.88165
1176.701, 18.41586
1177.183, 18.19854
1177.665, 18.51718
1178.147, 18.91210
1178.630, 18.90596
1179.112, 18.78617
1179.594, 18.87269
1180.076, 19.17951
1180.558, 19.30135
1181.040, 19.23215
1181.522, 19.02463
1182.004, 18.62764
1182.486, 18.25574
1182.969, 18.15157
1183.451, 18.20034
1183.933, 18.29418
1184.415, 18.44828
1184.897, 18.42556
1185.379, 18.19123
1185.861, 18.00179
1186.343, 18.03122
1186.825, 18.11509
1187.308, 17.96181
1187.790, 17.76738
1188.272, 17.88162
1188.754, 18.54814
1189.236, 18.88649
1189.718, 18.84221
1190.200, 18.73896
1190.682, 18.85722
1191.165, 18.63332
1191.647, 18.73399
1192.129, 18.29056
1192.611, 17.95208
1193.093, 17.79047
1193.575, 17.70563
1194.057, 17.70109
1194.539, 17.75409
1195.021, 17.85134
1195.504, 17.99190
1195.986, 18.21177
1196.468, 18.47375
1196.950, 18.66718
1197.432, 18.77932
1197.914, 18.81514
1198.396, 18.77083
1198.878, 18.66327
1199.360, 18.43393
1199.843, 18.19908
1200.325, 18.12914
1200.807, 18.20899
1201.289, 18.37582
1201.771, 18.80556
1202.253, 18.83265
1202.735, 18.25609
1203.217, 17.68000
1203.700, 17.93862
1204.182, 18.52580
1204.664, 18.68714
1205.146, 18.44177
1205.628, 18.27719
1206.110, 18.29672
1206.592, 18.34577
1207.074, 18.41766
1207.557, 18.45982
1208.039, 18.34609
1208.521, 18.19403
1209.003, 18.26050
1209.485, 18.53431
1209.967, 18.45714
1210.449, 17.68615
1210.931, 17.27438
1211.413, 17.52111
1211.896, 17.98255
1212.378, 18.07382
1212.860, 17.98785
1213.342, 18.00922
1213.824, 18.17083
1214.306, 18.28295
1214.788, 18.35194
1215.270, 18.28334
1215.752, 17.98226
1216.235, 17.71250
1216.717, 17.95770
1217.199, 18.42605
1217.681, 18.71875
1218.163, 18.77645
1218.645, 18.63184
1219.127, 18.14831
1219.609, 17.93702
1220.092, 18.27284
1220.574, 18.78284
1221.056, 19.01619
1221.538, 19.01295
1222.020, 18.74670
1222.502, 18.15367
1222.984, 17.90998
1223.466, 18.17517
1223.948, 18.30071
1224.431, 17.93818
1224.913, 17.55110
1225.395, 18.04062
1225.877, 18.82696
1226.359, 19.04502
1226.841, 18.37409
1227.323, 18.09686
1227.805, 18.32882
1228.287, 18.50145
1228.770, 18.30282
1229.252, 18.06674
1229.734, 18.43588
1230.216, 18.96372
1230.698, 18.97522
1231.180, 18.21698
1231.662, 17.78118
1232.144, 17.69724
1232.627, 17.76060
1233.109, 17.93461
1233.591, 18.11599
1234.073, 18.12762
1234.555, 18.09892
1235.037, 18.26919
1235.519, 18.19825
1236.001, 18.02527
1236.484, 18.16793
1236.966, 17.67278
1237.448, 17.62123
1237.930, 17.73108
1238.412, 17.68984
1238.894, 17.64909
1239.376, 17.88491
1239.858, 18.49240
1240.340, 18.62298
1240.823, 18.25133
1241.305, 17.92207
1241.787, 17.95473
1242.269, 18.10311
1242.751, 18.17530
1243.233, 18.23447
1243.715, 18.37937
1244.197, 18.63307
1244.679, 18.73749
1245.162, 18.69448
1245.644, 18.54974
1246.126, 18.17819
1246.608, 17.91146
1247.090, 18.12425
1247.572, 18.46078
1248.054, 18.48113
1248.536, 18.16830
1249.019, 18.06095
1249.501, 18.14793
1249.983, 18.31051
1250.465, 18.63787
1250.947, 18.82916
1251.429, 18.56087
1251.911, 18.21269
1252.393, 18.15743
1252.875, 18.37521
1253.358, 18.49430
1253.840, 18.52419
1254.322, 18.53517
1254.804, 18.55931
1255.286, 18.57620
1255.768, 18.60007
1256.250, 18.59127
1256.732, 18.46535
1257.214, 18.26601
1257.697, 18.28078
1258.179, 18.47882
1258.661, 18.70991
1259.143, 19.17432
1259.625, 19.23668
1260.107, 18.53819
1260.589, 17.83410
1261.071, 17.86835
1261.554, 18.38625
1262.036, 18.61144
1262.518, 18.59629
1263.000, 18.55165
1263.482, 18.53636
1263.964, 18.51296
1264.446, 18.44391
1264.928, 18.44244
1265.411, 18.67890
1265.893, 19.00651
1266.375, 19.08060
1266.857, 19.01203
1267.339, 19.11263
1267.821, 19.73968
1268.303, 20.00325
1268.785, 19.82348
1269.267, 19.51651
1269.750, 19.31472
1270.232, 19.14676
1270.714, 18.86685
1271.196, 18.55426
1271.678, 18.40924
1272.160, 18.47490
1272.642, 18.60071
1273.124, 18.78856
1273.606, 18.98589
1274.089, 19.31189
1274.571, 19.47927
1275.053, 18.95078
1275.535, 18.19807
1276.017, 18.09363
1276.499, 18.79789
1276.981, 19.16867
1277.463, 19.18514
1277.946, 19.00023
1278.428, 18.41207
1278.910, 17.99017
1279.392, 18.34568
1279.874, 18.89803
1280.356, 18.90636
1280.838, 18.38952
1281.320, 18.23346
1281.802, 18.41357
1282.285, 18.58916
1282.767, 18.54467
1283.249, 18.50286
1283.731, 18.56190
1284.213, 18.63630
1284.695, 18.64695
1285.177, 18.60807
1285.659, 18.53395
1286.141, 18.46337
1286.624, 18.55248
1287.106, 19.15842
1287.588, 19.47449
1288.070, 19.33219
1288.552, 19.04832
1289.034, 18.79001
1289.516, 18.62190
1289.998, 18.80933
1290.481, 19.19927
1290.963, 19.39630
1291.445, 19.02285
1291.927, 18.97529
1292.409, 19.35780
1292.891, 19.66844
1293.373, 19.45108
1293.855, 19.03597
1294.338, 18.80249
1294.820, 18.69127
1295.302, 18.57823
1295.784, 18.64471
1296.266, 18.49483
1296.748, 18.94675
1297.230, 19.40509
1297.712, 19.67794
1298.194, 19.87004
1298.677, 20.10040
1299.159, 20.25976
1299.641, 20.17963
1300.123, 19.84780
1300.605, 19.87587
1301.087, 20.20629
1301.569, 20.31049
1302.051, 19.71040
1302.533, 19.16432
1303.016, 18.91957
##END=



