##NAMES=Galkhaite
##RRUFFID=R070394
##IDEAL CHEMISTRY=(Hg^2+^_5_Cu^1+^)Cs^1+^As^3+^_4_S^2-^_12_
##LOCALITY=Getchell Mine, Adam Peak, Potosi District, Humboldt County, Nevada, USA
##OWNER=RRUFF
##SOURCE=Michael Scott
##DESCRIPTION=Dark red cubes associated with quartz
##STATUS=The identification of this mineral has been confirmed by X-ray diffraction.
##URL=rruff.info/R070394
153.7797, 1767.518
154.2619, 1797.990
154.7440, 1826.790
155.2261, 1854.010
155.7082, 1877.292
156.1903, 1892.419
156.6724, 1904.739
157.1546, 1920.159
157.6367, 1945.750
158.1188, 1969.649
158.6009, 1986.761
159.0830, 1993.926
159.5652, 2002.514
160.0473, 2018.173
160.5294, 2037.146
161.0115, 2051.904
161.4936, 2057.835
161.9757, 2060.676
162.4579, 2062.332
162.9400, 2057.447
163.4221, 2060.993
163.9042, 2085.919
164.3863, 2125.924
164.8684, 2160.044
165.3506, 2174.550
165.8327, 2181.089
166.3148, 2188.954
166.7969, 2201.582
167.2790, 2215.313
167.7611, 2228.455
168.2433, 2241.089
168.7254, 2253.386
169.2075, 2263.646
169.6896, 2274.140
170.1717, 2287.494
170.6538, 2307.421
171.1360, 2328.790
171.6181, 2348.116
172.1002, 2365.405
172.5823, 2380.705
173.0644, 2391.947
173.5465, 2401.431
174.0287, 2413.506
174.5108, 2429.725
174.9929, 2449.670
175.4750, 2475.027
175.9571, 2507.068
176.4392, 2537.794
176.9214, 2556.305
177.4035, 2566.484
177.8856, 2579.420
178.3677, 2605.495
178.8498, 2636.989
179.3319, 2662.340
179.8141, 2679.844
180.2962, 2691.850
180.7783, 2698.082
181.2604, 2699.858
181.7425, 2704.736
182.2246, 2719.232
182.7068, 2740.411
183.1889, 2761.777
183.6710, 2781.611
184.1531, 2801.625
184.6352, 2824.810
185.1173, 2851.189
185.5995, 2877.445
186.0816, 2901.041
186.5637, 2922.312
187.0458, 2943.165
187.5279, 2964.420
188.0100, 2985.121
188.4922, 2999.910
188.9743, 3008.294
189.4564, 3020.038
189.9385, 3048.303
190.4206, 3090.746
190.9027, 3129.140
191.3849, 3157.384
191.8670, 3177.587
192.3491, 3198.245
192.8312, 3219.889
193.3133, 3240.326
193.7955, 3254.956
194.2776, 3263.973
194.7597, 3276.987
195.2418, 3299.306
195.7239, 3329.521
196.2060, 3357.778
196.6882, 3384.075
197.1703, 3407.949
197.6524, 3427.886
198.1345, 3443.378
198.6166, 3458.872
199.0987, 3475.992
199.5809, 3494.741
200.0630, 3514.759
200.5451, 3536.860
201.0272, 3558.855
201.5093, 3578.317
201.9914, 3595.896
202.4736, 3607.066
202.9557, 3607.813
203.4378, 3597.189
203.9199, 3586.550
204.4020, 3574.578
204.8841, 3564.501
205.3663, 3566.772
205.8484, 3585.121
206.3305, 3603.161
206.8126, 3610.531
207.2947, 3605.413
207.7768, 3601.622
208.2590, 3602.789
208.7411, 3605.258
209.2232, 3594.454
209.7053, 3565.946
210.1874, 3534.509
210.6695, 3509.244
211.1517, 3490.903
211.6338, 3475.743
212.1159, 3464.084
212.5980, 3455.328
213.0801, 3446.880
213.5622, 3440.866
214.0444, 3431.271
214.5265, 3412.595
215.0086, 3382.174
215.4907, 3350.476
215.9728, 3317.772
216.4549, 3284.448
216.9371, 3255.564
217.4192, 3231.634
217.9013, 3211.769
218.3834, 3197.110
218.8655, 3191.792
219.3476, 3180.334
219.8298, 3157.112
220.3119, 3122.167
220.7940, 3094.251
221.2761, 3075.577
221.7582, 3061.390
222.2403, 3046.751
222.7225, 3032.935
223.2046, 3015.936
223.6867, 2991.527
224.1688, 2957.427
224.6509, 2941.963
225.1330, 2955.589
225.6152, 2977.889
226.0973, 2981.241
226.5794, 2956.727
227.0615, 2931.506
227.5436, 2912.488
228.0257, 2900.000
228.5079, 2890.936
228.9900, 2885.627
229.4721, 2883.414
229.9542, 2884.665
230.4363, 2895.124
230.9185, 2898.406
231.4006, 2886.633
231.8827, 2853.591
232.3648, 2832.322
232.8469, 2826.696
233.3290, 2830.411
233.8112, 2833.067
234.2933, 2835.309
234.7754, 2835.372
235.2575, 2831.882
235.7396, 2822.641
236.2217, 2817.208
236.7039, 2817.565
237.1860, 2820.784
237.6681, 2820.128
238.1502, 2810.075
238.6323, 2787.140
239.1144, 2820.787
239.5966, 2844.434
240.0787, 2858.611
240.5608, 2834.971
241.0429, 2860.164
241.5250, 2865.787
242.0071, 2870.608
242.4893, 2902.677
242.9714, 2884.538
243.4535, 2916.173
243.9356, 2927.938
244.4177, 2948.798
244.8998, 2949.966
245.3820, 2957.218
245.8641, 2984.166
246.3462, 3000.207
246.8283, 2999.108
247.3104, 3020.546
247.7925, 3001.719
248.2747, 3026.092
248.7568, 3039.768
249.2389, 3054.081
249.7210, 3067.653
250.2031, 3083.951
250.6852, 3105.107
251.1674, 3132.897
251.6495, 3160.941
252.1316, 3188.907
252.6137, 3216.877
253.0958, 3243.984
253.5779, 3267.042
254.0601, 3294.328
254.5422, 3331.151
255.0243, 3382.344
255.5064, 3429.994
255.9885, 3472.568
256.4706, 3511.065
256.9528, 3548.868
257.4349, 3581.664
257.9170, 3621.052
258.3991, 3676.561
258.8812, 3757.511
259.3633, 3826.684
259.8455, 3877.574
260.3276, 3916.739
260.8097, 3966.271
261.2918, 4030.170
261.7739, 4097.871
262.2560, 4164.245
262.7382, 4229.286
263.2203, 4294.437
263.7024, 4361.940
264.1845, 4429.647
264.6666, 4490.909
265.1487, 4540.484
265.6309, 4593.386
266.1130, 4660.063
266.5951, 4747.495
267.0772, 4825.290
267.5593, 4886.220
268.0414, 4938.502
268.5236, 5009.735
269.0057, 5107.332
269.4878, 5207.447
269.9699, 5296.313
270.4520, 5370.685
270.9341, 5447.068
271.4163, 5529.010
271.8984, 5612.750
272.3805, 5682.597
272.8626, 5732.326
273.3447, 5788.632
273.8268, 5873.800
274.3090, 5993.722
274.7911, 6098.984
275.2732, 6180.806
275.7553, 6246.572
276.2374, 6316.375
276.7195, 6393.466
277.2017, 6464.519
277.6838, 6521.445
278.1659, 6563.766
278.6480, 6597.944
279.1301, 6624.786
279.6122, 6643.482
280.0944, 6651.120
280.5765, 6646.267
281.0586, 6638.077
281.5407, 6639.890
282.0229, 6652.017
282.5050, 6630.880
282.9871, 6566.759
283.4692, 6474.888
283.9513, 6385.834
284.4334, 6300.368
284.9156, 6208.728
285.3977, 6100.074
285.8798, 5976.226
286.3619, 5862.619
286.8440, 5763.089
287.3261, 5671.641
287.8083, 5575.521
288.2904, 5474.694
288.7725, 5373.055
289.2546, 5271.620
289.7367, 5171.474
290.2188, 5072.311
290.7010, 4972.609
291.1831, 4877.076
291.6652, 4797.327
292.1473, 4731.807
292.6294, 4668.813
293.1115, 4601.640
293.5937, 4531.176
294.0758, 4459.506
294.5579, 4385.515
295.0400, 4313.406
295.5221, 4249.383
296.0042, 4192.176
296.4864, 4137.974
296.9685, 4083.217
297.4506, 4029.400
297.9327, 3981.347
298.4148, 3939.542
298.8969, 3901.142
299.3791, 3864.688
299.8612, 3829.665
300.3433, 3795.278
300.8254, 3760.814
301.3075, 3726.960
301.7896, 3695.175
302.2718, 3665.083
302.7539, 3638.124
303.2360, 3617.943
303.7181, 3602.205
304.2002, 3584.880
304.6823, 3562.074
305.1645, 3536.739
305.6466, 3510.721
306.1287, 3483.351
306.6108, 3461.785
307.0929, 3457.249
307.5750, 3462.135
308.0572, 3462.257
308.5393, 3445.031
309.0214, 3424.407
309.5035, 3411.783
309.9856, 3407.742
310.4677, 3408.739
310.9499, 3413.894
311.4320, 3422.306
311.9141, 3432.748
312.3962, 3449.918
312.8783, 3465.140
313.3604, 3470.674
313.8426, 3466.839
314.3247, 3464.477
314.8068, 3468.065
315.2889, 3476.603
315.7710, 3489.000
316.2531, 3505.350
316.7353, 3525.255
317.2174, 3553.844
317.6995, 3589.350
318.1816, 3614.324
318.6637, 3607.357
319.1458, 3594.432
319.6280, 3596.416
320.1101, 3636.990
320.5922, 3674.428
321.0743, 3694.027
321.5564, 3698.887
322.0385, 3706.519
322.5207, 3721.129
323.0028, 3740.180
323.4849, 3762.058
323.9670, 3794.300
324.4491, 3820.239
324.9312, 3833.250
325.4134, 3836.959
325.8955, 3845.013
326.3776, 3858.747
326.8597, 3877.391
327.3418, 3901.064
327.8239, 3937.198
328.3061, 3967.480
328.7882, 3986.419
329.2703, 3999.190
329.7524, 4019.381
330.2345, 4059.050
330.7166, 4094.308
331.1988, 4115.327
331.6809, 4112.317
332.1630, 4116.485
332.6451, 4127.883
333.1272, 4146.548
333.6093, 4172.682
334.0915, 4209.508
334.5736, 4249.136
335.0557, 4290.799
335.5378, 4336.429
336.0199, 4372.100
336.5020, 4390.724
336.9842, 4406.518
337.4663, 4442.684
337.9484, 4509.363
338.4305, 4568.607
338.9126, 4605.593
339.3947, 4619.931
339.8769, 4653.119
340.3590, 4709.880
340.8411, 4776.428
341.3232, 4841.699
341.8053, 4906.180
342.2874, 4960.816
342.7696, 4999.668
343.2517, 5026.658
343.7338, 5059.448
344.2159, 5099.145
344.6980, 5141.017
345.1801, 5186.882
345.6623, 5235.105
346.1444, 5266.379
346.6265, 5273.047
347.1086, 5263.101
347.5907, 5253.923
348.0728, 5245.656
348.5550, 5235.272
349.0371, 5232.108
349.5192, 5226.861
350.0013, 5183.760
350.4834, 5086.602
350.9655, 4969.395
351.4477, 4882.581
351.9298, 4820.365
352.4119, 4760.127
352.8940, 4688.380
353.3762, 4609.151
353.8583, 4529.259
354.3404, 4448.812
354.8225, 4370.479
355.3046, 4299.804
355.7867, 4233.487
356.2689, 4163.604
356.7510, 4079.096
357.2331, 3993.314
357.7152, 3917.263
358.1973, 3851.701
358.6794, 3796.630
359.1616, 3757.528
359.6437, 3727.703
360.1258, 3697.790
360.6079, 3662.372
361.0900, 3627.398
361.5721, 3596.926
362.0543, 3570.981
362.5364, 3544.168
363.0185, 3502.590
363.5006, 3464.445
363.9827, 3446.445
364.4648, 3472.515
364.9470, 3498.493
365.4291, 3510.838
365.9112, 3511.433
366.3933, 3515.444
366.8754, 3526.851
367.3575, 3541.777
367.8397, 3557.891
368.3218, 3573.744
368.8039, 3592.424
369.2860, 3612.788
369.7681, 3635.882
370.2502, 3665.628
370.7324, 3711.366
371.2145, 3754.510
371.6966, 3786.050
372.1787, 3795.983
372.6608, 3819.063
373.1429, 3858.452
373.6251, 3909.226
374.1072, 3966.503
374.5893, 4038.970
375.0714, 4100.052
375.5535, 4134.713
376.0356, 4139.544
376.5178, 4171.884
376.9999, 4242.220
377.4820, 4321.673
377.9641, 4374.251
378.4462, 4396.439
378.9283, 4416.835
379.4105, 4440.993
379.8926, 4468.958
380.3747, 4503.248
380.8568, 4545.645
381.3389, 4585.095
381.8210, 4612.386
382.3032, 4628.163
382.7853, 4639.271
383.2674, 4645.821
383.7495, 4649.725
384.2316, 4657.394
384.7137, 4667.815
385.1959, 4669.936
385.6780, 4653.264
386.1601, 4623.563
386.6422, 4594.608
387.1243, 4569.292
387.6064, 4538.836
388.0886, 4496.131
388.5707, 4440.654
389.0528, 4372.106
389.5349, 4283.203
390.0170, 4185.580
390.4991, 4090.060
390.9813, 3998.139
391.4634, 3901.641
391.9455, 3789.311
392.4276, 3670.988
392.9097, 3559.175
393.3918, 3467.744
393.8740, 3375.808
394.3561, 3266.489
394.8382, 3143.035
395.3203, 3031.921
395.8024, 2944.906
396.2845, 2873.520
396.7667, 2812.698
397.2488, 2772.306
397.7309, 2728.872
398.2130, 2675.571
398.6951, 2615.970
399.1772, 2561.103
399.6594, 2509.994
400.1415, 2466.393
400.6236, 2431.902
401.1057, 2408.541
401.5878, 2389.812
402.0699, 2378.380
402.5521, 2370.280
403.0342, 2360.293
403.5163, 2350.564
403.9984, 2334.680
404.4805, 2307.753
404.9626, 2269.669
405.4448, 2240.882
405.9269, 2220.471
406.4090, 2211.054
406.8911, 2221.643
407.3732, 2257.674
407.8553, 2275.905
408.3375, 2264.508
408.8196, 2232.537
409.3017, 2206.320
409.7838, 2186.019
410.2659, 2169.607
410.7480, 2154.701
411.2302, 2142.168
411.7123, 2138.745
412.1944, 2147.671
412.6765, 2158.735
413.1586, 2155.080
413.6407, 2140.182
414.1229, 2129.417
414.6050, 2137.120
415.0871, 2151.136
415.5692, 2150.600
416.0513, 2134.094
416.5334, 2118.089
417.0156, 2116.045
417.4977, 2122.683
417.9798, 2130.156
418.4619, 2143.457
418.9440, 2149.989
419.4261, 2134.475
419.9083, 2101.708
420.3904, 2078.267
420.8725, 2087.375
421.3546, 2103.463
421.8367, 2107.732
422.3188, 2088.702
422.8010, 2071.719
423.2831, 2062.681
423.7652, 2059.979
424.2473, 2059.742
424.7295, 2066.784
425.2116, 2071.286
425.6937, 2067.657
426.1758, 2050.914
426.6579, 2045.966
427.1400, 2064.016
427.6222, 2086.346
428.1043, 2093.234
428.5864, 2075.899
429.0685, 2060.663
429.5506, 2052.016
430.0327, 2049.412
430.5149, 2049.496
430.9970, 2053.653
431.4791, 2057.167
431.9612, 2055.582
432.4433, 2048.389
432.9254, 2045.284
433.4076, 2048.570
433.8897, 2054.051
434.3718, 2053.438
434.8539, 2046.887
435.3360, 2039.818
435.8181, 2035.464
436.3003, 2032.691
436.7824, 2027.545
437.2645, 2019.685
437.7466, 2012.832
438.2287, 2009.105
438.7108, 2009.150
439.1930, 2015.112
439.6751, 2035.454
440.1572, 2054.311
440.6393, 2052.739
441.1214, 2034.364
441.6035, 2017.104
442.0857, 2011.116
442.5678, 2010.820
443.0499, 2012.063
443.5320, 2015.276
444.0141, 2016.983
444.4962, 2014.627
444.9784, 2010.049
445.4605, 2006.333
445.9426, 2004.202
446.4247, 2003.121
446.9068, 2003.659
447.3889, 2006.330
447.8711, 2006.664
448.3532, 2004.321
448.8353, 1999.622
449.3174, 1992.520
449.7995, 1980.759
450.2816, 1970.211
450.7638, 1960.821
451.2459, 1953.083
451.7280, 1950.131
452.2101, 1954.368
452.6922, 1957.672
453.1743, 1953.096
453.6565, 1938.739
454.1386, 1939.437
454.6207, 1960.843
455.1028, 1985.383
455.5849, 1983.597
456.0670, 1957.330
456.5492, 1938.765
457.0313, 1944.408
457.5134, 1963.116
457.9955, 1967.625
458.4776, 1958.370
458.9597, 1946.082
459.4419, 1936.488
459.9240, 1930.246
460.4061, 1929.454
460.8882, 1936.925
461.3703, 1944.320
461.8524, 1942.867
462.3346, 1935.691
462.8167, 1930.051
463.2988, 1933.806
463.7809, 1936.902
464.2630, 1929.297
464.7451, 1908.537
465.2273, 1898.026
465.7094, 1920.220
466.1915, 1949.381
466.6736, 1962.589
467.1557, 1936.687
467.6378, 1915.834
468.1200, 1908.160
468.6021, 1911.216
469.0842, 1914.473
469.5663, 1918.624
470.0484, 1922.133
470.5305, 1923.630
471.0127, 1920.965
471.4948, 1924.606
471.9769, 1938.318
472.4590, 1953.682
472.9411, 1958.280
473.4232, 1950.668
473.9054, 1941.574
474.3875, 1933.733
474.8696, 1926.754
475.3517, 1918.523
475.8338, 1908.835
476.3159, 1900.976
476.7981, 1896.844
477.2802, 1896.531
477.7623, 1901.668
478.2444, 1914.234
478.7265, 1926.826
479.2086, 1930.919
479.6908, 1928.214
480.1729, 1922.872
480.6550, 1911.492
481.1371, 1901.991
481.6192, 1902.987
482.1013, 1914.328
482.5835, 1925.292
483.0656, 1933.193
483.5477, 1936.821
484.0298, 1934.801
484.5119, 1920.516
484.9940, 1909.024
485.4762, 1904.591
485.9583, 1905.271
486.4404, 1906.051
486.9225, 1909.777
487.4046, 1910.118
487.8867, 1902.286
488.3689, 1882.513
488.8510, 1878.720
489.3331, 1899.944
489.8152, 1926.209
490.2973, 1937.325
490.7794, 1929.750
491.2616, 1921.233
491.7437, 1912.987
492.2258, 1906.743
492.7079, 1909.813
493.1900, 1922.729
493.6722, 1933.882
494.1543, 1935.091
494.6364, 1928.947
495.1185, 1923.015
495.6006, 1917.421
496.0828, 1914.635
496.5649, 1921.214
497.0470, 1932.286
497.5291, 1937.396
498.0112, 1928.344
498.4933, 1916.820
498.9755, 1914.387
499.4576, 1918.406
499.9397, 1902.349
500.4218, 1924.913
500.9039, 1937.475
501.3860, 1940.570
501.8682, 1905.847
502.3503, 1919.958
502.8324, 1914.499
503.3145, 1908.237
503.7966, 1929.222
504.2787, 1900.000
504.7609, 1920.552
505.2430, 1921.235
505.7251, 1931.012
506.2072, 1921.098
506.6893, 1917.265
507.1714, 1933.131
507.6536, 1938.089
508.1357, 1925.908
508.6178, 1936.263
509.0999, 1906.353
509.5820, 1911.776
510.0641, 1932.444
510.5463, 1920.331
511.0284, 1923.171
511.5105, 1911.905
511.9926, 1896.042
512.4747, 1896.219
512.9568, 1910.653
513.4390, 1924.387
513.9211, 1924.655
514.4032, 1919.314
514.8853, 1918.439
515.3674, 1924.451
515.8495, 1930.821
516.3317, 1934.019
516.8138, 1935.022
517.2959, 1935.180
517.7780, 1937.272
518.2601, 1936.217
518.7422, 1925.482
519.2244, 1906.985
519.7065, 1900.003
520.1886, 1915.478
520.6707, 1935.420
521.1528, 1953.571
521.6349, 1974.359
522.1171, 1980.773
522.5992, 1966.525
523.0813, 1944.153
523.5634, 1930.031
524.0455, 1925.267
524.5276, 1922.571
525.0098, 1918.848
525.4919, 1916.419
525.9740, 1927.809
526.4561, 1953.632
526.9382, 1972.529
527.4203, 1960.418
527.9025, 1931.851
528.3846, 1924.968
528.8667, 1946.326
529.3488, 1969.555
529.8309, 1966.602
530.3130, 1949.289
530.7952, 1936.727
531.2773, 1938.717
531.7594, 1945.345
532.2415, 1954.444
532.7236, 1964.705
533.2057, 1970.135
533.6879, 1965.962
534.1700, 1958.869
534.6521, 1951.921
535.1342, 1945.393
535.6163, 1938.909
536.0984, 1931.130
536.5806, 1924.338
537.0627, 1921.139
537.5448, 1922.479
538.0269, 1924.934
538.5090, 1927.288
538.9911, 1930.677
539.4733, 1940.472
539.9554, 1957.991
540.4375, 1972.886
540.9196, 1978.048
541.4017, 1975.506
541.8839, 1974.425
542.3660, 1975.113
542.8481, 1975.924
543.3302, 1976.241
543.8123, 1975.423
544.2944, 1971.379
544.7766, 1959.495
545.2587, 1950.779
545.7408, 1957.828
546.2229, 1975.079
546.7050, 1988.920
547.1871, 1994.520
547.6693, 1994.802
548.1514, 1989.348
548.6335, 1977.478
549.1156, 1967.745
549.5977, 1958.709
550.0798, 1954.159
550.5620, 1957.377
551.0441, 1975.471
551.5262, 1987.291
552.0083, 1990.736
552.4904, 1988.397
552.9725, 1984.889
553.4547, 1980.109
553.9368, 1974.447
554.4189, 1966.498
554.9010, 1958.026
555.3831, 1957.608
555.8652, 1965.386
556.3474, 1973.930
556.8295, 1976.074
557.3116, 1975.013
557.7937, 1978.500
558.2758, 1989.106
558.7579, 1997.771
559.2401, 1996.412
559.7222, 1988.089
560.2043, 1977.493
560.6864, 1956.429
561.1685, 1943.066
561.6506, 1951.690
562.1328, 1977.496
562.6149, 1994.730
563.0970, 1989.337
563.5791, 1982.517
564.0612, 1984.256
564.5433, 1999.014
565.0255, 2004.584
565.5076, 1996.146
565.9897, 1984.182
566.4718, 1980.096
566.9539, 1985.591
567.4360, 1988.324
567.9182, 1985.886
568.4003, 1980.142
568.8824, 1972.179
569.3645, 1962.725
569.8466, 1959.948
570.3287, 1978.183
570.8109, 2002.199
571.2930, 2002.309
571.7751, 1979.154
572.2572, 1955.670
572.7393, 1946.233
573.2214, 1945.216
573.7036, 1947.045
574.1857, 1950.869
574.6678, 1956.705
575.1499, 1970.258
575.6320, 1984.292
576.1141, 1988.338
576.5963, 1969.669
577.0784, 1953.243
577.5605, 1943.836
578.0426, 1940.632
578.5247, 1937.529
579.0068, 1933.403
579.4890, 1931.740
579.9711, 1935.776
580.4532, 1946.028
580.9353, 1951.853
581.4174, 1952.863
581.8995, 1951.027
582.3817, 1946.528
582.8638, 1940.636
583.3459, 1938.744
583.8280, 1944.193
584.3101, 1950.158
584.7922, 1947.900
585.2744, 1939.868
585.7565, 1932.316
586.2386, 1927.949
586.7207, 1925.178
587.2028, 1922.944
587.6849, 1921.245
588.1671, 1921.213
588.6492, 1923.665
589.1313, 1927.544
589.6134, 1932.966
590.0955, 1944.714
590.5776, 1946.837
591.0598, 1933.438
591.5419, 1915.707
592.0240, 1908.753
592.5061, 1914.369
592.9882, 1922.173
593.4703, 1930.775
593.9525, 1939.245
594.4346, 1946.380
594.9167, 1951.934
595.3988, 1952.438
595.8809, 1941.459
596.3630, 1925.814
596.8452, 1915.826
597.3273, 1912.049
597.8094, 1912.946
598.2915, 1921.978
598.7736, 1932.945
599.2557, 1939.848
599.7379, 1940.380
600.2200, 1938.705
600.7021, 1933.954
601.1843, 1928.209
601.6664, 1924.831
602.1485, 1925.608
602.6306, 1926.271
603.1127, 1924.980
603.5948, 1922.877
604.0770, 1927.493
604.5591, 1941.864
605.0412, 1952.790
605.5233, 1948.557
606.0054, 1932.059
606.4875, 1933.113
606.9697, 1953.510
607.4518, 1973.455
607.9339, 1971.282
608.4160, 1955.046
608.8981, 1941.560
609.3802, 1935.265
609.8624, 1929.350
610.3445, 1914.488
610.8266, 1897.210
611.3087, 1888.170
611.7908, 1896.308
612.2729, 1908.162
612.7551, 1922.906
613.2372, 1938.963
613.7193, 1945.798
614.2014, 1937.295
614.6835, 1926.766
615.1656, 1918.731
615.6478, 1913.083
616.1299, 1911.774
616.6120, 1916.135
617.0941, 1921.413
617.5762, 1922.234
618.0583, 1919.371
618.5405, 1919.788
619.0226, 1925.373
619.5047, 1931.915
619.9868, 1934.190
620.4689, 1933.286
620.9510, 1931.947
621.4332, 1929.395
621.9153, 1928.493
622.3974, 1931.762
622.8795, 1938.476
623.3616, 1945.621
623.8438, 1958.367
624.3259, 1965.972
624.8080, 1960.060
625.2901, 1936.829
625.7722, 1924.663
626.2543, 1927.108
626.7365, 1936.211
627.2186, 1948.699
627.7007, 1966.757
628.1828, 1972.376
628.6649, 1961.215
629.1470, 1944.685
629.6292, 1937.941
630.1113, 1940.180
630.5934, 1947.831
631.0755, 1962.781
631.5576, 1978.950
632.0397, 1989.610
632.5219, 1995.279
633.0040, 1997.365
633.4861, 1993.548
633.9682, 1988.852
634.4503, 1986.865
634.9324, 1987.878
635.4146, 1986.499
635.8967, 1977.172
636.3788, 1968.812
636.8609, 1966.173
637.3430, 1970.662
637.8251, 1977.681
638.3073, 1989.027
638.7894, 2000.057
639.2715, 2004.927
639.7536, 2003.562
640.2357, 1999.502
640.7178, 1992.543
641.2000, 1984.870
641.6821, 1979.720
642.1642, 1976.721
642.6463, 1974.624
643.1284, 1972.996
643.6105, 1971.844
644.0927, 1971.215
644.5748, 1971.086
645.0569, 1971.306
645.5390, 1975.085
646.0211, 1976.550
646.5032, 1970.568
646.9854, 1952.118
647.4675, 1944.856
647.9496, 1955.391
648.4317, 1969.614
648.9138, 1975.999
649.3959, 1972.964
649.8781, 1972.025
650.3602, 1975.721
650.8423, 1978.277
651.3244, 1966.300
651.8065, 1943.656
652.2886, 1930.779
652.7708, 1940.039
653.2529, 1955.022
653.7350, 1955.936
654.2171, 1946.938
654.6992, 1940.175
655.1813, 1939.434
655.6635, 1944.195
656.1456, 1960.099
656.6277, 1987.078
657.1098, 1997.753
657.5919, 1971.533
658.0740, 1944.973
658.5562, 1937.256
659.0383, 1954.869
659.5204, 1960.636
660.0025, 1949.747
660.4846, 1938.420
660.9667, 1948.751
661.4489, 1977.492
661.9310, 1994.316
662.4131, 1992.861
662.8952, 1981.413
663.3773, 1966.918
663.8594, 1950.559
664.3416, 1934.964
664.8237, 1914.240
665.3058, 1901.198
665.7879, 1908.983
666.2700, 1931.308
666.7521, 1946.827
667.2343, 1943.892
667.7164, 1939.802
668.1985, 1941.975
668.6806, 1950.345
669.1627, 1947.155
669.6448, 1926.013
670.1270, 1907.861
670.6091, 1909.623
671.0912, 1929.998
671.5733, 1941.633
672.0554, 1943.136
672.5375, 1940.013
673.0197, 1934.993
673.5018, 1929.757
673.9839, 1927.609
674.4660, 1929.774
674.9481, 1933.947
675.4302, 1943.067
675.9124, 1952.036
676.3945, 1953.574
676.8766, 1934.835
677.3587, 1921.177
677.8408, 1921.639
678.3229, 1930.564
678.8051, 1931.506
679.2872, 1920.715
679.7693, 1911.358
680.2514, 1908.561
680.7335, 1910.855
681.2156, 1911.242
681.6978, 1909.715
682.1799, 1906.792
682.6620, 1902.295
683.1441, 1896.851
683.6262, 1889.557
684.1083, 1880.369
684.5905, 1876.613
685.0726, 1890.442
685.5547, 1907.571
686.0368, 1914.686
686.5189, 1903.323
687.0010, 1895.570
687.4832, 1897.088
687.9653, 1902.322
688.4474, 1905.902
688.9295, 1907.202
689.4116, 1908.722
689.8937, 1910.988
690.3759, 1913.299
690.8580, 1913.422
691.3401, 1911.704
691.8222, 1912.547
692.3043, 1920.640
692.7864, 1929.101
693.2686, 1926.971
693.7507, 1916.463
694.2328, 1905.774
694.7149, 1895.328
695.1970, 1888.858
695.6791, 1891.435
696.1613, 1902.990
696.6434, 1908.430
697.1255, 1900.846
697.6076, 1891.640
698.0897, 1885.434
698.5718, 1882.618
699.0540, 1881.090
699.5361, 1881.326
700.0182, 1881.408
700.5003, 1878.880
700.9824, 1874.459
701.4645, 1871.069
701.9467, 1868.728
702.4288, 1869.470
702.9109, 1881.445
703.3930, 1896.067
703.8751, 1899.896
704.3572, 1880.100
704.8394, 1861.969
705.3215, 1858.557
705.8036, 1862.602
706.2857, 1859.492
706.7678, 1835.595
707.2499, 1825.691
707.7321, 1843.064
708.2142, 1876.348
708.6963, 1883.715
709.1784, 1862.480
709.6605, 1842.166
710.1426, 1835.488
710.6248, 1839.159
711.1069, 1850.155
711.5890, 1866.792
712.0711, 1877.121
712.5532, 1866.885
713.0353, 1851.526
713.5175, 1845.084
713.9996, 1849.130
714.4817, 1849.786
714.9638, 1836.495
715.4459, 1824.034
715.9280, 1822.046
716.4102, 1835.850
716.8923, 1842.277
717.3744, 1840.045
717.8565, 1832.937
718.3386, 1822.716
718.8207, 1810.029
719.3029, 1800.480
719.7850, 1794.563
720.2671, 1793.466
720.7492, 1804.563
721.2313, 1820.426
721.7134, 1827.162
722.1956, 1813.809
722.6777, 1800.118
723.1598, 1795.625
723.6419, 1796.956
724.1240, 1797.449
724.6061, 1795.205
725.0883, 1793.631
725.5704, 1794.799
726.0525, 1796.641
726.5346, 1789.927
727.0167, 1772.856
727.4988, 1761.579
727.9810, 1765.985
728.4631, 1779.470
728.9452, 1787.055
729.4273, 1789.210
729.9094, 1788.969
730.3915, 1787.495
730.8737, 1784.935
731.3558, 1780.822
731.8379, 1775.169
732.3200, 1770.429
732.8021, 1764.884
733.2842, 1762.713
733.7664, 1767.536
734.2485, 1782.530
734.7306, 1787.774
735.2127, 1781.243
735.6948, 1769.732
736.1769, 1756.032
736.6591, 1741.352
737.1412, 1735.617
737.6233, 1740.390
738.1054, 1748.967
738.5875, 1757.087
739.0696, 1764.042
739.5518, 1768.801
740.0339, 1770.939
740.5161, 1771.207
740.9982, 1768.336
741.4803, 1764.330
741.9624, 1762.018
742.4445, 1762.134
742.9266, 1762.959
743.4088, 1765.391
743.8909, 1767.478
744.3730, 1763.431
744.8551, 1753.220
745.3372, 1748.858
745.8193, 1758.184
746.3015, 1769.295
746.7836, 1758.326
747.2657, 1733.156
747.7478, 1716.875
748.2299, 1731.287
748.7120, 1747.861
749.1942, 1748.439
749.6763, 1736.490
750.1584, 1732.548
750.6405, 1746.554
751.1226, 1759.172
751.6047, 1764.964
752.0869, 1764.212
752.5690, 1757.548
753.0511, 1743.392
753.5332, 1735.843
754.0153, 1751.183
754.4974, 1777.995
754.9796, 1788.639
755.4617, 1783.152
755.9438, 1773.726
756.4259, 1758.468
756.9080, 1730.605
757.3901, 1751.714
757.8723, 1762.819
758.3544, 1764.459
758.8365, 1728.280
759.3186, 1740.935
759.8007, 1734.020
760.2828, 1726.303
760.7650, 1745.831
761.2471, 1715.153
761.7292, 1734.249
762.2113, 1733.476
762.6934, 1741.797
763.1755, 1730.427
763.6577, 1725.138
764.1398, 1739.548
764.6219, 1743.050
765.1040, 1729.413
765.5861, 1738.312
766.0682, 1715.198
766.5504, 1715.925
767.0325, 1722.050
767.5146, 1729.969
767.9967, 1736.417
768.4788, 1742.473
768.9609, 1742.112
769.4431, 1732.873
769.9252, 1719.833
770.4073, 1709.188
770.8894, 1701.628
771.3715, 1701.152
771.8536, 1714.596
772.3358, 1726.828
772.8179, 1720.075
773.3000, 1703.161
773.7821, 1693.538
774.2642, 1704.668
774.7463, 1714.389
775.2285, 1716.096
775.7106, 1712.865
776.1927, 1713.446
776.6748, 1719.903
777.1569, 1722.040
777.6390, 1714.352
778.1212, 1702.103
778.6033, 1702.737
779.0854, 1713.196
779.5675, 1716.066
780.0496, 1690.250
780.5317, 1662.125
781.0139, 1656.381
781.4960, 1669.064
781.9781, 1679.239
782.4602, 1676.522
782.9423, 1674.423
783.4244, 1678.576
783.9066, 1688.213
784.3887, 1674.792
784.8708, 1698.107
785.3529, 1711.418
785.8350, 1715.264
786.3171, 1681.291
786.7993, 1696.152
787.2814, 1691.443
787.7635, 1685.931
788.2456, 1707.665
788.7277, 1679.193
789.2098, 1700.495
789.6920, 1701.928
790.1741, 1712.455
790.6562, 1703.291
791.1383, 1700.208
791.6204, 1716.823
792.1025, 1722.531
792.5847, 1711.100
793.0668, 1706.556
793.5489, 1712.193
794.0310, 1715.650
794.5131, 1715.951
794.9952, 1708.310
795.4774, 1692.305
795.9595, 1677.921
796.4416, 1674.719
796.9237, 1674.623
797.4058, 1670.116
797.8879, 1657.940
798.3701, 1649.711
798.8522, 1645.562
799.3343, 1646.514
799.8164, 1655.967
800.2985, 1676.387
800.7806, 1683.836
801.2628, 1675.557
801.7449, 1665.746
802.2270, 1670.646
802.7091, 1684.112
803.1912, 1695.421
803.6733, 1703.481
804.1555, 1705.143
804.6376, 1691.967
805.1197, 1675.242
805.6018, 1665.270
806.0839, 1666.887
806.5660, 1669.554
807.0482, 1674.437
807.5303, 1678.920
808.0124, 1679.626
808.4945, 1676.554
808.9766, 1675.611
809.4587, 1677.694
809.9409, 1680.665
810.4230, 1684.267
810.9051, 1686.557
811.3872, 1683.545
811.8693, 1671.601
812.3514, 1661.725
812.8336, 1660.344
813.3157, 1662.439
813.7978, 1662.136
814.2799, 1656.098
814.7620, 1654.946
815.2441, 1660.056
815.7263, 1668.470
816.2084, 1680.202
816.6905, 1693.274
817.1726, 1692.823
817.6547, 1672.724
818.1368, 1650.853
818.6190, 1641.775
819.1011, 1642.280
819.5832, 1648.583
820.0653, 1665.561
820.5474, 1678.780
821.0295, 1683.399
821.5117, 1683.874
821.9938, 1685.194
822.4759, 1688.537
822.9580, 1686.818
823.4401, 1678.049
823.9222, 1667.056
824.4044, 1658.376
824.8865, 1653.166
825.3686, 1655.940
825.8507, 1671.857
826.3328, 1685.834
826.8149, 1686.306
827.2971, 1679.324
827.7792, 1672.575
828.2613, 1666.755
828.7434, 1662.203
829.2255, 1659.022
829.7076, 1656.924
830.1898, 1654.893
830.6719, 1652.949
831.1540, 1655.221
831.6361, 1663.839
832.1182, 1672.321
832.6003, 1671.003
833.0825, 1664.599
833.5646, 1661.244
834.0467, 1666.267
834.5288, 1669.528
835.0109, 1665.879
835.4930, 1659.206
835.9752, 1654.448
836.4573, 1651.075
836.9394, 1651.812
837.4215, 1658.269
837.9036, 1666.188
838.3857, 1669.234
838.8679, 1668.435
839.3500, 1668.427
839.8321, 1671.656
840.3142, 1671.654
840.7963, 1653.772
841.2784, 1633.326
841.7606, 1629.867
842.2427, 1675.166
842.7248, 1697.355
843.2069, 1679.728
843.6890, 1649.259
844.1711, 1639.168
844.6533, 1650.472
845.1354, 1660.366
845.6175, 1665.774
846.0996, 1669.228
846.5817, 1675.691
847.0638, 1681.828
847.5460, 1680.204
848.0281, 1663.740
848.5102, 1653.157
848.9923, 1663.753
849.4744, 1680.624
849.9565, 1687.898
850.4387, 1681.801
850.9208, 1674.250
851.4029, 1663.959
851.8850, 1656.217
852.3671, 1661.793
852.8492, 1675.745
853.3314, 1676.729
853.8135, 1658.659
854.2956, 1642.776
854.7777, 1649.442
855.2598, 1664.901
855.7419, 1675.064
856.2241, 1674.726
856.7062, 1674.921
857.1883, 1678.714
857.6704, 1680.500
858.1525, 1673.173
858.6346, 1656.271
859.1168, 1648.370
859.5989, 1651.418
860.0810, 1656.604
860.5631, 1653.214
861.0452, 1647.555
861.5273, 1650.017
862.0095, 1664.052
862.4916, 1673.965
862.9737, 1671.045
863.4558, 1663.839
863.9379, 1658.214
864.4200, 1654.696
864.9022, 1649.835
865.3843, 1643.420
865.8664, 1636.314
866.3485, 1625.208
866.8306, 1614.608
867.3127, 1618.000
867.7949, 1636.057
868.2770, 1654.136
868.7591, 1666.492
869.2412, 1673.042
869.7233, 1672.563
870.2054, 1663.623
870.6876, 1655.336
871.1697, 1645.935
871.6518, 1640.642
872.1339, 1644.834
872.6160, 1656.543
873.0981, 1661.059
873.5803, 1658.733
874.0624, 1656.130
874.5445, 1662.769
875.0266, 1667.456
875.5087, 1654.530
875.9908, 1625.606
876.4730, 1610.279
876.9551, 1631.098
877.4372, 1648.892
877.9193, 1649.749
878.4014, 1636.745
878.8835, 1628.775
879.3657, 1625.851
879.8478, 1627.565
880.3299, 1637.363
880.8120, 1649.247
881.2941, 1655.424
881.7763, 1656.486
882.2584, 1654.713
882.7405, 1646.537
883.2227, 1640.558
883.7048, 1640.564
884.1869, 1644.902
884.6690, 1650.438
885.1511, 1658.672
885.6332, 1659.347
886.1154, 1645.565
886.5975, 1627.987
887.0796, 1628.033
887.5617, 1640.327
888.0438, 1650.206
888.5259, 1649.426
889.0081, 1647.027
889.4902, 1646.018
889.9723, 1646.260
890.4544, 1647.923
890.9365, 1653.353
891.4186, 1653.530
891.9008, 1645.528
892.3829, 1634.967
892.8650, 1629.830
893.3471, 1629.572
893.8292, 1632.684
894.3113, 1639.865
894.7935, 1647.000
895.2756, 1654.000
895.7577, 1657.930
896.2398, 1654.853
896.7219, 1633.325
897.2040, 1625.041
897.6862, 1635.780
898.1683, 1650.399
898.6504, 1651.121
899.1325, 1640.522
899.6146, 1637.088
900.0967, 1643.026
900.5789, 1651.407
901.0610, 1661.943
901.5431, 1668.837
902.0252, 1664.061
902.5073, 1642.759
902.9894, 1629.958
903.4716, 1630.777
903.9537, 1636.947
904.4358, 1646.978
904.9179, 1660.083
905.4000, 1658.806
905.8821, 1643.034
906.3643, 1628.476
906.8464, 1626.509
907.3285, 1631.235
907.8106, 1637.966
908.2927, 1645.979
908.7748, 1652.529
909.2570, 1627.367
909.7391, 1650.197
910.2212, 1663.024
910.7033, 1666.385
911.1854, 1631.927
911.6675, 1646.304
912.1497, 1641.110
912.6318, 1635.114
913.1139, 1656.364
913.5960, 1627.407
914.0781, 1648.225
914.5602, 1649.173
915.0424, 1648.650
915.5245, 1642.366
916.0066, 1631.022
916.4887, 1620.235
916.9708, 1622.963
917.4529, 1641.041
917.9351, 1652.541
918.4172, 1652.123
918.8993, 1646.169
919.3814, 1642.620
919.8635, 1639.556
920.3456, 1632.663
920.8278, 1615.515
921.3099, 1606.324
921.7920, 1616.057
922.2741, 1632.443
922.7562, 1646.047
923.2383, 1657.306
923.7205, 1628.251
924.2026, 1650.994
924.6847, 1663.733
925.1668, 1667.006
925.6489, 1632.461
926.1310, 1646.750
926.6132, 1641.468
927.0953, 1635.384
927.5774, 1656.547
928.0595, 1627.502
928.5416, 1648.232
929.0237, 1649.093
929.5059, 1659.048
929.9880, 1649.311
930.4701, 1645.656
930.9522, 1661.699
931.4343, 1666.835
931.9164, 1654.832
932.3986, 1665.364
932.8807, 1635.632
933.3628, 1641.233
933.8449, 1650.474
934.3270, 1654.411
934.8091, 1659.050
935.2913, 1656.861
935.7734, 1646.447
936.2555, 1637.866
936.7376, 1632.974
937.2197, 1632.342
937.7018, 1641.209
938.1840, 1654.223
938.6661, 1659.971
939.1482, 1650.285
939.6303, 1641.658
940.1124, 1640.604
940.5945, 1642.264
941.0767, 1641.619
941.5588, 1637.910
942.0409, 1635.899
942.5230, 1635.896
943.0051, 1637.366
943.4872, 1641.903
943.9694, 1646.708
944.4515, 1646.603
944.9336, 1640.766
945.4157, 1635.383
945.8978, 1630.842
946.3799, 1629.711
946.8621, 1634.154
947.3442, 1643.895
947.8263, 1651.601
948.3084, 1657.566
948.7905, 1658.903
949.2726, 1650.423
949.7548, 1638.577
950.2369, 1633.132
950.7190, 1632.334
951.2011, 1630.452
951.6832, 1622.771
952.1653, 1616.863
952.6475, 1615.026
953.1296, 1615.943
953.6117, 1616.433
954.0938, 1616.371
954.5759, 1619.712
955.0580, 1628.228
955.5402, 1637.819
956.0223, 1645.356
956.5044, 1650.176
956.9865, 1651.308
957.4686, 1648.391
957.9507, 1641.574
958.4329, 1626.784
958.9150, 1612.605
959.3971, 1606.298
959.8792, 1608.010
960.3613, 1608.507
960.8434, 1607.358
961.3256, 1610.054
961.8077, 1627.966
962.2898, 1647.086
962.7719, 1651.690
963.2540, 1641.520
963.7361, 1633.507
964.2183, 1631.159
964.7004, 1631.151
965.1825, 1633.671
965.6646, 1637.282
966.1467, 1635.056
966.6288, 1628.022
967.1110, 1624.377
967.5931, 1629.121
968.0752, 1636.627
968.5573, 1645.571
969.0394, 1653.231
969.5215, 1654.453
970.0037, 1641.502
970.4858, 1634.718
970.9679, 1637.252
971.4500, 1643.175
971.9321, 1646.558
972.4142, 1647.046
972.8964, 1641.209
973.3785, 1627.886
973.8606, 1617.848
974.3427, 1621.669
974.8248, 1629.656
975.3069, 1634.349
975.7891, 1634.874
976.2712, 1635.419
976.7533, 1636.026
977.2354, 1636.472
977.7175, 1635.788
978.1996, 1635.240
978.6818, 1639.845
979.1639, 1647.940
979.6460, 1652.887
980.1281, 1648.973
980.6102, 1643.925
981.0923, 1641.596
981.5745, 1640.169
982.0566, 1635.116
982.5387, 1625.028
983.0208, 1618.902
983.5029, 1618.413
983.9850, 1622.023
984.4672, 1631.800
984.9493, 1642.915
985.4314, 1646.541
985.9135, 1638.456
986.3956, 1632.298
986.8777, 1635.625
987.3599, 1638.823
987.8420, 1635.566
988.3241, 1625.810
988.8062, 1620.782
989.2883, 1620.521
989.7704, 1621.308
990.2526, 1617.450
990.7347, 1615.825
991.2168, 1628.820
991.6989, 1651.560
992.1810, 1662.290
992.6631, 1645.284
993.1453, 1632.983
993.6274, 1633.347
994.1095, 1639.598
994.5916, 1637.043
995.0737, 1627.737
995.5558, 1622.186
996.0380, 1623.890
996.5201, 1627.381
997.0022, 1630.444
997.4843, 1632.299
997.9664, 1631.321
998.4485, 1625.211
998.9307, 1625.028
999.4128, 1632.451
999.8949, 1640.535
1000.377, 1644.614
1000.859, 1645.275
1001.341, 1642.924
1001.823, 1638.090
1002.305, 1633.984
1002.788, 1636.480
1003.270, 1635.154
1003.752, 1618.134
1004.234, 1595.642
1004.716, 1598.714
1005.198, 1630.309
1005.680, 1653.958
1006.162, 1658.930
1006.645, 1655.047
1007.127, 1650.401
1007.609, 1646.034
1008.091, 1643.865
1008.573, 1645.999
1009.055, 1646.134
1009.537, 1644.052
1010.019, 1639.275
1010.501, 1629.745
1010.984, 1616.347
1011.466, 1607.442
1011.948, 1603.161
1012.430, 1603.809
1012.912, 1612.676
1013.394, 1623.735
1013.876, 1634.747
1014.358, 1644.533
1014.841, 1648.797
1015.323, 1645.164
1015.805, 1642.642
1016.287, 1643.369
1016.769, 1645.715
1017.251, 1647.855
1017.733, 1649.368
1018.215, 1648.583
1018.697, 1643.265
1019.180, 1641.479
1019.662, 1652.688
1020.144, 1663.432
1020.626, 1663.397
1021.108, 1651.785
1021.590, 1644.143
1022.072, 1640.727
1022.554, 1635.180
1023.037, 1617.114
1023.519, 1599.280
1024.001, 1599.462
1024.483, 1612.456
1024.965, 1617.033
1025.447, 1595.665
1025.929, 1587.389
1026.411, 1602.112
1026.893, 1627.515
1027.376, 1645.191
1027.858, 1655.185
1028.340, 1653.995
1028.822, 1637.712
1029.304, 1627.784
1029.786, 1648.332
1030.268, 1672.793
1030.750, 1678.310
1031.233, 1663.016
1031.715, 1652.368
1032.197, 1647.318
1032.679, 1641.842
1033.161, 1630.094
1033.643, 1617.416
1034.125, 1611.560
1034.607, 1611.404
1035.089, 1613.786
1035.572, 1619.898
1036.054, 1625.781
1036.536, 1632.514
1037.018, 1636.873
1037.500, 1631.286
1037.982, 1617.723
1038.464, 1612.219
1038.946, 1617.222
1039.428, 1625.147
1039.911, 1636.108
1040.393, 1643.062
1040.875, 1635.782
1041.357, 1613.766
1041.839, 1609.059
1042.321, 1626.828
1042.803, 1641.898
1043.285, 1642.984
1043.768, 1635.215
1044.250, 1622.204
1044.732, 1608.118
1045.214, 1602.221
1045.696, 1619.912
1046.178, 1628.629
1046.660, 1615.365
1047.142, 1598.476
1047.625, 1596.405
1048.107, 1608.224
1048.589, 1620.448
1049.071, 1632.328
1049.553, 1640.540
1050.035, 1641.676
1050.517, 1638.962
1050.999, 1631.858
1051.481, 1621.980
1051.964, 1621.881
1052.446, 1637.421
1052.928, 1642.368
1053.410, 1626.194
1053.892, 1603.123
1054.374, 1595.538
1054.856, 1598.909
1055.338, 1605.727
1055.820, 1616.467
1056.303, 1623.696
1056.785, 1621.088
1057.267, 1618.992
1057.749, 1625.966
1058.231, 1640.781
1058.713, 1643.606
1059.195, 1635.346
1059.677, 1627.778
1060.160, 1627.053
1060.642, 1630.602
1061.124, 1640.924
1061.606, 1653.648
1062.088, 1656.968
1062.570, 1647.037
1063.052, 1640.865
1063.534, 1641.787
1064.016, 1643.019
1064.499, 1633.321
1064.981, 1619.748
1065.463, 1614.446
1065.945, 1619.414
1066.427, 1624.929
1066.909, 1631.359
1067.391, 1633.770
1067.873, 1628.739
1068.355, 1618.918
1068.838, 1614.539
1069.320, 1614.736
1069.802, 1614.190
1070.284, 1609.489
1070.766, 1605.841
1071.248, 1605.119
1071.730, 1608.039
1072.212, 1616.312
1072.695, 1633.566
1073.177, 1641.361
1073.659, 1638.945
1074.141, 1632.751
1074.623, 1625.151
1075.105, 1618.498
1075.587, 1616.740
1076.069, 1618.936
1076.552, 1619.547
1077.034, 1612.785
1077.516, 1612.214
1077.998, 1622.197
1078.480, 1636.253
1078.962, 1645.255
1079.444, 1649.273
1079.926, 1647.139
1080.408, 1637.847
1080.891, 1628.632
1081.373, 1620.303
1081.855, 1616.487
1082.337, 1621.084
1082.819, 1632.725
1083.301, 1634.164
1083.783, 1625.541
1084.265, 1619.441
1084.747, 1621.886
1085.230, 1628.743
1085.712, 1640.365
1086.194, 1652.442
1086.676, 1657.549
1087.158, 1650.894
1087.640, 1647.103
1088.122, 1647.151
1088.604, 1647.492
1089.087, 1645.500
1089.569, 1641.466
1090.051, 1633.773
1090.533, 1623.647
1091.015, 1618.456
1091.497, 1628.911
1091.979, 1633.589
1092.461, 1622.681
1092.943, 1608.618
1093.426, 1621.089
1093.908, 1653.142
1094.390, 1668.093
1094.872, 1657.189
1095.354, 1641.378
1095.836, 1629.887
1096.318, 1622.001
1096.800, 1615.816
1097.283, 1611.616
1097.765, 1620.008
1098.247, 1641.970
1098.729, 1659.601
1099.211, 1665.538
1099.693, 1662.554
1100.175, 1647.972
1100.657, 1628.170
1101.140, 1613.299
1101.622, 1604.789
1102.104, 1601.822
1102.586, 1604.615
1103.068, 1612.380
1103.550, 1631.672
1104.032, 1652.516
1104.514, 1650.873
1104.996, 1630.806
1105.479, 1614.572
1105.961, 1615.240
1106.443, 1614.446
1106.925, 1606.010
1107.407, 1596.542
1107.889, 1597.303
1108.371, 1606.753
1108.853, 1619.158
1109.335, 1634.508
1109.818, 1642.822
1110.300, 1629.106
1110.782, 1614.725
1111.264, 1614.566
1111.746, 1625.688
1112.228, 1631.393
1112.710, 1631.629
1113.192, 1630.310
1113.675, 1629.302
1114.157, 1626.012
1114.639, 1612.771
1115.121, 1598.461
1115.603, 1594.821
1116.085, 1606.877
1116.567, 1615.183
1117.049, 1618.515
1117.531, 1623.002
1118.014, 1636.159
1118.496, 1650.713
1118.978, 1653.474
1119.460, 1647.686
1119.942, 1641.684
1120.424, 1638.446
1120.906, 1634.277
1121.388, 1627.445
1121.870, 1622.014
1122.353, 1624.833
1122.835, 1632.426
1123.317, 1632.760
1123.799, 1625.749
1124.281, 1620.728
1124.763, 1624.292
1125.245, 1628.640
1125.727, 1630.092
1126.210, 1630.835
1126.692, 1637.998
1127.174, 1650.292
1127.656, 1655.132
1128.138, 1649.109
1128.620, 1640.262
1129.102, 1631.622
1129.584, 1624.593
1130.067, 1618.708
1130.549, 1614.376
1131.031, 1622.763
1131.513, 1645.007
1131.995, 1663.577
1132.477, 1672.370
1132.959, 1672.816
1133.441, 1660.730
1133.923, 1643.580
1134.406, 1632.139
1134.888, 1629.485
1135.370, 1626.642
1135.852, 1623.359
1136.334, 1620.969
1136.816, 1619.654
1137.298, 1620.223
1137.780, 1628.064
1138.262, 1638.967
1138.745, 1640.836
1139.227, 1617.955
1139.709, 1604.059
1140.191, 1603.224
1140.673, 1608.824
1141.155, 1615.111
1141.637, 1621.751
1142.119, 1628.058
1142.602, 1633.955
1143.084, 1638.451
1143.566, 1643.152
1144.048, 1643.184
1144.530, 1633.736
1145.012, 1622.593
1145.494, 1626.642
1145.976, 1642.921
1146.458, 1660.660
1146.941, 1679.537
1147.423, 1685.177
1147.905, 1651.943
1148.387, 1620.370
1148.869, 1616.048
1149.351, 1632.947
1149.833, 1638.639
1150.315, 1633.821
1150.797, 1627.776
1151.280, 1621.396
1151.762, 1620.021
1152.244, 1633.874
1152.726, 1650.453
1153.208, 1657.487
1153.690, 1654.200
1154.172, 1647.347
1154.654, 1636.774
1155.137, 1625.434
1155.619, 1611.418
1156.101, 1601.136
1156.583, 1604.723
1157.065, 1615.383
1157.547, 1619.852
1158.029, 1611.793
1158.511, 1616.818
1158.994, 1639.064
1159.476, 1655.449
1159.958, 1637.151
1160.440, 1608.649
1160.922, 1602.042
1161.404, 1613.244
1161.886, 1622.140
1162.368, 1624.944
1162.850, 1626.765
1163.333, 1628.259
1163.815, 1628.753
1164.297, 1626.239
1164.779, 1622.755
1165.261, 1622.741
1165.743, 1626.201
1166.225, 1626.799
1166.707, 1621.135
1167.189, 1615.193
1167.672, 1609.110
1168.154, 1605.459
1168.636, 1613.349
1169.118, 1626.297
1169.600, 1627.384
1170.082, 1611.195
1170.564, 1601.888
1171.046, 1615.159
1171.529, 1626.781
1172.011, 1626.534
1172.493, 1618.963
1172.975, 1616.610
1173.457, 1618.350
1173.939, 1620.321
1174.421, 1620.809
1174.903, 1622.782
1175.385, 1632.666
1175.868, 1638.812
1176.350, 1631.106
1176.832, 1613.206
1177.314, 1610.696
1177.796, 1620.883
1178.278, 1629.328
1178.760, 1624.745
1179.242, 1610.460
1179.724, 1626.120
1180.207, 1634.634
1180.689, 1636.387
1181.171, 1611.128
1181.653, 1620.750
1182.135, 1616.393
1182.617, 1611.463
1183.099, 1625.995
1183.581, 1604.664
1184.064, 1618.885
1184.546, 1618.916
1185.028, 1625.442
1185.510, 1617.903
1185.992, 1614.708
1186.474, 1625.583
1186.956, 1628.667
1187.438, 1619.509
1187.921, 1626.446
1188.403, 1604.624
1188.885, 1608.041
1189.367, 1610.055
1189.849, 1614.788
1190.331, 1618.737
1190.813, 1621.015
1191.295, 1622.426
1191.777, 1621.725
1192.260, 1622.054
1192.742, 1627.341
1193.224, 1636.371
1193.706, 1641.048
1194.188, 1640.699
1194.670, 1643.917
1195.152, 1653.903
1195.634, 1663.144
1196.116, 1665.137
1196.599, 1662.186
1197.081, 1654.167
1197.563, 1641.498
1198.045, 1636.779
1198.527, 1640.894
1199.009, 1644.404
1199.491, 1643.835
1199.973, 1641.606
1200.456, 1637.908
1200.938, 1635.364
1201.420, 1639.178
1201.902, 1651.362
1202.384, 1651.914
1202.866, 1639.264
1203.348, 1627.024
1203.830, 1622.358
1204.313, 1620.596
1204.795, 1614.723
1205.277, 1609.151
1205.759, 1611.881
1206.241, 1628.189
1206.723, 1632.272
1207.205, 1621.692
1207.687, 1615.601
1208.169, 1633.355
1208.651, 1655.259
1209.134, 1660.187
1209.616, 1652.756
1210.098, 1640.093
1210.580, 1606.685
1211.062, 1630.266
1211.544, 1643.843
1212.026, 1647.955
1212.508, 1614.248
1212.991, 1629.377
1213.473, 1624.934
1213.955, 1619.689
1214.437, 1641.690
1214.919, 1613.484
1215.401, 1635.053
1215.883, 1636.752
1216.365, 1647.545
1216.848, 1638.649
1217.330, 1635.833
1217.812, 1652.714
1218.294, 1642.547
1218.776, 1651.548
1219.258, 1651.678
1219.740, 1647.654
1220.222, 1638.610
1220.704, 1633.351
1221.187, 1646.443
1221.669, 1663.901
1222.151, 1670.338
1222.633, 1666.144
1223.115, 1663.313
1223.597, 1663.412
1224.079, 1659.962
1224.561, 1651.066
1225.043, 1641.607
1225.526, 1636.976
1226.008, 1634.559
1226.490, 1633.018
1226.972, 1631.629
1227.454, 1623.035
1227.936, 1603.893
1228.418, 1596.503
1228.900, 1608.949
1229.383, 1625.278
1229.865, 1627.103
1230.347, 1623.848
1230.829, 1626.110
1231.311, 1634.701
1231.793, 1638.519
1232.275, 1636.696
1232.757, 1637.515
1233.240, 1644.970
1233.722, 1651.680
1234.204, 1646.518
1234.686, 1638.525
1235.168, 1637.882
1235.650, 1645.196
1236.132, 1653.042
1236.614, 1661.772
1237.096, 1665.329
1237.579, 1660.125
1238.061, 1651.781
1238.543, 1644.853
1239.025, 1637.996
1239.507, 1628.592
1239.989, 1616.306
1240.471, 1610.740
1240.953, 1611.965
1241.436, 1619.521
1241.918, 1639.969
1242.400, 1653.909
1242.882, 1634.928
1243.364, 1608.029
1243.846, 1600.833
1244.328, 1614.400
1244.810, 1627.402
1245.292, 1639.759
1245.775, 1644.557
1246.257, 1632.458
1246.739, 1621.005
1247.221, 1622.218
1247.703, 1629.922
1248.185, 1638.461
1248.667, 1648.100
1249.149, 1649.058
1249.631, 1642.153
1250.114, 1635.259
1250.596, 1630.979
1251.078, 1630.013
1251.560, 1638.076
1252.042, 1645.464
1252.524, 1640.300
1253.006, 1623.703
1253.488, 1618.549
1253.971, 1623.760
1254.453, 1630.215
1254.935, 1632.842
1255.417, 1636.078
1255.899, 1642.516
1256.381, 1649.332
1256.863, 1654.554
1257.345, 1657.957
1257.828, 1657.132
1258.310, 1652.735
1258.792, 1648.786
1259.274, 1645.900
1259.756, 1646.063
1260.238, 1652.240
1260.720, 1657.619
1261.202, 1652.497
1261.684, 1641.209
1262.167, 1639.415
1262.649, 1645.652
1263.131, 1649.811
1263.613, 1647.636
1264.095, 1642.043
1264.577, 1630.532
1265.059, 1621.874
1265.541, 1628.749
1266.023, 1644.051
1266.506, 1652.781
1266.988, 1655.658
1267.470, 1660.162
1267.952, 1672.471
1268.434, 1678.320
1268.916, 1674.370
1269.398, 1669.742
1269.880, 1679.092
1270.363, 1690.708
1270.845, 1682.241
1271.327, 1658.586
1271.809, 1649.561
1272.291, 1664.432
1272.773, 1673.354
1273.255, 1672.225
1273.737, 1667.719
1274.219, 1662.905
1274.702, 1660.995
1275.184, 1670.032
1275.666, 1685.296
1276.148, 1686.686
1276.630, 1670.430
1277.112, 1660.574
1277.594, 1660.677
1278.076, 1661.872
1278.558, 1649.642
1279.041, 1641.611
1279.523, 1664.152
1280.005, 1699.332
1280.487, 1695.057
1280.969, 1650.369
1281.451, 1624.432
1281.933, 1625.133
1282.415, 1635.822
1282.898, 1656.784
1283.380, 1671.289
1283.862, 1666.154
1284.344, 1650.965
1284.826, 1641.269
1285.308, 1637.224
1285.790, 1642.823
1286.272, 1658.263
1286.755, 1669.082
1287.237, 1661.163
1287.719, 1655.329
1288.201, 1660.169
1288.683, 1668.508
1289.165, 1668.194
1289.647, 1661.399
1290.129, 1652.272
1290.611, 1641.642
1291.094, 1635.530
1291.576, 1636.216
1292.058, 1642.888
1292.540, 1658.179
1293.022, 1673.099
1293.504, 1675.356
1293.986, 1668.639
1294.468, 1653.566
1294.950, 1632.171
1295.433, 1629.251
1295.915, 1656.944
1296.397, 1669.683
1296.879, 1656.394
1297.361, 1637.898
1297.843, 1634.986
1298.325, 1641.296
1298.807, 1655.018
1299.290, 1672.892
1299.772, 1675.068
1300.254, 1658.607
1300.736, 1655.019
1301.218, 1671.527
1301.700, 1684.105
1302.182, 1659.539
1302.664, 1634.459
1303.146, 1644.792
1303.629, 1672.807
1304.111, 1675.738
1304.593, 1656.074
1305.075, 1645.242
1305.557, 1647.754
##END=



