##NAMES=Ganomalite
##RRUFFID=R050387
##IDEAL CHEMISTRY=Pb^2+^_3_Ca_2_(SiO_4_)(Si_2_O_7_)
##LOCALITY=Sells, Pima County, Arizona, USA
##OWNER=RRUFF
##SOURCE=University of Arizona Mineral Museum
##DESCRIPTION=Yellowish-red massive
##STATUS=The identification of this mineral has been confirmed by single-crystal X-ray diffraction.
##URL=rruff.info/R050387
92.35352, 124.2737
92.83563, 114.9421
93.31775, 110.9691
93.79987, 114.4247
94.28198, 123.5148
94.76410, 133.2253
95.24622, 142.6293
95.72833, 152.0418
96.21045, 160.9964
96.69257, 169.3542
97.17468, 179.9762
97.65680, 195.7404
98.13892, 216.6301
98.62103, 239.3394
99.10315, 262.7190
99.58527, 287.0023
100.0674, 312.1992
100.5495, 337.5323
101.0316, 365.0234
101.5137, 396.2791
101.9958, 431.2219
102.4780, 470.8985
102.9601, 515.4401
103.4422, 564.8955
103.9243, 618.6245
104.4064, 676.9743
104.8885, 739.6425
105.3707, 808.1457
105.8528, 885.2949
106.3349, 963.5109
106.8170, 1039.177
107.2991, 1109.427
107.7813, 1182.612
108.2634, 1259.958
108.7455, 1340.792
109.2276, 1419.967
109.7097, 1498.087
110.1918, 1574.825
110.6740, 1650.164
111.1561, 1718.508
111.6382, 1791.737
112.1203, 1869.794
112.6024, 1953.501
113.0845, 2043.507
113.5667, 2138.840
114.0488, 2240.694
114.5309, 2351.036
115.0130, 2474.145
115.4951, 2601.135
115.9772, 2731.642
116.4594, 2866.571
116.9415, 2999.850
117.4236, 3126.746
117.9057, 3251.809
118.3878, 3379.352
118.8699, 3515.607
119.3521, 3652.732
119.8342, 3788.049
120.3163, 3921.291
120.7984, 4053.370
121.2805, 4184.671
121.7626, 4315.194
122.2448, 4444.938
122.7269, 4571.278
123.2090, 4698.106
123.6911, 4828.122
124.1732, 4960.795
124.6553, 5100.054
125.1375, 5249.536
125.6196, 5408.620
126.1017, 5575.344
126.5838, 5745.766
127.0659, 5923.674
127.5480, 6116.447
128.0302, 6326.727
128.5123, 6551.463
128.9944, 6791.926
129.4765, 7046.656
129.9586, 7302.005
130.4407, 7545.935
130.9229, 7781.581
131.4050, 8024.354
131.8871, 8274.408
132.3692, 8529.370
132.8513, 8779.173
133.3334, 9009.346
133.8156, 9195.606
134.2977, 9348.660
134.7798, 9500.588
135.2619, 9647.419
135.7440, 9787.592
136.2261, 9921.402
136.7083, 10063.78
137.1904, 10218.30
137.6725, 10372.80
138.1546, 10515.60
138.6367, 10645.43
139.1188, 10775.40
139.6010, 10908.56
140.0831, 11044.36
140.5652, 11189.82
141.0473, 11345.97
141.5294, 11512.09
142.0115, 11684.60
142.4937, 11863.84
142.9758, 12051.60
143.4579, 12253.90
143.9400, 12475.39
144.4221, 12683.83
144.9042, 12884.05
145.3864, 13068.96
145.8685, 13224.94
146.3506, 13371.64
146.8327, 13466.14
147.3148, 13497.91
147.7969, 13472.31
148.2791, 13373.28
148.7612, 13191.05
149.2433, 12939.22
149.7254, 12642.44
150.2075, 12284.08
150.6896, 11898.25
151.1718, 11498.95
151.6539, 11065.37
152.1360, 10648.25
152.6181, 10248.30
153.1002, 9865.039
153.5823, 9499.147
154.0645, 9145.910
154.5466, 8808.733
155.0287, 8489.589
155.5108, 8183.546
155.9929, 7894.685
156.4750, 7626.628
156.9572, 7377.206
157.4393, 7144.616
157.9214, 6927.905
158.4035, 6725.423
158.8856, 6535.458
159.3677, 6358.188
159.8499, 6191.899
160.3320, 6038.272
160.8141, 5896.870
161.2962, 5764.916
161.7783, 5643.970
162.2604, 5532.136
162.7426, 5427.833
163.2247, 5332.672
163.7068, 5243.026
164.1889, 5155.953
164.6710, 5072.443
165.1531, 4996.183
165.6353, 4931.637
166.1174, 4874.442
166.5995, 4819.905
167.0816, 4764.907
167.5637, 4712.959
168.0458, 4666.912
168.5280, 4627.129
169.0101, 4589.082
169.4922, 4549.506
169.9743, 4510.313
170.4564, 4474.448
170.9385, 4445.836
171.4207, 4419.422
171.9028, 4389.424
172.3849, 4355.514
172.8670, 4324.249
173.3491, 4303.752
173.8312, 4289.229
174.3134, 4271.405
174.7955, 4241.229
175.2776, 4207.817
175.7597, 4182.785
176.2418, 4167.153
176.7239, 4154.753
177.2061, 4141.943
177.6882, 4127.768
178.1703, 4109.912
178.6524, 4083.567
179.1345, 4053.512
179.6166, 4028.634
180.0988, 4009.755
180.5809, 3992.907
181.0630, 3974.620
181.5451, 3954.661
182.0272, 3932.898
182.5093, 3907.884
182.9915, 3880.786
183.4736, 3854.771
183.9557, 3829.763
184.4378, 3805.939
184.9199, 3784.396
185.4020, 3764.903
185.8842, 3743.007
186.3663, 3715.479
186.8484, 3683.444
187.3305, 3651.692
187.8126, 3619.976
188.2947, 3589.347
188.7769, 3562.113
189.2590, 3538.114
189.7411, 3513.880
190.2232, 3485.988
190.7053, 3455.438
191.1874, 3428.544
191.6696, 3406.574
192.1517, 3386.447
192.6338, 3361.443
193.1159, 3331.364
193.5980, 3301.909
194.0801, 3277.538
194.5623, 3257.864
195.0444, 3235.526
195.5265, 3209.365
196.0086, 3181.172
196.4907, 3154.360
196.9728, 3128.893
197.4550, 3104.893
197.9371, 3083.549
198.4192, 3064.940
198.9013, 3043.687
199.3834, 3019.266
199.8655, 2992.130
200.3477, 2961.734
200.8298, 2927.132
201.3119, 2893.854
201.7940, 2865.733
202.2761, 2843.346
202.7582, 2819.806
203.2404, 2794.515
203.7225, 2767.746
204.2046, 2739.864
204.6867, 2710.482
205.1688, 2681.258
205.6509, 2653.884
206.1331, 2628.660
206.6152, 2602.497
207.0973, 2575.090
207.5794, 2546.605
208.0615, 2516.990
208.5436, 2485.295
209.0258, 2454.821
209.5079, 2428.466
209.9900, 2407.476
210.4721, 2385.113
210.9542, 2360.541
211.4363, 2334.311
211.9185, 2307.891
212.4006, 2280.470
212.8827, 2254.349
213.3648, 2232.034
213.8469, 2214.612
214.3290, 2195.804
214.8112, 2174.151
215.2933, 2151.038
215.7754, 2131.143
216.2575, 2116.146
216.7396, 2101.095
217.2217, 2082.640
217.7038, 2058.955
218.1860, 2037.768
218.6681, 2020.652
219.1502, 2006.365
219.6323, 1990.529
220.1144, 1972.732
220.5965, 1954.372
221.0787, 1936.327
221.5608, 1918.643
222.0429, 1901.306
222.5250, 1884.300
223.0071, 1867.694
223.4892, 1852.493
223.9714, 1839.164
224.4535, 1826.336
224.9356, 1812.967
225.4177, 1798.436
225.8998, 1785.132
226.3819, 1773.509
226.8641, 1763.097
227.3462, 1752.649
227.8283, 1741.961
228.3104, 1731.533
228.7925, 1721.831
229.2746, 1713.190
229.7568, 1704.162
230.2389, 1694.492
230.7210, 1684.333
231.2031, 1674.556
231.6852, 1665.572
232.1673, 1656.360
232.6495, 1646.218
233.1316, 1633.723
233.6137, 1623.537
234.0958, 1616.419
234.5779, 1611.657
235.0600, 1607.760
235.5422, 1606.528
236.0243, 1603.497
236.5064, 1595.849
236.9885, 1578.864
237.4706, 1568.080
237.9527, 1566.557
238.4349, 1570.551
238.9170, 1570.733
239.3991, 1565.422
239.8812, 1558.797
240.3633, 1552.397
240.8454, 1545.929
241.3276, 1540.471
241.8097, 1536.528
242.2918, 1533.478
242.7739, 1529.884
243.2560, 1524.888
243.7381, 1520.684
244.2203, 1518.322
244.7024, 1518.752
245.1845, 1518.254
245.6666, 1515.982
246.1487, 1513.194
246.6308, 1512.573
247.1130, 1516.067
247.5951, 1518.511
248.0772, 1517.612
248.5593, 1511.889
249.0414, 1508.288
249.5235, 1507.632
250.0057, 1508.570
250.4878, 1508.912
250.9699, 1508.470
251.4520, 1507.717
251.9341, 1506.551
252.4162, 1504.596
252.8984, 1504.209
253.3805, 1506.467
253.8626, 1509.466
254.3447, 1510.130
254.8268, 1507.050
255.3089, 1504.575
255.7911, 1504.315
256.2732, 1506.697
256.7553, 1507.508
257.2374, 1505.807
257.7195, 1503.468
258.2017, 1503.045
258.6838, 1505.776
259.1659, 1507.525
259.6480, 1506.661
260.1301, 1503.006
260.6122, 1502.181
261.0944, 1505.914
261.5765, 1510.344
262.0586, 1510.852
262.5407, 1505.470
263.0228, 1501.728
263.5049, 1501.853
263.9871, 1505.646
264.4692, 1507.761
264.9513, 1507.783
265.4334, 1506.845
265.9155, 1505.760
266.3976, 1504.282
266.8798, 1503.644
267.3619, 1504.544
267.8440, 1506.632
268.3261, 1506.459
268.8082, 1502.632
269.2903, 1499.457
269.7725, 1501.649
270.2546, 1511.189
270.7367, 1516.500
271.2188, 1514.554
271.7009, 1507.373
272.1830, 1503.473
272.6652, 1503.465
273.1473, 1505.132
273.6294, 1507.397
274.1115, 1510.481
274.5936, 1512.610
275.0757, 1513.278
275.5579, 1513.115
276.0400, 1513.868
276.5221, 1515.593
277.0042, 1517.955
277.4863, 1521.175
277.9684, 1525.395
278.4506, 1528.292
278.9327, 1529.429
279.4148, 1529.528
279.8969, 1530.101
280.3790, 1531.235
280.8611, 1532.317
281.3433, 1532.663
281.8254, 1532.304
282.3075, 1533.750
282.7896, 1537.757
283.2717, 1542.126
283.7538, 1542.798
284.2360, 1539.634
284.7181, 1536.658
285.2002, 1535.819
285.6823, 1536.875
286.1644, 1537.622
286.6465, 1537.975
287.1287, 1538.263
287.6108, 1538.657
288.0929, 1539.181
288.5750, 1540.558
289.0571, 1544.046
289.5392, 1548.630
290.0214, 1549.819
290.5035, 1547.350
290.9856, 1543.733
291.4677, 1541.762
291.9498, 1541.090
292.4319, 1539.512
292.9141, 1535.650
293.3962, 1530.839
293.8783, 1528.636
294.3604, 1529.103
294.8425, 1529.665
295.3246, 1527.704
295.8068, 1523.961
296.2889, 1521.029
296.7710, 1519.961
297.2531, 1519.464
297.7352, 1516.986
298.2173, 1512.783
298.6995, 1508.937
299.1816, 1507.092
299.6637, 1506.690
300.1458, 1506.907
300.6279, 1508.090
301.1100, 1508.694
301.5922, 1506.104
302.0743, 1500.977
302.5564, 1496.050
303.0385, 1492.925
303.5206, 1490.942
304.0027, 1489.235
304.4849, 1487.801
304.9670, 1486.217
305.4491, 1484.576
305.9312, 1482.541
306.4133, 1479.302
306.8954, 1473.621
307.3776, 1467.021
307.8597, 1460.714
308.3418, 1454.658
308.8239, 1450.006
309.3060, 1448.880
309.7881, 1449.522
310.2703, 1449.178
310.7524, 1446.635
311.2345, 1442.798
311.7166, 1437.577
312.1987, 1431.081
312.6808, 1425.626
313.1630, 1422.683
313.6451, 1421.341
314.1272, 1420.612
314.6093, 1421.888
315.0914, 1422.064
315.5735, 1418.724
316.0557, 1412.525
316.5378, 1407.007
317.0199, 1403.601
317.5020, 1401.506
317.9841, 1400.179
318.4662, 1399.990
318.9484, 1399.880
319.4305, 1399.581
319.9126, 1399.115
320.3947, 1398.534
320.8768, 1397.574
321.3589, 1396.722
321.8411, 1396.378
322.3232, 1397.150
322.8053, 1397.059
323.2874, 1394.602
323.7695, 1391.250
324.2516, 1389.334
324.7338, 1390.205
325.2159, 1391.634
325.6980, 1392.906
326.1801, 1393.845
326.6622, 1395.273
327.1443, 1398.103
327.6265, 1401.093
328.1086, 1402.995
328.5907, 1402.650
329.0728, 1402.491
329.5549, 1402.842
330.0370, 1403.714
330.5192, 1404.885
331.0013, 1406.010
331.4834, 1407.742
331.9655, 1410.757
332.4476, 1417.033
332.9297, 1421.112
333.4119, 1421.541
333.8940, 1419.294
334.3761, 1418.698
334.8582, 1420.430
335.3403, 1422.715
335.8224, 1424.910
336.3046, 1427.545
336.7867, 1428.183
337.2688, 1425.707
337.7509, 1422.012
338.2330, 1421.151
338.7151, 1423.919
339.1973, 1427.090
339.6794, 1429.803
340.1615, 1432.100
340.6436, 1432.618
341.1257, 1431.002
341.6078, 1428.451
342.0899, 1426.359
342.5721, 1424.798
343.0542, 1423.517
343.5363, 1422.607
344.0184, 1421.953
344.5005, 1421.035
344.9826, 1419.882
345.4648, 1418.375
345.9469, 1415.842
346.4290, 1412.523
346.9111, 1410.758
347.3932, 1411.428
347.8753, 1413.196
348.3575, 1413.254
348.8396, 1411.740
349.3217, 1410.488
349.8038, 1411.339
350.2859, 1413.317
350.7680, 1414.391
351.2502, 1414.542
351.7323, 1412.853
352.2144, 1406.593
352.6965, 1397.262
353.1786, 1389.577
353.6607, 1387.463
354.1429, 1387.597
354.6250, 1385.877
355.1071, 1382.112
355.5892, 1377.793
356.0713, 1372.963
356.5534, 1368.585
357.0356, 1366.129
357.5177, 1369.672
357.9998, 1372.361
358.4819, 1367.833
358.9640, 1357.309
359.4461, 1347.672
359.9283, 1342.784
360.4104, 1340.174
360.8925, 1337.939
361.3746, 1336.230
361.8567, 1333.800
362.3388, 1329.427
362.8210, 1323.940
363.3031, 1319.130
363.7852, 1315.588
364.2673, 1312.817
364.7494, 1311.000
365.2315, 1310.804
365.7137, 1309.124
366.1958, 1304.018
366.6779, 1297.600
367.1600, 1292.313
367.6421, 1288.258
368.1242, 1285.538
368.6064, 1285.070
369.0885, 1287.036
369.5706, 1286.907
370.0527, 1283.312
370.5348, 1278.707
371.0169, 1274.559
371.4991, 1270.688
371.9812, 1267.742
372.4633, 1266.349
372.9454, 1265.898
373.4275, 1264.109
373.9096, 1260.073
374.3918, 1256.266
374.8739, 1254.046
375.3560, 1253.859
375.8381, 1253.168
376.3202, 1252.015
376.8023, 1250.307
377.2845, 1247.771
377.7666, 1244.297
378.2487, 1240.608
378.7308, 1236.771
379.2129, 1232.872
379.6950, 1230.133
380.1772, 1228.717
380.6593, 1227.456
381.1414, 1225.085
381.6235, 1221.753
382.1056, 1218.664
382.5877, 1216.053
383.0699, 1213.869
383.5520, 1212.182
384.0341, 1210.934
384.5162, 1209.682
384.9983, 1208.687
385.4804, 1207.398
385.9626, 1204.224
386.4447, 1198.693
386.9268, 1192.966
387.4089, 1189.486
387.8910, 1187.479
388.3731, 1185.295
388.8553, 1182.512
389.3374, 1178.996
389.8195, 1174.047
390.3016, 1167.858
390.7837, 1162.373
391.2658, 1158.864
391.7480, 1156.740
392.2301, 1155.600
392.7122, 1157.168
393.1943, 1157.198
393.6764, 1152.202
394.1585, 1143.877
394.6407, 1137.125
395.1228, 1135.091
395.6049, 1133.871
396.0870, 1131.381
396.5691, 1126.857
397.0512, 1122.857
397.5334, 1119.810
398.0155, 1117.553
398.4976, 1115.916
398.9797, 1116.142
399.4618, 1115.592
399.9439, 1113.367
400.4261, 1109.468
400.9082, 1106.347
401.3903, 1104.837
401.8724, 1103.281
402.3545, 1100.296
402.8366, 1093.949
403.3188, 1090.714
403.8009, 1092.627
404.2830, 1097.131
404.7651, 1097.464
405.2472, 1092.508
405.7293, 1086.571
406.2115, 1081.070
406.6936, 1076.044
407.1757, 1072.089
407.6578, 1069.429
408.1399, 1067.233
408.6220, 1064.410
409.1042, 1060.985
409.5863, 1057.950
410.0684, 1055.813
410.5505, 1054.046
411.0326, 1050.978
411.5147, 1046.646
411.9969, 1042.608
412.4790, 1039.760
412.9611, 1038.006
413.4432, 1037.359
413.9253, 1038.027
414.4074, 1038.976
414.8896, 1039.961
415.3717, 1040.423
415.8538, 1038.991
416.3359, 1033.070
416.8180, 1026.216
417.3001, 1021.803
417.7823, 1019.795
418.2644, 1018.332
418.7465, 1015.881
419.2286, 1013.582
419.7107, 1012.705
420.1928, 1015.537
420.6750, 1017.139
421.1571, 1014.310
421.6392, 1008.703
422.1213, 1004.680
422.6034, 1005.799
423.0855, 1006.692
423.5677, 1004.805
424.0498, 998.9180
424.5319, 994.0384
425.0140, 991.0428
425.4961, 988.9847
425.9782, 986.8888
426.4604, 984.3738
426.9425, 982.4461
427.4246, 981.5765
427.9067, 981.5365
428.3888, 980.6517
428.8709, 978.4369
429.3531, 976.2435
429.8352, 974.9528
430.3173, 974.8837
430.7994, 974.1862
431.2815, 972.8517
431.7636, 970.7858
432.2458, 967.1923
432.7279, 961.8771
433.2100, 958.2361
433.6921, 958.6713
434.1742, 961.4984
434.6563, 959.8817
435.1385, 953.6627
435.6206, 947.1253
436.1027, 944.6913
436.5848, 944.8307
437.0669, 943.0734
437.5490, 937.9403
438.0312, 932.2992
438.5133, 929.7090
438.9954, 929.2855
439.4775, 928.5542
439.9596, 926.4019
440.4417, 923.2972
440.9239, 919.1669
441.4060, 914.0153
441.8881, 909.6060
442.3702, 907.4161
442.8523, 906.2936
443.3344, 905.1343
443.8166, 904.2294
444.2987, 902.5472
444.7808, 899.4366
445.2629, 895.2489
445.7450, 890.9945
446.2271, 885.9232
446.7093, 881.7352
447.1914, 879.2238
447.6735, 878.8641
448.1556, 878.7266
448.6377, 879.3981
449.1198, 879.8953
449.6020, 879.1566
450.0841, 876.6907
450.5662, 873.9917
451.0483, 870.9000
451.5304, 867.7562
452.0125, 866.4413
452.4947, 867.5740
452.9768, 868.5931
453.4589, 867.8555
453.9410, 865.2946
454.4231, 863.2695
454.9052, 861.8679
455.3874, 860.7754
455.8695, 859.2921
456.3516, 857.5701
456.8337, 856.9168
457.3158, 858.5961
457.7979, 860.8729
458.2801, 859.8566
458.7622, 856.0635
459.2443, 853.0765
459.7264, 855.0118
460.2085, 858.6124
460.6906, 859.3057
461.1728, 855.9886
461.6549, 851.9614
462.1370, 848.4786
462.6191, 846.0750
463.1012, 845.6334
463.5833, 849.9984
464.0655, 854.0371
464.5476, 855.1219
465.0297, 853.5228
465.5118, 851.9678
465.9939, 851.3912
466.4760, 850.8993
466.9582, 849.9017
467.4403, 847.2460
467.9224, 846.0817
468.4045, 847.6844
468.8866, 850.2741
469.3687, 851.2446
469.8509, 849.5582
470.3330, 848.2021
470.8151, 848.4450
471.2972, 849.9135
471.7793, 848.0563
472.2614, 841.6364
472.7436, 835.2363
473.2257, 832.2759
473.7078, 832.8076
474.1899, 833.3166
474.6720, 833.5306
475.1541, 833.6771
475.6363, 834.7341
476.1184, 836.3488
476.6005, 836.2043
477.0826, 832.2444
477.5647, 826.6401
478.0468, 822.7567
478.5290, 820.5119
479.0111, 819.1656
479.4932, 819.5355
479.9753, 819.9365
480.4574, 817.9995
480.9395, 812.5676
481.4217, 807.2213
481.9038, 804.4435
482.3859, 803.1531
482.8680, 801.8093
483.3501, 799.9230
483.8322, 797.8690
484.3144, 796.0095
484.7965, 794.2820
485.2786, 791.6377
485.7607, 786.9036
486.2428, 782.0278
486.7249, 777.8171
487.2071, 773.6971
487.6892, 771.8077
488.1713, 774.2418
488.6534, 777.4565
489.1355, 775.7700
489.6176, 767.1246
490.0998, 759.6013
490.5819, 755.0956
491.0640, 753.1834
491.5461, 752.2828
492.0282, 752.6383
492.5103, 752.2781
492.9925, 748.7323
493.4746, 742.9232
493.9567, 740.6243
494.4388, 742.8362
494.9209, 745.1794
495.4030, 741.3739
495.8852, 733.7095
496.3673, 727.8868
496.8494, 726.8073
497.3315, 727.7689
497.8136, 729.5900
498.2957, 731.6579
498.7779, 731.4113
499.2600, 725.3035
499.7421, 717.9208
500.2242, 712.6178
500.7063, 710.2471
501.1884, 707.7384
501.6706, 704.4528
502.1527, 700.4897
502.6348, 695.9955
503.1169, 691.1976
503.5990, 685.5973
504.0811, 678.2315
504.5633, 669.9886
505.0454, 664.2399
505.5275, 662.6366
506.0096, 660.8737
506.4917, 657.3841
506.9738, 652.0849
507.4560, 645.2629
507.9381, 636.3441
508.4202, 627.4369
508.9023, 621.1305
509.3844, 617.2473
509.8665, 612.6072
510.3487, 606.3732
510.8308, 599.5833
511.3129, 593.3286
511.7950, 587.8293
512.2772, 584.1073
512.7593, 584.7032
513.2414, 586.3156
513.7235, 584.5701
514.2056, 579.5065
514.6877, 574.1445
515.1699, 570.0553
515.6520, 566.7325
516.1341, 563.8036
516.6162, 561.5670
517.0983, 558.9398
517.5804, 554.5509
518.0626, 549.7169
518.5447, 546.6005
519.0268, 546.7584
519.5089, 547.3903
519.9910, 548.1401
520.4731, 548.9648
520.9553, 549.1439
521.4374, 548.5626
521.9195, 547.5165
522.4016, 545.9562
522.8837, 543.6344
523.3658, 542.2300
523.8480, 541.8593
524.3301, 542.2087
524.8122, 543.3026
525.2943, 545.0489
525.7764, 545.7083
526.2585, 544.1432
526.7407, 542.0078
527.2228, 542.4797
527.7049, 545.2535
528.1870, 548.4860
528.6691, 551.3040
529.1512, 553.8759
529.6334, 556.1754
530.1155, 558.1920
530.5976, 560.7773
531.0797, 565.2016
531.5618, 570.1132
532.0439, 574.0255
532.5261, 574.9517
533.0082, 577.2242
533.4903, 582.8369
533.9724, 590.4697
534.4545, 597.4502
534.9366, 603.3666
535.4188, 608.7302
535.9009, 613.1896
536.3830, 616.8008
536.8651, 621.9553
537.3472, 629.0269
537.8293, 636.8972
538.3115, 645.0478
538.7936, 653.5311
539.2757, 661.1073
539.7578, 667.4530
540.2399, 673.4992
540.7220, 680.4979
541.2042, 688.3123
541.6863, 696.7628
542.1684, 706.4960
542.6505, 716.1067
543.1326, 723.7706
543.6147, 729.6095
544.0969, 734.2662
544.5790, 738.3732
545.0611, 741.1349
545.5432, 741.6334
546.0253, 739.7369
546.5074, 736.9504
546.9896, 733.2944
547.4717, 729.3701
547.9538, 725.7076
548.4359, 724.1434
548.9180, 720.4354
549.4001, 713.5638
549.8823, 704.5880
550.3644, 695.2992
550.8465, 685.9503
551.3286, 675.5726
551.8107, 663.5142
552.2928, 650.0651
552.7750, 637.6759
553.2571, 626.2601
553.7392, 615.9918
554.2213, 608.0485
554.7034, 601.7656
555.1855, 592.3409
555.6677, 579.2205
556.1498, 565.3500
556.6319, 553.4041
557.1140, 543.1553
557.5961, 534.4559
558.0782, 528.0931
558.5604, 521.8197
559.0425, 513.7138
559.5246, 504.3633
560.0067, 495.1094
560.4888, 485.8085
560.9709, 477.4412
561.4531, 471.1420
561.9352, 466.8834
562.4173, 461.6597
562.8994, 453.8900
563.3815, 446.0233
563.8636, 439.2664
564.3458, 434.2247
564.8279, 428.7222
565.3100, 422.3494
565.7921, 415.9629
566.2742, 410.9091
566.7563, 407.3200
567.2385, 403.4504
567.7206, 398.7545
568.2027, 393.8236
568.6848, 390.0981
569.1669, 387.4600
569.6490, 385.4321
570.1312, 384.6322
570.6133, 383.8529
571.0954, 380.9976
571.5775, 376.1166
572.0596, 371.2529
572.5417, 367.4798
573.0239, 364.3784
573.5060, 361.7238
573.9881, 359.6281
574.4702, 357.4754
574.9523, 355.1537
575.4344, 352.6198
575.9166, 349.8266
576.3987, 345.2794
576.8808, 342.4964
577.3629, 342.9670
577.8450, 345.3390
578.3271, 344.9089
578.8093, 340.7928
579.2914, 336.4977
579.7735, 333.4454
580.2556, 331.5215
580.7377, 329.6819
581.2198, 327.9535
581.7020, 326.0490
582.1841, 323.0750
582.6662, 319.8071
583.1483, 318.5152
583.6304, 319.9055
584.1125, 321.1294
584.5947, 319.1484
585.0768, 315.5299
585.5589, 312.5727
586.0410, 311.6642
586.5231, 310.9063
587.0052, 309.4700
587.4873, 307.5928
587.9694, 305.9315
588.4515, 305.0601
588.9337, 303.9374
589.4158, 301.9613
589.8979, 299.1206
590.3800, 297.5414
590.8621, 297.6222
591.3442, 298.2537
591.8264, 299.0963
592.3085, 300.2568
592.7906, 299.5488
593.2727, 296.4219
593.7548, 293.1364
594.2369, 292.9287
594.7191, 294.9294
595.2012, 295.6878
595.6833, 293.9166
596.1654, 291.4599
596.6475, 290.1372
597.1296, 289.7092
597.6118, 289.5889
598.0939, 289.3742
598.5760, 289.5269
599.0581, 290.7438
599.5402, 292.8186
600.0223, 294.0491
600.5045, 293.3988
600.9866, 292.3880
601.4687, 291.6158
601.9508, 291.0255
602.4329, 291.0311
602.9150, 292.0271
603.3972, 293.0717
603.8793, 293.2013
604.3614, 292.3029
604.8435, 291.6489
605.3256, 291.3470
605.8077, 291.4278
606.2899, 292.1987
606.7720, 293.4874
607.2541, 294.4616
607.7362, 294.7155
608.2183, 294.6036
608.7004, 294.4871
609.1826, 294.3459
609.6647, 294.1150
610.1468, 293.4287
610.6289, 292.9137
611.1110, 293.2615
611.5931, 294.5547
612.0753, 295.0330
612.5574, 293.0449
613.0395, 291.1754
613.5216, 290.9763
614.0037, 293.3139
614.4858, 295.1121
614.9680, 296.3021
615.4501, 297.0433
615.9322, 297.4352
616.4143, 297.4557
616.8964, 297.5364
617.3785, 297.8510
617.8607, 298.0777
618.3428, 297.6547
618.8249, 296.6499
619.3070, 295.3456
619.7891, 293.2674
620.2712, 291.3873
620.7534, 291.2127
621.2355, 292.3046
621.7176, 292.6213
622.1997, 290.8243
622.6818, 288.2625
623.1639, 285.5288
623.6461, 282.6171
624.1282, 279.9864
624.6103, 277.3131
625.0924, 275.2386
625.5745, 274.3889
626.0566, 275.6509
626.5388, 275.4537
627.0209, 273.3593
627.5030, 270.4110
627.9851, 267.7088
628.4672, 265.2995
628.9493, 263.9292
629.4315, 264.2007
629.9136, 264.8066
630.3957, 263.3287
630.8778, 260.4415
631.3599, 258.1834
631.8420, 257.9662
632.3242, 258.4175
632.8063, 258.7002
633.2884, 258.7975
633.7705, 258.7289
634.2526, 258.4985
634.7347, 258.1096
635.2169, 257.4973
635.6990, 256.6033
636.1811, 255.8913
636.6632, 255.4557
637.1453, 255.0786
637.6274, 254.6468
638.1096, 254.1769
638.5917, 253.4267
639.0738, 252.2765
639.5559, 251.1398
640.0380, 250.7701
640.5201, 250.9228
641.0023, 250.5045
641.4844, 249.0871
641.9665, 247.2917
642.4486, 245.2527
642.9307, 243.3309
643.4128, 242.3344
643.8950, 243.8895
644.3771, 245.1858
644.8592, 244.4952
645.3413, 242.2412
645.8234, 240.7619
646.3055, 241.0620
646.7877, 241.5802
647.2698, 241.9502
647.7519, 242.1850
648.2340, 241.8844
648.7161, 240.9129
649.1982, 239.7781
649.6804, 238.8609
650.1625, 238.1302
650.6446, 237.1892
651.1267, 235.9601
651.6088, 234.9928
652.0909, 235.2877
652.5731, 236.1603
653.0552, 236.2504
653.5373, 234.7554
654.0194, 233.5974
654.5015, 234.9283
654.9836, 237.0794
655.4658, 237.6089
655.9479, 233.7956
656.4300, 230.7300
656.9121, 229.8627
657.3942, 230.4286
657.8763, 230.3002
658.3585, 228.9894
658.8406, 228.1311
659.3227, 228.3385
659.8048, 229.4072
660.2869, 230.4186
660.7690, 231.3788
661.2512, 231.9735
661.7333, 231.6523
662.2154, 230.9188
662.6975, 231.1018
663.1796, 232.1904
663.6617, 232.4892
664.1439, 229.8020
664.6260, 226.4128
665.1081, 224.4044
665.5902, 224.4659
666.0723, 224.7733
666.5544, 225.1027
667.0366, 225.3773
667.5187, 225.5586
668.0008, 225.8223
668.4829, 225.5772
668.9650, 224.5277
669.4471, 223.2797
669.9293, 222.8690
670.4114, 223.3064
670.8935, 223.7144
671.3756, 223.8553
671.8577, 223.8538
672.3398, 224.0736
672.8220, 224.3606
673.3041, 224.1953
673.7862, 222.5678
674.2683, 221.0241
674.7504, 221.0841
675.2325, 222.3694
675.7147, 222.9443
676.1968, 221.4515
676.6789, 219.8250
677.1610, 219.0239
677.6431, 219.1024
678.1252, 218.5860
678.6074, 217.0160
679.0895, 215.7185
679.5716, 215.9113
680.0537, 217.5958
680.5358, 217.7907
681.0179, 216.2842
681.5001, 214.5049
681.9822, 214.0223
682.4643, 214.2787
682.9464, 214.0136
683.4285, 212.7887
683.9106, 211.9140
684.3928, 212.7232
684.8749, 214.2490
685.3570, 215.3277
685.8391, 215.6834
686.3212, 215.5640
686.8033, 214.6584
687.2855, 213.4085
687.7676, 212.4921
688.2497, 211.9617
688.7318, 211.6348
689.2139, 211.5339
689.6960, 211.5611
690.1782, 211.3282
690.6603, 210.8670
691.1424, 210.7998
691.6245, 212.0237
692.1066, 213.4202
692.5887, 212.9957
693.0709, 211.1014
693.5530, 209.2370
694.0351, 207.7550
694.5172, 206.9632
694.9993, 207.3646
695.4814, 209.0122
695.9636, 210.2185
696.4457, 210.5428
696.9278, 210.5550
697.4099, 210.5378
697.8920, 210.5543
698.3741, 209.9524
698.8563, 208.4817
699.3384, 207.1632
699.8205, 207.2485
700.3026, 208.3600
700.7847, 208.6008
701.2668, 207.6820
701.7490, 206.6025
702.2311, 205.8832
702.7132, 205.7506
703.1953, 206.6978
703.6774, 209.6586
704.1595, 211.9928
704.6417, 212.4399
705.1238, 211.7767
705.6059, 211.0221
706.0880, 209.7684
706.5701, 209.2736
707.0522, 210.0249
707.5344, 211.3307
708.0165, 211.6845
708.4986, 211.0267
708.9807, 210.3107
709.4628, 209.6815
709.9449, 209.3244
710.4271, 209.8717
710.9092, 211.0646
711.3913, 211.9644
711.8734, 211.8243
712.3555, 211.4267
712.8376, 211.4986
713.3198, 211.8673
713.8019, 211.6469
714.2840, 209.6736
714.7661, 207.9939
715.2482, 207.4438
715.7303, 207.9845
716.2125, 208.4110
716.6946, 208.5814
717.1767, 209.0342
717.6588, 210.4499
718.1409, 212.5882
718.6230, 213.3078
719.1052, 212.5859
719.5873, 211.6457
720.0694, 211.3133
720.5515, 211.4087
721.0336, 211.6973
721.5157, 212.1436
721.9979, 212.8448
722.4800, 214.7705
722.9621, 216.3882
723.4442, 216.3289
723.9263, 213.2616
724.4084, 211.1501
724.8906, 210.1746
725.3727, 209.9179
725.8548, 209.9600
726.3369, 210.2891
726.8190, 211.2748
727.3011, 213.1362
727.7833, 214.9793
728.2654, 215.3503
728.7475, 214.7907
729.2296, 214.6724
729.7117, 215.7522
730.1938, 216.5859
730.6760, 215.3647
731.1581, 213.4764
731.6402, 213.0385
732.1223, 216.8990
732.6044, 219.2843
733.0865, 218.5925
733.5687, 216.2522
734.0508, 215.3012
734.5329, 216.0625
735.0150, 216.8717
735.4971, 217.2631
735.9792, 217.4776
736.4614, 218.2303
736.9435, 219.3719
737.4256, 220.1326
737.9077, 219.6899
738.3898, 219.0343
738.8719, 219.0249
739.3541, 219.5638
739.8362, 220.3115
740.3183, 221.5583
740.8004, 222.5791
741.2825, 222.9334
741.7646, 222.7264
742.2468, 222.7871
742.7289, 223.1174
743.2110, 223.7140
743.6931, 224.7363
744.1752, 226.0448
744.6573, 226.8513
745.1395, 227.1550
745.6216, 227.1315
746.1037, 225.7498
746.5858, 224.7477
747.0679, 227.3358
747.5500, 233.4257
748.0322, 237.6883
748.5143, 236.0403
748.9964, 233.1195
749.4785, 231.6153
749.9606, 231.8916
750.4427, 232.6631
750.9249, 234.2069
751.4070, 235.7944
751.8891, 236.7541
752.3712, 237.1129
752.8533, 238.1801
753.3354, 240.0607
753.8176, 242.0665
754.2997, 243.7129
754.7818, 245.0046
755.2639, 245.7475
755.7460, 245.7370
756.2281, 246.3050
756.7103, 249.0592
757.1924, 252.1645
757.6745, 253.8844
758.1566, 252.4462
758.6387, 252.9242
759.1208, 256.6390
759.6030, 260.6780
760.0851, 261.4763
760.5672, 258.8816
761.0493, 258.1018
761.5314, 259.8913
762.0135, 262.8007
762.4957, 265.6682
762.9778, 268.2812
763.4599, 270.1886
763.9420, 270.9831
764.4241, 271.7459
764.9063, 271.7823
765.3884, 272.6431
765.8705, 276.3225
766.3526, 289.3276
766.8347, 295.6733
767.3168, 291.8524
767.7990, 283.7280
768.2811, 280.1960
768.7632, 281.4778
769.2453, 282.8313
769.7274, 283.3328
770.2095, 283.4611
770.6917, 283.8497
771.1738, 284.3801
771.6559, 284.7870
772.1380, 284.8214
772.6201, 284.9200
773.1022, 285.0729
773.5844, 285.4920
774.0665, 286.5806
774.5486, 288.9041
775.0307, 291.1732
775.5128, 293.3829
775.9949, 295.3581
776.4771, 296.4254
776.9592, 296.5460
777.4413, 297.2612
777.9234, 299.1467
778.4055, 301.6694
778.8876, 304.1525
779.3698, 306.6135
779.8519, 309.1048
780.3340, 312.2865
780.8161, 314.8078
781.2982, 315.3264
781.7803, 314.7130
782.2625, 315.3525
782.7446, 317.5928
783.2267, 320.7756
783.7088, 325.2281
784.1909, 330.2973
784.6730, 333.8707
785.1552, 335.9799
785.6373, 338.6167
786.1194, 342.8077
786.6015, 347.6408
787.0836, 351.6263
787.5657, 355.0892
788.0479, 358.9205
788.5300, 363.6919
789.0121, 368.6581
789.4942, 373.1419
789.9763, 377.4736
790.4584, 382.9489
790.9406, 390.2108
791.4227, 397.3120
791.9048, 403.7646
792.3869, 409.6032
792.8690, 414.4754
793.3511, 418.5324
793.8333, 423.4824
794.3154, 430.3803
794.7975, 438.3964
795.2796, 446.9032
795.7617, 455.7422
796.2438, 463.9764
796.7260, 470.9452
797.2081, 477.6642
797.6902, 484.0565
798.1723, 490.3896
798.6544, 498.0099
799.1365, 507.5801
799.6187, 516.5597
800.1008, 524.0279
800.5829, 530.3845
801.0650, 536.8538
801.5471, 543.3280
802.0292, 549.3236
802.5114, 553.5207
802.9935, 557.8992
803.4756, 565.0767
803.9577, 574.0602
804.4398, 581.4117
804.9219, 585.3545
805.4041, 588.3605
805.8862, 591.0714
806.3683, 593.4735
806.8504, 595.4032
807.3325, 596.7330
807.8146, 598.3336
808.2968, 601.0630
808.7789, 603.8490
809.2610, 604.0780
809.7431, 602.1505
810.2252, 599.6935
810.7073, 597.3136
811.1895, 594.9159
811.6716, 592.4653
812.1537, 589.9399
812.6358, 587.2649
813.1179, 584.7491
813.6000, 581.6134
814.0822, 577.4319
814.5643, 572.5582
815.0464, 568.5416
815.5285, 565.4246
816.0106, 561.7764
816.4927, 556.8823
816.9749, 551.2736
817.4570, 545.6516
817.9391, 539.9993
818.4212, 534.0950
818.9033, 527.5542
819.3854, 521.1016
819.8676, 515.2371
820.3497, 509.7409
820.8318, 503.8314
821.3139, 496.9975
821.7960, 491.1791
822.2781, 487.2543
822.7603, 484.2618
823.2424, 479.4285
823.7245, 473.0198
824.2066, 466.9246
824.6887, 461.9332
825.1708, 457.4595
825.6530, 453.5723
826.1351, 449.6645
826.6172, 444.5379
827.0993, 435.5246
827.5814, 428.0647
828.0635, 423.8709
828.5457, 421.4968
829.0278, 417.7545
829.5099, 412.4442
829.9920, 407.1285
830.4741, 401.9668
830.9562, 397.4267
831.4384, 394.3008
831.9205, 392.3653
832.4026, 391.1013
832.8847, 391.3179
833.3668, 390.6867
833.8489, 387.2790
834.3311, 382.4258
834.8132, 378.4081
835.2953, 375.6050
835.7774, 373.1060
836.2595, 370.7251
836.7416, 368.7578
837.2238, 368.2249
837.7059, 368.8491
838.1880, 367.8561
838.6701, 364.0173
839.1522, 360.2943
839.6343, 360.6634
840.1165, 362.7479
840.5986, 363.0633
841.0807, 359.0096
841.5628, 355.8903
842.0449, 355.2103
842.5270, 355.6403
843.0092, 356.1005
843.4913, 356.7252
843.9734, 356.6085
844.4555, 355.6360
844.9376, 354.0462
845.4197, 351.0860
845.9019, 347.9258
846.3840, 347.4186
846.8661, 350.7029
847.3482, 353.6995
847.8303, 353.6860
848.3124, 352.5954
848.7946, 352.2326
849.2767, 353.3582
849.7588, 353.4286
850.2409, 351.8342
850.7230, 350.3346
851.2051, 350.7540
851.6873, 352.7626
852.1694, 354.2086
852.6515, 354.9420
853.1336, 355.5290
853.6157, 356.0085
854.0978, 356.8449
854.5800, 358.9144
855.0621, 362.5885
855.5442, 364.9099
856.0263, 363.6906
856.5084, 362.6533
856.9905, 363.8928
857.4727, 367.4091
857.9548, 369.3877
858.4369, 369.7271
858.9190, 369.7353
859.4011, 370.1590
859.8832, 370.9365
860.3654, 372.1229
860.8475, 373.6500
861.3296, 374.9888
861.8117, 375.2841
862.2938, 375.9243
862.7759, 377.6933
863.2581, 380.4556
863.7402, 383.5989
864.2223, 387.2916
864.7044, 390.7512
865.1865, 393.7813
865.6686, 396.2650
866.1508, 397.2541
866.6329, 397.1902
867.1150, 397.9518
867.5971, 401.0102
868.0792, 404.7150
868.5613, 408.5882
869.0435, 412.3661
869.5256, 415.0993
870.0077, 416.2496
870.4898, 417.1907
870.9719, 417.7818
871.4540, 418.7062
871.9362, 422.3259
872.4183, 428.1412
872.9004, 431.8569
873.3825, 430.9938
873.8646, 430.0338
874.3467, 434.3013
874.8289, 441.0518
875.3110, 446.0821
875.7931, 445.9713
876.2752, 447.1363
876.7573, 451.3578
877.2394, 455.9194
877.7216, 457.1564
878.2037, 454.8052
878.6858, 453.7234
879.1679, 454.5778
879.6500, 456.2410
880.1321, 458.5208
880.6143, 460.4149
881.0964, 459.9940
881.5785, 456.2186
882.0606, 453.4176
882.5427, 453.6615
883.0248, 455.0334
883.5070, 456.3446
883.9891, 457.7167
884.4712, 458.5323
884.9533, 458.9521
885.4354, 457.9532
885.9175, 453.5706
886.3997, 447.5263
886.8818, 443.5951
887.3639, 441.7635
887.8460, 439.9965
888.3281, 436.7593
888.8102, 433.6905
889.2924, 431.8780
889.7745, 431.2464
890.2566, 430.5722
890.7387, 430.2668
891.2208, 428.5912
891.7029, 424.1239
892.1851, 418.2509
892.6672, 414.6220
893.1493, 412.8122
893.6314, 411.0545
894.1135, 407.9994
894.5956, 405.1560
895.0778, 403.2287
895.5599, 402.1670
896.0420, 401.9754
896.5241, 403.4276
897.0062, 404.0740
897.4883, 403.5380
897.9705, 401.9916
898.4526, 398.9970
898.9347, 395.0867
899.4168, 392.9694
899.8989, 393.8539
900.3810, 395.0030
900.8632, 393.7969
901.3453, 391.8369
901.8274, 391.0128
902.3095, 393.0154
902.7916, 393.6476
903.2737, 392.3110
903.7559, 390.4345
904.2380, 389.2220
904.7201, 388.6212
905.2022, 388.1990
905.6843, 387.9258
906.1664, 388.0689
906.6486, 389.3664
907.1307, 390.8257
907.6128, 391.4763
908.0949, 391.1788
908.5770, 390.9034
909.0591, 390.3672
909.5413, 390.5298
910.0234, 392.3053
910.5055, 395.1721
910.9876, 395.3793
911.4697, 393.0809
911.9518, 391.1404
912.4340, 391.6729
912.9161, 392.9243
913.3982, 393.3496
913.8803, 393.0582
914.3624, 392.3565
914.8445, 391.0207
915.3267, 389.6196
915.8088, 388.0357
916.2909, 386.5958
916.7730, 386.2941
917.2551, 387.0813
917.7372, 386.8649
918.2194, 384.9550
918.7015, 382.5954
919.1836, 381.6594
919.6657, 380.9189
920.1478, 378.5724
920.6299, 373.2711
921.1121, 368.3305
921.5942, 363.8482
922.0763, 360.1770
922.5584, 357.8968
923.0405, 357.0754
923.5226, 355.7445
924.0048, 353.8798
924.4869, 351.1371
924.9690, 346.2692
925.4511, 340.9316
925.9332, 337.2363
926.4153, 335.2145
926.8975, 333.0255
927.3796, 330.1889
927.8617, 327.0233
928.3438, 323.3798
928.8259, 319.4777
929.3080, 316.7053
929.7902, 315.0210
930.2723, 312.6192
930.7544, 308.0180
931.2365, 303.1478
931.7186, 300.7281
932.2007, 299.7126
932.6829, 297.9590
933.1650, 293.6419
933.6471, 290.1591
934.1292, 288.4759
934.6113, 287.3541
935.0934, 284.9195
935.5756, 281.1725
936.0577, 277.9356
936.5398, 275.4648
937.0219, 273.7110
937.5040, 273.1274
937.9861, 273.0142
938.4683, 272.6861
938.9504, 272.1238
939.4325, 270.8198
939.9146, 268.2759
940.3967, 265.5638
940.8788, 263.1063
941.3610, 260.9304
941.8431, 259.3154
942.3252, 258.2376
942.8073, 257.3974
943.2894, 256.9660
943.7715, 256.4005
944.2537, 255.1040
944.7358, 253.2249
945.2179, 251.3216
945.7000, 249.1013
946.1821, 247.4858
946.6642, 246.7743
947.1464, 246.6098
947.6285, 246.2531
948.1106, 245.7415
948.5927, 245.3661
949.0748, 245.2074
949.5569, 245.1792
950.0391, 245.4701
950.5212, 245.7160
951.0033, 245.4773
951.4854, 244.4578
951.9675, 243.4191
952.4496, 242.3153
952.9318, 241.2938
953.4139, 240.1746
953.8960, 239.1599
954.3781, 239.8058
954.8602, 242.0262
955.3423, 244.1406
955.8245, 245.0376
956.3066, 245.4160
956.7887, 245.4043
957.2708, 245.1866
957.7529, 245.9237
958.2350, 248.1701
958.7172, 250.1759
959.1993, 251.6044
959.6814, 252.3700
960.1635, 251.7764
960.6456, 250.3162
961.1277, 249.5803
961.6099, 250.2514
962.0920, 251.4389
962.5741, 253.3466
963.0562, 255.1156
963.5383, 255.6650
964.0204, 254.4082
964.5026, 253.6997
964.9847, 253.7116
965.4668, 253.7268
965.9489, 252.9480
966.4310, 251.7418
966.9131, 250.8505
967.3953, 250.3087
967.8774, 249.8072
968.3595, 249.4600
968.8416, 248.8607
969.3237, 248.1076
969.8058, 246.9864
970.2880, 244.0594
970.7701, 239.0141
971.2522, 234.5531
971.7343, 231.4718
972.2164, 229.5511
972.6985, 229.1348
973.1807, 229.4657
973.6628, 229.1092
974.1449, 227.6441
974.6270, 225.3791
975.1091, 221.6648
975.5912, 217.8141
976.0734, 215.1398
976.5555, 213.6823
977.0376, 211.7062
977.5197, 209.1196
978.0018, 206.7937
978.4839, 205.8306
978.9661, 205.1940
979.4482, 203.5903
979.9303, 201.0409
980.4124, 199.3653
980.8945, 199.4395
981.3766, 199.3886
981.8588, 198.5615
982.3409, 197.3224
982.8230, 196.8383
983.3051, 196.9334
983.7872, 196.6610
984.2693, 195.5025
984.7515, 194.2276
985.2336, 193.4953
985.7157, 192.9097
986.1978, 191.9197
986.6799, 190.2070
987.1620, 188.8424
987.6442, 188.0256
988.1263, 186.9890
988.6084, 184.5105
989.0905, 181.4105
989.5726, 179.8025
990.0547, 179.7068
990.5369, 180.1940
991.0190, 181.4135
991.5011, 182.4690
991.9832, 183.0930
992.4653, 183.2113
992.9474, 182.3134
993.4296, 180.2812
993.9117, 178.4426
994.3938, 177.2551
994.8759, 176.2914
995.3580, 174.8206
995.8401, 173.2389
996.3223, 172.1488
996.8044, 171.8529
997.2865, 171.7628
997.7686, 172.0781
998.2507, 172.2060
998.7328, 171.4870
999.2150, 169.9925
999.6971, 169.3203
1000.179, 169.4732
1000.661, 169.8131
1001.143, 170.0381
1001.626, 170.1628
1002.108, 170.3686
1002.590, 170.5244
1003.072, 169.9327
1003.554, 168.0921
1004.036, 166.7359
1004.518, 166.3374
1005.000, 166.3747
1005.482, 165.8673
1005.965, 165.0901
1006.447, 164.9242
1006.929, 165.8286
1007.411, 166.3037
1007.893, 165.1697
1008.375, 163.6752
1008.857, 162.8112
1009.339, 162.6469
1009.822, 161.9724
1010.304, 160.7257
1010.786, 159.6717
1011.268, 159.4902
1011.750, 159.6590
1012.232, 159.6996
1012.714, 159.5412
1013.196, 158.9954
1013.678, 157.4469
1014.161, 156.2404
1014.643, 155.5150
1015.125, 155.2865
1015.607, 155.9177
1016.089, 157.1848
1016.571, 157.5837
1017.053, 156.8247
1017.535, 155.9900
1018.018, 156.0565
1018.500, 156.2659
1018.982, 155.9969
1019.464, 155.2005
1019.946, 154.3168
1020.428, 153.1749
1020.910, 152.6416
1021.392, 153.4612
1021.874, 154.7073
1022.357, 154.3925
1022.839, 153.0824
1023.321, 152.0992
1023.803, 152.0874
1024.285, 152.2321
1024.767, 152.5034
1025.249, 152.7043
1025.731, 152.5499
1026.214, 152.0319
1026.696, 151.9560
1027.178, 152.3726
1027.660, 152.7691
1028.142, 152.8715
1028.624, 152.6814
1029.106, 151.8956
1029.588, 150.6832
1030.070, 150.3681
1030.553, 151.6138
1031.035, 152.2750
1031.517, 151.6565
1031.999, 150.4993
1032.481, 150.1155
1032.963, 150.2627
1033.445, 150.3311
1033.927, 150.1722
1034.410, 149.9193
1034.892, 149.3440
1035.374, 148.9610
1035.856, 149.3186
1036.338, 150.4564
1036.820, 150.2514
1037.302, 148.6801
1037.784, 147.1980
1038.266, 146.7032
1038.749, 146.7256
1039.231, 147.0939
1039.713, 147.5923
1040.195, 147.6731
1040.677, 146.7241
1041.159, 146.3342
1041.641, 146.8426
1042.123, 147.5282
1042.605, 147.6412
1043.088, 147.2066
1043.570, 146.0200
1044.052, 144.0647
1044.534, 142.6045
1045.016, 142.5569
1045.498, 142.9684
1045.980, 143.5945
1046.462, 144.2600
1046.945, 143.9567
1047.427, 142.6329
1047.909, 141.8890
1048.391, 142.5277
1048.873, 143.3150
1049.355, 142.7950
1049.837, 141.6674
1050.319, 140.8876
1050.802, 140.8788
1051.284, 140.6184
1051.766, 139.8987
1052.248, 139.3705
1052.730, 139.8108
1053.212, 140.7628
1053.694, 140.6407
1054.176, 139.6524
1054.658, 138.7862
1055.141, 138.7577
1055.623, 138.6663
1056.105, 138.1675
1056.587, 137.4212
1057.069, 136.5261
1057.551, 135.4635
1058.033, 135.0293
1058.515, 135.3929
1058.997, 135.7433
1059.480, 135.1713
1059.962, 134.3671
1060.444, 134.2351
1060.926, 134.8269
1061.408, 134.1042
1061.890, 131.3383
1062.372, 129.1280
1062.854, 128.5259
1063.337, 128.7266
1063.819, 128.1913
1064.301, 127.2814
1064.783, 126.8035
1065.265, 127.0974
1065.747, 127.5860
1066.229, 128.8444
1066.711, 129.5005
1067.193, 128.2972
1067.676, 125.3892
1068.158, 123.7006
1068.640, 123.1821
1069.122, 123.1638
1069.604, 123.5141
1070.086, 123.9380
1070.568, 124.3904
1071.050, 124.7371
1071.532, 124.6783
1072.015, 124.0619
1072.497, 123.5952
1072.979, 123.3732
1073.461, 123.1796
1073.943, 122.8456
1074.425, 122.3635
1074.907, 121.6622
1075.389, 120.7545
1075.872, 119.8812
1076.354, 118.9836
1076.836, 118.3214
1077.318, 118.0190
1077.800, 117.9509
1078.282, 117.7488
1078.764, 117.5164
1079.246, 117.7041
1079.729, 118.5806
1080.211, 119.3356
1080.693, 119.6221
1081.175, 119.5142
1081.657, 119.0856
1082.139, 118.3383
1082.621, 117.2062
1083.103, 115.6663
1083.585, 114.6225
1084.068, 115.1042
1084.550, 115.7219
1085.032, 114.9061
1085.514, 113.3374
1085.996, 112.2634
1086.478, 112.0496
1086.960, 111.9444
1087.442, 112.0883
1087.924, 111.8243
1088.406, 109.8034
1088.889, 107.2696
1089.371, 106.9449
1089.853, 108.5392
1090.335, 109.4351
1090.817, 107.6626
1091.299, 106.3822
1091.781, 106.4697
1092.263, 107.2852
1092.746, 107.8944
1093.228, 108.2308
1093.710, 107.7967
1094.192, 106.4221
1094.674, 105.1262
1095.156, 104.4775
1095.638, 104.2214
1096.120, 104.3179
1096.603, 104.6797
1097.085, 104.6822
1097.567, 104.3004
1098.049, 104.0066
1098.531, 103.3988
1099.013, 104.1703
1099.495, 111.2077
1099.977, 119.2016
1100.459, 120.7835
1100.942, 111.8509
1101.424, 105.9234
1101.906, 103.4472
1102.388, 102.5162
1102.870, 102.4248
1103.352, 102.7195
1103.834, 102.4783
1104.316, 101.8769
1104.798, 101.4153
1105.281, 101.2369
1105.763, 101.2862
1106.245, 101.6678
1106.727, 102.0888
1107.209, 102.2066
1107.691, 102.0787
1108.173, 101.2404
1108.655, 99.87759
1109.138, 100.7610
1109.620, 110.1021
1110.102, 116.9281
1110.584, 114.5901
1111.066, 106.9922
1111.548, 101.7803
1112.030, 98.89322
1112.512, 97.36739
1112.995, 97.14088
1113.477, 97.35267
1113.959, 97.35924
1114.441, 97.38887
1114.923, 97.83168
1115.405, 98.64983
1115.887, 98.48911
1116.369, 97.09967
1116.851, 96.17015
1117.333, 96.45480
1117.816, 97.14023
1118.298, 97.22221
1118.780, 96.96947
1119.262, 96.78111
1119.744, 96.81616
1120.226, 96.64036
1120.708, 96.14113
1121.190, 95.68277
1121.673, 95.50777
1122.155, 95.50705
1122.637, 94.58517
1123.119, 93.60461
1123.601, 94.94776
1124.083, 104.6377
1124.565, 109.2427
1125.047, 104.4421
1125.530, 97.32159
1126.012, 94.34038
1126.494, 94.81033
1126.976, 95.36703
1127.458, 95.82041
1127.940, 95.62630
1128.422, 93.68081
1128.904, 91.90784
1129.386, 91.22376
1129.869, 91.19070
1130.351, 91.19277
1130.833, 91.23360
1131.315, 91.62566
1131.797, 92.42998
1132.279, 93.16468
1132.761, 93.49208
1133.243, 93.56897
1133.725, 93.42168
1134.208, 93.10633
1134.690, 92.77676
1135.172, 92.37276
1135.654, 92.55103
1136.136, 93.67746
1136.618, 94.64162
1137.100, 93.86069
1137.582, 92.47649
1138.065, 91.78866
1138.547, 92.09877
1139.029, 92.05936
1139.511, 91.61639
1139.993, 90.94596
1140.475, 90.04271
1140.957, 89.07254
1141.439, 88.20461
1141.922, 87.48033
1142.404, 86.97200
1142.886, 86.79530
1143.368, 86.51958
1143.850, 85.77303
1144.332, 85.67201
1144.814, 87.44692
1145.296, 90.08025
1145.778, 90.83183
1146.260, 90.18623
1146.743, 89.58113
1147.225, 89.46588
1147.707, 89.67003
1148.189, 90.43584
1148.671, 91.10825
1149.153, 91.10335
1149.635, 90.50428
1150.117, 89.39157
1150.600, 87.92151
1151.082, 87.09823
1151.564, 88.04269
1152.046, 88.98742
1152.528, 89.25021
1153.010, 89.21451
1153.492, 89.55219
1153.974, 90.16754
1154.457, 89.62587
1154.939, 87.83037
1155.421, 86.53552
1155.903, 87.36953
1156.385, 88.61609
1156.867, 89.44926
1157.349, 89.89400
1157.831, 89.92577
1158.313, 89.53654
1158.796, 89.11031
1159.278, 88.67296
1159.760, 88.50725
1160.242, 89.05049
1160.724, 89.80260
1161.206, 90.46947
1161.688, 90.99895
1162.170, 91.14220
1162.652, 90.88758
1163.135, 90.29382
1163.617, 89.20432
1164.099, 88.36349
1164.581, 88.90292
1165.063, 89.86768
1165.545, 90.18328
1166.027, 89.66729
1166.509, 89.37088
1166.992, 89.30328
1167.474, 89.40999
1167.956, 89.75477
1168.438, 90.10893
1168.920, 90.07214
1169.402, 89.90079
1169.884, 90.00756
1170.366, 90.66275
1170.849, 90.84583
1171.331, 90.34313
1171.813, 90.14345
1172.295, 91.08533
1172.777, 92.40132
1173.259, 92.95277
1173.741, 92.90785
1174.223, 92.57736
1174.705, 91.77174
1175.188, 91.11418
1175.670, 90.54501
1176.152, 90.28560
1176.634, 90.87060
1177.116, 91.69476
1177.598, 91.29499
1178.080, 90.09557
1178.562, 89.40630
1179.044, 90.11768
1179.527, 90.68349
1180.009, 91.00769
1180.491, 91.11418
1180.973, 90.97405
1181.455, 90.65910
1181.937, 90.25282
1182.419, 89.80941
1182.901, 89.54469
1183.384, 89.80287
1183.866, 89.83199
1184.348, 89.28363
1184.830, 88.86411
1185.312, 89.98308
1185.794, 91.82523
1186.276, 91.82723
1186.758, 90.02141
1187.240, 88.91118
1187.723, 90.45470
1188.205, 91.66225
1188.687, 91.75114
1189.169, 91.24434
1189.651, 90.99898
1190.133, 90.87245
1190.615, 90.21391
1191.097, 88.93575
1191.579, 88.33681
1192.062, 89.79119
1192.544, 91.02617
1193.026, 91.18154
1193.508, 90.79094
1193.990, 91.24744
1194.472, 92.17088
1194.954, 91.97713
1195.436, 90.20988
1195.919, 88.98148
1196.401, 89.78688
1196.883, 90.75609
1197.365, 91.23108
1197.847, 91.24017
1198.329, 90.43611
1198.811, 89.19126
1199.293, 89.06978
1199.776, 90.70094
1200.258, 92.31441
1200.740, 93.16127
1201.222, 93.69029
1201.704, 94.13010
1202.186, 94.42979
1202.668, 94.37203
1203.150, 93.98274
1203.632, 93.27741
1204.115, 92.01529
1204.597, 91.15808
1205.079, 91.37362
1205.561, 91.94802
1206.043, 92.52764
1206.525, 93.10890
1207.007, 93.75917
1207.489, 94.39428
1207.971, 94.62136
1208.454, 94.01055
1208.936, 93.52000
1209.418, 93.74117
1209.900, 94.04934
1210.382, 93.96408
1210.864, 93.59396
1211.346, 93.76009
1211.828, 94.36798
1212.311, 94.96809
1212.793, 95.69215
1213.275, 95.86275
1213.757, 94.66835
1214.239, 93.37163
1214.721, 92.85021
1215.203, 93.05968
1215.685, 94.02494
1216.167, 95.52469
1216.650, 96.40271
1217.132, 95.29476
1217.614, 94.51664
1218.096, 95.07664
1218.578, 95.94604
1219.060, 96.35122
1219.542, 96.29216
1220.024, 95.42043
1220.506, 93.97087
1220.989, 93.23761
1221.471, 94.65891
1221.953, 95.84275
1222.435, 96.08078
1222.917, 95.85208
1223.399, 95.34480
1223.881, 94.75674
1224.363, 95.52769
1224.846, 97.37805
1225.328, 98.34296
1225.810, 96.61512
1226.292, 94.94540
1226.774, 93.71896
1227.256, 93.20512
1227.738, 94.24732
1228.220, 96.24241
1228.703, 96.88889
1229.185, 96.23837
1229.667, 95.54540
1230.149, 95.67303
1230.631, 95.33368
1231.113, 93.85626
1231.595, 92.41032
1232.077, 92.84289
1232.559, 94.43343
1233.042, 95.11906
1233.524, 94.85922
1234.006, 94.59377
1234.488, 94.50527
1234.970, 94.80073
1235.452, 95.69897
1235.934, 96.64643
1236.416, 96.89430
1236.898, 96.62102
1237.381, 95.93656
1237.863, 94.97176
1238.345, 94.73992
1238.827, 96.86563
1239.309, 97.63107
1239.791, 95.98569
1240.273, 93.72360
1240.755, 93.08920
1241.238, 93.60906
1241.720, 94.82304
1242.202, 96.54793
1242.684, 97.28463
1243.166, 96.23622
1243.648, 95.25565
1244.130, 94.60948
1244.612, 94.33765
1245.094, 94.64867
1245.577, 95.27634
1246.059, 96.05762
1246.541, 96.90590
1247.023, 96.65832
1247.505, 94.49249
1247.987, 93.61507
1248.469, 95.01981
1248.951, 96.75704
1249.433, 95.89672
1249.916, 94.28484
1250.398, 94.45611
1250.880, 96.43397
1251.362, 96.87966
1251.844, 95.24965
1252.326, 94.13039
1252.808, 94.17722
1253.290, 94.51693
1253.773, 94.24551
1254.255, 93.75316
1254.737, 93.25556
1255.219, 92.86237
1255.701, 93.25583
1256.183, 94.58342
1256.665, 95.39799
1257.147, 95.33858
1257.630, 94.86911
1258.112, 94.07176
1258.594, 93.33556
1259.076, 92.86420
1259.558, 92.74072
1260.040, 93.64272
1260.522, 95.54311
1261.004, 96.65563
1261.486, 96.50076
1261.969, 96.11621
1262.451, 96.27171
1262.933, 96.47990
1263.415, 96.41739
1263.897, 96.14967
1264.379, 95.91624
1264.861, 95.69598
1265.343, 95.17857
1265.825, 94.18908
1266.308, 93.83183
1266.790, 95.79981
1267.272, 97.34783
1267.754, 96.86831
1268.236, 95.31582
1268.718, 95.38707
1269.200, 96.56554
1269.682, 96.89555
1270.165, 95.91695
1270.647, 94.98111
1271.129, 94.32513
1271.611, 94.34744
1272.093, 95.56572
1272.575, 97.00587
1273.057, 96.35326
1273.539, 94.50525
1274.021, 93.51923
1274.504, 93.80520
1274.986, 94.02269
1275.468, 93.72554
1275.950, 93.75751
1276.432, 94.49137
1276.914, 95.41285
1277.396, 95.90987
1277.878, 95.97816
1278.360, 95.39659
1278.843, 94.10477
1279.325, 93.61591
1279.807, 94.23029
1280.289, 94.78897
1280.771, 95.02711
1281.253, 94.92956
1281.735, 93.93823
1282.217, 92.97547
1282.700, 93.16282
1283.182, 94.52440
1283.664, 95.96560
1284.146, 97.55087
1284.628, 98.40834
1285.110, 98.26160
1285.592, 97.65912
1286.074, 96.94538
1286.557, 96.09825
1287.039, 94.78239
1287.521, 93.33821
1288.003, 93.20653
1288.485, 94.28136
1288.967, 95.37885
1289.449, 96.26939
1289.931, 96.88749
1290.413, 97.04958
1290.896, 97.07707
1291.378, 97.17939
1291.860, 97.24065
1292.342, 96.88207
1292.824, 96.23170
1293.306, 95.68288
1293.788, 95.29836
1294.270, 95.13776
1294.752, 95.58835
1295.235, 95.72594
1295.717, 95.11070
1296.199, 94.39691
1296.681, 95.09111
1297.163, 96.34435
1297.645, 96.28577
1298.127, 94.68967
1298.609, 94.45322
1299.092, 96.65863
1299.574, 97.95552
1300.056, 97.41164
1300.538, 96.29182
1301.020, 96.11774
1301.502, 96.24615
1301.984, 95.85252
1302.466, 94.96030
1302.948, 94.49467
1303.431, 94.50061
1303.913, 94.66336
1304.395, 94.94424
1304.877, 95.28505
##END=



