##NAMES=Ganomalite
##RRUFFID=R050387
##IDEAL CHEMISTRY=Pb^2+^_3_Ca_2_(SiO_4_)(Si_2_O_7_)
##LOCALITY=Sells, Pima County, Arizona, USA
##OWNER=RRUFF
##SOURCE=University of Arizona Mineral Museum
##DESCRIPTION=Yellowish-red massive
##STATUS=The identification of this mineral has been confirmed by single-crystal X-ray diffraction.
##URL=rruff.info/R050387
93.48767, 3920.849
93.96979, 4059.950
94.45190, 4194.823
94.93402, 4306.255
95.41614, 4346.043
95.89825, 4341.292
96.38037, 4330.634
96.86249, 4312.864
97.34460, 4285.720
97.82672, 4253.063
98.30884, 4217.777
98.79095, 4177.864
99.27307, 4130.638
99.75519, 4079.571
100.2373, 4039.580
100.7194, 4012.797
101.2015, 3990.596
101.6837, 3969.934
102.1658, 3953.320
102.6479, 3943.398
103.1300, 3940.195
103.6121, 3939.523
104.0942, 3938.019
104.5764, 3936.292
105.0585, 3936.025
105.5406, 3934.048
106.0227, 3933.286
106.5048, 3944.367
106.9869, 3975.072
107.4691, 4004.707
107.9512, 4019.929
108.4333, 4025.569
108.9154, 4033.892
109.3975, 4056.554
109.8796, 4096.128
110.3618, 4132.310
110.8439, 4160.699
111.3260, 4189.215
111.8081, 4221.601
112.2902, 4257.949
112.7723, 4295.905
113.2544, 4332.244
113.7366, 4366.984
114.2187, 4399.598
114.7008, 4427.625
115.1829, 4454.925
115.6650, 4485.260
116.1471, 4520.101
116.6293, 4557.220
117.1114, 4591.268
117.5935, 4620.207
118.0756, 4650.099
118.5577, 4681.737
119.0398, 4715.265
119.5220, 4751.079
120.0041, 4788.082
120.4862, 4829.035
120.9683, 4877.222
121.4504, 4932.978
121.9325, 4994.696
122.4147, 5060.815
122.8968, 5131.229
123.3789, 5206.920
123.8610, 5289.032
124.3431, 5376.808
124.8252, 5470.456
125.3074, 5570.113
125.7895, 5675.562
126.2716, 5787.689
126.7537, 5910.467
127.2358, 6031.667
127.7179, 6147.281
128.2001, 6259.308
128.6822, 6371.976
129.1643, 6487.525
129.6464, 6605.920
130.1285, 6720.297
130.6107, 6832.821
131.0928, 6939.561
131.5749, 7039.194
132.0570, 7131.690
132.5391, 7217.561
133.0212, 7295.943
133.5033, 7365.670
133.9855, 7437.877
134.4676, 7515.240
134.9497, 7592.469
135.4318, 7665.238
135.9139, 7733.575
136.3960, 7802.905
136.8782, 7880.063
137.3603, 7967.627
137.8424, 8048.950
138.3245, 8117.440
138.8066, 8181.195
139.2887, 8248.607
139.7709, 8321.082
140.2530, 8397.533
140.7351, 8477.420
141.2172, 8559.799
141.6993, 8644.233
142.1814, 8730.816
142.6636, 8818.796
143.1457, 8907.161
143.6278, 8999.002
144.1099, 9085.878
144.5920, 9165.456
145.0741, 9237.030
145.5563, 9296.424
146.0384, 9347.148
146.5205, 9392.898
147.0026, 9398.245
147.4847, 9347.438
147.9668, 9258.152
148.4490, 9134.316
148.9311, 8977.799
149.4132, 8790.149
149.8953, 8571.346
150.3774, 8306.971
150.8595, 8034.987
151.3417, 7753.294
151.8238, 7470.879
152.3059, 7193.336
152.7880, 6924.822
153.2701, 6664.017
153.7522, 6411.741
154.2344, 6165.082
154.7165, 5934.398
155.1986, 5723.834
155.6807, 5527.866
156.1628, 5338.960
156.6449, 5153.766
157.1271, 4974.212
157.6092, 4810.236
158.0913, 4660.878
158.5734, 4522.934
159.0555, 4398.695
159.5376, 4286.075
160.0198, 4179.858
160.5019, 4077.712
160.9840, 3980.192
161.4661, 3887.947
161.9482, 3799.600
162.4303, 3717.255
162.9125, 3643.749
163.3946, 3578.865
163.8767, 3518.098
164.3588, 3459.597
164.8409, 3404.093
165.3230, 3352.375
165.8052, 3306.262
166.2873, 3262.721
166.7694, 3217.981
167.2515, 3170.656
167.7336, 3126.447
168.2157, 3089.143
168.6979, 3055.924
169.1800, 3023.558
169.6621, 2990.490
170.1442, 2957.550
170.6263, 2926.949
171.1084, 2899.501
171.5906, 2873.480
172.0727, 2847.373
172.5548, 2822.167
173.0369, 2799.467
173.5190, 2780.716
174.0011, 2765.264
174.4833, 2747.666
174.9654, 2724.604
175.4475, 2702.431
175.9296, 2682.220
176.4117, 2663.929
176.8938, 2647.326
177.3760, 2632.576
177.8581, 2619.795
178.3402, 2604.132
178.8223, 2582.244
179.3044, 2561.122
179.7865, 2543.420
180.2687, 2528.762
180.7508, 2515.634
181.2329, 2503.184
181.7150, 2491.537
182.1971, 2477.203
182.6792, 2457.072
183.1614, 2437.263
183.6435, 2422.115
184.1256, 2411.482
184.6077, 2401.162
185.0898, 2387.308
185.5719, 2369.599
186.0541, 2352.668
186.5362, 2337.171
187.0183, 2322.154
187.5004, 2306.810
187.9825, 2290.992
188.4646, 2275.188
188.9468, 2259.681
189.4289, 2244.516
189.9110, 2229.617
190.3931, 2214.447
190.8752, 2199.722
191.3573, 2186.912
191.8395, 2176.907
192.3216, 2166.588
192.8037, 2152.832
193.2858, 2136.953
193.7679, 2121.777
194.2500, 2109.827
194.7322, 2099.738
195.2143, 2086.583
195.6964, 2068.620
196.1785, 2050.108
196.6606, 2033.135
197.1427, 2017.393
197.6249, 2002.402
198.1070, 1988.023
198.5891, 1974.191
199.0712, 1960.382
199.5533, 1947.676
200.0354, 1933.599
200.5176, 1916.533
200.9997, 1897.433
201.4818, 1878.410
201.9639, 1861.145
202.4460, 1845.653
202.9281, 1830.816
203.4103, 1818.127
203.8924, 1804.846
204.3745, 1789.989
204.8566, 1773.768
205.3387, 1757.202
205.8208, 1741.132
206.3030, 1725.542
206.7851, 1710.069
207.2672, 1694.430
207.7493, 1679.137
208.2314, 1665.174
208.7135, 1652.033
209.1957, 1638.064
209.6778, 1621.501
210.1599, 1601.733
210.6420, 1584.604
211.1241, 1571.238
211.6062, 1558.988
212.0884, 1547.396
212.5705, 1535.990
213.0526, 1523.243
213.5347, 1507.213
214.0168, 1487.323
214.4989, 1471.016
214.9811, 1459.537
215.4632, 1450.246
215.9453, 1442.489
216.4274, 1435.867
216.9095, 1428.407
217.3916, 1418.243
217.8737, 1405.169
218.3559, 1392.352
218.8380, 1379.228
219.3201, 1366.673
219.8022, 1355.679
220.2843, 1346.323
220.7664, 1337.255
221.2486, 1327.235
221.7307, 1316.532
222.2128, 1306.698
222.6949, 1298.570
223.1770, 1291.069
223.6591, 1282.804
224.1413, 1273.550
224.6234, 1264.781
225.1055, 1258.574
225.5876, 1253.581
226.0697, 1247.244
226.5518, 1237.612
227.0340, 1226.962
227.5161, 1219.064
227.9982, 1214.732
228.4803, 1210.295
228.9624, 1202.978
229.4445, 1194.423
229.9267, 1186.643
230.4088, 1180.514
230.8909, 1175.513
231.3730, 1170.877
231.8551, 1166.873
232.3372, 1162.568
232.8194, 1157.718
233.3015, 1152.315
233.7836, 1146.139
234.2657, 1138.868
234.7478, 1131.141
235.2299, 1124.292
235.7121, 1118.101
236.1942, 1113.347
236.6763, 1111.820
237.1584, 1110.994
237.6405, 1107.705
238.1227, 1100.243
238.6048, 1090.830
239.0869, 1085.529
239.5690, 1087.776
240.0511, 1088.117
240.5332, 1083.549
241.0154, 1077.045
241.4975, 1071.395
241.9796, 1067.783
242.4617, 1065.762
242.9438, 1064.454
243.4259, 1065.188
243.9081, 1064.424
244.3902, 1060.852
244.8723, 1056.229
245.3544, 1052.070
245.8365, 1048.964
246.3186, 1046.733
246.8008, 1044.933
247.2829, 1043.515
247.7650, 1042.711
248.2471, 1042.993
248.7292, 1043.598
249.2113, 1043.853
249.6935, 1043.521
250.1756, 1042.797
250.6577, 1042.052
251.1398, 1041.188
251.6219, 1040.444
252.1040, 1039.702
252.5862, 1039.132
253.0683, 1039.066
253.5504, 1039.555
254.0325, 1040.105
254.5146, 1039.899
254.9967, 1038.461
255.4789, 1037.062
255.9610, 1036.290
256.4431, 1035.246
256.9252, 1032.484
257.4073, 1027.830
257.8894, 1023.445
258.3716, 1022.546
258.8537, 1027.629
259.3358, 1029.490
259.8179, 1025.079
260.3000, 1019.285
260.7821, 1016.345
261.2643, 1016.974
261.7464, 1019.215
262.2285, 1021.095
262.7106, 1022.556
263.1927, 1023.751
263.6748, 1025.446
264.1570, 1026.373
264.6391, 1024.943
265.1212, 1021.117
265.6033, 1016.818
266.0854, 1013.355
266.5675, 1010.937
267.0497, 1011.191
267.5318, 1017.884
268.0139, 1024.675
268.4960, 1025.752
268.9781, 1021.023
269.4602, 1015.499
269.9424, 1012.547
270.4245, 1012.197
270.9066, 1012.737
271.3887, 1015.367
271.8708, 1017.958
272.3529, 1018.679
272.8351, 1017.646
273.3172, 1016.436
273.7993, 1016.055
274.2814, 1016.184
274.7635, 1015.687
275.2456, 1013.470
275.7278, 1011.832
276.2099, 1013.109
276.6920, 1016.903
277.1741, 1019.854
277.6562, 1019.978
278.1383, 1018.479
278.6205, 1017.909
279.1026, 1018.228
279.5847, 1019.539
280.0668, 1022.934
280.5489, 1027.874
281.0310, 1030.761
281.5132, 1029.018
281.9953, 1025.965
282.4774, 1026.898
282.9595, 1032.654
283.4416, 1037.415
283.9237, 1036.200
284.4059, 1030.639
284.8880, 1027.921
285.3701, 1031.129
285.8522, 1035.897
286.3343, 1037.636
286.8164, 1036.495
287.2986, 1034.637
287.7807, 1032.781
288.2628, 1031.052
288.7449, 1029.837
289.2270, 1029.100
289.7091, 1029.088
290.1913, 1030.239
290.6734, 1032.280
291.1555, 1034.291
291.6376, 1036.266
292.1197, 1037.863
292.6018, 1037.917
293.0840, 1035.563
293.5661, 1033.607
294.0482, 1034.544
294.5303, 1037.113
295.0124, 1039.112
295.4945, 1039.944
295.9767, 1039.564
296.4588, 1037.414
296.9409, 1032.823
297.4230, 1028.776
297.9051, 1027.351
298.3872, 1027.187
298.8694, 1026.835
299.3515, 1025.948
299.8336, 1024.606
300.3157, 1022.691
300.7978, 1020.029
301.2799, 1017.793
301.7621, 1017.207
302.2442, 1016.839
302.7263, 1015.187
303.2084, 1011.795
303.6905, 1008.207
304.1726, 1006.143
304.6548, 1005.680
305.1369, 1005.007
305.6190, 1003.886
306.1011, 1002.190
306.5832, 999.3281
307.0653, 995.3571
307.5475, 992.0895
308.0296, 991.6871
308.5117, 993.8315
308.9938, 994.5519
309.4759, 992.6159
309.9580, 989.9387
310.4402, 987.9432
310.9223, 986.4338
311.4044, 984.5744
311.8865, 981.2181
312.3686, 976.9374
312.8507, 974.5259
313.3329, 975.5023
313.8150, 975.7427
314.2971, 972.1374
314.7792, 966.3993
315.2613, 961.5696
315.7434, 958.7262
316.2256, 957.8172
316.7077, 959.4750
317.1898, 965.2372
317.6719, 969.2645
318.1540, 967.4612
318.6361, 963.1969
319.1183, 959.8837
319.6004, 958.5231
320.0825, 958.4043
320.5646, 958.9344
321.0467, 960.3215
321.5288, 961.0172
322.0110, 959.5707
322.4931, 957.8161
322.9752, 957.3534
323.4573, 958.4557
323.9394, 959.7834
324.4215, 960.1082
324.9037, 959.4469
325.3858, 958.6570
325.8679, 958.1115
326.3500, 957.1927
326.8321, 954.9157
327.3142, 951.6058
327.7964, 949.2086
328.2785, 949.9553
328.7606, 952.9930
329.2427, 953.9906
329.7248, 951.7946
330.2069, 949.1175
330.6891, 947.5308
331.1712, 946.7247
331.6533, 946.0591
332.1354, 945.1724
332.6175, 944.2838
333.0996, 943.7825
333.5818, 943.6230
334.0639, 944.0016
334.5460, 946.0085
335.0281, 948.2670
335.5102, 949.0417
335.9923, 947.5629
336.4745, 945.2389
336.9566, 943.7126
337.4387, 943.0458
337.9208, 942.1904
338.4029, 940.5861
338.8850, 938.7982
339.3671, 937.3651
339.8492, 936.3325
340.3314, 935.5189
340.8135, 935.0535
341.2956, 934.8018
341.7777, 933.8267
342.2598, 931.4562
342.7419, 929.0568
343.2241, 927.8149
343.7062, 927.5636
344.1883, 927.5687
344.6704, 927.8827
345.1525, 928.1467
345.6346, 927.5924
346.1168, 926.1530
346.5989, 923.9917
347.0810, 920.6439
347.5631, 916.7002
348.0452, 913.1320
348.5273, 910.0059
349.0095, 907.5228
349.4916, 906.2871
349.9737, 906.3411
350.4558, 906.0449
350.9379, 904.8763
351.4200, 902.6990
351.9022, 899.4054
352.3843, 894.7687
352.8664, 889.6616
353.3485, 884.0633
353.8306, 878.3328
354.3127, 873.9968
354.7949, 871.7164
355.2770, 870.5782
355.7591, 869.4152
356.2412, 868.2114
356.7233, 867.4028
357.2054, 868.2708
357.6876, 869.2752
358.1697, 867.5257
358.6518, 862.3566
359.1339, 856.5428
359.6160, 852.3270
360.0981, 849.5290
360.5803, 847.2599
361.0624, 846.3480
361.5445, 845.2417
362.0266, 842.0926
362.5087, 837.2087
362.9908, 833.2885
363.4730, 832.3507
363.9551, 833.1113
364.4372, 831.4684
364.9193, 825.8348
365.4014, 820.6660
365.8835, 818.3007
366.3657, 817.6551
366.8478, 816.6038
367.3299, 814.4771
367.8120, 811.6066
368.2941, 808.1945
368.7762, 803.8354
369.2584, 800.7167
369.7405, 799.9913
370.2226, 800.1558
370.7047, 799.8776
371.1868, 798.9562
371.6689, 797.7329
372.1511, 796.5558
372.6332, 795.4200
373.1153, 793.6069
373.5974, 791.5549
374.0795, 788.4825
374.5616, 782.9811
375.0438, 776.0922
375.5259, 770.2605
376.0080, 766.8489
376.4901, 765.4554
376.9722, 764.7720
377.4543, 766.0329
377.9365, 766.4025
378.4186, 765.2108
378.9007, 763.1511
379.3828, 760.7089
379.8649, 758.0934
380.3470, 755.7990
380.8292, 754.6526
381.3113, 755.4620
381.7934, 754.9146
382.2755, 753.0922
382.7576, 750.0573
383.2397, 744.7759
383.7219, 738.0900
384.2040, 732.4357
384.6861, 729.8065
385.1682, 730.0297
385.6503, 730.4518
386.1324, 732.5577
386.6146, 733.1686
387.0967, 730.7402
387.5788, 726.8259
388.0609, 723.6552
388.5430, 722.1712
389.0251, 721.0063
389.5073, 716.8688
389.9894, 706.4727
390.4715, 700.1329
390.9536, 700.4769
391.4357, 702.7901
391.9178, 705.2627
392.4000, 707.0334
392.8821, 706.8066
393.3642, 702.5299
393.8463, 693.9979
394.3284, 688.0710
394.8105, 686.2796
395.2927, 685.4923
395.7748, 685.5114
396.2569, 685.6077
396.7390, 684.5582
397.2211, 681.5236
397.7032, 677.4936
398.1854, 674.5934
398.6675, 672.8600
399.1496, 672.1472
399.6317, 674.0113
400.1138, 675.9069
400.5959, 675.7222
401.0781, 673.1241
401.5602, 669.6585
402.0423, 666.5472
402.5244, 663.7784
403.0065, 661.1315
403.4886, 658.5201
403.9708, 656.1556
404.4529, 654.0368
404.9350, 652.2270
405.4171, 650.9446
405.8992, 650.9404
406.3813, 651.1887
406.8635, 649.6727
407.3456, 646.1353
407.8277, 643.2640
408.3098, 643.3309
408.7919, 644.3804
409.2740, 642.9294
409.7562, 637.8410
410.2383, 632.7332
410.7204, 629.8998
411.2025, 628.7675
411.6846, 627.6918
412.1667, 626.3126
412.6489, 624.7202
413.1310, 622.7719
413.6131, 620.4543
414.0952, 618.9320
414.5773, 619.2576
415.0594, 619.8891
415.5416, 619.5106
416.0237, 618.0649
416.5058, 615.8468
416.9879, 612.7587
417.4700, 609.1430
417.9521, 606.8666
418.4343, 606.3945
418.9164, 606.4357
419.3985, 607.5439
419.8806, 608.6845
420.3627, 608.0555
420.8448, 605.0974
421.3270, 601.1810
421.8091, 598.2313
422.2912, 596.2551
422.7733, 595.5333
423.2554, 597.8251
423.7375, 599.7498
424.2197, 598.9897
424.7018, 595.9705
425.1839, 592.5541
425.6660, 590.0394
426.1481, 588.3299
426.6302, 586.6880
427.1124, 584.5599
427.5945, 583.2701
428.0766, 583.7144
428.5587, 584.6909
429.0408, 584.8765
429.5229, 583.9173
430.0051, 582.6342
430.4872, 582.6177
430.9693, 584.7587
431.4514, 584.4568
431.9335, 577.8911
432.4156, 572.1127
432.8978, 570.9514
433.3799, 572.9622
433.8620, 573.9958
434.3441, 570.9943
434.8262, 565.6424
435.3083, 563.0512
435.7905, 564.2570
436.2726, 565.3815
436.7547, 564.8128
437.2368, 563.6503
437.7189, 563.0319
438.2010, 563.2376
438.6832, 562.9501
439.1653, 560.6919
439.6474, 556.8358
440.1295, 553.1749
440.6116, 549.5495
441.0938, 547.0376
441.5759, 547.6072
442.0580, 550.2081
442.5401, 551.5751
443.0222, 549.7214
443.5043, 546.9753
443.9865, 545.9227
444.4686, 546.3522
444.9507, 546.0316
445.4328, 543.3993
445.9149, 539.9188
446.3970, 539.3605
446.8792, 543.1603
447.3613, 545.2766
447.8434, 543.1336
448.3255, 538.8510
448.8076, 534.3491
449.2897, 530.1074
449.7719, 527.3917
450.2540, 527.8612
450.7361, 531.7734
451.2182, 532.9369
451.7003, 529.0936
452.1824, 525.4205
452.6646, 523.6802
453.1467, 523.3985
453.6288, 523.9835
454.1109, 525.1804
454.5930, 526.2413
455.0751, 525.5145
455.5573, 521.3346
456.0394, 518.6307
456.5215, 517.6032
457.0036, 517.6088
457.4857, 519.0255
457.9678, 521.2500
458.4500, 522.7057
458.9321, 522.0212
459.4142, 519.6076
459.8963, 517.9045
460.3784, 517.2493
460.8605, 516.7361
461.3427, 515.7472
461.8248, 514.9523
462.3069, 515.1964
462.7890, 516.6871
463.2711, 518.4103
463.7532, 519.6093
464.2354, 520.2532
464.7175, 519.5763
465.1996, 516.6948
465.6817, 513.7435
466.1638, 511.8905
466.6459, 511.0978
467.1281, 511.4789
467.6102, 514.1713
468.0923, 517.0572
468.5744, 517.6672
469.0565, 516.1780
469.5386, 514.2391
470.0208, 512.2124
470.5029, 510.4224
470.9850, 509.6631
471.4671, 510.1507
471.9492, 510.2056
472.4313, 509.1145
472.9135, 507.5506
473.3956, 506.2718
473.8777, 505.3222
474.3598, 504.1708
474.8419, 502.2780
475.3240, 499.8154
475.8062, 498.5320
476.2883, 499.5400
476.7704, 500.1926
477.2525, 499.6029
477.7346, 498.5369
478.2167, 498.0185
478.6989, 498.2806
479.1810, 498.6484
479.6631, 498.1759
480.1452, 496.5976
480.6273, 495.5556
481.1094, 495.8306
481.5916, 495.8417
482.0737, 495.2146
482.5558, 493.9302
483.0379, 491.8345
483.5200, 488.7179
484.0021, 485.4001
484.4843, 483.7239
484.9664, 484.2182
485.4485, 483.8422
485.9306, 480.7861
486.4127, 477.7393
486.8948, 476.9836
487.3770, 478.1229
487.8591, 478.5947
488.3412, 476.3312
488.8233, 472.6173
489.3054, 469.7384
489.7875, 467.7105
490.2697, 466.7781
490.7518, 467.7926
491.2339, 469.6216
491.7160, 469.9177
492.1981, 468.1653
492.6802, 466.3963
493.1624, 466.3756
493.6445, 466.5345
494.1266, 463.6791
494.6087, 457.3702
495.0908, 451.6229
495.5729, 450.1943
496.0551, 453.0484
496.5372, 454.8597
497.0193, 455.1925
497.5014, 455.1652
497.9835, 455.3526
498.4656, 455.3065
498.9478, 454.2264
499.4299, 451.8949
499.9120, 449.0275
500.3941, 446.6632
500.8762, 444.9050
501.3583, 443.1754
501.8405, 441.6730
502.3226, 439.9999
502.8047, 437.4853
503.2868, 434.7799
503.7689, 433.3282
504.2510, 434.0486
504.7331, 435.3968
505.2152, 434.1784
505.6974, 429.8350
506.1795, 426.3825
506.6616, 425.0063
507.1437, 424.4792
507.6258, 424.2192
508.1079, 424.0758
508.5901, 423.4340
509.0722, 422.1830
509.5543, 420.1730
510.0364, 416.5749
510.5185, 411.4391
511.0006, 407.3073
511.4828, 405.5208
511.9649, 405.3610
512.4470, 405.5368
512.9291, 406.4303
513.4113, 406.3779
513.8934, 403.6428
514.3755, 400.5450
514.8576, 400.3111
515.3397, 402.7119
515.8218, 403.9819
516.3040, 400.9730
516.7861, 394.5513
517.2682, 391.0402
517.7503, 392.7927
518.2324, 394.6216
518.7145, 396.6398
519.1967, 398.1962
519.6788, 398.6469
520.1609, 397.9330
520.6430, 396.5014
521.1251, 394.5949
521.6072, 392.2377
522.0894, 390.6792
522.5715, 390.3870
523.0536, 390.1665
523.5357, 389.4103
524.0178, 388.5789
524.4999, 388.1900
524.9821, 388.3783
525.4642, 388.9691
525.9463, 389.7716
526.4284, 390.8277
526.9105, 392.5308
527.3926, 395.2039
527.8748, 397.6906
528.3569, 398.9329
528.8390, 399.2318
529.3211, 399.6670
529.8032, 400.9245
530.2853, 401.6729
530.7675, 400.2473
531.2496, 397.9563
531.7317, 397.7244
532.2138, 400.4284
532.6959, 403.8676
533.1780, 405.1424
533.6602, 403.5900
534.1423, 404.0726
534.6244, 408.2383
535.1065, 412.3029
535.5886, 414.9558
536.0707, 416.5396
536.5529, 417.5670
537.0350, 418.2565
537.5171, 418.8748
537.9992, 419.7930
538.4813, 420.9974
538.9634, 422.5334
539.4456, 423.8692
539.9277, 426.1989
540.4098, 430.7741
540.8919, 436.5936
541.3740, 441.7782
541.8561, 445.7480
542.3383, 448.4651
542.8204, 449.1798
543.3025, 448.1691
543.7846, 448.2613
544.2667, 450.5472
544.7488, 453.3441
545.2310, 454.6869
545.7131, 454.7516
546.1952, 455.0663
546.6773, 456.7310
547.1594, 457.8993
547.6415, 456.9039
548.1237, 454.4590
548.6058, 452.6352
549.0879, 452.3244
549.5700, 452.0854
550.0521, 449.4262
550.5342, 443.3690
551.0164, 437.8604
551.4985, 432.7020
551.9806, 428.2369
552.4627, 425.4836
552.9448, 423.3500
553.4269, 419.7136
553.9091, 413.4993
554.3912, 406.0525
554.8733, 399.5638
555.3554, 394.0344
555.8375, 389.3128
556.3196, 385.8099
556.8018, 382.6508
557.2839, 379.1921
557.7660, 375.5773
558.2481, 372.2785
558.7302, 369.6965
559.2123, 367.2356
559.6945, 364.1631
560.1766, 360.6535
560.6587, 357.5464
561.1408, 355.1418
561.6229, 353.0694
562.1050, 350.8936
562.5872, 348.6121
563.0693, 346.2464
563.5514, 343.1945
564.0335, 340.6757
564.5156, 340.0931
564.9977, 340.3351
565.4799, 339.1531
565.9620, 335.6867
566.4441, 331.4059
566.9262, 328.7264
567.4083, 328.1436
567.8904, 327.1379
568.3726, 324.6023
568.8547, 322.8110
569.3368, 323.6609
569.8189, 325.4908
570.3010, 325.2638
570.7831, 321.5287
571.2653, 317.1911
571.7474, 316.1622
572.2295, 317.9384
572.7116, 318.3348
573.1937, 316.5019
573.6758, 313.6311
574.1580, 309.6299
574.6401, 305.2467
575.1222, 303.4791
575.6043, 307.3494
576.0864, 310.7758
576.5685, 310.3528
577.0507, 307.6187
577.5328, 304.8824
578.0149, 302.7734
578.4970, 301.1700
578.9791, 300.0352
579.4612, 299.4074
579.9434, 298.2816
580.4255, 295.0109
580.9076, 293.2134
581.3897, 295.1991
581.8718, 298.1245
582.3539, 298.5678
582.8361, 295.9219
583.3182, 292.7597
583.8003, 291.5524
584.2824, 292.0995
584.7645, 293.2574
585.2466, 295.6743
585.7288, 296.8015
586.2108, 294.4540
586.6929, 290.4583
587.1750, 287.4521
587.6572, 285.7882
588.1393, 284.3507
588.6214, 281.9110
589.1035, 279.7672
589.5856, 280.1921
590.0677, 283.0969
590.5499, 285.9931
591.0320, 287.3526
591.5141, 287.3856
591.9962, 286.8459
592.4783, 285.6610
592.9604, 283.9489
593.4426, 280.5982
593.9247, 277.6444
594.4068, 277.0165
594.8889, 278.1631
595.3710, 278.8243
595.8531, 277.3117
596.3353, 274.8776
596.8174, 274.7556
597.2995, 277.4431
597.7816, 279.6198
598.2637, 280.5319
598.7458, 280.6879
599.2280, 280.4745
599.7101, 279.9283
600.1922, 279.2462
600.6743, 278.3294
601.1564, 277.4387
601.6385, 276.7454
602.1207, 276.2520
602.6028, 275.9812
603.0849, 275.9476
603.5670, 276.0692
604.0491, 276.2968
604.5313, 276.7187
605.0134, 276.6681
605.4955, 275.9721
605.9776, 275.0700
606.4597, 273.8098
606.9418, 272.5475
607.4240, 271.6085
607.9061, 271.1257
608.3882, 271.2967
608.8703, 272.9513
609.3524, 275.8645
609.8345, 276.8045
610.3167, 275.0779
610.7988, 272.9980
611.2809, 271.2537
611.7630, 270.0406
612.2451, 269.9305
612.7272, 271.3643
613.2094, 272.0490
613.6915, 269.6863
614.1736, 266.6972
614.6557, 266.7605
615.1378, 269.6436
615.6199, 271.8165
616.1021, 271.0168
616.5842, 268.3636
617.0663, 267.0692
617.5484, 268.2660
618.0305, 268.9164
618.5126, 268.5756
618.9948, 268.1509
619.4769, 268.4237
619.9590, 269.0135
620.4411, 268.9287
620.9232, 267.5958
621.4053, 265.6589
621.8875, 263.8651
622.3696, 262.2281
622.8517, 261.6971
623.3338, 263.0479
623.8159, 264.3436
624.2980, 263.5899
624.7802, 261.4352
625.2623, 260.0211
625.7444, 260.5612
626.2265, 260.6260
626.7086, 258.4286
627.1907, 255.3566
627.6729, 253.2621
628.1550, 252.5225
628.6371, 252.8425
629.1192, 254.2070
629.6013, 256.3054
630.0834, 256.3970
630.5656, 252.4593
631.0477, 249.8862
631.5298, 250.6102
632.0119, 251.9145
632.4940, 251.5263
632.9761, 249.6281
633.4583, 248.2223
633.9404, 248.8477
634.4225, 250.3534
634.9046, 251.0455
635.3867, 250.9452
635.8688, 250.1725
636.3510, 248.5537
636.8331, 246.7857
637.3152, 245.7126
637.7973, 245.4086
638.2794, 245.0971
638.7615, 244.7336
639.2437, 244.3998
639.7258, 243.9497
640.2079, 243.6215
640.6900, 243.9711
641.1721, 245.0249
641.6542, 245.8962
642.1364, 245.5302
642.6185, 244.0406
643.1006, 242.8659
643.5827, 241.8773
644.0648, 241.5026
644.5469, 242.7941
645.0291, 244.2082
645.5112, 243.9768
645.9933, 242.0101
646.4754, 240.7529
646.9575, 242.4783
647.4396, 244.6164
647.9218, 243.9915
648.4039, 241.1478
648.8860, 238.7032
649.3681, 237.7062
649.8502, 237.5271
650.3323, 237.1799
650.8145, 236.4823
651.2966, 236.4733
651.7787, 238.1008
652.2608, 239.2938
652.7429, 239.5081
653.2250, 238.8906
653.7072, 237.2753
654.1893, 234.7226
654.6714, 232.5977
655.1535, 232.6392
655.6356, 234.1317
656.1177, 234.5630
656.5999, 233.7498
657.0820, 232.8267
657.5641, 232.2308
658.0462, 231.9058
658.5283, 231.7965
659.0104, 231.9394
659.4926, 232.0573
659.9747, 231.9525
660.4568, 231.9619
660.9389, 232.6983
661.4210, 233.6401
661.9031, 233.5682
662.3853, 232.0378
662.8674, 230.0970
663.3495, 229.1250
663.8316, 229.1448
664.3137, 229.8858
664.7958, 231.9259
665.2780, 233.6296
665.7601, 234.2915
666.2422, 234.2173
666.7243, 233.5203
667.2064, 232.1221
667.6885, 230.9793
668.1707, 230.7085
668.6528, 230.8137
669.1349, 230.6790
669.6170, 230.3718
670.0991, 230.4456
670.5812, 231.2032
671.0634, 232.0622
671.5455, 231.9278
672.0276, 230.4142
672.5097, 229.3829
672.9918, 229.3720
673.4739, 229.2650
673.9561, 228.6574
674.4382, 227.7985
674.9203, 226.9365
675.4024, 226.1393
675.8845, 225.6182
676.3666, 225.4517
676.8488, 225.7112
677.3309, 226.8821
677.8130, 228.9487
678.2951, 230.4481
678.7772, 230.6721
679.2593, 229.9774
679.7415, 228.9271
680.2236, 227.2675
680.7057, 226.0575
681.1878, 225.0240
681.6699, 224.7088
682.1520, 226.3067
682.6342, 228.4219
683.1163, 228.7193
683.5984, 226.5960
684.0805, 224.0509
684.5626, 223.2583
685.0447, 223.9253
685.5269, 224.5204
686.0090, 225.0570
686.4911, 225.3636
686.9732, 225.2728
687.4553, 224.9941
687.9374, 224.8490
688.4196, 224.8383
688.9017, 224.9014
689.3838, 225.2714
689.8659, 225.4737
690.3480, 224.9702
690.8301, 224.1758
691.3123, 223.9516
691.7944, 224.5162
692.2765, 225.0533
692.7586, 224.3930
693.2407, 222.6922
693.7228, 222.4311
694.2050, 224.4336
694.6871, 225.6231
695.1692, 224.3099
695.6513, 222.1173
696.1334, 220.6975
696.6155, 220.0738
697.0977, 219.7524
697.5798, 219.7401
698.0619, 219.8309
698.5440, 219.7093
699.0261, 219.6104
699.5082, 220.2737
699.9904, 221.8225
700.4725, 223.1045
700.9546, 222.6983
701.4367, 220.7765
701.9188, 220.0736
702.4009, 221.4030
702.8831, 222.3366
703.3652, 222.0383
703.8473, 221.2935
704.3294, 220.3784
704.8115, 219.4403
705.2936, 219.1101
705.7758, 220.0466
706.2579, 221.2863
706.7400, 222.1950
707.2221, 222.7796
707.7042, 223.0116
708.1863, 222.8975
708.6685, 222.6795
709.1506, 222.6444
709.6327, 222.6777
710.1148, 221.7884
710.5969, 218.8015
711.0790, 217.0752
711.5612, 217.8239
712.0433, 219.2065
712.5254, 220.5428
713.0075, 221.5482
713.4896, 221.5487
713.9717, 219.6898
714.4539, 217.8669
714.9360, 218.0421
715.4181, 219.4729
715.9002, 220.5307
716.3823, 220.9511
716.8644, 221.0840
717.3466, 221.1378
717.8287, 221.1668
718.3108, 221.4353
718.7929, 222.6130
719.2750, 222.7306
719.7571, 220.4073
720.2393, 218.4016
720.7214, 218.6613
721.2035, 220.1128
721.6856, 220.4069
722.1677, 218.5238
722.6498, 216.7697
723.1320, 217.4729
723.6141, 219.5592
724.0962, 220.9511
724.5783, 221.4793
725.0604, 221.5029
725.5425, 221.1815
726.0247, 220.5658
726.5068, 219.6906
726.9889, 218.2534
727.4710, 217.4906
727.9531, 217.7901
728.4352, 218.3095
728.9174, 218.8006
729.3995, 219.3430
729.8816, 220.3183
730.3637, 221.7577
730.8458, 222.4690
731.3279, 220.7570
731.8101, 218.2281
732.2922, 217.7362
732.7743, 219.0299
733.2564, 220.0106
733.7385, 219.8431
734.2206, 219.6525
734.7028, 221.0979
735.1849, 224.4061
735.6670, 225.9024
736.1491, 223.8737
736.6312, 222.1821
737.1133, 221.0946
737.5955, 220.8340
738.0776, 222.2362
738.5597, 224.8536
739.0418, 226.4579
739.5239, 225.3244
740.0060, 223.3695
740.4882, 222.4961
740.9703, 222.6305
741.4524, 223.9948
741.9345, 226.6171
742.4166, 228.6751
742.8987, 228.5359
743.3809, 226.6574
743.8630, 225.3142
744.3451, 224.6713
744.8272, 224.2787
745.3093, 224.3428
745.7914, 224.4070
746.2736, 223.9501
746.7557, 223.3648
747.2378, 223.5872
747.7199, 225.1210
748.2020, 226.5815
748.6841, 226.6868
749.1663, 226.1206
749.6484, 226.0130
750.1305, 226.4245
750.6126, 227.0172
751.0947, 227.6313
751.5768, 228.2521
752.0590, 228.8011
752.5411, 229.1464
753.0232, 230.0914
753.5053, 232.4003
753.9874, 234.2813
754.4695, 235.1827
754.9517, 235.4230
755.4338, 235.0766
755.9159, 234.2144
756.3980, 233.7667
756.8801, 234.6840
757.3622, 235.7748
757.8444, 235.4900
758.3265, 234.5185
758.8086, 234.7415
759.2907, 236.5689
759.7728, 238.6106
760.2549, 239.5276
760.7371, 239.4637
761.2192, 239.1920
761.7013, 238.4151
762.1834, 238.2587
762.6655, 239.5704
763.1476, 240.8792
763.6298, 241.1769
764.1119, 240.7038
764.5940, 240.1088
765.0761, 239.3335
765.5582, 238.8436
766.0403, 238.3790
766.5225, 238.6374
767.0046, 241.2798
767.4867, 245.5256
767.9688, 248.3155
768.4509, 248.0697
768.9330, 246.4327
769.4152, 246.2659
769.8973, 247.6569
770.3794, 247.8282
770.8615, 245.9427
771.3436, 245.0261
771.8257, 247.0804
772.3079, 250.3345
772.7900, 251.9896
773.2721, 251.8687
773.7542, 252.5026
774.2363, 256.0048
774.7184, 258.4628
775.2006, 256.7084
775.6827, 253.3260
776.1648, 251.7407
776.6469, 252.5019
777.1290, 254.1529
777.6111, 255.8521
778.0933, 257.2703
778.5754, 257.1432
779.0575, 255.5715
779.5396, 255.6920
780.0217, 258.5393
780.5038, 261.5704
780.9860, 262.7206
781.4681, 262.4705
781.9502, 262.9368
782.4323, 264.3130
782.9144, 266.0766
783.3965, 268.8332
783.8787, 271.3436
784.3608, 272.8792
784.8429, 273.6831
785.3250, 274.0185
785.8071, 273.9618
786.2892, 274.4394
786.7714, 276.7928
787.2535, 279.9720
787.7356, 281.9487
788.2177, 282.8083
788.6998, 283.4574
789.1819, 284.1375
789.6641, 285.5845
790.1462, 288.9159
790.6283, 294.1190
791.1104, 298.1866
791.5925, 300.9153
792.0746, 302.7956
792.5568, 302.8403
793.0389, 303.0230
793.5210, 304.8462
794.0031, 308.0039
794.4852, 311.2771
794.9673, 314.5466
795.4495, 317.4026
795.9316, 318.9601
796.4137, 320.3039
796.8958, 323.3087
797.3779, 327.6163
797.8600, 330.9644
798.3422, 332.1418
798.8243, 332.7135
799.3064, 335.5648
799.7885, 340.8235
800.2706, 344.7460
800.7527, 347.0801
801.2349, 348.6707
801.7170, 349.1846
802.1991, 349.7089
802.6812, 352.0483
803.1633, 356.1943
803.6454, 359.7626
804.1276, 362.3127
804.6097, 364.5152
805.0918, 366.4683
805.5739, 368.2689
806.0560, 370.0454
806.5381, 371.7727
807.0203, 373.3784
807.5024, 374.8980
807.9845, 376.0187
808.4666, 376.1008
808.9487, 375.3927
809.4308, 374.8904
809.9130, 374.7138
810.3951, 374.4385
810.8772, 373.7930
811.3593, 372.9734
811.8414, 372.4556
812.3235, 372.5716
812.8057, 371.7059
813.2878, 369.0384
813.7699, 366.3845
814.2520, 364.0795
814.7341, 362.1069
815.2162, 360.5156
815.6984, 359.2752
816.1805, 358.0982
816.6626, 356.9682
817.1447, 355.7485
817.6268, 354.1543
818.1089, 352.4910
818.5911, 351.7315
819.0732, 351.6264
819.5553, 350.1395
820.0374, 345.7507
820.5195, 340.1486
821.0016, 337.1118
821.4838, 336.7382
821.9659, 335.1908
822.4480, 331.8069
822.9301, 328.5858
823.4122, 326.7093
823.8943, 325.4347
824.3765, 323.3948
824.8586, 320.3886
825.3407, 317.6624
825.8228, 315.3804
826.3049, 313.2475
826.7870, 310.8365
827.2692, 308.7293
827.7513, 308.1839
828.2334, 308.7526
828.7155, 307.9388
829.1976, 303.7300
829.6797, 298.8237
830.1619, 296.3028
830.6440, 295.4143
831.1261, 294.5695
831.6082, 293.5109
832.0903, 292.1984
832.5724, 290.5932
833.0546, 288.7590
833.5367, 286.7353
834.0188, 284.4050
834.5009, 282.7099
834.9830, 281.9483
835.4651, 281.2104
835.9473, 279.9974
836.4294, 278.7976
836.9115, 278.2514
837.3936, 278.3191
837.8757, 278.1237
838.3578, 277.2814
838.8400, 276.4638
839.3221, 276.0349
839.8042, 275.6662
840.2863, 274.7732
840.7684, 273.6203
841.2505, 273.1865
841.7327, 274.0201
842.2148, 275.1883
842.6969, 275.7881
843.1790, 275.8053
843.6611, 274.8306
844.1432, 272.9691
844.6254, 271.9860
845.1075, 272.7360
845.5896, 273.9172
846.0717, 273.6209
846.5538, 271.8320
847.0359, 271.8182
847.5181, 275.2290
848.0002, 277.1577
848.4823, 275.3701
848.9644, 272.9855
849.4465, 271.9349
849.9286, 272.0208
850.4108, 272.6612
850.8929, 274.3554
851.3750, 275.2444
851.8571, 273.8363
852.3392, 272.1049
852.8214, 271.8437
853.3035, 272.4977
853.7856, 272.5406
854.2677, 271.5615
854.7498, 270.8232
855.2319, 271.5250
855.7141, 273.3223
856.1962, 275.8736
856.6783, 278.9613
857.1604, 281.1250
857.6425, 281.9851
858.1246, 281.9070
858.6068, 280.9854
859.0889, 279.6110
859.5710, 279.3024
860.0531, 280.4892
860.5352, 281.6168
861.0173, 282.5869
861.4995, 283.5477
861.9816, 284.7037
862.4637, 285.8234
862.9458, 286.5024
863.4279, 286.6720
863.9100, 287.1055
864.3922, 288.1736
864.8743, 289.3549
865.3564, 290.2689
865.8385, 291.2014
866.3206, 292.6714
866.8027, 294.5531
867.2849, 296.1404
867.7670, 297.0043
868.2491, 297.4853
868.7312, 297.7581
869.2133, 298.0320
869.6954, 299.0049
870.1776, 300.6883
870.6597, 302.6683
871.1418, 304.8558
871.6239, 306.4135
872.1060, 305.8020
872.5881, 303.0568
873.0703, 303.1837
873.5524, 307.7515
874.0345, 311.1723
874.5166, 311.8527
874.9987, 311.4724
875.4808, 310.9533
875.9630, 310.4522
876.4451, 310.5188
876.9272, 311.6091
877.4093, 312.3515
877.8914, 312.4150
878.3735, 312.1180
878.8557, 311.7260
879.3378, 311.0724
879.8199, 309.3092
880.3020, 306.5323
880.7841, 305.1870
881.2662, 308.2211
881.7484, 312.3398
882.2305, 313.4367
882.7126, 312.4233
883.1947, 311.2361
883.6768, 310.2797
884.1589, 309.5614
884.6411, 309.1124
885.1232, 308.7632
885.6053, 308.4422
886.0874, 308.1924
886.5695, 306.0522
887.0516, 301.2905
887.5338, 297.6609
888.0159, 297.0641
888.4980, 297.4743
888.9801, 296.4849
889.4622, 294.0977
889.9443, 292.0164
890.4265, 290.4935
890.9086, 288.9128
891.3907, 287.1224
891.8728, 285.3509
892.3549, 283.0725
892.8370, 281.1052
893.3192, 281.4792
893.8013, 285.0373
894.2834, 287.4326
894.7655, 285.7151
895.2476, 282.7537
895.7297, 280.7695
896.2119, 279.3195
896.6940, 277.2306
897.1761, 274.4845
897.6582, 272.3661
898.1403, 271.8295
898.6224, 272.1742
899.1046, 272.2768
899.5867, 272.2485
900.0688, 272.7468
900.5509, 273.8087
901.0330, 274.4669
901.5151, 274.2394
901.9973, 273.5338
902.4794, 272.9061
902.9615, 272.3563
903.4436, 272.0169
903.9257, 272.0615
904.4078, 271.8478
904.8900, 271.0919
905.3721, 270.2334
905.8542, 269.4359
906.3363, 268.8175
906.8184, 268.8765
907.3005, 270.3946
907.7827, 270.6810
908.2648, 267.7367
908.7469, 265.3642
909.2290, 266.1027
909.7111, 268.0602
910.1932, 268.8466
910.6754, 268.2080
911.1575, 267.3273
911.6396, 266.4277
912.1217, 266.0174
912.6038, 267.4392
913.0859, 269.0633
913.5681, 267.8921
914.0502, 264.6016
914.5323, 262.5369
915.0143, 263.1454
915.4965, 264.6034
915.9786, 264.7676
916.4607, 263.9880
916.9428, 263.6677
917.4249, 263.7282
917.9070, 262.8460
918.3892, 260.5998
918.8713, 258.5464
919.3534, 257.9872
919.8355, 258.4428
920.3176, 258.4726
920.7997, 257.9927
921.2819, 257.4028
921.7640, 256.7150
922.2461, 255.8927
922.7282, 254.7372
923.2103, 253.5945
923.6924, 253.3640
924.1746, 253.9295
924.6567, 252.7044
925.1388, 247.5799
925.6209, 243.4792
926.1030, 241.6902
926.5851, 240.8083
927.0673, 240.5005
927.5494, 240.2010
928.0315, 238.7052
928.5136, 235.6737
928.9957, 233.6415
929.4778, 235.0016
929.9600, 236.8298
930.4421, 236.7985
930.9242, 235.6223
931.4063, 234.4500
931.8884, 233.4181
932.3705, 232.1137
932.8527, 230.2920
933.3348, 228.1495
933.8169, 225.3651
934.2990, 222.5861
934.7811, 221.9734
935.2632, 223.3173
935.7454, 224.6684
936.2275, 225.3905
936.7096, 225.4232
937.1917, 224.5932
937.6738, 223.1937
938.1559, 222.4467
938.6381, 222.4901
939.1202, 221.9422
939.6023, 220.3330
940.0844, 219.2999
940.5665, 219.9700
941.0486, 221.2821
941.5308, 221.5279
942.0129, 220.5912
942.4950, 219.8855
942.9771, 220.1690
943.4592, 219.5200
943.9413, 216.9218
944.4235, 214.0821
944.9056, 211.5514
945.3877, 209.6681
945.8698, 209.1656
946.3519, 210.3152
946.8340, 212.0283
947.3162, 215.2978
947.7983, 217.6078
948.2804, 216.8928
948.7625, 214.9941
949.2446, 213.7862
949.7267, 213.5233
950.2089, 213.8972
950.6910, 214.9580
951.1731, 216.0071
951.6552, 216.4809
952.1373, 216.6455
952.6194, 216.5064
953.1016, 216.3991
953.5837, 217.5139
954.0658, 219.8952
954.5479, 221.3219
955.0300, 219.6504
955.5121, 216.5778
955.9943, 214.9814
956.4764, 214.7091
956.9585, 215.4013
957.4406, 216.9414
957.9227, 218.4742
958.4048, 219.6178
958.8870, 220.4899
959.3691, 221.2918
959.8512, 221.9629
960.3333, 221.9242
960.8154, 221.0747
961.2975, 220.0659
961.7797, 218.6256
962.2618, 218.4765
962.7439, 221.3229
963.2260, 225.4935
963.7081, 227.3208
964.1902, 226.2720
964.6724, 225.7983
965.1545, 226.9460
965.6366, 226.8958
966.1187, 223.2782
966.6008, 219.8917
967.0829, 220.4187
967.5651, 223.4667
968.0472, 224.6447
968.5293, 222.8062
969.0114, 221.5044
969.4935, 222.0294
969.9756, 222.2271
970.4578, 221.1495
970.9399, 219.2498
971.4220, 216.5406
971.9041, 213.4287
972.3862, 211.4914
972.8683, 212.0022
973.3505, 212.1153
973.8326, 209.6017
974.3147, 206.7491
974.7968, 205.9695
975.2789, 206.2336
975.7610, 205.2753
976.2432, 202.8014
976.7253, 200.6567
977.2074, 200.2280
977.6895, 200.3219
978.1716, 199.8141
978.6537, 198.8463
979.1359, 197.5402
979.6180, 195.9939
980.1001, 194.2995
980.5822, 192.5336
981.0643, 191.2452
981.5464, 191.1380
982.0286, 191.7434
982.5107, 192.1444
982.9928, 192.3017
983.4749, 191.9482
983.9570, 191.0725
984.4391, 190.0195
984.9213, 188.9507
985.4034, 188.0124
985.8855, 187.4291
986.3676, 187.1736
986.8497, 187.1905
987.3318, 187.5648
987.8140, 186.9351
988.2961, 184.6747
988.7782, 183.1521
989.2603, 184.0845
989.7424, 186.4632
990.2245, 188.2791
990.7067, 189.5226
991.1888, 190.2915
991.6709, 190.5971
992.1530, 190.3950
992.6351, 189.5373
993.1172, 188.3470
993.5994, 186.7574
994.0815, 185.1038
994.5636, 184.4678
995.0457, 185.2317
995.5278, 185.9330
996.0099, 187.0311
996.4921, 187.4698
996.9742, 186.4485
997.4563, 185.1084
997.9384, 184.3116
998.4205, 184.0089
998.9026, 183.9744
999.3848, 184.4377
999.8669, 184.5065
1000.349, 183.7527
1000.831, 182.8686
1001.313, 182.1618
1001.795, 181.5159
1002.277, 180.6613
1002.760, 179.7038
1003.242, 179.1215
1003.724, 179.0800
1004.206, 179.4123
1004.688, 180.7893
1005.170, 181.7682
1005.652, 180.4821
1006.134, 178.4486
1006.617, 178.3871
1007.099, 180.2626
1007.581, 181.2945
1008.063, 179.7669
1008.545, 177.8357
1009.027, 177.0998
1009.509, 177.0076
1009.991, 176.8918
1010.473, 176.8803
1010.956, 177.5986
1011.438, 179.0195
1011.920, 180.0536
1012.402, 179.9496
1012.884, 179.1569
1013.366, 177.7665
1013.848, 176.3007
1014.330, 175.9993
1014.813, 176.5663
1015.295, 176.4872
1015.777, 175.4099
1016.259, 174.9674
1016.741, 176.9117
1017.223, 179.5623
1017.705, 179.4986
1018.187, 177.5084
1018.669, 176.0396
1019.152, 175.3901
1019.634, 176.0235
1020.116, 178.0812
1020.598, 180.4662
1021.080, 182.1721
1021.562, 183.1295
1022.044, 182.9044
1022.526, 181.6123
1023.008, 180.4678
1023.491, 179.5877
1023.973, 178.4640
1024.455, 176.8268
1024.937, 175.4398
1025.419, 175.2923
1025.901, 176.0382
1026.383, 175.8567
1026.865, 174.6110
1027.348, 174.8856
1027.830, 177.3538
1028.312, 178.5525
1028.794, 176.5570
1029.276, 173.8321
1029.758, 173.5779
1030.240, 175.4011
1030.722, 176.2228
1031.204, 175.8953
1031.687, 175.1500
1032.169, 173.8649
1032.651, 172.6380
1033.133, 171.4717
1033.615, 171.0520
1034.097, 172.6927
1034.579, 176.1362
1035.061, 177.1702
1035.544, 174.5285
1036.026, 172.7662
1036.508, 172.4569
1036.990, 172.6989
1037.472, 173.4001
1037.954, 174.0922
1038.436, 174.0125
1038.918, 173.2070
1039.401, 173.1074
1039.883, 174.3957
1040.365, 175.1244
1040.847, 175.2510
1041.329, 174.6941
1041.811, 172.7237
1042.293, 170.5104
1042.775, 169.5367
1043.257, 169.7869
1043.740, 170.5054
1044.222, 172.1823
1044.704, 173.5712
1045.186, 175.3009
1045.668, 175.9363
1046.150, 173.4391
1046.632, 170.4103
1047.114, 170.3681
1047.596, 173.1457
1048.079, 175.0831
1048.561, 175.8611
1049.043, 175.7849
1049.525, 174.3695
1050.007, 172.6941
1050.489, 170.7354
1050.971, 169.1459
1051.453, 169.0595
1051.936, 170.2623
1052.418, 170.6176
1052.900, 168.8449
1053.382, 167.8227
1053.864, 168.2181
1054.346, 169.3524
1054.828, 172.1896
1055.310, 174.6929
1055.792, 173.8397
1056.275, 170.1079
1056.757, 167.4935
1057.239, 167.1497
1057.721, 167.4093
1058.203, 168.1876
1058.685, 169.0338
1059.167, 169.9879
1059.649, 170.6721
1060.131, 170.6889
1060.614, 170.0417
1061.096, 168.7815
1061.578, 166.2204
1062.060, 164.9407
1062.542, 166.8147
1063.024, 169.0810
1063.506, 170.9152
1063.988, 171.7610
1064.471, 170.4087
1064.953, 167.5383
1065.435, 165.7766
1065.917, 166.1130
1066.399, 166.5308
1066.881, 165.9401
1067.363, 165.5414
1067.845, 166.2424
1068.328, 167.3504
1068.810, 168.3386
1069.292, 168.9915
1069.774, 168.8342
1070.256, 167.5056
1070.738, 166.7115
1071.220, 168.3071
1071.702, 169.3320
1072.184, 167.2568
1072.667, 164.3713
1073.149, 162.7419
1073.631, 162.5062
1074.113, 163.6300
1074.595, 166.2790
1075.077, 168.0378
1075.559, 167.0595
1076.041, 165.7999
1076.523, 165.8873
1077.006, 166.1366
1077.488, 164.9928
1077.970, 163.1429
1078.452, 162.4649
1078.934, 163.3981
1079.416, 164.0121
1079.898, 162.8823
1080.380, 161.9419
1080.862, 162.5069
1081.345, 163.4272
1081.827, 163.6248
1082.309, 163.3995
1082.791, 163.4607
1083.273, 163.9362
1083.755, 164.4574
1084.237, 165.1109
1084.719, 165.4406
1085.202, 164.8689
1085.684, 164.2378
1086.166, 164.5614
1086.648, 165.1185
1087.130, 164.4612
1087.612, 162.6205
1088.094, 161.4678
1088.576, 162.0797
1089.058, 162.7285
1089.541, 162.5469
1090.023, 162.2701
1090.505, 162.4636
1090.987, 162.8484
1091.469, 163.0951
1091.951, 163.1378
1092.433, 162.8807
1092.915, 162.0224
1093.397, 161.6670
1093.880, 162.9226
1094.362, 164.0268
1094.844, 163.8330
1095.326, 163.0157
1095.808, 162.1790
1096.290, 161.4483
1096.772, 160.9122
1097.254, 160.6321
1097.737, 160.3597
1098.219, 160.4073
1098.701, 159.9488
1099.183, 157.8766
1099.665, 155.7751
1100.147, 154.8905
1100.629, 155.1510
1101.111, 156.3388
1101.594, 158.5155
1102.076, 160.3123
1102.558, 161.5395
1103.040, 162.1140
1103.522, 161.7288
1104.004, 160.9728
1104.486, 160.1572
1104.968, 159.2980
1105.450, 158.3477
1105.932, 157.3102
1106.415, 156.3573
1106.897, 155.1381
1107.379, 154.5820
1107.861, 155.1957
1108.343, 156.1348
1108.825, 157.4933
1109.307, 158.5837
1109.789, 158.4554
1110.272, 157.2327
1110.754, 156.0392
1111.236, 154.6943
1111.718, 153.9599
1112.200, 153.8987
1112.682, 154.4592
1113.164, 156.3755
1113.646, 158.2732
1114.129, 159.0570
1114.611, 158.8126
1115.093, 157.7118
1115.575, 155.1404
1116.057, 153.6576
1116.539, 153.8455
1117.021, 154.2508
1117.503, 154.8845
1117.985, 155.2945
1118.468, 154.7379
1118.950, 154.0274
1119.432, 154.9845
1119.914, 157.8671
1120.396, 159.1954
1120.878, 158.0091
1121.360, 157.3599
1121.842, 157.9256
1122.324, 158.4653
1122.807, 158.3581
1123.289, 157.9491
1123.771, 157.6907
1124.253, 157.5397
1124.735, 157.0632
1125.217, 156.0034
1125.699, 155.6094
1126.181, 156.2668
1126.664, 156.5336
1127.146, 155.8067
1127.628, 154.7952
1128.110, 154.0827
1128.592, 153.6718
1129.074, 153.7333
1129.556, 154.4070
1130.038, 153.7554
1130.521, 151.4160
1131.003, 150.4980
1131.485, 151.8715
1131.967, 153.7460
1132.449, 155.1140
1132.931, 155.7218
1133.413, 154.8244
1133.895, 152.8303
1134.377, 153.0699
1134.859, 155.4269
1135.342, 156.0151
1135.824, 154.3492
1136.306, 152.7510
1136.788, 152.2248
1137.270, 152.3961
1137.752, 153.0470
1138.234, 153.7436
1138.716, 152.8712
1139.199, 151.0941
1139.681, 151.9872
1140.163, 155.0730
1140.645, 156.0984
1141.127, 154.0986
1141.609, 151.8443
1142.091, 151.1942
1142.573, 151.5311
1143.056, 152.4865
1143.538, 153.5335
1144.020, 153.4968
1144.502, 152.6761
1144.984, 151.6973
1145.466, 150.7909
1145.948, 150.2702
1146.430, 150.2672
1146.912, 150.7038
1147.395, 151.8990
1147.877, 153.0520
1148.359, 153.2417
1148.841, 152.8291
1149.323, 152.0000
1149.805, 151.1108
1150.287, 150.9851
1150.769, 151.6457
1151.251, 151.8508
1151.734, 150.5049
1152.216, 149.6870
1152.698, 151.3686
1153.180, 153.5243
1153.662, 154.7124
1154.144, 155.1797
1154.626, 155.1313
1155.108, 154.8081
1155.591, 154.8295
1156.073, 155.4930
1156.555, 155.6255
1157.037, 153.8782
1157.519, 152.7671
1158.001, 154.3296
1158.483, 155.9222
1158.965, 155.3306
1159.448, 153.4508
1159.930, 151.6435
1160.412, 150.0548
1160.894, 149.6920
1161.376, 152.0257
1161.858, 153.4431
1162.340, 153.0880
1162.822, 152.4753
1163.304, 152.1626
1163.786, 151.8131
1164.269, 150.9259
1164.751, 149.7826
1165.233, 149.2959
1165.715, 149.3813
1166.197, 150.7430
1166.679, 154.4808
1167.161, 156.2040
1167.643, 154.2660
1168.126, 152.2972
1168.608, 152.5000
1169.090, 153.7263
1169.572, 154.2480
1170.054, 154.2162
1170.536, 154.9732
1171.018, 156.6047
1171.500, 156.8740
1171.983, 155.5410
1172.465, 154.3871
1172.947, 154.0218
1173.429, 154.2023
1173.911, 154.8432
1174.393, 155.3638
1174.875, 154.3682
1175.357, 152.3479
1175.839, 151.0639
1176.322, 150.4980
1176.804, 150.7285
1177.286, 151.5268
1177.768, 151.4924
1178.250, 150.0273
1178.732, 148.7862
1179.214, 149.7690
1179.696, 151.2601
1180.178, 150.7193
1180.661, 149.3195
1181.143, 148.6309
1181.625, 148.7121
1182.107, 149.6273
1182.589, 151.1145
1183.071, 151.9813
1183.553, 151.4573
1184.035, 151.0533
1184.518, 152.1443
1185.000, 153.2027
1185.482, 152.7870
1185.964, 152.0750
1186.446, 152.7158
1186.928, 154.0119
1187.410, 154.0289
1187.892, 152.4106
1188.375, 150.9966
1188.857, 149.5753
1189.339, 149.3678
1189.821, 152.4843
1190.303, 154.6504
1190.785, 152.1282
1191.267, 148.9696
1191.749, 150.2496
1192.231, 154.5457
1192.714, 156.2409
1193.196, 154.5331
1193.678, 153.3100
1194.160, 152.6953
1194.642, 152.1887
1195.124, 151.5602
1195.606, 151.4935
1196.088, 152.5804
1196.570, 153.9018
1197.053, 154.1626
1197.535, 153.5454
1198.017, 152.9256
1198.499, 152.2999
1198.981, 151.3660
1199.463, 150.1475
1199.945, 149.9282
1200.427, 151.0161
1200.910, 151.5865
1201.392, 150.2699
1201.874, 148.8066
1202.356, 150.1756
1202.838, 152.9090
1203.320, 153.8882
1203.802, 153.6977
1204.284, 153.5808
1204.766, 153.6550
1205.249, 153.6444
1205.731, 153.4738
1206.213, 153.3036
1206.695, 153.1852
1207.177, 153.2124
1207.659, 153.3753
1208.141, 153.8022
1208.623, 155.3354
1209.105, 156.6720
1209.588, 155.6150
1210.070, 152.9691
1210.552, 151.6887
1211.034, 152.5716
1211.516, 152.9552
1211.998, 151.5633
1212.480, 150.5600
1212.962, 150.6554
1213.445, 151.0424
1213.927, 151.5021
1214.409, 151.8657
1214.891, 151.8814
1215.373, 151.6524
1215.855, 151.7048
1216.337, 152.2735
1216.819, 151.8859
1217.302, 149.9480
1217.784, 149.5570
1218.266, 151.6705
1218.748, 153.9743
1219.230, 155.3405
1219.712, 155.5242
1220.194, 153.9071
1220.676, 151.3324
1221.158, 150.6005
1221.641, 151.4048
1222.123, 152.6368
1222.605, 153.8729
1223.087, 152.9365
1223.569, 149.7781
1224.051, 147.7732
1224.533, 148.8443
1225.015, 150.8388
1225.497, 151.8223
1225.980, 152.3230
1226.462, 152.9633
1226.944, 153.4985
1227.426, 153.3085
1227.908, 152.8717
1228.390, 153.5202
1228.872, 155.1535
1229.354, 155.6950
1229.837, 154.1293
1230.319, 152.3214
1230.801, 150.1069
1231.283, 148.8234
1231.765, 149.9420
1232.247, 151.3200
1232.729, 150.9743
1233.211, 149.9032
1233.693, 150.3000
1234.176, 152.0590
1234.658, 151.8178
1235.140, 148.2487
1235.622, 146.9351
1236.104, 148.9145
1236.586, 150.0997
1237.068, 149.0318
1237.550, 148.2395
1238.032, 149.6721
1238.515, 151.8846
1238.997, 152.3725
1239.479, 151.6373
1239.961, 151.7328
1240.443, 152.4777
1240.925, 153.1344
1241.407, 153.6079
1241.889, 153.9576
1242.372, 154.1603
1242.854, 153.8370
1243.336, 152.6173
1243.818, 151.6592
1244.300, 152.4517
1244.782, 153.5983
1245.264, 154.0736
1245.746, 153.8343
1246.229, 152.1239
1246.711, 150.0099
1247.193, 150.0046
1247.675, 152.1884
1248.157, 152.9216
1248.639, 149.9173
1249.121, 148.2462
1249.603, 150.3209
1250.085, 151.7165
1250.568, 150.3014
1251.050, 148.7054
1251.532, 148.5313
1252.014, 149.4181
1252.496, 151.0709
1252.978, 153.2701
1253.460, 153.2353
1253.942, 150.6484
1254.424, 149.5697
1254.907, 150.3166
1255.389, 150.2672
1255.871, 148.7213
1256.353, 147.4414
1256.835, 147.5728
1257.317, 148.3063
1257.799, 148.6319
1258.281, 148.8385
1258.764, 149.7379
1259.246, 150.7240
1259.728, 150.3496
1260.210, 149.2481
1260.692, 149.2961
1261.174, 150.5159
1261.656, 151.0146
1262.138, 149.8600
1262.620, 148.9545
1263.103, 149.4482
1263.585, 150.0199
1264.067, 150.1605
1264.549, 150.0862
1265.031, 149.6264
1265.513, 149.2733
1265.995, 149.8508
1266.477, 151.1425
1266.959, 152.0172
1267.442, 152.3750
1267.924, 152.7733
1268.406, 153.3059
1268.888, 153.4087
1269.370, 152.9368
1269.852, 152.2881
1270.334, 151.6328
1270.816, 151.2153
1271.299, 151.3297
1271.781, 151.7649
1272.263, 152.3880
1272.745, 152.8577
1273.227, 151.8341
1273.709, 150.1273
1274.191, 150.2213
1274.673, 151.7031
1275.156, 151.5221
1275.638, 148.8335
1276.120, 147.1577
1276.602, 149.2168
1277.084, 151.3193
1277.566, 151.5478
1278.048, 151.3694
1278.530, 152.1761
1279.012, 152.5476
1279.495, 149.7336
1279.977, 145.8336
1280.459, 146.3721
1280.941, 151.4655
1281.423, 153.6043
1281.905, 151.7282
1282.387, 150.9964
1282.869, 151.9967
1283.351, 152.6130
1283.834, 152.1917
1284.316, 151.6174
1284.798, 151.4793
1285.280, 151.5737
##END=



