##NAMES=Garronite-Ca
##RRUFFID=R050281
##IDEAL CHEMISTRY=NaCa_2.5_(Si_10_Al_6_)O_32_&#183;14H_2_O
##LOCALITY=Pete's Point, Aneroid Lake, Wallowa County, Oregon, USA
##OWNER=RRUFF
##SOURCE=Marcus Origlieri
##DESCRIPTION=White radiating crystal aggregates completely filling amygdules
##STATUS=The identification of this mineral has been confirmed by X-ray diffraction and chemical analysis
##URL=rruff.info/R050281
##MEASURED CHEMISTRY=(Na_0.94_K_0.06_)_Σ=1_Ca_2.50_(Si_10.00_Al_6.00_)O_32_·13H_2_O
92.54132, 0.0000000E+00
93.02344, 6.219800
93.50555, 5.784525
93.98767, 5.625999
94.46979, 5.831616
94.95190, 6.308950
95.43402, 6.858841
95.91614, 7.477633
96.39825, 8.160907
96.88037, 8.896638
97.36249, 9.686972
97.84460, 10.51702
98.32672, 11.29997
98.80884, 12.04992
99.29095, 13.15234
99.77307, 14.66589
100.2552, 16.45738
100.7373, 18.20453
101.2194, 19.85528
101.7015, 21.59863
102.1837, 23.55768
102.6658, 25.73352
103.1479, 28.05571
103.6300, 30.55070
104.1121, 33.18231
104.5942, 35.73243
105.0763, 38.21076
105.5585, 40.62429
106.0406, 43.02317
106.5227, 45.43540
107.0048, 47.74768
107.4869, 49.92648
107.9690, 51.96880
108.4512, 53.89913
108.9333, 55.52802
109.4154, 57.15700
109.8975, 59.09119
110.3796, 61.24995
110.8617, 63.82014
111.3439, 66.87746
111.8260, 70.49996
112.3081, 74.33859
112.7902, 78.40881
113.2723, 82.68786
113.7544, 87.07883
114.2366, 91.86565
114.7187, 96.53117
115.2008, 100.7525
115.6829, 104.1883
116.1650, 107.8708
116.6471, 112.3789
117.1293, 117.3879
117.6114, 122.1961
118.0935, 126.6957
118.5756, 130.8058
119.0577, 134.5016
119.5398, 137.6428
120.0220, 140.5124
120.5041, 143.2206
120.9862, 145.7843
121.4683, 148.2727
121.9504, 150.7184
122.4325, 153.1002
122.9147, 155.4462
123.3968, 157.9969
123.8789, 160.2925
124.3610, 161.5640
124.8431, 161.9230
125.3252, 162.5459
125.8074, 164.5639
126.2895, 167.4784
126.7716, 170.3383
127.2537, 172.7323
127.7358, 174.8834
128.2179, 177.1315
128.7001, 179.4772
129.1822, 181.7767
129.6643, 183.6420
130.1464, 185.2383
130.6285, 187.2510
131.1106, 190.2321
131.5928, 193.9007
132.0749, 197.4200
132.5570, 200.7274
133.0391, 203.7923
133.5212, 206.4986
134.0033, 208.5234
134.4855, 209.3844
134.9676, 209.3567
135.4497, 209.1819
135.9318, 208.9839
136.4139, 208.8209
136.8960, 208.5797
137.3782, 207.9873
137.8603, 207.0146
138.3424, 205.9136
138.8245, 204.7803
139.3066, 203.5793
139.7887, 202.5920
140.2709, 201.9070
140.7530, 201.4282
141.2351, 200.8617
141.7172, 200.2384
142.1993, 199.4550
142.6814, 198.3528
143.1636, 196.6421
143.6457, 195.4119
144.1278, 194.9734
144.6099, 195.1956
145.0920, 194.7994
145.5741, 193.2884
146.0563, 191.7200
146.5384, 190.9591
147.0205, 191.5315
147.5026, 192.0267
147.9847, 192.3292
148.4668, 192.4488
148.9490, 192.1520
149.4311, 191.0495
149.9132, 189.7711
150.3953, 188.9117
150.8774, 188.8474
151.3595, 188.7904
151.8417, 188.5397
152.3238, 188.0049
152.8059, 187.8014
153.2880, 188.2906
153.7701, 188.9864
154.2522, 189.3712
154.7344, 189.2834
155.2165, 188.9910
155.6986, 188.5229
156.1807, 187.8248
156.6628, 187.1467
157.1449, 186.5536
157.6271, 185.9993
158.1092, 185.4176
158.5913, 184.8646
159.0734, 184.2280
159.5555, 183.3532
160.0376, 181.9910
160.5198, 181.0793
161.0019, 181.3833
161.4840, 182.2826
161.9661, 182.6913
162.4482, 181.5006
162.9303, 180.2287
163.4125, 179.8636
163.8946, 181.0602
164.3767, 182.0278
164.8588, 181.7188
165.3409, 180.5630
165.8230, 179.5784
166.3052, 179.5143
166.7873, 179.6364
167.2694, 179.3281
167.7515, 178.1925
168.2336, 177.0858
168.7157, 176.6570
169.1978, 176.7268
169.6800, 176.7059
170.1621, 176.0137
170.6442, 175.1695
171.1263, 174.7426
171.6084, 175.1218
172.0905, 175.5971
172.5727, 175.6240
173.0548, 175.2424
173.5369, 174.6536
174.0190, 173.9391
174.5011, 173.1072
174.9832, 172.1169
175.4654, 170.6618
175.9475, 169.3740
176.4296, 169.0762
176.9117, 169.6788
177.3938, 170.4191
177.8759, 170.9883
178.3581, 171.2720
178.8402, 171.0224
179.3223, 170.0318
179.8044, 168.5862
180.2865, 166.8811
180.7686, 164.9419
181.2508, 163.2507
181.7329, 162.3270
182.2150, 161.9836
182.6971, 161.7547
183.1792, 161.6750
183.6613, 161.5290
184.1435, 160.8097
184.6256, 159.4966
185.1077, 158.0371
185.5898, 156.7954
186.0719, 155.7619
186.5540, 154.7880
187.0362, 153.7886
187.5183, 152.8286
188.0004, 152.2535
188.4825, 152.1150
188.9646, 151.8666
189.4467, 150.7483
189.9289, 148.8713
190.4110, 147.1612
190.8931, 146.0202
191.3752, 145.2916
191.8573, 144.2955
192.3394, 142.9833
192.8216, 141.5989
193.3037, 140.4077
193.7858, 139.4068
194.2679, 138.4980
194.7500, 137.7537
195.2321, 137.1114
195.7143, 136.0089
196.1964, 134.3109
196.6785, 132.5975
197.1606, 131.8052
197.6427, 132.0028
198.1248, 131.8951
198.6070, 130.8647
199.0891, 128.9891
199.5712, 127.4613
200.0533, 126.3331
200.5354, 125.4307
201.0175, 124.5280
201.4997, 123.6019
201.9818, 122.8274
202.4639, 122.4351
202.9460, 122.4289
203.4281, 121.6171
203.9102, 119.7100
204.3924, 117.5304
204.8745, 116.3531
205.3566, 116.3774
205.8387, 116.4745
206.3208, 116.3046
206.8029, 115.8705
207.2851, 115.0741
207.7672, 113.7543
208.2493, 112.3038
208.7314, 111.4016
209.2135, 111.2379
209.6956, 110.9668
210.1778, 110.2461
210.6599, 109.0095
211.1420, 107.8644
211.6241, 106.7628
212.1062, 105.8220
212.5883, 105.3131
213.0705, 105.4242
213.5526, 105.4402
214.0347, 105.0360
214.5168, 104.0997
214.9989, 103.5611
215.4810, 103.6512
215.9632, 103.9115
216.4453, 103.5317
216.9274, 102.2134
217.4095, 100.9609
217.8916, 100.1704
218.3737, 99.95339
218.8559, 99.55868
219.3380, 98.99045
219.8201, 98.24771
220.3022, 97.25012
220.7843, 95.76352
221.2664, 94.54916
221.7486, 93.93774
222.2307, 94.09446
222.7128, 94.01883
223.1949, 93.65684
223.6770, 93.10856
224.1591, 92.51505
224.6413, 91.81404
225.1234, 91.18385
225.6055, 90.70853
226.0876, 90.45255
226.5697, 90.04558
227.0518, 89.47951
227.5340, 88.76881
228.0161, 87.91984
228.4982, 86.79859
228.9803, 85.76380
229.4624, 84.93673
229.9445, 84.34559
230.4267, 83.75328
230.9088, 83.07729
231.3909, 82.44992
231.8730, 82.10265
232.3551, 82.30587
232.8372, 82.29942
233.3194, 81.77607
233.8015, 80.56622
234.2836, 79.78092
234.7657, 79.62520
235.2478, 79.72431
235.7299, 79.58015
236.2121, 79.05740
236.6942, 78.52316
237.1763, 78.03737
237.6584, 77.58183
238.1405, 77.34280
238.6226, 77.53793
239.1048, 77.77677
239.5869, 77.54127
240.0690, 76.47179
240.5511, 75.58247
241.0332, 75.23262
241.5153, 75.54478
241.9975, 75.26619
242.4796, 73.98305
242.9617, 72.47714
243.4438, 71.65859
243.9259, 71.89211
244.4080, 72.15446
244.8902, 72.25804
245.3723, 72.20077
245.8544, 71.99550
246.3365, 71.49200
246.8186, 70.98531
247.3007, 70.80711
247.7829, 71.24094
248.2650, 71.45565
248.7471, 71.23515
249.2292, 70.56586
249.7113, 69.99277
250.1934, 69.50658
250.6756, 69.11991
251.1577, 68.83505
251.6398, 68.63842
252.1219, 68.58079
252.6040, 68.74563
253.0861, 69.11340
253.5683, 69.25756
254.0504, 69.09707
254.5325, 68.81055
255.0146, 68.54382
255.4967, 68.32571
255.9788, 68.04984
256.4609, 67.65263
256.9431, 67.16705
257.4252, 66.86101
257.9073, 66.82655
258.3894, 66.84048
258.8715, 66.73302
259.3536, 66.43644
259.8358, 66.20416
260.3179, 66.12253
260.8000, 66.13374
261.2821, 65.87630
261.7642, 65.15299
262.2463, 64.49343
262.7285, 64.28139
263.2106, 64.69929
263.6927, 64.99790
264.1748, 65.14531
264.6569, 65.12608
265.1390, 64.81911
265.6212, 64.04903
266.1033, 63.36044
266.5854, 63.11300
267.0675, 63.47132
267.5496, 63.62649
268.0317, 63.45933
268.5139, 63.10692
268.9960, 62.95405
269.4781, 63.07726
269.9602, 63.19334
270.4423, 63.14841
270.9244, 62.90745
271.4066, 62.67535
271.8887, 62.43832
272.3708, 62.22897
272.8529, 62.13354
273.3350, 62.17995
273.8171, 62.23863
274.2993, 62.23468
274.7814, 62.15157
275.2635, 62.20135
275.7456, 62.46098
276.2277, 62.73161
276.7098, 62.61772
277.1920, 62.03045
277.6741, 61.54444
278.1562, 61.41439
278.6383, 61.63679
279.1204, 61.79428
279.6025, 61.90076
280.0847, 61.91380
280.5668, 61.75335
281.0489, 61.40736
281.5310, 61.01502
282.0131, 60.52538
282.4952, 59.99409
282.9774, 59.96703
283.4595, 60.54960
283.9416, 61.20856
284.4237, 61.32722
284.9058, 60.90870
285.3879, 60.48201
285.8701, 60.16411
286.3522, 59.94645
286.8343, 59.81752
287.3164, 59.78621
287.7985, 59.77954
288.2806, 59.70317
288.7628, 59.57137
289.2449, 59.54882
289.7270, 59.71742
290.2091, 59.97506
290.6912, 60.05125
291.1733, 59.94256
291.6555, 59.81541
292.1376, 59.85577
292.6197, 60.00477
293.1018, 59.95838
293.5839, 59.60882
294.0660, 59.14859
294.5482, 58.91183
295.0303, 58.88639
295.5124, 58.91473
295.9945, 58.89845
296.4766, 58.86020
296.9587, 58.86371
297.4409, 58.91896
297.9230, 59.00867
298.4051, 59.17921
298.8872, 59.39000
299.3693, 59.46633
299.8514, 59.20683
300.3336, 58.77146
300.8157, 58.41458
301.2978, 58.14331
301.7799, 58.02476
302.2620, 58.26812
302.7441, 58.73860
303.2263, 59.08453
303.7084, 59.05527
304.1905, 58.85612
304.6726, 58.74892
305.1547, 58.74111
305.6368, 58.73830
306.1190, 58.73513
306.6011, 58.67479
307.0832, 58.45497
307.5653, 57.83693
308.0474, 57.19371
308.5295, 56.91158
309.0117, 56.95760
309.4938, 57.06139
309.9759, 57.02590
310.4580, 56.95415
310.9401, 56.98346
311.4222, 57.27083
311.9044, 57.51564
312.3865, 57.47772
312.8686, 57.21247
313.3507, 56.91787
313.8328, 56.65760
314.3149, 56.43491
314.7971, 56.23158
315.2792, 55.96234
315.7613, 55.87468
316.2434, 56.30507
316.7255, 57.01067
317.2076, 57.46386
317.6898, 57.30024
318.1719, 56.93805
318.6540, 56.54943
319.1361, 56.09630
319.6182, 55.87363
320.1003, 56.21524
320.5825, 56.79158
321.0646, 57.14968
321.5467, 56.94109
322.0288, 56.69644
322.5109, 56.65403
322.9930, 56.86468
323.4752, 56.92928
323.9573, 56.58282
324.4394, 56.14124
324.9215, 55.88910
325.4036, 56.21000
325.8857, 56.36218
326.3679, 56.07594
326.8500, 55.37691
327.3321, 54.90590
327.8142, 54.76290
328.2963, 54.82083
328.7784, 55.00636
329.2606, 55.59181
329.7427, 55.96796
330.2248, 56.04569
330.7069, 55.88772
331.1890, 55.73488
331.6711, 55.55433
332.1533, 55.41293
332.6354, 55.33712
333.1175, 55.33541
333.5996, 55.39380
334.0817, 55.62030
334.5638, 55.85886
335.0460, 55.76677
335.5281, 55.06609
336.0102, 54.54692
336.4923, 54.50775
336.9744, 55.02502
337.4565, 55.46147
337.9387, 55.86586
338.4208, 56.13050
338.9029, 56.06596
339.3850, 55.56562
339.8671, 55.14393
340.3492, 54.91493
340.8313, 54.86550
341.3134, 54.93559
341.7956, 55.17930
342.2777, 55.37669
342.7598, 55.23981
343.2419, 54.74699
343.7240, 54.58438
344.2061, 54.96436
344.6883, 55.63373
345.1704, 55.95408
345.6525, 55.91604
346.1346, 55.74090
346.6167, 55.51819
347.0988, 55.25927
347.5810, 55.04560
348.0631, 54.87206
348.5452, 54.76559
349.0273, 54.76835
349.5094, 54.87407
349.9915, 55.04823
350.4737, 55.39002
350.9558, 55.77100
351.4379, 55.83613
351.9200, 55.56471
352.4021, 55.25429
352.8842, 55.20201
353.3664, 55.32366
353.8485, 55.42342
354.3306, 55.41429
354.8127, 55.36734
355.2948, 55.32835
355.7769, 55.30804
356.2591, 55.37942
356.7412, 55.67767
357.2233, 56.06195
357.7054, 56.37934
358.1875, 56.60236
358.6696, 56.73170
359.1518, 56.69722
359.6339, 56.56225
360.1160, 56.48204
360.5981, 56.68641
361.0802, 56.86318
361.5623, 56.74068
362.0445, 56.19960
362.5266, 55.75708
363.0087, 55.59602
363.4908, 55.66969
363.9729, 55.92180
364.4550, 56.63885
364.9372, 57.24708
365.4193, 57.51798
365.9014, 57.43922
366.3835, 57.30111
366.8656, 56.94807
367.3477, 56.68246
367.8299, 56.71537
368.3120, 57.44759
368.7941, 58.04115
369.2762, 58.33683
369.7583, 58.40435
370.2404, 58.56773
370.7226, 58.98680
371.2047, 59.34463
371.6868, 59.49046
372.1689, 59.24886
372.6510, 59.20884
373.1331, 59.47232
373.6153, 59.88054
374.0974, 60.15005
374.5795, 60.14427
375.0616, 60.28704
375.5437, 60.81499
376.0258, 61.74342
376.5080, 62.11056
376.9901, 61.69440
377.4722, 61.13121
377.9543, 61.05465
378.4364, 61.52938
378.9185, 62.05810
379.4007, 62.57866
379.8828, 63.06712
380.3649, 63.42976
380.8470, 63.65731
381.3291, 63.81242
381.8112, 63.89001
382.2934, 63.90940
382.7755, 64.02078
383.2576, 64.25338
383.7397, 64.53014
384.2218, 64.72923
384.7039, 64.86903
385.1861, 65.03874
385.6682, 65.28466
386.1503, 65.58775
386.6324, 65.91720
387.1145, 66.26855
387.5966, 66.65784
388.0788, 67.15862
388.5609, 67.70012
389.0430, 68.15325
389.5251, 68.43721
390.0072, 68.67717
390.4893, 69.03459
390.9715, 69.45830
391.4536, 69.77843
391.9357, 69.67199
392.4178, 69.54973
392.8999, 69.81120
393.3820, 70.65904
393.8642, 71.44505
394.3463, 71.80795
394.8284, 71.92168
395.3105, 72.05032
395.7926, 72.16647
396.2747, 72.41705
396.7569, 72.93991
397.2390, 73.75316
397.7211, 74.43414
398.2032, 74.76867
398.6853, 75.01653
399.1674, 75.36456
399.6496, 75.95907
400.1317, 76.50041
400.6138, 76.86284
401.0959, 77.13966
401.5780, 77.67216
402.0602, 78.69871
402.5423, 79.69963
403.0244, 80.42048
403.5065, 80.71024
403.9886, 81.27968
404.4707, 82.25716
404.9529, 83.39029
405.4350, 84.30216
405.9171, 84.88827
406.3992, 85.60715
406.8813, 86.61832
407.3634, 87.86923
407.8456, 89.03889
408.3277, 90.09897
408.8098, 91.20240
409.2919, 92.53052
409.7740, 94.06676
410.2561, 95.42107
410.7383, 96.53139
411.2204, 97.46877
411.7025, 98.40395
412.1846, 99.32517
412.6667, 100.1364
413.1488, 100.5805
413.6310, 100.9130
414.1131, 101.8222
414.5952, 103.3657
415.0773, 104.7808
415.5594, 105.0924
416.0415, 104.8435
416.5237, 105.0584
417.0058, 106.5751
417.4879, 108.1189
417.9700, 108.3417
418.4521, 107.5590
418.9342, 107.0613
419.4164, 108.0060
419.8985, 109.2070
420.3806, 109.7580
420.8627, 109.4339
421.3448, 108.7475
421.8269, 107.5880
422.3091, 106.2605
422.7912, 105.1858
423.2733, 104.6397
423.7554, 104.1919
424.2375, 103.7623
424.7196, 103.3520
425.2018, 102.8415
425.6839, 102.1126
426.1660, 101.3654
426.6481, 100.7030
427.1302, 100.1204
427.6123, 99.66977
428.0945, 99.48943
428.5766, 99.39877
429.0587, 98.90609
429.5408, 97.71249
430.0229, 96.75813
430.5050, 96.46386
430.9872, 96.86006
431.4693, 97.08900
431.9514, 97.13098
432.4335, 97.05434
432.9156, 96.90107
433.3977, 96.66801
433.8799, 96.43356
434.3620, 96.16232
434.8441, 95.95236
435.3262, 96.02409
435.8083, 96.37306
436.2904, 96.92214
436.7726, 97.69139
437.2547, 98.61826
437.7368, 99.59153
438.2189, 100.6214
438.7010, 101.5858
439.1831, 102.2585
439.6652, 102.8012
440.1473, 103.5268
440.6295, 104.6508
441.1116, 105.9250
441.5937, 107.1663
442.0758, 108.3913
442.5579, 109.6442
443.0400, 110.8317
443.5222, 112.1426
444.0043, 113.7778
444.4864, 115.9261
444.9685, 117.9483
445.4506, 119.4570
445.9327, 120.7621
446.4149, 122.3155
446.8970, 124.2496
447.3791, 126.3715
447.8612, 128.7939
448.3433, 131.5267
448.8254, 133.8664
449.3076, 135.4703
449.7897, 136.9758
450.2718, 138.7509
450.7539, 140.8486
451.2360, 143.0761
451.7181, 145.4700
452.2003, 147.9867
452.6824, 150.5180
453.1645, 153.0959
453.6466, 155.6153
454.1287, 157.9250
454.6108, 160.1120
455.0930, 162.7532
455.5751, 165.9403
456.0572, 169.1530
456.5393, 171.7890
457.0214, 173.9817
457.5035, 176.3232
457.9857, 178.9983
458.4678, 181.7497
458.9499, 184.1669
459.4320, 186.3279
459.9141, 188.5732
460.3962, 191.2236
460.8784, 193.9657
461.3605, 196.3324
461.8426, 198.3375
462.3247, 200.3582
462.8068, 202.7765
463.2889, 205.3182
463.7711, 207.6619
464.2532, 209.6526
464.7353, 211.5278
465.2174, 213.2899
465.6995, 214.9805
466.1816, 216.7393
466.6638, 218.7556
467.1459, 220.6546
467.6280, 222.3588
468.1101, 223.8847
468.5922, 225.0130
469.0743, 225.4411
469.5565, 225.6924
470.0386, 226.2122
470.5207, 227.2184
471.0028, 228.0278
471.4849, 228.5125
471.9670, 228.7857
472.4492, 229.2644
472.9313, 230.1092
473.4134, 230.5981
473.8955, 230.2889
474.3776, 229.2217
474.8597, 228.2764
475.3419, 227.4355
475.8240, 226.7745
476.3061, 226.6198
476.7882, 226.7902
477.2703, 226.4070
477.7524, 225.1186
478.2346, 223.4375
478.7167, 222.0082
479.1988, 220.7746
479.6809, 219.5269
480.1630, 218.1483
480.6451, 216.6977
481.1273, 215.3683
481.6094, 214.1828
482.0915, 212.5570
482.5736, 209.8410
483.0557, 206.6545
483.5378, 203.5661
484.0200, 200.6813
484.5021, 197.9642
484.9842, 195.5746
485.4663, 193.3450
485.9484, 190.8652
486.4305, 187.7747
486.9127, 184.7243
487.3948, 182.0010
487.8769, 179.7435
488.3590, 176.9812
488.8411, 173.3375
489.3232, 169.5880
489.8054, 166.4776
490.2875, 164.2608
490.7696, 161.7962
491.2517, 158.9338
491.7338, 155.8163
492.2159, 152.9140
492.6981, 150.2501
493.1802, 147.3181
493.6623, 143.7237
494.1444, 139.6514
494.6265, 136.0111
495.1086, 132.7545
495.5908, 129.8798
496.0729, 127.6452
496.5550, 125.7108
497.0371, 123.3504
497.5192, 120.2438
498.0013, 117.0858
498.4835, 114.5368
498.9656, 112.3804
499.4477, 110.2358
499.9298, 107.9117
500.4119, 105.5373
500.8940, 103.1098
501.3762, 100.6146
501.8583, 98.36662
502.3404, 96.68686
502.8225, 95.07925
503.3046, 93.22091
503.7867, 90.73782
504.2689, 88.53776
504.7510, 86.74352
505.2331, 85.20747
505.7152, 83.68880
506.1973, 82.20589
506.6794, 80.75143
507.1616, 79.31899
507.6437, 77.90535
508.1258, 76.58025
508.6079, 75.34644
509.0900, 74.18818
509.5721, 73.08609
510.0543, 72.04431
510.5364, 71.12696
511.0185, 70.35406
511.5006, 69.63323
511.9827, 68.82703
512.4648, 67.97658
512.9470, 67.21400
513.4291, 66.61809
513.9112, 66.09138
514.3933, 65.59383
514.8754, 65.08618
515.3575, 64.42456
515.8397, 63.22169
516.3218, 62.04930
516.8039, 61.42177
517.2860, 61.48517
517.7681, 61.40705
518.2502, 60.65516
518.7324, 59.75969
519.2145, 59.19489
519.6966, 59.63250
520.1787, 59.66006
520.6608, 58.90474
521.1429, 57.69030
521.6251, 56.81739
522.1072, 56.43473
522.5893, 56.11071
523.0714, 55.70795
523.5535, 55.22667
524.0356, 54.79333
524.5178, 54.40931
524.9999, 54.06229
525.4820, 53.80449
525.9641, 53.61537
526.4462, 53.18500
526.9283, 52.40813
527.4105, 51.58876
527.8926, 51.14856
528.3747, 51.00520
528.8568, 50.89437
529.3389, 50.75988
529.8210, 50.56146
530.3032, 50.20547
530.7853, 49.72589
531.2674, 49.29985
531.7495, 49.18855
532.2316, 49.05809
532.7137, 48.58208
533.1959, 47.55271
533.6780, 46.82759
534.1601, 46.88206
534.6422, 47.22093
535.1243, 47.33383
535.6064, 47.04683
536.0886, 46.70381
536.5707, 46.32801
537.0528, 45.91467
537.5349, 45.43807
538.0170, 44.81264
538.4991, 44.34373
538.9813, 44.25805
539.4634, 44.51831
539.9455, 44.30398
540.4276, 43.53072
540.9097, 42.76447
541.3918, 42.64690
541.8740, 43.00233
542.3561, 43.12983
542.8382, 42.89893
543.3203, 42.49051
543.8024, 42.01296
544.2845, 41.51722
544.7667, 41.12854
545.2488, 40.95317
545.7309, 40.86432
546.2130, 40.82707
546.6951, 40.81802
547.1772, 40.73317
547.6594, 40.43920
548.1415, 40.12992
548.6236, 39.91241
549.1057, 39.82193
549.5878, 39.74304
550.0699, 39.71716
550.5521, 39.66602
551.0342, 39.49797
551.5163, 39.05536
551.9984, 38.86157
552.4805, 39.07186
552.9626, 39.48337
553.4448, 39.63385
553.9269, 39.50643
554.4090, 39.25491
554.8911, 38.88919
555.3732, 38.45355
555.8553, 38.11622
556.3375, 37.87847
556.8196, 37.65796
557.3017, 37.33886
557.7838, 37.01349
558.2659, 36.85488
558.7480, 36.90360
559.2302, 37.00488
559.7123, 37.06160
560.1944, 37.09507
560.6765, 37.13326
561.1586, 37.32592
561.6407, 37.37374
562.1229, 37.00175
562.6050, 36.39501
563.0871, 36.08344
563.5692, 36.48714
564.0513, 36.83744
564.5334, 36.89631
565.0156, 36.65043
565.4977, 36.48756
565.9798, 36.44897
566.4619, 36.42096
566.9440, 36.33822
567.4261, 36.20400
567.9083, 35.92986
568.3904, 35.44492
568.8725, 35.02010
569.3546, 35.16787
569.8367, 35.73968
570.3188, 36.05206
570.8010, 35.76892
571.2831, 35.28080
571.7652, 35.00833
572.2473, 34.93180
572.7294, 34.99606
573.2115, 35.39551
573.6937, 35.75038
574.1758, 35.72363
574.6579, 35.28675
575.1400, 34.98191
575.6221, 35.11085
576.1042, 35.33276
576.5864, 35.42637
577.0685, 35.37770
577.5506, 35.18071
578.0327, 34.66093
578.5148, 34.11761
578.9969, 34.00082
579.4791, 34.46746
579.9612, 34.79688
580.4433, 34.83342
580.9254, 34.65331
581.4075, 34.38067
581.8896, 34.01877
582.3718, 33.77514
582.8539, 33.90532
583.3360, 34.19373
583.8181, 34.13615
584.3002, 33.74324
584.7823, 33.32965
585.2645, 32.97123
585.7466, 32.78991
586.2286, 32.99770
586.7108, 33.79681
587.1929, 34.42070
587.6750, 34.44796
588.1571, 34.15862
588.6392, 33.87816
589.1213, 33.50705
589.6035, 33.34675
590.0856, 33.59783
590.5677, 34.06089
591.0498, 34.15283
591.5319, 33.67522
592.0140, 33.27902
592.4962, 33.22947
592.9783, 33.47179
593.4604, 33.54156
593.9425, 33.41277
594.4246, 33.32572
594.9067, 33.64693
595.3889, 34.15320
595.8710, 34.05560
596.3531, 33.22329
596.8352, 32.42117
597.3173, 32.49237
597.7994, 32.99453
598.2816, 33.25996
598.7637, 32.90069
599.2458, 32.58238
599.7279, 32.73117
600.2100, 33.13093
600.6921, 33.37150
601.1743, 33.22903
601.6564, 33.06688
602.1385, 32.97958
602.6206, 32.95526
603.1027, 32.89891
603.5848, 32.80683
604.0670, 32.68913
604.5491, 32.51100
605.0312, 32.26950
605.5133, 32.23659
605.9954, 32.44506
606.4775, 32.68824
606.9597, 32.78878
607.4418, 32.76071
607.9239, 32.62807
608.4060, 32.36425
608.8881, 32.11515
609.3702, 32.05130
609.8524, 32.10154
610.3345, 32.14564
610.8166, 32.09394
611.2987, 32.07033
611.7808, 32.15996
612.2629, 32.32574
612.7451, 32.45394
613.2272, 32.62013
613.7093, 32.64185
614.1914, 32.38552
614.6735, 31.84824
615.1556, 31.59011
615.6378, 31.73033
616.1199, 31.91108
616.6020, 31.87822
617.0841, 31.62426
617.5662, 31.53173
618.0483, 31.64295
618.5305, 31.75436
619.0126, 31.56925
619.4947, 31.20483
619.9768, 30.99056
620.4589, 31.02184
620.9410, 31.17058
621.4232, 31.46422
621.9053, 31.77539
622.3874, 31.87255
622.8695, 31.43023
623.3516, 30.99813
623.8337, 30.78891
624.3159, 30.77160
624.7980, 30.78733
625.2801, 30.80350
625.7622, 30.87121
626.2443, 31.03803
626.7264, 31.31097
627.2086, 31.44907
627.6907, 31.42555
628.1728, 31.34392
628.6549, 31.26485
629.1370, 31.18914
629.6191, 31.14166
630.1013, 31.13140
630.5834, 31.09771
631.0655, 30.93430
631.5476, 30.70792
632.0297, 30.54414
632.5118, 30.47078
632.9940, 30.47790
633.4761, 30.62504
633.9582, 30.83686
634.4403, 30.98382
634.9224, 31.03595
635.4045, 31.00939
635.8867, 30.82051
636.3688, 30.53349
636.8509, 30.45670
637.3330, 30.78226
637.8151, 30.98308
638.2972, 30.78367
638.7794, 30.22444
639.2615, 30.05974
639.7436, 30.33674
640.2257, 30.69670
640.7078, 30.90313
641.1899, 30.98350
641.6721, 31.02482
642.1542, 31.03514
642.6363, 30.98929
643.1184, 30.82235
643.6005, 30.60316
644.0826, 30.40956
644.5648, 30.21626
645.0469, 30.14262
645.5290, 30.38529
646.0111, 30.73264
646.4932, 30.87978
646.9753, 30.58294
647.4575, 30.33426
647.9396, 30.16741
648.4217, 30.08895
648.9038, 30.15532
649.3859, 30.42367
649.8680, 30.61967
650.3502, 30.62744
650.8323, 30.49162
651.3144, 30.37973
651.7965, 30.28756
652.2786, 30.15072
652.7607, 29.75374
653.2429, 29.36269
653.7250, 29.46354
654.2071, 30.07860
654.6892, 30.61929
655.1713, 30.75958
655.6534, 30.68471
656.1356, 30.52193
656.6177, 30.23609
657.0998, 30.00088
657.5819, 29.72588
658.0640, 29.58570
658.5461, 29.82215
659.0283, 30.71780
659.5104, 31.13421
659.9925, 30.80805
660.4746, 30.14721
660.9567, 29.86823
661.4388, 29.95480
661.9210, 30.13354
662.4031, 30.37470
662.8852, 30.58316
663.3673, 30.56109
663.8494, 30.37212
664.3315, 30.22601
664.8137, 30.23009
665.2958, 30.31433
665.7779, 30.50180
666.2600, 30.76479
666.7421, 30.88618
667.2242, 30.70400
667.7064, 30.46913
668.1885, 30.28599
668.6706, 30.16189
669.1527, 30.03127
669.6348, 29.87070
670.1169, 29.75117
670.5991, 29.72235
671.0812, 29.78292
671.5633, 29.93021
672.0454, 30.18269
672.5275, 30.41040
673.0096, 30.46448
673.4918, 30.38914
673.9739, 30.25553
674.4560, 30.04709
674.9381, 29.86795
675.4202, 29.75864
675.9023, 29.72766
676.3845, 29.78785
676.8666, 30.06073
677.3487, 30.28650
677.8308, 30.38998
678.3129, 30.41520
678.7950, 30.45905
679.2772, 30.54889
679.7593, 30.58354
680.2414, 30.51523
680.7235, 30.37758
681.2056, 30.29797
681.6877, 30.27646
682.1699, 30.25246
682.6520, 30.15275
683.1341, 30.04570
683.6162, 30.07879
684.0983, 30.23625
684.5804, 30.35195
685.0626, 30.30820
685.5447, 30.19902
686.0268, 30.07413
686.5089, 29.93065
686.9910, 29.83077
687.4731, 29.80610
687.9553, 29.81140
688.4374, 29.80733
688.9195, 29.74419
689.4016, 29.85891
689.8837, 30.21836
690.3658, 30.60481
690.8480, 30.74704
691.3301, 30.67421
691.8122, 30.56135
692.2943, 30.40978
692.7764, 30.32838
693.2585, 30.55221
693.7407, 30.91346
694.2228, 31.10101
694.7049, 30.89654
695.1870, 30.63335
695.6691, 30.38585
696.1512, 30.19216
696.6334, 30.13191
697.1155, 30.37635
697.5976, 30.55026
698.0797, 30.54032
698.5618, 30.41694
699.0439, 30.47729
699.5261, 30.76216
700.0082, 31.00808
700.4903, 31.08341
700.9724, 31.04596
701.4545, 31.01294
701.9366, 30.99798
702.4188, 31.11098
702.9009, 31.59611
703.3830, 32.12980
703.8651, 32.36990
704.3472, 32.30337
704.8293, 32.22042
705.3115, 32.30547
705.7936, 32.34787
706.2757, 32.15038
706.7578, 31.56611
707.2399, 31.40365
707.7220, 31.87750
708.2042, 32.43496
708.6863, 32.58546
709.1684, 32.32407
709.6505, 32.18607
710.1326, 32.21157
710.6147, 32.31813
711.0969, 32.45957
711.5790, 32.60804
712.0611, 32.71735
712.5432, 32.79569
713.0253, 32.78063
713.5074, 32.49122
713.9896, 32.13631
714.4717, 31.97776
714.9538, 32.25998
715.4359, 32.51790
715.9180, 32.70604
716.4001, 32.83621
716.8823, 32.92609
717.3644, 32.97103
717.8465, 32.98856
718.3286, 32.97509
718.8107, 32.94517
719.2928, 32.95704
719.7750, 32.99410
720.2571, 32.95250
720.7392, 32.67148
721.2213, 32.39233
721.7034, 32.44844
722.1855, 32.72530
722.6677, 32.86378
723.1498, 32.55464
723.6319, 32.23319
724.1140, 32.08501
724.5961, 32.10149
725.0782, 32.08217
725.5604, 31.98401
726.0425, 31.93143
726.5246, 32.01014
727.0067, 32.19542
727.4888, 32.24300
727.9709, 32.15061
728.4531, 31.97932
728.9352, 31.67212
729.4173, 31.35367
729.8994, 31.26766
730.3815, 31.41968
730.8636, 31.59367
731.3458, 31.75059
731.8279, 31.81308
732.3100, 31.69339
732.7921, 31.31674
733.2742, 31.01884
733.7563, 30.85299
734.2385, 30.73789
734.7206, 30.58205
735.2027, 30.33452
735.6848, 30.42917
736.1669, 30.96522
736.6490, 31.49128
737.1312, 31.43339
737.6133, 30.97819
738.0954, 30.64206
738.5775, 30.52205
739.0596, 30.48376
739.5417, 30.39641
740.0239, 30.33910
740.5060, 30.41390
740.9881, 30.79609
741.4702, 31.07336
741.9523, 31.14010
742.4344, 31.08275
742.9166, 30.97638
743.3987, 30.78499
743.8808, 30.68788
744.3629, 30.75176
744.8450, 30.84165
745.3271, 30.64231
745.8093, 30.22983
746.2914, 30.02823
746.7735, 30.23588
747.2556, 30.57809
747.7377, 30.91540
748.2198, 31.16960
748.7020, 31.19738
749.1841, 30.67157
749.6662, 30.21816
750.1483, 30.03146
750.6304, 30.05309
751.1125, 30.14536
751.5947, 30.38902
752.0768, 30.49720
752.5589, 30.34893
753.0410, 30.05276
753.5231, 29.92163
754.0052, 29.94467
754.4874, 30.01383
754.9695, 30.12551
755.4516, 30.21722
755.9337, 30.18060
756.4158, 30.05138
756.8979, 29.95266
757.3801, 29.93922
757.8622, 29.96599
758.3443, 30.03835
758.8264, 30.14547
759.3085, 30.19714
759.7906, 30.16387
760.2728, 30.13679
760.7549, 30.17996
761.2370, 30.26033
761.7191, 30.13821
762.2012, 29.81657
762.6833, 29.54287
763.1655, 29.52515
763.6476, 29.61990
764.1297, 29.63621
764.6118, 29.57707
765.0939, 29.51740
765.5760, 29.52002
766.0582, 29.50894
766.5403, 29.43931
767.0224, 29.30519
767.5045, 29.15447
767.9866, 28.96532
768.4688, 28.80051
768.9509, 28.72228
769.4330, 28.71936
769.9151, 28.55186
770.3972, 28.21240
770.8793, 27.94117
771.3615, 28.05322
771.8436, 28.28449
772.3257, 28.20449
772.8078, 27.78358
773.2899, 27.41357
773.7720, 27.32010
774.2542, 27.32448
774.7363, 27.34338
775.2184, 27.40166
775.7005, 27.29758
776.1826, 26.93577
776.6647, 26.57218
777.1469, 26.39009
777.6290, 26.38494
778.1111, 26.43710
778.5932, 26.55245
779.0753, 26.59774
779.5574, 26.32963
780.0396, 25.97361
780.5217, 25.89615
781.0038, 26.18304
781.4859, 26.37765
781.9680, 26.20026
782.4501, 25.90946
782.9323, 25.70893
783.4144, 25.66902
783.8964, 25.49247
784.3785, 25.09638
784.8607, 24.71107
785.3428, 24.57550
785.8249, 24.65925
786.3070, 24.70141
786.7891, 24.68392
787.2712, 24.61544
787.7534, 24.44495
788.2355, 24.25426
788.7176, 24.17949
789.1997, 24.28903
789.6818, 24.29387
790.1639, 23.93348
790.6461, 23.53475
791.1282, 23.37012
791.6103, 23.58180
792.0924, 23.62751
792.5745, 23.46591
793.0566, 23.22796
793.5388, 23.02257
794.0209, 22.84931
794.5030, 22.72690
794.9851, 22.66147
795.4672, 22.59678
795.9493, 22.42896
796.4315, 22.26088
796.9136, 22.23128
797.3957, 22.43144
797.8778, 22.56404
798.3599, 22.54150
798.8420, 22.43207
799.3242, 22.25016
799.8063, 21.90944
800.2884, 21.86852
800.7705, 22.21688
801.2526, 22.60288
801.7347, 22.58812
802.2169, 22.30865
802.6990, 22.19598
803.1811, 22.33782
803.6632, 22.43839
804.1453, 22.20755
804.6274, 21.86185
805.1096, 21.59574
805.5917, 21.44658
806.0738, 21.37840
806.5559, 21.39677
807.0380, 21.47751
807.5201, 21.64068
808.0023, 21.90983
808.4844, 21.99581
808.9665, 21.86668
809.4486, 21.65790
809.9307, 21.42161
810.4128, 21.22864
810.8950, 21.24587
811.3771, 21.52728
811.8592, 21.81003
812.3413, 22.03520
812.8234, 22.14697
813.3055, 22.07225
813.7877, 21.69217
814.2698, 21.44260
814.7519, 21.36706
815.2340, 21.35184
815.7161, 21.29379
816.1982, 21.20088
816.6804, 21.19658
817.1625, 21.29676
817.6446, 21.36594
818.1267, 21.24880
818.6088, 21.04486
819.0909, 20.85218
819.5731, 20.67036
820.0552, 20.59908
820.5373, 20.79383
821.0194, 21.01493
821.5015, 21.10622
821.9836, 21.04201
822.4658, 20.95821
822.9479, 20.83312
823.4300, 20.75664
823.9121, 20.85952
824.3942, 21.06890
824.8763, 21.14317
825.3585, 21.06997
825.8406, 20.95614
826.3227, 20.79453
826.8048, 20.68524
827.2869, 20.75418
827.7690, 21.05546
828.2512, 21.21214
828.7333, 21.13243
829.2154, 20.98716
829.6975, 20.84318
830.1796, 20.70188
830.6617, 20.64395
831.1439, 20.67585
831.6260, 20.70679
832.1081, 20.64193
832.5902, 20.54921
833.0723, 20.55361
833.5544, 20.64901
834.0366, 20.68912
834.5187, 20.51178
835.0008, 20.34425
835.4829, 20.33314
835.9650, 20.47212
836.4471, 20.55546
836.9293, 20.57425
837.4114, 20.55917
837.8935, 20.48879
838.3756, 20.40355
838.8577, 20.48237
839.3398, 20.70260
839.8220, 20.89695
840.3041, 20.97657
840.7862, 20.98215
841.2683, 20.90458
841.7504, 20.76527
842.2325, 20.68986
842.7147, 20.76761
843.1968, 20.82809
843.6789, 20.83231
844.1610, 20.78444
844.6431, 20.66366
845.1252, 20.46491
845.6074, 20.38244
846.0895, 20.58961
846.5716, 20.87342
847.0537, 20.90538
847.5358, 20.75965
848.0179, 20.64181
848.5001, 20.68276
848.9822, 20.72109
849.4643, 20.71095
849.9464, 20.65469
850.4285, 20.52896
850.9106, 20.25966
851.3928, 20.19695
851.8749, 20.50666
852.3570, 20.92960
852.8391, 20.87741
853.3212, 20.49120
853.8033, 20.24708
854.2855, 20.37828
854.7676, 20.58660
855.2497, 20.72123
855.7318, 20.78616
856.2139, 20.78409
856.6960, 20.66256
857.1782, 20.55083
857.6603, 20.45038
858.1424, 20.37102
858.6245, 20.33172
859.1066, 20.33071
859.5887, 20.36509
860.0709, 20.45485
860.5530, 20.48315
861.0351, 20.24468
861.5172, 19.90549
861.9993, 19.68811
862.4814, 19.67456
862.9636, 19.68835
863.4457, 19.65409
863.9278, 19.65957
864.4099, 19.79295
864.8920, 20.09333
865.3741, 20.28077
865.8563, 20.33710
866.3384, 20.35813
866.8205, 20.44530
867.3026, 20.55723
867.7847, 20.58580
868.2668, 20.51790
868.7490, 20.53171
869.2311, 20.90185
869.7132, 21.23631
870.1953, 21.21653
870.6774, 20.81034
871.1595, 20.58212
871.6417, 20.59916
872.1238, 20.60908
872.6059, 20.41708
873.0880, 20.10529
873.5701, 19.98787
874.0522, 20.04483
874.5344, 20.13007
875.0165, 20.21898
875.4986, 20.25012
875.9807, 20.10345
876.4628, 19.82743
876.9449, 19.75835
877.4271, 20.06716
877.9092, 20.30978
878.3913, 20.34477
878.8734, 20.23605
879.3555, 20.16374
879.8376, 20.12720
880.3198, 20.12781
880.8019, 20.21549
881.2840, 20.27350
881.7661, 20.15421
882.2482, 19.92891
882.7303, 19.73406
883.2125, 19.53085
883.6946, 19.47758
884.1767, 19.68290
884.6588, 19.96644
885.1409, 20.01529
885.6230, 19.81905
886.1052, 19.73378
886.5873, 19.83462
887.0694, 20.00634
887.5515, 20.18606
888.0336, 20.32204
888.5157, 20.31375
888.9979, 20.06862
889.4800, 19.88938
889.9621, 19.89805
890.4442, 19.98214
890.9263, 20.08840
891.4084, 20.25167
891.8906, 20.19996
892.3727, 19.89335
892.8548, 19.60305
893.3369, 19.58909
893.8190, 19.74411
894.3011, 19.89702
894.7833, 20.03471
895.2654, 20.17355
895.7475, 20.38648
896.2296, 20.54228
896.7117, 20.53941
897.1938, 20.39428
897.6760, 20.30314
898.1581, 20.28685
898.6402, 20.23740
899.1223, 20.06232
899.6044, 19.85140
900.0865, 19.86161
900.5687, 20.02972
901.0508, 20.12345
901.5329, 19.98319
902.0150, 19.78905
902.4971, 19.55211
902.9792, 19.33683
903.4614, 19.30510
903.9435, 19.55830
904.4256, 19.71901
904.9077, 19.70764
905.3898, 19.60771
905.8719, 19.51071
906.3541, 19.44130
906.8362, 19.49729
907.3183, 19.74956
907.8004, 19.98643
908.2825, 20.08603
908.7646, 20.09629
909.2468, 20.05957
909.7289, 19.94074
910.2110, 19.87846
910.6931, 19.88279
911.1752, 19.92233
911.6573, 20.03573
912.1395, 20.16734
912.6216, 20.00647
913.1037, 19.54633
913.5858, 19.19686
914.0679, 19.34385
914.5500, 19.63532
915.0322, 19.85896
915.5143, 19.99390
915.9964, 20.00821
916.4785, 19.80227
916.9606, 19.69068
917.4427, 19.85913
917.9249, 20.18003
918.4070, 20.20315
918.8891, 19.97693
919.3712, 19.76325
919.8533, 19.66077
920.3354, 19.64674
920.8176, 19.76171
921.2997, 19.94635
921.7818, 20.07680
922.2639, 20.18044
922.7460, 20.14097
923.2281, 19.89592
923.7103, 19.57828
924.1924, 19.35673
924.6745, 19.23412
925.1566, 19.25014
925.6387, 19.42938
926.1208, 19.63931
926.6030, 19.83015
927.0851, 19.96572
927.5672, 19.98590
928.0493, 19.79915
928.5314, 19.79521
929.0135, 20.05986
929.4957, 20.35273
929.9778, 20.51861
930.4599, 20.57203
930.9420, 20.59409
931.4241, 20.58303
931.9063, 20.52015
932.3884, 20.26333
932.8705, 20.06473
933.3526, 20.19694
933.8347, 20.58117
934.3168, 20.72879
934.7990, 20.47821
935.2811, 20.25982
935.7632, 20.16770
936.2453, 20.18088
936.7274, 20.29261
937.2095, 20.47836
937.6917, 20.62602
938.1738, 20.68962
938.6559, 20.72977
939.1380, 20.73304
939.6201, 20.76203
940.1022, 20.91296
940.5844, 21.40769
941.0665, 21.54279
941.5486, 21.16982
942.0307, 20.75055
942.5128, 20.77994
942.9949, 21.13074
943.4771, 21.29641
943.9592, 21.24923
944.4413, 21.22201
944.9234, 21.41040
945.4055, 21.63527
945.8876, 21.76790
946.3698, 21.80461
946.8519, 21.89030
947.3340, 22.04792
947.8161, 22.19351
948.2982, 22.29900
948.7803, 22.37201
949.2625, 22.41743
949.7446, 22.44424
950.2267, 22.48182
950.7088, 22.55005
951.1909, 22.62193
951.6730, 22.70814
952.1552, 22.77945
952.6373, 22.78133
953.1194, 22.65546
953.6015, 22.65177
954.0836, 22.80728
954.5657, 23.02134
955.0479, 23.20181
955.5300, 23.35238
956.0121, 23.49250
956.4942, 23.62561
956.9763, 23.70649
957.4584, 23.55615
957.9406, 23.49420
958.4227, 23.80066
958.9048, 24.42943
959.3869, 24.68732
959.8690, 24.53329
960.3511, 24.29719
960.8333, 24.06191
961.3154, 23.90814
961.7975, 24.03698
962.2796, 24.35040
962.7617, 24.59697
963.2438, 24.60192
963.7260, 24.62723
964.2081, 24.78727
964.6902, 24.96308
965.1723, 24.98507
965.6544, 24.84061
966.1365, 24.70725
966.6187, 24.59446
967.1008, 24.56676
967.5829, 24.79833
968.0650, 25.09080
968.5471, 25.17360
969.0292, 24.98104
969.5114, 24.88471
969.9935, 25.01947
970.4756, 25.18898
970.9577, 25.30430
971.4398, 25.38489
971.9219, 25.59328
972.4041, 25.91273
972.8862, 26.14906
973.3683, 26.14574
973.8504, 26.07746
974.3325, 26.07576
974.8146, 26.11806
975.2968, 26.15621
975.7789, 26.15248
976.2610, 26.20837
976.7431, 26.36748
977.2252, 26.52666
977.7073, 26.47708
978.1895, 26.30539
978.6716, 26.38523
979.1537, 26.78329
979.6358, 27.12772
980.1179, 27.06709
980.6000, 26.94055
981.0822, 27.03616
981.5642, 27.37147
982.0463, 27.51518
982.5284, 27.40288
983.0106, 27.34630
983.4927, 27.53051
983.9748, 27.82150
984.4569, 28.00531
984.9390, 28.06842
985.4211, 27.98250
985.9033, 27.41995
986.3854, 27.08547
986.8675, 27.38433
987.3496, 27.92658
987.8317, 28.28331
988.3138, 28.44108
988.7960, 28.51180
989.2781, 28.49632
989.7602, 28.45165
990.2423, 28.46684
990.7244, 28.46511
991.2065, 28.30178
991.6887, 27.96376
992.1708, 27.76073
992.6529, 27.79717
993.1350, 27.94753
993.6171, 28.22399
994.0992, 28.56659
994.5814, 28.72027
995.0635, 28.70849
995.5456, 28.69225
996.0277, 28.72642
996.5098, 28.79425
996.9919, 28.90376
997.4741, 29.03109
997.9562, 29.14021
998.4383, 29.19452
998.9204, 29.30414
999.4025, 29.48818
999.8846, 29.68353
1000.367, 29.85693
1000.849, 29.99162
1001.331, 30.02283
1001.813, 29.95467
1002.295, 29.87152
1002.777, 29.77727
1003.259, 29.72003
1003.742, 29.73813
1004.224, 29.81138
1004.706, 29.86356
1005.188, 29.88577
1005.670, 30.00159
1006.152, 30.29904
1006.634, 30.57398
1007.116, 30.44875
1007.599, 30.17398
1008.081, 30.14400
1008.563, 30.56103
1009.045, 30.93535
1009.527, 31.25715
1010.009, 31.45888
1010.491, 31.41016
1010.973, 31.15569
1011.455, 31.24093
1011.938, 31.63364
1012.420, 32.02415
1012.902, 32.27474
1013.384, 32.39718
1013.866, 32.32995
1014.348, 32.13935
1014.830, 32.02927
1015.312, 32.02275
1015.794, 32.05191
1016.277, 32.12372
1016.759, 32.17950
1017.241, 32.05907
1017.723, 31.88498
1018.205, 31.93993
1018.687, 32.30181
1019.169, 32.61164
1019.651, 32.64014
1020.134, 32.66863
1020.616, 32.85945
1021.098, 33.18563
1021.580, 33.40779
1022.062, 33.52555
1022.544, 33.57773
1023.026, 33.54853
1023.508, 33.50563
1023.990, 33.46625
1024.473, 33.47283
1024.955, 33.60421
1025.437, 33.99257
1025.919, 34.30669
1026.401, 34.53051
1026.883, 34.68666
1027.365, 34.82928
1027.847, 34.91887
1028.330, 34.75755
1028.812, 34.35888
1029.294, 34.07420
1029.776, 34.20403
1030.258, 34.39598
1030.740, 34.48760
1031.222, 34.50214
1031.704, 34.49849
1032.187, 34.47034
1032.669, 34.50469
1033.151, 34.63270
1033.633, 34.80783
1034.115, 35.05593
1034.597, 35.27945
1035.079, 35.32140
1035.561, 35.05459
1036.043, 34.92972
1036.526, 35.01797
1037.008, 35.17931
1037.490, 35.38276
1037.972, 35.58338
1038.454, 35.56987
1038.936, 35.37440
1039.418, 35.15522
1039.900, 34.82708
1040.382, 34.68346
1040.865, 35.08490
1041.347, 35.66997
1041.829, 35.83670
1042.311, 35.49760
1042.793, 35.28676
1043.275, 35.27026
1043.757, 35.32147
1044.239, 35.33070
1044.722, 35.32592
1045.204, 35.33083
1045.686, 35.34884
1046.168, 35.41110
1046.650, 35.56366
1047.132, 35.69670
1047.614, 35.79918
1048.096, 35.84306
1048.578, 35.67816
1049.061, 35.38867
1049.543, 35.27812
1050.025, 35.48585
1050.507, 35.75222
1050.989, 35.98008
1051.471, 36.17207
1051.953, 36.30596
1052.435, 36.36321
1052.917, 36.62480
1053.400, 37.11040
1053.882, 37.52952
1054.364, 37.64540
1054.846, 37.63733
1055.328, 37.65697
1055.810, 37.71992
1056.292, 37.86784
1056.774, 38.25715
1057.257, 38.47995
1057.739, 38.45943
1058.221, 38.34643
1058.703, 38.31355
1059.185, 38.33923
1059.667, 38.35102
1060.149, 38.34368
1060.631, 38.37236
1061.114, 38.47596
1061.596, 38.61882
1062.078, 38.85955
1062.560, 39.11399
1063.042, 38.97242
1063.524, 38.43356
1064.006, 38.23298
1064.488, 38.67435
1064.970, 39.22702
1065.453, 39.33177
1065.935, 39.27302
1066.417, 39.38243
1066.899, 39.76052
1067.381, 40.15238
1067.863, 40.62373
1068.345, 40.91928
1068.827, 40.83025
1069.309, 40.50376
1069.792, 40.18854
1070.274, 39.92184
1070.756, 39.80700
1071.238, 40.17177
1071.720, 40.30013
1072.202, 39.83335
1072.684, 39.29015
1073.166, 39.30871
1073.649, 39.83458
1074.131, 40.14056
1074.613, 40.18817
1075.095, 40.11264
1075.577, 39.88952
1076.059, 39.68642
1076.541, 39.65763
1077.023, 39.75053
1077.505, 39.72733
1077.988, 39.57021
1078.470, 39.37248
1078.952, 39.13114
1079.434, 38.92493
1079.916, 38.86794
1080.398, 38.89347
1080.880, 38.88599
1081.362, 38.80352
1081.844, 38.91327
1082.327, 39.44558
1082.809, 39.77048
1083.291, 39.55159
1083.773, 38.99860
1084.255, 38.66745
1084.737, 38.50619
1085.219, 38.35624
1085.701, 38.17993
1086.183, 37.96375
1086.666, 37.50388
1087.148, 37.16857
1087.630, 37.37445
1088.112, 38.16636
1088.594, 38.29670
1089.076, 37.78216
1089.558, 37.19321
1090.040, 36.79062
1090.523, 36.54834
1091.005, 36.53269
1091.487, 36.64947
1091.969, 36.68395
1092.451, 36.64656
1092.933, 36.43763
1093.415, 36.01200
1093.897, 35.58091
1094.380, 35.41350
1094.862, 35.35291
1095.344, 35.05994
1095.826, 34.55357
1096.308, 34.51332
1096.790, 35.61913
1097.272, 36.33025
1097.754, 36.17274
1098.236, 35.55033
1098.719, 35.13615
1099.201, 34.91907
1099.683, 34.91956
1100.165, 35.19737
1100.647, 35.37334
1101.129, 35.22044
1101.611, 34.95325
1102.093, 34.64388
1102.575, 34.32122
1103.058, 34.27003
1103.540, 34.46268
1104.022, 34.52705
1104.504, 34.25613
1104.986, 33.90564
1105.468, 33.60475
1105.950, 33.36581
1106.432, 33.21334
1106.915, 33.18420
1107.397, 33.04362
1107.879, 32.77005
1108.361, 32.56977
1108.843, 32.71238
1109.325, 32.91628
1109.807, 32.81424
1110.289, 32.49210
1110.771, 32.18579
1111.254, 31.95686
1111.736, 31.70697
1112.218, 31.39255
1112.700, 31.13889
1113.182, 31.16158
1113.664, 31.31793
1114.146, 31.27120
1114.628, 31.02417
1115.110, 30.82299
1115.593, 30.78632
1116.075, 30.79569
1116.557, 30.86550
1117.039, 30.91425
1117.521, 30.74334
1118.003, 30.40229
1118.485, 30.12898
1118.967, 29.96351
1119.450, 29.82822
1119.932, 29.58508
1120.414, 29.45621
1120.896, 29.65884
1121.378, 30.08868
1121.860, 30.14868
1122.342, 29.84858
1122.824, 29.52325
1123.307, 29.25928
1123.789, 29.06180
1124.271, 28.94758
1124.753, 28.89472
1125.235, 28.90709
1125.717, 29.00301
1126.199, 28.98001
1126.681, 28.83283
1127.163, 28.60319
1127.646, 28.28219
1128.128, 27.92494
1128.610, 27.51831
1129.092, 27.14829
1129.574, 26.98058
1130.056, 27.20509
1130.538, 27.36614
1131.020, 27.48960
1131.502, 27.47576
1131.985, 27.10503
1132.467, 26.59815
1132.949, 26.45730
1133.431, 26.60010
1133.913, 26.71995
1134.395, 26.72071
1134.877, 26.66610
1135.359, 26.56043
1135.842, 26.41620
1136.324, 26.22963
1136.806, 26.01797
1137.288, 25.83101
1137.770, 25.67236
1138.252, 25.55467
1138.734, 25.53521
1139.216, 25.49076
1139.698, 25.33132
1140.181, 25.15566
1140.663, 25.22813
1141.145, 25.49834
1141.627, 25.60831
1142.109, 25.49920
1142.591, 25.25813
1143.073, 24.81212
1143.555, 24.37544
1144.037, 24.06200
1144.520, 23.87037
1145.002, 23.81650
1145.484, 23.89921
1145.966, 23.94738
1146.448, 23.90356
1146.930, 23.84415
1147.412, 23.93679
1147.894, 23.97717
1148.377, 23.65252
1148.859, 22.94328
1149.341, 22.74433
1149.823, 23.11551
1150.305, 23.42056
1150.787, 23.36750
1151.269, 23.15718
1151.751, 22.95325
1152.234, 22.76499
1152.716, 22.59455
1153.198, 22.39509
1153.680, 22.42857
1154.162, 22.76660
1154.644, 23.03059
1155.126, 22.92251
1155.608, 22.65174
1156.090, 22.55047
1156.573, 22.53139
1157.055, 22.41538
1157.537, 22.06772
1158.019, 21.74236
1158.501, 21.41727
1158.983, 21.17426
1159.465, 21.09269
1159.947, 21.13030
1160.429, 21.26355
1160.912, 21.44788
1161.394, 21.53082
1161.876, 21.38622
1162.358, 21.23199
1162.840, 21.08504
1163.322, 20.95770
1163.804, 20.89553
1164.286, 20.85788
1164.769, 20.72200
1165.251, 20.49235
1165.733, 20.25231
1166.215, 19.89343
1166.697, 19.75019
1167.179, 20.00579
1167.661, 20.36685
1168.143, 20.35325
1168.625, 20.05739
1169.108, 19.79982
1169.590, 19.62247
1170.072, 19.51149
1170.554, 19.51003
1171.036, 19.52202
1171.518, 19.53421
1172.000, 19.51671
1172.482, 19.33790
1172.964, 19.05058
1173.447, 18.98650
1173.929, 19.23040
1174.411, 19.43072
1174.893, 19.33550
1175.375, 19.17772
1175.857, 19.08733
1176.339, 19.03870
1176.821, 18.92329
1177.304, 18.75279
1177.786, 18.61467
1178.268, 18.51955
1178.750, 18.50834
1179.232, 18.77625
1179.714, 18.97960
1180.196, 18.80327
1180.678, 18.31852
1181.161, 18.21993
1181.643, 18.47341
1182.125, 18.59267
1182.607, 18.34444
1183.089, 18.06489
1183.571, 17.98356
1184.053, 18.00517
1184.535, 18.04511
1185.017, 18.10101
1185.500, 18.16729
1185.982, 18.24316
1186.464, 18.28759
1186.946, 18.31017
1187.428, 18.24765
1187.910, 17.89460
1188.392, 17.52812
1188.874, 17.52170
1189.356, 17.94964
1189.839, 18.03090
1190.321, 17.75570
1190.803, 17.46232
1191.285, 17.36122
1191.767, 17.30476
1192.249, 17.12674
1192.731, 16.93938
1193.213, 16.92678
1193.696, 17.15718
1194.178, 17.21595
1194.660, 17.08895
1195.142, 17.00565
1195.624, 17.21706
1196.106, 17.44616
1196.588, 17.47487
1197.070, 17.34267
1197.552, 17.11730
1198.035, 16.74838
1198.517, 16.54643
1198.999, 16.52765
1199.481, 16.63222
1199.963, 16.93197
1200.445, 17.22720
1200.927, 17.34929
1201.409, 17.32455
1201.891, 17.22458
1202.374, 17.00831
1202.856, 16.94835
1203.338, 17.07919
1203.820, 17.20258
1204.302, 17.10802
1204.784, 16.96239
1205.266, 16.92246
1205.748, 16.96106
1206.231, 16.96153
1206.713, 16.91928
1207.195, 16.82930
1207.677, 16.67753
1208.159, 16.58378
1208.641, 16.71967
1209.123, 16.91134
1209.605, 17.01313
1210.088, 17.02306
1210.570, 16.99323
1211.052, 16.90461
1211.534, 16.90785
1212.016, 17.04163
1212.498, 17.15639
1212.980, 17.05532
1213.462, 16.90630
1213.944, 16.89529
1214.427, 16.99056
1214.909, 16.92275
1215.391, 16.64667
1215.873, 16.54053
1216.355, 16.70336
1216.837, 16.88479
1217.319, 16.84843
1217.801, 16.70723
1218.283, 16.49165
1218.766, 16.24871
1219.248, 16.24914
1219.730, 16.52915
1220.212, 16.74790
1220.694, 16.83139
1221.176, 16.83726
1221.658, 16.77913
1222.140, 16.70280
1222.623, 16.64132
1223.105, 16.59919
1223.587, 16.60568
1224.069, 16.66778
1224.551, 16.66444
1225.033, 16.54769
1225.515, 16.44268
1225.997, 16.46317
1226.479, 16.54656
1226.962, 16.69499
1227.444, 16.87271
1227.926, 16.79164
1228.408, 16.44805
1228.890, 16.26969
1229.372, 16.40880
1229.854, 16.60157
1230.336, 16.67689
1230.818, 16.66985
1231.301, 16.55679
1231.783, 16.37749
1232.265, 16.44949
1232.747, 16.75606
1233.229, 16.78178
1233.711, 16.26564
1234.193, 15.84791
1234.675, 16.17781
1235.158, 16.64273
1235.640, 16.76658
1236.122, 16.60266
1236.604, 16.48829
1237.086, 16.42184
1237.568, 16.38303
1238.050, 16.37382
1238.532, 16.36407
1239.015, 16.27847
1239.497, 16.25051
1239.979, 16.42777
1240.461, 16.72723
1240.943, 16.61468
1241.425, 16.17913
1241.907, 15.93966
1242.389, 16.14534
1242.871, 16.32487
1243.354, 16.22752
1243.836, 16.03332
1244.318, 15.78321
1244.800, 15.53952
1245.282, 15.64181
1245.764, 16.01066
1246.246, 16.33493
1246.728, 16.54201
1247.210, 16.63476
1247.693, 16.49177
1248.175, 16.38473
1248.657, 16.49596
1249.139, 16.71383
1249.621, 16.63692
1250.103, 16.35632
1250.585, 16.12201
1251.067, 15.99944
1251.550, 15.95078
1252.032, 16.02107
1252.514, 16.06049
1252.996, 15.95903
1253.478, 15.80581
1253.960, 15.82727
1254.442, 15.96834
1254.924, 16.13259
1255.406, 16.35173
1255.889, 16.38729
1256.371, 16.14486
1256.853, 15.92027
1257.335, 15.86680
1257.817, 15.92133
1258.299, 16.04648
1258.781, 16.17307
1259.263, 16.15534
1259.745, 15.84629
1260.228, 15.80202
1260.710, 16.08703
1261.192, 16.43427
1261.674, 16.80265
1262.156, 17.03061
1262.638, 16.72645
1263.120, 16.21549
1263.602, 15.99389
1264.085, 16.19792
1264.567, 16.19246
1265.049, 15.94600
1265.531, 15.77553
1266.013, 15.86665
1266.495, 16.02319
1266.977, 16.08815
1267.459, 16.08155
1267.942, 15.99534
1268.424, 15.82711
1268.906, 15.83842
1269.388, 16.02550
1269.870, 16.12722
1270.352, 15.97187
1270.834, 15.82543
1271.316, 15.92513
1271.798, 16.08664
1272.281, 16.12665
1272.763, 16.06549
1273.245, 16.16971
1273.727, 16.40321
1274.209, 16.51408
1274.691, 16.36481
1275.173, 16.18172
1275.655, 15.95682
1276.137, 15.87316
1276.620, 16.12998
1277.102, 16.58091
1277.584, 16.58457
1278.066, 16.25050
1278.548, 15.95370
1279.030, 15.82419
1279.512, 15.68906
1279.994, 15.38101
1280.476, 15.26377
1280.959, 15.61157
1281.441, 16.17655
1281.923, 16.40886
1282.405, 16.38258
1282.887, 16.22847
1283.369, 15.93017
1283.851, 15.67225
1284.333, 15.41643
1284.816, 15.36776
1285.298, 15.71132
1285.780, 16.15188
1286.262, 15.99017
1286.744, 15.75323
##END=



