##NAMES=Garronite-Ca
##RRUFFID=R050281
##IDEAL CHEMISTRY=NaCa_2.5_(Si_10_Al_6_)O_32_&#183;14H_2_O
##LOCALITY=Pete's Point, Aneroid Lake, Wallowa County, Oregon, USA
##OWNER=RRUFF
##SOURCE=Marcus Origlieri
##DESCRIPTION=White radiating crystal aggregates completely filling amygdules
##STATUS=The identification of this mineral has been confirmed by X-ray diffraction and chemical analysis
##URL=rruff.info/R050281
##MEASURED CHEMISTRY=(Na_0.94_K_0.06_)_Σ=1_Ca_2.50_(Si_10.00_Al_6.00_)O_32_·13H_2_O
92.67285, 151.5032
93.15497, 150.3989
93.63708, 151.4551
94.11920, 157.9111
94.60132, 163.5939
95.08344, 167.6129
95.56555, 168.7725
96.04767, 168.4994
96.52979, 168.3628
97.01190, 168.2084
97.49402, 167.9426
97.97614, 167.8590
98.45825, 167.5215
98.94037, 166.9642
99.42249, 165.9394
99.90460, 164.2023
100.3867, 161.9947
100.8688, 159.8663
101.3510, 158.4218
101.8331, 157.7263
102.3152, 157.2629
102.7973, 156.5972
103.2794, 155.6897
103.7615, 155.0380
104.2437, 155.0004
104.7258, 155.2413
105.2079, 155.5902
105.6900, 156.0752
106.1721, 156.5001
106.6542, 156.3435
107.1364, 155.0478
107.6185, 153.9820
108.1006, 153.5394
108.5827, 153.4959
109.0648, 153.5676
109.5469, 153.5732
110.0291, 153.5110
110.5112, 153.4729
110.9933, 153.4629
111.4754, 153.4621
111.9575, 153.4288
112.4396, 153.3881
112.9218, 153.4229
113.4039, 153.6380
113.8860, 154.1094
114.3681, 154.3429
114.8502, 154.1559
115.3323, 153.8710
115.8144, 153.7277
116.2966, 153.7724
116.7787, 153.9119
117.2608, 154.0754
117.7429, 154.2779
118.2250, 154.3317
118.7071, 154.0257
119.1893, 153.5423
119.6714, 153.2771
120.1535, 153.3633
120.6356, 153.6637
121.1177, 154.1011
121.5998, 154.6823
122.0820, 155.0729
122.5641, 154.9776
123.0462, 154.3768
123.5283, 153.6469
124.0104, 152.5560
124.4925, 151.5566
124.9747, 150.9332
125.4568, 150.7497
125.9389, 150.8658
126.4210, 151.1220
126.9031, 151.7204
127.3852, 152.0201
127.8674, 152.0105
128.3495, 151.7078
128.8316, 151.0151
129.3137, 149.8903
129.7958, 148.5268
130.2780, 147.6418
130.7601, 148.0627
131.2422, 148.0843
131.7243, 147.3502
132.2064, 146.1124
132.6885, 144.7041
133.1707, 143.2839
133.6528, 141.9064
134.1349, 141.1277
134.6170, 141.3662
135.0991, 141.6664
135.5812, 141.6693
136.0633, 141.3705
136.5455, 140.8283
137.0276, 139.9600
137.5097, 138.8578
137.9918, 138.0409
138.4739, 137.7659
138.9560, 137.6759
139.4382, 137.3957
139.9203, 136.8837
140.4024, 136.3097
140.8845, 135.8088
141.3666, 135.3422
141.8487, 134.8234
142.3309, 134.2304
142.8130, 133.5630
143.2951, 132.7654
143.7772, 131.5915
144.2593, 130.6646
144.7414, 130.4113
145.2236, 130.6292
145.7057, 130.8139
146.1878, 130.5065
146.6699, 129.6619
147.1520, 129.0914
147.6341, 128.9860
148.1163, 129.0169
148.5984, 129.2543
149.0805, 129.5848
149.5626, 129.7117
150.0447, 129.2371
150.5268, 127.7955
151.0090, 126.8636
151.4911, 126.6280
151.9732, 126.6433
152.4553, 126.7253
152.9374, 126.8037
153.4195, 126.8210
153.9017, 126.6853
154.3838, 126.2824
154.8659, 125.9329
155.3480, 125.7531
155.8301, 125.5769
156.3122, 125.1756
156.7944, 124.4607
157.2765, 123.6488
157.7586, 123.1389
158.2407, 122.9257
158.7228, 122.8767
159.2049, 123.1321
159.6871, 123.5315
160.1692, 123.6892
160.6513, 123.4160
161.1334, 122.9252
161.6155, 122.5490
162.0976, 122.2987
162.5798, 122.0838
163.0619, 121.9110
163.5440, 121.7678
164.0261, 121.4540
164.5082, 120.6947
164.9903, 119.8842
165.4725, 119.3767
165.9546, 119.2395
166.4367, 119.2545
166.9188, 119.1769
167.4009, 118.9739
167.8830, 118.8129
168.3652, 118.8720
168.8473, 118.9094
169.3294, 118.7537
169.8115, 118.3490
170.2936, 117.7503
170.7757, 117.0335
171.2579, 116.0678
171.7400, 115.2303
172.2221, 114.4863
172.7042, 113.9006
173.1863, 113.6090
173.6684, 113.6708
174.1506, 113.9139
174.6327, 113.8096
175.1148, 112.8714
175.5969, 112.1088
176.0790, 111.6888
176.5611, 111.4614
177.0433, 111.2111
177.5254, 110.8189
178.0075, 110.3419
178.4896, 110.0692
178.9717, 110.5222
179.4538, 110.5811
179.9360, 109.6505
180.4181, 108.1245
180.9002, 106.8657
181.3823, 106.4369
181.8644, 106.6212
182.3465, 106.3364
182.8287, 105.2106
183.3108, 104.0587
183.7929, 103.2704
184.2750, 102.7988
184.7571, 102.4160
185.2392, 102.1024
185.7214, 101.7260
186.2035, 100.9743
186.6856, 99.51244
187.1677, 97.99118
187.6498, 97.05111
188.1319, 96.71646
188.6141, 96.33768
189.0962, 95.32614
189.5783, 94.12184
190.0604, 93.38541
190.5425, 93.54480
191.0246, 93.91193
191.5068, 93.40301
191.9889, 91.70949
192.4710, 90.17336
192.9531, 89.64127
193.4352, 89.50389
193.9173, 89.10517
194.3995, 88.12763
194.8816, 86.83499
195.3637, 85.86392
195.8458, 85.50431
196.3279, 84.93022
196.8100, 83.61479
197.2922, 82.07931
197.7743, 80.96813
198.2564, 80.64907
198.7385, 80.90556
199.2206, 80.92149
199.7027, 80.61795
200.1849, 80.13234
200.6670, 79.42525
201.1491, 78.58483
201.6312, 77.67606
202.1133, 76.72315
202.5954, 75.77677
203.0776, 75.14758
203.5597, 75.37116
204.0418, 75.36460
204.5239, 74.83796
205.0060, 73.98219
205.4881, 73.12222
205.9703, 72.46187
206.4524, 71.96471
206.9345, 71.33586
207.4166, 70.29372
207.8987, 69.43620
208.3808, 69.12466
208.8630, 69.12971
209.3451, 68.90897
209.8272, 68.06472
210.3093, 66.74022
210.7914, 66.01955
211.2735, 66.45016
211.7557, 66.79564
212.2378, 66.43484
212.7199, 65.55013
213.2020, 64.76345
213.6841, 64.47935
214.1662, 64.57600
214.6484, 64.43986
215.1305, 63.91679
215.6126, 63.33391
216.0947, 62.83961
216.5768, 62.43125
217.0589, 62.11079
217.5410, 61.94169
218.0232, 61.83414
218.5053, 61.57195
218.9874, 61.11475
219.4695, 60.54507
219.9516, 59.84708
220.4337, 59.02595
220.9159, 58.33793
221.3980, 57.96527
221.8801, 57.78299
222.3622, 57.65255
222.8443, 57.64965
223.3264, 57.52192
223.8086, 56.85066
224.2907, 55.55179
224.7728, 54.52509
225.2549, 54.43815
225.7370, 54.68020
226.2191, 54.73338
226.7013, 54.47307
227.1834, 54.04086
227.6655, 53.59528
228.1476, 53.13316
228.6297, 52.66954
229.1118, 52.13725
229.5940, 51.64726
230.0761, 51.32597
230.5582, 51.22072
231.0403, 51.15565
231.5224, 50.81676
232.0045, 50.04478
232.4867, 49.48079
232.9688, 49.42167
233.4509, 49.48351
233.9330, 49.38201
234.4151, 49.03985
234.8972, 48.59857
235.3794, 48.30518
235.8615, 48.28146
236.3436, 48.11737
236.8257, 47.68040
237.3078, 47.17591
237.7899, 46.72406
238.2721, 46.36213
238.7542, 46.08462
239.2363, 45.90684
239.7184, 45.96252
240.2005, 45.84130
240.6826, 45.47161
241.1648, 44.99783
241.6469, 44.43109
242.1290, 43.81554
242.6111, 43.31861
243.0932, 43.23833
243.5753, 43.96159
244.0575, 44.30769
244.5396, 44.10562
245.0217, 43.69653
245.5038, 43.22771
245.9859, 42.76734
246.4680, 42.43597
246.9502, 42.42876
247.4323, 43.01763
247.9144, 43.22556
248.3965, 42.76376
248.8786, 42.15612
249.3607, 41.77325
249.8429, 41.67376
250.3250, 41.68872
250.8071, 41.61538
251.2892, 41.40071
251.7713, 41.30629
252.2534, 41.45998
252.7356, 41.63902
253.2177, 41.65368
253.6998, 41.49390
254.1819, 41.32551
254.6640, 41.35002
255.1461, 41.62249
255.6283, 41.61106
256.1104, 41.05671
256.5925, 40.41288
257.0746, 39.98991
257.5567, 39.81352
258.0388, 39.77204
258.5210, 39.80431
259.0031, 39.90971
259.4852, 39.94271
259.9673, 39.87756
260.4494, 39.76007
260.9315, 39.60331
261.4137, 39.41278
261.8958, 39.23035
262.3779, 39.07020
262.8600, 38.94675
263.3421, 38.89830
263.8242, 38.94909
264.3064, 39.05672
264.7885, 39.30804
265.2706, 39.66972
265.7527, 39.75503
266.2348, 39.15464
266.7169, 38.15993
267.1991, 37.61794
267.6812, 37.75892
268.1633, 38.10265
268.6454, 38.39899
269.1275, 38.63718
269.6096, 38.69239
270.0918, 38.37370
270.5739, 37.92263
271.0560, 37.80890
271.5381, 38.20270
272.0202, 38.56301
272.5023, 38.41741
272.9845, 37.83460
273.4666, 37.35397
273.9487, 37.20687
274.4308, 37.21017
274.9129, 37.08086
275.3951, 36.78234
275.8772, 36.55898
276.3593, 36.63135
276.8414, 36.95234
277.3235, 37.22578
277.8056, 37.39549
278.2878, 37.46785
278.7699, 37.43285
279.2520, 37.29492
279.7341, 37.18796
280.2162, 37.29015
280.6983, 37.52801
281.1805, 37.48664
281.6626, 36.88924
282.1447, 36.31946
282.6268, 36.28943
283.1089, 36.68895
283.5910, 37.06026
284.0732, 37.10400
284.5553, 36.90522
285.0374, 36.79303
285.5195, 36.85706
286.0016, 36.87482
286.4837, 36.63277
286.9659, 36.25099
287.4480, 35.99125
287.9301, 36.08094
288.4122, 36.36105
288.8943, 36.37293
289.3764, 35.99931
289.8586, 35.60742
290.3407, 35.29176
290.8228, 35.08094
291.3049, 35.04696
291.7870, 35.28571
292.2691, 35.62920
292.7513, 35.73047
293.2334, 35.48428
293.7155, 35.29099
294.1976, 35.32604
294.6797, 35.46743
295.1618, 35.64250
295.6440, 35.84705
296.1261, 35.98762
296.6082, 35.89366
297.0903, 35.50256
297.5724, 35.13888
298.0545, 34.85556
298.5367, 34.64587
299.0188, 34.53900
299.5009, 34.53700
299.9830, 34.55257
300.4651, 34.47763
300.9472, 34.29591
301.4294, 34.14367
301.9115, 33.94436
302.3936, 33.86460
302.8757, 34.10232
303.3578, 34.60855
303.8399, 35.05907
304.3221, 35.13776
304.8042, 34.83793
305.2863, 34.54593
305.7684, 34.20113
306.2505, 33.94932
306.7326, 33.92641
307.2148, 34.05583
307.6969, 34.13297
308.1790, 33.96197
308.6611, 33.60698
309.1432, 33.48862
309.6253, 33.76079
310.1075, 34.06478
310.5896, 34.41213
311.0717, 34.67208
311.5538, 34.59971
312.0359, 33.97149
312.5180, 33.06800
313.0002, 32.67839
313.4823, 33.07268
313.9644, 33.43928
314.4465, 33.54815
314.9286, 33.52449
315.4107, 33.49315
315.8929, 33.49923
316.3750, 33.48539
316.8571, 33.32761
317.3392, 32.94835
317.8213, 32.67893
318.3034, 32.66463
318.7856, 32.72404
319.2677, 32.75187
319.7498, 32.72821
320.2319, 32.68431
320.7140, 32.64190
321.1961, 32.59539
321.6783, 32.59575
322.1604, 32.65129
322.6425, 32.75731
323.1246, 32.99552
323.6067, 33.30873
324.0888, 33.50193
324.5710, 33.36010
325.0531, 32.91175
325.5352, 32.57790
326.0173, 32.39535
326.4994, 32.29694
326.9815, 32.30506
327.4637, 32.36336
327.9458, 32.36031
328.4279, 32.19200
328.9100, 31.95324
329.3921, 31.96973
329.8742, 32.41008
330.3564, 32.76056
330.8385, 32.89525
331.3206, 32.85046
331.8027, 32.60454
332.2848, 32.11983
332.7669, 31.59568
333.2491, 31.38988
333.7312, 31.60738
334.2133, 31.72739
334.6954, 31.44234
335.1775, 31.13427
335.6596, 31.08514
336.1418, 31.32932
336.6239, 31.64133
337.1060, 31.80732
337.5881, 31.82327
338.0702, 31.80268
338.5523, 31.70713
339.0345, 31.62825
339.5165, 31.59171
339.9987, 31.60898
340.4808, 31.71241
340.9629, 32.01246
341.4450, 32.44101
341.9271, 32.62150
342.4092, 32.43937
342.8914, 32.20016
343.3735, 32.07314
343.8556, 31.99177
344.3377, 31.83399
344.8198, 31.48944
345.3019, 31.11619
345.7841, 31.03861
346.2662, 31.33871
346.7483, 31.60963
347.2304, 31.58385
347.7125, 31.50128
348.1946, 31.62284
348.6768, 32.03919
349.1589, 32.42616
349.6410, 32.37602
350.1231, 31.89410
350.6052, 31.55909
351.0873, 31.56637
351.5695, 31.70897
352.0516, 31.82505
352.5337, 31.91010
353.0158, 31.97494
353.4979, 32.03054
353.9800, 32.07150
354.4622, 32.07595
354.9443, 32.03312
355.4264, 31.97166
355.9085, 31.84911
356.3906, 31.71978
356.8727, 31.72782
357.3549, 32.08202
357.8370, 32.51001
358.3191, 32.54496
358.8012, 32.13082
359.2833, 31.81246
359.7654, 31.98560
360.2476, 32.38241
360.7297, 32.57819
361.2118, 32.48013
361.6939, 32.28201
362.1760, 32.06704
362.6581, 31.85514
363.1403, 31.77052
363.6224, 31.88474
364.1045, 32.10316
364.5866, 32.32235
365.0687, 32.54712
365.5508, 32.71113
366.0330, 32.73322
366.5151, 32.68930
366.9972, 32.73306
367.4793, 32.90434
367.9614, 33.06793
368.4435, 33.07270
368.9257, 32.94787
369.4078, 32.87255
369.8899, 32.87839
370.3720, 32.93785
370.8541, 33.05790
371.3362, 33.22844
371.8184, 33.35316
372.3005, 33.34002
372.7826, 33.26486
373.2647, 33.37995
373.7468, 33.81269
374.2289, 34.21823
374.7111, 34.46421
375.1932, 34.58860
375.6753, 34.63358
376.1574, 34.59438
376.6395, 34.57595
377.1216, 34.78965
377.6038, 35.34607
378.0859, 35.69927
378.5680, 35.62958
379.0501, 35.43633
379.5322, 35.38713
380.0143, 35.50921
380.4965, 35.68618
380.9786, 35.82955
381.4607, 35.93812
381.9428, 35.97145
382.4249, 35.81027
382.9070, 35.70717
383.3892, 35.80237
383.8713, 36.03364
384.3534, 36.27076
384.8355, 36.44805
385.3176, 36.57522
385.7997, 36.67881
386.2819, 36.68889
386.7640, 36.76514
387.2461, 37.00346
387.7282, 37.25952
388.2103, 37.34947
388.6924, 37.25431
389.1746, 37.17292
389.6567, 37.38734
390.1388, 38.05558
390.6209, 38.37648
391.1030, 38.00215
391.5851, 37.67220
392.0673, 37.74141
392.5494, 38.13272
393.0315, 38.59840
393.5136, 38.98134
393.9957, 39.28227
394.4778, 39.49384
394.9600, 39.46177
395.4421, 39.55407
395.9242, 39.99304
396.4063, 40.49477
396.8884, 40.72696
397.3705, 40.59259
397.8527, 40.33351
398.3348, 40.32018
398.8169, 40.61205
399.2990, 40.94177
399.7811, 41.41419
400.2632, 41.82109
400.7454, 41.97742
401.2275, 41.95168
401.7096, 41.99954
402.1917, 42.35115
402.6738, 42.94586
403.1559, 43.41082
403.6381, 43.62544
404.1202, 43.92168
404.6023, 44.55723
405.0844, 45.29052
405.5665, 45.79949
406.0486, 45.93481
406.5308, 45.94969
407.0129, 46.15948
407.4950, 46.57195
407.9771, 47.09029
408.4592, 47.80585
408.9413, 48.52261
409.4235, 49.06374
409.9056, 49.43380
410.3877, 49.75922
410.8698, 50.12057
411.3519, 50.49331
411.8340, 50.78999
412.3162, 50.96769
412.7983, 51.20376
413.2804, 51.65406
413.7625, 52.25983
414.2446, 52.90650
414.7267, 53.73246
415.2089, 54.42544
415.6910, 54.57586
416.1731, 54.29905
416.6552, 54.24858
417.1373, 54.77155
417.6194, 55.52575
418.1016, 55.86263
418.5837, 55.74140
419.0658, 55.54890
419.5479, 55.33551
420.0300, 55.13115
420.5121, 54.98449
420.9943, 54.90025
421.4764, 54.82508
421.9585, 54.70364
422.4406, 54.53606
422.9227, 54.42641
423.4048, 54.46110
423.8870, 54.45996
424.3691, 54.32869
424.8512, 54.10370
425.3333, 53.87671
425.8154, 53.69406
426.2975, 53.50348
426.7797, 53.16885
427.2618, 52.35007
427.7439, 51.92745
428.2260, 52.20689
428.7081, 52.65191
429.1902, 52.90342
429.6724, 52.90440
430.1545, 52.73981
430.6366, 52.43876
431.1187, 51.99111
431.6008, 51.91018
432.0829, 52.71351
432.5651, 53.34841
433.0472, 53.42954
433.5293, 53.25998
434.0114, 53.28282
434.4935, 53.69206
434.9756, 54.28761
435.4578, 54.66227
435.9399, 54.68158
436.4220, 54.91619
436.9041, 55.67643
437.3862, 56.48936
437.8683, 57.06716
438.3505, 57.43257
438.8326, 57.81486
439.3147, 58.39790
439.7968, 59.13662
440.2789, 59.81146
440.7610, 60.31831
441.2432, 61.00359
441.7253, 62.18772
442.2074, 63.59015
442.6895, 64.90130
443.1716, 66.05950
443.6537, 67.07581
444.1359, 67.83617
444.6180, 68.40733
445.1001, 69.30026
445.5822, 70.80294
446.0643, 72.39555
446.5464, 73.35876
447.0286, 73.77084
447.5107, 74.41232
447.9928, 75.66660
448.4749, 77.14651
448.9570, 78.43768
449.4391, 79.54011
449.9213, 80.64981
450.4034, 81.86281
450.8855, 83.18691
451.3676, 84.63975
451.8497, 86.33318
452.3318, 87.96288
452.8140, 89.49602
453.2961, 90.91215
453.7782, 92.08837
454.2603, 93.01962
454.7424, 93.99244
455.2245, 95.39079
455.7067, 97.35519
456.1888, 98.90236
456.6709, 99.57121
457.1530, 100.3732
457.6351, 101.8130
458.1172, 103.6766
458.5994, 105.5800
459.0815, 107.3351
459.5636, 108.9085
460.0457, 110.1970
460.5278, 111.0190
461.0099, 111.9162
461.4921, 113.0787
461.9742, 114.2109
462.4563, 115.0417
462.9384, 115.6195
463.4205, 116.2692
463.9026, 117.3140
464.3848, 118.6796
464.8669, 119.7756
465.3490, 120.3743
465.8311, 121.1430
466.3132, 122.8529
466.7953, 124.6554
467.2775, 125.3882
467.7596, 124.5843
468.2417, 123.5719
468.7238, 123.8572
469.2059, 125.2209
469.6880, 125.9421
470.1702, 125.4328
470.6523, 124.6970
471.1344, 124.8870
471.6165, 125.7404
472.0986, 126.1317
472.5807, 125.3792
473.0629, 124.3387
473.5450, 123.8096
474.0271, 123.7333
474.5092, 123.7158
474.9913, 123.6262
475.4734, 123.4051
475.9556, 122.8825
476.4377, 121.9773
476.9198, 121.0326
477.4019, 120.0075
477.8840, 119.0253
478.3661, 118.3228
478.8483, 117.8499
479.3304, 117.2156
479.8125, 116.0546
480.2946, 114.4104
480.7767, 112.9310
481.2589, 111.6420
481.7410, 110.4992
482.2231, 109.7837
482.7052, 109.0760
483.1873, 107.8402
483.6694, 105.9495
484.1516, 103.8272
484.6337, 102.0194
485.1158, 100.5644
485.5979, 99.15868
486.0800, 97.94392
486.5621, 96.61999
487.0443, 95.07339
487.5264, 93.33824
488.0085, 91.46218
488.4906, 89.42371
488.9727, 87.38011
489.4548, 85.63878
489.9370, 84.23657
490.4191, 82.69712
490.9012, 80.77133
491.3833, 78.80385
491.8654, 77.19028
492.3475, 75.90482
492.8297, 74.45920
493.3118, 72.52128
493.7939, 70.39391
494.2760, 68.44958
494.7581, 66.69641
495.2402, 65.07139
495.7224, 63.53502
496.2045, 62.09591
496.6866, 60.77511
497.1687, 59.60237
497.6508, 58.46585
498.1329, 57.37928
498.6151, 56.28989
499.0972, 55.10750
499.5793, 53.83406
500.0614, 52.58087
500.5435, 51.45743
501.0256, 50.45624
501.5078, 49.49541
501.9899, 48.76595
502.4720, 47.85174
502.9541, 46.42644
503.4362, 44.88701
503.9183, 43.72039
504.4004, 43.05734
504.8825, 42.65686
505.3647, 42.26693
505.8468, 41.91276
506.3289, 41.36534
506.8110, 40.53754
507.2931, 39.60784
507.7752, 38.49108
508.2574, 37.36098
508.7395, 36.56041
509.2216, 36.29055
509.7037, 36.22042
510.1858, 35.95672
510.6679, 35.50750
511.1501, 35.00020
511.6322, 34.44992
512.1143, 33.87544
512.5964, 33.22731
513.0786, 32.53022
513.5607, 32.04597
514.0428, 32.02296
514.5249, 32.10686
515.0070, 31.99055
515.4891, 31.69589
515.9713, 31.37058
516.4534, 31.08278
516.9355, 30.80181
517.4176, 30.45315
517.8997, 29.93181
518.3818, 29.56370
518.8640, 29.52152
519.3461, 29.50102
519.8282, 29.26262
520.3103, 28.83468
520.7924, 28.37784
521.2745, 27.99028
521.7567, 27.68707
522.2388, 27.56814
522.7209, 27.84432
523.2030, 27.91081
523.6851, 27.58849
524.1672, 27.12919
524.6494, 26.62194
525.1315, 26.12675
525.6136, 25.81468
526.0957, 25.96848
526.5778, 26.40770
527.0599, 26.41883
527.5421, 25.88401
528.0242, 25.32803
528.5063, 24.93959
528.9884, 24.69480
529.4705, 24.58299
529.9526, 24.63428
530.4348, 24.67823
530.9169, 24.64087
531.3990, 24.53332
531.8811, 24.37798
532.3632, 24.17699
532.8453, 23.89525
533.3275, 23.46655
533.8096, 22.92966
534.2917, 22.60459
534.7738, 22.62607
535.2559, 22.64833
535.7380, 22.62631
536.2202, 22.54977
536.7023, 22.36087
537.1844, 22.07497
537.6665, 21.83780
538.1486, 21.83133
538.6307, 22.05887
539.1129, 22.11408
539.5950, 21.85553
540.0771, 21.60146
540.5592, 21.41947
541.0413, 21.28618
541.5234, 21.18033
542.0056, 21.09556
542.4877, 21.01738
542.9698, 20.92804
543.4519, 20.83076
543.9340, 20.75204
544.4161, 20.70075
544.8983, 20.65143
545.3804, 20.60766
545.8625, 20.55005
546.3446, 20.43001
546.8267, 20.19926
547.3088, 19.98406
547.7910, 19.85049
548.2731, 19.78551
548.7552, 19.78039
549.2373, 19.83383
549.7194, 19.88206
550.2015, 19.85534
550.6837, 19.75077
551.1658, 19.69405
551.6479, 19.80221
552.1300, 19.81255
552.6121, 19.58993
553.0942, 19.25623
553.5764, 18.93239
554.0585, 18.66495
554.5406, 18.49090
555.0227, 18.49813
555.5048, 18.70905
555.9869, 18.72332
556.4691, 18.36661
556.9512, 18.05329
557.4333, 17.95044
557.9154, 17.96149
558.3975, 17.96101
558.8796, 17.91108
559.3618, 17.88124
559.8439, 17.99133
560.3260, 18.18183
560.8081, 18.20023
561.2902, 17.97650
561.7723, 17.73566
562.2545, 17.64483
562.7366, 17.68176
563.2187, 17.70814
563.7008, 17.70418
564.1829, 17.71332
564.6650, 17.79065
565.1472, 17.87498
565.6293, 17.88228
566.1114, 17.79538
566.5935, 17.64270
567.0756, 17.43681
567.5577, 17.17831
568.0399, 17.02509
568.5220, 17.09864
569.0041, 17.13453
569.4862, 17.04544
569.9683, 16.92463
570.4504, 16.83942
570.9326, 16.81496
571.4147, 16.89388
571.8968, 17.22206
572.3789, 17.72817
572.8610, 17.92340
573.3431, 17.71939
573.8253, 17.45519
574.3074, 17.24700
574.7895, 17.10064
575.2716, 17.04641
575.7537, 17.11913
576.2358, 17.14487
576.7180, 16.98769
577.2001, 16.75807
577.6822, 16.62493
578.1643, 16.59805
578.6464, 16.55332
579.1285, 16.38663
579.6107, 16.15194
580.0928, 16.08466
580.5749, 16.44816
581.0570, 16.62773
581.5391, 16.51335
582.0212, 16.27367
582.5034, 15.95424
582.9855, 15.62174
583.4676, 15.42965
583.9497, 15.50417
584.4318, 15.77774
584.9139, 16.05164
585.3961, 16.36116
585.8782, 16.54994
586.3602, 16.49281
586.8423, 16.36692
587.3245, 16.33090
587.8066, 16.37300
588.2887, 16.34883
588.7708, 16.09440
589.2529, 15.80836
589.7350, 15.72468
590.2172, 15.82679
590.6993, 16.03097
591.1814, 16.33897
591.6635, 16.62138
592.1456, 16.65325
592.6277, 16.33990
593.1099, 16.07395
593.5920, 15.81787
594.0741, 15.64536
594.5562, 15.66240
595.0383, 15.77565
595.5204, 15.81264
596.0026, 15.70017
596.4847, 15.52200
596.9668, 15.39548
597.4489, 15.32090
597.9310, 15.30780
598.4131, 15.41020
598.8953, 15.50185
599.3774, 15.50286
599.8595, 15.45744
600.3416, 15.45162
600.8237, 15.53292
601.3058, 15.58022
601.7880, 15.40442
602.2701, 15.13351
602.7522, 15.15044
603.2343, 15.53325
603.7164, 15.87087
604.1985, 15.79979
604.6807, 15.38535
605.1628, 15.17104
605.6449, 15.26755
606.1270, 15.38704
606.6091, 15.54504
607.0912, 15.66452
607.5734, 15.64287
608.0555, 15.49478
608.5376, 15.34243
609.0197, 15.29188
609.5018, 15.30846
609.9839, 15.23387
610.4661, 15.01888
610.9482, 14.85692
611.4303, 14.79871
611.9124, 14.81413
612.3945, 14.91128
612.8766, 15.07615
613.3588, 15.21251
613.8409, 15.29467
614.3230, 15.31644
614.8051, 15.26151
615.2872, 15.13732
615.7693, 14.94672
616.2515, 14.67024
616.7336, 14.43579
617.2157, 14.44423
617.6978, 14.76849
618.1799, 15.00177
618.6620, 15.16835
619.1442, 15.22750
619.6263, 15.07217
620.1084, 14.83344
620.5905, 14.70478
621.0726, 14.74236
621.5547, 14.82741
622.0369, 14.80197
622.5190, 14.67374
623.0011, 14.62415
623.4832, 14.66992
623.9653, 14.76310
624.4474, 14.99185
624.9296, 15.20230
625.4117, 15.14436
625.8938, 14.73333
626.3759, 14.37089
626.8580, 14.23921
627.3401, 14.25033
627.8223, 14.33586
628.3044, 14.47243
628.7865, 14.58898
629.2686, 14.64164
629.7507, 14.66030
630.2328, 14.72435
630.7150, 14.89120
631.1971, 14.98903
631.6792, 15.10771
632.1613, 15.07983
632.6434, 14.65916
633.1255, 14.05354
633.6077, 13.68890
634.0898, 13.77281
634.5719, 14.04332
635.0540, 14.18065
635.5361, 14.19778
636.0182, 14.20102
636.5004, 14.19746
636.9825, 14.20701
637.4646, 14.27788
637.9467, 14.37245
638.4288, 14.34207
638.9109, 14.03345
639.3931, 13.83925
639.8752, 14.02391
640.3573, 14.29780
640.8394, 14.31277
641.3215, 14.07195
641.8036, 13.83570
642.2858, 13.79773
642.7679, 13.89057
643.2500, 13.85058
643.7321, 13.54895
644.2142, 13.44696
644.6964, 13.86245
645.1785, 14.27396
645.6606, 14.36205
646.1427, 14.20148
646.6248, 14.05884
647.1069, 14.04239
647.5891, 14.07666
648.0712, 14.09493
648.5533, 14.10445
649.0354, 14.13124
649.5175, 14.18235
649.9996, 14.23834
650.4818, 14.28851
650.9639, 14.33051
651.4460, 14.31982
651.9281, 14.24971
652.4102, 14.13862
652.8923, 13.88383
653.3745, 13.66249
653.8566, 13.66576
654.3387, 13.87383
654.8208, 14.10865
655.3029, 14.26266
655.7850, 14.33467
656.2672, 14.29482
656.7493, 14.13058
657.2314, 14.00486
657.7135, 13.96824
658.1956, 13.96931
658.6777, 13.93246
659.1599, 13.87490
659.6420, 13.91710
660.1241, 14.26429
660.6062, 14.50660
661.0883, 14.35355
661.5704, 14.00426
662.0526, 13.72503
662.5347, 13.58426
663.0168, 13.56837
663.4989, 13.69254
663.9810, 13.92148
664.4631, 13.94442
664.9453, 13.56810
665.4274, 13.39686
665.9095, 13.78925
666.3916, 14.25666
666.8737, 14.45337
667.3558, 14.39759
667.8380, 14.31561
668.3201, 14.32440
668.8022, 14.33387
669.2843, 14.22503
669.7664, 14.04019
670.2485, 13.90546
670.7307, 13.85567
671.2128, 13.87335
671.6949, 13.95961
672.1770, 14.11323
672.6591, 14.16165
673.1412, 14.05582
673.6234, 13.90164
674.1055, 13.61834
674.5876, 13.35883
675.0697, 13.25844
675.5518, 13.31899
676.0339, 13.45673
676.5161, 13.66420
676.9982, 13.86520
677.4803, 13.87407
677.9624, 13.70486
678.4445, 13.64216
678.9266, 13.78210
679.4088, 14.00241
679.8909, 14.21477
680.3730, 14.41300
680.8551, 14.46132
681.3372, 14.19055
681.8193, 13.98280
682.3015, 13.98073
682.7836, 14.07993
683.2657, 14.22292
683.7478, 14.36329
684.2299, 14.37598
684.7120, 14.12107
685.1942, 13.72591
685.6763, 13.59700
686.1584, 13.78046
686.6405, 13.90252
687.1226, 13.82200
687.6047, 13.73126
688.0869, 13.84908
688.5690, 14.11786
689.0511, 14.30133
689.5332, 14.32626
690.0153, 14.30135
690.4974, 14.26013
690.9796, 14.20605
691.4617, 14.13053
691.9438, 14.04054
692.4259, 13.97128
692.9080, 13.94772
693.3901, 13.96992
693.8723, 14.04692
694.3544, 14.20484
694.8365, 14.33869
695.3186, 14.44821
695.8007, 14.51157
696.2828, 14.48752
696.7650, 14.40842
697.2471, 14.36271
697.7292, 14.36110
698.2113, 14.41984
698.6934, 14.63674
699.1755, 14.88725
699.6577, 14.95215
700.1398, 14.81239
700.6219, 14.57728
701.1040, 14.29857
701.5861, 14.04406
702.0682, 14.07536
702.5504, 14.60501
703.0325, 14.93832
703.5146, 14.85868
703.9967, 14.73897
704.4788, 14.76444
704.9609, 14.87285
705.4431, 14.90901
705.9252, 14.79545
706.4073, 14.71050
706.8894, 14.84275
707.3715, 15.08131
707.8536, 15.23220
708.3358, 15.27213
708.8179, 15.21002
709.3000, 15.03238
709.7821, 14.80750
710.2642, 14.71459
710.7463, 14.84718
711.2285, 14.89641
711.7106, 14.81172
712.1927, 14.70223
712.6748, 14.52484
713.1569, 14.38288
713.6390, 14.47617
714.1212, 14.87242
714.6033, 15.23819
715.0854, 15.25574
715.5675, 15.07457
716.0496, 14.99958
716.5317, 15.03652
717.0139, 15.03530
717.4960, 14.92250
717.9781, 14.74256
718.4602, 14.54207
718.9423, 14.24736
719.4244, 14.24343
719.9066, 14.92305
720.3887, 15.41042
720.8708, 15.30031
721.3529, 14.93108
721.8350, 14.67725
722.3171, 14.61638
722.7993, 14.63254
723.2814, 14.66520
723.7635, 14.70702
724.2456, 14.76761
724.7277, 14.83712
725.2098, 14.81825
725.6920, 14.66702
726.1741, 14.47258
726.6562, 14.34047
727.1383, 14.27493
727.6204, 14.16784
728.1025, 13.90765
728.5847, 13.75295
729.0668, 13.84371
729.5489, 13.98793
730.0310, 14.00575
730.5131, 13.90612
730.9952, 13.83224
731.4774, 13.89839
731.9595, 13.97929
732.4416, 13.83337
732.9237, 13.52984
733.4058, 13.46033
733.8879, 13.73396
734.3701, 13.91246
734.8522, 13.57614
735.3343, 12.86858
735.8164, 12.53818
736.2985, 12.90674
736.7806, 13.20205
737.2628, 13.46935
737.7449, 13.60843
738.2270, 13.42960
738.7091, 13.09555
739.1912, 12.98553
739.6733, 13.28359
740.1555, 13.59307
740.6376, 13.43115
741.1197, 12.98345
741.6018, 12.73158
742.0839, 12.71587
742.5660, 12.83980
743.0482, 13.09423
743.5303, 13.35907
744.0124, 13.37161
744.4945, 12.99279
744.9766, 12.80770
745.4587, 13.01330
745.9409, 13.17099
746.4230, 13.05856
746.9051, 12.85744
747.3872, 12.80632
747.8693, 12.94382
748.3514, 13.09338
748.8336, 13.13402
749.3157, 13.11348
749.7978, 13.10312
750.2799, 13.09793
750.7620, 13.06162
751.2441, 12.98016
751.7263, 12.88868
752.2084, 12.79893
752.6905, 12.71784
753.1726, 12.89962
753.6547, 13.77422
754.1368, 14.24713
754.6190, 13.90781
755.1011, 13.37790
755.5832, 13.05581
756.0653, 12.93118
756.5474, 12.84160
757.0295, 12.72796
757.5117, 12.61841
757.9938, 12.53937
758.4759, 12.48154
758.9580, 12.40551
759.4401, 12.31740
759.9222, 12.32341
760.4044, 12.50997
760.8865, 12.76906
761.3686, 12.80944
761.8507, 12.52312
762.3328, 12.35174
762.8149, 12.41962
763.2971, 12.45281
763.7792, 12.27312
764.2613, 12.02852
764.7434, 11.94814
765.2255, 12.08271
765.7076, 12.15489
766.1898, 11.96727
766.6719, 11.71499
767.1540, 11.56725
767.6361, 11.51155
768.1182, 11.51691
768.6003, 11.56593
769.0825, 11.58116
769.5646, 11.45718
770.0467, 11.22144
770.5288, 11.14209
771.0109, 11.29780
771.4930, 11.35939
771.9752, 11.17626
772.4573, 10.95105
772.9394, 10.82849
773.4215, 10.80661
773.9036, 10.88907
774.3857, 11.23930
774.8679, 11.46142
775.3500, 11.26950
775.8321, 10.96212
776.3142, 10.88115
776.7963, 10.98893
777.2784, 11.01604
777.7606, 10.81021
778.2427, 10.52861
778.7248, 10.45035
779.2069, 10.55790
779.6890, 10.56671
780.1711, 10.43979
780.6533, 10.29612
781.1354, 10.17701
781.6175, 10.09084
782.0996, 10.07000
782.5817, 10.14567
783.0638, 10.13359
783.5460, 9.932146
784.0281, 9.750176
784.5102, 9.672086
784.9923, 9.657833
785.4744, 9.647808
785.9565, 9.639211
786.4387, 9.692719
786.9208, 9.907317
787.4029, 10.14085
787.8850, 10.13752
788.3671, 9.939122
788.8492, 9.764970
789.3314, 9.662667
789.8135, 9.539354
790.2956, 9.290261
790.7777, 8.987881
791.2598, 8.953460
791.7419, 9.489819
792.2241, 9.719364
792.7062, 9.357570
793.1883, 8.980730
793.6704, 8.856765
794.1525, 8.884645
794.6346, 8.901006
795.1168, 8.872646
795.5989, 8.799332
796.0810, 8.593299
796.5631, 8.407071
797.0452, 8.478669
797.5273, 8.718737
798.0095, 8.846444
798.4916, 8.772863
798.9737, 8.619730
799.4558, 8.509192
799.9379, 8.440434
800.4200, 8.408324
800.9022, 8.408010
801.3843, 8.464361
801.8664, 8.605464
802.3485, 8.776402
802.8306, 9.031979
803.3127, 9.288501
803.7949, 9.244213
804.2770, 8.638505
804.7591, 8.144677
805.2412, 7.959883
805.7233, 7.958663
806.2054, 8.128817
806.6876, 8.381290
807.1697, 8.559248
807.6518, 8.599627
808.1339, 8.567615
808.6160, 8.509249
809.0981, 8.439914
809.5803, 8.428747
810.0624, 8.476534
810.5445, 8.475943
811.0266, 8.374259
811.5087, 8.260363
811.9908, 8.251019
812.4730, 8.347723
812.9551, 8.365072
813.4372, 8.221284
813.9193, 8.112310
814.4014, 8.093286
814.8835, 8.085181
815.3657, 8.008993
815.8478, 7.898334
816.3299, 7.865416
816.8120, 7.981005
817.2941, 8.073416
817.7762, 7.969584
818.2584, 7.804682
818.7405, 7.766572
819.2226, 7.844717
819.7047, 7.952497
820.1868, 8.052013
820.6689, 8.104650
821.1511, 8.032685
821.6332, 7.847260
822.1153, 7.775107
822.5974, 7.842914
823.0795, 7.929372
823.5616, 8.029974
824.0438, 8.094628
824.5259, 8.058689
825.0080, 7.930723
825.4901, 7.803765
825.9722, 7.611950
826.4543, 7.515867
826.9365, 7.636559
827.4186, 7.790545
827.9007, 7.820584
828.3828, 7.763709
828.8649, 7.747123
829.3470, 7.824350
829.8292, 7.903274
830.3113, 7.868960
830.7934, 7.780679
831.2755, 7.782078
831.7576, 7.861180
832.2397, 7.889053
832.7219, 7.814906
833.2040, 7.706138
833.6861, 7.633343
834.1682, 7.599428
834.6503, 7.685407
835.1324, 8.010872
835.6146, 8.177975
836.0967, 7.984931
836.5788, 7.744292
837.0609, 7.679765
837.5430, 7.737993
838.0251, 7.762959
838.5073, 7.701735
838.9894, 7.681783
839.4715, 7.795916
839.9536, 7.922906
840.4357, 7.934493
840.9178, 7.890683
841.4000, 7.960882
841.8821, 8.183653
842.3642, 8.345692
842.8463, 8.182704
843.3284, 7.834276
843.8105, 7.625916
844.2927, 7.550783
844.7748, 7.563032
845.2569, 7.660418
845.7390, 7.763585
846.2211, 7.809331
846.7032, 7.800270
847.1854, 7.739609
847.6675, 7.563268
848.1496, 7.477670
848.6317, 7.565919
849.1138, 7.663735
849.5959, 7.742877
850.0781, 7.769307
850.5602, 7.639176
851.0423, 7.312833
851.5244, 7.166003
852.0065, 7.513494
852.4886, 7.891030
852.9708, 8.008368
853.4529, 7.940109
853.9350, 7.755882
854.4171, 7.509923
854.8992, 7.332117
855.3813, 7.318260
855.8635, 7.410844
856.3456, 7.559337
856.8277, 7.736488
857.3098, 7.759938
857.7919, 7.599863
858.2740, 7.456789
858.7562, 7.439161
859.2383, 7.510859
859.7204, 7.618654
860.2025, 7.784113
860.6846, 7.858471
861.1667, 7.755591
861.6489, 7.691720
862.1310, 7.797136
862.6131, 7.902767
863.0952, 7.839590
863.5773, 7.638374
864.0594, 7.484393
864.5416, 7.434416
865.0237, 7.415773
865.5058, 7.403763
865.9879, 7.403038
866.4700, 7.429949
866.9521, 7.470596
867.4343, 7.501293
867.9164, 7.511450
868.3985, 7.475470
868.8806, 7.287976
869.3627, 7.055727
869.8448, 7.130463
870.3270, 7.465558
870.8091, 7.601820
871.2912, 7.397197
871.7733, 7.130281
872.2554, 7.057225
872.7375, 7.136007
873.2197, 7.158933
873.7018, 7.101222
874.1839, 7.055119
874.6660, 6.990252
875.1481, 6.988197
875.6302, 7.190638
876.1124, 7.438956
876.5945, 7.474634
877.0766, 7.252911
877.5587, 7.088446
878.0408, 7.069057
878.5229, 7.089233
879.0051, 7.079709
879.4872, 7.096147
879.9693, 7.251727
880.4514, 7.508557
880.9335, 7.688975
881.4156, 7.706942
881.8978, 7.593991
882.3799, 7.285715
882.8620, 6.907056
883.3441, 6.737214
883.8262, 6.769497
884.3083, 6.825984
884.7905, 6.829766
885.2726, 6.836130
885.7547, 6.930216
886.2368, 7.095713
886.7189, 7.157110
887.2010, 7.083004
887.6832, 7.063331
888.1653, 7.181895
888.6474, 7.277624
889.1295, 7.193461
889.6116, 6.987420
890.0938, 6.886275
890.5759, 6.954694
891.0580, 6.994692
891.5401, 6.965470
892.0222, 6.947968
892.5043, 7.007854
892.9865, 7.081411
893.4686, 7.071231
893.9507, 6.976679
894.4328, 6.917424
894.9149, 6.976488
895.3970, 7.056657
895.8792, 7.090274
896.3613, 7.101089
896.8434, 7.143386
897.3255, 7.198246
897.8076, 7.163126
898.2897, 6.984873
898.7719, 6.794319
899.2540, 6.751794
899.7361, 6.838275
900.2182, 7.060720
900.7003, 7.400670
901.1824, 7.425920
901.6646, 6.966719
902.1467, 6.467550
902.6288, 6.367087
903.1109, 6.589201
903.5930, 6.755453
904.0751, 6.884375
904.5573, 6.896601
905.0394, 6.699144
905.5215, 6.515469
906.0036, 6.460354
906.4857, 6.486094
906.9678, 6.529770
907.4500, 6.593129
907.9321, 6.646235
908.4142, 6.655467
908.8963, 6.691876
909.3784, 6.836020
909.8605, 6.974304
910.3427, 6.986880
910.8248, 6.899472
911.3069, 6.818253
911.7890, 6.783389
912.2711, 6.761117
912.7532, 6.721542
913.2354, 6.683448
913.7175, 6.657379
914.1996, 6.654565
914.6817, 6.731331
915.1638, 6.886297
915.6459, 6.980066
916.1280, 6.876166
916.6101, 6.653913
917.0922, 6.472717
917.5743, 6.338505
918.0565, 6.345815
918.5386, 6.517735
919.0207, 6.654566
919.5028, 6.637146
919.9849, 6.556843
920.4670, 6.571342
920.9492, 6.690023
921.4313, 6.797415
921.9134, 6.939979
922.3955, 6.963473
922.8776, 6.728665
923.3597, 6.477953
923.8419, 6.406607
924.3240, 6.476168
924.8061, 6.584009
925.2882, 6.767070
925.7703, 6.891977
926.2524, 6.973149
926.7346, 6.954072
927.2167, 6.691412
927.6988, 6.380600
928.1809, 6.240066
928.6630, 6.300692
929.1451, 6.501215
929.6273, 6.958982
930.1094, 7.320030
930.5915, 7.239798
931.0736, 6.971305
931.5557, 6.804286
932.0378, 6.757538
932.5200, 6.775620
933.0021, 6.834903
933.4842, 6.927014
933.9663, 7.085523
934.4484, 7.248088
934.9305, 7.216509
935.4127, 7.036836
935.8948, 6.974028
936.3769, 7.079108
936.8590, 7.199859
937.3411, 7.235480
937.8232, 7.207760
938.3054, 7.134179
938.7875, 6.995219
939.2696, 7.041234
939.7517, 7.338145
940.2338, 7.572906
940.7159, 7.612115
941.1981, 7.608922
941.6802, 7.756684
942.1623, 8.013059
942.6444, 8.036983
943.1265, 7.534485
943.6086, 7.288240
944.0908, 7.549941
944.5729, 7.790688
945.0550, 7.734058
945.5371, 7.561477
946.0192, 7.504588
946.5013, 7.582899
946.9835, 7.707539
947.4656, 7.934222
947.9477, 8.103307
948.4298, 8.088220
948.9119, 8.038722
949.3940, 8.129690
949.8762, 8.292735
950.3583, 8.317843
950.8404, 8.132788
951.3225, 7.984646
951.8046, 8.101160
952.2867, 8.301965
952.7689, 8.390244
953.2510, 8.411413
953.7331, 8.478732
954.2152, 8.594766
954.6973, 8.658486
955.1794, 8.605777
955.6616, 8.502995
956.1437, 8.426420
956.6258, 8.382583
957.1079, 8.417613
957.5900, 8.521910
958.0721, 8.574726
958.5543, 8.537174
959.0364, 8.496879
959.5185, 8.535137
960.0006, 8.632689
960.4827, 8.726657
960.9648, 8.816323
961.4470, 8.912130
961.9291, 9.026759
962.4112, 9.099210
962.8933, 9.091292
963.3754, 9.044358
963.8575, 9.001151
964.3397, 8.962549
964.8218, 8.988003
965.3039, 9.114472
965.7860, 9.237677
966.2681, 9.356263
966.7502, 9.459107
967.2324, 9.567582
967.7145, 9.646110
968.1966, 9.605692
968.6787, 9.419307
969.1608, 9.347260
969.6429, 9.533033
970.1251, 9.695665
970.6072, 9.729908
971.0893, 9.720795
971.5714, 9.724423
972.0535, 9.747410
972.5356, 9.791641
973.0178, 9.860917
973.4999, 9.924345
973.9820, 9.983171
974.4641, 10.01378
974.9462, 9.987447
975.4283, 9.927512
975.9105, 9.841766
976.3926, 9.753454
976.8747, 9.727613
977.3568, 9.802744
977.8389, 9.913962
978.3210, 10.02824
978.8032, 10.11914
979.2853, 10.11391
979.7674, 10.05469
980.2495, 10.08931
980.7316, 10.23496
981.2137, 10.33078
981.6959, 10.24684
982.1780, 10.08034
982.6601, 10.00270
983.1422, 9.994976
983.6243, 9.954995
984.1064, 9.887037
984.5886, 9.944924
985.0707, 10.18961
985.5528, 10.44013
986.0349, 10.50799
986.5170, 10.43865
986.9991, 10.37944
987.4813, 10.32487
987.9634, 10.39883
988.4455, 10.65268
988.9276, 10.81248
989.4097, 10.72448
989.8918, 10.55113
990.3740, 10.50452
990.8561, 10.57917
991.3382, 10.66096
991.8203, 10.73838
992.3024, 10.86301
992.7845, 11.09868
993.2667, 11.28599
993.7488, 11.34740
994.2309, 11.30276
994.7130, 11.15759
995.1951, 10.89065
995.6772, 10.71722
996.1594, 10.63846
996.6415, 10.64947
997.1236, 10.86859
997.6057, 11.05710
998.0878, 11.06514
998.5699, 10.94547
999.0521, 10.74320
999.5342, 10.42392
1000.016, 10.36421
1000.498, 10.85354
1000.981, 11.33231
1001.463, 11.70037
1001.945, 11.89089
1002.427, 11.73668
1002.909, 11.39166
1003.391, 11.19827
1003.873, 11.25087
1004.355, 11.36574
1004.837, 11.50612
1005.320, 11.63240
1005.802, 11.71521
1006.284, 11.77283
1006.766, 11.83356
1007.248, 11.89084
1007.730, 11.90678
1008.212, 11.86144
1008.694, 11.82705
1009.177, 11.83372
1009.659, 11.89893
1010.141, 12.13350
1010.623, 12.39894
1011.105, 12.41170
1011.587, 12.18759
1012.069, 11.97924
1012.551, 11.91272
1013.033, 11.94391
1013.516, 12.02985
1013.998, 12.17935
1014.480, 12.47708
1014.962, 12.84229
1015.444, 13.03522
1015.926, 13.02303
1016.408, 12.94269
1016.890, 12.87503
1017.372, 12.83811
1017.855, 12.88985
1018.337, 12.98847
1018.819, 12.96270
1019.301, 12.84364
1019.783, 12.87943
1020.265, 13.12000
1020.747, 13.31009
1021.229, 13.24961
1021.712, 13.05387
1022.194, 12.92273
1022.676, 12.85970
1023.158, 12.92966
1023.640, 13.13252
1024.122, 13.29254
1024.604, 13.36000
1025.086, 13.34587
1025.568, 13.23258
1026.051, 13.11238
1026.533, 13.28349
1027.015, 13.77010
1027.497, 14.01231
1027.979, 13.97292
1028.461, 13.85729
1028.943, 13.71362
1029.425, 13.56945
1029.908, 13.44556
1030.390, 13.34622
1030.872, 13.28992
1031.354, 13.28215
1031.836, 13.29831
1032.318, 13.35828
1032.800, 13.36935
1033.282, 13.26525
1033.765, 13.18464
1034.247, 13.28863
1034.729, 13.50527
1035.211, 13.53404
1035.693, 13.25267
1036.175, 13.16287
1036.657, 13.37580
1037.139, 13.55960
1037.621, 13.64102
1038.104, 13.60747
1038.586, 13.36021
1039.068, 12.99414
1039.550, 12.92766
1040.032, 13.30380
1040.514, 13.63810
1040.996, 13.99437
1041.478, 14.21417
1041.960, 14.20713
1042.443, 14.08499
1042.925, 13.88723
1043.407, 13.65316
1043.889, 13.55356
1044.371, 13.66115
1044.853, 13.73760
1045.335, 13.74362
1045.817, 13.76305
1046.300, 13.86095
1046.782, 13.94945
1047.264, 13.92298
1047.746, 13.82014
1048.228, 13.78928
1048.710, 13.87671
1049.192, 13.94000
1049.674, 13.93581
1050.156, 13.94009
1050.639, 13.97509
1051.121, 14.03341
1051.603, 14.13739
1052.085, 14.25736
1052.567, 14.29181
1053.049, 14.18509
1053.531, 14.13903
1054.013, 14.25847
1054.495, 14.36152
1054.978, 14.34702
1055.460, 14.30822
1055.942, 14.31273
1056.424, 14.36833
1056.906, 14.48926
1057.388, 14.70191
1057.870, 14.86711
1058.352, 14.95190
1058.835, 14.97635
1059.317, 14.85581
1059.799, 14.75680
1060.281, 14.90018
1060.763, 15.17694
1061.245, 15.28910
1061.727, 15.15559
1062.209, 14.99212
1062.692, 14.76769
1063.174, 14.65845
1063.656, 14.78744
1064.138, 15.03302
1064.620, 15.35666
1065.102, 15.68494
1065.584, 15.86498
1066.066, 15.85501
1066.548, 15.88020
1067.031, 16.22696
1067.513, 16.37594
1067.995, 15.85107
1068.477, 15.21840
1068.959, 14.95522
1069.441, 14.99794
1069.923, 15.15110
1070.405, 15.37043
1070.887, 15.58349
1071.370, 15.83025
1071.852, 15.97120
1072.334, 15.89396
1072.816, 15.72217
1073.298, 15.47895
1073.780, 15.25537
1074.262, 15.21372
1074.744, 15.37170
1075.227, 15.54342
1075.709, 15.74150
1076.191, 15.80680
1076.673, 15.51543
1077.155, 15.20312
1077.637, 15.20879
1078.119, 15.35292
1078.601, 15.27625
1079.083, 14.96228
1079.566, 14.77606
1080.048, 14.95385
1080.530, 15.11058
1081.012, 14.98120
1081.494, 14.84333
1081.976, 15.02907
1082.458, 15.27349
1082.940, 15.08017
1083.422, 14.50888
1083.905, 14.21733
1084.387, 14.57958
1084.869, 14.87169
1085.351, 14.70610
1085.833, 14.41099
1086.315, 14.13882
1086.797, 13.91703
1087.279, 13.78537
1087.761, 13.72103
1088.244, 13.62251
1088.726, 13.43099
1089.208, 13.32385
1089.690, 13.46668
1090.172, 13.60993
1090.654, 13.61519
1091.136, 13.53708
1091.618, 13.33372
1092.101, 13.11965
1092.583, 13.23588
1093.065, 13.82976
1093.547, 14.21057
1094.029, 13.97270
1094.511, 13.63648
1094.993, 13.36017
1095.475, 13.18029
1095.958, 13.18899
1096.440, 13.29134
1096.922, 13.28615
1097.404, 13.13313
1097.886, 13.01994
1098.368, 13.05785
1098.850, 13.07842
1099.332, 13.04215
1099.814, 12.94477
1100.297, 12.68934
1100.779, 12.41915
1101.261, 12.41420
1101.743, 12.67548
1102.225, 12.76666
1102.707, 12.37729
1103.189, 12.11782
1103.671, 12.28183
1104.153, 12.45889
1104.636, 12.46494
1105.118, 12.32116
1105.600, 11.98537
1106.082, 11.51767
1106.564, 11.21239
1107.046, 11.13823
1107.528, 11.18480
1108.010, 11.48567
1108.493, 11.71261
1108.975, 11.69390
1109.457, 11.57606
1109.939, 11.50056
1110.421, 11.44442
1110.903, 11.29732
1111.385, 10.99639
1111.867, 10.79746
1112.349, 10.83920
1112.832, 10.82424
1113.314, 10.56000
1113.796, 10.33378
1114.278, 10.42327
1114.760, 10.66322
1115.242, 10.70380
1115.724, 10.50480
1116.206, 10.38368
1116.688, 10.35631
1117.171, 10.38473
1117.653, 10.58491
1118.135, 10.67898
1118.617, 10.43812
1119.099, 10.09209
1119.581, 9.949881
1120.063, 9.998016
1120.545, 10.02354
1121.028, 10.01232
1121.510, 10.01176
1121.992, 10.03393
1122.474, 10.05113
1122.956, 10.08391
1123.438, 10.05626
1123.920, 9.865338
1124.402, 9.568271
1124.885, 9.371421
1125.367, 9.275539
1125.849, 9.288538
1126.331, 9.461911
1126.813, 9.572392
1127.295, 9.558616
1127.777, 9.482224
1128.259, 9.369329
1128.741, 9.254749
1129.224, 9.209013
1129.706, 9.231253
1130.188, 9.286725
1130.670, 9.399451
1131.152, 9.306417
1131.634, 8.931317
1132.116, 8.626928
1132.598, 8.578381
1133.080, 8.627410
1133.563, 8.577577
1134.045, 8.459408
1134.527, 8.381654
1135.009, 8.345585
1135.491, 8.406890
1135.973, 8.566357
1136.455, 8.720759
1136.937, 8.835857
1137.420, 8.861250
1137.902, 8.744596
1138.384, 8.553088
1138.866, 8.371489
1139.348, 8.231635
1139.830, 8.342652
1140.312, 8.629887
1140.794, 8.677653
1141.276, 8.430729
1141.759, 8.146422
1142.241, 7.962954
1142.723, 7.890061
1143.205, 7.991055
1143.687, 8.171383
1144.169, 8.318915
1144.651, 8.380896
1145.133, 8.144039
1145.615, 7.702883
1146.098, 7.445438
1146.580, 7.488187
1147.062, 7.604647
1147.544, 7.646232
1148.026, 7.646343
1148.508, 7.647540
1148.990, 7.622302
1149.472, 7.485574
1149.955, 7.316600
1150.437, 7.296186
1150.919, 7.412216
1151.401, 7.465491
1151.883, 7.360760
1152.365, 7.224545
1152.847, 7.028672
1153.329, 6.953169
1153.812, 7.286398
1154.294, 7.690532
1154.776, 7.809943
1155.258, 7.677169
1155.740, 7.413681
1156.222, 7.044452
1156.704, 6.782366
1157.186, 6.802908
1157.668, 6.796838
1158.151, 6.567220
1158.633, 6.379288
1159.115, 6.457529
1159.597, 6.642224
1160.079, 6.732183
1160.561, 6.719697
1161.043, 6.657353
1161.525, 6.472511
1162.007, 6.401097
1162.490, 6.599368
1162.972, 6.718599
1163.454, 6.620580
1163.936, 6.461319
1164.418, 6.328888
1164.900, 6.231955
1165.382, 6.197935
1165.864, 6.236620
1166.347, 6.234381
1166.829, 6.185385
1167.311, 6.103690
1167.793, 5.960038
1168.275, 5.879526
1168.757, 5.940210
1169.239, 6.040504
1169.721, 6.066067
1170.203, 6.029168
1170.686, 5.970200
1171.168, 5.887171
1171.650, 5.843235
1172.132, 5.841418
1172.614, 5.853621
1173.096, 5.872857
1173.578, 5.882908
1174.060, 5.871239
1174.542, 5.857176
1175.025, 5.891603
1175.507, 5.939651
1175.989, 5.883961
1176.471, 5.738375
1176.953, 5.499827
1177.435, 5.212451
1177.917, 5.098491
1178.399, 5.223691
1178.882, 5.365485
1179.364, 5.322808
1179.846, 5.266405
1180.328, 5.489939
1180.810, 5.770055
1181.292, 5.771906
1181.774, 5.583147
1182.256, 5.344357
1182.739, 5.128108
1183.221, 5.068517
1183.703, 5.235991
1184.185, 5.398991
1184.667, 5.423173
1185.149, 5.390845
1185.631, 5.304614
1186.113, 5.231653
1186.595, 5.254510
1187.078, 5.325908
1187.560, 5.354576
1188.042, 5.331589
1188.524, 5.315105
1189.006, 5.324412
1189.488, 5.329633
1189.970, 5.381226
1190.452, 5.357279
1190.934, 5.078096
1191.417, 4.825032
1191.899, 4.899343
1192.381, 5.160555
1192.863, 5.238540
1193.345, 5.087242
1193.827, 5.109289
1194.309, 5.405557
1194.791, 5.582970
1195.274, 5.572847
1195.756, 5.475484
1196.238, 5.307568
1196.720, 5.168481
1197.202, 5.185698
1197.684, 5.297054
1198.166, 5.276222
1198.648, 5.130128
1199.130, 5.076059
1199.613, 5.113283
1200.095, 5.078719
1200.577, 4.943742
1201.059, 4.897330
1201.541, 5.051781
1202.023, 5.231946
1202.505, 5.204314
1202.987, 5.078265
1203.469, 5.089291
1203.952, 5.154318
1204.434, 5.061525
1204.916, 4.866670
1205.398, 4.784209
1205.880, 4.852967
1206.362, 4.937716
1206.844, 4.968672
1207.326, 4.985987
1207.809, 5.036473
1208.291, 5.065706
1208.773, 4.979984
1209.255, 4.889564
1209.737, 4.949392
1210.219, 5.097178
1210.701, 5.164711
1211.183, 5.122407
1211.666, 5.085172
1212.148, 5.079799
1212.630, 5.081108
1213.112, 5.074697
1213.594, 5.086315
1214.076, 5.178900
1214.558, 5.244696
1215.040, 5.149053
1215.522, 4.966468
1216.005, 4.929689
1216.487, 5.075729
1216.969, 5.037601
1217.451, 4.720517
1217.933, 4.636225
1218.415, 4.909365
1218.897, 5.190635
1219.379, 5.328840
1219.861, 5.358991
1220.344, 5.306739
1220.826, 5.207056
1221.308, 5.142901
1221.790, 5.111890
1222.272, 5.114225
1222.754, 5.139845
1223.236, 5.142850
1223.718, 5.117614
1224.201, 5.074631
1224.683, 5.020480
1225.165, 5.034616
1225.647, 5.282869
1226.129, 5.507545
1226.611, 5.358350
1227.093, 5.074067
1227.575, 4.913532
1228.057, 4.853554
1228.540, 4.797001
1229.022, 4.751373
1229.504, 4.837417
1229.986, 5.134344
1230.468, 5.362844
1230.950, 5.428083
1231.432, 5.409888
1231.914, 5.265144
1232.396, 5.123912
1232.879, 5.046033
1233.361, 5.044897
1233.843, 5.190989
1234.325, 5.442324
1234.807, 5.450800
1235.289, 5.086083
1235.771, 4.894408
1236.253, 4.911420
1236.736, 4.987535
1237.218, 5.095275
1237.700, 5.227248
1238.182, 5.389791
1238.664, 5.512692
1239.146, 5.491189
1239.628, 5.357216
1240.110, 5.173768
1240.593, 4.972543
1241.075, 4.907132
1241.557, 4.959043
1242.039, 5.018247
1242.521, 5.051666
1243.003, 5.050858
1243.485, 5.009121
1243.967, 4.964604
1244.449, 4.927977
1244.932, 4.929655
1245.414, 5.058114
1245.896, 5.187572
1246.378, 5.174295
1246.860, 5.061360
1247.342, 4.897110
1247.824, 4.718597
1248.306, 4.672368
1248.788, 4.865053
1249.271, 4.986821
1249.753, 4.942971
1250.235, 4.879954
1250.717, 4.790701
1251.199, 4.753463
1251.681, 4.840302
1252.163, 4.972571
1252.645, 5.041670
1253.128, 5.057394
1253.610, 5.091024
1254.092, 5.152654
1254.574, 5.069928
1255.056, 4.830239
1255.538, 4.740053
1256.020, 4.867517
1256.502, 5.082807
1256.984, 5.317487
1257.467, 5.475560
1257.949, 5.411126
1258.431, 5.262064
1258.913, 5.270246
1259.395, 5.348928
1259.877, 5.369712
1260.359, 5.330082
1260.841, 5.215096
1261.323, 5.060015
1261.806, 4.992072
1262.288, 5.064435
1262.770, 5.140594
1263.252, 5.130305
1263.734, 5.151510
1264.216, 5.318684
1264.698, 5.456346
1265.180, 5.441621
1265.663, 5.345677
1266.145, 5.215266
1266.627, 5.088692
1267.109, 5.118902
1267.591, 5.358438
1268.073, 5.431921
1268.555, 5.308004
1269.037, 5.156967
1269.520, 4.996074
1270.002, 4.876165
1270.484, 4.818839
1270.966, 4.839811
1271.448, 4.969831
1271.930, 5.124656
1272.412, 5.139208
1272.894, 5.066299
1273.376, 4.994277
1273.859, 4.952205
1274.341, 5.033553
1274.823, 5.196595
1275.305, 5.293503
1275.787, 5.282431
1276.269, 5.219582
1276.751, 5.085558
1277.233, 5.013280
1277.715, 5.175263
1278.198, 5.283722
1278.680, 5.081350
1279.162, 4.846375
1279.644, 4.834814
1280.126, 4.974910
1280.608, 5.137259
1281.090, 5.313380
1281.572, 5.287831
1282.055, 4.950859
1282.537, 4.862485
1283.019, 5.090571
1283.501, 5.237160
1283.983, 5.169143
1284.465, 5.099184
1284.947, 5.029175
##END=



