##NAMES=Gartrellite
##RRUFFID=R060881
##IDEAL CHEMISTRY=Pb^2+^Cu^2+^Fe^3+^(As^5+^O_4_)_2_(OH)&#183;H_2_O
##LOCALITY=Ashburton Downs, Western Australia
##OWNER=RRUFF
##SOURCE=Bob Jenkins
##DESCRIPTION=Yellow grainy incrustations
##STATUS=The identification of this mineral is confirmed by single-crystal X-ray diffraction and chemical analysis.
##URL=rruff.info/R060881
##MEASURED CHEMISTRY=Pb_1.00_Cu_1.00_(Fe^3+^_0.77_Cu_0.18_Al_0.04_Zn_0.01_)_Σ=1_((As_0.97_S_0.03_)_Σ=1_O_4_)_2_(OH)_0.87_·H_2_O; trace amounts of P; OH estimated by charge balance, H_2_O by difference
127.3084, 16049.20
127.7905, 16297.92
128.2727, 16521.47
128.7548, 16725.80
129.2369, 16929.32
129.7190, 17131.17
130.2011, 17338.04
130.6832, 17568.41
131.1654, 17823.50
131.6475, 18104.66
132.1296, 18419.72
132.6117, 18769.33
133.0938, 19132.21
133.5759, 19488.63
134.0581, 19842.24
134.5402, 20230.09
135.0223, 20668.88
135.5044, 21138.48
135.9865, 21573.00
136.4686, 21964.92
136.9508, 22347.07
137.4329, 22750.05
137.9150, 23175.84
138.3971, 23584.03
138.8792, 23972.16
139.3613, 24337.75
139.8434, 24674.48
140.3256, 24995.54
140.8077, 25272.61
141.2898, 25474.98
141.7719, 25582.04
142.2540, 25665.85
142.7361, 25750.36
143.2183, 25845.54
143.7004, 25872.71
144.1825, 25812.74
144.6646, 25696.45
145.1467, 25568.96
145.6288, 25412.67
146.1110, 25264.99
146.5931, 25138.27
147.0752, 25038.29
147.5573, 24939.14
148.0394, 24822.25
148.5215, 24706.22
149.0037, 24637.86
149.4858, 24635.67
149.9679, 24665.72
150.4500, 24715.51
150.9321, 24806.70
151.4142, 24892.94
151.8964, 24968.66
152.3785, 25038.59
152.8606, 25122.04
153.3427, 25235.89
153.8248, 25357.45
154.3069, 25473.82
154.7890, 25588.11
155.2712, 25697.13
155.7533, 25811.29
156.2354, 25928.69
156.7175, 26013.63
157.1996, 26058.50
157.6817, 26068.89
158.1639, 26049.69
158.6460, 26003.77
159.1281, 25924.32
159.6102, 25810.77
160.0923, 25662.67
160.5744, 25467.92
161.0566, 25221.29
161.5387, 24923.15
162.0208, 24574.53
162.5029, 24145.48
162.9850, 23686.19
163.4671, 23218.22
163.9493, 22747.71
164.4314, 22272.49
164.9135, 21788.39
165.3956, 21300.36
165.8777, 20817.37
166.3598, 20325.73
166.8420, 19852.38
167.3241, 19417.32
167.8062, 19023.70
168.2883, 18669.50
168.7704, 18359.85
169.2525, 18087.84
169.7346, 17831.42
170.2168, 17571.95
170.6989, 17326.97
171.1810, 17116.97
171.6631, 16950.28
172.1452, 16814.67
172.6273, 16702.40
173.1095, 16612.72
173.5916, 16536.33
174.0737, 16468.50
174.5558, 16409.51
175.0379, 16361.07
175.5201, 16326.40
176.0022, 16299.00
176.4843, 16261.17
176.9664, 16214.94
177.4485, 16193.63
177.9306, 16240.66
178.4128, 16334.07
178.8949, 16425.20
179.3770, 16502.77
179.8591, 16564.90
180.3412, 16598.24
180.8233, 16600.77
181.3055, 16610.21
181.7876, 16666.38
182.2697, 16761.92
182.7518, 16872.25
183.2339, 17000.97
183.7160, 17136.06
184.1982, 17234.46
184.6803, 17288.51
185.1624, 17341.40
185.6445, 17456.29
186.1266, 17624.14
186.6087, 17789.81
187.0908, 17909.43
187.5730, 18000.18
188.0551, 18129.37
188.5372, 18307.00
189.0193, 18509.58
189.5014, 18711.18
189.9835, 18913.34
190.4657, 19108.23
190.9478, 19277.89
191.4299, 19430.55
191.9120, 19623.82
192.3941, 19873.78
192.8762, 20147.24
193.3584, 20375.61
193.8405, 20555.64
194.3226, 20732.26
194.8047, 20930.96
195.2868, 21151.45
195.7689, 21380.64
196.2511, 21624.53
196.7332, 21874.27
197.2153, 22102.81
197.6974, 22309.77
198.1795, 22507.34
198.6616, 22703.68
199.1438, 22901.11
199.6259, 23092.02
200.1080, 23275.66
200.5901, 23452.95
201.0722, 23623.72
201.5543, 23789.66
202.0364, 23945.83
202.5186, 24091.51
203.0007, 24228.35
203.4828, 24338.40
203.9649, 24418.10
204.4470, 24467.17
204.9291, 24481.58
205.4113, 24453.11
205.8934, 24407.67
206.3755, 24374.66
206.8576, 24362.29
207.3397, 24322.99
207.8218, 24247.26
208.3040, 24135.66
208.7861, 23993.05
209.2682, 23817.82
209.7503, 23619.42
210.2324, 23407.83
210.7145, 23187.36
211.1967, 22949.68
211.6788, 22688.01
212.1609, 22402.05
212.6430, 22131.06
213.1251, 21883.96
213.6072, 21644.91
214.0894, 21389.37
214.5715, 21106.97
215.0536, 20833.38
215.5357, 20578.23
216.0178, 20339.06
216.4999, 20124.44
216.9820, 19940.94
217.4642, 19776.19
217.9463, 19611.06
218.4284, 19443.96
218.9105, 19281.65
219.3926, 19124.81
219.8747, 18974.00
220.3569, 18831.64
220.8390, 18693.61
221.3211, 18567.93
221.8032, 18464.21
222.2853, 18392.20
222.7674, 18326.14
223.2496, 18257.92
223.7317, 18184.44
224.2138, 18120.10
224.6959, 18061.00
225.1780, 18013.92
225.6601, 17992.44
226.1423, 18014.06
226.6244, 18030.94
227.1065, 18022.32
227.5886, 17974.83
228.0707, 17942.54
228.5528, 17928.34
229.0350, 17927.12
229.5171, 17927.85
229.9992, 17925.99
230.4813, 17932.45
230.9634, 17953.14
231.4455, 17996.63
231.9276, 18033.04
232.4098, 18063.68
232.8919, 18087.02
233.3740, 18097.16
233.8561, 18087.23
234.3382, 18075.23
234.8203, 18068.19
235.3025, 18067.27
235.7846, 18069.93
236.2667, 18079.09
236.7488, 18091.48
237.2309, 18099.48
237.7130, 18109.34
238.1952, 18106.19
238.6773, 18081.13
239.1594, 18019.65
239.6415, 17970.30
240.1236, 17945.85
240.6057, 17931.45
241.0879, 17879.59
241.5700, 17763.80
242.0521, 17649.46
242.5342, 17572.04
243.0163, 17569.63
243.4984, 17517.70
243.9806, 17387.19
244.4627, 17208.78
244.9448, 17079.27
245.4269, 17026.37
245.9090, 16982.08
246.3911, 16912.31
246.8732, 16800.50
247.3554, 16698.17
247.8375, 16609.12
248.3196, 16529.68
248.8017, 16449.81
249.2838, 16376.15
249.7659, 16293.72
250.2481, 16189.73
250.7302, 16040.40
251.2123, 15928.42
251.6944, 15869.65
252.1765, 15849.04
252.6586, 15813.51
253.1408, 15743.25
253.6229, 15690.36
254.1050, 15685.43
254.5871, 15753.00
255.0692, 15808.83
255.5513, 15853.33
256.0334, 15883.83
256.5156, 15889.46
256.9977, 15856.09
257.4798, 15820.64
257.9619, 15801.25
258.4440, 15800.39
258.9261, 15806.92
259.4083, 15820.26
259.8904, 15840.00
260.3725, 15864.21
260.8546, 15889.75
261.3367, 15924.94
261.8188, 15978.88
262.3010, 16065.36
262.7831, 16127.23
263.2652, 16159.86
263.7473, 16167.38
264.2294, 16160.16
264.7115, 16133.31
265.1937, 16101.92
265.6758, 16075.36
266.1579, 16057.80
266.6400, 16028.77
267.1221, 15981.68
267.6042, 15926.53
268.0864, 15891.95
268.5685, 15883.67
269.0506, 15881.51
269.5327, 15873.10
270.0148, 15854.41
270.4969, 15852.89
270.9791, 15875.06
271.4612, 15910.98
271.9433, 15935.54
272.4254, 15945.04
272.9075, 15956.30
273.3896, 15981.13
273.8718, 16022.74
274.3539, 16050.92
274.8360, 16060.89
275.3181, 16061.33
275.8002, 16070.38
276.2823, 16089.17
276.7645, 16110.44
277.2466, 16131.93
277.7287, 16153.69
278.2108, 16171.15
278.6929, 16182.75
279.1750, 16191.70
279.6572, 16204.51
280.1393, 16221.58
280.6214, 16237.66
281.1035, 16246.00
281.5856, 16246.66
282.0677, 16264.78
282.5499, 16305.79
283.0320, 16353.87
283.5141, 16383.44
283.9962, 16393.90
284.4783, 16398.29
284.9604, 16398.91
285.4425, 16396.88
285.9247, 16402.53
286.4068, 16415.64
286.8889, 16437.89
287.3710, 16475.43
287.8531, 16527.83
288.3352, 16580.27
288.8174, 16622.41
289.2995, 16657.88
289.7816, 16705.62
290.2637, 16765.04
290.7458, 16834.59
291.2279, 16923.78
291.7101, 17027.71
292.1922, 17110.11
292.6743, 17137.77
293.1564, 17132.44
293.6385, 17159.17
294.1206, 17219.97
294.6028, 17297.52
295.0849, 17376.12
295.5670, 17457.14
296.0491, 17545.88
296.5312, 17647.21
297.0133, 17756.75
297.4955, 17867.28
297.9776, 17977.55
298.4597, 18085.62
298.9418, 18183.40
299.4239, 18275.96
299.9060, 18375.56
300.3882, 18490.25
300.8703, 18610.99
301.3524, 18721.43
301.8345, 18821.45
302.3166, 18919.35
302.7987, 19024.41
303.2809, 19131.08
303.7630, 19232.31
304.2451, 19323.87
304.7272, 19408.02
305.2093, 19477.96
305.6914, 19536.89
306.1736, 19605.20
306.6557, 19717.62
307.1378, 19843.46
307.6199, 19940.79
308.1020, 19988.33
308.5841, 20019.67
309.0663, 20064.16
309.5484, 20118.50
310.0305, 20163.76
310.5126, 20180.00
310.9947, 20187.41
311.4768, 20206.01
311.9590, 20245.67
312.4411, 20287.81
312.9232, 20314.15
313.4053, 20332.60
313.8874, 20365.20
314.3695, 20440.24
314.8517, 20522.77
315.3337, 20588.82
315.8159, 20633.66
316.2980, 20662.99
316.7801, 20665.79
317.2622, 20655.30
317.7443, 20659.00
318.2264, 20688.55
318.7086, 20734.10
319.1907, 20792.69
319.6728, 20867.20
320.1549, 20945.21
320.6370, 21031.02
321.1191, 21116.76
321.6013, 21190.86
322.0834, 21223.56
322.5655, 21266.43
323.0476, 21337.54
323.5297, 21441.05
324.0118, 21557.91
324.4940, 21690.63
324.9761, 21832.94
325.4582, 21977.89
325.9403, 22142.05
326.4224, 22290.95
326.9045, 22403.90
327.3867, 22470.24
327.8688, 22580.38
328.3509, 22762.30
328.8330, 22974.21
329.3151, 23184.77
329.7972, 23401.91
330.2794, 23607.59
330.7615, 23791.12
331.2436, 23955.16
331.7257, 24148.00
332.2078, 24386.88
332.6899, 24639.47
333.1721, 24879.93
333.6542, 25074.92
334.1363, 25322.38
334.6184, 25647.22
335.1005, 26033.01
335.5826, 26417.49
336.0648, 26801.00
336.5469, 27184.35
337.0290, 27574.38
337.5111, 27978.91
337.9932, 28361.81
338.4753, 28706.04
338.9575, 29035.37
339.4396, 29421.21
339.9217, 29879.42
340.4038, 30338.98
340.8859, 30767.46
341.3680, 31158.74
341.8502, 31561.59
342.3323, 31974.72
342.8144, 32390.22
343.2965, 32791.73
343.7786, 33184.27
344.2607, 33540.91
344.7429, 33845.02
345.2250, 34103.39
345.7071, 34366.70
346.1892, 34642.43
346.6713, 34907.21
347.1534, 35156.08
347.6355, 35382.68
348.1176, 35553.45
348.5998, 35644.18
349.0819, 35675.76
349.5640, 35693.97
350.0461, 35697.82
350.5282, 35682.25
351.0103, 35642.42
351.4925, 35579.01
351.9746, 35495.84
352.4567, 35405.65
352.9388, 35282.69
353.4209, 35078.21
353.9030, 34803.09
354.3852, 34520.52
354.8673, 34313.54
355.3494, 34111.06
355.8315, 33813.13
356.3136, 33368.88
356.7957, 32894.70
357.2779, 32485.58
357.7600, 32121.45
358.2421, 31754.13
358.7242, 31362.62
359.2063, 30952.71
359.6884, 30520.16
360.1706, 30052.92
360.6527, 29605.58
361.1348, 29225.12
361.6169, 28875.17
362.0990, 28505.13
362.5811, 28072.09
363.0633, 27633.04
363.5454, 27216.25
364.0275, 26827.23
364.5096, 26424.09
364.9917, 25981.08
365.4738, 25525.80
365.9560, 25082.99
366.4381, 24667.47
366.9202, 24260.33
367.4023, 23848.31
367.8844, 23432.78
368.3665, 23049.98
368.8487, 22721.73
369.3308, 22412.31
369.8129, 22103.55
370.2950, 21792.09
370.7771, 21487.82
371.2592, 21186.93
371.7414, 20894.48
372.2235, 20619.64
372.7056, 20367.75
373.1877, 20123.98
373.6698, 19877.19
374.1519, 19610.23
374.6341, 19395.84
375.1162, 19249.91
375.5983, 19143.93
376.0804, 19026.91
376.5625, 18894.23
377.0446, 18770.91
377.5267, 18672.80
378.0089, 18598.54
378.4910, 18503.94
378.9731, 18382.46
379.4552, 18262.68
379.9373, 18186.78
380.4194, 18153.68
380.9016, 18112.13
381.3837, 18032.82
381.8658, 17941.95
382.3479, 17925.39
382.8300, 17984.30
383.3121, 18056.40
383.7943, 18075.45
384.2764, 18064.40
384.7585, 18097.55
385.2406, 18202.99
385.7227, 18332.77
386.2048, 18408.46
386.6870, 18444.03
387.1691, 18498.83
387.6512, 18622.03
388.1333, 18777.88
388.6154, 18923.61
389.0975, 19050.81
389.5797, 19176.94
390.0618, 19313.46
390.5439, 19457.90
391.0260, 19602.79
391.5081, 19722.58
391.9902, 19859.27
392.4724, 20064.18
392.9545, 20340.55
393.4366, 20576.48
393.9187, 20698.85
394.4008, 20769.20
394.8829, 20846.62
395.3651, 20946.58
395.8472, 21054.69
396.3293, 21168.30
396.8114, 21287.30
397.2935, 21411.21
397.7756, 21547.39
398.2578, 21682.19
398.7399, 21810.82
399.2220, 21949.77
399.7041, 22054.86
400.1862, 22106.82
400.6683, 22127.75
401.1505, 22164.04
401.6326, 22241.69
402.1147, 22298.81
402.5968, 22314.54
403.0789, 22283.55
403.5610, 22245.99
404.0432, 22201.34
404.5253, 22151.34
405.0074, 22100.47
405.4895, 22052.72
405.9716, 21985.54
406.4537, 21884.20
406.9359, 21759.91
407.4180, 21672.87
407.9001, 21626.87
408.3822, 21597.73
408.8643, 21570.59
409.3464, 21545.00
409.8285, 21515.14
410.3106, 21477.27
410.7928, 21441.23
411.2749, 21431.06
411.7570, 21442.59
412.2391, 21443.33
412.7212, 21391.50
413.2033, 21321.47
413.6855, 21305.47
414.1676, 21350.37
414.6497, 21416.47
415.1318, 21480.54
415.6139, 21538.13
416.0960, 21579.83
416.5782, 21591.22
417.0603, 21593.21
417.5424, 21595.63
418.0245, 21599.92
418.5066, 21618.01
418.9887, 21659.99
419.4709, 21716.19
419.9530, 21780.82
420.4351, 21861.22
420.9172, 21935.29
421.3993, 21992.24
421.8814, 22037.59
422.3636, 22083.45
422.8457, 22128.98
423.3278, 22179.57
423.8099, 22239.41
424.2920, 22315.13
424.7741, 22381.34
425.2563, 22430.59
425.7384, 22473.89
426.2205, 22521.47
426.7026, 22577.44
427.1847, 22631.03
427.6668, 22676.14
428.1490, 22714.72
428.6311, 22768.49
429.1132, 22842.20
429.5953, 22922.98
430.0774, 23006.40
430.5595, 23096.18
431.0417, 23161.13
431.5238, 23190.42
432.0059, 23203.37
432.4880, 23241.04
432.9701, 23304.71
433.4522, 23367.54
433.9344, 23413.49
434.4165, 23447.57
434.8986, 23496.91
435.3807, 23562.97
435.8628, 23633.75
436.3449, 23698.79
436.8271, 23759.13
437.3092, 23817.73
437.7913, 23876.03
438.2734, 23931.63
438.7555, 23978.62
439.2376, 24018.76
439.7197, 24061.09
440.2018, 24099.46
440.6840, 24148.29
441.1661, 24229.47
441.6482, 24360.51
442.1303, 24476.38
442.6124, 24521.60
443.0945, 24533.20
443.5767, 24569.49
444.0588, 24682.13
444.5409, 24792.54
445.0230, 24860.32
445.5051, 24880.41
445.9872, 24930.72
446.4694, 25031.77
446.9515, 25162.43
447.4336, 25308.37
447.9157, 25472.33
448.3978, 25648.24
448.8799, 25834.95
449.3621, 26033.71
449.8442, 26241.76
450.3263, 26454.86
450.8084, 26682.90
451.2905, 26927.81
451.7726, 27185.23
452.2548, 27477.17
452.7369, 27812.70
453.2190, 28165.46
453.7011, 28501.34
454.1832, 28817.09
454.6653, 29164.22
455.1475, 29565.88
455.6296, 30004.04
456.1117, 30441.25
456.5938, 30874.42
457.0759, 31327.94
457.5580, 31830.63
458.0402, 32361.63
458.5223, 32871.75
459.0044, 33355.84
459.4865, 33830.79
459.9686, 34334.10
460.4507, 34844.11
460.9329, 35328.93
461.4150, 35800.77
461.8971, 36208.50
462.3792, 36532.05
462.8613, 36766.28
463.3434, 36885.90
463.8256, 36880.18
464.3077, 36752.21
464.7898, 36501.29
465.2719, 36076.76
465.7540, 35593.93
466.2361, 35034.59
466.7183, 34425.73
467.2004, 33854.56
467.6825, 33326.31
468.1646, 32837.77
468.6467, 32377.04
469.1288, 31935.35
469.6110, 31574.62
470.0930, 31310.95
470.5752, 31106.04
471.0573, 30917.86
471.5394, 30740.15
472.0215, 30605.86
472.5036, 30523.42
472.9857, 30486.34
473.4679, 30486.01
473.9500, 30526.65
474.4321, 30561.60
474.9142, 30542.56
475.3963, 30489.48
475.8784, 30497.13
476.3606, 30577.50
476.8427, 30686.85
477.3248, 30782.05
477.8069, 30867.68
478.2890, 30952.26
478.7711, 31029.04
479.2533, 31116.24
479.7354, 31232.71
480.2175, 31376.75
480.6996, 31538.14
481.1817, 31710.45
481.6638, 31895.50
482.1460, 32089.40
482.6281, 32275.33
483.1102, 32504.68
483.5923, 32805.42
484.0744, 33155.27
484.5565, 33523.82
485.0387, 33923.71
485.5208, 34315.03
486.0029, 34670.60
486.4850, 34990.94
486.9671, 35375.37
487.4492, 35854.64
487.9314, 36359.23
488.4135, 36844.67
488.8956, 37290.95
489.3777, 37774.23
489.8598, 38313.71
490.3419, 38881.98
490.8241, 39429.30
491.3062, 39952.03
491.7883, 40512.37
492.2704, 41163.63
492.7525, 41873.20
493.2346, 42531.07
493.7168, 43125.02
494.1989, 43697.17
494.6810, 44292.04
495.1631, 44884.84
495.6452, 45432.64
496.1273, 45914.67
496.6095, 46364.64
497.0916, 46817.00
497.5737, 47253.29
498.0558, 47634.82
498.5379, 47972.21
499.0201, 48222.28
499.5022, 48360.11
499.9843, 48386.24
500.4664, 48291.03
500.9485, 48037.54
501.4306, 47683.40
501.9127, 47273.68
502.3948, 46844.29
502.8770, 46324.30
503.3591, 45702.95
503.8412, 44993.06
504.3233, 44202.48
504.8054, 43310.18
505.2875, 42370.96
505.7697, 41392.32
506.2518, 40364.48
506.7339, 39322.40
507.2160, 38266.19
507.6981, 37194.31
508.1802, 36087.81
508.6624, 34947.63
509.1445, 33863.22
509.6266, 32856.22
510.1087, 31896.45
510.5908, 30925.40
511.0729, 29951.07
511.5551, 29018.27
512.0372, 28147.00
512.5193, 27329.72
513.0014, 26574.42
513.4835, 25876.92
513.9656, 25212.64
514.4478, 24557.96
514.9299, 23930.14
515.4120, 23349.70
515.8941, 22838.36
516.3762, 22343.78
516.8583, 21850.30
517.3405, 21361.07
517.8226, 20886.97
518.3047, 20404.61
518.7868, 19962.21
519.2689, 19584.88
519.7510, 19276.42
520.2332, 18970.24
520.7153, 18677.84
521.1974, 18383.14
521.6795, 18070.53
522.1616, 17724.40
522.6437, 17416.38
523.1259, 17162.89
523.6080, 16941.27
524.0901, 16710.47
524.5722, 16467.88
525.0543, 16233.19
525.5364, 16008.75
526.0186, 15795.25
526.5007, 15591.59
526.9828, 15399.52
527.4649, 15225.46
527.9470, 15084.93
528.4291, 14964.32
528.9113, 14835.98
529.3934, 14693.52
529.8755, 14551.19
530.3576, 14424.36
530.8397, 14304.60
531.3218, 14174.81
531.8040, 14003.32
532.2861, 13845.51
532.7682, 13740.58
533.2503, 13683.24
533.7324, 13603.37
534.2145, 13454.81
534.6967, 13310.02
535.1788, 13204.54
535.6609, 13158.36
536.1430, 13108.79
536.6251, 13057.88
537.1072, 13002.93
537.5894, 12940.12
538.0715, 12868.26
538.5536, 12795.37
539.0357, 12722.06
539.5178, 12650.51
539.9999, 12587.63
540.4821, 12534.14
540.9642, 12482.48
541.4463, 12419.11
541.9284, 12354.63
542.4105, 12317.09
542.8926, 12310.82
543.3748, 12308.84
543.8569, 12290.46
544.3390, 12260.23
544.8211, 12224.55
545.3032, 12180.23
545.7853, 12136.41
546.2675, 12098.35
546.7495, 12064.50
547.2316, 12030.18
547.7137, 11982.17
548.1959, 11944.62
548.6780, 11933.80
549.1601, 11960.48
549.6422, 11959.34
550.1243, 11915.93
550.6064, 11859.09
551.0886, 11810.99
551.5707, 11773.29
552.0528, 11737.19
552.5349, 11697.98
553.0170, 11664.99
553.4991, 11663.80
553.9813, 11694.83
554.4634, 11722.36
554.9455, 11730.10
555.4276, 11724.01
555.9097, 11718.48
556.3918, 11713.45
556.8740, 11706.45
557.3561, 11699.40
557.8382, 11688.00
558.3203, 11663.11
558.8024, 11617.03
559.2845, 11579.07
559.7667, 11571.74
560.2488, 11581.04
560.7309, 11587.36
561.2130, 11578.34
561.6951, 11572.91
562.1772, 11574.99
562.6594, 11584.62
563.1415, 11601.55
563.6236, 11638.04
564.1057, 11665.69
564.5878, 11669.04
565.0699, 11642.09
565.5521, 11628.57
566.0342, 11628.64
566.5163, 11641.64
566.9984, 11677.17
567.4805, 11733.46
567.9626, 11762.33
568.4448, 11747.32
568.9269, 11715.84
569.4090, 11708.47
569.8911, 11722.15
570.3732, 11744.45
570.8553, 11782.28
571.3375, 11817.29
571.8196, 11823.95
572.3017, 11804.58
572.7838, 11789.54
573.2659, 11797.60
573.7480, 11813.71
574.2302, 11825.96
574.7123, 11826.11
575.1944, 11835.64
575.6765, 11869.70
576.1586, 11910.54
576.6407, 11934.98
577.1229, 11932.09
577.6050, 11933.59
578.0871, 11947.57
578.5692, 11969.62
579.0513, 11979.13
579.5334, 11973.38
580.0156, 11969.32
580.4977, 11971.29
580.9798, 11981.30
581.4619, 12014.30
581.9440, 12071.18
582.4261, 12135.78
582.9083, 12196.90
583.3904, 12253.25
583.8725, 12304.71
584.3546, 12353.54
584.8367, 12390.93
585.3188, 12389.94
585.8010, 12375.89
586.2831, 12394.84
586.7652, 12507.52
587.2473, 12611.53
587.7294, 12664.90
588.2115, 12670.44
588.6937, 12685.44
589.1758, 12721.07
589.6579, 12757.18
590.1400, 12782.24
590.6221, 12790.03
591.1042, 12819.86
591.5864, 12879.74
592.0685, 12944.74
592.5506, 12982.44
593.0327, 12994.37
593.5148, 13020.22
593.9969, 13071.21
594.4791, 13133.23
594.9612, 13185.37
595.4433, 13230.04
595.9254, 13274.59
596.4075, 13326.76
596.8896, 13377.90
597.3718, 13418.53
597.8539, 13449.63
598.3360, 13479.06
598.8181, 13506.54
599.3002, 13536.42
599.7823, 13572.99
600.2645, 13622.78
600.7466, 13663.17
601.2287, 13685.87
601.7108, 13702.47
602.1929, 13725.14
602.6750, 13758.95
603.1572, 13784.13
603.6393, 13794.89
604.1214, 13798.60
604.6035, 13812.32
605.0856, 13836.26
605.5677, 13866.57
606.0499, 13911.48
606.5320, 13958.55
607.0141, 13972.73
607.4962, 13956.42
607.9783, 13938.74
608.4604, 13940.97
608.9425, 13952.68
609.4246, 13963.92
609.9067, 13974.02
610.3889, 13979.73
610.8710, 13986.83
611.3531, 13985.51
611.8352, 13965.66
612.3173, 13892.70
612.7994, 13842.43
613.2816, 13832.03
613.7637, 13846.47
614.2458, 13850.23
614.7279, 13843.69
615.2100, 13825.54
615.6921, 13791.01
616.1743, 13744.07
616.6564, 13712.23
617.1385, 13696.48
617.6206, 13682.28
618.1027, 13659.96
618.5848, 13631.18
619.0670, 13597.29
619.5491, 13557.70
620.0312, 13519.51
620.5133, 13502.28
620.9954, 13484.10
621.4775, 13434.28
621.9597, 13304.40
622.4418, 13198.97
622.9239, 13172.75
623.4060, 13192.04
623.8881, 13189.28
624.3702, 13142.00
624.8524, 13090.84
625.3345, 13043.40
625.8166, 12998.80
626.2987, 12949.98
626.7808, 12893.17
627.2629, 12843.74
627.7451, 12821.80
628.2272, 12821.22
628.7093, 12776.05
629.1914, 12681.41
629.6735, 12585.90
630.1556, 12543.83
630.6378, 12533.39
631.1199, 12516.83
631.6020, 12483.95
632.0841, 12450.32
632.5662, 12429.71
633.0483, 12414.60
633.5305, 12393.32
634.0126, 12359.26
634.4947, 12322.73
634.9768, 12283.03
635.4589, 12242.04
635.9410, 12208.98
636.4232, 12187.73
636.9053, 12167.46
637.3874, 12146.00
637.8695, 12122.99
638.3516, 12090.36
638.8337, 12047.93
639.3159, 11994.37
639.7980, 11913.97
640.2801, 11819.72
640.7622, 11761.46
641.2443, 11747.46
641.7264, 11745.45
642.2086, 11728.17
642.6907, 11702.84
643.1728, 11680.14
643.6549, 11665.61
644.1370, 11651.32
644.6191, 11635.88
645.1013, 11618.37
645.5834, 11596.48
646.0655, 11562.21
646.5476, 11532.13
647.0297, 11507.21
647.5118, 11488.23
647.9940, 11487.41
648.4761, 11512.95
648.9582, 11529.89
649.4403, 11512.11
649.9224, 11464.78
650.4045, 11433.77
650.8867, 11419.38
651.3688, 11409.15
651.8509, 11386.83
652.3330, 11362.54
652.8151, 11357.76
653.2972, 11383.33
653.7794, 11403.19
654.2615, 11384.36
654.7436, 11350.77
655.2257, 11332.25
655.7078, 11357.48
656.1899, 11373.38
656.6721, 11365.83
657.1542, 11343.45
657.6363, 11325.00
658.1184, 11311.52
658.6005, 11298.61
659.0826, 11282.41
659.5648, 11265.62
660.0469, 11269.61
660.5290, 11295.70
661.0111, 11310.25
661.4932, 11276.27
661.9753, 11219.61
662.4575, 11193.42
662.9396, 11200.56
663.4217, 11212.33
663.9038, 11202.35
664.3859, 11190.91
664.8680, 11200.82
665.3502, 11251.08
665.8323, 11287.58
666.3144, 11282.11
666.7965, 11262.78
667.2786, 11263.94
667.7607, 11298.85
668.2429, 11326.32
668.7250, 11336.22
669.2071, 11339.28
669.6892, 11368.25
670.1713, 11424.66
670.6534, 11456.86
671.1355, 11429.31
671.6176, 11376.03
672.0997, 11376.69
672.5818, 11421.01
673.0640, 11453.67
673.5461, 11422.49
674.0282, 11379.70
674.5103, 11372.19
674.9924, 11404.13
675.4745, 11431.03
675.9567, 11434.49
676.4388, 11431.86
676.9209, 11435.08
677.4030, 11450.99
677.8851, 11453.72
678.3672, 11433.44
678.8494, 11413.36
679.3315, 11420.25
679.8136, 11454.72
680.2957, 11489.99
680.7778, 11518.57
681.2599, 11552.10
681.7421, 11621.44
682.2242, 11710.59
682.7063, 11770.76
683.1884, 11756.14
683.6705, 11734.98
684.1526, 11766.63
684.6348, 11833.54
685.1169, 11887.97
685.5990, 11903.00
686.0811, 11913.91
686.5632, 11933.62
687.0453, 11961.60
687.5275, 11988.27
688.0096, 12012.38
688.4917, 12038.28
688.9738, 12070.95
689.4559, 12110.04
689.9380, 12138.43
690.4202, 12154.64
690.9023, 12172.53
691.3844, 12209.86
691.8665, 12256.09
692.3486, 12288.10
692.8307, 12298.85
693.3129, 12314.94
693.7950, 12355.25
694.2771, 12410.57
694.7592, 12470.81
695.2413, 12563.87
695.7234, 12622.64
696.2056, 12615.41
696.6877, 12576.57
697.1698, 12554.20
697.6519, 12546.75
698.1340, 12563.12
698.6161, 12613.01
699.0983, 12681.90
699.5804, 12735.32
700.0625, 12773.16
700.5446, 12796.31
701.0267, 12776.98
701.5089, 12759.41
701.9910, 12823.67
702.4731, 12953.96
702.9552, 13063.98
703.4373, 13085.45
703.9194, 13090.30
704.4016, 13124.00
704.8837, 13194.60
705.3658, 13253.23
705.8479, 13291.00
706.3300, 13320.90
706.8121, 13346.32
707.2943, 13361.67
707.7764, 13402.92
708.2585, 13474.10
708.7406, 13558.95
709.2227, 13642.55
709.7048, 13725.11
710.1870, 13807.03
710.6691, 13890.80
711.1512, 13967.17
711.6333, 14025.71
712.1154, 14074.18
712.5975, 14122.97
713.0797, 14163.71
713.5618, 14220.08
714.0439, 14310.54
714.5260, 14419.16
715.0081, 14512.06
715.4902, 14580.24
715.9724, 14645.69
716.4545, 14712.67
716.9366, 14779.38
717.4187, 14833.18
717.9008, 14874.03
718.3829, 14925.44
718.8651, 15014.16
719.3472, 15113.42
719.8293, 15172.74
720.3114, 15198.19
720.7935, 15229.17
721.2756, 15291.90
721.7578, 15365.54
722.2399, 15435.79
722.7220, 15501.98
723.2041, 15570.11
723.6862, 15634.10
724.1683, 15707.85
724.6505, 15803.66
725.1326, 15930.69
725.6147, 16023.59
726.0968, 16073.76
726.5789, 16114.30
727.0610, 16177.61
727.5432, 16258.72
728.0253, 16336.49
728.5074, 16406.05
728.9895, 16482.39
729.4716, 16582.30
729.9537, 16696.15
730.4359, 16809.08
730.9180, 16911.95
731.4001, 17023.35
731.8822, 17150.58
732.3643, 17290.03
732.8464, 17435.86
733.3285, 17588.49
733.8106, 17743.95
734.2927, 17894.49
734.7748, 18053.77
735.2570, 18272.55
735.7391, 18546.49
736.2212, 18791.71
736.7033, 18954.85
737.1854, 19093.97
737.6675, 19285.91
738.1497, 19522.34
738.6318, 19781.56
739.1139, 20045.62
739.5960, 20337.26
740.0781, 20685.37
740.5602, 21084.13
741.0424, 21453.08
741.5245, 21745.07
742.0066, 22067.67
742.4887, 22469.47
742.9708, 22944.62
743.4529, 23407.49
743.9351, 23858.40
744.4172, 24289.58
744.8993, 24664.45
745.3814, 25021.16
745.8635, 25459.78
746.3456, 25985.86
746.8278, 26517.43
747.3099, 26987.74
747.7920, 27438.93
748.2741, 27905.46
748.7562, 28401.41
749.2383, 28890.01
749.7205, 29389.24
750.2026, 29863.42
750.6847, 30278.75
751.1668, 30634.94
751.6489, 30948.63
752.1310, 31211.69
752.6132, 31470.53
753.0953, 31794.43
753.5774, 32164.81
754.0595, 32502.56
754.5416, 32801.10
755.0237, 33046.96
755.5059, 33217.56
755.9880, 33333.16
756.4701, 33425.91
756.9522, 33537.77
757.4343, 33582.72
757.9164, 33527.01
758.3986, 33401.73
758.8807, 33253.22
759.3628, 33092.20
759.8449, 32874.70
760.3270, 32582.50
760.8091, 32246.37
761.2913, 31923.07
761.7734, 31613.91
762.2555, 31299.21
762.7376, 30975.71
763.2197, 30636.12
763.7018, 30254.77
764.1840, 29850.39
764.6661, 29468.26
765.1482, 29165.78
765.6303, 28854.73
766.1124, 28487.59
766.5945, 28077.28
767.0767, 27717.51
767.5588, 27417.59
768.0409, 27139.81
768.5230, 26875.48
769.0051, 26619.23
769.4872, 26332.52
769.9694, 26016.04
770.4515, 25717.61
770.9336, 25490.93
771.4157, 25283.10
771.8978, 25020.52
772.3799, 24705.33
772.8621, 24442.38
773.3442, 24310.27
773.8263, 24204.25
774.3084, 24067.62
774.7905, 23894.62
775.2726, 23745.01
775.7548, 23615.56
776.2369, 23519.01
776.7190, 23486.32
777.2011, 23502.76
777.6832, 23463.53
778.1653, 23363.60
778.6475, 23270.27
779.1296, 23225.68
779.6117, 23225.40
780.0938, 23276.61
780.5759, 23391.20
781.0580, 23489.49
781.5402, 23518.30
782.0223, 23539.68
782.5044, 23598.56
782.9865, 23699.88
783.4686, 23819.68
783.9507, 23954.33
784.4329, 24116.73
784.9150, 24344.76
785.3971, 24622.80
785.8792, 24853.33
786.3613, 25015.91
786.8434, 25185.52
787.3256, 25448.79
787.8077, 25751.34
788.2898, 26023.79
788.7719, 26207.15
789.2540, 26438.26
789.7361, 26761.12
790.2183, 27141.13
790.7004, 27545.20
791.1825, 27993.50
791.6646, 28402.10
792.1467, 28745.03
792.6288, 29081.72
793.1110, 29512.85
793.5930, 30014.99
794.0751, 30514.50
794.5573, 30980.70
795.0394, 31456.17
795.5215, 31963.72
796.0036, 32496.26
796.4857, 33048.32
796.9678, 33619.00
797.4500, 34201.63
797.9321, 34810.38
798.4142, 35428.98
798.8963, 36033.34
799.3784, 36629.26
799.8605, 37218.63
800.3427, 37800.95
800.8248, 38387.48
801.3069, 39010.50
801.7890, 39659.93
802.2711, 40313.73
802.7532, 40990.30
803.2354, 41630.51
803.7175, 42196.38
804.1996, 42708.67
804.6817, 43214.72
805.1638, 43735.69
805.6459, 44233.84
806.1281, 44695.95
806.6102, 45137.95
807.0923, 45605.07
807.5744, 46104.16
808.0565, 46541.29
808.5386, 46886.43
809.0208, 47155.12
809.5029, 47337.01
809.9850, 47456.22
810.4671, 47577.09
810.9492, 47810.30
811.4313, 47966.67
811.9135, 47916.68
812.3956, 47718.41
812.8777, 47559.03
813.3598, 47483.06
813.8419, 47379.28
814.3240, 47226.98
814.8062, 47027.00
815.2883, 46759.10
815.7704, 46430.52
816.2525, 46109.08
816.7346, 45831.70
817.2167, 45568.88
817.6989, 45278.66
818.1810, 44974.37
818.6631, 44691.04
819.1452, 44437.23
819.6273, 44209.00
820.1094, 44007.51
820.5916, 43832.39
821.0737, 43683.81
821.5558, 43554.46
822.0379, 43482.24
822.5200, 43484.70
823.0021, 43548.57
823.4843, 43651.41
823.9664, 43789.06
824.4485, 43946.36
824.9306, 44109.48
825.4127, 44294.08
825.8948, 44518.62
826.3770, 44773.48
826.8591, 45033.36
827.3412, 45247.93
827.8233, 45520.42
828.3054, 45897.64
828.7875, 46343.00
829.2697, 46697.95
829.7518, 46960.07
830.2339, 47222.01
830.7160, 47535.93
831.1981, 47865.98
831.6802, 48157.10
832.1624, 48417.79
832.6445, 48664.81
833.1266, 48901.65
833.6087, 49133.05
834.0908, 49369.68
834.5729, 49602.91
835.0551, 49808.93
835.5372, 49991.71
836.0193, 50136.95
836.5014, 50245.91
836.9835, 50310.75
837.4656, 50290.89
837.9478, 50195.38
838.4299, 50086.56
838.9120, 49995.88
839.3941, 49900.53
839.8762, 49792.91
840.3583, 49664.32
840.8405, 49490.53
841.3226, 49222.11
841.8047, 48960.75
842.2868, 48742.64
842.7689, 48543.09
843.2510, 48283.21
843.7332, 47951.00
844.2153, 47656.94
844.6974, 47452.86
845.1795, 47284.46
845.6616, 47058.59
846.1437, 46791.32
846.6259, 46529.30
847.1080, 46286.04
847.5901, 46059.93
848.0722, 45859.72
848.5543, 45675.88
849.0364, 45478.34
849.5186, 45243.88
850.0007, 45043.44
850.4828, 44886.84
850.9649, 44777.31
851.4470, 44750.14
851.9291, 44788.58
852.4113, 44784.68
852.8934, 44672.80
853.3755, 44554.30
853.8576, 44506.41
854.3397, 44518.88
854.8218, 44571.82
855.3040, 44683.91
855.7860, 44808.81
856.2681, 44944.66
856.7502, 45083.71
857.2324, 45206.65
857.7145, 45308.58
858.1966, 45445.37
858.6787, 45632.59
859.1608, 45848.23
859.6429, 46086.63
860.1251, 46327.30
860.6072, 46539.90
861.0893, 46702.62
861.5714, 46853.49
862.0535, 46989.43
862.5356, 47129.94
863.0178, 47310.67
863.4999, 47565.98
863.9820, 47760.84
864.4641, 47878.56
864.9462, 47936.88
865.4283, 47953.79
865.9105, 47929.30
866.3926, 47860.18
866.8747, 47743.72
867.3568, 47594.21
867.8389, 47496.53
868.3210, 47337.96
868.8032, 46995.90
869.2853, 46356.11
869.7674, 45696.41
870.2495, 45024.05
870.7316, 44316.88
871.2137, 43563.75
871.6959, 42761.62
872.1780, 41851.04
872.6601, 40821.05
873.1422, 39740.68
873.6243, 38629.30
874.1064, 37512.02
874.5886, 36402.02
875.0707, 35284.18
875.5528, 34238.64
876.0349, 33324.69
876.5170, 32439.74
876.9991, 31528.51
877.4813, 30581.85
877.9634, 29688.29
878.4455, 28846.14
878.9276, 28068.74
879.4097, 27401.26
879.8918, 26799.73
880.3740, 26198.37
880.8561, 25594.05
881.3382, 25016.22
881.8203, 24462.39
882.3024, 23954.79
882.7845, 23513.00
883.2667, 23138.23
883.7488, 22773.23
884.2309, 22416.41
884.7130, 22074.73
885.1951, 21761.62
885.6772, 21464.68
886.1594, 21129.27
886.6415, 20766.77
887.1236, 20426.55
887.6057, 20140.87
888.0878, 19882.12
888.5699, 19647.10
889.0521, 19430.53
889.5342, 19205.35
890.0163, 18963.83
890.4984, 18725.98
890.9805, 18490.15
891.4626, 18262.78
891.9448, 18066.10
892.4269, 17897.16
892.9090, 17731.03
893.3911, 17555.43
893.8732, 17378.22
894.3553, 17204.68
894.8375, 17032.40
895.3196, 16861.02
895.8017, 16678.03
896.2838, 16512.40
896.7659, 16375.46
897.2480, 16248.34
897.7302, 16088.96
898.2123, 15903.03
898.6944, 15722.65
899.1765, 15559.45
899.6586, 15399.77
900.1407, 15217.29
900.6229, 15036.73
901.1050, 14897.72
901.5871, 14853.36
902.0692, 14773.12
902.5513, 14623.01
903.0334, 14450.87
903.5156, 14301.43
903.9977, 14173.99
904.4798, 14050.90
904.9619, 13929.66
905.4440, 13818.66
905.9261, 13728.61
906.4083, 13652.54
906.8904, 13581.44
907.3725, 13514.46
907.8546, 13451.15
908.3367, 13403.98
908.8188, 13348.08
909.3010, 13265.18
909.7831, 13152.50
910.2652, 13074.19
910.7473, 13033.98
911.2294, 12992.67
911.7115, 12917.32
912.1937, 12825.56
912.6758, 12736.08
913.1579, 12652.58
913.6400, 12589.15
914.1221, 12567.30
914.6042, 12550.91
915.0864, 12525.71
915.5685, 12493.42
916.0506, 12464.04
916.5327, 12438.62
917.0148, 12410.49
917.4969, 12380.45
917.9790, 12342.57
918.4611, 12269.25
918.9432, 12179.68
919.4254, 12123.17
919.9075, 12159.12
920.3896, 12187.78
920.8717, 12169.05
921.3538, 12122.64
921.8359, 12076.39
922.3181, 12024.79
922.8002, 11999.02
923.2823, 12009.04
923.7644, 12030.70
924.2465, 12032.75
924.7286, 12020.38
925.2108, 12005.10
925.6929, 11992.55
926.1750, 11966.83
926.6571, 11900.84
927.1392, 11832.22
927.6213, 11795.38
928.1035, 11801.51
928.5856, 11799.50
929.0677, 11788.96
929.5498, 11772.91
930.0319, 11750.98
930.5140, 11726.57
930.9962, 11706.68
931.4783, 11691.61
931.9604, 11676.22
932.4425, 11662.15
932.9246, 11642.80
933.4067, 11607.07
933.8889, 11558.08
934.3710, 11538.97
934.8531, 11559.41
935.3352, 11564.02
935.8173, 11509.38
936.2994, 11435.99
936.7816, 11439.63
937.2637, 11497.90
937.7458, 11539.30
938.2279, 11520.25
938.7100, 11489.84
939.1921, 11462.89
939.6743, 11438.76
940.1564, 11414.13
940.6385, 11387.60
941.1206, 11369.95
941.6027, 11367.06
942.0848, 11362.71
942.5670, 11323.26
943.0491, 11267.77
943.5312, 11233.39
944.0133, 11234.49
944.4954, 11242.83
944.9775, 11260.30
945.4597, 11270.42
945.9418, 11256.20
946.4239, 11206.67
946.9060, 11183.90
947.3881, 11190.85
947.8702, 11207.03
948.3524, 11225.05
948.8345, 11236.72
949.3166, 11222.90
949.7987, 11184.54
950.2808, 11149.56
950.7629, 11128.93
951.2451, 11116.26
951.7272, 11104.48
952.2093, 11096.58
952.6914, 11118.27
953.1735, 11172.77
953.6556, 11224.80
954.1378, 11263.61
954.6199, 11286.36
955.1020, 11285.87
955.5841, 11266.75
956.0662, 11239.31
956.5483, 11184.92
957.0305, 11151.69
957.5126, 11163.10
957.9947, 11191.63
958.4768, 11197.68
958.9589, 11179.74
959.4410, 11176.43
959.9232, 11195.07
960.4053, 11217.89
960.8874, 11225.19
961.3695, 11225.99
961.8516, 11231.03
962.3337, 11241.72
962.8159, 11257.84
963.2980, 11283.74
963.7801, 11309.58
964.2622, 11329.65
964.7443, 11344.49
965.2264, 11363.65
965.7086, 11386.99
966.1907, 11408.56
966.6728, 11425.11
967.1549, 11438.09
967.6370, 11440.70
968.1191, 11439.18
968.6013, 11459.49
969.0834, 11529.48
969.5655, 11586.87
970.0476, 11618.15
970.5297, 11633.79
971.0118, 11652.75
971.4940, 11675.67
971.9761, 11708.43
972.4582, 11757.90
972.9403, 11804.05
973.4224, 11823.77
973.9045, 11836.65
974.3867, 11866.77
974.8688, 11928.76
975.3509, 11980.09
975.8330, 12017.22
976.3151, 12051.38
976.7972, 12094.40
977.2794, 12141.16
977.7615, 12180.41
978.2436, 12210.73
978.7257, 12225.80
979.2078, 12211.75
979.6899, 12190.21
980.1720, 12172.11
980.6541, 12157.41
981.1362, 12143.97
981.6183, 12135.12
982.1005, 12112.60
982.5826, 12066.90
983.0647, 12009.62
983.5468, 11964.84
984.0289, 11925.19
984.5110, 11873.26
984.9932, 11788.05
985.4753, 11712.01
985.9574, 11662.33
986.4395, 11625.48
986.9216, 11592.67
987.4037, 11566.21
987.8859, 11518.50
988.3680, 11445.73
988.8501, 11372.91
989.3322, 11320.33
989.8143, 11282.72
990.2964, 11260.82
990.7786, 11254.88
991.2607, 11231.32
991.7428, 11163.97
992.2249, 11102.60
992.7070, 11067.52
993.1891, 11051.28
993.6713, 11016.66
994.1534, 10967.61
994.6355, 10939.67
995.1176, 10969.64
995.5997, 10999.93
996.0818, 10972.24
996.5640, 10917.00
997.0461, 10889.53
997.5282, 10917.05
998.0103, 10927.11
998.4924, 10908.70
998.9745, 10886.39
999.4567, 10897.13
999.9388, 10926.31
1000.421, 10928.79
1000.903, 10898.87
1001.385, 10867.06
1001.867, 10848.09
1002.349, 10835.81
1002.831, 10830.28
1003.314, 10830.03
1003.796, 10815.22
1004.278, 10782.56
1004.760, 10757.60
1005.242, 10758.71
1005.724, 10766.38
1006.206, 10745.92
1006.688, 10708.66
1007.171, 10680.11
1007.653, 10670.03
1008.135, 10669.22
1008.617, 10684.01
1009.099, 10699.10
1009.581, 10689.87
1010.063, 10658.00
1010.545, 10653.75
1011.027, 10684.43
1011.510, 10705.38
1011.992, 10656.66
1012.474, 10596.02
1012.956, 10579.61
1013.438, 10615.58
1013.920, 10637.44
1014.402, 10638.86
1014.884, 10634.38
1015.367, 10630.69
1015.849, 10624.37
1016.331, 10605.46
1016.813, 10576.06
1017.295, 10542.55
1017.777, 10492.31
1018.259, 10459.07
1018.741, 10464.69
1019.223, 10491.40
1019.706, 10523.19
1020.188, 10567.24
1020.670, 10566.75
1021.152, 10511.00
1021.634, 10454.73
1022.116, 10462.65
1022.598, 10495.54
1023.080, 10502.51
1023.563, 10479.09
1024.045, 10460.06
1024.527, 10455.72
1025.009, 10453.42
1025.491, 10450.00
1025.973, 10444.96
1026.455, 10435.42
1026.937, 10422.41
1027.419, 10412.84
1027.901, 10411.48
1028.384, 10410.79
1028.866, 10405.61
1029.348, 10398.37
1029.830, 10391.82
1030.312, 10384.40
1030.794, 10385.51
1031.276, 10398.34
1031.758, 10409.45
1032.241, 10408.64
1032.723, 10397.11
1033.205, 10369.40
1033.687, 10328.48
1034.169, 10301.35
1034.651, 10314.49
1035.133, 10325.26
1035.615, 10318.40
1036.098, 10299.67
1036.580, 10282.87
1037.062, 10268.38
1037.544, 10265.64
1038.026, 10280.93
1038.508, 10297.97
1038.990, 10302.55
1039.472, 10300.50
1039.954, 10299.21
1040.437, 10302.30
1040.919, 10297.41
1041.401, 10282.70
1041.883, 10266.08
1042.365, 10252.61
1042.847, 10241.92
1043.329, 10235.16
1043.811, 10230.97
1044.293, 10221.87
1044.776, 10199.80
1045.258, 10177.87
1045.740, 10155.33
1046.222, 10138.69
1046.704, 10147.14
1047.186, 10180.63
1047.668, 10192.38
1048.150, 10171.54
1048.633, 10142.22
1049.115, 10121.94
1049.597, 10108.34
1050.079, 10099.17
1050.561, 10094.42
1051.043, 10095.79
1051.525, 10106.94
1052.007, 10114.77
1052.490, 10111.75
1052.972, 10101.51
1053.454, 10087.84
1053.936, 10073.96
1054.418, 10069.97
1054.900, 10085.43
1055.382, 10104.76
1055.864, 10131.02
1056.346, 10152.90
1056.828, 10154.04
1057.311, 10133.87
1057.793, 10120.44
1058.275, 10115.64
1058.757, 10120.75
1059.239, 10158.13
1059.721, 10189.65
1060.203, 10171.59
1060.685, 10106.02
1061.168, 10070.44
1061.650, 10078.23
1062.132, 10087.28
1062.614, 10084.73
1063.096, 10078.03
1063.578, 10078.98
1064.060, 10086.26
1064.542, 10099.63
1065.025, 10130.06
1065.507, 10138.85
1065.989, 10091.47
1066.471, 10039.67
1066.953, 10019.26
1067.435, 10029.35
1067.917, 10025.33
1068.399, 10008.43
1068.881, 10000.97
1069.364, 10031.48
1069.846, 10062.48
1070.328, 10070.49
1070.810, 10057.16
1071.292, 10027.44
1071.774, 9970.256
1072.256, 9934.147
1072.738, 9926.662
1073.220, 9938.552
1073.703, 9973.250
1074.185, 10013.20
1074.667, 10023.46
1075.149, 9996.702
1075.631, 9991.103
1076.113, 10047.75
1076.595, 10094.20
1077.077, 10103.57
1077.559, 10083.18
1078.042, 10042.19
1078.524, 9990.029
1079.006, 9971.695
1079.488, 10027.11
1079.970, 10079.96
1080.452, 10082.53
1080.934, 10063.98
1081.416, 10059.34
1081.899, 10074.51
1082.381, 10068.75
1082.863, 10039.59
1083.345, 10012.16
1083.827, 10006.71
1084.309, 10011.45
1084.791, 10018.25
1085.273, 10024.53
1085.755, 10021.83
1086.238, 10007.26
1086.720, 9986.913
1087.202, 9960.864
1087.684, 9931.168
1088.166, 9893.584
1088.648, 9856.065
1089.130, 9838.957
1089.612, 9847.418
1090.094, 9855.768
1090.577, 9857.287
1091.059, 9851.471
1091.541, 9834.271
1092.023, 9810.355
1092.505, 9802.229
1092.987, 9809.104
1093.469, 9824.168
1093.951, 9850.216
1094.434, 9873.518
1094.916, 9890.375
1095.398, 9894.968
1095.880, 9876.309
1096.362, 9820.339
1096.844, 9796.722
1097.326, 9809.398
1097.808, 9826.719
1098.291, 9822.754
1098.773, 9810.462
1099.255, 9804.729
1099.737, 9805.559
1100.219, 9811.341
1100.701, 9820.096
1101.183, 9840.871
1101.665, 9886.350
1102.147, 9923.740
1102.630, 9887.611
1103.112, 9808.716
1103.594, 9766.568
1104.076, 9774.061
1104.558, 9788.731
1105.040, 9799.641
1105.522, 9803.391
1106.004, 9796.841
1106.486, 9782.595
1106.969, 9771.621
1107.451, 9763.644
1107.933, 9755.488
1108.415, 9743.796
1108.897, 9737.384
1109.379, 9754.521
1109.861, 9773.341
1110.343, 9765.389
1110.826, 9721.457
1111.308, 9714.121
1111.790, 9748.548
1112.272, 9776.656
1112.754, 9760.561
1113.236, 9726.460
1113.718, 9700.616
1114.200, 9681.718
1114.682, 9665.409
1115.165, 9641.396
1115.647, 9639.323
1116.129, 9665.952
1116.611, 9703.754
1117.093, 9747.538
1117.575, 9782.824
1118.057, 9767.601
1118.539, 9702.494
1119.021, 9654.984
1119.504, 9671.470
1119.986, 9683.380
1120.468, 9665.552
1120.950, 9636.766
1121.432, 9651.440
1121.914, 9696.453
1122.396, 9707.253
1122.878, 9659.258
1123.361, 9621.242
1123.843, 9648.207
1124.325, 9686.890
1124.807, 9696.274
1125.289, 9679.394
1125.771, 9688.919
1126.253, 9724.003
1126.735, 9751.168
1127.218, 9748.105
1127.700, 9740.221
1128.182, 9749.488
1128.664, 9766.872
1129.146, 9779.124
1129.628, 9782.918
1130.110, 9788.958
1130.592, 9797.758
1131.074, 9804.178
1131.557, 9806.603
1132.039, 9802.601
1132.521, 9781.015
1133.003, 9749.588
1133.485, 9737.069
1133.967, 9766.834
1134.449, 9780.666
1134.931, 9768.588
1135.413, 9747.557
1135.896, 9734.994
1136.378, 9731.073
1136.860, 9739.429
1137.342, 9760.023
1137.824, 9775.660
1138.306, 9779.035
1138.788, 9777.265
1139.270, 9770.624
1139.752, 9761.160
1140.235, 9749.372
1140.717, 9738.600
1141.199, 9744.451
1141.681, 9776.065
1142.163, 9800.853
1142.645, 9792.913
1143.127, 9781.883
1143.609, 9790.660
1144.092, 9814.369
1144.574, 9802.777
1145.056, 9760.430
1145.538, 9730.338
1146.020, 9735.280
1146.502, 9753.836
1146.984, 9780.755
1147.466, 9808.920
1147.948, 9829.142
1148.431, 9838.795
1148.913, 9856.910
1149.395, 9884.019
1149.877, 9911.725
1150.359, 9935.491
1150.841, 9955.438
1151.323, 9962.891
1151.805, 9967.679
1152.287, 9999.441
1152.770, 10073.34
1153.252, 10117.56
1153.734, 10119.51
1154.216, 10120.20
1154.698, 10176.79
1155.180, 10246.36
1155.662, 10270.98
1156.144, 10251.98
1156.627, 10245.09
1157.109, 10256.74
1157.591, 10280.30
1158.073, 10318.52
1158.555, 10358.91
1159.037, 10394.82
1159.519, 10416.03
1160.001, 10396.20
1160.484, 10324.33
1160.966, 10274.80
1161.448, 10276.78
1161.930, 10274.17
1162.412, 10239.90
1162.894, 10193.87
1163.376, 10193.30
1163.858, 10219.36
1164.340, 10221.72
1164.823, 10177.36
1165.305, 10131.60
1165.787, 10096.12
1166.269, 10063.22
1166.751, 10024.96
1167.233, 9986.270
1167.715, 9978.034
1168.197, 9993.563
1168.679, 10001.93
1169.162, 9975.614
1169.644, 9956.483
1170.126, 9964.384
1170.608, 9980.955
1171.090, 9991.408
1171.572, 9995.674
1172.054, 9993.815
1172.536, 9986.820
1173.019, 9988.978
1173.501, 10018.22
1173.983, 10048.34
1174.465, 10064.78
1174.947, 10074.48
1175.429, 10091.45
1175.911, 10115.60
1176.393, 10116.39
1176.875, 10090.17
1177.358, 10067.06
1177.840, 10079.02
1178.322, 10094.14
1178.804, 10088.59
1179.286, 10068.34
1179.768, 10049.39
1180.250, 10031.05
1180.732, 10038.89
1181.214, 10083.83
1181.697, 10122.01
1182.179, 10100.19
1182.661, 10064.13
1183.143, 10057.35
1183.625, 10078.91
1184.107, 10091.95
1184.589, 10096.21
1185.071, 10092.19
1185.554, 10078.05
1186.036, 10061.06
1186.518, 10035.69
1187.000, 10019.90
1187.482, 10044.39
1187.964, 10118.91
1188.446, 10157.41
1188.928, 10159.18
1189.411, 10129.82
1189.893, 10052.99
1190.375, 9973.996
1190.857, 9945.111
1191.339, 9952.963
1191.821, 9983.445
1192.303, 10054.43
1192.785, 10078.84
1193.267, 10047.86
1193.750, 10012.55
1194.232, 10007.86
1194.714, 10017.67
1195.196, 10023.07
1195.678, 10025.86
1196.160, 10030.36
1196.642, 10040.26
1197.124, 10045.95
1197.606, 10048.14
1198.089, 10042.04
1198.571, 10013.40
1199.053, 9980.651
1199.535, 9972.215
1200.017, 9983.458
1200.499, 9993.379
1200.981, 10003.38
1201.463, 9997.059
1201.945, 9965.443
1202.428, 9941.862
1202.910, 9977.840
1203.392, 10036.51
1203.874, 10067.43
1204.356, 10068.38
1204.838, 10050.82
1205.320, 9997.691
1205.802, 9970.484
1206.285, 9983.424
1206.767, 10017.56
1207.249, 10061.38
1207.731, 10102.51
1208.213, 10118.18
1208.695, 10105.57
1209.177, 10092.89
1209.659, 10077.70
1210.141, 10081.25
1210.624, 10120.18
1211.106, 10157.87
1211.588, 10117.55
1212.070, 10043.76
1212.552, 10013.17
1213.034, 10046.06
1213.516, 10072.78
1213.998, 10083.98
1214.480, 10092.00
1214.963, 10101.96
1215.445, 10110.76
1215.927, 10115.48
1216.409, 10114.28
1216.891, 10101.65
1217.373, 10070.32
1217.855, 10051.06
1218.337, 10046.12
1218.820, 10053.22
1219.302, 10076.10
1219.784, 10105.29
1220.266, 10125.20
1220.748, 10136.49
1221.230, 10138.93
1221.712, 10126.12
1222.194, 10118.52
1222.677, 10117.00
1223.159, 10120.30
1223.641, 10126.12
1224.123, 10137.13
1224.605, 10165.99
1225.087, 10202.98
1225.569, 10226.21
1226.051, 10224.45
1226.533, 10211.66
1227.016, 10180.70
1227.498, 10159.34
1227.980, 10184.59
1228.462, 10224.21
1228.944, 10217.75
1229.426, 10180.19
1229.908, 10154.40
1230.390, 10149.61
1230.872, 10163.33
1231.355, 10201.60
1231.837, 10238.25
1232.319, 10246.53
1232.801, 10239.95
1233.283, 10235.51
1233.765, 10233.54
1234.247, 10232.41
1234.729, 10231.16
1235.212, 10231.27
1235.694, 10231.92
1236.176, 10237.06
1236.658, 10258.73
1237.140, 10281.53
1237.622, 10279.95
1238.104, 10258.75
1238.586, 10252.20
1239.068, 10269.05
1239.551, 10280.97
1240.033, 10283.67
1240.515, 10283.33
1240.997, 10287.51
1241.479, 10292.12
1241.961, 10290.30
1242.443, 10283.78
1242.925, 10286.46
1243.407, 10301.95
1243.890, 10312.00
1244.372, 10311.64
1244.854, 10312.29
1245.336, 10323.57
1245.818, 10343.59
1246.300, 10380.95
1246.782, 10429.73
1247.264, 10434.00
1247.747, 10385.64
1248.229, 10344.59
1248.711, 10322.56
1249.193, 10321.07
1249.675, 10371.21
1250.157, 10419.92
1250.639, 10401.74
1251.121, 10327.78
1251.604, 10305.98
1252.086, 10340.43
1252.568, 10361.11
1253.050, 10346.87
1253.532, 10324.60
1254.014, 10315.57
1254.496, 10310.61
1254.978, 10300.11
1255.460, 10285.46
1255.943, 10278.55
1256.425, 10279.16
1256.907, 10290.39
1257.389, 10317.35
1257.871, 10339.60
1258.353, 10343.86
1258.835, 10334.56
1259.317, 10308.54
1259.799, 10272.12
1260.281, 10275.30
1260.764, 10312.24
1261.246, 10342.42
1261.728, 10351.34
1262.210, 10355.49
1262.692, 10370.92
1263.174, 10377.30
1263.656, 10358.20
1264.138, 10321.22
1264.621, 10298.61
1265.103, 10290.04
1265.585, 10294.39
1266.067, 10315.36
1266.549, 10339.30
1267.031, 10362.11
1267.513, 10386.10
1267.995, 10416.72
1268.478, 10447.39
1268.960, 10449.96
1269.442, 10433.88
1269.924, 10428.65
1270.406, 10450.56
1270.888, 10466.98
1271.370, 10464.53
1271.852, 10471.24
1272.334, 10516.56
1272.817, 10574.48
1273.299, 10565.59
1273.781, 10523.66
1274.263, 10530.56
1274.745, 10674.49
1275.227, 10722.15
1275.709, 10640.65
1276.191, 10543.29
1276.673, 10496.29
1277.156, 10482.67
1277.638, 10485.81
1278.120, 10498.57
1278.602, 10506.47
1279.084, 10503.96
1279.566, 10507.75
1280.048, 10520.11
1280.530, 10525.81
1281.013, 10505.90
1281.495, 10482.74
1281.977, 10485.51
1282.459, 10498.57
1282.941, 10492.28
1283.423, 10454.24
1283.905, 10453.65
1284.387, 10491.51
1284.870, 10530.59
1285.352, 10550.93
1285.834, 10558.88
1286.316, 10547.44
1286.798, 10532.76
1287.280, 10539.41
1287.762, 10568.95
1288.244, 10574.60
1288.726, 10558.41
1289.208, 10546.70
1289.691, 10568.89
1290.173, 10581.73
1290.655, 10551.64
1291.137, 10516.49
1291.619, 10510.25
1292.101, 10528.85
1292.583, 10561.40
1293.065, 10602.45
##END=



