##NAMES=Gartrellite
##RRUFFID=R060881
##IDEAL CHEMISTRY=Pb^2+^Cu^2+^Fe^3+^(As^5+^O_4_)_2_(OH)&#183;H_2_O
##LOCALITY=Ashburton Downs, Western Australia
##OWNER=RRUFF
##SOURCE=Bob Jenkins
##DESCRIPTION=Yellow grainy incrustations
##STATUS=The identification of this mineral is confirmed by single-crystal X-ray diffraction and chemical analysis.
##URL=rruff.info/R060881
##MEASURED CHEMISTRY=Pb_1.00_Cu_1.00_(Fe^3+^_0.77_Cu_0.18_Al_0.04_Zn_0.01_)_Σ=1_((As_0.97_S_0.03_)_Σ=1_O_4_)_2_(OH)_0.87_·H_2_O; trace amounts of P; OH estimated by charge balance, H_2_O by difference
176.0072, 2862.990
176.4893, 2880.997
176.9715, 2888.387
177.4536, 2883.701
177.9357, 2879.565
178.4178, 2882.333
178.8999, 2887.896
179.3820, 2891.812
179.8642, 2892.053
180.3463, 2892.495
180.8284, 2896.952
181.3105, 2905.167
181.7926, 2918.936
182.2747, 2947.977
182.7569, 2979.333
183.2390, 2999.137
183.7211, 3000.620
184.2032, 2997.597
184.6853, 3010.406
185.1674, 3042.907
185.6496, 3071.340
186.1317, 3081.004
186.6138, 3084.450
187.0959, 3091.268
187.5780, 3103.504
188.0601, 3121.119
188.5423, 3147.035
189.0244, 3184.437
189.5065, 3215.334
189.9886, 3235.377
190.4707, 3244.642
190.9528, 3236.812
191.4350, 3205.419
191.9171, 3173.133
192.3992, 3174.166
192.8813, 3216.083
193.3634, 3255.594
193.8455, 3280.708
194.3277, 3296.100
194.8098, 3301.725
195.2919, 3296.077
195.7740, 3287.859
196.2561, 3286.521
196.7382, 3291.463
197.2204, 3306.166
197.7025, 3346.569
198.1846, 3389.851
198.6667, 3418.467
199.1488, 3427.904
199.6309, 3425.967
200.1131, 3419.875
200.5952, 3408.549
201.0773, 3398.951
201.5594, 3392.553
202.0415, 3389.032
202.5236, 3389.932
203.0058, 3396.051
203.4879, 3401.664
203.9700, 3400.573
204.4521, 3392.397
204.9342, 3379.842
205.4163, 3358.711
205.8985, 3336.063
206.3806, 3315.233
206.8627, 3296.577
207.3448, 3283.117
207.8269, 3284.432
208.3090, 3303.437
208.7912, 3304.552
209.2733, 3259.567
209.7554, 3207.847
210.2375, 3177.568
210.7196, 3172.206
211.2017, 3173.596
211.6839, 3167.350
212.1660, 3153.536
212.6481, 3130.514
213.1302, 3086.445
213.6123, 3042.592
214.0944, 3015.414
214.5765, 3005.503
215.0587, 2999.934
215.5408, 2986.370
216.0229, 2965.270
216.5050, 2951.250
216.9871, 2953.419
217.4692, 2956.700
217.9514, 2950.224
218.4335, 2934.385
218.9156, 2916.825
219.3977, 2905.052
219.8798, 2897.934
220.3619, 2882.937
220.8441, 2848.475
221.3262, 2818.522
221.8083, 2810.554
222.2904, 2821.918
222.7725, 2836.685
223.2546, 2848.470
223.7368, 2856.253
224.2189, 2853.458
224.7010, 2832.905
225.1831, 2811.373
225.6652, 2799.609
226.1473, 2796.158
226.6295, 2796.630
227.1116, 2802.877
227.5937, 2811.502
228.0758, 2810.740
228.5579, 2795.717
229.0400, 2780.086
229.5222, 2773.511
230.0043, 2773.367
230.4864, 2773.707
230.9685, 2769.310
231.4506, 2764.253
231.9327, 2769.111
232.4149, 2788.239
232.8970, 2804.748
233.3791, 2804.272
233.8612, 2793.688
234.3433, 2784.473
234.8254, 2779.986
235.3076, 2778.812
235.7897, 2779.733
236.2718, 2783.206
236.7539, 2786.239
237.2360, 2790.806
237.7181, 2792.877
238.2003, 2783.663
238.6824, 2749.434
239.1645, 2715.009
239.6466, 2712.432
240.1287, 2742.370
240.6108, 2764.951
241.0930, 2754.152
241.5751, 2725.287
242.0572, 2708.732
242.5393, 2713.575
243.0214, 2720.649
243.5035, 2714.146
243.9857, 2695.876
244.4678, 2679.323
244.9499, 2670.539
245.4320, 2666.485
245.9141, 2660.534
246.3962, 2651.682
246.8784, 2643.368
247.3605, 2637.776
247.8426, 2634.257
248.3247, 2631.143
248.8068, 2628.293
249.2889, 2624.826
249.7710, 2618.702
250.2532, 2608.967
250.7353, 2600.552
251.2174, 2592.130
251.6995, 2586.576
252.1816, 2591.420
252.6637, 2610.377
253.1459, 2633.033
253.6280, 2643.335
254.1101, 2639.102
254.5922, 2638.486
255.0743, 2650.441
255.5564, 2665.166
256.0386, 2667.903
256.5207, 2655.875
257.0028, 2644.934
257.4849, 2654.792
257.9670, 2691.136
258.4492, 2714.367
258.9313, 2714.896
259.4134, 2708.026
259.8955, 2704.567
260.3776, 2705.551
260.8597, 2708.135
261.3419, 2710.616
261.8240, 2713.031
262.3061, 2710.978
262.7882, 2701.530
263.2703, 2690.914
263.7524, 2680.270
264.2346, 2670.844
264.7167, 2666.508
265.1988, 2671.377
265.6809, 2683.619
266.1630, 2682.544
266.6451, 2655.037
267.1272, 2630.884
267.6093, 2618.023
268.0915, 2613.669
268.5736, 2612.743
269.0557, 2612.753
269.5378, 2614.012
270.0199, 2617.581
270.5020, 2629.921
270.9842, 2636.876
271.4663, 2634.009
271.9484, 2626.995
272.4305, 2622.119
272.9126, 2621.543
273.3947, 2622.457
273.8769, 2619.155
274.3590, 2606.444
274.8411, 2599.016
275.3232, 2599.196
275.8053, 2602.424
276.2874, 2604.500
276.7696, 2605.209
277.2517, 2608.526
277.7338, 2620.581
278.2159, 2645.037
278.6980, 2664.017
279.1801, 2677.719
279.6623, 2685.778
280.1444, 2684.523
280.6265, 2676.411
281.1086, 2668.958
281.5907, 2669.031
282.0728, 2676.356
282.5550, 2681.143
283.0371, 2680.875
283.5192, 2680.936
284.0013, 2683.690
284.4834, 2688.066
284.9655, 2692.214
285.4477, 2695.554
285.9298, 2697.616
286.4119, 2696.430
286.8940, 2689.940
287.3761, 2684.770
287.8582, 2678.990
288.3404, 2677.309
288.8225, 2688.192
289.3046, 2718.424
289.7867, 2751.010
290.2688, 2760.106
290.7509, 2742.477
291.2331, 2728.845
291.7152, 2729.943
292.1973, 2739.218
292.6794, 2750.844
293.1615, 2764.380
293.6436, 2779.292
294.1258, 2797.242
294.6079, 2817.058
295.0900, 2831.102
295.5721, 2834.444
296.0542, 2836.234
296.5363, 2847.235
297.0185, 2866.944
297.5006, 2886.311
297.9827, 2902.060
298.4648, 2915.021
298.9469, 2924.153
299.4290, 2927.980
299.9112, 2937.003
300.3933, 2966.279
300.8754, 3012.993
301.3575, 3045.658
301.8396, 3049.132
302.3217, 3046.361
302.8039, 3057.156
303.2860, 3080.276
303.7681, 3099.970
304.2502, 3104.611
304.7323, 3097.759
305.2144, 3102.127
305.6966, 3128.927
306.1787, 3152.903
306.6608, 3166.917
307.1429, 3171.888
307.6250, 3167.494
308.1071, 3152.562
308.5893, 3133.723
309.0714, 3126.488
309.5535, 3143.163
310.0356, 3155.264
310.5177, 3159.180
310.9998, 3159.860
311.4820, 3161.475
311.9641, 3165.096
312.4462, 3169.728
312.9283, 3174.151
313.4104, 3178.106
313.8925, 3182.748
314.3747, 3186.098
314.8568, 3191.797
315.3389, 3201.890
315.8210, 3216.088
316.3031, 3233.881
316.7852, 3257.169
317.2674, 3284.775
317.7495, 3295.433
318.2316, 3269.930
318.7137, 3250.605
319.1958, 3250.580
319.6779, 3262.853
320.1601, 3277.292
320.6422, 3289.301
321.1243, 3300.558
321.6064, 3314.858
322.0885, 3333.379
322.5706, 3351.339
323.0528, 3365.419
323.5349, 3379.591
324.0170, 3396.775
324.4991, 3417.489
324.9812, 3440.987
325.4633, 3468.604
325.9455, 3499.620
326.4276, 3525.610
326.9097, 3542.132
327.3918, 3556.837
327.8739, 3575.416
328.3560, 3597.720
328.8382, 3623.953
329.3203, 3657.904
329.8024, 3694.583
330.2845, 3725.040
330.7666, 3747.998
331.2487, 3770.036
331.7309, 3796.071
332.2130, 3825.590
332.6951, 3855.132
333.1772, 3886.024
333.6593, 3915.631
334.1414, 3938.634
334.6236, 3958.160
335.1057, 3985.844
335.5878, 4027.910
336.0699, 4081.172
336.5520, 4137.734
337.0341, 4208.968
337.5162, 4266.125
337.9984, 4291.751
338.4805, 4306.590
338.9626, 4336.816
339.4447, 4388.496
339.9268, 4446.707
340.4089, 4489.918
340.8911, 4509.816
341.3732, 4541.866
341.8553, 4590.578
342.3374, 4645.328
342.8195, 4705.476
343.3016, 4767.180
343.7838, 4821.727
344.2659, 4862.435
344.7480, 4890.244
345.2301, 4914.690
345.7122, 4932.691
346.1943, 4950.903
346.6765, 4976.244
347.1586, 5000.534
347.6407, 5011.759
348.1228, 5004.111
348.6049, 4989.420
349.0870, 4988.880
349.5692, 5006.721
350.0513, 5018.764
350.5334, 5019.266
351.0155, 5012.311
351.4976, 5000.352
351.9797, 4983.647
352.4619, 4961.130
352.9440, 4928.430
353.4261, 4888.886
353.9082, 4856.470
354.3903, 4836.894
354.8724, 4813.908
355.3546, 4769.719
355.8367, 4711.390
356.3188, 4655.658
356.8009, 4612.833
357.2830, 4569.591
357.7651, 4514.134
358.2473, 4446.883
358.7294, 4373.508
359.2115, 4293.604
359.6936, 4212.290
360.1757, 4144.743
360.6578, 4096.565
361.1400, 4049.650
361.6221, 3999.795
362.1042, 3948.431
362.5863, 3896.609
363.0684, 3844.834
363.5505, 3794.677
364.0327, 3748.872
364.5148, 3709.159
364.9969, 3667.573
365.4790, 3620.843
365.9611, 3575.352
366.4432, 3533.286
366.9254, 3495.408
367.4075, 3462.458
367.8896, 3435.739
368.3717, 3413.906
368.8538, 3390.379
369.3359, 3368.352
369.8181, 3338.998
370.3002, 3293.306
370.7823, 3244.024
371.2644, 3203.631
371.7465, 3176.086
372.2286, 3156.579
372.7108, 3140.514
373.1929, 3128.182
373.6750, 3115.778
374.1571, 3106.039
374.6392, 3092.118
375.1213, 3065.716
375.6035, 3029.562
376.0856, 2998.827
376.5677, 2984.685
377.0498, 2979.148
377.5319, 2966.910
378.0140, 2946.630
378.4962, 2928.835
378.9783, 2920.420
379.4604, 2919.588
379.9425, 2918.682
380.4246, 2916.951
380.9067, 2916.043
381.3889, 2918.078
381.8710, 2921.378
382.3531, 2922.724
382.8352, 2921.087
383.3173, 2916.687
383.7994, 2909.007
384.2816, 2893.384
384.7637, 2887.331
385.2458, 2897.180
385.7279, 2911.355
386.2100, 2922.498
386.6921, 2930.738
387.1743, 2939.246
387.6564, 2949.646
388.1385, 2962.661
388.6206, 2985.596
389.1027, 3032.784
389.5848, 3071.032
390.0670, 3085.224
390.5491, 3091.973
391.0312, 3110.620
391.5133, 3147.591
391.9954, 3190.827
392.4775, 3224.625
392.9597, 3247.824
393.4418, 3272.879
393.9239, 3303.971
394.4060, 3334.508
394.8881, 3360.599
395.3702, 3382.421
395.8524, 3401.750
396.3345, 3421.976
396.8166, 3439.056
397.2987, 3443.301
397.7808, 3433.753
398.2629, 3427.200
398.7451, 3434.073
399.2272, 3450.293
399.7093, 3462.955
400.1914, 3470.806
400.6735, 3477.493
401.1556, 3489.308
401.6378, 3499.425
402.1199, 3495.660
402.6020, 3474.956
403.0841, 3445.851
403.5662, 3418.346
404.0483, 3391.391
404.5305, 3371.059
405.0126, 3359.054
405.4947, 3350.986
405.9768, 3347.192
406.4589, 3345.660
406.9410, 3342.906
407.4231, 3336.876
407.9052, 3328.249
408.3874, 3318.356
408.8695, 3304.532
409.3516, 3295.277
409.8337, 3296.611
410.3158, 3299.588
410.7979, 3295.875
411.2801, 3284.762
411.7622, 3275.168
412.2443, 3277.844
412.7264, 3289.458
413.2085, 3291.028
413.6906, 3276.040
414.1728, 3263.214
414.6549, 3270.100
415.1370, 3288.937
415.6191, 3303.146
416.1012, 3306.927
416.5833, 3308.154
417.0655, 3313.321
417.5476, 3320.874
418.0297, 3325.712
418.5118, 3325.908
418.9939, 3322.675
419.4760, 3317.040
419.9582, 3304.428
420.4403, 3301.756
420.9224, 3314.380
421.4045, 3333.375
421.8866, 3356.604
422.3687, 3381.086
422.8509, 3399.807
423.3330, 3406.928
423.8151, 3404.260
424.2972, 3403.821
424.7793, 3407.307
425.2614, 3410.650
425.7436, 3411.039
426.2257, 3412.133
426.7078, 3419.385
427.1899, 3433.678
427.6720, 3446.665
428.1541, 3446.865
428.6363, 3435.571
429.1184, 3431.107
429.6005, 3437.906
430.0826, 3446.876
430.5647, 3451.256
431.0468, 3452.804
431.5290, 3455.922
432.0111, 3464.044
432.4932, 3472.124
432.9753, 3473.842
433.4574, 3471.200
433.9395, 3473.076
434.4217, 3483.842
434.9038, 3498.494
435.3859, 3508.300
435.8680, 3512.605
436.3501, 3513.322
436.8322, 3503.428
437.3144, 3495.423
437.7965, 3501.832
438.2786, 3519.916
438.7607, 3535.603
439.2428, 3537.398
439.7249, 3528.929
440.2071, 3532.839
440.6892, 3561.938
441.1713, 3583.155
441.6534, 3583.470
442.1355, 3578.629
442.6176, 3582.841
443.0998, 3598.981
443.5819, 3619.434
444.0640, 3637.324
444.5461, 3653.182
445.0282, 3671.105
445.5103, 3691.982
445.9925, 3713.151
446.4746, 3730.824
446.9567, 3747.399
447.4388, 3768.822
447.9209, 3796.764
448.4030, 3829.068
448.8852, 3863.454
449.3673, 3901.140
449.8494, 3945.975
450.3315, 4000.268
450.8136, 4057.676
451.2957, 4108.712
451.7779, 4149.757
452.2600, 4197.221
452.7421, 4246.267
453.2242, 4305.848
453.7063, 4381.768
454.1884, 4472.225
454.6706, 4575.185
455.1527, 4690.921
455.6348, 4811.980
456.1169, 4914.754
456.5990, 4989.549
457.0811, 5073.025
457.5633, 5183.825
458.0454, 5297.234
458.5275, 5403.089
459.0096, 5498.206
459.4917, 5574.360
459.9738, 5624.783
460.4560, 5653.074
460.9381, 5667.837
461.4202, 5669.578
461.9023, 5650.409
462.3844, 5600.038
462.8665, 5528.271
463.3487, 5463.712
463.8308, 5416.567
464.3129, 5358.328
464.7950, 5280.362
465.2771, 5187.647
465.7592, 5083.784
466.2414, 4970.215
466.7235, 4850.864
467.2056, 4727.316
467.6877, 4599.608
468.1698, 4493.768
468.6519, 4426.065
469.1341, 4362.980
469.6162, 4299.143
470.0983, 4236.122
470.5804, 4173.380
471.0625, 4110.940
471.5446, 4055.496
472.0268, 4018.257
472.5089, 3997.488
472.9910, 3970.006
473.4731, 3931.853
473.9552, 3889.898
474.4373, 3842.916
474.9195, 3795.749
475.4016, 3762.743
475.8837, 3754.267
476.3658, 3751.999
476.8479, 3746.112
477.3300, 3737.276
477.8121, 3725.917
478.2943, 3711.988
478.7764, 3698.988
479.2585, 3692.009
479.7406, 3692.423
480.2227, 3694.088
480.7048, 3697.371
481.1870, 3701.384
481.6691, 3706.048
482.1512, 3711.128
482.6333, 3715.272
483.1154, 3717.380
483.5975, 3721.595
484.0797, 3736.492
484.5618, 3763.511
485.0439, 3791.211
485.5260, 3817.686
486.0081, 3844.646
486.4902, 3875.478
486.9724, 3908.711
487.4545, 3936.873
487.9366, 3946.300
488.4187, 3957.270
488.9008, 3994.380
489.3829, 4053.048
489.8651, 4111.391
490.3472, 4161.065
490.8293, 4203.422
491.3114, 4240.684
491.7935, 4271.394
492.2756, 4299.841
492.7578, 4320.142
493.2399, 4343.525
493.7220, 4381.721
494.2041, 4429.109
494.6862, 4469.736
495.1683, 4494.065
495.6505, 4506.481
496.1326, 4518.386
496.6147, 4530.880
497.0968, 4538.696
497.5789, 4539.916
498.0610, 4536.388
498.5432, 4530.270
499.0253, 4521.251
499.5074, 4506.183
499.9895, 4483.244
500.4716, 4453.791
500.9537, 4418.100
501.4359, 4376.838
501.9180, 4334.621
502.4001, 4295.171
502.8822, 4253.872
503.3643, 4200.519
503.8464, 4127.758
504.3286, 4056.721
504.8107, 3990.338
505.2928, 3924.212
505.7749, 3853.445
506.2570, 3780.354
506.7391, 3713.010
507.2213, 3657.460
507.7034, 3608.800
508.1855, 3551.833
508.6676, 3483.824
509.1497, 3417.531
509.6318, 3352.817
510.1140, 3293.058
510.5961, 3243.167
511.0782, 3202.210
511.5603, 3160.589
512.0424, 3114.771
512.5245, 3065.470
513.0067, 3008.651
513.4888, 2946.863
513.9709, 2896.926
514.4530, 2868.812
514.9351, 2851.945
515.4172, 2824.381
515.8994, 2776.006
516.3815, 2737.494
516.8636, 2719.549
517.3457, 2701.747
517.8278, 2668.510
518.3099, 2624.852
518.7921, 2585.400
519.2742, 2558.888
519.7563, 2541.536
520.2384, 2525.715
520.7205, 2511.729
521.2026, 2498.419
521.6848, 2490.271
522.1669, 2477.397
522.6490, 2446.316
523.1311, 2400.297
523.6132, 2364.940
524.0953, 2356.736
524.5775, 2355.320
525.0596, 2341.359
525.5417, 2318.909
526.0238, 2303.919
526.5059, 2303.567
526.9880, 2307.417
527.4702, 2297.198
527.9523, 2265.158
528.4344, 2242.214
528.9165, 2231.689
529.3986, 2225.640
529.8807, 2226.400
530.3629, 2228.052
530.8450, 2219.261
531.3271, 2193.559
531.8092, 2163.539
532.2913, 2147.023
532.7734, 2143.486
533.2556, 2142.860
533.7377, 2145.887
534.2198, 2146.691
534.7019, 2139.979
535.1840, 2126.480
535.6661, 2109.452
536.1483, 2076.322
536.6304, 2053.500
537.1125, 2063.274
537.5946, 2089.076
538.0767, 2103.291
538.5588, 2098.747
539.0410, 2087.692
539.5231, 2085.009
540.0052, 2091.524
540.4873, 2092.692
540.9694, 2083.694
541.4515, 2075.624
541.9337, 2075.156
542.4158, 2075.724
542.8979, 2067.788
543.3800, 2048.427
543.8621, 2030.439
544.3442, 2025.810
544.8264, 2029.666
545.3085, 2030.384
545.7906, 2026.744
546.2727, 2021.929
546.7548, 2018.458
547.2369, 2015.311
547.7191, 2007.965
548.2012, 1980.736
548.6833, 1971.048
549.1654, 2004.436
549.6475, 2041.454
550.1296, 2043.956
550.6118, 2014.966
551.0939, 1986.376
551.5760, 1981.745
552.0581, 1994.492
552.5402, 2005.274
553.0223, 2014.638
553.5045, 2019.266
553.9866, 2016.612
554.4687, 2010.050
554.9508, 2002.008
555.4329, 1992.640
555.9150, 1986.255
556.3972, 1986.121
556.8793, 1987.915
557.3614, 1986.832
557.8435, 1984.580
558.3256, 1987.873
558.8077, 1999.821
559.2899, 2013.086
559.7720, 2014.629
560.2541, 2000.212
560.7362, 1989.390
561.2183, 1983.166
561.7004, 1979.643
562.1826, 1977.482
562.6647, 1977.818
563.1468, 1984.069
563.6289, 1998.924
564.1110, 2012.078
564.5931, 2010.730
565.0753, 1999.360
565.5574, 1993.306
566.0395, 1995.291
566.5216, 1997.504
567.0037, 1994.333
567.4858, 1986.240
567.9680, 1976.328
568.4501, 1958.332
568.9322, 1947.020
569.4143, 1945.759
569.8964, 1951.473
570.3785, 1964.778
570.8607, 1983.192
571.3428, 1999.371
571.8249, 2008.239
572.3070, 2010.040
572.7891, 2001.908
573.2712, 1980.123
573.7534, 1970.622
574.2355, 1988.496
574.7176, 2014.546
575.1997, 2025.188
575.6818, 2020.747
576.1639, 2020.041
576.6461, 2031.339
577.1282, 2043.868
577.6103, 2050.778
578.0924, 2053.038
578.5745, 2053.161
579.0566, 2052.138
579.5388, 2050.491
580.0209, 2048.318
580.5030, 2044.873
580.9851, 2046.587
581.4672, 2060.013
581.9493, 2069.438
582.4314, 2062.464
582.9135, 2050.693
583.3956, 2053.090
583.8777, 2077.349
584.3599, 2096.009
584.8420, 2081.940
585.3241, 2054.870
585.8062, 2048.733
586.2883, 2065.400
586.7704, 2086.102
587.2526, 2099.814
587.7347, 2106.626
588.2168, 2106.266
588.6989, 2090.122
589.1810, 2081.491
589.6631, 2082.701
590.1453, 2089.385
590.6274, 2101.767
591.1095, 2117.427
591.5916, 2131.475
592.0737, 2141.938
592.5558, 2148.777
593.0380, 2150.511
593.5201, 2148.124
594.0022, 2146.724
594.4843, 2147.242
594.9664, 2149.977
595.4485, 2156.044
595.9307, 2165.348
596.4128, 2171.079
596.8949, 2170.822
597.3770, 2170.590
597.8591, 2170.884
598.3412, 2172.353
598.8234, 2175.509
599.3055, 2180.475
599.7876, 2187.486
600.2697, 2199.377
600.7518, 2212.207
601.2339, 2212.839
601.7161, 2200.162
602.1982, 2186.444
602.6803, 2172.252
603.1624, 2163.387
603.6445, 2171.751
604.1266, 2199.077
604.6088, 2216.610
605.0909, 2216.593
605.5730, 2210.995
606.0551, 2199.706
606.5372, 2189.097
607.0193, 2191.691
607.5015, 2210.418
607.9836, 2230.138
608.4657, 2230.804
608.9478, 2213.574
609.4299, 2200.286
609.9120, 2190.530
610.3942, 2185.822
610.8763, 2187.864
611.3584, 2195.033
611.8405, 2207.369
612.3226, 2228.690
612.8047, 2236.705
613.2869, 2208.621
613.7690, 2178.150
614.2511, 2177.370
614.7332, 2198.455
615.2153, 2215.115
615.6974, 2214.977
616.1796, 2206.024
616.6617, 2202.985
617.1438, 2207.960
617.6259, 2202.336
618.1080, 2176.724
618.5901, 2154.413
619.0723, 2151.928
619.5544, 2159.365
620.0365, 2161.059
620.5186, 2152.742
621.0007, 2145.153
621.4828, 2143.768
621.9650, 2145.302
622.4471, 2146.810
622.9292, 2147.663
623.4113, 2147.509
623.8934, 2146.220
624.3755, 2143.370
624.8577, 2137.375
625.3398, 2126.894
625.8219, 2118.131
626.3040, 2111.821
626.7861, 2107.145
627.2682, 2106.508
627.7504, 2106.682
628.2325, 2099.804
628.7146, 2079.843
629.1967, 2061.890
629.6788, 2056.963
630.1609, 2058.350
630.6431, 2055.735
631.1252, 2048.409
631.6073, 2042.496
632.0894, 2042.685
632.5715, 2046.304
633.0536, 2043.361
633.5358, 2028.632
634.0179, 2021.613
634.5000, 2033.952
634.9821, 2045.019
635.4642, 2041.310
635.9464, 2026.961
636.4285, 2013.830
636.9106, 2004.651
637.3927, 1998.426
637.8748, 1996.462
638.3569, 1996.332
638.8391, 1992.997
639.3212, 1986.261
639.8033, 1981.523
640.2854, 1983.494
640.7675, 1989.864
641.2496, 1990.771
641.7318, 1984.320
642.2139, 1977.034
642.6960, 1966.538
643.1781, 1958.496
643.6602, 1959.484
644.1423, 1966.043
644.6245, 1966.703
645.1066, 1955.495
645.5887, 1941.378
646.0708, 1928.054
646.5529, 1916.781
647.0350, 1910.624
647.5172, 1909.589
647.9993, 1909.218
648.4814, 1905.479
648.9635, 1900.322
649.4456, 1903.719
649.9277, 1922.193
650.4099, 1931.614
650.8920, 1922.283
651.3741, 1908.310
651.8562, 1896.433
652.3383, 1887.419
652.8204, 1883.321
653.3026, 1886.451
653.7847, 1892.205
654.2668, 1902.059
654.7489, 1910.962
655.2310, 1907.645
655.7131, 1892.547
656.1953, 1881.008
656.6774, 1886.222
657.1595, 1901.685
657.6416, 1901.664
658.1237, 1879.017
658.6058, 1865.728
659.0880, 1874.858
659.5701, 1885.407
660.0522, 1879.208
660.5343, 1861.838
661.0164, 1851.461
661.4985, 1852.875
661.9807, 1860.195
662.4628, 1879.118
662.9449, 1897.822
663.4270, 1897.732
663.9091, 1880.036
664.3912, 1863.230
664.8734, 1861.151
665.3555, 1866.619
665.8376, 1858.134
666.3197, 1832.231
666.8018, 1815.586
667.2839, 1813.366
667.7661, 1819.169
668.2482, 1832.962
668.7303, 1851.201
669.2124, 1862.624
669.6945, 1863.642
670.1766, 1862.008
670.6588, 1858.002
671.1409, 1853.934
671.6230, 1850.512
672.1051, 1849.018
672.5872, 1853.785
673.0693, 1868.611
673.5515, 1885.351
674.0336, 1886.040
674.5157, 1871.165
674.9978, 1864.791
675.4799, 1871.931
675.9620, 1882.051
676.4442, 1890.164
676.9263, 1895.339
677.4084, 1893.833
677.8905, 1881.350
678.3726, 1870.630
678.8547, 1863.020
679.3369, 1857.871
679.8190, 1854.091
680.3011, 1852.474
680.7832, 1856.752
681.2653, 1869.572
681.7474, 1880.328
682.2296, 1872.146
682.7117, 1850.814
683.1938, 1837.798
683.6759, 1835.186
684.1580, 1840.753
684.6401, 1855.524
685.1223, 1874.420
685.6044, 1884.902
686.0865, 1880.885
686.5686, 1882.297
687.0507, 1895.487
687.5328, 1906.840
688.0150, 1908.468
688.4971, 1905.326
688.9792, 1906.520
689.4613, 1914.806
689.9434, 1920.225
690.4255, 1909.389
690.9077, 1893.890
691.3898, 1895.940
691.8719, 1912.909
692.3540, 1923.813
692.8361, 1919.159
693.3182, 1908.734
693.8004, 1907.606
694.2825, 1916.974
694.7646, 1926.513
695.2467, 1940.143
695.7288, 1947.797
696.2109, 1940.213
696.6931, 1929.055
697.1752, 1927.263
697.6573, 1935.788
698.1394, 1942.714
698.6215, 1946.740
699.1036, 1944.538
699.5858, 1925.132
700.0679, 1899.782
700.5500, 1891.938
701.0321, 1906.676
701.5142, 1928.089
701.9963, 1941.261
702.4785, 1947.301
702.9606, 1952.866
703.4427, 1959.319
703.9248, 1956.788
704.4069, 1935.598
704.8890, 1914.755
705.3712, 1914.980
705.8533, 1934.699
706.3354, 1952.017
706.8175, 1965.456
707.2996, 1977.148
707.7817, 1990.375
708.2639, 2000.221
708.7460, 2000.920
709.2281, 1993.413
709.7102, 1982.574
710.1923, 1969.324
710.6744, 1958.682
711.1566, 1958.365
711.6387, 1967.188
712.1208, 1981.968
712.6029, 2002.777
713.0850, 2019.807
713.5671, 2026.127
714.0493, 2023.319
714.5314, 2015.791
715.0135, 1992.455
715.4956, 1985.737
715.9777, 2011.229
716.4598, 2037.073
716.9420, 2047.736
717.4241, 2049.127
717.9062, 2052.776
718.3883, 2062.146
718.8704, 2069.749
719.3525, 2067.058
719.8347, 2062.935
720.3168, 2070.454
720.7989, 2086.435
721.2810, 2096.855
721.7631, 2095.879
722.2452, 2093.008
722.7274, 2103.886
723.2095, 2128.313
723.6915, 2138.319
724.1736, 2128.443
724.6558, 2121.310
725.1379, 2126.101
725.6200, 2136.571
726.1021, 2145.377
726.5842, 2152.573
727.0663, 2158.193
727.5485, 2160.074
728.0306, 2162.999
728.5127, 2170.203
728.9948, 2178.574
729.4769, 2183.797
729.9590, 2186.109
730.4412, 2190.196
730.9233, 2200.071
731.4054, 2212.118
731.8875, 2220.165
732.3696, 2225.353
732.8517, 2231.555
733.3339, 2239.360
733.8160, 2253.496
734.2981, 2279.385
734.7802, 2312.596
735.2623, 2335.751
735.7444, 2344.601
736.2266, 2352.543
736.7087, 2360.629
737.1908, 2367.638
737.6729, 2367.203
738.1550, 2366.773
738.6371, 2381.282
739.1193, 2416.361
739.6014, 2455.159
740.0835, 2496.540
740.5656, 2533.976
741.0477, 2558.897
741.5298, 2575.269
742.0120, 2593.365
742.4941, 2616.910
742.9762, 2641.069
743.4583, 2660.875
743.9404, 2676.282
744.4225, 2683.196
744.9047, 2679.959
745.3868, 2690.045
745.8689, 2723.604
746.3510, 2768.910
746.8331, 2812.995
747.3152, 2855.557
747.7974, 2898.212
748.2795, 2951.494
748.7616, 2990.455
749.2437, 2998.559
749.7258, 3000.858
750.2079, 3018.348
750.6901, 3048.797
751.1722, 3076.874
751.6543, 3098.082
752.1364, 3112.328
752.6185, 3112.234
753.1006, 3108.506
753.5828, 3122.529
754.0649, 3151.989
754.5470, 3173.366
755.0291, 3172.556
755.5112, 3160.425
755.9933, 3159.241
756.4755, 3169.527
756.9576, 3163.320
757.4397, 3134.133
757.9218, 3106.912
758.4039, 3092.891
758.8860, 3088.709
759.3682, 3091.888
759.8503, 3108.820
760.3324, 3105.812
760.8145, 3061.338
761.2966, 3022.363
761.7787, 3015.348
762.2609, 3015.277
762.7430, 2989.509
763.2251, 2937.993
763.7072, 2893.796
764.1893, 2879.544
764.6714, 2875.900
765.1536, 2868.436
765.6357, 2855.725
766.1178, 2832.187
766.5999, 2798.423
767.0820, 2764.169
767.5641, 2735.803
768.0463, 2713.236
768.5284, 2695.052
769.0105, 2680.763
769.4926, 2678.847
769.9747, 2698.043
770.4568, 2708.230
770.9390, 2688.288
771.4211, 2650.138
771.9032, 2619.264
772.3853, 2593.530
772.8674, 2580.915
773.3495, 2598.372
773.8317, 2610.123
774.3138, 2594.283
774.7959, 2568.193
775.2780, 2554.635
775.7601, 2556.714
776.2422, 2559.740
776.7244, 2549.888
777.2065, 2541.413
777.6886, 2554.331
778.1707, 2578.645
778.6528, 2592.988
779.1349, 2593.534
779.6171, 2589.159
780.0992, 2586.468
780.5813, 2584.043
781.0634, 2574.923
781.5455, 2557.851
782.0276, 2556.781
782.5098, 2577.129
782.9919, 2605.958
783.4740, 2640.386
783.9561, 2674.728
784.4382, 2694.649
784.9203, 2691.982
785.4025, 2695.597
785.8846, 2711.498
786.3667, 2726.463
786.8488, 2728.707
787.3309, 2731.187
787.8130, 2752.330
788.2952, 2793.365
788.7773, 2833.083
789.2594, 2861.685
789.7415, 2884.444
790.2236, 2902.368
790.7057, 2918.406
791.1879, 2935.761
791.6700, 2955.891
792.1521, 2981.850
792.6342, 3016.922
793.1163, 3055.619
793.5984, 3085.150
794.0806, 3106.863
794.5627, 3136.434
795.0448, 3176.901
795.5269, 3213.823
796.0090, 3237.525
796.4911, 3255.907
796.9733, 3284.602
797.4554, 3325.229
797.9375, 3370.407
798.4196, 3427.305
798.9017, 3478.360
799.3839, 3516.674
799.8660, 3548.592
800.3481, 3578.818
800.8302, 3607.983
801.3123, 3640.303
801.7944, 3677.126
802.2766, 3717.066
802.7587, 3765.383
803.2408, 3812.238
803.7229, 3842.129
804.2050, 3860.035
804.6871, 3888.112
805.1693, 3939.744
805.6514, 3994.318
806.1335, 4021.657
806.6156, 4034.946
807.0977, 4076.133
807.5798, 4141.827
808.0620, 4177.674
808.5441, 4157.988
809.0262, 4122.563
809.5083, 4128.583
809.9904, 4174.758
810.4725, 4200.155
810.9547, 4199.258
811.4368, 4196.500
811.9189, 4198.266
812.4010, 4200.150
812.8831, 4197.824
813.3652, 4191.750
813.8474, 4186.154
814.3295, 4180.407
814.8116, 4175.962
815.2937, 4174.534
815.7758, 4172.927
816.2579, 4169.360
816.7401, 4164.173
817.2222, 4155.929
817.7043, 4143.088
818.1864, 4139.894
818.6685, 4166.051
819.1506, 4195.480
819.6328, 4201.479
820.1149, 4191.692
820.5970, 4176.897
821.0791, 4163.263
821.5612, 4167.000
822.0433, 4206.376
822.5255, 4264.736
823.0076, 4306.194
823.4897, 4333.261
823.9718, 4363.099
824.4539, 4398.779
824.9360, 4430.886
825.4182, 4452.755
825.9003, 4469.018
826.3824, 4489.420
826.8645, 4512.475
827.3466, 4548.156
827.8287, 4607.155
828.3109, 4657.840
828.7930, 4681.046
829.2751, 4695.504
829.7572, 4726.553
830.2393, 4774.027
830.7214, 4814.243
831.2036, 4841.109
831.6857, 4866.240
832.1678, 4893.814
832.6499, 4919.510
833.1320, 4939.522
833.6141, 4954.420
834.0963, 4965.519
834.5784, 4971.407
835.0605, 4980.732
835.5426, 5004.190
836.0247, 5030.427
836.5068, 5051.288
836.9890, 5063.012
837.4711, 5056.468
837.9532, 5030.066
838.4353, 4997.902
838.9174, 4971.857
839.3995, 4950.993
839.8817, 4933.442
840.3638, 4919.045
840.8459, 4906.546
841.3280, 4895.746
841.8101, 4885.088
842.2922, 4874.304
842.7744, 4860.749
843.2565, 4835.708
843.7386, 4795.955
844.2207, 4760.370
844.7028, 4731.472
845.1849, 4701.621
845.6671, 4662.048
846.1492, 4624.533
846.6313, 4608.012
847.1134, 4615.059
847.5955, 4616.908
848.0776, 4615.485
848.5598, 4606.146
849.0419, 4581.588
849.5240, 4554.184
850.0061, 4533.075
850.4882, 4517.190
850.9703, 4500.618
851.4525, 4480.352
851.9346, 4464.104
852.4167, 4458.087
852.8988, 4455.625
853.3809, 4451.386
853.8630, 4446.231
854.3452, 4442.601
854.8273, 4441.104
855.3094, 4440.488
855.7915, 4439.160
856.2736, 4438.813
856.7557, 4443.327
857.2379, 4450.761
857.7200, 4455.630
858.2021, 4457.155
858.6842, 4456.416
859.1663, 4453.514
859.6484, 4452.346
860.1306, 4461.802
860.6127, 4481.266
861.0948, 4499.372
861.5769, 4517.326
862.0590, 4519.496
862.5411, 4496.243
863.0233, 4466.444
863.5054, 4451.624
863.9875, 4450.922
864.4696, 4449.033
864.9517, 4445.901
865.4338, 4442.630
865.9159, 4453.797
866.3980, 4447.492
866.8801, 4389.559
867.3622, 4304.444
867.8444, 4242.504
868.3265, 4214.206
868.8086, 4175.380
869.2907, 4121.851
869.7728, 4055.455
870.2549, 3964.798
870.7371, 3869.792
871.2192, 3793.885
871.7013, 3735.859
872.1834, 3675.052
872.6655, 3601.522
873.1476, 3525.414
873.6298, 3455.190
874.1119, 3383.890
874.5940, 3300.604
875.0761, 3210.351
875.5582, 3125.395
876.0403, 3050.473
876.5225, 2991.280
877.0046, 2965.773
877.4867, 2951.078
877.9688, 2906.191
878.4509, 2839.995
878.9330, 2777.597
879.4152, 2724.839
879.8973, 2679.804
880.3794, 2640.784
880.8615, 2609.320
881.3436, 2595.538
881.8257, 2595.979
882.3079, 2567.052
882.7900, 2504.116
883.2721, 2447.572
883.7542, 2413.410
884.2363, 2392.935
884.7184, 2377.821
885.2006, 2366.799
885.6827, 2340.455
886.1648, 2293.335
886.6469, 2247.565
887.1290, 2201.315
887.6111, 2166.869
888.0933, 2158.093
888.5754, 2164.400
889.0575, 2160.145
889.5396, 2141.411
890.0217, 2124.023
890.5038, 2109.018
890.9860, 2094.002
891.4681, 2080.023
891.9502, 2064.554
892.4323, 2041.833
892.9144, 2014.412
893.3965, 1996.734
893.8787, 2000.291
894.3608, 1999.052
894.8429, 1981.448
895.3250, 1960.492
895.8071, 1945.409
896.2892, 1933.369
896.7714, 1916.170
897.2535, 1892.527
897.7356, 1876.427
898.2177, 1884.260
898.6998, 1893.517
899.1819, 1884.007
899.6641, 1866.337
900.1462, 1856.077
900.6283, 1852.762
901.1104, 1846.224
901.5925, 1831.390
902.0746, 1814.298
902.5568, 1799.442
903.0389, 1787.620
903.5210, 1780.988
904.0031, 1778.697
904.4852, 1779.192
904.9673, 1781.424
905.4495, 1780.537
905.9316, 1772.078
906.4137, 1759.193
906.8958, 1748.378
907.3779, 1739.176
907.8600, 1726.496
908.3422, 1710.097
908.8243, 1701.078
909.3064, 1705.057
909.7885, 1712.975
910.2706, 1713.344
910.7527, 1706.514
911.2349, 1693.604
911.7170, 1672.128
912.1991, 1662.950
912.6812, 1673.761
913.1633, 1684.305
913.6454, 1681.709
914.1276, 1669.155
914.6097, 1652.475
915.0918, 1627.591
915.5739, 1618.554
916.0560, 1633.988
916.5381, 1648.329
917.0203, 1656.516
917.5024, 1658.466
917.9845, 1651.310
918.4666, 1637.092
918.9487, 1628.169
919.4308, 1630.229
919.9130, 1628.260
920.3951, 1610.508
920.8772, 1602.099
921.3593, 1628.154
921.8414, 1660.471
922.3235, 1659.857
922.8057, 1625.316
923.2878, 1599.401
923.7699, 1589.019
924.2520, 1589.387
924.7341, 1611.291
925.2162, 1632.053
925.6984, 1632.860
926.1805, 1620.372
926.6626, 1609.964
927.1447, 1605.423
927.6268, 1596.853
928.1089, 1569.520
928.5911, 1548.391
929.0732, 1554.409
929.5553, 1572.176
930.0374, 1587.071
930.5195, 1595.702
931.0016, 1595.228
931.4838, 1582.366
931.9659, 1571.986
932.4480, 1580.803
932.9301, 1593.232
933.4122, 1589.668
933.8943, 1577.640
934.3765, 1575.066
934.8586, 1583.414
935.3407, 1587.796
935.8228, 1577.771
936.3049, 1562.751
936.7870, 1549.789
937.2692, 1541.804
937.7513, 1550.348
938.2334, 1569.272
938.7155, 1573.186
939.1976, 1555.010
939.6797, 1536.367
940.1619, 1537.806
940.6440, 1550.912
941.1261, 1561.835
941.6082, 1569.814
942.0903, 1571.578
942.5724, 1567.113
943.0546, 1558.505
943.5367, 1546.576
944.0188, 1535.916
944.5009, 1533.261
944.9830, 1536.688
945.4651, 1538.770
945.9473, 1539.474
946.4294, 1538.243
946.9115, 1534.925
947.3936, 1531.682
947.8757, 1530.068
948.3578, 1528.308
948.8400, 1521.694
949.3221, 1510.458
949.8042, 1507.555
950.2863, 1513.811
950.7684, 1521.106
951.2505, 1528.293
951.7327, 1530.968
952.2148, 1524.447
952.6969, 1512.601
953.1790, 1507.378
953.6611, 1510.217
954.1432, 1510.009
954.6254, 1504.263
955.1075, 1505.005
955.5896, 1519.575
956.0717, 1534.665
956.5538, 1535.770
957.0359, 1526.286
957.5181, 1525.469
958.0002, 1539.344
958.4823, 1543.041
958.9644, 1529.344
959.4465, 1518.239
959.9286, 1518.338
960.4108, 1524.458
960.8929, 1530.835
961.3750, 1537.469
961.8571, 1544.695
962.3392, 1557.186
962.8214, 1560.695
963.3035, 1545.669
963.7856, 1533.227
964.2677, 1535.706
964.7498, 1545.483
965.2319, 1552.668
965.7141, 1557.606
966.1962, 1555.295
966.6783, 1534.155
967.1604, 1522.839
967.6425, 1532.682
968.1246, 1544.628
968.6068, 1549.783
969.0889, 1549.337
969.5710, 1543.125
970.0531, 1528.523
970.5352, 1525.796
971.0173, 1550.199
971.4995, 1567.474
971.9816, 1562.521
972.4637, 1555.327
972.9458, 1560.199
973.4279, 1573.488
973.9100, 1587.244
974.3922, 1602.620
974.8743, 1609.681
975.3564, 1598.611
975.8385, 1589.789
976.3206, 1594.872
976.8027, 1600.730
977.2849, 1592.998
977.7670, 1576.946
978.2491, 1569.306
978.7312, 1574.432
979.2133, 1581.392
979.6954, 1594.184
980.1776, 1600.241
980.6597, 1586.155
981.1418, 1568.853
981.6239, 1568.267
982.1060, 1579.797
982.5881, 1581.525
983.0703, 1563.468
983.5524, 1551.208
984.0345, 1561.710
984.5166, 1569.558
984.9987, 1557.983
985.4808, 1538.576
985.9630, 1522.820
986.4451, 1512.082
986.9272, 1505.271
987.4093, 1503.406
987.8914, 1501.876
988.3735, 1500.813
988.8557, 1497.541
989.3378, 1489.516
989.8199, 1478.846
990.3020, 1466.170
990.7841, 1453.063
991.2662, 1445.940
991.7484, 1450.541
992.2305, 1453.088
992.7126, 1444.976
993.1947, 1435.796
993.6768, 1431.217
994.1589, 1430.281
994.6411, 1430.547
995.1232, 1432.224
995.6053, 1439.041
996.0874, 1457.402
996.5695, 1470.902
997.0516, 1469.682
997.5338, 1463.373
998.0159, 1455.505
998.4980, 1449.106
998.9801, 1448.863
999.4622, 1454.351
999.9443, 1458.681
1000.426, 1459.505
1000.909, 1458.146
1001.391, 1448.685
1001.873, 1443.759
1002.355, 1459.369
1002.837, 1482.836
1003.319, 1495.833
1003.801, 1495.453
1004.283, 1486.913
1004.766, 1463.801
1005.248, 1447.789
1005.730, 1457.893
1006.212, 1470.489
1006.694, 1467.994
1007.176, 1455.120
1007.658, 1435.767
1008.140, 1413.548
1008.622, 1405.478
1009.104, 1429.522
1009.587, 1449.721
1010.069, 1447.424
1010.551, 1437.578
1011.033, 1426.641
1011.515, 1418.668
1011.997, 1419.764
1012.479, 1429.696
1012.961, 1438.989
1013.444, 1446.109
1013.926, 1448.677
1014.408, 1443.328
1014.890, 1435.411
1015.372, 1425.105
1015.854, 1416.834
1016.336, 1419.250
1016.818, 1431.597
1017.300, 1438.312
1017.783, 1430.245
1018.265, 1422.177
1018.747, 1421.314
1019.229, 1420.648
1019.711, 1414.882
1020.193, 1406.571
1020.675, 1399.193
1021.157, 1393.316
1021.640, 1388.701
1022.122, 1384.957
1022.604, 1383.114
1023.086, 1384.815
1023.568, 1387.104
1024.050, 1390.164
1024.532, 1391.515
1025.014, 1386.241
1025.496, 1375.292
1025.979, 1368.483
1026.461, 1369.405
1026.943, 1372.326
1027.425, 1378.984
1027.907, 1383.708
1028.389, 1379.298
1028.871, 1374.006
1029.353, 1380.722
1029.836, 1397.587
1030.318, 1406.146
1030.800, 1393.712
1031.282, 1390.840
1031.764, 1418.049
1032.246, 1437.311
1032.728, 1423.515
1033.210, 1398.898
1033.693, 1385.421
1034.175, 1383.400
1034.657, 1387.634
1035.139, 1403.218
1035.621, 1414.026
1036.103, 1418.258
1036.585, 1418.309
1037.067, 1411.506
1037.549, 1403.698
1038.031, 1399.772
1038.514, 1399.561
1038.996, 1402.629
1039.478, 1415.079
1039.960, 1416.601
1040.442, 1396.523
1040.924, 1381.130
1041.406, 1377.364
1041.888, 1381.475
1042.371, 1395.151
1042.853, 1413.179
1043.335, 1417.942
1043.817, 1404.758
1044.299, 1393.971
1044.781, 1384.505
1045.263, 1379.642
1045.745, 1380.292
1046.228, 1386.240
1046.710, 1401.849
1047.192, 1418.916
1047.674, 1415.182
1048.156, 1385.540
1048.638, 1372.620
1049.120, 1383.578
1049.602, 1386.797
1050.084, 1370.489
1050.567, 1361.114
1051.049, 1379.833
1051.531, 1409.157
1052.013, 1415.674
1052.495, 1399.310
1052.977, 1378.860
1053.459, 1351.651
1053.941, 1340.833
1054.423, 1352.329
1054.906, 1368.820
1055.388, 1381.828
1055.870, 1390.206
1056.352, 1391.482
1056.834, 1386.927
1057.316, 1384.475
1057.798, 1384.099
1058.280, 1384.741
1058.763, 1386.270
1059.245, 1387.391
1059.727, 1387.590
1060.209, 1386.035
1060.691, 1381.141
1061.173, 1374.698
1061.655, 1372.965
1062.137, 1374.486
1062.620, 1368.643
1063.102, 1356.831
1063.584, 1357.834
1064.066, 1377.349
1064.548, 1398.053
1065.030, 1405.039
1065.512, 1403.689
1065.994, 1402.251
1066.476, 1400.033
1066.958, 1394.720
1067.441, 1387.109
1067.923, 1379.699
1068.405, 1373.322
1068.887, 1368.454
1069.369, 1365.434
1069.851, 1363.965
1070.333, 1365.455
1070.815, 1366.951
1071.298, 1364.449
1071.780, 1358.749
1072.262, 1349.814
1072.744, 1339.498
1073.226, 1333.776
1073.708, 1335.482
1074.190, 1340.871
1074.672, 1349.005
1075.155, 1357.804
1075.637, 1367.891
1076.119, 1375.981
1076.601, 1376.742
1077.083, 1372.168
1077.565, 1368.821
1078.047, 1368.621
1078.529, 1367.566
1079.011, 1361.755
1079.494, 1357.538
1079.976, 1361.388
1080.458, 1364.682
1080.940, 1357.942
1081.422, 1346.634
1081.904, 1340.718
1082.386, 1341.501
1082.868, 1345.901
1083.350, 1356.311
1083.833, 1365.947
1084.315, 1374.890
1084.797, 1381.404
1085.279, 1385.575
1085.761, 1386.288
1086.243, 1381.350
1086.725, 1371.380
1087.207, 1361.365
1087.689, 1348.762
1088.172, 1341.326
1088.654, 1339.962
1089.136, 1342.650
1089.618, 1352.171
1090.100, 1359.073
1090.582, 1352.437
1091.064, 1339.037
1091.546, 1340.117
1092.029, 1358.238
1092.511, 1372.001
1092.993, 1382.690
1093.475, 1378.518
1093.957, 1354.162
1094.439, 1332.431
1094.921, 1328.258
1095.403, 1332.576
1095.885, 1330.190
1096.368, 1323.241
1096.850, 1324.681
1097.332, 1333.507
1097.814, 1342.332
1098.296, 1349.582
1098.778, 1349.092
1099.260, 1338.427
1099.742, 1326.684
1100.224, 1323.034
1100.707, 1324.174
1101.189, 1326.177
1101.671, 1327.495
1102.153, 1321.791
1102.635, 1312.528
1103.117, 1311.308
1103.599, 1320.168
1104.081, 1332.785
1104.564, 1347.917
1105.046, 1355.800
1105.528, 1341.245
1106.010, 1320.941
1106.492, 1311.270
1106.974, 1307.792
1107.456, 1301.484
1107.938, 1293.511
1108.421, 1293.108
1108.903, 1304.523
1109.385, 1313.100
1109.867, 1306.787
1110.349, 1303.409
1110.831, 1316.912
1111.313, 1331.451
1111.795, 1333.548
1112.277, 1327.225
1112.760, 1318.727
1113.242, 1308.304
1113.724, 1308.857
1114.206, 1337.977
1114.688, 1352.173
1115.170, 1336.595
1115.652, 1322.231
1116.134, 1324.617
1116.616, 1329.763
1117.099, 1319.806
1117.581, 1300.744
1118.063, 1301.781
1118.545, 1331.343
1119.027, 1342.999
1119.509, 1333.322
1119.991, 1319.195
1120.473, 1303.033
1120.956, 1293.488
1121.438, 1297.206
1121.920, 1308.413
1122.402, 1319.626
1122.884, 1328.942
1123.366, 1320.063
1123.848, 1297.502
1124.330, 1293.383
1124.813, 1309.632
1125.295, 1325.909
1125.777, 1333.692
1126.259, 1336.314
1126.741, 1336.351
1127.223, 1333.937
1127.705, 1329.141
1128.187, 1322.086
1128.669, 1309.846
1129.151, 1296.626
1129.634, 1292.200
1130.116, 1297.004
1130.598, 1302.755
1131.080, 1306.309
1131.562, 1307.475
1132.044, 1304.677
1132.526, 1301.173
1133.008, 1297.500
1133.491, 1295.617
1133.973, 1300.244
1134.455, 1307.433
1134.937, 1306.643
1135.419, 1295.409
1135.901, 1288.265
1136.383, 1289.931
1136.865, 1291.987
1137.348, 1292.112
1137.830, 1293.854
1138.312, 1301.844
1138.794, 1308.557
1139.276, 1302.517
1139.758, 1288.205
1140.240, 1290.222
1140.722, 1313.189
1141.204, 1330.104
1141.687, 1341.079
1142.169, 1342.419
1142.651, 1332.238
1143.133, 1319.277
1143.615, 1308.840
1144.097, 1301.386
1144.579, 1297.552
1145.061, 1297.359
1145.543, 1302.105
1146.026, 1310.437
1146.508, 1318.185
1146.990, 1324.210
1147.472, 1324.632
1147.954, 1319.136
1148.436, 1318.661
1148.918, 1335.524
1149.400, 1350.362
1149.883, 1337.993
1150.365, 1317.748
1150.847, 1307.212
1151.329, 1306.334
1151.811, 1318.199
1152.293, 1337.367
1152.775, 1345.603
1153.257, 1335.094
1153.740, 1329.573
1154.222, 1345.622
1154.704, 1355.889
1155.186, 1343.447
1155.668, 1329.993
1156.150, 1331.562
1156.632, 1340.528
1157.114, 1344.254
1157.596, 1343.521
1158.078, 1349.643
1158.561, 1369.905
1159.043, 1373.036
1159.525, 1352.761
1160.007, 1332.819
1160.489, 1318.310
1160.971, 1315.469
1161.453, 1331.033
1161.935, 1353.893
1162.418, 1364.555
1162.900, 1364.393
1163.382, 1358.255
1163.864, 1347.787
1164.346, 1341.912
1164.828, 1340.427
1165.310, 1335.858
1165.792, 1325.657
1166.275, 1313.350
1166.757, 1298.998
1167.239, 1289.966
1167.721, 1301.436
1168.203, 1315.280
1168.685, 1307.654
1169.167, 1291.078
1169.649, 1286.700
1170.131, 1292.972
1170.614, 1294.419
1171.096, 1286.490
1171.578, 1278.493
1172.060, 1267.184
1172.542, 1264.523
1173.024, 1283.143
1173.506, 1300.578
1173.988, 1302.780
1174.470, 1298.432
1174.953, 1297.123
1175.435, 1298.652
1175.917, 1302.620
1176.399, 1310.769
1176.881, 1311.534
1177.363, 1303.614
1177.845, 1296.882
1178.327, 1293.873
1178.810, 1288.612
1179.292, 1276.730
1179.774, 1268.200
1180.256, 1280.912
1180.738, 1302.568
1181.220, 1303.332
1181.702, 1290.402
1182.184, 1277.958
1182.667, 1268.649
1183.149, 1264.177
1183.631, 1264.937
1184.113, 1271.276
1184.595, 1286.214
1185.077, 1295.753
1185.559, 1283.254
1186.041, 1271.793
1186.523, 1281.505
1187.005, 1294.589
1187.488, 1293.688
1187.970, 1282.903
1188.452, 1271.021
1188.934, 1258.396
1189.416, 1255.744
1189.898, 1266.692
1190.380, 1281.199
1190.862, 1306.099
1191.345, 1313.531
1191.827, 1287.767
1192.309, 1264.252
1192.791, 1273.626
1193.273, 1297.029
1193.755, 1291.005
1194.237, 1276.896
1194.719, 1290.613
1195.202, 1297.667
1195.684, 1298.425
1196.166, 1274.011
1196.648, 1282.101
1197.130, 1277.164
1197.612, 1271.694
1198.094, 1284.359
1198.576, 1263.606
1199.058, 1258.709
1199.541, 1270.009
1200.023, 1290.774
1200.505, 1310.024
1200.987, 1316.549
1201.469, 1310.400
1201.951, 1290.746
1202.433, 1255.419
1202.915, 1236.340
1203.397, 1250.560
1203.880, 1258.815
1204.362, 1252.985
1204.844, 1253.609
1205.326, 1273.411
1205.808, 1288.982
1206.290, 1278.140
1206.772, 1253.658
1207.254, 1242.988
1207.737, 1244.826
1208.219, 1250.936
1208.701, 1260.066
1209.183, 1264.354
1209.665, 1263.292
1210.147, 1259.048
1210.629, 1253.019
1211.111, 1250.761
1211.594, 1257.590
1212.076, 1264.932
1212.558, 1266.421
1213.040, 1263.397
1213.522, 1251.377
1214.004, 1240.058
1214.486, 1245.113
1214.968, 1258.693
1215.450, 1256.597
1215.932, 1234.074
1216.415, 1230.577
1216.897, 1272.661
1217.379, 1289.596
1217.861, 1265.972
1218.343, 1243.320
1218.825, 1233.451
1219.307, 1232.261
1219.789, 1237.219
1220.271, 1247.016
1220.754, 1260.884
1221.236, 1276.893
1221.718, 1286.956
1222.200, 1291.360
1222.682, 1289.911
1223.164, 1283.654
1223.646, 1275.965
1224.128, 1267.826
1224.611, 1256.947
1225.093, 1238.912
1225.575, 1232.076
1226.057, 1265.125
1226.539, 1294.433
1227.021, 1285.055
1227.503, 1264.086
1227.985, 1251.166
1228.468, 1247.269
1228.950, 1254.837
1229.432, 1272.242
1229.914, 1277.560
1230.396, 1265.089
1230.878, 1258.150
1231.360, 1258.358
1231.842, 1258.614
1232.324, 1257.708
1232.807, 1251.674
1233.289, 1237.519
1233.771, 1225.155
1234.253, 1228.689
1234.735, 1239.255
1235.217, 1241.233
1235.699, 1235.729
1236.181, 1219.092
1236.663, 1199.202
1237.146, 1194.701
1237.628, 1203.635
1238.110, 1203.883
1238.592, 1185.986
1239.074, 1184.160
1239.556, 1238.823
1240.038, 1270.782
1240.520, 1229.405
1241.003, 1194.449
1241.485, 1210.384
1241.967, 1241.466
1242.449, 1256.199
1242.931, 1258.888
1243.413, 1260.926
1243.895, 1262.144
1244.377, 1252.278
1244.859, 1233.113
1245.342, 1233.717
1245.824, 1254.375
1246.306, 1269.254
1246.788, 1270.031
1247.270, 1267.378
1247.752, 1268.349
1248.234, 1268.762
1248.716, 1264.571
1249.198, 1258.445
1249.681, 1251.339
1250.163, 1244.616
1250.645, 1238.101
1251.127, 1233.595
1251.609, 1235.294
1252.091, 1242.972
1252.573, 1247.689
1253.055, 1247.969
1253.538, 1249.238
1254.020, 1252.201
1254.502, 1253.957
1254.984, 1254.297
1255.466, 1248.550
1255.948, 1233.374
1256.430, 1223.027
1256.912, 1235.758
1257.395, 1257.083
1257.877, 1260.081
1258.359, 1254.567
1258.841, 1259.331
1259.323, 1267.656
1259.805, 1262.892
1260.287, 1248.984
1260.769, 1244.566
1261.251, 1254.213
1261.734, 1259.373
##END=



