##NAMES=Gaspeite
##RRUFFID=R060366
##IDEAL CHEMISTRY=Ni^2+^CO_3_
##LOCALITY=Pilbara Region, Western Australia, Australia
##OWNER=RRUFF
##SOURCE=Herb Obodda
##DESCRIPTION=Green fine-grained massive coating
##STATUS=The identification of this mineral has been confirmed by X-ray diffraction and chemical analysis
##URL=rruff.info/R060366
##MEASURED CHEMISTRY=(Ni_0.67_Mg_0.30_Ca_0.02_Co_0.01_)_Î£=1_CO_3_
91.53320, 274.6400
92.01532, 283.6328
92.49744, 286.1877
92.97955, 283.0680
93.46167, 274.6360
93.94379, 265.9478
94.42590, 259.7340
94.90802, 254.3890
95.39014, 247.7202
95.87225, 239.8799
96.35437, 230.6821
96.83649, 218.9664
97.31860, 206.6487
97.80072, 195.7663
98.28284, 187.3007
98.76495, 180.5926
99.24707, 173.5214
99.72919, 164.8792
100.2113, 157.2392
100.6934, 151.5639
101.1755, 147.3018
101.6577, 143.4162
102.1398, 138.9453
102.6219, 133.7572
103.1040, 128.7146
103.5861, 123.6132
104.0682, 118.7162
104.5504, 114.0942
105.0325, 109.7878
105.5146, 105.8170
105.9967, 102.2612
106.4788, 99.20600
106.9609, 96.36014
107.4431, 93.70361
107.9252, 91.22417
108.4073, 88.91715
108.8894, 86.77358
109.3715, 84.81091
109.8536, 83.11075
110.3358, 81.70927
110.8179, 80.29002
111.3000, 78.51134
111.7821, 76.44041
112.2642, 74.75567
112.7463, 73.86814
113.2285, 73.43917
113.7106, 73.16429
114.1927, 73.03247
114.6748, 72.95090
115.1569, 72.76785
115.6390, 72.39708
116.1212, 72.14835
116.6033, 72.38429
117.0854, 72.67191
117.5675, 72.51204
118.0496, 71.59824
118.5317, 70.14036
119.0139, 69.15763
119.4960, 69.08615
119.9781, 69.08492
120.4602, 69.04936
120.9423, 68.97183
121.4244, 68.85610
121.9066, 68.69036
122.3887, 68.45802
122.8708, 68.42880
123.3529, 68.93489
123.8350, 69.30805
124.3171, 69.18185
124.7993, 68.56907
125.2814, 67.77207
125.7635, 67.08123
126.2456, 66.52846
126.7277, 65.91347
127.2098, 65.26360
127.6920, 64.53699
128.1741, 63.62256
128.6562, 62.46404
129.1383, 61.30474
129.6204, 60.50047
130.1025, 60.00452
130.5847, 59.52796
131.0668, 59.03889
131.5489, 58.49601
132.0310, 57.69126
132.5131, 56.22428
132.9952, 54.89180
133.4774, 54.45030
133.9595, 54.90228
134.4416, 55.49887
134.9237, 55.54056
135.4058, 54.93730
135.8879, 54.40859
136.3701, 54.07540
136.8522, 53.86928
137.3343, 53.79075
137.8164, 53.83486
138.2985, 53.94791
138.7806, 54.09444
139.2628, 54.55247
139.7449, 54.47469
140.2270, 53.58707
140.7091, 52.32194
141.1912, 50.98154
141.6733, 49.70967
142.1555, 48.55012
142.6376, 47.67982
143.1197, 47.23150
143.6018, 46.95222
144.0839, 46.90018
144.5660, 46.99409
145.0482, 47.15320
145.5303, 47.36020
146.0124, 47.56637
146.4945, 47.40349
146.9766, 46.63910
147.4587, 45.82671
147.9409, 45.17753
148.4230, 44.67781
148.9051, 44.21376
149.3872, 43.63869
149.8693, 43.05030
150.3514, 42.82606
150.8336, 43.33257
151.3157, 43.98515
151.7978, 44.28141
152.2799, 44.19242
152.7620, 43.88710
153.2441, 43.39289
153.7263, 42.77198
154.2084, 42.09270
154.6905, 41.17523
155.1726, 40.24675
155.6547, 39.89651
156.1368, 40.47683
156.6190, 41.01054
157.1011, 40.85536
157.5832, 40.27567
158.0653, 39.78947
158.5474, 39.85206
159.0295, 40.39516
159.5117, 40.48782
159.9938, 39.52129
160.4759, 38.68312
160.9580, 38.50627
161.4401, 38.83953
161.9222, 39.22470
162.4044, 39.21818
162.8865, 38.71404
163.3686, 38.44262
163.8507, 38.66336
164.3328, 38.87528
164.8149, 38.80994
165.2971, 38.48577
165.7792, 38.13200
166.2613, 38.03197
166.7434, 38.34420
167.2255, 38.44792
167.7076, 38.28794
168.1898, 37.99395
168.6719, 37.59949
169.1540, 37.12770
169.6361, 36.67369
170.1182, 36.36934
170.6003, 36.25294
171.0825, 36.22329
171.5646, 36.37508
172.0467, 36.57475
172.5288, 36.67380
173.0109, 36.62922
173.4930, 36.48516
173.9752, 36.24649
174.4573, 35.86465
174.9394, 35.65789
175.4215, 35.91160
175.9036, 36.40557
176.3857, 36.59751
176.8679, 36.20485
177.3500, 35.65813
177.8321, 35.56823
178.3142, 35.96609
178.7963, 36.37547
179.2784, 36.53614
179.7606, 36.46502
180.2427, 36.27233
180.7248, 35.86387
181.2069, 35.44916
181.6890, 35.22804
182.1711, 35.21978
182.6533, 35.26836
183.1354, 35.23714
183.6175, 35.12131
184.0996, 34.96440
184.5817, 34.75288
185.0638, 34.51438
185.5460, 34.22988
186.0281, 33.90025
186.5102, 33.60920
186.9923, 33.48840
187.4744, 33.60155
187.9565, 33.72254
188.4387, 33.94278
188.9208, 34.08987
189.4029, 33.94136
189.8850, 33.45146
190.3671, 32.88889
190.8492, 32.80795
191.3314, 33.75682
191.8135, 34.29241
192.2956, 34.04392
192.7777, 33.53718
193.2598, 33.27922
193.7419, 33.46226
194.2241, 33.84894
194.7062, 33.86684
195.1883, 32.97855
195.6704, 32.31968
196.1525, 31.95266
196.6346, 31.81637
197.1168, 31.86667
197.5989, 32.08949
198.0810, 32.43856
198.5631, 32.78904
199.0452, 33.32227
199.5273, 33.62621
200.0095, 33.41726
200.4916, 32.96441
200.9737, 32.76775
201.4558, 33.11176
201.9379, 33.71891
202.4200, 33.73320
202.9022, 32.78030
203.3843, 32.01392
203.8664, 31.98693
204.3485, 32.48041
204.8306, 32.87543
205.3127, 32.85883
205.7949, 32.64280
206.2770, 32.72470
206.7591, 33.26207
207.2412, 33.73400
207.7233, 33.74965
208.2054, 33.38645
208.6876, 33.13038
209.1697, 33.23245
209.6518, 33.50844
210.1339, 33.66284
210.6160, 33.65119
211.0981, 33.61412
211.5803, 33.67577
212.0624, 33.83630
212.5445, 33.98145
213.0266, 34.11056
213.5087, 34.17392
213.9908, 34.07014
214.4730, 33.74747
214.9551, 33.46268
215.4372, 33.58672
215.9193, 34.21421
216.4014, 34.66362
216.8836, 34.43068
217.3657, 34.12167
217.8478, 34.22782
218.3299, 34.87479
218.8120, 35.61832
219.2941, 35.78058
219.7763, 35.13248
220.2584, 34.65785
220.7405, 34.58892
221.2226, 34.70536
221.7047, 34.94891
222.1868, 35.28822
222.6690, 35.56669
223.1511, 35.48370
223.6332, 34.78582
224.1153, 34.30469
224.5974, 34.14795
225.0795, 34.17830
225.5617, 34.35853
226.0438, 34.66003
226.5259, 34.98897
227.0080, 35.20195
227.4901, 35.37345
227.9722, 35.25051
228.4544, 34.54472
228.9365, 33.75797
229.4186, 33.32176
229.9007, 33.34186
230.3828, 33.57169
230.8649, 33.57280
231.3471, 33.05138
231.8292, 32.77737
232.3113, 32.92536
232.7934, 33.19539
233.2755, 33.37923
233.7576, 33.40839
234.2398, 33.29227
234.7219, 33.03289
235.2040, 32.43478
235.6861, 32.05288
236.1682, 31.95816
236.6503, 32.03342
237.1325, 32.21139
237.6146, 32.46672
238.0967, 32.75099
238.5788, 33.00227
239.0609, 33.25491
239.5430, 33.36417
240.0252, 33.26113
240.5073, 33.04238
240.9894, 32.76236
241.4715, 32.43401
241.9536, 32.14367
242.4357, 32.02944
242.9179, 32.14762
243.4000, 32.19358
243.8821, 32.01252
244.3642, 31.80447
244.8463, 31.85227
245.3284, 32.22586
245.8106, 32.61819
246.2927, 32.65746
246.7748, 32.33714
247.2569, 31.93060
247.7390, 31.37977
248.2211, 30.80287
248.7033, 30.32767
249.1854, 29.97099
249.6675, 29.73010
250.1496, 29.68813
250.6317, 29.80472
251.1138, 29.78471
251.5960, 29.40199
252.0781, 28.91908
252.5602, 28.70695
253.0423, 28.83539
253.5244, 29.02955
254.0065, 29.15229
254.4887, 29.17147
254.9708, 28.93212
255.4529, 28.04200
255.9350, 27.01291
256.4171, 26.70816
256.8992, 27.32311
257.3813, 27.87700
257.8635, 27.34955
258.3456, 26.29987
258.8277, 25.67717
259.3098, 25.97162
259.7919, 26.70827
260.2740, 27.25666
260.7562, 27.60900
261.2383, 27.80492
261.7204, 27.64728
262.2025, 27.39847
262.6846, 27.42919
263.1667, 28.00189
263.6489, 28.70768
264.1310, 28.95899
264.6131, 28.68616
265.0952, 28.25971
265.5773, 27.62164
266.0594, 27.00283
266.5416, 26.65889
267.0237, 26.70210
267.5058, 26.92267
267.9879, 27.05134
268.4700, 27.07188
268.9521, 27.07461
269.4343, 27.07523
269.9164, 27.07792
270.3985, 27.10754
270.8806, 27.17707
271.3627, 27.20553
271.8448, 27.08451
272.3270, 26.79393
272.8091, 26.45467
273.2912, 25.87704
273.7733, 25.39996
274.2554, 25.31801
274.7375, 25.66667
275.2197, 26.11130
275.7018, 26.25690
276.1839, 26.04811
276.6660, 25.89715
277.1481, 25.93882
277.6302, 25.99624
278.1124, 25.99645
278.5945, 25.92878
279.0766, 25.80754
279.5587, 25.58010
280.0408, 25.20714
280.5229, 25.07776
281.0051, 25.34609
281.4872, 25.76763
281.9693, 26.43046
282.4514, 27.20682
282.9335, 27.75190
283.4156, 27.68829
283.8978, 27.00007
284.3799, 26.45380
284.8620, 25.99536
285.3441, 25.76301
285.8262, 25.97787
286.3083, 26.45942
286.7905, 26.83560
287.2726, 26.82885
287.7547, 26.47532
288.2368, 26.10717
288.7189, 25.57540
289.2010, 25.22256
289.6832, 25.26240
290.1653, 25.50986
290.6474, 25.65845
291.1295, 25.50002
291.6116, 25.16629
292.0938, 25.22814
292.5759, 26.12753
293.0580, 26.79252
293.5401, 26.95843
294.0222, 26.82535
294.5043, 26.59661
294.9865, 26.36023
295.4686, 26.11258
295.9507, 25.81161
296.4328, 25.24811
296.9149, 25.03552
297.3970, 25.56485
297.8792, 26.24427
298.3613, 26.51369
298.8434, 26.21833
299.3255, 25.68642
299.8076, 25.49319
300.2897, 25.89206
300.7719, 26.05197
301.2540, 25.63209
301.7361, 25.21665
302.2182, 25.29810
302.7003, 25.88795
303.1824, 26.50743
303.6646, 26.50913
304.1467, 25.62180
304.6288, 25.10409
305.1109, 25.14231
305.5930, 25.35787
306.0751, 25.68395
306.5573, 26.05289
307.0394, 26.34923
307.5215, 26.46127
308.0036, 26.37855
308.4857, 26.26657
308.9678, 25.91672
309.4500, 25.74552
309.9321, 26.04307
310.4142, 26.61326
310.8963, 27.03107
311.3784, 26.97194
311.8605, 26.53051
312.3427, 26.45955
312.8248, 27.20506
313.3069, 27.82018
313.7890, 28.10234
314.2711, 28.16672
314.7532, 28.16829
315.2354, 28.18182
315.7175, 28.18989
316.1996, 28.11865
316.6817, 27.73971
317.1638, 27.66770
317.6459, 28.16340
318.1281, 28.85232
318.6102, 29.41247
319.0923, 29.73954
319.5744, 29.92861
320.0565, 30.15332
320.5386, 30.51728
321.0208, 30.66271
321.5029, 30.26312
321.9850, 29.90818
322.4671, 30.05782
322.9492, 30.70741
323.4313, 31.43903
323.9135, 31.78727
324.3956, 31.66830
324.8777, 31.58158
325.3598, 31.34682
325.8419, 31.31087
326.3240, 31.76663
326.8062, 32.56350
327.2883, 33.28203
327.7704, 33.55728
328.2525, 33.42764
328.7346, 33.59520
329.2167, 34.36826
329.6989, 35.11079
330.1810, 35.74520
330.6631, 36.23609
331.1452, 36.49052
331.6273, 36.42571
332.1094, 36.20547
332.5916, 36.37867
333.0737, 37.30525
333.5558, 38.01063
334.0379, 38.34935
334.5200, 38.41936
335.0021, 38.28624
335.4843, 37.97569
335.9664, 37.51659
336.4485, 36.90423
336.9306, 36.01091
337.4127, 35.34691
337.8948, 35.00846
338.3770, 34.86223
338.8591, 35.04003
339.3412, 35.44225
339.8233, 35.60809
340.3055, 34.90174
340.7876, 33.19529
341.2697, 31.94287
341.7518, 31.51779
342.2339, 31.22453
342.7160, 30.85165
343.1982, 30.39439
343.6803, 29.88725
344.1624, 29.33346
344.6445, 28.75192
345.1266, 28.20912
345.6087, 27.55187
346.0909, 27.21441
346.5730, 27.68872
347.0551, 28.39269
347.5372, 28.56322
348.0193, 27.84661
348.5014, 26.61965
348.9836, 25.44296
349.4657, 24.19471
349.9478, 23.43265
350.4299, 23.70794
350.9120, 24.27788
351.3941, 24.65466
351.8763, 24.74268
352.3584, 24.68278
352.8405, 24.57285
353.3226, 24.40922
353.8047, 24.31470
354.2868, 24.33084
354.7690, 24.39971
355.2511, 24.55870
355.7332, 24.76086
356.2153, 24.82468
356.6974, 24.56680
357.1795, 24.06522
357.6617, 23.58727
358.1438, 23.05592
358.6259, 22.72936
359.1080, 22.92714
359.5901, 23.38144
360.0722, 23.67352
360.5544, 23.65635
361.0365, 23.41054
361.5186, 22.93708
362.0007, 22.18148
362.4828, 21.65903
362.9649, 21.76124
363.4471, 22.11150
363.9292, 22.24752
364.4113, 22.06694
364.8934, 21.92917
365.3755, 22.24613
365.8576, 22.90305
366.3398, 23.23225
366.8219, 22.95465
367.3040, 22.48821
367.7861, 22.25861
368.2682, 22.24535
368.7503, 22.29619
369.2325, 22.43291
369.7146, 22.57139
370.1967, 22.52222
370.6788, 22.23553
371.1609, 21.97540
371.6430, 22.00753
372.1252, 22.23609
372.6073, 22.33738
373.0894, 22.27187
373.5715, 22.06320
374.0536, 21.57382
374.5357, 20.88249
375.0179, 20.48495
375.5000, 20.71020
375.9821, 21.30764
376.4642, 21.69446
376.9463, 21.87845
377.4284, 21.87844
377.9106, 21.47821
378.3927, 20.94508
378.8748, 20.80333
379.3569, 21.22248
379.8390, 21.81386
380.3211, 22.07963
380.8033, 21.95562
381.2854, 21.85624
381.7675, 21.85238
382.2496, 21.85287
382.7317, 21.75532
383.2138, 21.57168
383.6960, 21.43855
384.1781, 21.48621
384.6602, 21.68931
385.1423, 21.67232
385.6244, 21.12229
386.1065, 20.74189
386.5887, 20.95295
387.0708, 21.45529
387.5529, 21.72377
388.0350, 21.52366
388.5171, 21.03061
388.9992, 20.62400
389.4814, 20.27868
389.9635, 20.08216
390.4456, 20.14487
390.9277, 20.28065
391.4098, 20.30076
391.8919, 20.20288
392.3741, 20.17437
392.8562, 20.45068
393.3383, 21.11663
393.8204, 21.43450
394.3025, 20.93714
394.7846, 20.60039
395.2668, 20.93096
395.7489, 21.64809
396.2310, 22.19537
396.7131, 22.23968
397.1952, 21.92004
397.6773, 21.72783
398.1595, 21.80209
398.6416, 21.77088
399.1237, 21.49815
399.6058, 21.16695
400.0879, 20.92240
400.5700, 20.80154
401.0522, 20.76178
401.5343, 20.77891
402.0164, 20.87601
402.4985, 20.88684
402.9806, 20.63095
403.4627, 20.45643
403.9449, 20.61467
404.4270, 20.98445
404.9091, 21.24169
405.3912, 21.14975
405.8733, 20.81802
406.3554, 20.60769
406.8376, 20.59674
407.3197, 20.50671
407.8018, 19.96107
408.2839, 19.40182
408.7660, 19.41352
409.2481, 20.23747
409.7303, 21.07278
410.2124, 20.94606
410.6945, 19.93553
411.1766, 19.29876
411.6587, 19.50099
412.1408, 19.90099
412.6230, 19.85711
413.1051, 19.43042
413.5872, 19.06534
414.0693, 18.98291
414.5514, 19.06359
415.0335, 19.12142
415.5157, 19.14227
415.9978, 19.18438
416.4799, 19.29039
416.9620, 19.44787
417.4441, 19.61384
417.9262, 19.84021
418.4084, 20.00384
418.8905, 19.96815
419.3726, 19.81280
419.8547, 19.79107
420.3368, 20.03396
420.8189, 20.28898
421.3011, 20.06506
421.7832, 19.16906
422.2653, 18.64409
422.7474, 18.86234
423.2295, 19.32047
423.7116, 19.64232
424.1938, 19.77954
424.6759, 19.77808
425.1580, 19.63456
425.6401, 19.36955
426.1222, 19.37243
426.6043, 19.99431
427.0865, 20.43324
427.5686, 20.32630
428.0507, 19.96888
428.5328, 19.81202
429.0149, 20.02347
429.4970, 20.37046
429.9792, 20.43385
430.4613, 20.04140
430.9434, 19.73255
431.4255, 19.51044
431.9076, 19.35111
432.3897, 19.22165
432.8719, 19.13785
433.3540, 19.16991
433.8361, 19.41304
434.3182, 19.81164
434.8003, 19.95038
435.2824, 19.67483
435.7646, 19.36134
436.2467, 19.01507
436.7288, 18.72574
437.2109, 18.62117
437.6930, 18.74318
438.1751, 18.93293
438.6573, 19.02318
439.1394, 19.01611
439.6215, 18.83533
440.1036, 18.15857
440.5857, 17.66500
441.0678, 17.92735
441.5500, 18.76690
442.0321, 19.49173
442.5142, 19.65593
442.9963, 19.52504
443.4784, 19.62557
443.9605, 20.00129
444.4427, 20.25963
444.9248, 20.11036
445.4069, 19.76582
445.8890, 19.61294
446.3711, 19.73111
446.8532, 19.86122
447.3354, 19.86129
447.8175, 19.77035
448.2996, 19.67535
448.7817, 19.59820
449.2638, 19.49904
449.7459, 19.30329
450.2281, 19.00293
450.7102, 18.85004
451.1923, 18.93126
451.6744, 19.09353
452.1565, 19.27482
452.6386, 19.46030
453.1208, 19.63963
453.6029, 19.81734
454.0850, 19.95568
454.5671, 19.94879
455.0492, 19.70490
455.5313, 19.42825
456.0135, 19.00745
456.4956, 18.63088
456.9777, 18.41549
457.4598, 18.39561
457.9419, 18.59270
458.4240, 19.07074
458.9062, 19.83554
459.3883, 20.40784
459.8704, 21.02795
460.3525, 21.14020
460.8346, 20.10500
461.3167, 18.68679
461.7989, 17.88004
462.2810, 18.06648
462.7631, 18.74570
463.2452, 19.20879
463.7273, 19.45123
464.2094, 19.48961
464.6916, 19.03910
465.1737, 18.65717
465.6558, 18.79170
466.1379, 19.30299
466.6200, 19.65618
467.1021, 19.48477
467.5843, 18.99970
468.0664, 18.56623
468.5485, 18.16436
469.0306, 17.96695
469.5127, 18.23431
469.9948, 18.64600
470.4770, 18.68468
470.9591, 18.25046
471.4412, 17.75678
471.9233, 17.25291
472.4054, 16.86661
472.8875, 16.91978
473.3697, 17.49081
473.8518, 18.16618
474.3339, 18.59874
474.8160, 18.77697
475.2981, 18.87949
475.7802, 19.00042
476.2624, 18.95059
476.7445, 18.36718
477.2266, 17.59542
477.7087, 17.37852
478.1908, 18.01861
478.6729, 19.00432
479.1551, 19.39776
479.6372, 18.85890
480.1193, 18.50638
480.6014, 18.39051
481.0835, 18.38676
481.5656, 18.48326
482.0478, 18.63530
482.5299, 18.75886
483.0120, 18.79552
483.4941, 18.76817
483.9762, 18.78020
484.4583, 18.93235
484.9405, 18.91063
485.4226, 18.41804
485.9047, 17.90162
486.3868, 17.78851
486.8689, 18.09888
487.3510, 18.40094
487.8332, 18.21331
488.3153, 17.67592
488.7974, 17.51345
489.2795, 17.87979
489.7616, 18.30658
490.2437, 18.57165
490.7259, 18.69772
491.2080, 18.66481
491.6901, 18.33524
492.1722, 18.11119
492.6543, 18.52901
493.1364, 19.29699
493.6186, 19.44700
494.1007, 18.61738
494.5828, 17.62491
495.0649, 17.44587
495.5470, 18.17720
496.0291, 18.72175
496.5113, 19.01783
496.9934, 19.14597
497.4755, 19.13893
497.9576, 19.00280
498.4397, 18.68774
498.9218, 18.15719
499.4040, 17.57588
499.8861, 17.34213
500.3682, 17.82354
500.8503, 17.97467
501.3324, 17.42664
501.8145, 16.90241
502.2967, 16.93435
502.7788, 17.41002
503.2609, 17.84433
503.7430, 17.89800
504.2251, 17.65535
504.7072, 17.40897
505.1894, 17.06561
505.6715, 16.93608
506.1536, 17.35494
506.6357, 17.84559
507.1178, 18.00826
507.5999, 17.80322
508.0821, 17.52950
508.5642, 17.31377
509.0463, 17.20113
509.5284, 17.40737
510.0105, 18.03702
510.4926, 18.57094
510.9748, 18.61837
511.4569, 18.35419
511.9390, 18.22557
512.4211, 18.40096
512.9032, 18.44482
513.3853, 17.97855
513.8674, 17.28241
514.3495, 16.83638
514.8317, 16.74445
515.3138, 16.86527
515.7959, 17.08162
516.2780, 17.40461
516.7601, 17.66208
517.2422, 17.89014
517.7244, 18.02545
518.2065, 18.01950
518.6886, 17.91685
519.1707, 17.76854
519.6528, 17.59605
520.1349, 17.41292
520.6171, 17.22124
521.0992, 16.98449
521.5813, 16.88897
522.0634, 17.03744
522.5455, 17.23440
523.0276, 17.54303
523.5098, 17.82950
523.9919, 17.82406
524.4740, 17.34548
524.9561, 16.70691
525.4382, 16.35058
525.9203, 16.28238
526.4025, 16.29264
526.8846, 16.35690
527.3667, 16.45693
527.8488, 16.61571
528.3309, 16.81392
528.8130, 16.91460
529.2952, 16.73178
529.7773, 16.54572
530.2594, 16.70841
530.7415, 17.13056
531.2236, 17.35576
531.7057, 17.14151
532.1879, 16.74486
532.6700, 16.67432
533.1521, 17.15532
533.6342, 17.45451
534.1163, 17.41982
534.5984, 17.31783
535.0806, 17.30663
535.5627, 17.38119
536.0448, 17.47431
536.5269, 17.54508
537.0090, 17.60215
537.4911, 17.65563
537.9733, 17.63899
538.4554, 17.77205
538.9375, 18.38333
539.4196, 18.89640
539.9017, 18.92694
540.3839, 18.50898
540.8660, 17.91635
541.3481, 17.10712
541.8302, 16.36124
542.3123, 16.47988
542.7944, 17.58531
543.2766, 18.47938
543.7587, 18.67908
544.2408, 18.42144
544.7229, 17.95316
545.2050, 17.20198
545.6871, 16.85398
546.1693, 17.45972
546.6514, 18.39203
547.1335, 19.05364
547.6156, 19.38872
548.0977, 19.43789
548.5798, 19.18306
549.0620, 18.72567
549.5441, 18.41038
550.0262, 18.30818
550.5083, 18.26583
550.9904, 18.33212
551.4725, 18.42076
551.9547, 18.52608
552.4368, 18.60261
552.9189, 18.50492
553.4010, 18.06235
553.8831, 17.43335
554.3652, 17.32633
554.8474, 18.01286
555.3295, 18.53625
555.8116, 18.52584
556.2937, 18.35057
556.7758, 18.26916
557.2579, 18.29262
557.7401, 18.25868
558.2222, 17.98331
558.7043, 17.62501
559.1864, 17.48376
559.6685, 17.56900
560.1506, 17.65224
560.6328, 17.61294
561.1149, 17.51348
561.5970, 17.51001
562.0791, 17.66340
562.5612, 17.70362
563.0433, 17.48894
563.5255, 17.21107
564.0076, 16.97727
564.4897, 16.82384
564.9718, 16.82185
565.4539, 17.03422
565.9360, 17.37413
566.4182, 17.54419
566.9003, 17.46597
567.3824, 17.36209
567.8645, 17.11746
568.3466, 16.96430
568.8287, 17.19055
569.3109, 17.67008
569.7930, 17.92918
570.2751, 17.56983
570.7572, 16.91656
571.2393, 16.68924
571.7214, 16.92459
572.2036, 17.14078
572.6857, 17.17367
573.1678, 17.13713
573.6499, 17.20233
574.1320, 17.36607
574.6141, 17.39671
575.0963, 17.15856
575.5784, 16.81914
576.0605, 16.36335
576.5426, 15.91109
577.0247, 15.93221
577.5068, 16.69743
577.9890, 17.66961
578.4711, 17.77652
578.9532, 16.37919
579.4353, 15.75484
579.9174, 16.52605
580.3995, 17.34601
580.8817, 17.57086
581.3638, 17.36052
581.8459, 17.09442
582.3280, 16.94372
582.8101, 16.87214
583.2922, 16.84589
583.7744, 16.87268
584.2565, 16.81821
584.7386, 16.58500
585.2207, 16.38079
585.7029, 16.36177
586.1850, 16.48154
586.6671, 16.63910
587.1492, 16.90817
587.6313, 17.07690
588.1135, 16.83550
588.5956, 16.39162
589.0777, 16.29457
589.5598, 16.69100
590.0419, 17.17599
590.5240, 17.31798
591.0062, 17.10032
591.4883, 16.91498
591.9704, 16.80863
592.4525, 16.67418
592.9346, 16.34779
593.4167, 16.04979
593.8989, 16.11793
594.3810, 16.57903
594.8631, 17.03468
595.3452, 17.00976
595.8273, 16.56137
596.3094, 16.36239
596.7916, 16.48632
597.2737, 16.69050
597.7558, 16.97626
598.2379, 17.23777
598.7200, 17.34646
599.2021, 17.27832
599.6843, 17.16069
600.1664, 17.02950
600.6485, 16.90117
601.1306, 16.74358
601.6127, 16.57831
602.0948, 16.62780
602.5770, 17.08109
603.0591, 17.72952
603.5412, 17.98998
604.0233, 17.47877
604.5054, 17.19880
604.9875, 17.44440
605.4697, 17.65845
605.9518, 17.30847
606.4339, 16.62588
606.9160, 16.29107
607.3981, 16.72202
607.8802, 17.52016
608.3624, 17.93363
608.8445, 17.94088
609.3266, 17.68549
609.8087, 16.93678
610.2908, 16.25953
610.7729, 16.09536
611.2551, 16.32761
611.7372, 16.62592
612.2193, 16.97092
612.7014, 17.27755
613.1835, 17.57944
613.6656, 17.78441
614.1478, 17.56720
614.6299, 16.85403
615.1120, 16.18099
615.5941, 16.10531
616.0762, 16.63018
616.5583, 17.14509
617.0405, 18.06489
617.5226, 18.45403
618.0047, 17.69516
618.4868, 16.61937
618.9689, 16.02740
619.4510, 16.03275
619.9332, 16.23819
620.4153, 16.32844
620.8974, 16.34849
621.3795, 16.48664
621.8616, 16.78006
622.3438, 16.98946
622.8259, 16.98211
623.3080, 16.88488
623.7901, 16.85685
624.2722, 16.89808
624.7543, 16.98787
625.2365, 17.19580
625.7186, 17.38778
626.2007, 17.40606
626.6828, 17.31334
627.1649, 17.30271
627.6470, 17.45693
628.1292, 17.68110
628.6113, 17.84398
629.0934, 17.98197
629.5755, 17.90345
630.0576, 17.15022
630.5397, 16.67348
631.0219, 17.08048
631.5040, 17.80631
631.9861, 18.00103
632.4682, 17.40467
632.9503, 16.70339
633.4324, 16.47521
633.9146, 16.64609
634.3967, 17.09011
634.8788, 17.84313
635.3609, 18.41906
635.8430, 18.50957
636.3251, 18.23595
636.8073, 17.92121
637.2894, 17.52301
637.7715, 17.18681
638.2536, 16.86210
638.7357, 16.66445
639.2178, 16.74703
639.7000, 17.03864
640.1821, 17.35618
640.6642, 17.60895
641.1463, 17.75983
641.6284, 17.67701
642.1105, 17.27822
642.5927, 17.10075
643.0748, 17.36970
643.5569, 17.63959
644.0390, 17.60058
644.5211, 17.39577
645.0032, 17.33346
645.4854, 17.55993
645.9675, 17.75974
646.4496, 17.70350
646.9317, 17.48098
647.4138, 17.22911
647.8959, 16.97514
648.3781, 16.74104
648.8602, 16.50877
649.3423, 16.34252
649.8244, 16.57341
650.3065, 17.98870
650.7886, 18.60003
651.2708, 17.49494
651.7529, 16.33222
652.2350, 16.33155
652.7171, 17.24701
653.1992, 18.11002
653.6813, 18.43426
654.1635, 18.40373
654.6456, 18.18637
655.1277, 17.80995
655.6098, 17.65227
656.0919, 17.83910
656.5740, 18.10625
657.0562, 18.28904
657.5383, 18.36199
658.0204, 18.23552
658.5025, 17.61123
658.9846, 17.16138
659.4667, 17.10816
659.9489, 17.30971
660.4310, 17.80412
660.9131, 18.45749
661.3952, 18.77158
661.8773, 18.31080
662.3594, 17.37509
662.8416, 16.98061
663.3237, 17.26533
663.8058, 17.58870
664.2879, 17.94264
664.7700, 18.19379
665.2521, 18.17294
665.7343, 17.96862
666.2164, 17.88923
666.6985, 18.13045
667.1806, 18.37487
667.6627, 18.35877
668.1448, 18.19725
668.6270, 18.10250
669.1091, 18.11819
669.5912, 18.19231
670.0733, 18.28882
670.5554, 18.39986
671.0375, 18.46362
671.5197, 18.37080
672.0018, 18.41442
672.4839, 18.87512
672.9660, 19.25830
673.4481, 19.11460
673.9302, 18.57367
674.4124, 18.16400
674.8945, 18.27016
675.3766, 18.43674
675.8587, 17.87596
676.3408, 16.81670
676.8229, 16.40825
677.3051, 16.97035
677.7872, 17.73478
678.2693, 18.02608
678.7514, 17.89101
679.2335, 17.86666
679.7156, 18.08138
680.1978, 18.22281
680.6799, 18.19149
681.1620, 18.11199
681.6441, 18.14763
682.1262, 18.24717
682.6083, 18.13354
683.0905, 17.52089
683.5726, 16.85941
684.0547, 17.24523
684.5368, 18.67383
685.0189, 19.39711
685.5010, 18.86440
685.9832, 18.05714
686.4653, 17.74492
686.9474, 17.85743
687.4295, 17.98452
687.9116, 18.13099
688.3937, 18.27087
688.8759, 18.48743
689.3580, 18.63428
689.8401, 18.45746
690.3222, 18.03369
690.8043, 17.72465
691.2864, 17.76307
691.7686, 18.07455
692.2507, 18.58538
692.7328, 19.39349
693.2149, 19.75007
693.6970, 19.34067
694.1791, 18.76867
694.6613, 18.38136
695.1434, 18.14928
695.6255, 18.01633
696.1076, 17.97742
696.5897, 18.03226
697.0718, 18.23141
697.5540, 18.49471
698.0361, 18.74401
698.5182, 18.96272
699.0003, 19.15916
699.4824, 19.34706
699.9645, 19.46765
700.4467, 19.33740
700.9288, 18.85251
701.4109, 18.50710
701.8930, 18.39005
702.3751, 18.34527
702.8572, 18.32418
703.3394, 18.31111
703.8215, 18.25872
704.3036, 18.12426
704.7857, 18.08887
705.2678, 18.39648
705.7499, 18.78948
706.2321, 18.83501
706.7142, 18.58323
707.1963, 18.48159
707.6784, 18.77807
708.1605, 19.26693
708.6426, 19.57499
709.1248, 19.75796
709.6069, 19.54599
710.0890, 18.28024
710.5711, 17.40244
711.0532, 17.75200
711.5353, 18.60212
712.0175, 18.94954
712.4996, 18.57843
712.9817, 18.23792
713.4638, 18.56529
713.9459, 19.09698
714.4280, 19.16109
714.9102, 18.80206
715.3923, 18.32891
715.8744, 17.84696
716.3565, 17.53150
716.8386, 17.68789
717.3207, 18.41243
717.8029, 18.90249
718.2850, 18.99463
718.7671, 19.04058
719.2492, 19.18215
719.7313, 19.27589
720.2134, 19.05735
720.6956, 18.55618
721.1777, 18.28863
721.6598, 18.79563
722.1419, 19.54040
722.6240, 19.80883
723.1061, 19.69938
723.5883, 19.59463
724.0704, 19.60465
724.5525, 19.68450
725.0346, 19.79967
725.5167, 19.94759
725.9988, 20.04135
726.4810, 20.18574
726.9631, 20.11479
727.4452, 19.48023
727.9273, 18.88430
728.4094, 18.88596
728.8915, 19.36331
729.3737, 19.73639
729.8558, 19.72588
730.3379, 19.52333
730.8200, 19.17638
731.3021, 18.81161
731.7842, 18.89808
732.2664, 19.50547
732.7485, 19.99930
733.2306, 19.85873
733.7127, 19.27506
734.1948, 19.01248
734.6769, 19.30407
735.1591, 19.49554
735.6412, 19.51281
736.1233, 19.49103
736.6054, 19.42924
737.0875, 19.39420
737.5696, 19.52869
738.0518, 19.90893
738.5339, 20.27315
739.0160, 20.41288
739.4981, 20.39585
739.9802, 20.33081
740.4623, 20.22979
740.9445, 20.07011
741.4266, 19.81729
741.9087, 19.61324
742.3908, 19.74615
742.8729, 20.34363
743.3550, 20.72969
743.8372, 20.90112
744.3193, 20.84928
744.8014, 20.41630
745.2835, 19.85085
745.7656, 19.39350
746.2477, 19.08364
746.7299, 18.89111
747.2120, 18.80637
747.6941, 18.82304
748.1762, 19.03290
748.6583, 19.34186
749.1404, 19.40223
749.6226, 19.12046
750.1047, 18.83240
750.5868, 18.88884
751.0689, 19.25921
751.5510, 19.63262
752.0331, 20.13028
752.5153, 20.39229
752.9974, 20.16276
753.4795, 19.85389
753.9616, 19.73291
754.4437, 19.74992
754.9258, 19.70342
755.4080, 19.48264
755.8901, 19.28034
756.3722, 19.23938
756.8543, 19.29386
757.3364, 19.34622
757.8185, 19.38980
758.3007, 19.51216
758.7828, 19.78843
759.2649, 20.03266
759.7470, 19.73712
760.2291, 18.67424
760.7112, 18.20311
761.1934, 18.76919
761.6755, 19.28049
762.1576, 19.08117
762.6397, 18.60477
763.1218, 18.37070
763.6039, 18.43075
764.0861, 18.63703
764.5682, 19.08586
765.0503, 19.52621
765.5324, 19.75818
766.0145, 19.83205
766.4966, 19.84771
766.9788, 19.84147
767.4609, 19.83532
767.9430, 19.86538
768.4251, 19.77068
768.9072, 19.82767
769.3893, 19.58651
769.8715, 19.39926
770.3536, 19.30079
770.8357, 19.29764
771.3178, 19.47648
771.7999, 19.77955
772.2820, 19.90368
772.7642, 19.73638
773.2463, 19.51680
773.7284, 19.29263
774.2105, 19.05591
774.6926, 18.67251
775.1747, 18.27149
775.6569, 18.24787
776.1390, 18.82621
776.6211, 19.58433
777.1032, 19.98144
777.5853, 20.05124
778.0674, 19.94310
778.5496, 19.64334
779.0317, 19.35330
779.5138, 19.13160
779.9959, 19.03692
780.4780, 19.22025
780.9601, 19.82219
781.4423, 20.12218
781.9244, 19.91031
782.4065, 19.66665
782.8886, 19.50607
783.3707, 19.41392
783.8528, 19.41079
784.3350, 19.46877
784.8171, 19.43010
785.2992, 19.02370
785.7813, 18.66770
786.2634, 19.14727
786.7455, 20.14241
787.2277, 20.53786
787.7098, 20.11798
788.1919, 19.50943
788.6740, 19.17463
789.1561, 19.07836
789.6382, 19.12098
790.1204, 19.42463
790.6025, 19.56817
791.0846, 19.32017
791.5667, 19.14164
792.0488, 19.31477
792.5309, 19.65449
793.0131, 19.88936
793.4952, 19.97910
793.9773, 19.92872
794.4594, 19.51791
794.9415, 19.15512
795.4236, 19.38064
795.9058, 19.94211
796.3879, 20.15349
796.8700, 19.83589
797.3521, 19.51696
797.8342, 19.81560
798.3163, 20.55365
798.7985, 20.74207
799.2806, 20.26902
799.7627, 19.90072
800.2448, 19.83397
800.7269, 19.87775
801.2090, 19.92136
801.6912, 19.94221
802.1733, 19.82676
802.6554, 19.26777
803.1375, 19.06124
803.6196, 19.76690
804.1017, 20.50122
804.5839, 20.61865
805.0660, 20.25591
805.5481, 19.70293
806.0302, 19.06228
806.5123, 18.68792
806.9944, 19.19953
807.4766, 20.16748
807.9587, 20.46848
808.4408, 20.12938
808.9229, 19.93475
809.4050, 20.19860
809.8871, 20.50995
810.3693, 20.31456
810.8514, 19.62271
811.3335, 19.46696
811.8156, 20.36164
812.2977, 20.93172
812.7798, 20.78548
813.2620, 20.43677
813.7441, 20.19184
814.2262, 20.02175
814.7083, 19.75414
815.1904, 19.21159
815.6725, 18.89869
816.1547, 19.39075
816.6368, 20.05912
817.1189, 20.07087
817.6010, 19.58576
818.0831, 19.32850
818.5652, 19.60308
819.0474, 20.00039
819.5295, 19.92869
820.0116, 19.46081
820.4937, 19.29602
820.9758, 19.48392
821.4579, 19.70357
821.9401, 19.93864
822.4222, 20.01120
822.9043, 19.59689
823.3864, 18.73575
823.8685, 18.38415
824.3506, 18.91857
824.8328, 19.41052
825.3149, 19.83062
825.7970, 20.06635
826.2791, 19.90742
826.7612, 19.52181
827.2433, 19.30824
827.7255, 19.42975
828.2076, 19.58473
828.6897, 19.41506
829.1718, 19.16478
829.6539, 19.27959
830.1360, 19.71285
830.6182, 20.20230
831.1003, 20.64979
831.5824, 20.92328
832.0645, 20.84220
832.5466, 20.43254
833.0287, 19.97081
833.5109, 19.32891
833.9930, 19.05542
834.4751, 19.57858
834.9572, 20.12288
835.4393, 19.88420
835.9214, 19.16214
836.4036, 18.85305
836.8857, 19.26746
837.3678, 19.60121
837.8499, 19.54819
838.3320, 19.45072
838.8141, 19.60862
839.2963, 19.89044
839.7784, 20.04730
840.2605, 19.99649
840.7426, 19.77794
841.2247, 19.25701
841.7068, 18.67099
842.1890, 18.49424
842.6711, 18.68877
843.1532, 19.11396
843.6353, 19.74381
844.1174, 20.29672
844.5995, 20.52412
845.0817, 20.46486
845.5638, 20.25321
846.0459, 19.76348
846.5280, 19.48472
847.0101, 19.66676
847.4922, 19.78551
847.9744, 19.32583
848.4565, 18.73726
848.9386, 18.83947
849.4207, 19.84172
849.9028, 20.44757
850.3849, 19.86297
850.8671, 19.26323
851.3492, 19.55591
851.8313, 20.14929
852.3134, 20.07520
852.7955, 19.31382
853.2776, 18.75756
853.7598, 19.07397
854.2419, 19.75561
854.7240, 20.10239
855.2061, 20.14963
855.6882, 19.91022
856.1703, 19.40063
856.6525, 19.20611
857.1346, 19.72528
857.6167, 20.48170
858.0988, 20.50986
858.5809, 19.63822
859.0630, 19.20061
859.5452, 19.48478
860.0273, 19.69026
860.5094, 19.45728
860.9915, 19.14179
861.4736, 19.01567
861.9557, 19.08012
862.4379, 19.31235
862.9200, 20.06689
863.4021, 20.48289
863.8842, 19.93244
864.3663, 19.19266
864.8484, 19.01710
865.3306, 19.21955
865.8127, 19.13154
866.2948, 18.50335
866.7769, 17.92354
867.2590, 18.09750
867.7411, 18.68512
868.2233, 19.03763
868.7054, 19.14798
869.1875, 19.00022
869.6696, 18.58578
870.1517, 18.21708
870.6339, 18.22141
871.1160, 18.47933
871.5981, 18.37883
872.0802, 17.68657
872.5623, 17.51937
873.0444, 18.30075
873.5266, 19.09514
874.0087, 19.42477
874.4908, 19.41236
874.9729, 19.23147
875.4550, 18.81898
875.9371, 18.60957
876.4193, 19.09857
876.9014, 19.28082
877.3835, 18.28303
877.8656, 17.07050
878.3477, 16.73205
878.8298, 17.24189
879.3120, 17.85584
879.7941, 18.24970
880.2762, 18.50364
880.7583, 18.69109
881.2404, 18.79037
881.7225, 18.80041
882.2047, 18.69274
882.6868, 18.22426
883.1689, 17.29287
883.6510, 16.54812
884.1331, 16.99757
884.6152, 18.39223
885.0974, 18.72200
885.5795, 17.83189
886.0616, 16.92992
886.5437, 16.14115
887.0258, 15.82708
887.5079, 16.53296
887.9901, 17.89235
888.4722, 18.42614
888.9543, 17.58613
889.4364, 16.95795
889.9185, 16.56116
890.4006, 16.35035
890.8828, 16.41541
891.3649, 16.59306
891.8470, 16.62425
892.3291, 16.50967
892.8112, 16.63845
893.2933, 17.60410
893.7755, 18.36314
894.2576, 17.98440
894.7397, 17.20011
895.2218, 16.97922
895.7039, 17.26468
896.1860, 17.40499
896.6682, 17.08254
897.1503, 16.61535
897.6324, 16.33952
898.1145, 16.23693
898.5966, 16.27308
899.0787, 16.43837
899.5609, 16.66961
900.0430, 16.95101
900.5251, 17.26065
901.0072, 17.61018
901.4893, 17.93909
901.9714, 17.92224
902.4536, 17.46387
902.9357, 16.99077
903.4178, 16.44061
903.8999, 16.06233
904.3820, 16.11887
904.8641, 16.35685
905.3463, 16.30488
905.8284, 15.91267
906.3105, 15.66623
906.7926, 15.59197
907.2747, 15.67842
907.7568, 16.23689
908.2390, 16.70060
908.7211, 16.40714
909.2032, 15.58402
909.6853, 15.03203
910.1674, 15.07944
910.6495, 15.25300
911.1317, 15.21072
911.6138, 15.15159
912.0959, 15.33839
912.5780, 15.68928
913.0601, 16.01699
913.5422, 16.25583
914.0244, 16.37048
914.5065, 16.30435
914.9886, 16.13982
915.4707, 16.08387
915.9528, 16.10188
916.4349, 15.91714
916.9171, 15.48955
917.3992, 15.18415
917.8813, 15.22395
918.3634, 15.39108
918.8455, 15.27467
919.3276, 14.83620
919.8098, 14.86562
920.2919, 15.67737
920.7740, 16.13125
921.2561, 15.70379
921.7382, 15.16989
922.2203, 15.25362
922.7025, 15.75887
923.1846, 15.90144
923.6667, 15.49229
924.1488, 15.13778
924.6309, 14.73769
925.1130, 14.58084
925.5952, 14.95354
926.0773, 15.54753
926.5594, 16.09141
927.0415, 16.50220
927.5236, 16.60014
928.0057, 16.06330
928.4879, 15.55793
928.9700, 15.53788
929.4521, 15.77358
929.9342, 16.24220
930.4163, 16.69443
930.8984, 16.42505
931.3806, 15.21159
931.8627, 14.05897
932.3448, 14.06867
932.8269, 14.78302
933.3090, 15.44135
933.7911, 15.97773
934.2733, 15.97338
934.7554, 15.38300
935.2375, 14.88753
935.7196, 14.96659
936.2017, 15.31988
936.6838, 15.27069
937.1660, 14.78755
937.6481, 14.55433
938.1302, 14.60492
938.6123, 14.79497
939.0944, 15.15983
939.5765, 15.46656
940.0587, 15.41615
940.5408, 15.08843
941.0229, 15.08025
941.5050, 15.76779
941.9871, 16.08516
942.4692, 15.65678
942.9514, 15.24459
943.4335, 15.19150
943.9156, 15.29882
944.3977, 15.30934
944.8798, 15.20915
945.3619, 15.14953
945.8441, 15.19160
946.3262, 15.24051
946.8083, 15.27371
947.2904, 15.29038
947.7725, 15.24730
948.2546, 15.19782
948.7368, 15.30988
949.2189, 15.64142
949.7010, 15.81512
950.1831, 15.44329
950.6652, 14.92339
951.1473, 14.59486
951.6295, 14.43654
952.1116, 14.41029
952.5937, 14.49888
953.0758, 14.70981
953.5579, 15.06587
954.0400, 15.38925
954.5222, 15.29366
955.0043, 15.70564
955.4864, 15.30458
955.9685, 16.11877
956.4506, 16.65092
956.9327, 16.66353
957.4149, 16.22499
957.8970, 15.28550
958.3791, 14.17462
958.8612, 14.00762
959.3433, 14.87025
959.8254, 15.44341
960.3076, 15.60792
960.7897, 15.63282
961.2718, 15.63047
961.7539, 15.53290
962.2360, 15.19970
962.7181, 14.65251
963.2003, 14.43402
963.6824, 14.75334
964.1645, 14.97190
964.6466, 14.99745
965.1287, 14.95288
965.6108, 14.81674
966.0930, 14.68989
966.5751, 14.75522
967.0572, 15.03977
967.5393, 15.24986
968.0214, 15.34285
968.5035, 15.37378
968.9857, 15.22081
969.4678, 15.13531
969.9499, 15.47770
970.4320, 15.99906
970.9141, 16.09710
971.3962, 15.58425
971.8784, 15.08209
972.3605, 14.88190
972.8426, 14.78174
973.3247, 14.60357
973.8068, 14.46706
974.2889, 14.56367
974.7711, 14.86384
975.2532, 15.20320
975.7353, 15.52704
976.2174, 15.72510
976.6995, 15.62264
977.1816, 15.38617
977.6638, 15.18321
978.1459, 15.05664
978.6280, 15.10857
979.1101, 15.34039
979.5922, 15.65698
980.0743, 16.03185
980.5565, 16.26613
981.0386, 15.80368
981.5207, 14.93968
982.0028, 14.85399
982.4849, 15.51708
982.9670, 16.10629
983.4492, 16.34445
983.9313, 16.23821
984.4134, 15.69838
984.8955, 15.00282
985.3776, 15.23820
985.8597, 16.45506
986.3419, 16.80967
986.8240, 16.00708
987.3061, 15.34053
987.7882, 15.40613
988.2703, 15.71448
988.7524, 15.65016
989.2346, 15.26949
989.7167, 15.20994
990.1988, 15.66976
990.6809, 15.82599
991.1630, 15.43475
991.6451, 15.04744
992.1273, 14.92698
992.6094, 14.97617
993.0915, 15.05204
993.5736, 15.15061
994.0557, 15.34015
994.5378, 15.83598
995.0200, 16.10133
995.5021, 16.00806
995.9842, 15.75655
996.4663, 15.23434
996.9484, 14.71661
997.4305, 14.73597
997.9127, 15.38591
998.3948, 15.81439
998.8769, 15.70900
999.3590, 15.59804
999.8411, 15.59600
1000.323, 15.69301
1000.805, 16.05581
1001.287, 16.45691
1001.770, 16.37796
1002.252, 15.67889
1002.734, 15.07521
1003.216, 14.88453
1003.698, 14.85259
1004.180, 14.83901
1004.662, 14.90191
1005.144, 15.11220
1005.627, 15.46020
1006.109, 16.01369
1006.591, 16.82508
1007.073, 17.22617
1007.555, 16.35970
1008.037, 15.24553
1008.519, 14.75422
1009.001, 14.75005
1009.483, 15.21597
1009.966, 15.92501
1010.448, 16.20570
1010.930, 15.72246
1011.412, 15.12610
1011.894, 15.13696
1012.376, 15.40384
1012.858, 15.35655
1013.340, 15.11599
1013.823, 15.04541
1014.305, 15.17257
1014.787, 15.20354
1015.269, 14.95552
1015.751, 14.75863
1016.233, 15.24231
1016.715, 16.08027
1017.197, 16.29449
1017.679, 15.98786
1018.162, 15.71327
1018.644, 15.59200
1019.126, 15.46640
1019.608, 15.21947
1020.090, 15.00876
1020.572, 15.20296
1021.054, 15.71244
1021.536, 15.86329
1022.018, 15.66321
1022.501, 15.50308
1022.983, 15.48247
1023.465, 15.37179
1023.947, 14.96257
1024.429, 14.50418
1024.911, 14.57719
1025.393, 15.19560
1025.875, 15.74368
1026.358, 16.24657
1026.840, 16.40912
1027.322, 16.07178
1027.804, 15.77348
1028.286, 15.97316
1028.768, 16.43152
1029.250, 16.52381
1029.732, 16.18718
1030.214, 15.96533
1030.697, 15.86931
1031.179, 15.87873
1031.661, 16.07540
1032.143, 16.15366
1032.625, 15.77438
1033.107, 15.17937
1033.589, 15.06991
1034.071, 15.54362
1034.553, 16.09809
1035.036, 16.94924
1035.518, 17.39639
1036.000, 17.03652
1036.482, 16.55368
1036.964, 16.53281
1037.446, 16.78278
1037.928, 16.74089
1038.410, 16.34056
1038.893, 15.86685
1039.375, 14.97407
1039.857, 14.56931
1040.339, 15.29755
1040.821, 16.13433
1041.303, 16.19701
1041.785, 15.78471
1042.267, 15.78306
1042.750, 16.40615
1043.232, 16.72345
1043.714, 16.59535
1044.196, 16.33580
1044.678, 15.82169
1045.160, 15.37930
1045.642, 15.25246
1046.124, 15.37937
1046.606, 15.60986
1047.089, 15.94557
1047.571, 16.33874
1048.053, 16.87851
1048.535, 17.34532
1049.017, 17.71166
1049.499, 17.95642
1049.981, 18.08812
1050.463, 18.08123
1050.945, 17.81211
1051.428, 17.18888
1051.910, 16.82341
1052.392, 17.05928
1052.874, 17.26405
1053.356, 17.21742
1053.838, 17.08295
1054.320, 16.95413
1054.802, 16.84764
1055.285, 16.75768
1055.767, 16.67636
1056.249, 16.71288
1056.731, 17.06683
1057.213, 17.31641
1057.695, 17.22543
1058.177, 17.04964
1058.659, 16.95211
1059.141, 16.93078
1059.624, 16.94316
1060.106, 16.98197
1060.588, 17.10163
1061.070, 17.28586
1061.552, 17.59952
1062.034, 18.33123
1062.516, 18.94932
1062.998, 18.90638
1063.480, 18.50992
1063.963, 18.29676
1064.445, 18.35668
1064.927, 18.49165
1065.409, 18.64539
1065.891, 18.83851
1066.373, 19.04125
1066.855, 19.32319
1067.337, 19.78484
1067.820, 20.33795
1068.302, 20.95254
1068.784, 21.56403
1069.266, 21.77234
1069.748, 20.96367
1070.230, 20.53323
1070.712, 21.51339
1071.194, 22.67897
1071.677, 23.11965
1072.159, 23.14537
1072.641, 23.23751
1073.123, 23.46890
1073.605, 23.71039
1074.087, 23.79791
1074.569, 24.16957
1075.051, 25.39370
1075.533, 26.59095
1076.016, 26.93715
1076.498, 26.99992
1076.980, 27.65272
1077.462, 28.81142
1077.944, 29.63683
1078.426, 29.72206
1078.908, 29.91181
1079.390, 30.58633
1079.873, 31.51294
1080.355, 32.70292
1080.837, 33.93644
1081.319, 34.97974
1081.801, 35.83643
1082.283, 36.63521
1082.765, 37.44358
1083.247, 38.00291
1083.729, 38.00212
1084.212, 37.95082
1084.694, 37.91027
1085.176, 38.15704
1085.658, 39.39412
1086.140, 41.04226
1086.622, 41.54993
1087.104, 40.49145
1087.586, 39.83685
1088.068, 40.91461
1088.551, 41.95735
1089.033, 42.11553
1089.515, 41.83465
1089.997, 41.43698
1090.479, 40.93725
1090.961, 40.26952
1091.443, 39.42767
1091.925, 38.53772
1092.408, 37.64819
1092.890, 36.71551
1093.372, 35.58457
1093.854, 34.54733
1094.336, 34.01106
1094.818, 33.59065
1095.300, 32.55901
1095.782, 30.95904
1096.265, 29.76479
1096.747, 29.37957
1097.229, 29.18720
1097.711, 29.22727
1098.193, 29.12438
1098.675, 28.59097
1099.157, 27.84074
1099.639, 27.02155
1100.121, 26.21866
1100.604, 25.68787
1101.086, 25.60867
1101.568, 25.40120
1102.050, 24.72381
1102.532, 24.12580
1103.014, 23.97637
1103.496, 23.89808
1103.978, 23.50291
1104.460, 22.89900
1104.943, 22.44218
1105.425, 22.22970
1105.907, 21.87917
1106.389, 21.11959
1106.871, 20.48879
1107.353, 20.29994
1107.835, 20.13110
1108.317, 19.48807
1108.800, 18.75602
1109.282, 18.77242
1109.764, 19.63613
1110.246, 19.94440
1110.728, 19.08537
1111.210, 18.39001
1111.692, 17.88988
1112.174, 17.75848
1112.656, 18.40305
1113.139, 19.24637
1113.621, 19.58944
1114.103, 19.45830
1114.585, 19.23890
1115.067, 18.73197
1115.549, 18.50900
1116.031, 18.92092
1116.513, 19.10669
1116.995, 18.44645
1117.478, 17.84307
1117.960, 18.38049
1118.442, 17.80920
1118.924, 17.51581
1119.406, 17.79190
1119.888, 16.93464
1120.370, 17.36738
1120.852, 17.74028
1121.335, 17.71394
1121.817, 17.66942
1122.299, 17.86800
1122.781, 18.19501
1123.263, 18.50590
1123.745, 18.80957
1124.227, 18.45099
1124.709, 17.03638
1125.192, 16.47308
1125.674, 17.36417
1126.156, 17.93926
1126.638, 17.23683
1127.120, 16.21494
1127.602, 16.00050
1128.084, 16.45460
1128.566, 16.98309
1129.048, 17.64526
1129.531, 17.71081
1130.013, 17.00931
1130.495, 16.84535
1130.977, 17.72239
1131.459, 18.60172
1131.941, 18.62638
1132.423, 18.12118
1132.905, 17.74424
1133.387, 17.49181
1133.870, 17.28891
1134.352, 17.13599
1134.834, 17.02475
1135.316, 16.95697
1135.798, 17.20928
1136.280, 17.96607
1136.762, 18.56369
1137.244, 17.97219
1137.727, 16.71819
1138.209, 16.51148
1138.691, 17.07624
1139.173, 17.12717
1139.655, 16.67034
1140.137, 16.69421
1140.619, 17.49583
1141.101, 18.24819
1141.583, 18.25880
1142.066, 17.91375
1142.548, 17.73314
1143.030, 17.66761
1143.512, 17.71411
1143.994, 17.76787
1144.476, 17.46464
1144.958, 16.84566
1145.440, 16.45765
1145.922, 16.58908
1146.405, 16.80020
1146.887, 16.65656
1147.369, 16.39625
1147.851, 16.20686
1148.333, 16.13264
1148.815, 16.32869
1149.297, 16.67351
1149.779, 16.78515
1150.262, 16.59638
1150.744, 16.64062
1151.226, 17.55663
1151.708, 18.23042
1152.190, 17.57630
1152.672, 16.74381
1153.154, 16.75211
1153.636, 17.19590
1154.119, 17.36514
1154.601, 17.27680
1155.083, 17.51997
1155.565, 18.46162
1156.047, 19.00889
1156.529, 18.59825
1157.011, 17.98399
1157.493, 17.18193
1157.975, 16.60364
1158.458, 16.69856
1158.940, 17.23016
1159.422, 17.76258
1159.904, 18.27746
1160.386, 18.47858
1160.868, 17.96985
1161.350, 17.71612
1161.832, 17.85153
1162.314, 18.22706
1162.797, 19.14679
1163.279, 19.91674
1163.761, 19.66972
1164.243, 18.64455
1164.725, 17.94841
1165.207, 17.56798
1165.689, 17.61776
1166.171, 18.34144
1166.654, 18.74963
1167.136, 18.54201
1167.618, 18.15318
1168.100, 17.82878
1168.582, 17.57966
1169.064, 17.40074
1169.546, 17.31510
1170.028, 17.66879
1170.510, 18.48365
1170.993, 18.71772
1171.475, 18.25213
1171.957, 17.81160
1172.439, 17.66597
1172.921, 17.62168
1173.403, 17.48945
1173.885, 17.39306
1174.367, 17.64196
1174.849, 18.12074
1175.332, 18.47784
1175.814, 18.69682
1176.296, 18.75538
1176.778, 18.66301
1177.260, 18.43124
1177.742, 18.06841
1178.224, 17.83982
1178.706, 18.13533
1179.189, 18.54906
1179.671, 18.52379
1180.153, 18.29840
1180.635, 18.27099
1181.117, 18.32806
1181.599, 17.98705
1182.081, 17.29988
1182.563, 17.16178
1183.046, 18.23374
1183.528, 19.10682
1184.010, 18.64989
1184.492, 18.05718
1184.974, 18.23232
1185.456, 18.61368
1185.938, 18.50597
1186.420, 18.10878
1186.902, 18.07206
1187.385, 18.52487
1187.867, 18.77005
1188.349, 18.30066
1188.831, 18.17459
1189.313, 19.09037
1189.795, 19.78966
1190.277, 19.40354
1190.759, 18.72722
1191.241, 18.51280
1191.724, 18.68481
1192.206, 18.98782
1192.688, 19.56016
1193.170, 19.62687
1193.652, 18.94717
1194.134, 18.50206
1194.616, 18.49936
1195.098, 18.73618
1195.581, 19.15750
1196.063, 19.58950
1196.545, 19.83077
1197.027, 19.84265
1197.509, 19.19517
1197.991, 19.63745
1198.473, 18.18555
1198.955, 19.75232
1199.438, 20.60931
1199.920, 20.21510
1200.402, 19.48333
1200.884, 18.99567
1201.366, 18.73532
1201.848, 18.73829
1202.330, 18.91215
1202.812, 19.23219
1203.294, 19.51667
1203.776, 19.23210
1204.259, 18.58680
1204.741, 18.31059
1205.223, 18.57758
1205.705, 18.96655
1206.187, 19.33836
1206.669, 19.50097
1207.151, 18.97329
1207.633, 18.56401
1208.116, 19.30661
1208.598, 20.22017
1209.080, 19.85396
1209.562, 18.71884
1210.044, 18.52805
1210.526, 19.67888
1211.008, 20.36043
1211.490, 19.94589
1211.973, 19.46226
1212.455, 18.87169
1212.937, 18.53130
1213.419, 18.61643
1213.901, 18.99678
1214.383, 19.67823
1214.865, 20.50003
1215.347, 20.91748
1215.829, 20.90647
1216.312, 20.57866
1216.794, 19.79657
1217.276, 19.45655
1217.758, 19.78464
1218.240, 20.09763
1218.722, 20.05769
1219.204, 19.89104
1219.686, 19.82668
1220.168, 19.87986
1220.651, 20.17656
1221.133, 20.61727
1221.615, 20.77201
1222.097, 20.68345
1222.579, 20.58161
1223.061, 20.52206
1223.543, 20.49596
1224.025, 20.49896
1224.508, 20.53773
1224.990, 20.68000
1225.472, 20.78353
1225.954, 20.66994
1226.436, 20.46853
1226.918, 20.31154
1227.400, 20.18505
1227.882, 19.94125
1228.365, 19.66662
1228.847, 19.86141
1229.329, 20.89481
1229.811, 21.41409
1230.293, 20.53219
1230.775, 19.79625
1231.257, 19.87897
1231.739, 20.08127
1232.221, 19.86700
1232.703, 19.57971
1233.186, 19.74048
1233.668, 20.24709
1234.150, 20.39753
1234.632, 20.07817
1235.114, 19.83245
1235.596, 19.64789
1236.078, 19.66429
1236.560, 19.96181
1237.043, 20.08259
1237.525, 19.71965
1238.007, 19.35562
1238.489, 19.68068
1238.971, 20.38507
1239.453, 20.65065
1239.935, 20.56387
1240.417, 20.28724
1240.900, 19.93522
1241.382, 19.86884
1241.864, 20.10437
1242.346, 20.29600
1242.828, 20.27279
1243.310, 20.25519
1243.792, 20.51509
1244.274, 20.73751
1244.756, 20.60968
1245.239, 20.38210
1245.721, 20.18836
1246.203, 20.12718
1246.685, 20.46119
1247.167, 21.06999
1247.649, 21.25094
1248.131, 20.68423
1248.613, 20.36142
1249.095, 20.75074
1249.578, 20.83988
1250.060, 20.13980
1250.542, 19.62202
1251.024, 19.85375
1251.506, 20.37932
1251.988, 20.65152
1252.470, 20.76406
1252.952, 21.15493
1253.435, 21.84284
1253.917, 22.00922
1254.399, 21.66251
1254.881, 21.32970
1255.363, 21.12636
1255.845, 21.25516
1256.327, 21.79550
1256.809, 22.15778
1257.292, 21.66913
1257.774, 20.97732
1258.256, 21.02356
1258.738, 21.38920
1259.220, 21.48978
1259.702, 21.45863
1260.184, 21.70093
1260.666, 22.07644
1261.148, 21.91760
1261.630, 21.03711
1262.113, 20.51859
1262.595, 21.18196
1263.077, 21.62379
1263.559, 21.04373
1264.041, 20.65084
1264.523, 21.41233
1265.005, 22.25296
1265.487, 22.14362
1265.970, 21.47943
1266.452, 21.16840
1266.934, 21.21643
1267.416, 21.15921
1267.898, 20.96618
1268.380, 20.91373
1268.862, 21.03414
1269.344, 21.15890
1269.827, 21.23297
1270.309, 21.50513
1270.791, 22.19630
1271.273, 22.82247
1271.755, 22.57788
1272.237, 21.88938
1272.719, 21.32744
1273.201, 21.02750
1273.683, 21.43502
1274.166, 22.24276
1274.648, 22.75735
1275.130, 22.85612
1275.612, 22.78624
1276.094, 22.60005
1276.576, 22.42276
1277.058, 22.27439
1277.540, 22.18576
1278.022, 22.15448
1278.505, 22.20275
1278.987, 22.46036
1279.469, 22.71414
1279.951, 22.69881
1280.433, 22.47599
1280.915, 22.28440
1281.397, 22.11438
1281.879, 22.10857
1282.362, 22.28607
1282.844, 22.37288
1283.326, 22.32218
1283.808, 22.49944
1284.290, 23.05216
1284.772, 23.46570
1285.254, 23.31758
1285.736, 22.60907
##END=



