##NAMES=Gaspeite
##RRUFFID=R040157
##IDEAL CHEMISTRY=Ni^2+^CO_3_
##LOCALITY=Lemieux Township, Gaspe Nord County, Gaspe Peninsula, Quebec, Canada
##OWNER=RRUFF
##SOURCE=University of Arizona Mineral Museum
##DESCRIPTION=Green massive
##STATUS=The identification of this mineral has been confirmed by X-ray diffraction and chemical analysis
##URL=rruff.info/R040157
##MEASURED CHEMISTRY=(Ni_0.54_Mg_0.31_Fe_0.15_Ca_0.01_Co_0.01_)C_1.00_O_3_; = the gray bands. Light grey bands are also gaspeite: (Ni_0.57_Mg_0.41_Fe_0.08_)C_0.97_O_3_; Dark grey bands, magnesite: (Mg_0.98_Fe_0.04_Ni_0.03_)C_0.97_O_3_
188.9978, 23533.96
189.4800, 23614.79
189.9621, 23711.57
190.4442, 23796.47
190.9263, 23856.85
191.4084, 23897.24
191.8905, 23927.18
192.3727, 23940.73
192.8548, 23953.93
193.3369, 23962.66
193.8190, 23975.50
194.3011, 24002.86
194.7832, 24049.06
195.2654, 24105.54
195.7475, 24151.97
196.2296, 24176.45
196.7117, 24214.60
197.1938, 24281.10
197.6759, 24355.37
198.1581, 24419.72
198.6402, 24468.36
199.1223, 24506.89
199.6044, 24545.20
200.0865, 24583.28
200.5686, 24621.33
201.0508, 24664.51
201.5329, 24704.79
202.0150, 24732.61
202.4971, 24746.39
202.9792, 24756.05
203.4613, 24777.03
203.9435, 24810.89
204.4256, 24853.67
204.9077, 24929.52
205.3898, 24996.48
205.8719, 25017.94
206.3540, 24990.40
206.8362, 24946.77
207.3183, 24932.15
207.8004, 24957.92
208.2825, 24985.27
208.7646, 25007.18
209.2467, 25035.35
209.7289, 25083.58
210.2110, 25149.34
210.6931, 25213.49
211.1752, 25252.03
211.6573, 25256.67
212.1395, 25264.97
212.6216, 25267.71
213.1037, 25281.34
213.5858, 25317.40
214.0679, 25373.65
214.5500, 25438.56
215.0322, 25501.28
215.5143, 25561.07
215.9964, 25622.73
216.4785, 25685.58
216.9606, 25751.19
217.4427, 25824.03
217.9249, 25901.04
218.4070, 25974.80
218.8891, 26038.79
219.3712, 26092.79
219.8533, 26145.57
220.3354, 26211.27
220.8176, 26261.38
221.2997, 26279.79
221.7818, 26276.33
222.2639, 26269.17
222.7460, 26269.04
223.2281, 26276.77
223.7103, 26301.15
224.1924, 26362.90
224.6745, 26419.82
225.1566, 26476.27
225.6387, 26520.09
226.1208, 26531.28
226.6030, 26495.42
227.0851, 26424.71
227.5672, 26371.43
228.0493, 26359.44
228.5314, 26332.28
229.0135, 26273.47
229.4957, 26198.19
229.9778, 26120.29
230.4599, 26045.43
230.9420, 25978.43
231.4241, 25932.10
231.9062, 25919.22
232.3884, 25906.72
232.8705, 25887.66
233.3526, 25868.45
233.8347, 25854.30
234.3168, 25847.01
234.7989, 25845.11
235.2811, 25846.33
235.7632, 25851.24
236.2453, 25858.23
236.7274, 25861.51
237.2095, 25870.29
237.6916, 25895.59
238.1738, 25937.42
238.6559, 25981.00
239.1380, 26004.54
239.6201, 25998.46
240.1022, 26008.29
240.5843, 26063.99
241.0665, 26112.70
241.5486, 26120.28
242.0307, 26091.28
242.5128, 26060.24
242.9949, 26062.51
243.4770, 26101.44
243.9592, 26133.95
244.4413, 26162.62
244.9234, 26181.50
245.4055, 26184.30
245.8876, 26174.94
246.3697, 26163.14
246.8519, 26155.74
247.3340, 26152.07
247.8161, 26145.64
248.2982, 26127.31
248.7803, 26119.31
249.2624, 26138.26
249.7446, 26170.10
250.2267, 26190.14
250.7088, 26180.51
251.1909, 26155.78
251.6730, 26161.19
252.1551, 26214.67
252.6373, 26262.27
253.1194, 26289.13
253.6015, 26300.99
254.0836, 26300.84
254.5657, 26287.74
255.0478, 26270.74
255.5300, 26264.25
256.0121, 26270.09
256.4942, 26279.75
256.9763, 26297.61
257.4584, 26314.51
257.9406, 26320.14
258.4227, 26311.84
258.9048, 26305.91
259.3869, 26321.86
259.8690, 26360.71
260.3511, 26398.81
260.8333, 26436.86
261.3154, 26468.03
261.7975, 26487.17
262.2796, 26494.43
262.7617, 26495.92
263.2438, 26488.09
263.7260, 26475.11
264.2081, 26485.76
264.6902, 26541.74
265.1723, 26592.31
265.6544, 26590.31
266.1365, 26550.82
266.6187, 26523.90
267.1008, 26551.62
267.5829, 26604.53
268.0650, 26612.50
268.5471, 26559.27
269.0292, 26509.02
269.5114, 26515.41
269.9935, 26554.44
270.4756, 26587.57
270.9577, 26598.94
271.4398, 26605.24
271.9219, 26628.08
272.4041, 26668.12
272.8862, 26705.97
273.3683, 26746.06
273.8504, 26769.00
274.3325, 26736.49
274.8146, 26608.62
275.2968, 26494.55
275.7789, 26480.82
276.2610, 26546.58
276.7431, 26605.23
277.2252, 26622.92
277.7073, 26624.88
278.1895, 26656.55
278.6716, 26724.46
279.1537, 26784.68
279.6358, 26823.90
280.1179, 26844.54
280.6000, 26843.54
281.0822, 26816.68
281.5643, 26790.34
282.0464, 26800.05
282.5285, 26849.13
283.0106, 26890.68
283.4927, 26917.52
283.9749, 26935.85
284.4570, 26951.02
284.9391, 26963.50
285.4212, 26970.49
285.9033, 26965.97
286.3854, 26951.08
286.8676, 26957.85
287.3497, 27017.61
287.8318, 27066.73
288.3139, 27068.19
288.7960, 27033.33
289.2781, 26993.91
289.7603, 26966.92
290.2424, 26949.68
290.7245, 26931.70
291.2066, 26899.59
291.6887, 26883.07
292.1708, 26896.09
292.6530, 26923.84
293.1351, 26947.02
293.6172, 26958.98
294.0993, 26968.62
294.5814, 26993.36
295.0635, 27056.81
295.5457, 27088.90
296.0278, 27067.98
296.5099, 27033.74
296.9920, 27012.45
297.4741, 27007.58
297.9562, 27007.95
298.4384, 26999.34
298.9205, 26976.51
299.4026, 26982.63
299.8847, 27059.56
300.3668, 27122.83
300.8489, 27130.65
301.3311, 27102.05
301.8131, 27080.52
302.2953, 27095.11
302.7774, 27139.35
303.2595, 27181.40
303.7416, 27227.85
304.2237, 27260.99
304.7058, 27272.01
305.1880, 27271.77
305.6701, 27269.77
306.1522, 27269.27
306.6343, 27273.01
307.1164, 27289.18
307.5985, 27324.47
308.0807, 27346.96
308.5628, 27319.85
309.0449, 27300.22
309.5270, 27332.49
310.0091, 27416.81
310.4912, 27504.94
310.9734, 27556.03
311.4555, 27572.78
311.9376, 27582.05
312.4197, 27580.15
312.9018, 27578.54
313.3839, 27579.37
313.8661, 27585.36
314.3482, 27604.51
314.8303, 27649.08
315.3124, 27705.23
315.7945, 27743.02
316.2766, 27756.80
316.7588, 27786.24
317.2409, 27875.65
317.7230, 27986.14
318.2051, 28049.59
318.6872, 28035.58
319.1693, 28012.48
319.6515, 28026.78
320.1336, 28074.14
320.6157, 28133.84
321.0978, 28195.34
321.5799, 28271.68
322.0620, 28398.12
322.5442, 28585.54
323.0263, 28743.57
323.5084, 28818.01
323.9905, 28861.57
324.4726, 28948.06
324.9547, 29090.04
325.4369, 29240.94
325.9190, 29356.13
326.4011, 29431.19
326.8832, 29512.61
327.3653, 29606.91
327.8474, 29701.69
328.3296, 29781.10
328.8117, 29854.05
329.2938, 29950.77
329.7759, 30093.64
330.2580, 30266.92
330.7401, 30394.53
331.2223, 30462.49
331.7044, 30502.03
332.1865, 30500.25
332.6686, 30478.96
333.1507, 30466.08
333.6328, 30468.52
334.1150, 30464.10
334.5971, 30416.16
335.0792, 30303.67
335.5613, 30204.56
336.0434, 30131.82
336.5255, 30059.52
337.0077, 29983.46
337.4898, 29897.73
337.9719, 29789.81
338.4540, 29647.07
338.9361, 29473.19
339.4182, 29300.12
339.9004, 29123.53
340.3825, 28956.61
340.8646, 28797.21
341.3467, 28649.65
341.8288, 28519.63
342.3109, 28408.79
342.7931, 28315.66
343.2752, 28245.06
343.7573, 28201.80
344.2394, 28144.64
344.7215, 28040.50
345.2036, 27937.82
345.6858, 27879.75
346.1679, 27867.23
346.6500, 27858.19
347.1321, 27820.06
347.6142, 27765.29
348.0963, 27727.38
348.5785, 27710.03
349.0606, 27708.53
349.5427, 27735.19
350.0248, 27776.89
350.5069, 27792.31
350.9890, 27747.26
351.4712, 27694.66
351.9533, 27681.41
352.4354, 27700.97
352.9175, 27718.59
353.3996, 27718.61
353.8817, 27705.88
354.3639, 27692.45
354.8460, 27680.64
355.3281, 27663.98
355.8102, 27637.79
356.2923, 27607.46
356.7744, 27578.53
357.2566, 27552.31
357.7387, 27529.57
358.2208, 27510.54
358.7029, 27494.23
359.1850, 27488.62
359.6671, 27506.61
360.1493, 27520.90
360.6314, 27518.65
361.1135, 27503.12
361.5956, 27480.53
362.0777, 27452.93
362.5598, 27426.11
363.0420, 27424.11
363.5241, 27482.96
364.0062, 27507.31
364.4883, 27456.20
364.9704, 27388.64
365.4525, 27355.61
365.9347, 27367.12
366.4168, 27394.55
366.8989, 27404.89
367.3810, 27396.58
367.8631, 27398.96
368.3452, 27418.96
368.8274, 27443.47
369.3095, 27472.21
369.7916, 27500.16
370.2737, 27515.56
370.7558, 27510.70
371.2379, 27492.00
371.7201, 27462.34
372.2022, 27418.41
372.6843, 27396.75
373.1664, 27426.56
373.6485, 27480.15
374.1306, 27512.69
374.6128, 27516.41
375.0949, 27522.40
375.5770, 27563.94
376.0591, 27616.13
376.5412, 27616.69
377.0233, 27546.64
377.5055, 27474.35
377.9876, 27474.62
378.4697, 27557.01
378.9518, 27618.29
379.4339, 27677.07
379.9160, 27696.52
380.3982, 27624.04
380.8803, 27490.67
381.3624, 27380.94
381.8445, 27341.17
382.3266, 27353.78
382.8087, 27365.61
383.2909, 27374.70
383.7730, 27385.55
384.2551, 27408.99
384.7372, 27427.30
385.2193, 27419.10
385.7014, 27385.23
386.1836, 27351.12
386.6657, 27345.36
387.1478, 27369.85
387.6299, 27386.86
388.1120, 27400.17
388.5941, 27400.25
389.0763, 27371.54
389.5584, 27331.05
390.0405, 27305.64
390.5226, 27307.81
391.0047, 27325.96
391.4868, 27344.56
391.9690, 27364.10
392.4511, 27378.69
392.9332, 27385.97
393.4153, 27387.92
393.8974, 27382.93
394.3795, 27371.32
394.8617, 27368.38
395.3438, 27392.14
395.8259, 27425.70
396.3080, 27437.96
396.7901, 27425.19
397.2722, 27410.27
397.7544, 27409.40
398.2365, 27419.87
398.7186, 27425.28
399.2007, 27437.31
399.6828, 27431.59
400.1649, 27370.99
400.6471, 27292.79
401.1292, 27267.80
401.6113, 27319.56
402.0934, 27398.10
402.5755, 27428.61
403.0576, 27388.69
403.5398, 27367.21
404.0219, 27384.01
404.5040, 27398.00
404.9861, 27387.37
405.4682, 27356.02
405.9503, 27316.97
406.4325, 27277.22
406.9146, 27238.70
407.3967, 27207.95
407.8788, 27181.71
408.3609, 27170.87
408.8430, 27184.70
409.3252, 27208.54
409.8073, 27237.21
410.2894, 27268.04
410.7715, 27286.94
411.2536, 27273.21
411.7357, 27234.46
412.2179, 27213.41
412.7000, 27221.28
413.1821, 27226.53
413.6642, 27190.71
414.1463, 27137.77
414.6284, 27119.85
415.1106, 27173.54
415.5927, 27231.69
416.0748, 27237.05
416.5569, 27205.78
417.0390, 27188.22
417.5211, 27202.35
418.0033, 27233.39
418.4854, 27261.46
418.9675, 27287.83
419.4496, 27305.08
419.9317, 27314.23
420.4138, 27312.88
420.8960, 27291.49
421.3781, 27256.98
421.8602, 27232.25
422.3423, 27234.47
422.8244, 27252.45
423.3065, 27234.17
423.7887, 27119.93
424.2708, 27064.82
424.7529, 27130.60
425.2350, 27225.28
425.7171, 27278.30
426.1992, 27278.11
426.6814, 27252.11
427.1635, 27222.46
427.6456, 27188.84
428.1277, 27145.05
428.6098, 27072.62
429.0919, 27026.33
429.5741, 27068.03
430.0562, 27144.12
430.5383, 27167.28
431.0204, 27090.80
431.5025, 27014.40
431.9846, 27045.55
432.4668, 27149.66
432.9489, 27194.56
433.4310, 27135.52
433.9131, 27046.51
434.3952, 27017.08
434.8773, 27055.11
435.3595, 27073.07
435.8416, 27050.23
436.3237, 27020.71
436.8058, 26993.99
437.2879, 26977.66
437.7701, 26994.19
438.2522, 27058.33
438.7343, 27140.62
439.2164, 27162.54
439.6985, 27070.25
440.1806, 27012.94
440.6628, 27014.81
441.1449, 27030.26
441.6270, 27032.39
442.1091, 27020.19
442.5912, 27004.30
443.0733, 26988.76
443.5555, 26977.38
444.0376, 26991.07
444.5197, 27045.02
445.0018, 27081.31
445.4839, 27054.06
445.9660, 27010.46
446.4482, 27002.16
446.9303, 27040.76
447.4124, 27072.39
447.8945, 27057.55
448.3766, 27013.63
448.8587, 26976.66
449.3409, 26951.64
449.8230, 26927.27
450.3051, 26892.15
450.7872, 26848.74
451.2693, 26820.08
451.7514, 26811.56
452.2336, 26810.23
452.7157, 26814.74
453.1978, 26822.94
453.6799, 26835.02
454.1620, 26850.13
454.6441, 26860.13
455.1263, 26852.60
455.6084, 26823.00
456.0905, 26801.84
456.5726, 26772.19
457.0547, 26770.05
457.5368, 26843.83
458.0190, 26943.82
458.5011, 26983.68
458.9832, 26919.07
459.4653, 26820.86
459.9474, 26799.91
460.4295, 26857.86
460.9117, 26883.19
461.3938, 26838.28
461.8759, 26777.02
462.3580, 26745.51
462.8401, 26739.53
463.3222, 26739.19
463.8044, 26737.40
464.2865, 26740.26
464.7686, 26757.39
465.2507, 26784.96
465.7328, 26807.97
466.2149, 26819.90
466.6971, 26823.94
467.1792, 26825.22
467.6613, 26816.87
468.1434, 26821.38
468.6255, 26858.91
469.1076, 26891.67
469.5898, 26890.47
470.0719, 26863.09
470.5540, 26837.77
471.0361, 26833.63
471.5182, 26839.81
472.0003, 26819.07
472.4825, 26753.09
472.9646, 26710.60
473.4467, 26736.82
473.9288, 26769.53
474.4109, 26760.75
474.8930, 26713.13
475.3752, 26676.41
475.8573, 26696.38
476.3394, 26738.55
476.8215, 26738.10
477.3036, 26693.24
477.7857, 26651.71
478.2679, 26637.85
478.7500, 26641.98
479.2321, 26642.73
479.7142, 26645.43
480.1963, 26633.21
480.6784, 26578.48
481.1606, 26523.80
481.6427, 26515.09
482.1248, 26549.26
482.6069, 26588.04
483.0890, 26603.72
483.5711, 26599.18
484.0533, 26589.39
484.5354, 26563.28
485.0175, 26550.73
485.4996, 26570.78
485.9817, 26593.96
486.4638, 26587.43
486.9460, 26552.85
487.4281, 26532.01
487.9102, 26575.66
488.3923, 26657.30
488.8744, 26695.15
489.3565, 26684.56
489.8387, 26650.91
490.3208, 26587.02
490.8029, 26518.46
491.2850, 26499.34
491.7671, 26548.17
492.2492, 26591.74
492.7314, 26608.79
493.2135, 26605.69
493.6956, 26582.09
494.1777, 26542.04
494.6598, 26503.29
495.1419, 26478.67
495.6241, 26467.44
496.1062, 26464.55
496.5883, 26477.50
497.0704, 26488.58
497.5525, 26513.57
498.0346, 26524.27
498.5168, 26480.40
498.9989, 26388.23
499.4810, 26309.83
499.9631, 26299.62
500.4452, 26343.90
500.9273, 26400.36
501.4095, 26478.29
501.8916, 26528.58
502.3737, 26520.93
502.8558, 26477.02
503.3379, 26431.27
503.8200, 26382.84
504.3022, 26339.31
504.7843, 26295.48
505.2664, 26262.82
505.7485, 26263.25
506.2306, 26293.33
506.7127, 26320.63
507.1949, 26321.88
507.6770, 26305.49
508.1591, 26308.77
508.6412, 26355.92
509.1233, 26387.47
509.6054, 26401.07
510.0876, 26398.29
510.5697, 26365.91
511.0518, 26314.08
511.5339, 26281.81
512.0161, 26308.18
512.4982, 26367.14
512.9803, 26383.55
513.4624, 26350.15
513.9445, 26317.36
514.4266, 26302.82
514.9088, 26297.17
515.3909, 26288.43
515.8730, 26276.50
516.3551, 26263.06
516.8372, 26242.19
517.3193, 26224.77
517.8015, 26229.37
518.2836, 26248.76
518.7657, 26249.56
519.2478, 26211.60
519.7299, 26155.71
520.2120, 26133.31
520.6942, 26172.19
521.1763, 26191.53
521.6584, 26178.72
522.1405, 26160.62
522.6226, 26153.27
523.1047, 26152.59
523.5869, 26144.65
524.0690, 26120.07
524.5511, 26089.18
525.0332, 26065.53
525.5153, 26049.17
525.9974, 26050.00
526.4796, 26080.41
526.9617, 26112.41
527.4438, 26112.61
527.9259, 26084.93
528.4080, 26059.02
528.8901, 26027.87
529.3723, 26010.53
529.8544, 26029.73
530.3365, 26068.68
530.8186, 26098.08
531.3007, 26107.60
531.7828, 26097.93
532.2650, 26067.14
532.7471, 26010.26
533.2292, 25962.10
533.7113, 25908.40
534.1934, 25881.46
534.6755, 25909.14
535.1577, 25961.91
535.6398, 26000.44
536.1219, 26013.08
536.6040, 26015.67
537.0861, 26018.01
537.5682, 26021.95
538.0504, 26039.28
538.5325, 26074.76
539.0146, 26097.28
539.4967, 26084.42
539.9788, 26039.92
540.4609, 25984.52
540.9431, 25893.67
541.4252, 25825.88
541.9073, 25800.26
542.3894, 25798.16
542.8715, 25811.65
543.3536, 25833.18
543.8358, 25843.29
544.3179, 25823.39
544.8000, 25782.62
545.2821, 25762.49
545.7642, 25770.85
546.2463, 25778.55
546.7285, 25787.15
547.2106, 25785.28
547.6927, 25750.64
548.1748, 25688.22
548.6569, 25652.86
549.1390, 25697.93
549.6211, 25761.45
550.1032, 25773.68
550.5853, 25742.52
551.0674, 25706.93
551.5496, 25681.54
552.0317, 25661.70
552.5138, 25639.30
552.9959, 25611.37
553.4780, 25591.04
553.9601, 25571.59
554.4423, 25565.53
554.9244, 25598.33
555.4065, 25641.51
555.8886, 25647.16
556.3707, 25596.92
556.8528, 25529.44
557.3350, 25476.47
557.8171, 25441.95
558.2992, 25471.52
558.7813, 25593.33
559.2634, 25703.32
559.7455, 25730.10
560.2277, 25691.21
560.7098, 25651.16
561.1919, 25605.56
561.6740, 25567.26
562.1561, 25543.84
562.6382, 25527.56
563.1204, 25507.53
563.6025, 25484.83
564.0846, 25472.84
564.5667, 25483.86
565.0488, 25508.44
565.5309, 25507.54
566.0131, 25469.67
566.4952, 25435.28
566.9773, 25401.90
567.4594, 25382.09
567.9415, 25397.64
568.4236, 25438.33
568.9058, 25458.17
569.3879, 25424.02
569.8700, 25372.98
570.3521, 25336.97
570.8342, 25315.07
571.3163, 25308.13
571.7985, 25317.78
572.2806, 25327.87
572.7627, 25316.35
573.2448, 25278.69
573.7269, 25262.40
574.2090, 25267.56
574.6912, 25292.59
575.1733, 25365.73
575.6554, 25443.60
576.1375, 25477.81
576.6196, 25458.46
577.1017, 25412.85
577.5839, 25347.57
578.0660, 25276.02
578.5481, 25250.61
579.0302, 25277.31
579.5123, 25304.68
579.9944, 25312.96
580.4766, 25305.17
580.9587, 25281.59
581.4408, 25234.49
581.9229, 25205.41
582.4050, 25202.07
582.8871, 25216.85
583.3693, 25272.02
583.8514, 25337.87
584.3335, 25348.43
584.8156, 25272.83
585.2977, 25160.21
585.7798, 25081.76
586.2620, 25038.16
586.7441, 25027.20
587.2262, 25066.99
587.7083, 25109.42
588.1904, 25137.05
588.6725, 25146.77
589.1547, 25126.34
589.6368, 25058.64
590.1189, 25001.87
590.6010, 24996.30
591.0831, 25010.68
591.5652, 25001.69
592.0474, 24969.52
592.5295, 24943.83
593.0116, 24944.60
593.4937, 24965.09
593.9758, 24987.23
594.4579, 25020.82
594.9401, 25032.48
595.4222, 24996.98
595.9043, 24959.03
596.3864, 24940.53
596.8685, 24937.40
597.3506, 24935.35
597.8328, 24924.33
598.3149, 24922.28
598.7970, 24958.97
599.2791, 25016.18
599.7612, 25046.79
600.2433, 25041.78
600.7255, 25015.14
601.2076, 24972.94
601.6897, 24920.01
602.1718, 24896.22
602.6539, 24928.89
603.1360, 24954.28
603.6182, 24968.74
604.1003, 24973.49
604.5824, 24970.68
605.0645, 24959.36
605.5466, 24934.51
606.0287, 24886.88
606.5109, 24832.74
606.9930, 24789.72
607.4751, 24759.52
607.9572, 24764.00
608.4393, 24817.77
608.9214, 24870.97
609.4036, 24869.06
609.8857, 24811.70
610.3678, 24777.47
610.8499, 24786.92
611.3320, 24791.23
611.8141, 24770.64
612.2963, 24744.86
612.7784, 24739.91
613.2605, 24754.17
613.7426, 24758.96
614.2247, 24728.12
614.7068, 24676.18
615.1890, 24633.88
615.6711, 24600.66
616.1532, 24592.69
616.6353, 24623.05
617.1174, 24665.69
617.5995, 24696.63
618.0817, 24715.64
618.5638, 24712.82
619.0459, 24663.46
619.5280, 24620.37
620.0101, 24607.12
620.4922, 24610.04
620.9744, 24620.07
621.4565, 24630.29
621.9386, 24618.64
622.4207, 24548.14
622.9028, 24447.19
623.3849, 24446.83
623.8671, 24571.23
624.3492, 24652.79
624.8313, 24624.80
625.3134, 24551.19
625.7955, 24501.15
626.2776, 24473.16
626.7598, 24455.42
627.2419, 24447.44
627.7240, 24448.29
628.2061, 24470.35
628.6882, 24495.87
629.1703, 24494.29
629.6525, 24461.63
630.1346, 24426.11
630.6167, 24418.30
631.0988, 24430.95
631.5809, 24420.03
632.0630, 24377.52
632.5452, 24342.55
633.0273, 24327.31
633.5094, 24324.31
633.9915, 24332.04
634.4736, 24349.37
634.9557, 24347.42
635.4379, 24294.90
635.9200, 24248.65
636.4021, 24238.76
636.8842, 24256.76
637.3663, 24297.35
637.8484, 24354.57
638.3306, 24405.19
638.8127, 24428.82
639.2948, 24425.11
639.7769, 24382.16
640.2590, 24280.75
640.7411, 24207.97
641.2233, 24194.51
641.7054, 24215.29
642.1875, 24264.03
642.6696, 24335.25
643.1517, 24352.50
643.6339, 24236.18
644.1160, 24130.25
644.5981, 24135.92
645.0802, 24194.27
645.5623, 24213.13
646.0444, 24174.30
646.5266, 24122.05
647.0087, 24097.23
647.4908, 24093.67
647.9729, 24081.04
648.4550, 24055.69
648.9371, 24036.44
649.4193, 24030.11
649.9014, 24029.41
650.3835, 24028.06
650.8656, 24026.14
651.3477, 24024.09
651.8298, 24026.82
652.3120, 24023.95
652.7941, 24004.38
653.2762, 23979.30
653.7583, 23971.74
654.2404, 23979.69
654.7225, 23966.93
655.2047, 23894.85
655.6868, 23792.46
656.1689, 23762.89
656.6510, 23817.79
657.1331, 23876.45
657.6152, 23932.67
658.0974, 23972.80
658.5795, 23979.87
659.0616, 23958.84
659.5437, 23929.14
660.0258, 23878.38
660.5079, 23836.70
660.9901, 23821.35
661.4722, 23815.67
661.9543, 23805.46
662.4364, 23787.36
662.9185, 23757.62
663.4006, 23709.75
663.8828, 23660.31
664.3649, 23649.27
664.8470, 23677.89
665.3291, 23703.78
665.8112, 23721.89
666.2933, 23733.06
666.7755, 23736.14
667.2576, 23732.55
667.7397, 23729.69
668.2218, 23736.37
668.7039, 23729.60
669.1860, 23686.14
669.6682, 23643.07
670.1503, 23633.83
670.6324, 23650.67
671.1145, 23666.22
671.5966, 23667.39
672.0787, 23658.55
672.5609, 23638.26
673.0430, 23610.45
673.5251, 23609.48
674.0072, 23644.37
674.4893, 23670.24
674.9714, 23653.82
675.4536, 23615.57
675.9357, 23610.30
676.4178, 23660.45
676.8999, 23694.57
677.3820, 23702.33
677.8641, 23702.42
678.3463, 23702.38
678.8284, 23702.08
679.3105, 23701.93
679.7926, 23702.04
680.2747, 23694.21
680.7568, 23652.39
681.2390, 23601.49
681.7211, 23626.24
682.2032, 23722.82
682.6853, 23755.86
683.1674, 23654.91
683.6495, 23502.19
684.1317, 23426.68
684.6138, 23446.47
685.0959, 23448.98
685.5780, 23415.58
686.0601, 23387.09
686.5422, 23376.83
687.0244, 23374.07
687.5065, 23367.37
687.9886, 23355.44
688.4707, 23344.59
688.9528, 23354.41
689.4349, 23354.90
689.9171, 23286.97
690.3992, 23181.28
690.8813, 23136.14
691.3634, 23177.22
691.8455, 23240.87
692.3276, 23264.45
692.8098, 23252.04
693.2919, 23237.07
693.7740, 23212.68
694.2561, 23201.19
694.7382, 23218.90
695.2203, 23239.91
695.7025, 23245.55
696.1846, 23239.24
696.6667, 23234.93
697.1488, 23235.75
697.6309, 23239.76
698.1130, 23262.27
698.5952, 23278.08
699.0773, 23243.66
699.5594, 23166.46
700.0415, 23098.35
700.5236, 23072.01
701.0057, 23068.00
701.4879, 23037.63
701.9700, 22977.36
702.4521, 22971.21
702.9342, 23049.47
703.4163, 23122.95
703.8984, 23132.58
704.3806, 23103.96
704.8627, 23103.33
705.3448, 23151.98
705.8269, 23165.87
706.3090, 23104.81
706.7911, 23034.62
707.2733, 22984.28
707.7554, 22955.52
708.2375, 22954.94
708.7196, 22982.12
709.2017, 23002.64
709.6838, 22967.30
710.1660, 22904.51
710.6481, 22903.25
711.1302, 22958.91
711.6123, 22961.37
712.0944, 22858.39
712.5765, 22746.69
713.0587, 22760.17
713.5408, 22909.36
714.0229, 22957.26
714.5050, 22784.74
714.9871, 22673.25
715.4692, 22713.68
715.9514, 22793.40
716.4335, 22826.53
716.9156, 22813.22
717.3977, 22794.60
717.8798, 22791.78
718.3619, 22782.38
718.8441, 22729.79
719.3262, 22665.74
719.8083, 22655.45
720.2904, 22698.89
720.7725, 22734.29
721.2546, 22718.55
721.7368, 22674.68
722.2189, 22660.94
722.7010, 22683.71
723.1831, 22691.15
723.6652, 22670.96
724.1473, 22652.11
724.6295, 22655.92
725.1116, 22669.92
725.5937, 22665.80
726.0758, 22634.07
726.5579, 22617.54
727.0400, 22639.85
727.5222, 22663.26
728.0043, 22662.38
728.4864, 22648.46
728.9685, 22641.75
729.4506, 22647.44
729.9327, 22655.09
730.4149, 22657.40
730.8970, 22654.11
731.3791, 22637.95
731.8612, 22611.82
732.3433, 22608.82
732.8254, 22642.32
733.3076, 22675.76
733.7897, 22668.54
734.2718, 22625.00
734.7539, 22602.87
735.2360, 22615.88
735.7181, 22627.41
736.2003, 22630.30
736.6824, 22633.34
737.1645, 22650.68
737.6466, 22672.23
738.1287, 22667.01
738.6108, 22610.22
739.0930, 22566.23
739.5751, 22605.63
740.0572, 22654.21
740.5393, 22604.38
741.0214, 22480.80
741.5035, 22389.11
741.9857, 22379.55
742.4678, 22406.37
742.9499, 22409.41
743.4320, 22389.76
743.9141, 22357.03
744.3962, 22304.64
744.8784, 22278.98
745.3605, 22310.32
745.8426, 22358.34
746.3247, 22370.11
746.8068, 22342.74
747.2889, 22302.51
747.7711, 22232.42
748.2532, 22171.82
748.7353, 22133.59
749.2174, 22105.71
749.6995, 22076.55
750.1816, 22046.77
750.6638, 22026.03
751.1459, 22025.30
751.6280, 22023.13
752.1101, 21992.69
752.5922, 21949.20
753.0743, 21920.12
753.5565, 21908.65
754.0386, 21857.51
754.5207, 21920.28
755.0028, 21949.36
755.4849, 21946.54
755.9670, 21816.34
756.4492, 21850.64
756.9313, 21819.01
757.4134, 21784.68
757.8955, 21842.13
758.3776, 21730.45
758.8597, 21786.45
759.3419, 21775.51
759.8240, 21795.21
760.3061, 21748.57
760.7882, 21722.42
761.2703, 21762.62
761.7524, 21766.09
762.2346, 21711.81
762.7167, 21733.46
763.1988, 21619.46
763.6809, 21635.95
764.1630, 21646.65
764.6451, 21624.12
765.1273, 21585.46
765.6094, 21577.49
766.0915, 21603.95
766.5736, 21633.20
767.0557, 21646.53
767.5378, 21646.95
768.0200, 21641.69
768.5021, 21632.20
768.9842, 21606.16
769.4663, 21553.23
769.9484, 21505.39
770.4305, 21473.73
770.9127, 21456.70
771.3948, 21458.94
771.8769, 21483.76
772.3590, 21484.56
772.8411, 21427.64
773.3232, 21379.85
773.8054, 21359.91
774.2875, 21366.67
774.7696, 21422.06
775.2517, 21507.31
775.7338, 21547.51
776.2159, 21491.19
776.6981, 21395.29
777.1802, 21303.36
777.6623, 21225.47
778.1444, 21193.69
778.6265, 21206.45
779.1086, 21223.29
779.5908, 21222.19
780.0729, 21207.93
780.5550, 21182.25
781.0371, 21140.35
781.5192, 21144.20
782.0013, 21221.83
782.4835, 21268.73
782.9656, 21224.72
783.4477, 21150.37
783.9298, 21126.68
784.4119, 21154.98
784.8940, 21167.23
785.3762, 21150.80
785.8583, 21130.71
786.3404, 21109.44
786.8225, 21090.62
787.3046, 21077.87
787.7867, 21070.13
788.2689, 21062.86
788.7510, 21053.40
789.2331, 21046.25
789.7152, 21051.12
790.1973, 21057.63
790.6794, 21043.56
791.1616, 21013.78
791.6437, 20995.91
792.1258, 21001.77
792.6079, 21015.50
793.0900, 21017.02
793.5721, 21006.90
794.0543, 20989.58
794.5364, 20963.66
795.0185, 20939.03
795.5006, 20919.14
795.9827, 20899.26
796.4648, 20868.87
796.9470, 20831.62
797.4291, 20827.77
797.9112, 20903.38
798.3933, 20946.25
798.8754, 20935.74
799.3575, 20906.92
799.8397, 20877.01
800.3218, 20844.15
800.8039, 20795.63
801.2860, 20723.28
801.7681, 20674.68
802.2502, 20695.29
802.7324, 20731.08
803.2145, 20738.38
803.6966, 20722.13
804.1787, 20686.91
804.6608, 20639.60
805.1429, 20611.40
805.6251, 20636.88
806.1072, 20687.55
806.5893, 20702.71
807.0714, 20685.69
807.5535, 20657.70
808.0356, 20621.31
808.5178, 20589.90
808.9999, 20572.42
809.4820, 20565.50
809.9641, 20561.43
810.4462, 20560.83
810.9283, 20560.45
811.4105, 20557.15
811.8926, 20559.47
812.3747, 20586.01
812.8568, 20609.57
813.3389, 20590.80
813.8210, 20529.86
814.3032, 20488.07
814.7853, 20483.54
815.2674, 20487.88
815.7495, 20503.24
816.2316, 20514.06
816.7137, 20502.33
817.1959, 20473.39
817.6780, 20445.61
818.1601, 20425.56
818.6422, 20413.70
819.1243, 20420.76
819.6064, 20430.19
820.0886, 20411.56
820.5707, 20370.95
821.0528, 20336.34
821.5349, 20317.27
822.0170, 20300.96
822.4991, 20269.29
822.9813, 20230.50
823.4634, 20226.87
823.9455, 20260.94
824.4276, 20271.99
824.9097, 20240.22
825.3918, 20214.22
825.8740, 20236.46
826.3561, 20288.07
826.8382, 20304.48
827.3203, 20268.43
827.8024, 20236.94
828.2845, 20216.43
828.7667, 20192.56
829.2488, 20142.45
829.7309, 20096.63
830.2130, 20102.87
830.6951, 20162.96
831.1772, 20198.18
831.6594, 20184.29
832.1415, 20148.58
832.6236, 20074.42
833.1057, 20005.04
833.5878, 19993.76
834.0699, 20027.92
834.5521, 20054.09
835.0342, 20048.49
835.5163, 20029.26
835.9984, 20007.90
836.4805, 19986.64
836.9626, 19969.34
837.4448, 19955.52
837.9269, 19942.66
838.4090, 19929.96
838.8911, 19918.38
839.3732, 19909.33
839.8553, 19902.05
840.3375, 19892.86
840.8196, 19881.65
841.3017, 19876.12
841.7838, 19880.02
842.2659, 19875.52
842.7480, 19843.90
843.2302, 19804.45
843.7123, 19812.51
844.1944, 19902.65
844.6765, 19921.16
845.1586, 19805.33
845.6407, 19711.47
846.1229, 19716.00
846.6050, 19749.71
847.0871, 19744.77
847.5692, 19703.33
848.0513, 19667.98
848.5334, 19630.45
849.0156, 19618.53
849.4977, 19669.11
849.9798, 19721.87
850.4619, 19723.07
850.9440, 19690.80
851.4261, 19670.59
851.9083, 19676.63
852.3904, 19690.12
852.8725, 19706.53
853.3546, 19717.66
853.8367, 19715.48
854.3188, 19701.17
854.8010, 19671.58
855.2831, 19630.32
855.7652, 19599.24
856.2473, 19597.03
856.7294, 19606.47
857.2115, 19596.22
857.6937, 19570.75
858.1758, 19550.78
858.6579, 19538.01
859.1400, 19519.22
859.6221, 19486.54
860.1042, 19457.19
860.5864, 19458.41
861.0685, 19488.73
861.5506, 19507.38
862.0327, 19513.93
862.5148, 19508.88
862.9969, 19485.70
863.4791, 19464.31
863.9612, 19466.77
864.4433, 19481.73
864.9254, 19466.66
865.4075, 19396.42
865.8896, 19348.61
866.3718, 19341.48
866.8539, 19333.72
867.3360, 19295.18
867.8181, 19258.50
868.3002, 19273.28
868.7823, 19336.68
869.2645, 19371.27
869.7466, 19331.48
870.2287, 19292.99
870.7108, 19294.09
871.1929, 19300.89
871.6750, 19278.99
872.1572, 19238.21
872.6393, 19205.30
873.1214, 19188.92
873.6035, 19185.37
874.0856, 19199.89
874.5677, 19219.17
875.0499, 19232.65
875.5320, 19237.95
876.0141, 19228.77
876.4962, 19205.89
876.9783, 19178.87
877.4604, 19153.03
877.9426, 19131.17
878.4247, 19118.54
878.9068, 19113.88
879.3889, 19115.02
879.8710, 19120.87
880.3531, 19121.11
880.8353, 19111.22
881.3174, 19099.51
881.7995, 19095.63
882.2816, 19098.74
882.7637, 19109.25
883.2458, 19132.46
883.7280, 19115.29
884.2101, 19032.28
884.6922, 18966.38
885.1743, 18982.14
885.6564, 19037.59
886.1385, 19038.01
886.6207, 18966.25
887.1028, 18916.74
887.5849, 18894.37
888.0670, 18886.81
888.5491, 18897.39
889.0313, 18916.01
889.5134, 18945.87
889.9955, 18978.61
890.4776, 18974.64
890.9597, 18899.23
891.4418, 18845.34
891.9240, 18834.17
892.4061, 18837.88
892.8882, 18850.63
893.3703, 18864.36
893.8524, 18868.24
894.3345, 18861.66
894.8167, 18856.79
895.2988, 18864.04
895.7809, 18867.46
896.2630, 18849.88
896.7451, 18830.82
897.2272, 18837.39
897.7094, 18859.54
898.1915, 18868.83
898.6736, 18855.16
899.1557, 18826.56
899.6378, 18775.46
900.1199, 18724.17
900.6021, 18704.20
901.0842, 18704.37
901.5663, 18704.59
902.0484, 18698.72
902.5305, 18678.21
903.0126, 18634.79
903.4948, 18593.17
903.9769, 18597.07
904.4590, 18631.38
904.9411, 18649.18
905.4232, 18650.05
905.9053, 18648.10
906.3875, 18648.00
906.8696, 18648.63
907.3517, 18648.55
907.8338, 18649.06
908.3159, 18660.94
908.7980, 18684.50
909.2802, 18672.13
909.7623, 18614.59
910.2444, 18552.17
910.7265, 18502.12
911.2086, 18464.05
911.6907, 18436.39
912.1729, 18419.37
912.6550, 18427.13
913.1371, 18472.18
913.6192, 18502.27
914.1013, 18506.60
914.5834, 18497.38
915.0656, 18477.00
915.5477, 18452.13
916.0298, 18438.38
916.5119, 18438.69
916.9940, 18439.29
917.4761, 18448.38
917.9583, 18446.08
918.4404, 18413.44
918.9225, 18380.04
919.4046, 18381.66
919.8867, 18403.07
920.3688, 18382.11
920.8510, 18267.99
921.3331, 18214.36
921.8152, 18308.58
922.2973, 18392.20
922.7794, 18381.29
923.2615, 18327.37
923.7437, 18284.81
924.2258, 18260.55
924.7079, 18251.21
925.1900, 18265.78
925.6721, 18278.36
926.1542, 18284.05
926.6364, 18278.32
927.1185, 18240.63
927.6006, 18195.74
928.0827, 18194.22
928.5648, 18242.28
929.0469, 18275.68
929.5291, 18243.96
930.0112, 18201.55
930.4933, 18186.39
930.9754, 18185.74
931.4575, 18192.01
931.9396, 18197.12
932.4218, 18179.79
932.9039, 18132.99
933.3860, 18096.01
933.8681, 18124.63
934.3502, 18164.38
934.8323, 18129.91
935.3145, 18057.71
935.7966, 18023.81
936.2787, 18034.71
936.7608, 18060.10
937.2429, 18085.32
937.7250, 18096.34
938.2072, 18059.23
938.6893, 18001.88
939.1714, 18001.28
939.6535, 18040.20
940.1356, 18045.46
940.6177, 18001.98
941.0999, 17935.00
941.5820, 17856.45
942.0641, 17795.84
942.5462, 17825.49
943.0283, 17923.55
943.5104, 17977.46
943.9926, 17984.28
944.4747, 17964.87
944.9568, 17924.76
945.4389, 17893.66
945.9210, 17901.35
946.4031, 17930.65
946.8853, 17928.43
947.3674, 17894.94
947.8495, 17887.92
948.3316, 17914.00
948.8137, 17932.08
949.2958, 17926.39
949.7780, 17906.65
950.2601, 17883.48
950.7422, 17855.85
951.2243, 17811.66
951.7064, 17742.40
952.1885, 17718.72
952.6707, 17761.87
953.1528, 17794.40
953.6349, 17774.49
954.1170, 17739.42
954.5991, 17743.63
955.0812, 17783.92
955.5634, 17783.56
956.0455, 17716.46
956.5276, 17693.78
957.0097, 17755.79
957.4918, 17806.71
957.9739, 17787.65
958.4561, 17735.14
958.9382, 17709.20
959.4203, 17712.34
959.9024, 17704.22
960.3845, 17674.38
960.8666, 17653.77
961.3488, 17642.09
961.8309, 17648.18
962.3130, 17698.84
962.7951, 17759.95
963.2772, 17756.88
963.7593, 17670.69
964.2415, 17621.96
964.7236, 17639.65
965.2057, 17652.74
965.6878, 17659.68
966.1699, 17648.43
966.6520, 17589.13
967.1342, 17510.82
967.6163, 17487.37
968.0984, 17543.31
968.5805, 17561.70
969.0626, 17500.23
969.5447, 17449.81
970.0269, 17438.15
970.5090, 17441.17
970.9911, 17445.24
971.4732, 17448.47
971.9553, 17444.49
972.4374, 17423.27
972.9196, 17428.98
973.4017, 17509.17
973.8838, 17564.34
974.3659, 17538.44
974.8480, 17490.38
975.3301, 17479.20
975.8123, 17490.41
976.2944, 17465.35
976.7765, 17375.00
977.2586, 17314.82
977.7407, 17325.92
978.2228, 17347.49
978.7050, 17360.14
979.1871, 17365.09
979.6692, 17366.04
980.1513, 17361.55
980.6334, 17342.52
981.1155, 17295.63
981.5977, 17270.18
982.0798, 17303.41
982.5619, 17335.22
983.0440, 17322.53
983.5261, 17301.38
984.0082, 17325.29
984.4904, 17380.04
984.9725, 17393.67
985.4546, 17328.47
985.9367, 17277.53
986.4188, 17298.87
986.9009, 17316.07
987.3831, 17272.93
987.8652, 17208.65
988.3473, 17167.10
988.8294, 17151.12
989.3115, 17147.90
989.7936, 17160.68
990.2758, 17164.95
990.7579, 17134.20
991.2400, 17109.69
991.7221, 17138.26
992.2042, 17174.98
992.6863, 17150.21
993.1685, 17075.92
993.6506, 17036.63
994.1327, 17074.88
994.6148, 17107.89
995.0969, 17096.75
995.5790, 17070.24
996.0612, 17034.83
996.5433, 17004.18
997.0254, 16995.47
997.5075, 17007.07
997.9896, 17024.38
998.4717, 17046.88
998.9539, 17060.99
999.4360, 17059.37
999.9181, 17048.38
1000.400, 17024.86
1000.882, 16999.55
1001.364, 16992.29
1001.847, 16997.17
1002.329, 16980.73
1002.811, 16921.65
1003.293, 16871.00
1003.775, 16851.96
1004.257, 16850.06
1004.739, 16860.29
1005.221, 16878.84
1005.703, 16915.80
1006.186, 16958.55
1006.668, 16957.52
1007.150, 16878.08
1007.632, 16815.02
1008.114, 16825.43
1008.596, 16851.09
1009.078, 16858.90
1009.560, 16857.10
1010.043, 16852.43
1010.525, 16849.90
1011.007, 16864.52
1011.489, 16911.29
1011.971, 16936.68
1012.453, 16898.94
1012.935, 16854.44
1013.417, 16835.59
1013.899, 16830.11
1014.382, 16830.41
1014.864, 16829.58
1015.346, 16808.50
1015.828, 16753.21
1016.310, 16716.02
1016.792, 16734.03
1017.274, 16755.24
1017.756, 16750.37
1018.239, 16735.28
1018.721, 16717.93
1019.203, 16706.74
1019.685, 16728.75
1020.167, 16805.71
1020.649, 16835.79
1021.131, 16738.89
1021.613, 16646.15
1022.095, 16612.83
1022.578, 16615.44
1023.060, 16653.67
1023.542, 16703.66
1024.024, 16706.39
1024.506, 16639.94
1024.988, 16600.05
1025.470, 16635.25
1025.952, 16670.17
1026.435, 16684.74
1026.917, 16680.88
1027.399, 16649.54
1027.881, 16604.77
1028.363, 16576.02
1028.845, 16569.43
1029.327, 16558.50
1029.809, 16522.99
1030.292, 16504.00
1030.774, 16533.04
1031.256, 16561.51
1031.738, 16554.30
1032.220, 16524.43
1032.702, 16491.89
1033.184, 16456.61
1033.666, 16442.07
1034.148, 16464.21
1034.630, 16487.49
1035.113, 16509.61
1035.595, 16527.76
1036.077, 16547.27
1036.559, 16558.27
1037.041, 16540.84
1037.523, 16493.68
1038.005, 16458.50
1038.487, 16444.55
1038.970, 16428.12
1039.452, 16397.45
1039.934, 16377.88
1040.416, 16390.42
1040.898, 16411.36
1041.380, 16410.15
1041.862, 16389.44
1042.344, 16379.87
1042.826, 16396.31
1043.309, 16389.93
1043.791, 16344.15
1044.273, 16302.88
1044.755, 16279.11
1045.237, 16271.02
1045.719, 16282.39
1046.201, 16306.32
1046.683, 16307.86
1047.166, 16272.04
1047.648, 16267.36
1048.130, 16305.64
1048.612, 16342.99
1049.094, 16370.63
1049.576, 16382.10
1050.058, 16370.32
1050.540, 16340.13
1051.022, 16298.44
1051.505, 16239.76
1051.987, 16234.65
1052.469, 16297.28
1052.951, 16318.88
1053.433, 16266.54
1053.915, 16209.79
1054.397, 16193.93
1054.879, 16205.71
1055.361, 16226.00
1055.844, 16252.36
1056.326, 16251.88
1056.808, 16224.71
1057.290, 16202.90
1057.772, 16191.78
1058.254, 16202.03
1058.736, 16241.11
1059.218, 16282.22
1059.701, 16287.23
1060.183, 16267.95
1060.665, 16262.78
1061.147, 16269.96
1061.629, 16283.57
1062.111, 16301.04
1062.593, 16309.97
1063.075, 16305.60
1063.557, 16289.77
1064.040, 16255.59
1064.522, 16229.11
1065.004, 16282.35
1065.486, 16372.29
1065.968, 16381.14
1066.450, 16326.14
1066.932, 16295.49
1067.414, 16311.97
1067.896, 16343.72
1068.379, 16369.18
1068.861, 16400.40
1069.343, 16460.30
1069.825, 16527.21
1070.307, 16567.59
1070.789, 16592.76
1071.271, 16632.26
1071.753, 16684.65
1072.236, 16717.68
1072.718, 16712.59
1073.200, 16718.45
1073.682, 16772.34
1074.164, 16850.62
1074.646, 16944.74
1075.128, 17043.72
1075.610, 17132.52
1076.093, 17215.70
1076.575, 17310.72
1077.057, 17422.86
1077.539, 17531.83
1078.021, 17605.57
1078.503, 17704.54
1078.985, 17882.63
1079.467, 18070.01
1079.949, 18207.59
1080.432, 18319.98
1080.914, 18451.98
1081.396, 18607.85
1081.878, 18769.58
1082.360, 18928.87
1082.842, 19103.01
1083.324, 19311.09
1083.806, 19514.16
1084.288, 19712.95
1084.771, 19883.52
1085.253, 19986.01
1085.735, 20033.93
1086.217, 20091.93
1086.699, 20158.07
1087.181, 20241.54
1087.663, 20366.49
1088.145, 20460.05
1088.628, 20505.96
1089.110, 20508.48
1089.592, 20457.60
1090.074, 20381.20
1090.556, 20344.04
1091.038, 20348.90
1091.520, 20317.12
1092.002, 20248.51
1092.484, 20139.57
1092.967, 19983.87
1093.449, 19829.25
1093.931, 19702.08
1094.413, 19565.64
1094.895, 19366.34
1095.377, 19126.51
1095.859, 18937.54
1096.341, 18790.54
1096.823, 18611.75
1097.306, 18400.65
1097.788, 18209.77
1098.270, 18056.24
1098.752, 17924.71
1099.234, 17806.48
1099.716, 17692.41
1100.198, 17565.92
1100.680, 17434.78
1101.163, 17315.35
1101.645, 17204.82
1102.127, 17092.52
1102.609, 16979.43
1103.091, 16877.46
1103.573, 16793.80
1104.055, 16708.17
1104.537, 16591.76
1105.020, 16479.56
1105.502, 16408.37
1105.984, 16356.78
1106.466, 16300.73
1106.948, 16240.80
1107.430, 16183.66
1107.912, 16131.19
1108.394, 16089.56
1108.876, 16069.56
1109.359, 16048.16
1109.841, 16019.81
1110.323, 15984.37
1110.805, 15934.32
1111.287, 15882.37
1111.769, 15840.96
1112.251, 15811.50
1112.733, 15798.80
1113.215, 15827.37
1113.698, 15812.27
1114.180, 15718.01
1114.662, 15632.83
1115.144, 15571.22
1115.626, 15530.47
1116.108, 15511.19
1116.590, 15509.71
1117.072, 15525.10
1117.555, 15557.59
1118.037, 15543.05
1118.519, 15468.39
1119.001, 15421.56
1119.483, 15415.12
1119.965, 15425.96
1120.447, 15448.37
1120.929, 15455.50
1121.411, 15415.47
1121.894, 15350.25
1122.376, 15319.68
1122.858, 15316.41
1123.340, 15297.11
1123.822, 15265.83
1124.304, 15259.84
1124.786, 15283.34
1125.268, 15301.93
1125.750, 15296.82
1126.233, 15267.61
1126.715, 15182.81
1127.197, 15100.38
1127.679, 15117.70
1128.161, 15182.65
1128.643, 15224.17
1129.125, 15233.97
1129.607, 15211.31
1130.090, 15160.62
1130.572, 15122.00
1131.054, 15124.49
1131.536, 15127.55
1132.018, 15102.22
1132.500, 15078.87
1132.982, 15090.92
1133.464, 15107.61
1133.947, 15077.90
1134.429, 15017.45
1134.911, 15003.54
1135.393, 15069.37
1135.875, 15099.24
1136.357, 15044.41
1136.839, 15012.83
1137.321, 15041.40
1137.803, 15069.59
1138.286, 15060.85
1138.768, 15034.93
1139.250, 15021.73
1139.732, 15018.78
1140.214, 14998.38
1140.696, 14955.26
1141.178, 14941.55
1141.660, 14965.25
1142.142, 14955.09
1142.625, 14884.79
1143.107, 14843.50
1143.589, 14908.27
1144.071, 15002.43
1144.553, 14978.45
1145.035, 14880.12
1145.517, 14840.73
1145.999, 14842.98
1146.482, 14823.92
1146.964, 14784.67
1147.446, 14774.37
1147.928, 14809.42
1148.410, 14846.04
1148.892, 14853.18
1149.374, 14846.58
1149.856, 14828.59
1150.339, 14814.45
1150.821, 14822.12
1151.303, 14842.31
1151.785, 14870.71
1152.267, 14897.47
1152.749, 14891.07
1153.231, 14836.49
1153.713, 14778.43
1154.195, 14704.57
1154.677, 14659.29
1155.160, 14682.88
1155.642, 14709.23
1156.124, 14693.15
1156.606, 14658.87
1157.088, 14637.21
1157.570, 14629.09
1158.052, 14652.16
1158.534, 14722.78
1159.017, 14741.05
1159.499, 14688.89
1159.981, 14670.75
1160.463, 14724.19
1160.945, 14759.18
1161.427, 14705.17
1161.909, 14622.49
1162.391, 14619.07
1162.874, 14668.04
1163.356, 14683.76
1163.838, 14672.43
1164.320, 14646.39
1164.802, 14612.89
1165.284, 14589.44
1165.766, 14581.00
1166.248, 14577.76
1166.730, 14575.29
1167.213, 14570.34
1167.695, 14564.92
1168.177, 14551.01
1168.659, 14498.51
1169.141, 14450.15
1169.623, 14476.99
1170.105, 14552.11
1170.587, 14580.16
1171.069, 14536.37
1171.552, 14514.34
1172.034, 14581.97
1172.516, 14590.37
1172.998, 14455.75
1173.480, 14346.83
1173.962, 14342.30
1174.444, 14386.67
1174.926, 14434.37
1175.409, 14474.63
1175.891, 14465.42
1176.373, 14403.09
1176.855, 14330.62
1177.337, 14246.14
1177.819, 14244.63
1178.301, 14341.11
1178.783, 14419.81
1179.266, 14424.46
1179.748, 14388.44
1180.230, 14333.42
1180.712, 14284.40
1181.194, 14294.22
1181.676, 14330.64
1182.158, 14339.29
1182.640, 14329.30
1183.122, 14325.75
1183.604, 14332.38
1184.087, 14345.87
1184.569, 14368.78
1185.051, 14368.92
1185.533, 14298.50
1186.015, 14247.42
1186.497, 14270.89
1186.979, 14308.15
1187.461, 14322.67
1187.944, 14321.22
1188.426, 14319.33
1188.908, 14313.64
1189.390, 14278.08
1189.872, 14189.29
1190.354, 14159.21
1190.836, 14204.88
1191.318, 14231.36
1191.801, 14215.07
1192.283, 14198.15
1192.765, 14204.84
1193.247, 14219.85
1193.729, 14225.87
1194.211, 14223.21
1194.693, 14206.44
1195.175, 14183.88
1195.657, 14177.52
1196.140, 14185.48
1196.622, 14199.92
1197.104, 14217.66
1197.586, 14238.23
1198.068, 14263.37
1198.550, 14270.21
1199.032, 14226.37
1199.514, 14183.49
1199.996, 14181.31
1200.479, 14180.91
1200.961, 14143.93
1201.443, 14093.42
1201.925, 14068.15
1202.407, 14065.44
1202.889, 14046.79
1203.371, 13997.14
1203.853, 13983.87
1204.336, 14025.04
1204.818, 14040.37
1205.300, 14006.49
1205.782, 13979.21
1206.264, 13988.61
1206.746, 14017.46
1207.228, 14050.18
1207.710, 14077.71
1208.193, 14070.01
1208.675, 14041.04
1209.157, 14032.82
1209.639, 14039.42
1210.121, 14028.00
1210.603, 14004.30
1211.085, 14029.49
1211.567, 14129.74
1212.049, 14183.58
1212.531, 14061.28
1213.014, 13947.70
1213.496, 13961.31
1213.978, 13994.87
1214.460, 13965.05
1214.942, 13918.54
1215.424, 13927.62
1215.906, 13973.32
1216.388, 13975.20
1216.871, 13921.72
1217.353, 13898.26
1217.835, 13915.33
1218.317, 13914.15
1218.799, 13882.17
1219.281, 13866.55
1219.763, 13888.44
1220.245, 13909.95
1220.728, 13895.12
1221.210, 13865.26
1221.692, 13854.18
1222.174, 13857.86
1222.656, 13876.60
1223.138, 13899.37
1223.620, 13906.34
1224.102, 13896.39
1224.584, 13868.66
1225.067, 13826.24
1225.549, 13802.27
1226.031, 13827.94
1226.513, 13840.83
1226.995, 13807.45
1227.477, 13773.38
1227.959, 13758.83
1228.441, 13750.81
1228.923, 13739.15
1229.406, 13727.08
1229.888, 13718.19
1230.370, 13713.70
1230.852, 13732.36
1231.334, 13775.84
1231.816, 13802.57
1232.298, 13809.62
1232.780, 13783.97
1233.263, 13725.99
1233.745, 13678.79
1234.227, 13666.99
1234.709, 13664.82
1235.191, 13642.64
1235.673, 13619.48
1236.155, 13616.77
1236.637, 13624.08
1237.120, 13632.62
1237.602, 13641.08
1238.084, 13650.95
1238.566, 13660.46
1239.048, 13663.57
##END=



