##NAMES=Gatumbaite
##RRUFFID=R070388
##IDEAL CHEMISTRY=CaAl_2_(PO_4_)_2_(OH)_2_&#183;H_2_O
##LOCALITY=Buranga pegmatite, Gatumba District, Gisenyi Province, Rwanda
##OWNER=RRUFF
##SOURCE=Michael Scott
##DESCRIPTION=Radial aggregate of colorless acicular crystals on trolleite associated with wardite
##STATUS=The identification of this mineral has been confirmed by single-crystal X-ray diffraction.
##URL=rruff.info/R070388
149.4643, 1636.358
149.9464, 1697.416
150.4285, 1753.356
150.9106, 1799.593
151.3928, 1834.932
151.8749, 1860.237
152.3570, 1867.148
152.8391, 1869.033
153.3212, 1880.108
153.8033, 1901.680
154.2855, 1921.093
154.7676, 1927.841
155.2497, 1923.635
155.7318, 1915.935
156.2139, 1906.176
156.6960, 1893.277
157.1782, 1874.367
157.6603, 1848.433
158.1424, 1822.576
158.6245, 1799.377
159.1066, 1780.297
159.5887, 1770.911
160.0709, 1778.638
160.5530, 1794.679
161.0351, 1806.534
161.5172, 1813.086
161.9993, 1818.403
162.4814, 1822.304
162.9636, 1826.952
163.4457, 1837.602
163.9278, 1864.087
164.4099, 1895.447
164.8920, 1909.089
165.3741, 1898.920
165.8563, 1887.989
166.3384, 1889.374
166.8205, 1899.767
167.3026, 1915.047
167.7847, 1937.830
168.2668, 1963.158
168.7490, 1979.463
169.2311, 1983.592
169.7132, 1985.740
170.1953, 1993.681
170.6774, 2003.165
171.1595, 2006.650
171.6417, 1996.612
172.1238, 1980.056
172.6059, 1976.313
173.0880, 1993.067
173.5701, 2007.281
174.0522, 2007.315
174.5344, 1998.964
175.0165, 1989.716
175.4986, 1981.522
175.9807, 1975.761
176.4628, 1976.563
176.9449, 1986.123
177.4271, 1998.748
177.9092, 2015.901
178.3913, 2033.433
178.8734, 2044.861
179.3555, 2045.272
179.8376, 2039.303
180.3197, 2040.758
180.8019, 2052.198
181.2840, 2067.207
181.7661, 2090.693
182.2482, 2113.990
182.7303, 2124.544
183.2124, 2113.886
183.6946, 2090.525
184.1767, 2079.443
184.6588, 2088.347
185.1409, 2096.712
185.6230, 2100.401
186.1051, 2100.154
186.5873, 2097.073
187.0694, 2091.807
187.5515, 2083.570
188.0336, 2068.537
188.5157, 2037.844
188.9978, 2016.460
189.4800, 2013.638
189.9621, 2019.647
190.4442, 2024.986
190.9263, 2025.566
191.4084, 2022.776
191.8905, 2018.726
192.3727, 2006.979
192.8548, 2006.456
193.3369, 2028.040
193.8190, 2056.715
194.3011, 2076.570
194.7832, 2081.134
195.2654, 2079.343
195.7475, 2092.268
196.2296, 2135.155
196.7117, 2163.869
197.1938, 2164.393
197.6759, 2155.453
198.1581, 2152.208
198.6402, 2159.897
199.1223, 2174.969
199.6044, 2191.392
200.0865, 2210.459
200.5686, 2228.326
201.0508, 2244.866
201.5329, 2260.262
202.0150, 2273.514
202.4971, 2284.715
202.9792, 2296.142
203.4613, 2311.869
203.9435, 2334.333
204.4256, 2355.644
204.9077, 2372.585
205.3898, 2390.378
205.8719, 2414.899
206.3540, 2446.276
206.8362, 2477.357
207.3183, 2496.717
207.8004, 2495.704
208.2825, 2504.920
208.7646, 2537.157
209.2467, 2568.743
209.7289, 2583.715
210.2110, 2581.547
210.6931, 2574.655
211.1752, 2578.852
211.6573, 2600.063
212.1395, 2610.182
212.6216, 2600.177
213.1037, 2587.623
213.5858, 2581.957
214.0679, 2582.515
214.5500, 2581.862
215.0322, 2571.117
215.5143, 2547.366
215.9964, 2533.357
216.4785, 2538.909
216.9606, 2544.890
217.4427, 2543.475
217.9249, 2535.987
218.4070, 2528.561
218.8891, 2527.071
219.3712, 2531.854
219.8533, 2530.281
220.3354, 2506.689
220.8176, 2491.964
221.2997, 2501.422
221.7818, 2526.332
222.2639, 2548.599
222.7460, 2555.029
223.2281, 2547.324
223.7103, 2543.379
224.1924, 2549.487
224.6745, 2552.542
225.1566, 2546.562
225.6387, 2536.461
226.1208, 2530.004
226.6030, 2532.063
227.0851, 2540.236
227.5672, 2544.680
228.0493, 2546.425
228.5314, 2542.193
229.0135, 2528.506
229.4957, 2510.114
229.9778, 2491.084
230.4599, 2473.053
230.9420, 2457.845
231.4241, 2451.066
231.9062, 2461.863
232.3884, 2465.197
232.8705, 2454.285
233.3526, 2437.735
233.8347, 2421.164
234.3168, 2406.772
234.7989, 2396.374
235.2811, 2394.353
235.7632, 2405.851
236.2453, 2413.545
236.7274, 2412.134
237.2095, 2409.628
237.6916, 2410.030
238.1738, 2414.658
238.6559, 2424.251
239.1380, 2442.348
239.6201, 2473.845
240.1022, 2495.541
240.5843, 2498.936
241.0665, 2498.665
241.5486, 2500.669
242.0307, 2505.609
242.5128, 2511.644
242.9949, 2517.521
243.4770, 2523.389
243.9592, 2527.335
244.4413, 2527.360
244.9234, 2527.262
245.4055, 2531.534
245.8876, 2537.217
246.3697, 2536.326
246.8519, 2519.518
247.3340, 2489.719
247.8161, 2475.119
248.2982, 2488.615
248.7803, 2500.668
249.2624, 2497.924
249.7446, 2487.517
250.2267, 2481.251
250.7088, 2485.822
251.1909, 2498.186
251.6730, 2510.327
252.1551, 2523.999
252.6373, 2533.667
253.1194, 2537.282
253.6015, 2536.658
254.0836, 2532.104
254.5657, 2522.563
255.0478, 2513.629
255.5300, 2515.913
256.0121, 2532.993
256.4942, 2547.695
256.9763, 2553.154
257.4584, 2555.442
257.9406, 2559.723
258.4227, 2567.200
258.9048, 2572.550
259.3869, 2568.650
259.8690, 2555.008
260.3511, 2543.218
260.8333, 2534.875
261.3154, 2529.739
261.7975, 2529.912
262.2796, 2534.726
262.7617, 2536.155
263.2438, 2527.042
263.7260, 2508.959
264.2081, 2490.546
264.6902, 2470.444
265.1723, 2453.818
265.6544, 2446.711
266.1365, 2446.319
266.6187, 2443.408
267.1008, 2432.157
267.5829, 2415.708
268.0650, 2400.092
268.5471, 2385.083
269.0292, 2372.163
269.5114, 2365.070
269.9935, 2360.649
270.4756, 2353.191
270.9577, 2338.892
271.4398, 2322.876
271.9219, 2310.980
272.4041, 2303.277
272.8862, 2296.458
273.3683, 2288.428
273.8504, 2280.616
274.3325, 2275.877
274.8146, 2276.266
275.2968, 2276.220
275.7789, 2270.279
276.2610, 2260.239
276.7431, 2253.510
277.2252, 2252.970
277.7073, 2256.685
278.1895, 2261.772
278.6716, 2268.469
279.1537, 2275.020
279.6358, 2281.394
280.1179, 2287.068
280.6000, 2290.341
281.0822, 2290.439
281.5643, 2290.643
282.0464, 2294.960
282.5285, 2303.577
283.0106, 2313.619
283.4927, 2326.669
283.9749, 2339.816
284.4570, 2349.808
284.9391, 2356.641
285.4212, 2364.071
285.9033, 2376.287
286.3854, 2392.839
286.8676, 2401.117
287.3497, 2390.874
287.8318, 2383.060
288.3139, 2390.473
288.7960, 2408.853
289.2781, 2427.211
289.7603, 2440.402
290.2424, 2447.469
290.7245, 2443.510
291.2066, 2416.064
291.6887, 2393.773
292.1708, 2384.317
292.6530, 2381.123
293.1351, 2375.448
293.6172, 2364.284
294.0993, 2351.814
294.5814, 2346.101
295.0635, 2355.961
295.5457, 2355.389
296.0278, 2335.229
296.5099, 2312.081
296.9920, 2297.588
297.4741, 2292.897
297.9562, 2292.445
298.4384, 2290.826
298.9205, 2288.031
299.4026, 2283.994
299.8847, 2275.182
300.3668, 2268.676
300.8489, 2267.762
301.3311, 2271.084
301.8131, 2276.024
302.2953, 2281.465
302.7774, 2286.479
303.2595, 2285.762
303.7416, 2273.160
304.2237, 2263.879
304.7058, 2265.498
305.1880, 2269.762
305.6701, 2266.120
306.1522, 2250.378
306.6343, 2231.404
307.1164, 2225.256
307.5985, 2236.412
308.0807, 2243.772
308.5628, 2240.826
309.0449, 2234.818
309.5270, 2227.832
310.0091, 2220.798
310.4912, 2217.382
310.9734, 2223.576
311.4555, 2238.117
311.9376, 2246.118
312.4197, 2241.788
312.9018, 2237.656
313.3839, 2242.332
313.8661, 2253.314
314.3482, 2264.172
314.8303, 2272.672
315.3124, 2278.997
315.7945, 2282.892
316.2766, 2283.937
316.7588, 2284.928
317.2409, 2286.363
317.7230, 2289.099
318.2051, 2295.366
318.6872, 2308.987
319.1693, 2319.837
319.6515, 2317.530
320.1336, 2304.994
320.6157, 2295.592
321.0978, 2294.599
321.5799, 2297.530
322.0620, 2297.027
322.5442, 2292.537
323.0263, 2288.985
323.5084, 2288.519
323.9905, 2289.431
324.4726, 2288.098
324.9547, 2283.950
325.4369, 2283.154
325.9190, 2293.597
326.4011, 2316.801
326.8832, 2329.459
327.3653, 2325.026
327.8474, 2316.594
328.3296, 2308.255
328.8117, 2301.689
329.2938, 2299.847
329.7759, 2304.411
330.2580, 2315.055
330.7401, 2330.200
331.2223, 2361.834
331.7044, 2383.139
332.1865, 2381.320
332.6686, 2372.442
333.1507, 2376.166
333.6328, 2397.664
334.1150, 2423.761
334.5971, 2433.890
335.0792, 2419.561
335.5613, 2412.030
336.0434, 2412.333
336.5255, 2417.578
337.0077, 2430.933
337.4898, 2448.779
337.9719, 2461.464
338.4540, 2459.608
338.9361, 2445.435
339.4182, 2438.972
339.9004, 2442.927
340.3825, 2451.339
340.8646, 2463.288
341.3467, 2477.765
341.8288, 2494.328
342.3109, 2513.438
342.7931, 2531.864
343.2752, 2544.362
343.7573, 2550.274
344.2394, 2554.699
344.7215, 2554.158
345.2036, 2556.583
345.6858, 2573.454
346.1679, 2604.460
346.6500, 2626.250
347.1321, 2612.429
347.6142, 2578.310
348.0963, 2568.830
348.5785, 2593.750
349.0606, 2626.697
349.5427, 2650.049
350.0248, 2665.241
350.5069, 2675.205
350.9890, 2677.810
351.4712, 2677.482
351.9533, 2679.299
352.4354, 2682.068
352.9175, 2677.876
353.3996, 2659.914
353.8817, 2636.245
354.3639, 2629.717
354.8460, 2647.351
355.3281, 2663.090
355.8102, 2673.852
356.2923, 2678.507
356.7744, 2673.483
357.2566, 2658.570
357.7387, 2640.669
358.2208, 2627.834
358.7029, 2621.808
359.1850, 2610.714
359.6671, 2586.300
360.1493, 2565.758
360.6314, 2562.276
361.1135, 2568.521
361.5956, 2566.242
362.0777, 2543.352
362.5598, 2508.518
363.0420, 2494.365
363.5241, 2518.245
364.0062, 2535.531
364.4883, 2540.837
364.9704, 2538.291
365.4525, 2527.483
365.9347, 2509.916
366.4168, 2495.084
366.8989, 2496.899
367.3810, 2516.862
367.8631, 2528.178
368.3452, 2523.831
368.8274, 2517.616
369.3095, 2519.039
369.7916, 2524.247
370.2737, 2523.304
370.7558, 2507.162
371.2379, 2485.830
371.7201, 2478.059
372.2022, 2485.399
372.6843, 2491.162
373.1664, 2485.447
373.6485, 2476.051
374.1306, 2476.384
374.6128, 2490.733
375.0949, 2500.755
375.5770, 2493.863
376.0591, 2476.410
376.5412, 2461.370
377.0233, 2451.703
377.5055, 2441.936
377.9876, 2426.492
378.4697, 2404.726
378.9518, 2381.660
379.4339, 2351.334
379.9160, 2325.190
380.3982, 2314.309
380.8803, 2313.832
381.3624, 2310.288
381.8445, 2296.363
382.3266, 2274.533
382.8087, 2251.829
383.2909, 2224.227
383.7730, 2201.543
384.2551, 2184.482
384.7372, 2172.031
385.2193, 2164.160
385.7014, 2160.396
386.1836, 2159.059
386.6657, 2159.301
387.1478, 2161.430
387.6299, 2159.019
388.1120, 2147.694
388.5941, 2136.651
389.0763, 2126.184
389.5584, 2118.572
390.0405, 2117.818
390.5226, 2126.539
391.0047, 2140.062
391.4868, 2152.420
391.9690, 2163.900
392.4511, 2170.769
392.9332, 2169.149
393.4153, 2164.898
393.8974, 2162.286
394.3795, 2161.473
394.8617, 2165.062
395.3438, 2177.485
395.8259, 2194.027
396.3080, 2207.623
396.7901, 2217.686
397.2722, 2223.626
397.7544, 2222.708
398.2365, 2217.192
398.7186, 2218.708
399.2007, 2232.177
399.6828, 2246.934
400.1649, 2261.259
400.6471, 2273.600
401.1292, 2280.039
401.6113, 2279.277
402.0934, 2276.813
402.5755, 2281.072
403.0576, 2295.106
403.5398, 2306.708
404.0219, 2316.542
404.5040, 2323.826
404.9861, 2325.269
405.4682, 2323.786
405.9503, 2325.907
406.4325, 2335.881
406.9146, 2352.218
407.3967, 2369.726
407.8788, 2388.740
408.3609, 2408.245
408.8430, 2434.703
409.3252, 2457.341
409.8073, 2463.961
410.2894, 2453.893
410.7715, 2443.675
411.2536, 2447.097
411.7357, 2462.501
412.2179, 2483.199
412.7000, 2512.250
413.1821, 2538.036
413.6642, 2550.427
414.1463, 2553.882
414.6284, 2555.747
415.1106, 2555.383
415.5927, 2556.265
416.0748, 2561.417
416.5569, 2569.946
417.0390, 2579.521
417.5211, 2589.680
418.0033, 2599.396
418.4854, 2607.922
418.9675, 2617.002
419.4496, 2617.591
419.9317, 2598.485
420.4138, 2579.691
420.8960, 2580.303
421.3781, 2594.284
421.8602, 2598.844
422.3423, 2578.018
422.8244, 2538.976
423.3065, 2513.237
423.7887, 2512.621
424.2708, 2507.084
424.7529, 2485.438
425.2350, 2463.428
425.7171, 2456.339
426.1992, 2464.953
426.6814, 2475.591
427.1635, 2476.106
427.6456, 2466.999
428.1277, 2452.827
428.6098, 2428.456
429.0919, 2409.033
429.5741, 2405.354
430.0562, 2410.542
430.5383, 2414.813
431.0204, 2415.106
431.5025, 2415.705
431.9846, 2422.717
432.4668, 2433.427
432.9489, 2436.522
433.4310, 2427.254
433.9131, 2416.040
434.3952, 2415.739
434.8773, 2427.620
435.3595, 2438.001
435.8416, 2445.091
436.3237, 2451.457
436.8058, 2459.119
437.2879, 2467.384
437.7701, 2473.921
438.2522, 2477.354
438.7343, 2479.535
439.2164, 2485.218
439.6985, 2496.412
440.1806, 2507.660
440.6628, 2517.253
441.1449, 2528.214
441.6270, 2543.365
442.1091, 2561.962
442.5912, 2581.063
443.0733, 2599.512
443.5555, 2616.228
444.0376, 2625.742
444.5197, 2624.830
445.0018, 2625.762
445.4839, 2634.213
445.9660, 2646.442
446.4482, 2660.475
446.9303, 2676.726
447.4124, 2689.114
447.8945, 2694.838
448.3766, 2693.854
448.8587, 2685.788
449.3409, 2670.463
449.8230, 2649.169
450.3051, 2622.271
450.7872, 2589.730
451.2693, 2554.153
451.7514, 2513.009
452.2336, 2472.066
452.7157, 2428.734
453.1978, 2388.450
453.6799, 2360.802
454.1620, 2347.934
454.6441, 2341.118
455.1263, 2328.239
455.6084, 2306.507
456.0905, 2294.633
456.5726, 2306.490
457.0547, 2314.335
457.5368, 2304.910
458.0190, 2287.073
458.5011, 2274.814
458.9832, 2273.800
459.4653, 2281.480
459.9474, 2299.107
460.4295, 2326.938
460.9117, 2341.482
461.3938, 2330.936
461.8759, 2315.726
462.3580, 2314.130
462.8401, 2324.013
463.3222, 2335.077
463.8044, 2342.352
464.2865, 2351.401
464.7686, 2369.573
465.2507, 2394.442
465.7328, 2416.313
466.2149, 2430.861
466.6971, 2440.538
467.1792, 2449.462
467.6613, 2455.058
468.1434, 2465.851
468.6255, 2489.891
469.1076, 2512.090
469.5898, 2519.131
470.0719, 2515.634
470.5540, 2517.148
471.0361, 2534.726
471.5182, 2560.656
472.0003, 2571.051
472.4825, 2558.619
472.9646, 2550.360
473.4467, 2557.695
473.9288, 2566.939
474.4109, 2570.754
474.8930, 2568.342
475.3752, 2560.255
475.8573, 2544.762
476.3394, 2524.635
476.8215, 2504.125
477.3036, 2483.374
477.7857, 2461.674
478.2679, 2437.319
478.7500, 2412.955
479.2321, 2395.534
479.7142, 2387.941
480.1963, 2379.112
480.6784, 2367.709
481.1606, 2353.673
481.6427, 2333.741
482.1248, 2309.923
482.6069, 2291.433
483.0890, 2285.778
483.5711, 2290.370
484.0533, 2290.884
484.5354, 2287.197
485.0175, 2279.188
485.4996, 2265.262
485.9817, 2248.750
486.4638, 2230.375
486.9460, 2211.160
487.4281, 2195.768
487.9102, 2189.659
488.3923, 2190.071
488.8744, 2189.154
489.3565, 2186.995
489.8387, 2182.295
490.3208, 2171.535
490.8029, 2159.379
491.2850, 2155.970
491.7671, 2165.118
492.2492, 2171.826
492.7314, 2172.035
493.2135, 2166.595
493.6956, 2155.315
494.1777, 2138.823
494.6598, 2118.707
495.1419, 2094.594
495.6241, 2069.001
496.1062, 2058.114
496.5883, 2076.462
497.0704, 2089.638
497.5525, 2094.311
498.0346, 2092.757
498.5168, 2083.541
498.9989, 2068.539
499.4810, 2056.469
499.9631, 2056.198
500.4452, 2064.537
500.9273, 2068.824
501.4095, 2067.646
501.8916, 2068.429
502.3737, 2074.817
502.8558, 2084.967
503.3379, 2095.818
503.8200, 2107.417
504.3022, 2119.132
504.7843, 2133.793
505.2664, 2146.659
505.7485, 2149.311
506.2306, 2142.888
506.7127, 2138.269
507.1949, 2142.635
507.6770, 2154.717
508.1591, 2169.102
508.6412, 2191.353
509.1233, 2207.617
509.6054, 2211.908
510.0876, 2214.306
510.5697, 2223.843
511.0518, 2239.369
511.5339, 2251.846
512.0161, 2253.623
512.4982, 2248.429
512.9803, 2244.542
513.4624, 2240.806
513.9445, 2246.748
514.4266, 2274.515
514.9088, 2305.954
515.3909, 2314.553
515.8730, 2298.089
516.3551, 2288.659
516.8372, 2301.129
517.3193, 2321.027
517.8015, 2338.485
518.2836, 2351.636
518.7657, 2357.499
519.2478, 2354.018
519.7299, 2344.218
520.2120, 2334.924
520.6942, 2324.126
521.1763, 2317.835
521.6584, 2316.789
522.1405, 2318.945
522.6226, 2326.624
523.1047, 2336.571
523.5869, 2341.566
524.0690, 2337.696
524.5511, 2327.386
525.0332, 2311.841
525.5153, 2291.129
525.9974, 2277.320
526.4796, 2276.797
526.9617, 2278.286
527.4438, 2268.888
527.9259, 2249.937
528.4080, 2231.747
528.8901, 2212.805
529.3723, 2197.879
529.8544, 2191.773
530.3365, 2191.309
530.8186, 2190.967
531.3007, 2188.777
531.7828, 2185.216
532.2650, 2182.063
532.7471, 2181.161
533.2292, 2168.573
533.7113, 2122.099
534.1934, 2089.716
534.6755, 2097.735
535.1577, 2123.689
535.6398, 2136.972
536.1219, 2128.387
536.6040, 2111.199
537.0861, 2093.952
537.5682, 2077.917
538.0504, 2067.773
538.5325, 2064.434
539.0146, 2064.425
539.4967, 2065.225
539.9788, 2067.456
540.4609, 2073.977
540.9431, 2091.158
541.4252, 2103.529
541.9073, 2103.180
542.3894, 2099.726
542.8715, 2105.351
543.3536, 2118.878
543.8358, 2127.008
544.3179, 2118.259
544.8000, 2096.455
545.2821, 2077.072
545.7642, 2057.915
546.2463, 2047.296
546.7285, 2053.229
547.2106, 2064.450
547.6927, 2072.532
548.1748, 2077.426
548.6569, 2083.687
549.1390, 2095.157
549.6211, 2107.608
550.1032, 2117.012
550.5853, 2123.358
551.0674, 2125.914
551.5496, 2123.764
552.0317, 2121.167
552.5138, 2125.408
552.9959, 2139.443
553.4780, 2150.420
553.9601, 2152.084
554.4423, 2157.848
554.9244, 2179.308
555.4065, 2206.507
555.8886, 2221.864
556.3707, 2218.664
556.8528, 2211.939
557.3350, 2221.391
557.8171, 2244.790
558.2992, 2264.795
558.7813, 2280.853
559.2634, 2290.136
559.7455, 2288.685
560.2277, 2278.924
560.7098, 2269.761
561.1919, 2261.809
561.6740, 2253.470
562.1561, 2246.579
562.6382, 2237.639
563.1204, 2220.905
563.6025, 2197.387
564.0846, 2174.216
564.5667, 2156.128
565.0488, 2142.825
565.5309, 2133.165
566.0131, 2128.328
566.4952, 2124.154
566.9773, 2118.524
567.4594, 2114.569
567.9415, 2116.542
568.4236, 2122.691
568.9058, 2124.858
569.3879, 2113.930
569.8700, 2102.631
570.3521, 2104.358
570.8342, 2116.636
571.3163, 2133.305
571.7985, 2153.233
572.2806, 2169.304
572.7627, 2171.527
573.2448, 2157.670
573.7269, 2151.220
574.2090, 2149.370
574.6912, 2157.785
575.1733, 2187.102
575.6554, 2222.606
576.1375, 2249.498
576.6196, 2264.128
577.1017, 2269.990
577.5839, 2264.067
578.0660, 2251.995
578.5481, 2256.526
579.0302, 2280.546
579.5123, 2297.458
579.9944, 2291.432
580.4766, 2274.485
580.9587, 2271.058
581.4408, 2285.059
581.9229, 2293.457
582.4050, 2290.412
582.8871, 2283.249
583.3693, 2273.531
583.8514, 2263.996
584.3335, 2261.513
584.8156, 2269.388
585.2977, 2276.987
585.7798, 2263.348
586.2620, 2225.553
586.7441, 2202.059
587.2262, 2201.089
587.7083, 2203.756
588.1904, 2197.188
588.6725, 2187.685
589.1547, 2186.471
589.6368, 2198.068
590.1189, 2209.893
590.6010, 2212.730
591.0831, 2214.123
591.5652, 2227.085
592.0474, 2250.050
592.5295, 2266.908
593.0116, 2265.842
593.4937, 2254.288
593.9758, 2256.681
594.4579, 2282.867
594.9401, 2299.537
595.4222, 2296.065
595.9043, 2289.457
596.3864, 2285.179
596.8685, 2284.538
597.3506, 2291.037
597.8328, 2312.237
598.3149, 2328.618
598.7970, 2316.372
599.2791, 2286.064
599.7612, 2264.197
600.2433, 2255.797
600.7255, 2256.328
601.2076, 2264.712
601.6897, 2278.411
602.1718, 2276.350
602.6539, 2231.626
603.1360, 2208.238
603.6182, 2230.377
604.1003, 2259.876
604.5824, 2265.769
605.0645, 2250.945
605.5466, 2239.891
606.0287, 2248.718
606.5109, 2266.079
606.9930, 2276.393
607.4751, 2279.997
607.9572, 2277.880
608.4393, 2268.445
608.9214, 2260.646
609.4036, 2264.486
609.8857, 2280.042
610.3678, 2291.597
610.8499, 2292.845
611.3320, 2298.399
611.8141, 2317.173
612.2963, 2338.414
612.7784, 2349.450
613.2605, 2350.316
613.7426, 2351.681
614.2247, 2360.680
614.7068, 2376.640
615.1890, 2401.607
615.6711, 2436.394
616.1532, 2462.421
616.6353, 2475.457
617.1174, 2475.430
617.5995, 2455.184
618.0817, 2414.173
618.5638, 2393.344
619.0459, 2423.207
619.5280, 2440.074
620.0101, 2409.030
620.4922, 2356.257
620.9744, 2314.579
621.4565, 2290.234
621.9386, 2268.999
622.4207, 2238.429
622.9028, 2200.567
623.3849, 2163.801
623.8671, 2128.411
624.3492, 2092.174
624.8313, 2052.768
625.3134, 2014.074
625.7955, 1978.301
626.2776, 1945.300
626.7598, 1926.385
627.2419, 1937.968
627.7240, 1948.041
628.2061, 1938.551
628.6882, 1918.151
629.1703, 1899.893
629.6525, 1886.868
630.1346, 1873.670
630.6167, 1853.082
631.0988, 1828.115
631.5809, 1817.568
632.0630, 1826.062
632.5452, 1830.516
633.0273, 1820.762
633.5094, 1807.101
633.9915, 1801.005
634.4736, 1802.087
634.9557, 1803.802
635.4379, 1807.053
635.9200, 1808.343
636.4021, 1804.432
636.8842, 1797.740
637.3663, 1791.451
637.8484, 1786.604
638.3306, 1783.348
638.8127, 1781.217
639.2948, 1780.924
639.7769, 1788.445
640.2590, 1807.270
640.7411, 1821.230
641.2233, 1821.294
641.7054, 1818.807
642.1875, 1829.318
642.6696, 1851.091
643.1517, 1861.052
643.6339, 1842.292
644.1160, 1823.549
644.5981, 1823.482
645.0802, 1832.488
645.5623, 1833.536
646.0444, 1824.276
646.5266, 1818.451
647.0087, 1830.193
647.4908, 1855.189
647.9729, 1874.273
648.4550, 1887.976
648.9371, 1892.173
649.4193, 1877.954
649.9014, 1862.341
650.3835, 1864.595
650.8656, 1881.728
651.3477, 1892.562
651.8298, 1891.315
652.3120, 1885.640
652.7941, 1876.890
653.2762, 1866.934
653.7583, 1860.527
654.2404, 1856.814
654.7225, 1846.408
655.2047, 1819.395
655.6868, 1783.078
656.1689, 1763.082
656.6510, 1761.891
657.1331, 1761.884
657.6152, 1759.800
658.0974, 1757.407
658.5795, 1758.634
659.0616, 1761.584
659.5437, 1757.007
660.0258, 1733.181
660.5079, 1715.251
660.9901, 1716.530
661.4722, 1724.873
661.9543, 1728.511
662.4364, 1726.085
662.9185, 1720.970
663.4006, 1714.971
663.8828, 1708.885
664.3649, 1703.578
664.8470, 1698.934
665.3291, 1700.342
665.8112, 1712.578
666.2933, 1721.383
666.7755, 1713.271
667.2576, 1692.800
667.7397, 1680.643
668.2218, 1684.969
668.7039, 1684.325
669.1860, 1666.983
669.6682, 1649.418
670.1503, 1644.401
670.6324, 1650.661
671.1145, 1662.708
671.5966, 1678.912
672.0787, 1691.951
672.5609, 1686.818
673.0430, 1667.166
673.5251, 1661.819
674.0072, 1676.255
674.4893, 1687.881
674.9714, 1680.447
675.4536, 1663.356
675.9357, 1661.937
676.4178, 1687.788
676.8999, 1703.917
677.3820, 1704.201
677.8641, 1699.865
678.3463, 1696.208
678.8284, 1692.154
679.3105, 1683.257
679.7926, 1668.142
680.2747, 1656.444
680.7568, 1661.090
681.2390, 1675.005
681.7211, 1681.379
682.2032, 1679.746
682.6853, 1675.243
683.1674, 1669.420
683.6495, 1663.922
684.1317, 1661.596
684.6138, 1663.444
685.0959, 1663.187
685.5780, 1658.034
686.0601, 1654.113
686.5422, 1653.530
687.0244, 1654.509
687.5065, 1654.837
687.9886, 1654.407
688.4707, 1655.488
688.9528, 1662.822
689.4349, 1669.681
689.9171, 1667.340
690.3992, 1658.133
690.8813, 1647.775
691.3634, 1637.982
691.8455, 1631.800
692.3276, 1633.490
692.8098, 1641.436
693.2919, 1640.213
693.7740, 1622.917
694.2561, 1611.859
694.7382, 1618.776
695.2203, 1626.280
695.7025, 1618.777
696.1846, 1601.147
696.6667, 1592.724
697.1488, 1604.890
697.6309, 1617.278
698.1130, 1619.250
698.5952, 1615.204
699.0773, 1608.927
699.5594, 1601.914
700.0415, 1597.184
700.5236, 1597.050
701.0057, 1597.658
701.4879, 1587.565
701.9700, 1565.537
702.4521, 1560.324
702.9342, 1580.940
703.4163, 1601.939
703.8984, 1609.011
704.3806, 1605.891
704.8627, 1600.881
705.3448, 1591.504
705.8269, 1587.379
706.3090, 1597.972
706.7911, 1606.015
707.2733, 1594.574
707.7554, 1575.646
708.2375, 1572.780
708.7196, 1592.248
709.2017, 1612.491
709.6838, 1611.198
710.1660, 1595.630
710.6481, 1581.500
711.1302, 1569.400
711.6123, 1566.653
712.0944, 1577.625
712.5765, 1591.428
713.0587, 1594.337
713.5408, 1585.795
714.0229, 1578.184
714.5050, 1570.471
714.9871, 1565.268
715.4692, 1564.076
715.9514, 1564.624
716.4335, 1565.076
716.9156, 1565.524
717.3977, 1567.293
717.8798, 1572.350
718.3619, 1576.837
718.8441, 1577.716
719.3262, 1575.934
719.8083, 1572.051
720.2904, 1566.791
720.7725, 1562.838
721.2546, 1561.971
721.7368, 1563.760
722.2189, 1568.460
722.7010, 1577.328
723.1831, 1580.317
723.6652, 1575.893
724.1473, 1566.906
724.6295, 1551.485
725.1116, 1533.918
725.5937, 1521.309
726.0758, 1511.476
726.5579, 1514.859
727.0400, 1548.058
727.5222, 1580.056
728.0043, 1593.971
728.4864, 1593.622
728.9685, 1584.571
729.4506, 1569.359
729.9327, 1553.443
730.4149, 1539.680
730.8970, 1529.640
731.3791, 1529.414
731.8612, 1537.765
732.3433, 1542.816
732.8254, 1540.988
733.3076, 1535.690
733.7897, 1529.798
734.2718, 1523.537
734.7539, 1519.688
735.2360, 1519.497
735.7181, 1519.645
736.2003, 1520.876
736.6824, 1521.287
737.1645, 1516.216
737.6466, 1509.518
738.1287, 1512.844
738.6108, 1535.321
739.0930, 1553.416
739.5751, 1550.952
740.0572, 1539.029
740.5393, 1527.355
741.0214, 1518.250
741.5035, 1514.549
741.9857, 1517.655
742.4678, 1523.739
742.9499, 1528.783
743.4320, 1532.494
743.9141, 1529.611
744.3962, 1518.420
744.8784, 1509.536
745.3605, 1506.651
745.8426, 1508.684
746.3247, 1516.261
746.8068, 1531.015
747.2889, 1535.281
747.7711, 1516.147
748.2532, 1503.882
748.7353, 1512.884
749.2174, 1526.277
749.6995, 1527.949
750.1816, 1518.990
750.6638, 1511.282
751.1459, 1511.333
751.6280, 1512.864
752.1101, 1509.775
752.5922, 1504.156
753.0743, 1499.989
753.5565, 1497.596
754.0386, 1494.859
754.5207, 1490.353
755.0028, 1486.213
755.4849, 1486.883
755.9670, 1492.803
756.4492, 1499.892
756.9313, 1509.087
757.4134, 1516.918
757.8955, 1521.699
758.3776, 1524.493
758.8597, 1527.970
759.3419, 1532.878
759.8240, 1531.379
760.3061, 1515.202
760.7882, 1501.644
761.2703, 1497.294
761.7524, 1498.750
762.2346, 1505.295
762.7167, 1514.454
763.1988, 1518.056
763.6809, 1508.834
764.1630, 1496.783
764.6451, 1493.884
765.1273, 1497.063
765.6094, 1498.507
766.0915, 1497.328
766.5736, 1497.451
767.0557, 1501.664
767.5378, 1506.948
768.0200, 1505.375
768.5021, 1494.646
768.9842, 1491.600
769.4663, 1499.899
769.9484, 1508.613
770.4305, 1513.547
770.9127, 1515.974
771.3948, 1517.200
771.8769, 1517.011
772.3590, 1518.353
772.8411, 1526.589
773.3232, 1530.368
773.8054, 1522.636
774.2875, 1510.023
774.7696, 1494.934
775.2517, 1481.252
775.7338, 1481.083
776.2159, 1507.505
776.6981, 1536.390
777.1802, 1536.257
777.6623, 1519.006
778.1444, 1515.470
778.6265, 1526.688
779.1086, 1526.143
779.5908, 1497.415
780.0729, 1460.060
780.5550, 1453.406
781.0371, 1481.734
781.5192, 1497.236
782.0013, 1495.239
782.4835, 1493.092
782.9656, 1498.914
783.4477, 1506.231
783.9298, 1505.597
784.4119, 1496.778
784.8940, 1491.521
785.3762, 1493.511
785.8583, 1494.987
786.3404, 1493.252
786.8225, 1490.643
787.3046, 1488.439
787.7867, 1487.240
788.2689, 1488.017
788.7510, 1491.398
789.2331, 1496.126
789.7152, 1503.700
790.1973, 1510.654
790.6794, 1511.081
791.1616, 1505.431
791.6437, 1496.080
792.1258, 1483.979
792.6079, 1475.077
793.0900, 1479.863
793.5721, 1496.163
794.0543, 1501.894
794.5364, 1496.031
795.0185, 1484.543
795.5006, 1464.661
795.9827, 1449.584
796.4648, 1455.792
796.9470, 1480.332
797.4291, 1491.208
797.9112, 1472.679
798.3933, 1462.944
798.8754, 1472.575
799.3575, 1482.561
799.8397, 1481.291
800.3218, 1472.712
800.8039, 1464.707
801.2860, 1458.817
801.7681, 1455.465
802.2502, 1456.265
802.7324, 1458.475
803.2145, 1459.733
803.6966, 1460.477
804.1787, 1461.846
804.6608, 1464.078
805.1429, 1466.922
805.6251, 1471.606
806.1072, 1474.790
806.5893, 1465.202
807.0714, 1445.565
807.5535, 1439.561
808.0356, 1452.143
808.5178, 1461.832
808.9999, 1452.838
809.4820, 1434.625
809.9641, 1433.148
810.4462, 1457.496
810.9283, 1464.101
811.4105, 1438.650
811.8926, 1418.838
812.3747, 1424.288
812.8568, 1439.359
813.3389, 1445.833
813.8210, 1443.553
814.3032, 1444.339
814.7853, 1453.401
815.2674, 1461.310
815.7495, 1466.714
816.2316, 1468.126
816.7137, 1461.716
817.1959, 1450.205
817.6780, 1441.060
818.1601, 1437.240
818.6422, 1437.244
819.1243, 1440.905
819.6064, 1446.920
820.0886, 1455.779
820.5707, 1465.289
821.0528, 1467.269
821.5349, 1459.122
822.0170, 1448.730
822.4991, 1444.938
822.9813, 1446.017
823.4634, 1443.089
823.9455, 1435.617
824.4276, 1437.494
824.9097, 1455.339
825.3918, 1466.975
825.8740, 1451.951
826.3561, 1420.729
826.8382, 1409.227
827.3203, 1426.999
827.8024, 1442.563
828.2845, 1458.384
828.7667, 1468.819
829.2488, 1470.187
829.7309, 1466.212
830.2130, 1460.931
830.6951, 1454.627
831.1772, 1446.708
831.6594, 1432.552
832.1415, 1422.233
832.6236, 1421.781
833.1057, 1426.009
833.5878, 1430.537
834.0699, 1434.693
834.5521, 1439.235
835.0342, 1444.828
835.5163, 1449.032
835.9984, 1449.581
836.4805, 1447.279
836.9626, 1442.093
837.4448, 1435.192
837.9269, 1430.151
838.4090, 1428.202
838.8911, 1428.872
839.3732, 1433.205
839.8553, 1438.471
840.3375, 1430.698
840.8196, 1409.380
841.3017, 1403.898
841.7838, 1422.600
842.2659, 1442.030
842.7480, 1446.572
843.2302, 1440.592
843.7123, 1434.415
844.1944, 1426.088
844.6765, 1424.550
845.1586, 1437.064
845.6407, 1445.534
846.1229, 1441.419
846.6050, 1432.161
847.0871, 1422.177
847.5692, 1412.312
848.0513, 1410.571
848.5334, 1429.277
849.0156, 1440.994
849.4977, 1430.926
849.9798, 1417.704
850.4619, 1416.593
850.9440, 1423.720
851.4261, 1428.451
851.9083, 1427.510
852.3904, 1424.734
852.8725, 1420.126
853.3546, 1417.059
853.8367, 1423.323
854.3188, 1432.601
854.8010, 1429.476
855.2831, 1412.984
855.7652, 1398.381
856.2473, 1397.286
856.7294, 1403.171
857.2115, 1404.453
857.6937, 1402.552
858.1758, 1404.614
858.6579, 1411.141
859.1400, 1416.592
859.6221, 1418.465
860.1042, 1417.790
860.5864, 1416.281
861.0685, 1413.820
861.5506, 1404.771
862.0327, 1384.180
862.5148, 1377.719
862.9969, 1397.072
863.4791, 1420.419
863.9612, 1433.047
864.4433, 1435.515
864.9254, 1429.009
865.4075, 1404.817
865.8896, 1389.844
866.3718, 1388.633
866.8539, 1390.718
867.3360, 1394.121
867.8181, 1397.869
868.3002, 1399.831
868.7823, 1400.358
869.2645, 1405.117
869.7466, 1422.330
870.2287, 1435.187
870.7108, 1433.401
871.1929, 1427.694
871.6750, 1428.653
872.1572, 1433.510
872.6393, 1433.189
873.1214, 1424.459
873.6035, 1415.605
874.0856, 1411.972
874.5677, 1411.835
875.0499, 1415.751
875.5320, 1420.878
876.0141, 1420.596
876.4962, 1414.541
876.9783, 1408.712
877.4604, 1407.161
877.9426, 1407.959
878.4247, 1407.304
878.9068, 1406.364
879.3889, 1411.836
879.8710, 1423.142
880.3531, 1428.014
880.8353, 1421.231
881.3174, 1409.843
881.7995, 1401.015
882.2816, 1395.469
882.7637, 1399.939
883.2458, 1416.580
883.7280, 1426.214
884.2101, 1423.721
884.6922, 1420.725
885.1743, 1425.775
885.6564, 1433.908
886.1385, 1433.881
886.6207, 1423.531
887.1028, 1414.597
887.5849, 1405.188
888.0670, 1400.377
888.5491, 1404.920
889.0313, 1411.598
889.5134, 1412.850
889.9955, 1410.558
890.4776, 1413.744
890.9597, 1429.693
891.4418, 1438.961
891.9240, 1435.341
892.4061, 1428.339
892.8882, 1419.325
893.3703, 1411.953
893.8524, 1413.106
894.3345, 1422.561
894.8167, 1426.897
895.2988, 1414.270
895.7809, 1403.067
896.2630, 1403.534
896.7451, 1409.981
897.2272, 1419.715
897.7094, 1429.651
898.1915, 1434.878
898.6736, 1433.656
899.1557, 1426.869
899.6378, 1408.501
900.1199, 1390.309
900.6021, 1389.121
901.0842, 1398.748
901.5663, 1406.408
902.0484, 1409.729
902.5305, 1412.021
903.0126, 1415.322
903.4948, 1418.610
903.9769, 1421.481
904.4590, 1422.944
904.9411, 1417.416
905.4232, 1406.239
905.9053, 1401.223
906.3875, 1406.166
906.8696, 1414.013
907.3517, 1418.428
907.8338, 1419.785
908.3159, 1417.956
908.7980, 1412.884
909.2802, 1413.962
909.7623, 1423.304
910.2444, 1429.799
910.7265, 1427.490
911.2086, 1421.387
911.6907, 1418.635
912.1729, 1419.188
912.6550, 1418.349
913.1371, 1413.541
913.6192, 1416.576
914.1013, 1435.429
914.5834, 1451.172
915.0656, 1450.225
915.5477, 1438.308
916.0298, 1428.078
916.5119, 1419.258
916.9940, 1413.115
917.4761, 1408.801
917.9583, 1408.390
918.4404, 1420.989
918.9225, 1430.240
919.4046, 1415.523
919.8867, 1386.021
920.3688, 1377.194
920.8510, 1404.923
921.3331, 1423.737
921.8152, 1427.240
922.2973, 1420.402
922.7794, 1392.010
923.2615, 1363.267
923.7437, 1363.946
924.2258, 1391.357
924.7079, 1409.101
925.1900, 1398.311
925.6721, 1389.381
926.1542, 1400.015
926.6364, 1412.320
927.1185, 1410.966
927.6006, 1401.329
928.0827, 1392.028
928.5648, 1385.823
929.0469, 1387.350
929.5291, 1406.935
930.0112, 1426.213
930.4933, 1431.309
930.9754, 1428.343
931.4575, 1423.143
931.9396, 1417.164
932.4218, 1410.629
932.9039, 1403.661
933.3860, 1399.453
933.8681, 1401.338
934.3502, 1407.059
934.8323, 1417.019
935.3145, 1427.445
935.7966, 1429.687
936.2787, 1423.744
936.7608, 1415.253
937.2429, 1406.962
937.7250, 1401.251
938.2072, 1402.265
938.6893, 1407.506
939.1714, 1411.398
939.6535, 1414.244
940.1356, 1419.121
940.6177, 1426.069
941.0999, 1428.023
941.5820, 1419.308
942.0641, 1406.495
942.5462, 1399.617
943.0283, 1398.966
943.5104, 1409.370
943.9926, 1429.751
944.4747, 1443.288
944.9568, 1444.669
945.4389, 1443.254
945.9210, 1447.590
946.4031, 1454.977
946.8853, 1456.748
947.3674, 1452.959
947.8495, 1455.044
948.3316, 1464.321
948.8137, 1471.810
949.2958, 1473.286
949.7780, 1476.039
950.2601, 1489.799
950.7422, 1510.757
951.2243, 1515.734
951.7064, 1500.277
952.1885, 1499.151
952.6707, 1519.168
953.1528, 1540.594
953.6349, 1555.538
954.1170, 1564.611
954.5991, 1568.015
955.0812, 1566.017
955.5634, 1564.084
956.0455, 1559.428
956.5276, 1564.153
957.0097, 1583.709
957.4918, 1605.169
957.9739, 1624.519
958.4561, 1638.291
958.9382, 1638.057
959.4203, 1621.779
959.9024, 1621.757
960.3845, 1651.419
960.8666, 1670.044
961.3488, 1664.300
961.8309, 1656.295
962.3130, 1658.035
962.7951, 1667.265
963.2772, 1680.889
963.7593, 1700.805
964.2415, 1714.893
964.7236, 1716.250
965.2057, 1721.822
965.6878, 1738.718
966.1699, 1756.561
966.6520, 1769.254
967.1342, 1777.984
967.6163, 1783.668
968.0984, 1782.596
968.5805, 1793.601
969.0626, 1829.331
969.5447, 1861.569
970.0269, 1880.973
970.5090, 1896.449
970.9911, 1916.791
971.4732, 1938.444
971.9553, 1949.752
972.4374, 1944.593
972.9196, 1947.328
973.4017, 1965.513
973.8838, 1986.775
974.3659, 2005.249
974.8480, 2026.210
975.3301, 2059.090
975.8123, 2098.290
976.2944, 2124.345
976.7765, 2128.665
977.2586, 2138.373
977.7407, 2164.897
978.2228, 2191.359
978.7050, 2216.818
979.1871, 2233.589
979.6692, 2228.589
980.1513, 2208.333
980.6334, 2196.324
981.1155, 2199.582
981.5977, 2205.048
982.0798, 2213.324
982.5619, 2217.635
983.0440, 2211.928
983.5261, 2202.352
984.0082, 2197.507
984.4904, 2195.387
984.9725, 2185.531
985.4546, 2162.926
985.9367, 2139.168
986.4188, 2118.495
986.9009, 2097.625
987.3831, 2070.873
987.8652, 2045.382
988.3473, 2031.701
988.8294, 2027.934
989.3115, 2021.765
989.7936, 2007.090
990.2758, 1996.908
990.7579, 2001.591
991.2400, 2007.020
991.7221, 2007.542
992.2042, 2001.307
992.6863, 1981.229
993.1685, 1952.036
993.6506, 1934.421
994.1327, 1939.870
994.6148, 1944.020
995.0969, 1929.696
995.5790, 1917.243
996.0612, 1924.076
996.5433, 1938.709
997.0254, 1946.042
997.5075, 1945.864
997.9896, 1946.757
998.4717, 1951.270
998.9539, 1958.314
999.4360, 1967.788
999.9181, 1979.244
1000.400, 1994.301
1000.882, 2009.813
1001.364, 2020.753
1001.847, 2028.108
1002.329, 2036.447
1002.811, 2043.301
1003.293, 2064.159
1003.775, 2117.348
1004.257, 2175.204
1004.739, 2218.528
1005.221, 2254.996
1005.703, 2288.593
1006.186, 2325.056
1006.668, 2383.040
1007.150, 2477.041
1007.632, 2563.734
1008.114, 2610.054
1008.596, 2657.164
1009.078, 2735.532
1009.560, 2827.559
1010.043, 2910.954
1010.525, 2986.112
1011.007, 3065.294
1011.489, 3152.220
1011.971, 3245.280
1012.453, 3348.823
1012.935, 3453.283
1013.417, 3552.734
1013.899, 3649.505
1014.382, 3745.778
1014.864, 3841.232
1015.346, 3937.305
1015.828, 4037.767
1016.310, 4122.141
1016.792, 4168.567
1017.274, 4213.432
1017.756, 4285.085
1018.239, 4358.405
1018.721, 4412.049
1019.203, 4443.241
1019.685, 4450.888
1020.167, 4430.854
1020.649, 4407.315
1021.131, 4396.235
1021.613, 4373.177
1022.095, 4325.271
1022.578, 4261.516
1023.060, 4191.547
1023.542, 4112.715
1024.024, 4016.557
1024.506, 3901.505
1024.988, 3771.527
1025.470, 3619.086
1025.952, 3463.834
1026.435, 3311.139
1026.917, 3161.616
1027.399, 3017.087
1027.881, 2876.528
1028.363, 2732.555
1028.845, 2581.195
1029.327, 2456.462
1029.809, 2378.638
1030.292, 2308.711
1030.774, 2237.146
1031.256, 2168.787
1031.738, 2103.337
1032.220, 2044.924
1032.702, 2001.952
1033.184, 1975.898
1033.666, 1952.183
1034.148, 1933.736
1034.630, 1911.314
1035.113, 1880.517
1035.595, 1848.502
1036.077, 1811.091
1036.559, 1779.207
1037.041, 1774.251
1037.523, 1797.467
1038.005, 1807.157
1038.487, 1791.604
1038.970, 1781.075
1039.452, 1786.233
1039.934, 1784.817
1040.416, 1761.744
1040.898, 1731.672
1041.380, 1710.536
1041.862, 1698.238
1042.344, 1693.940
1042.826, 1702.141
1043.309, 1708.787
1043.791, 1715.270
1044.273, 1716.051
1044.755, 1703.611
1045.237, 1692.820
1045.719, 1702.316
1046.201, 1725.447
1046.683, 1730.386
1047.166, 1710.350
1047.648, 1695.211
1048.130, 1686.169
1048.612, 1678.853
1049.094, 1671.258
1049.576, 1667.410
1050.058, 1672.698
1050.540, 1681.637
1051.022, 1677.231
1051.505, 1656.801
1051.987, 1652.124
1052.469, 1666.896
1052.951, 1672.552
1053.433, 1660.064
1053.915, 1651.153
1054.397, 1661.494
1054.879, 1680.603
1055.361, 1689.503
1055.844, 1688.924
1056.326, 1687.147
1056.808, 1684.169
1057.290, 1681.109
1057.772, 1678.102
1058.254, 1681.014
1058.736, 1693.403
1059.218, 1707.599
1059.701, 1714.198
1060.183, 1713.782
1060.665, 1705.131
1061.147, 1690.675
1061.629, 1683.564
1062.111, 1685.112
1062.593, 1694.525
1063.075, 1710.947
1063.557, 1723.171
1064.040, 1718.658
1064.522, 1706.609
1065.004, 1707.081
1065.486, 1712.126
1065.968, 1699.190
1066.450, 1672.288
1066.932, 1649.288
1067.414, 1635.476
1067.896, 1630.244
1068.379, 1636.514
1068.861, 1638.621
1069.343, 1611.426
1069.825, 1574.773
1070.307, 1557.395
1070.789, 1551.840
1071.271, 1540.892
1071.753, 1522.788
1072.236, 1505.385
1072.718, 1492.153
1073.200, 1480.034
1073.682, 1465.663
1074.164, 1452.562
1074.646, 1443.225
1075.128, 1437.122
1075.610, 1435.153
1076.093, 1435.422
1076.575, 1433.984
1077.057, 1429.831
1077.539, 1422.845
1078.021, 1409.101
1078.503, 1397.658
1078.985, 1391.551
1079.467, 1390.373
1079.949, 1395.813
1080.432, 1404.909
1080.914, 1413.901
1081.396, 1422.157
1081.878, 1427.962
1082.360, 1435.228
1082.842, 1433.565
1083.324, 1410.510
1083.806, 1391.266
1084.288, 1386.919
1084.771, 1392.312
1085.253, 1404.872
1085.735, 1422.590
1086.217, 1436.518
1086.699, 1448.475
1087.181, 1451.221
1087.663, 1440.077
1088.145, 1428.458
1088.628, 1415.821
1089.110, 1411.809
1089.592, 1427.807
1090.074, 1452.013
1090.556, 1457.433
1091.038, 1443.089
1091.520, 1439.764
1092.002, 1450.561
1092.484, 1450.760
1092.967, 1434.365
1093.449, 1420.379
1093.931, 1418.015
1094.413, 1425.224
1094.895, 1442.261
1095.377, 1463.221
1095.859, 1463.251
1096.341, 1445.444
1096.823, 1431.416
1097.306, 1423.692
1097.788, 1429.504
1098.270, 1449.847
1098.752, 1463.760
1099.234, 1453.558
1099.716, 1432.211
1100.198, 1412.912
1100.680, 1400.547
1101.163, 1411.590
1101.645, 1436.416
1102.127, 1451.475
1102.609, 1453.146
1103.091, 1447.737
1103.573, 1437.795
1104.055, 1428.349
1104.537, 1424.294
1105.020, 1421.883
1105.502, 1415.427
1105.984, 1410.339
1106.466, 1418.059
1106.948, 1431.160
1107.430, 1429.248
1107.912, 1409.369
1108.394, 1398.314
1108.876, 1415.977
1109.359, 1430.759
1109.841, 1429.365
1110.323, 1423.275
1110.805, 1416.019
1111.287, 1410.412
1111.769, 1409.418
1112.251, 1412.794
1112.733, 1418.919
1113.215, 1431.113
1113.698, 1437.398
1114.180, 1437.541
1114.662, 1431.202
1115.144, 1410.420
1115.626, 1394.605
1116.108, 1400.160
1116.590, 1415.541
1117.072, 1417.741
1117.555, 1406.651
1118.037, 1411.425
1118.519, 1436.811
1119.001, 1450.826
1119.483, 1448.752
1119.965, 1438.301
1120.447, 1419.775
1120.929, 1416.988
1121.411, 1460.708
1121.894, 1523.017
1122.376, 1523.365
1122.858, 1475.343
1123.340, 1449.955
1123.822, 1446.117
1124.304, 1436.695
1124.786, 1417.343
1125.268, 1408.506
1125.750, 1422.630
1126.233, 1437.641
1126.715, 1424.689
1127.197, 1401.267
1127.679, 1390.747
1128.161, 1387.132
1128.643, 1383.061
1129.125, 1376.203
1129.607, 1359.638
1130.090, 1333.979
1130.572, 1323.294
1131.054, 1350.334
1131.536, 1376.068
1132.018, 1380.564
1132.500, 1376.531
1132.982, 1369.915
1133.464, 1361.822
1133.947, 1350.981
1134.429, 1339.148
1134.911, 1333.071
1135.393, 1335.814
1135.875, 1336.558
1136.357, 1334.234
1136.839, 1329.906
1137.321, 1319.056
1137.803, 1313.646
1138.286, 1325.148
1138.768, 1339.922
1139.250, 1334.803
1139.732, 1313.728
1140.214, 1318.408
1140.696, 1355.152
1141.178, 1365.610
1141.660, 1343.351
1142.142, 1324.641
1142.625, 1320.939
1143.107, 1326.228
1143.589, 1336.730
1144.071, 1349.066
1144.553, 1359.414
1145.035, 1366.179
1145.517, 1361.229
1145.999, 1348.936
1146.482, 1341.543
1146.964, 1340.955
1147.446, 1348.416
1147.928, 1363.387
1148.410, 1372.465
1148.892, 1362.763
1149.374, 1348.272
1149.856, 1338.387
1150.339, 1332.644
1150.821, 1332.193
1151.303, 1334.634
1151.785, 1337.795
1152.267, 1340.556
1152.749, 1340.219
1153.231, 1334.964
1153.713, 1331.297
1154.195, 1330.447
1154.677, 1331.702
1155.160, 1340.615
1155.642, 1344.980
1156.124, 1331.793
1156.606, 1314.236
1157.088, 1312.018
1157.570, 1323.869
1158.052, 1335.877
1158.534, 1350.136
1159.017, 1353.732
1159.499, 1344.160
1159.981, 1333.557
1160.463, 1324.568
1160.945, 1324.595
1161.427, 1340.415
1161.909, 1360.967
1162.391, 1366.069
1162.874, 1361.272
1163.356, 1365.604
1163.838, 1376.246
1164.320, 1384.402
1164.802, 1389.500
1165.284, 1395.746
1165.766, 1403.710
1166.248, 1405.007
1166.730, 1390.183
1167.213, 1376.922
1167.695, 1383.431
1168.177, 1394.215
1168.659, 1393.601
1169.141, 1390.317
1169.623, 1398.051
1170.105, 1413.342
1170.587, 1423.271
1171.069, 1425.391
1171.552, 1423.708
1172.034, 1405.867
1172.516, 1404.775
1172.998, 1441.573
1173.480, 1472.706
1173.962, 1479.952
1174.444, 1472.547
1174.926, 1456.287
1175.409, 1436.143
1175.891, 1430.340
1176.373, 1439.886
1176.855, 1451.981
1177.337, 1466.967
1177.819, 1467.565
1178.301, 1451.037
1178.783, 1438.813
1179.266, 1441.328
1179.748, 1449.126
1180.230, 1454.105
1180.712, 1454.825
1181.194, 1444.066
1181.676, 1430.576
1182.158, 1433.134
1182.640, 1443.718
1183.122, 1442.983
1183.604, 1430.509
1184.087, 1418.558
1184.569, 1410.851
1185.051, 1409.883
1185.533, 1424.089
1186.015, 1435.302
1186.497, 1437.117
1186.979, 1431.989
1187.461, 1413.894
1187.944, 1395.097
1188.426, 1396.801
1188.908, 1413.963
1189.390, 1413.978
1189.872, 1387.703
1190.354, 1377.986
1190.836, 1389.075
1191.318, 1398.289
1191.801, 1400.954
1192.283, 1398.521
1192.765, 1391.140
1193.247, 1384.531
1193.729, 1387.203
1194.211, 1393.821
1194.693, 1392.208
1195.175, 1383.626
1195.657, 1366.217
1196.140, 1346.044
1196.622, 1343.000
1197.104, 1356.020
1197.586, 1360.562
1198.068, 1344.952
1198.550, 1329.032
1199.032, 1327.441
1199.514, 1326.224
1199.996, 1315.606
1200.479, 1304.055
1200.961, 1300.684
1201.443, 1299.261
1201.925, 1288.248
1202.407, 1269.176
1202.889, 1257.492
1203.371, 1256.301
1203.853, 1252.248
1204.336, 1242.563
1204.818, 1240.089
1205.300, 1249.416
1205.782, 1256.877
1206.264, 1255.097
1206.746, 1248.410
1207.228, 1240.970
1207.710, 1234.332
1208.193, 1232.556
1208.675, 1234.709
1209.157, 1240.928
1209.639, 1248.036
1210.121, 1246.465
1210.603, 1236.378
1211.085, 1224.663
1211.567, 1213.871
1212.049, 1209.054
1212.531, 1219.225
1213.014, 1228.106
1213.496, 1223.349
1213.978, 1218.429
1214.460, 1227.418
1214.942, 1238.219
1215.424, 1233.727
1215.906, 1217.702
1216.388, 1205.021
1216.871, 1194.775
1217.353, 1195.211
1217.835, 1210.476
1218.317, 1217.301
1218.799, 1210.604
1219.281, 1210.962
1219.763, 1227.977
1220.245, 1239.396
1220.728, 1222.983
1221.210, 1196.950
1221.692, 1192.480
1222.174, 1202.420
1222.656, 1221.048
1223.138, 1238.000
1223.620, 1225.020
1224.102, 1192.947
1224.584, 1180.360
1225.067, 1196.066
1225.549, 1214.500
1226.031, 1230.276
1226.513, 1236.228
1226.995, 1223.335
1227.477, 1208.679
1227.959, 1196.610
1228.441, 1188.971
1228.923, 1188.388
1229.406, 1191.528
1229.888, 1193.043
1230.370, 1192.902
1230.852, 1189.904
1231.334, 1183.800
1231.816, 1182.436
1232.298, 1185.908
1232.780, 1183.713
1233.263, 1174.010
1233.745, 1169.480
1234.227, 1177.585
1234.709, 1185.271
1235.191, 1173.877
1235.673, 1160.978
1236.155, 1171.143
1236.637, 1185.786
1237.120, 1182.422
1237.602, 1169.576
##END=



