##NAMES=Gaudefroyite
##RRUFFID=R050675
##IDEAL CHEMISTRY=Ca_4_Mn^3+^_3_(BO_3_)_3_(CO_3_)O_3_
##LOCALITY=Wessels mine, Cape Province, South Africa
##OWNER=RRUFF
##SOURCE=University of Arizona Mineral Museum
##DESCRIPTION=Black hexagonal stubby dipyramidal crystals
##STATUS=The identification of this mineral has been confirmed by X-ray diffraction and chemical analysis
##URL=rruff.info/R050675
##MEASURED CHEMISTRY=Ca_4.00_(Mn^3+^_2.98_[box]_0.02_)_Σ=3_(BO_3_)_3_(CO_3_)(O_2.94_(OH)_0.06_)_Σ=3_ ; B, C, H not measured but estimated by charge balance.
92.02539, 113.7440
92.50751, 116.7850
92.98962, 119.0473
93.47174, 118.1339
93.95386, 115.8541
94.43597, 112.9290
94.91809, 109.6860
95.40021, 106.3623
95.88232, 103.3089
96.36444, 100.3161
96.84656, 97.89980
97.32867, 96.57061
97.81078, 95.87989
98.29290, 95.10867
98.77502, 93.63354
99.25713, 91.26756
99.73925, 88.80453
100.2214, 86.46280
100.7035, 83.89470
101.1856, 80.34689
101.6677, 76.04652
102.1498, 72.29878
102.6320, 70.70383
103.1141, 72.01965
103.5962, 74.10249
104.0783, 78.26289
104.5604, 82.68333
105.0425, 85.36947
105.5247, 85.73189
106.0068, 84.27598
106.4889, 81.53101
106.9710, 77.43932
107.4531, 73.10094
107.9352, 68.60253
108.4173, 64.08430
108.8995, 60.31898
109.3816, 57.80622
109.8637, 56.08539
110.3458, 54.59981
110.8279, 53.26991
111.3100, 52.23817
111.7922, 51.70312
112.2743, 51.74630
112.7564, 52.05573
113.2385, 52.93721
113.7206, 53.84473
114.2027, 54.26409
114.6849, 53.93738
115.1670, 53.05159
115.6491, 52.26519
116.1312, 51.63597
116.6133, 51.04316
117.0954, 50.49212
117.5776, 49.95725
118.0597, 49.36205
118.5418, 48.61893
119.0239, 47.71776
119.5060, 47.36600
119.9881, 47.99743
120.4703, 48.65071
120.9524, 48.99818
121.4345, 49.01648
121.9166, 48.79867
122.3987, 48.40425
122.8808, 47.79696
123.3630, 47.16380
123.8451, 46.46511
124.3272, 45.75872
124.8093, 45.11311
125.2914, 44.54114
125.7735, 44.00111
126.2557, 43.38417
126.7378, 42.71722
127.2199, 42.23490
127.7020, 42.14797
128.1841, 42.33712
128.6662, 42.42347
129.1483, 42.31768
129.6305, 42.12150
130.1126, 41.92782
130.5947, 41.73409
131.0768, 41.50813
131.5589, 41.17841
132.0410, 40.71646
132.5232, 40.38665
133.0053, 40.44662
133.4874, 40.49487
133.9695, 40.30771
134.4516, 39.84727
134.9337, 39.24865
135.4159, 38.70222
135.8980, 38.19373
136.3801, 37.77488
136.8622, 37.40859
137.3443, 37.13297
137.8264, 36.99925
138.3086, 37.02314
138.7907, 37.16014
139.2728, 37.28868
139.7549, 37.59199
140.2370, 37.66827
140.7191, 37.33169
141.2013, 36.77397
141.6834, 36.26215
142.1655, 35.93053
142.6476, 35.76115
143.1297, 35.67785
143.6118, 35.79779
144.0939, 35.86555
144.5761, 35.70864
145.0582, 35.38006
145.5403, 35.14709
146.0224, 35.28081
146.5045, 35.58485
146.9866, 35.49588
147.4688, 34.67772
147.9509, 33.71936
148.4330, 33.22079
148.9151, 33.24627
149.3972, 33.32666
149.8793, 33.10960
150.3615, 32.78640
150.8436, 32.60452
151.3257, 32.71710
151.8078, 32.99382
152.2899, 33.12773
152.7720, 33.03640
153.2542, 32.94278
153.7363, 32.93280
154.2184, 32.98106
154.7005, 33.05748
155.1826, 33.16401
155.6647, 33.28893
156.1469, 33.30354
156.6290, 33.02771
157.1111, 32.81398
157.5932, 32.80297
158.0753, 32.93186
158.5574, 33.06248
159.0396, 33.08290
159.5217, 32.98729
160.0038, 32.82511
160.4859, 32.59494
160.9680, 32.31144
161.4501, 31.88860
161.9323, 31.38179
162.4144, 30.98672
162.8965, 30.93086
163.3786, 31.33726
163.8607, 31.55730
164.3428, 31.57378
164.8250, 31.43792
165.3071, 31.11847
165.7892, 30.62479
166.2713, 30.12081
166.7534, 29.82040
167.2355, 29.75908
167.7177, 29.64968
168.1998, 29.40371
168.6819, 29.11331
169.1640, 28.94348
169.6461, 28.97013
170.1282, 28.96032
170.6104, 28.52036
171.0925, 27.70618
171.5746, 27.01566
172.0567, 26.68894
172.5388, 26.64158
173.0209, 26.63521
173.5031, 26.64400
173.9852, 26.66522
174.4673, 26.65814
174.9494, 26.63297
175.4315, 26.69643
175.9136, 27.08987
176.3958, 27.79020
176.8779, 28.03768
177.3600, 27.27265
177.8421, 26.38365
178.3242, 25.86921
178.8063, 25.74664
179.2885, 25.77270
179.7706, 25.66178
180.2527, 25.33142
180.7348, 25.23318
181.2169, 25.73676
181.6990, 26.22501
182.1812, 26.31642
182.6633, 25.97831
183.1454, 25.48880
183.6275, 25.22776
184.1096, 25.26008
184.5917, 25.41281
185.0738, 25.83568
185.5560, 26.25489
186.0381, 26.42743
186.5202, 26.31164
187.0023, 26.10184
187.4844, 26.14123
187.9665, 26.77365
188.4487, 27.10078
188.9308, 26.95834
189.4129, 26.60613
189.8950, 26.21626
190.3771, 25.85207
190.8592, 25.58901
191.3414, 25.60760
191.8235, 26.15191
192.3056, 26.51447
192.7877, 26.59838
193.2698, 26.46514
193.7519, 26.12819
194.2341, 25.55056
194.7162, 24.92027
195.1983, 24.66578
195.6804, 24.83894
196.1625, 25.05060
196.6446, 25.16861
197.1268, 25.24031
197.6089, 25.40279
198.0910, 25.76209
198.5731, 26.13120
199.0552, 26.18592
199.5373, 25.87601
200.0195, 25.58364
200.5016, 25.51354
200.9837, 25.63788
201.4658, 25.84302
201.9479, 26.23822
202.4300, 26.54547
202.9122, 26.37899
203.3943, 25.67495
203.8764, 25.06221
204.3585, 25.18210
204.8406, 26.02882
205.3227, 26.62702
205.8048, 26.59167
206.2870, 26.31808
206.7691, 26.02560
207.2512, 25.74449
207.7333, 25.53304
208.2154, 25.47578
208.6975, 25.59821
209.1797, 25.72398
209.6618, 25.75484
210.1439, 25.82944
210.6260, 26.07391
211.1081, 26.49339
211.5902, 26.93419
212.0724, 27.18988
212.5545, 27.20054
213.0366, 27.19757
213.5187, 27.24369
214.0008, 27.25190
214.4829, 27.10477
214.9651, 26.80743
215.4472, 26.52509
215.9293, 26.53589
216.4114, 27.09652
216.8935, 27.41492
217.3756, 27.19532
217.8578, 26.97630
218.3399, 27.21073
218.8220, 27.95881
219.3041, 28.87010
219.7862, 29.40335
220.2683, 29.35456
220.7505, 29.27825
221.2326, 29.10190
221.7147, 28.94479
222.1968, 28.89295
222.6789, 28.96832
223.1610, 29.15160
223.6432, 29.43638
224.1253, 30.00709
224.6074, 30.25554
225.0895, 29.85759
225.5716, 29.32135
226.0537, 29.14230
226.5358, 29.42924
227.0180, 29.88596
227.5001, 30.09678
227.9822, 29.96095
228.4643, 29.88360
228.9464, 29.89806
229.4285, 29.97752
229.9107, 30.10443
230.3928, 30.27572
230.8749, 30.47051
231.3570, 30.66394
231.8391, 30.85535
232.3212, 31.05154
232.8034, 31.32119
233.2855, 31.56979
233.7676, 31.62070
234.2497, 31.40876
234.7318, 31.20010
235.2139, 31.39316
235.6961, 31.92965
236.1782, 32.30663
236.6603, 32.20565
237.1424, 31.92720
237.6245, 31.98071
238.1066, 32.50854
238.5888, 33.10049
239.0709, 33.33232
239.5530, 33.30515
240.0351, 33.31675
240.5172, 33.55180
240.9993, 33.87402
241.4815, 34.00066
241.9636, 33.85731
242.4457, 33.66750
242.9278, 33.58059
243.4099, 33.56867
243.8920, 33.58586
244.3742, 33.65886
244.8563, 33.74113
245.3384, 33.73746
245.8205, 33.66442
246.3026, 33.45821
246.7847, 33.00557
247.2668, 32.42068
247.7490, 31.89103
248.2311, 31.55447
248.7132, 31.30330
249.1953, 30.80850
249.6774, 29.86013
250.1595, 29.10938
250.6417, 29.01558
251.1238, 29.20574
251.6059, 29.18219
252.0880, 28.65688
252.5701, 27.85972
253.0522, 27.37901
253.5344, 27.37706
254.0165, 27.39002
254.4986, 27.34966
254.9807, 27.22098
255.4628, 26.92393
255.9449, 26.39875
256.4271, 25.78294
256.9092, 25.40210
257.3913, 25.35826
257.8734, 25.37602
258.3555, 25.40475
258.8376, 25.45130
259.3198, 25.52198
259.8019, 25.61909
260.2840, 25.74163
260.7661, 25.88132
261.2482, 26.00553
261.7303, 26.21865
262.2125, 26.59547
262.6946, 27.01444
263.1767, 27.35859
263.6588, 27.59649
264.1409, 27.80171
264.6230, 28.11955
265.1052, 28.65670
265.5873, 29.09620
266.0694, 29.25324
266.5515, 29.43204
267.0336, 29.86013
267.5157, 30.58382
267.9979, 31.48928
268.4800, 32.42724
268.9621, 33.45243
269.4442, 34.37669
269.9263, 35.18870
270.4084, 35.93071
270.8906, 36.56100
271.3727, 37.10983
271.8548, 37.71801
272.3369, 38.58753
272.8190, 39.86340
273.3011, 40.89190
273.7833, 41.44419
274.2654, 41.98838
274.7475, 42.77363
275.2296, 43.81209
275.7117, 44.98127
276.1938, 46.17105
276.6760, 47.39209
277.1581, 48.57658
277.6402, 49.80523
278.1223, 50.93847
278.6044, 51.86719
279.0865, 52.63561
279.5686, 53.39045
280.0508, 54.25982
280.5329, 55.24690
281.0150, 56.10660
281.4971, 56.87689
281.9792, 57.51469
282.4613, 58.03925
282.9435, 58.42054
283.4256, 58.59560
283.9077, 58.52248
284.3898, 58.20697
284.8719, 57.69393
285.3540, 56.89504
285.8362, 56.03093
286.3183, 55.21977
286.8004, 54.37663
287.2825, 53.32617
287.7646, 51.96214
288.2467, 50.37280
288.7289, 48.83923
289.2110, 47.41754
289.6931, 45.98362
290.1752, 44.47865
290.6573, 42.96771
291.1394, 41.53515
291.6216, 40.20879
292.1037, 39.01556
292.5858, 38.02218
293.0679, 37.42000
293.5500, 36.65653
294.0321, 35.45866
294.5143, 34.16779
294.9964, 33.21436
295.4785, 32.70860
295.9606, 32.36352
296.4427, 31.76031
296.9248, 30.75799
297.4070, 29.92315
297.8891, 29.28522
298.3712, 28.81594
298.8533, 28.57883
299.3354, 28.55917
299.8175, 28.51012
300.2997, 28.15751
300.7818, 27.43388
301.2639, 26.84995
301.7460, 26.50327
302.2281, 26.22037
302.7102, 25.86594
303.1924, 25.44706
303.6745, 25.06709
304.1566, 24.79918
304.6387, 24.64841
305.1208, 24.56380
305.6029, 24.60398
306.0851, 24.64613
306.5672, 24.63577
307.0493, 24.57711
307.5314, 24.48658
308.0135, 24.36662
308.4956, 24.22708
308.9778, 24.11462
309.4599, 24.08993
309.9420, 24.01412
310.4241, 23.76369
310.9062, 23.43719
311.3883, 23.24845
311.8705, 23.30248
312.3526, 23.48440
312.8347, 23.51659
313.3168, 23.26334
313.7989, 23.19664
314.2810, 23.63743
314.7632, 24.23800
315.2453, 24.44378
315.7274, 24.08326
316.2095, 23.64087
316.6916, 23.82853
317.1737, 24.83515
317.6559, 25.64758
318.1380, 26.11096
318.6201, 26.39191
319.1022, 26.62341
319.5843, 26.82803
320.0664, 26.98145
320.5485, 27.01844
321.0306, 26.92897
321.5128, 27.09534
321.9949, 27.74444
322.4770, 28.45042
322.9591, 28.92527
323.4412, 29.19480
323.9233, 29.46799
324.4055, 29.88139
324.8876, 30.41801
325.3697, 30.91922
325.8518, 31.39468
326.3339, 31.83305
326.8160, 32.20336
327.2982, 32.53436
327.7803, 32.93325
328.2624, 33.48496
328.7445, 34.04607
329.2266, 34.18658
329.7087, 33.60314
330.1909, 33.20869
330.6730, 33.33045
331.1551, 33.67850
331.6372, 33.85873
332.1193, 33.75468
332.6014, 33.55532
333.0836, 33.53575
333.5657, 33.77766
334.0478, 33.96908
334.5299, 34.17105
335.0120, 34.27262
335.4941, 34.20980
335.9763, 33.96427
336.4584, 33.47984
336.9405, 32.64576
337.4226, 31.41065
337.9047, 30.51009
338.3868, 30.01279
338.8690, 29.73014
339.3511, 29.71931
339.8332, 29.86452
340.3153, 29.86332
340.7974, 29.51369
341.2795, 28.86753
341.7617, 28.24953
342.2438, 27.74997
342.7259, 27.17109
343.2080, 26.35686
343.6901, 25.46145
344.1722, 24.70396
344.6544, 24.17585
345.1365, 23.85054
345.6186, 23.68975
346.1007, 24.04064
346.5828, 24.00466
347.0649, 23.21727
347.5471, 22.25099
348.0292, 21.62037
348.5113, 21.41734
348.9934, 21.37996
349.4755, 21.21195
349.9576, 20.89526
350.4398, 20.49557
350.9219, 19.84735
351.4040, 19.27681
351.8861, 19.01995
352.3682, 19.01040
352.8503, 19.00084
353.3325, 18.79480
353.8146, 18.41272
354.2967, 18.17688
354.7788, 18.30216
355.2609, 18.32820
355.7430, 18.05616
356.2252, 17.65316
356.7073, 17.36361
357.1894, 17.30520
357.6715, 17.39509
358.1536, 17.42018
358.6357, 17.26999
359.1179, 17.22803
359.5999, 17.46164
360.0821, 17.70015
360.5642, 17.68527
361.0463, 17.38639
361.5284, 17.00381
362.0105, 16.78561
362.4926, 16.77118
362.9748, 16.77376
363.4569, 16.88502
363.9390, 16.92802
364.4211, 16.75665
364.9032, 16.44129
365.3853, 16.16920
365.8675, 16.07576
366.3496, 16.15277
366.8317, 16.33069
367.3138, 16.74554
367.7959, 17.08853
368.2780, 17.28183
368.7602, 17.37237
369.2423, 17.40310
369.7244, 17.38912
370.2065, 17.36656
370.6886, 17.42479
371.1707, 17.63107
371.6529, 17.74427
372.1350, 17.59930
372.6171, 17.45024
373.0992, 17.51179
373.5813, 17.78946
374.0634, 18.06634
374.5456, 18.06057
375.0277, 17.75032
375.5098, 17.64163
375.9919, 17.91348
376.4740, 18.21549
376.9561, 18.41948
377.4383, 18.52789
377.9204, 18.54749
378.4025, 18.42473
378.8846, 18.24881
379.3667, 18.32422
379.8488, 18.80896
380.3310, 19.13185
380.8131, 18.94036
381.2952, 18.52824
381.7773, 18.14851
382.2594, 17.84686
382.7415, 17.67142
383.2237, 17.73763
383.7058, 18.04364
384.1879, 18.27596
384.6700, 18.32402
385.1521, 18.30698
385.6342, 18.31842
386.1164, 18.36064
386.5985, 18.44696
387.0806, 18.64337
387.5627, 18.88304
388.0448, 19.00293
388.5269, 18.97692
389.0091, 18.87341
389.4912, 18.66964
389.9733, 18.42545
390.4554, 18.28133
390.9375, 18.28426
391.4196, 18.38041
391.9018, 18.64103
392.3839, 19.02540
392.8660, 19.11294
393.3481, 18.59299
393.8302, 17.78522
394.3123, 17.32396
394.7945, 17.27367
395.2766, 17.30713
395.7587, 17.37484
396.2408, 17.42448
396.7229, 17.32522
397.2050, 17.03101
397.6872, 16.74485
398.1693, 16.75040
398.6514, 17.08689
399.1335, 17.12890
399.6156, 16.49144
400.0977, 15.83948
400.5798, 15.72006
401.0620, 16.04974
401.5441, 16.35564
402.0262, 16.34004
402.5083, 16.07281
402.9904, 15.90386
403.4725, 15.94669
403.9547, 15.93184
404.4368, 15.73375
404.9189, 15.47852
405.4010, 15.33694
405.8831, 15.35963
406.3652, 15.45676
406.8474, 15.50036
407.3295, 15.47745
407.8116, 15.43149
408.2937, 15.45196
408.7758, 15.37626
409.2579, 14.99610
409.7401, 14.41690
410.2222, 13.97323
410.7043, 13.93228
411.1864, 14.23385
411.6685, 14.33902
412.1506, 13.97470
412.6328, 13.74613
413.1149, 13.91206
413.5970, 14.18077
414.0791, 14.19932
414.5612, 13.85418
415.0433, 13.36215
415.5255, 13.06671
416.0076, 13.03182
416.4897, 12.96863
416.9718, 12.79906
417.4539, 12.65067
417.9360, 12.61350
418.4182, 12.65904
418.9003, 12.68109
419.3824, 12.59721
419.8645, 12.42889
420.3466, 12.27666
420.8287, 12.17095
421.3109, 12.01734
421.7930, 11.64251
422.2751, 11.25857
422.7572, 11.16217
423.2393, 11.48555
423.7214, 11.86290
424.2036, 11.84210
424.6857, 11.44222
425.1678, 11.16175
425.6499, 11.11311
426.1320, 11.22246
426.6141, 11.49844
427.0963, 11.90528
427.5784, 12.14881
428.0605, 11.97473
428.5426, 11.61554
429.0247, 11.44203
429.5068, 11.48150
429.9890, 11.54174
430.4711, 11.51178
430.9532, 11.40805
431.4353, 11.28704
431.9174, 11.02223
432.3995, 10.92848
432.8817, 11.35489
433.3638, 12.04772
433.8459, 12.45349
434.3280, 12.38518
434.8101, 12.07981
435.2922, 11.85261
435.7744, 11.73377
436.2565, 11.57077
436.7386, 11.22386
437.2207, 10.93856
437.7028, 10.96480
438.1849, 11.23679
438.6671, 11.45236
439.1492, 11.39490
439.6313, 11.12669
440.1134, 11.01523
440.5955, 11.31150
441.0776, 11.45452
441.5598, 11.28451
442.0418, 10.98282
442.5240, 10.69733
443.0061, 10.48333
443.4882, 10.36760
443.9703, 10.40221
444.4524, 10.62507
444.9345, 10.82132
445.4167, 10.93746
445.8988, 11.07947
446.3809, 11.37046
446.8630, 11.70579
447.3451, 11.88093
447.8272, 11.76110
448.3094, 11.45021
448.7915, 11.20325
449.2736, 11.03505
449.7557, 10.88921
450.2378, 10.70357
450.7199, 10.56757
451.2021, 10.56035
451.6842, 10.68668
452.1663, 10.87112
452.6484, 11.11144
453.1305, 11.37336
453.6126, 11.46250
454.0948, 11.28211
454.5769, 11.13261
455.0590, 11.38190
455.5411, 11.78352
456.0232, 11.86309
456.5053, 11.32038
456.9875, 10.69848
457.4696, 10.50730
457.9517, 10.65211
458.4338, 10.65239
458.9159, 10.27125
459.3980, 9.834542
459.8802, 9.924731
460.3623, 10.59558
460.8444, 11.08695
461.3265, 11.22025
461.8086, 11.14628
462.2907, 10.89343
462.7729, 10.52050
463.2550, 10.27735
463.7371, 10.35882
464.2192, 10.69555
464.7013, 10.88829
465.1834, 10.77544
465.6656, 10.73480
466.1477, 10.97405
466.6298, 11.23456
467.1119, 11.16288
467.5940, 10.71187
468.0761, 10.21144
468.5583, 10.06754
469.0404, 10.34105
469.5225, 10.57384
470.0046, 10.79385
470.4867, 10.94197
470.9688, 10.93541
471.4510, 10.85684
471.9331, 10.84664
472.4152, 10.97758
472.8973, 11.16681
473.3794, 11.24498
473.8615, 11.17722
474.3437, 11.14877
474.8258, 11.31202
475.3079, 11.42363
475.7900, 11.26378
476.2721, 10.87971
476.7542, 10.55726
477.2364, 10.46924
477.7185, 10.56682
478.2006, 10.80135
478.6827, 11.21571
479.1648, 11.49546
479.6469, 11.39975
480.1291, 11.09684
480.6112, 10.90985
481.0933, 10.90493
481.5754, 10.86841
482.0575, 10.59166
482.5396, 10.23313
483.0217, 10.13420
483.5038, 10.37282
483.9860, 10.65213
484.4681, 10.67218
484.9502, 10.42014
485.4323, 10.30091
485.9144, 10.48237
486.3965, 10.61024
486.8787, 10.48244
487.3608, 10.20476
487.8429, 9.958617
488.3250, 9.816219
488.8071, 9.772143
489.2892, 9.820341
489.7714, 9.982233
490.2535, 10.19161
490.7356, 10.62463
491.2177, 10.93459
491.6998, 10.83236
492.1819, 10.45692
492.6641, 10.17032
493.1462, 10.21633
493.6283, 10.47237
494.1104, 10.56172
494.5925, 10.39346
495.0746, 10.30534
495.5568, 10.46400
496.0389, 10.66999
496.5210, 10.79846
497.0031, 10.83622
497.4852, 10.82141
497.9673, 10.76547
498.4495, 10.67800
498.9316, 10.57479
499.4137, 10.44628
499.8958, 10.35092
500.3779, 10.34775
500.8600, 10.39200
501.3422, 10.38755
501.8243, 10.30755
502.3064, 10.22688
502.7885, 10.13773
503.2706, 10.08391
503.7527, 10.18649
504.2349, 10.47427
504.7170, 10.74993
505.1991, 10.79461
505.6812, 10.58994
506.1633, 10.55682
506.6454, 10.90315
507.1276, 11.17091
507.6097, 11.15007
508.0918, 10.95402
508.5739, 10.72551
509.0560, 10.52472
509.5381, 10.41230
510.0203, 10.52395
510.5024, 10.99149
510.9845, 11.23059
511.4666, 10.98532
511.9487, 10.76423
512.4308, 10.79587
512.9130, 10.99502
513.3951, 11.16551
513.8772, 11.20059
514.3593, 11.18204
514.8414, 11.26272
515.3235, 11.45461
515.8057, 11.66075
516.2878, 11.89697
516.7699, 12.10209
517.2520, 12.23679
517.7341, 12.30098
518.2162, 12.29934
518.6984, 12.12257
519.1805, 11.94443
519.6626, 12.04554
520.1447, 12.40616
520.6268, 12.69185
521.1089, 12.69510
521.5911, 12.58527
522.0732, 12.78252
522.5553, 13.40129
523.0374, 13.93045
523.5195, 14.29082
524.0016, 14.52205
524.4838, 14.62538
524.9659, 14.62098
525.4480, 14.01976
525.9301, 14.74536
526.4122, 15.15896
526.8943, 15.27732
527.3765, 14.21615
527.8586, 14.67809
528.3407, 14.52964
528.8228, 14.35616
529.3049, 15.03247
529.7870, 14.14287
530.2692, 14.23169
530.7513, 14.89732
531.2334, 15.25094
531.7155, 15.30932
532.1976, 14.18818
532.6797, 14.59014
533.1619, 14.38170
533.6440, 14.14825
534.1261, 14.76458
534.6082, 13.81500
535.0903, 14.41786
535.5724, 14.40101
536.0546, 14.66777
536.5367, 14.32039
537.0188, 14.16270
537.5009, 14.61937
537.9830, 14.73586
538.4651, 14.31777
538.9473, 14.60257
539.4294, 13.63153
539.9115, 14.24088
540.3936, 14.02070
540.8757, 13.55938
541.3578, 13.21582
541.8400, 13.06734
542.3221, 12.99921
542.8042, 12.89295
543.2863, 12.74665
543.7684, 12.68234
544.2505, 12.77998
544.7326, 12.86755
545.2147, 12.94591
545.6968, 12.98149
546.1790, 12.92550
546.6611, 12.77046
547.1432, 12.58056
547.6253, 12.34684
548.1074, 12.09505
548.5895, 12.21535
549.0717, 12.97568
549.5538, 13.56253
550.0359, 13.26237
550.5180, 12.53325
551.0001, 12.01829
551.4822, 11.80693
551.9644, 11.85615
552.4465, 12.39676
552.9286, 13.12981
553.4107, 13.37847
553.8928, 13.00389
554.3749, 12.46175
554.8571, 12.11092
555.3392, 11.95394
555.8213, 12.04092
556.3034, 12.64451
556.7855, 13.12232
557.2676, 13.24538
557.7498, 13.18596
558.2319, 13.14904
558.7140, 13.18245
559.1961, 13.19624
559.6782, 13.07050
560.1603, 12.80303
560.6425, 12.65170
561.1246, 12.67800
561.6067, 12.73814
562.0888, 12.76070
562.5709, 12.80099
563.0530, 12.90856
563.5352, 13.09365
564.0173, 13.38603
564.4994, 14.00919
564.9815, 14.76904
565.4636, 14.90263
565.9457, 14.21157
566.4279, 13.56578
566.9100, 13.57055
567.3921, 14.08441
567.8742, 14.52538
568.3563, 14.87526
568.8384, 15.18364
569.3206, 15.59920
569.8027, 15.91577
570.2848, 15.78128
570.7669, 15.20271
571.2490, 14.58394
571.7311, 14.26526
572.2133, 14.23356
572.6954, 14.36812
573.1775, 14.97818
573.6596, 15.32225
574.1417, 15.11948
574.6238, 14.75104
575.1060, 14.52766
575.5881, 14.49401
576.0702, 14.53314
576.5523, 14.58140
577.0344, 14.62191
577.5165, 14.57152
577.9987, 14.40150
578.4808, 14.27025
578.9629, 14.28787
579.4450, 14.35252
579.9271, 14.31586
580.4092, 14.16186
580.8914, 14.00524
581.3735, 13.85448
581.8556, 13.74463
582.3377, 13.74929
582.8198, 13.84776
583.3019, 13.90906
583.7841, 13.85275
584.2662, 13.72089
584.7483, 13.63070
585.2304, 13.63945
585.7125, 13.59404
586.1946, 13.36485
586.6768, 13.19844
587.1589, 13.28159
587.6410, 13.55959
588.1231, 13.86812
588.6052, 14.12205
589.0873, 14.32110
589.5695, 14.48654
590.0516, 14.63764
590.5337, 14.59168
591.0158, 14.13413
591.4979, 13.68090
591.9800, 13.63061
592.4622, 13.88693
592.9443, 14.05720
593.4264, 13.92892
593.9085, 13.75543
594.3906, 13.79326
594.8727, 13.95388
595.3549, 13.97020
595.8370, 13.75074
596.3191, 13.45840
596.8012, 13.28395
597.2833, 13.23573
597.7654, 13.25317
598.2476, 13.28579
598.7297, 13.43052
599.2118, 13.89364
599.6939, 14.41080
600.1760, 14.62278
600.6581, 14.43768
601.1403, 14.09387
601.6224, 13.82191
602.1045, 13.62137
602.5866, 13.51073
603.0687, 13.50602
603.5508, 13.55740
604.0330, 13.71446
604.5151, 13.88293
604.9972, 13.91906
605.4793, 13.77607
605.9614, 13.65782
606.4435, 13.66974
606.9257, 13.76503
607.4078, 13.92738
607.8899, 14.13350
608.3720, 14.24757
608.8541, 14.18200
609.3362, 13.96517
609.8184, 13.67676
610.3005, 13.04448
610.7826, 12.76741
611.2647, 13.12477
611.7468, 13.57901
612.2289, 13.78879
612.7111, 13.79714
613.1932, 13.83838
613.6753, 14.07167
614.1574, 14.32441
614.6395, 14.21798
615.1216, 13.71697
615.6038, 13.30903
616.0859, 13.03594
616.5680, 12.94627
617.0501, 13.23870
617.5322, 13.77101
618.0143, 14.03904
618.4965, 13.66755
618.9786, 13.31224
619.4607, 13.38769
619.9428, 13.74850
620.4249, 14.16122
620.9070, 14.56140
621.3892, 14.92990
621.8713, 15.25809
622.3534, 15.54561
622.8355, 15.67666
623.3176, 15.40716
623.7997, 15.29722
624.2819, 15.56322
624.7640, 15.93268
625.2461, 16.15733
625.7282, 16.21107
626.2103, 16.23863
626.6924, 16.39016
627.1745, 16.57962
627.6566, 16.49920
628.1387, 16.11147
628.6208, 16.01247
629.1030, 16.55203
629.5851, 17.33657
630.0672, 17.78650
630.5493, 17.89851
631.0314, 17.96914
631.5135, 17.93259
631.9957, 17.97135
632.4778, 18.18738
632.9599, 18.56964
633.4420, 19.10073
633.9241, 19.76835
634.4063, 20.52710
634.8884, 21.34730
635.3705, 22.26575
635.8526, 22.95050
636.3347, 23.21095
636.8168, 23.49596
637.2990, 23.94695
637.7811, 24.51080
638.2632, 25.18276
638.7453, 25.97208
639.2274, 26.62554
639.7095, 26.78692
640.1917, 26.75875
640.6738, 27.18575
641.1559, 28.08160
641.6380, 28.79636
642.1201, 28.89473
642.6022, 28.74452
643.0844, 29.21813
643.5665, 30.84331
644.0486, 31.99616
644.5307, 32.51336
645.0128, 32.71921
645.4949, 32.60416
645.9771, 32.35050
646.4592, 32.28855
646.9413, 32.56995
647.4234, 32.94026
647.9055, 33.05255
648.3876, 32.90950
648.8698, 32.65535
649.3519, 32.32231
649.8340, 31.82884
650.3161, 31.02613
650.7982, 30.05054
651.2803, 29.19729
651.7625, 28.54217
652.2446, 27.86574
652.7267, 27.07175
653.2088, 26.22313
653.6909, 25.36310
654.1730, 24.51436
654.6552, 23.73095
655.1373, 23.04753
655.6194, 22.44380
656.1015, 21.86326
656.5836, 21.30365
657.0657, 20.77751
657.5479, 20.26603
658.0300, 19.80970
658.5121, 19.42811
658.9942, 19.11497
659.4763, 18.84971
659.9584, 18.60944
660.4406, 18.46458
660.9227, 18.58947
661.4048, 18.84711
661.8869, 18.84188
662.3690, 18.51179
662.8511, 18.15503
663.3333, 17.97976
663.8154, 17.94302
664.2975, 17.86640
664.7796, 17.81238
665.2617, 17.62607
665.7438, 17.00521
666.2260, 16.50811
666.7081, 16.68152
667.1902, 17.29850
667.6723, 17.68257
668.1544, 17.44489
668.6365, 16.99911
669.1187, 17.12692
669.6008, 17.78497
670.0829, 17.90085
670.5650, 17.15291
671.0471, 16.30567
671.5292, 15.89788
672.0114, 15.84726
672.4935, 15.83404
672.9756, 15.99277
673.4577, 15.94540
673.9398, 15.36430
674.4219, 14.67560
674.9041, 14.27586
675.3862, 14.17654
675.8683, 14.22792
676.3504, 14.35594
676.8325, 14.48064
677.3146, 14.37051
677.7968, 13.94493
678.2789, 13.68256
678.7610, 13.72310
679.2431, 13.81892
679.7252, 13.84718
680.2073, 13.81713
680.6895, 13.73203
681.1716, 13.54985
681.6537, 13.41819
682.1358, 13.50129
682.6179, 13.64865
683.1000, 13.63327
683.5822, 13.44475
684.0643, 13.21067
684.5464, 13.00977
685.0285, 12.83050
685.5106, 12.63111
685.9927, 12.36606
686.4749, 12.18904
686.9570, 12.14389
687.4391, 12.15234
687.9212, 12.24752
688.4033, 12.35781
688.8854, 12.34608
689.3676, 12.14754
689.8497, 11.91585
690.3318, 11.74604
690.8139, 11.64589
691.2960, 11.66334
691.7781, 11.79762
692.2603, 11.92433
692.7424, 11.97491
693.2245, 11.95664
693.7066, 11.88312
694.1887, 11.68955
694.6708, 11.57284
695.1530, 11.50607
695.6351, 11.53722
696.1172, 11.78519
696.5993, 12.12003
697.0814, 12.32912
697.5635, 12.33736
698.0457, 12.22887
698.5278, 12.00970
699.0099, 11.74388
699.4920, 11.65751
699.9741, 11.77521
700.4562, 11.93305
700.9384, 12.06104
701.4205, 12.15778
701.9026, 12.22647
702.3847, 12.29920
702.8668, 12.24568
703.3489, 11.92191
703.8311, 11.61943
704.3132, 11.46498
704.7953, 11.43445
705.2774, 11.52868
705.7595, 11.73191
706.2416, 11.85887
706.7238, 11.60394
707.2059, 11.08922
707.6880, 10.88392
708.1701, 11.03171
708.6522, 11.22139
709.1343, 11.33107
709.6164, 11.40870
710.0985, 11.55186
710.5806, 11.78779
711.0627, 11.89070
711.5449, 11.74139
712.0270, 11.56932
712.5091, 11.45761
712.9912, 11.40209
713.4733, 11.41208
713.9554, 11.47710
714.4376, 11.52347
714.9197, 11.46361
715.4018, 11.33397
715.8839, 11.27196
716.3660, 11.27952
716.8481, 11.34908
717.3303, 11.51127
717.8124, 11.68988
718.2945, 11.81241
718.7766, 11.87943
719.2587, 11.87633
719.7408, 11.78785
720.2230, 11.64506
720.7051, 11.39949
721.1872, 11.14083
721.6693, 10.97084
722.1514, 10.90178
722.6335, 10.87784
723.1157, 10.84684
723.5978, 10.84930
724.0799, 11.06797
724.5620, 11.55163
725.0441, 11.73362
725.5262, 11.38095
726.0084, 10.92631
726.4905, 10.70107
726.9726, 10.66643
727.4547, 10.67581
727.9368, 10.71163
728.4189, 10.80679
728.9011, 11.00640
729.3832, 11.24397
729.8653, 11.49713
730.3474, 11.72983
730.8295, 11.85635
731.3116, 11.82427
731.7938, 11.70551
732.2759, 11.61190
732.7580, 11.54363
733.2401, 11.50280
733.7222, 11.48642
734.2043, 11.51406
734.6865, 11.69641
735.1686, 11.88536
735.6507, 11.71288
736.1328, 10.99716
736.6149, 10.55346
737.0970, 10.72901
737.5792, 11.05859
738.0613, 11.22715
738.5434, 11.30246
739.0255, 11.52478
739.5076, 11.96158
739.9897, 12.31326
740.4719, 12.11376
740.9540, 11.47437
741.4361, 11.24409
741.9182, 11.51293
742.4003, 11.72886
742.8824, 11.63809
743.3646, 11.45949
743.8467, 11.52901
744.3288, 11.85190
744.8109, 12.00226
745.2930, 11.76830
745.7751, 11.56308
746.2573, 11.60116
746.7394, 11.73279
747.2215, 11.78524
747.7036, 11.73082
748.1857, 11.61725
748.6678, 11.43881
749.1500, 11.29037
749.6321, 11.46621
750.1142, 11.96619
750.5963, 12.24256
751.0784, 12.12230
751.5605, 11.95694
752.0427, 12.07269
752.5248, 12.38937
753.0069, 12.45934
753.4890, 12.11024
753.9711, 11.80565
754.4532, 11.54896
754.9354, 11.40248
755.4175, 11.44018
755.8996, 11.62018
756.3817, 11.89889
756.8638, 12.27366
757.3459, 12.52535
757.8281, 12.24978
758.3102, 11.62500
758.7923, 11.38053
759.2744, 11.57738
759.7565, 11.78983
760.2386, 11.81078
760.7208, 11.73859
761.2029, 11.73759
761.6850, 11.81737
762.1671, 11.93380
762.6492, 12.22740
763.1313, 12.38659
763.6135, 12.20656
764.0956, 11.90635
764.5777, 11.71196
765.0598, 11.65946
765.5419, 11.66237
766.0240, 11.61920
766.5062, 11.64045
766.9883, 12.04380
767.4704, 12.68068
767.9525, 12.84405
768.4346, 12.35126
768.9167, 11.75955
769.3989, 11.55917
769.8810, 11.68958
770.3631, 11.79178
770.8452, 11.84682
771.3273, 11.90858
771.8094, 12.01772
772.2916, 12.09821
772.7737, 12.13668
773.2558, 12.10990
773.7379, 11.94620
774.2200, 11.58041
774.7021, 11.27265
775.1843, 11.22162
775.6664, 11.31463
776.1485, 11.42315
776.6306, 11.53177
777.1127, 11.64694
777.5948, 11.77305
778.0770, 11.87483
778.5591, 11.89579
779.0412, 11.83294
779.5233, 11.74650
780.0054, 11.59362
780.4875, 11.50853
780.9697, 11.58439
781.4518, 11.71095
781.9339, 11.77651
782.4160, 11.78627
782.8981, 11.81689
783.3802, 11.91371
783.8624, 12.00474
784.3445, 12.06614
784.8266, 12.09375
785.3087, 12.05663
785.7908, 11.97280
786.2729, 11.93143
786.7551, 12.00048
787.2372, 12.11060
787.7193, 12.11174
788.2014, 12.00529
788.6835, 11.88689
789.1656, 11.72075
789.6478, 11.72348
790.1299, 12.13575
790.6120, 12.73887
791.0941, 12.98178
791.5762, 12.73147
792.0583, 12.54342
792.5404, 12.63371
793.0225, 12.58789
793.5046, 11.98223
793.9868, 11.23491
794.4689, 10.92384
794.9510, 11.15421
795.4331, 11.56993
795.9152, 11.99470
796.3973, 12.37600
796.8795, 12.61046
797.3616, 12.71658
797.8437, 12.78165
798.3258, 12.82843
798.8079, 12.80957
799.2900, 12.66408
799.7722, 12.42884
800.2543, 12.31611
800.7364, 12.37081
801.2185, 12.45508
801.7006, 12.66822
802.1827, 12.79787
802.6649, 12.65646
803.1470, 12.38479
803.6291, 12.23715
804.1112, 12.26997
804.5933, 12.39369
805.0754, 12.72719
805.5576, 13.00104
806.0397, 12.81555
806.5218, 12.36199
807.0039, 12.16999
807.4860, 12.40382
807.9681, 12.69273
808.4503, 12.59088
808.9324, 12.19814
809.4145, 12.05778
809.8966, 12.19517
810.3787, 12.44395
810.8608, 12.82859
811.3430, 13.19345
811.8251, 13.39761
812.3072, 13.45378
812.7893, 13.47470
813.2714, 13.54394
813.7535, 13.45498
814.2357, 13.00785
814.7178, 12.55065
815.1999, 12.27747
815.6820, 12.19526
816.1641, 12.35573
816.6462, 12.78543
817.1284, 13.06355
817.6105, 12.60180
818.0926, 11.80764
818.5747, 11.45441
819.0568, 11.53106
819.5389, 11.82865
820.0211, 12.28812
820.5032, 12.74405
820.9853, 13.01282
821.4674, 13.09952
821.9495, 13.06406
822.4316, 12.80457
822.9138, 12.64544
823.3959, 12.71681
823.8780, 12.83180
824.3601, 12.90979
824.8422, 12.93266
825.3243, 12.82483
825.8065, 12.43904
826.2886, 12.25532
826.7707, 12.67052
827.2528, 13.18573
827.7349, 13.35637
828.2170, 13.26436
828.6992, 13.13618
829.1813, 13.06149
829.6634, 13.08089
830.1455, 13.35452
830.6276, 13.73239
831.1097, 13.60262
831.5919, 12.97744
832.0740, 12.54834
832.5561, 12.53296
833.0382, 12.67403
833.5203, 12.71581
834.0024, 12.69232
834.4846, 12.88671
834.9667, 13.72253
835.4488, 14.06867
835.9309, 13.57588
836.4130, 12.91782
836.8951, 12.21762
837.3773, 11.66247
837.8594, 11.61691
838.3415, 12.22432
838.8236, 12.78336
839.3057, 12.93280
839.7878, 12.86936
840.2700, 12.64141
840.7521, 12.38452
841.2342, 12.42545
841.7163, 12.81096
842.1984, 13.18439
842.6805, 13.21373
843.1627, 12.99011
843.6448, 12.72391
844.1269, 12.40938
844.6090, 12.34243
845.0911, 12.65526
845.5732, 12.92457
846.0554, 12.80235
846.5375, 12.45868
847.0196, 12.38840
847.5017, 12.73807
847.9838, 13.03207
848.4659, 13.39515
848.9481, 13.56165
849.4302, 13.28972
849.9123, 12.84692
850.3944, 12.51739
850.8765, 12.34938
851.3586, 12.30470
851.8408, 12.50355
852.3229, 12.67959
852.8050, 12.49202
853.2871, 12.17261
853.7692, 12.19154
854.2513, 12.54273
854.7335, 12.78325
855.2156, 12.61973
855.6977, 12.28858
856.1798, 12.29056
856.6619, 12.60724
857.1440, 12.58748
857.6262, 12.10818
858.1083, 11.78433
858.5904, 11.91139
859.0725, 12.28409
859.5546, 12.67309
860.0367, 13.10029
860.5189, 13.27030
861.0010, 12.97603
861.4831, 12.71628
861.9652, 12.57807
862.4473, 12.49261
862.9294, 12.37221
863.4116, 12.26084
863.8937, 12.31038
864.3758, 12.62390
864.8579, 12.90827
865.3400, 13.01138
865.8221, 12.96574
866.3043, 12.74715
866.7864, 12.41683
867.2685, 12.10445
867.7506, 11.85931
868.2327, 11.68779
868.7148, 11.61638
869.1970, 11.61277
869.6791, 11.55311
870.1612, 11.43746
870.6433, 11.38384
871.1254, 11.41533
871.6075, 11.53542
872.0897, 11.80183
872.5718, 12.11186
873.0539, 12.10664
873.5360, 11.52254
874.0181, 11.22837
874.5002, 11.46758
874.9823, 11.72254
875.4644, 11.91948
875.9465, 11.98994
876.4286, 11.75615
876.9108, 11.23994
877.3929, 10.95388
877.8750, 11.40195
878.3571, 11.74248
878.8392, 11.32794
879.3214, 10.66262
879.8035, 10.32894
880.2856, 10.34332
880.7677, 10.47427
881.2498, 10.61620
881.7319, 10.72224
882.2141, 10.64972
882.6962, 10.50740
883.1783, 10.73769
883.6604, 11.30067
884.1425, 11.53836
884.6246, 11.18789
885.1068, 10.73852
885.5889, 10.75311
886.0710, 11.15187
886.5531, 11.28627
887.0352, 11.03269
887.5173, 10.87642
887.9995, 10.91330
888.4816, 11.01033
888.9637, 11.16770
889.4458, 11.30344
889.9279, 11.20685
890.4100, 10.76569
890.8922, 10.54354
891.3743, 10.83395
891.8564, 11.10985
892.3385, 11.07852
892.8206, 10.93889
893.3027, 10.97759
893.7849, 11.16826
894.2670, 11.19922
894.7491, 10.83777
895.2312, 10.43173
895.7133, 10.34358
896.1954, 10.40203
896.6776, 10.24110
897.1597, 9.937239
897.6418, 9.994801
898.1239, 10.61959
898.6060, 11.27359
899.0881, 11.23334
899.5703, 10.64375
900.0524, 10.25221
900.5345, 10.06549
901.0166, 9.968667
901.4987, 9.940551
901.9808, 9.980573
902.4630, 10.11024
902.9451, 10.29149
903.4272, 10.38137
903.9093, 10.28634
904.3914, 10.32282
904.8735, 10.75712
905.3557, 10.98674
905.8378, 10.60996
906.3199, 10.05310
906.8020, 9.781413
907.2841, 9.808337
907.7662, 9.860653
908.2484, 9.830924
908.7305, 9.869954
909.2126, 10.22765
909.6947, 10.52845
910.1768, 10.20693
910.6589, 9.558374
911.1411, 9.412160
911.6232, 10.08980
912.1053, 10.88397
912.5874, 11.25635
913.0695, 11.32328
913.5516, 11.17391
914.0338, 10.87845
914.5159, 10.60531
914.9980, 10.40273
915.4801, 10.28782
915.9622, 10.28037
916.4443, 10.34688
916.9265, 10.40726
917.4086, 10.46179
917.8907, 10.56838
918.3728, 10.75562
918.8549, 10.84322
919.3370, 10.71608
919.8192, 10.51820
920.3013, 10.41637
920.7834, 10.40642
921.2655, 10.68222
921.7476, 11.61690
922.2297, 12.19151
922.7119, 11.98295
923.1940, 11.65583
923.6761, 11.58200
924.1582, 11.66150
924.6403, 11.66824
925.1224, 11.55106
925.6046, 11.49372
926.0867, 11.63166
926.5688, 11.73848
927.0509, 11.63376
927.5330, 11.46977
928.0151, 11.44245
928.4973, 11.54849
928.9794, 11.63961
929.4615, 11.63046
929.9436, 11.62106
930.4257, 11.71385
930.9078, 11.85237
931.3900, 12.02193
931.8721, 12.15892
932.3542, 12.03374
932.8363, 11.59450
933.3184, 11.16424
933.8005, 11.07065
934.2827, 11.21671
934.7648, 11.41412
935.2469, 11.63961
935.7290, 11.59546
936.2111, 11.21690
936.6932, 10.99530
937.1754, 11.26159
937.6575, 11.70855
938.1396, 11.75380
938.6217, 11.35829
939.1038, 11.05103
939.5859, 10.86078
940.0681, 10.68058
940.5502, 10.48886
941.0323, 10.28874
941.5144, 10.07949
941.9965, 9.863826
942.4786, 9.637239
942.9608, 9.251237
943.4429, 9.158614
943.9250, 9.735120
944.4071, 10.18741
944.8892, 10.14022
945.3713, 9.836218
945.8535, 9.529207
946.3356, 9.246213
946.8177, 8.938735
947.2998, 8.483825
947.7819, 8.163174
948.2640, 8.164043
948.7462, 8.319844
949.2283, 8.609957
949.7104, 8.893049
950.1925, 8.832601
950.6746, 8.365286
951.1567, 8.034226
951.6389, 8.504345
952.1210, 9.123925
952.6031, 8.937015
953.0852, 8.289221
953.5673, 7.910002
954.0494, 7.889439
954.5316, 8.047884
955.0137, 8.299326
955.4958, 8.461453
955.9779, 8.167529
956.4600, 7.543188
956.9421, 7.191905
957.4242, 7.111627
957.9063, 7.268655
958.3884, 7.669053
958.8705, 8.170932
959.3527, 8.710170
959.8348, 9.160533
960.3169, 9.061235
960.7990, 8.247869
961.2811, 7.772258
961.7632, 7.701800
962.2454, 7.851663
962.7275, 8.296933
963.2096, 8.732972
963.6917, 8.796128
964.1738, 8.523398
964.6559, 8.324466
965.1381, 8.195935
965.6202, 8.149540
966.1023, 8.228505
966.5844, 8.337796
967.0665, 8.502943
967.5486, 8.638614
968.0308, 8.586164
968.5129, 8.341208
968.9950, 8.216781
969.4771, 8.460196
969.9592, 8.591324
970.4413, 8.342263
970.9235, 8.013396
971.4056, 7.791510
971.8877, 7.697627
972.3698, 7.741962
972.8519, 7.927967
973.3340, 8.152078
973.8162, 8.488694
974.2983, 8.702530
974.7804, 8.493307
975.2625, 8.099650
975.7446, 7.768367
976.2267, 7.590971
976.7089, 7.728716
977.1910, 8.274102
977.6731, 8.842709
978.1552, 9.033594
978.6373, 8.985584
979.1194, 8.894381
979.6016, 8.780892
980.0837, 8.700419
980.5658, 8.656586
981.0479, 8.568337
981.5300, 8.369327
982.0121, 8.170152
982.4943, 8.225943
982.9764, 8.471227
983.4585, 8.515775
983.9406, 8.352939
984.4227, 8.220817
984.9048, 8.206883
985.3870, 8.029973
985.8691, 7.349719
986.3512, 6.464135
986.8333, 6.463141
987.3154, 7.500537
987.7975, 8.155274
988.2797, 8.317646
988.7618, 8.219580
989.2439, 7.828797
989.7260, 7.481649
990.2081, 7.627425
990.6902, 8.189795
991.1724, 8.428317
991.6545, 8.154401
992.1366, 7.998199
992.6187, 8.076881
993.1008, 8.160321
993.5829, 8.170255
994.0651, 8.108669
994.5472, 7.949594
995.0293, 7.690572
995.5114, 7.496336
995.9935, 7.333800
996.4756, 7.286518
996.9578, 7.413976
997.4399, 7.608188
997.9220, 7.839768
998.4041, 8.084771
998.8862, 8.359200
999.3683, 8.666516
999.8505, 8.746838
1000.333, 8.234288
1000.815, 7.880388
1001.297, 8.205251
1001.779, 8.582645
1002.261, 8.384163
1002.743, 7.864388
1003.225, 7.620274
1003.707, 7.801009
1004.190, 8.035613
1004.672, 8.164122
1005.154, 8.256891
1005.636, 8.424877
1006.118, 8.539810
1006.600, 8.431318
1007.082, 8.131916
1007.564, 7.716391
1008.046, 7.206389
1008.529, 6.891408
1009.011, 7.130551
1009.493, 7.562595
1009.975, 7.892615
1010.457, 8.079211
1010.939, 7.981688
1011.421, 7.666585
1011.903, 7.403003
1012.385, 7.319694
1012.868, 7.416202
1013.350, 7.877749
1013.832, 8.415032
1014.314, 8.404440
1014.796, 8.014102
1015.278, 7.753708
1015.760, 7.704679
1016.242, 7.671686
1016.725, 7.535624
1017.207, 7.411611
1017.689, 7.502839
1018.171, 7.740627
1018.653, 7.861766
1019.135, 7.885711
1019.617, 7.992308
1020.099, 8.215896
1020.581, 8.381545
1021.064, 8.364465
1021.546, 8.249013
1022.028, 8.214633
1022.510, 8.243733
1022.992, 8.069091
1023.474, 7.682790
1023.956, 7.494245
1024.438, 7.626071
1024.921, 7.778447
1025.403, 7.724197
1025.885, 7.542938
1026.367, 7.383286
1026.849, 7.232192
1027.331, 7.409989
1027.813, 8.037596
1028.295, 8.228218
1028.777, 7.582450
1029.260, 7.022604
1029.742, 7.375304
1030.224, 8.258543
1030.706, 8.561096
1031.188, 8.147894
1031.670, 7.884232
1032.152, 7.807602
1032.634, 7.763303
1033.116, 7.680377
1033.599, 7.682681
1034.081, 7.943120
1034.563, 8.326700
1035.045, 8.388515
1035.527, 7.989907
1036.009, 7.751216
1036.491, 7.715811
1036.973, 7.766512
1037.456, 7.977011
1037.938, 8.126243
1038.420, 7.954874
1038.902, 7.588774
1039.384, 7.470597
1039.866, 7.744784
1040.348, 7.861841
1040.830, 7.723402
1041.313, 7.567851
1041.795, 7.394457
1042.277, 7.281882
1042.759, 7.325102
1043.241, 7.478697
1043.723, 7.616659
1044.205, 7.796988
1044.687, 7.793431
1045.169, 7.353671
1045.651, 7.048474
1046.134, 7.139936
1046.616, 7.337924
1047.098, 7.340828
1047.580, 7.261703
1048.062, 7.516192
1048.544, 8.362126
1049.026, 8.760579
1049.508, 8.148839
1049.991, 7.622402
1050.473, 7.631392
1050.955, 7.796301
1051.437, 7.812846
1051.919, 7.714130
1052.401, 7.637448
1052.883, 7.599403
1053.365, 7.595847
1053.848, 7.660367
1054.330, 7.715428
1054.812, 7.730698
1055.294, 7.724810
1055.776, 7.738393
1056.258, 7.739852
1056.740, 7.618528
1057.222, 7.316213
1057.704, 7.152932
1058.187, 7.372406
1058.669, 7.552422
1059.151, 7.500727
1059.633, 7.344744
1060.115, 7.105209
1060.597, 6.879869
1061.079, 6.863653
1061.561, 7.107914
1062.043, 7.410419
1062.526, 7.913659
1063.008, 8.191340
1063.490, 7.830822
1063.972, 7.360310
1064.454, 7.224969
1064.936, 7.353314
1065.418, 7.528716
1065.900, 7.707031
1066.383, 7.907690
1066.865, 8.340851
1067.347, 8.537100
1067.829, 8.014791
1068.311, 7.401964
1068.793, 7.240960
1069.275, 7.403973
1069.757, 7.588782
1070.240, 7.732225
1070.722, 7.874866
1071.204, 8.077616
1071.686, 8.225408
1072.168, 8.268198
1072.650, 8.231479
1073.132, 8.032024
1073.614, 7.815464
1074.096, 7.871771
1074.578, 8.213013
1075.061, 8.456015
1075.543, 8.419901
1076.025, 8.293279
1076.507, 8.035116
1076.989, 7.852120
1077.471, 8.032402
1077.953, 8.333164
1078.435, 8.323973
1078.918, 8.000771
1079.400, 7.793273
1079.882, 7.973609
1080.364, 8.058620
1080.846, 7.670818
1081.328, 7.257334
1081.810, 7.142221
1082.292, 7.205127
1082.774, 7.268166
1083.257, 7.316886
1083.739, 7.442428
1084.221, 7.734283
1084.703, 7.927217
1085.185, 7.879501
1085.667, 7.714519
1086.149, 7.446988
1086.631, 7.155412
1087.114, 6.873521
1087.596, 6.647121
1088.078, 6.614972
1088.560, 6.876310
1089.042, 7.036963
1089.524, 6.829668
1090.006, 6.600559
1090.488, 6.470239
1090.970, 6.477717
1091.453, 6.761404
1091.935, 7.189102
1092.417, 7.446285
1092.899, 7.458209
1093.381, 7.335563
1093.863, 7.004156
1094.345, 6.695839
1094.827, 6.416840
1095.309, 6.300297
1095.792, 6.618182
1096.274, 7.121373
1096.756, 7.306801
1097.238, 7.089032
1097.720, 6.913649
1098.202, 6.900392
1098.684, 6.976671
1099.166, 7.227686
1099.649, 7.447117
1100.131, 7.528524
1100.613, 7.466238
1101.095, 7.170331
1101.577, 6.679198
1102.059, 6.440685
1102.541, 6.710299
1103.023, 6.998776
1103.505, 7.314990
1103.988, 7.480817
1104.470, 7.325637
1104.952, 7.019645
1105.434, 6.693456
1105.916, 6.390687
1106.398, 6.241669
1106.880, 6.266238
1107.362, 6.446413
1107.844, 7.021061
1108.327, 7.442276
1108.809, 7.524512
1109.291, 7.352242
1109.773, 6.794941
1110.255, 6.071789
1110.737, 5.839768
1111.219, 6.303017
1111.701, 6.631089
1112.184, 6.749408
1112.666, 6.749398
1113.148, 6.466005
1113.630, 6.257754
1114.112, 6.430812
1114.594, 6.810263
1115.076, 7.081626
1115.558, 7.236383
1116.041, 7.361757
1116.523, 7.520171
1117.005, 7.537659
1117.487, 7.305411
1117.969, 7.052096
1118.451, 6.787061
1118.933, 6.656076
1119.415, 6.936342
1119.897, 7.566059
1120.380, 7.861981
1120.862, 7.702773
1121.344, 7.493550
1121.826, 7.185704
1122.308, 6.953167
1122.790, 6.818317
1123.272, 6.858111
1123.754, 7.211788
1124.236, 7.753358
1124.719, 8.050940
1125.201, 8.070572
1125.683, 8.014429
1126.165, 7.853166
1126.647, 7.728464
1127.129, 7.675351
1127.611, 7.657179
1128.093, 7.640192
1128.576, 7.669157
1129.058, 7.869975
1129.540, 8.221834
1130.022, 8.210645
1130.504, 7.786743
1130.986, 7.616818
1131.468, 7.824933
1131.950, 8.044041
1132.432, 8.110482
1132.915, 8.006626
1133.397, 7.656448
1133.879, 7.193748
1134.361, 7.157863
1134.843, 7.503422
1135.325, 7.690823
1135.807, 7.686581
1136.289, 7.650401
1136.771, 7.634284
1137.254, 7.611657
1137.736, 7.559363
1138.218, 7.495868
1138.700, 7.445548
1139.182, 7.413833
1139.664, 7.454873
1140.146, 7.534050
1140.628, 7.442872
1141.111, 7.189885
1141.593, 7.141176
1142.075, 7.495184
1142.557, 7.835067
1143.039, 7.578241
1143.521, 7.091307
1144.003, 6.984707
1144.485, 7.120775
1144.968, 7.252137
1145.450, 7.348385
1145.932, 7.442359
1146.414, 7.542190
1146.896, 7.609471
1147.378, 7.582863
1147.860, 7.584590
1148.342, 7.796402
1148.824, 8.048121
1149.307, 8.204281
1149.789, 8.218976
1150.271, 7.949328
1150.753, 7.468855
1151.235, 7.130203
1151.717, 7.080347
1152.199, 7.171386
1152.681, 7.441488
1153.163, 7.680723
1153.646, 7.760636
1154.128, 7.729370
1154.610, 7.563563
1155.092, 7.356141
1155.574, 7.291907
1156.056, 7.407420
1156.538, 7.596530
1157.020, 7.976573
1157.503, 8.213037
1157.985, 8.098368
1158.467, 7.936980
1158.949, 7.900233
1159.431, 7.930494
1159.913, 8.018301
1160.395, 8.123592
1160.877, 7.942251
1161.359, 7.120498
1161.842, 6.695433
1162.324, 6.955451
1162.806, 7.182795
1163.288, 7.136750
1163.770, 7.058879
1164.252, 7.086120
1164.734, 7.241808
1165.216, 7.620890
1165.698, 8.258514
1166.181, 8.634385
1166.663, 8.706756
1167.145, 8.627915
1167.627, 8.328900
1168.109, 8.223746
1168.591, 8.541146
1169.073, 9.049603
1169.555, 9.543296
1170.037, 9.926889
1170.520, 9.186888
1171.002, 9.946774
1171.484, 10.39466
1171.966, 10.54730
1172.448, 9.520426
1172.930, 10.01666
1173.412, 9.902491
1173.894, 9.763303
1174.377, 10.47399
1174.859, 9.618677
1175.341, 10.31579
1175.823, 10.39322
1176.305, 10.75426
1176.787, 10.50113
1177.269, 10.43771
1177.751, 10.98864
1178.234, 11.19950
1178.716, 10.87567
1179.198, 11.25474
1179.680, 10.37797
1180.162, 10.60321
1180.644, 11.30394
1181.126, 11.01099
1181.608, 11.40129
1182.090, 11.53137
1182.573, 11.56789
1183.055, 11.78325
1183.537, 11.23995
1184.019, 10.74324
1184.501, 10.81337
1184.983, 10.92214
1185.465, 10.67293
1185.947, 10.43207
1186.429, 10.55098
1186.912, 10.89840
1187.394, 11.25780
1187.876, 11.59289
1188.358, 11.75432
1188.840, 11.49395
1189.322, 11.41743
1189.804, 11.79584
1190.286, 12.09177
1190.769, 12.14782
1191.251, 12.00865
1191.733, 11.50970
1192.215, 10.94826
1192.697, 11.20456
1193.179, 12.45510
1193.661, 12.93581
1194.143, 12.38699
1194.625, 12.06533
1195.108, 12.22905
1195.590, 12.30574
1196.072, 11.99256
1196.554, 11.59412
1197.036, 11.44894
1197.518, 11.51443
1198.000, 11.69660
1198.482, 11.97922
1198.964, 12.28933
1199.447, 12.58783
1199.929, 12.53223
1200.411, 12.08512
1200.893, 11.65648
1201.375, 11.47906
1201.857, 11.53543
1202.339, 12.02264
1202.821, 12.53264
1203.304, 12.22580
1203.786, 11.56032
1204.268, 11.36409
1204.750, 11.53957
1205.232, 11.67430
1205.714, 11.64353
1206.196, 11.42287
1206.678, 10.90171
1207.161, 10.50529
1207.643, 10.61351
1208.125, 10.80836
1208.607, 10.77867
1209.089, 10.70086
1209.571, 10.80412
1210.053, 11.01415
1210.535, 11.11115
1211.017, 11.05694
1211.500, 11.03342
1211.982, 11.44641
1212.464, 10.88390
1212.946, 11.51235
1213.428, 11.82882
1213.910, 11.85002
1214.392, 10.69171
1214.874, 11.05649
1215.356, 10.81090
1215.839, 10.54008
1216.321, 11.11923
1216.803, 10.13248
1217.285, 11.11970
1217.767, 11.22725
1218.249, 10.64627
1218.731, 10.27521
1219.213, 10.56898
1219.696, 10.96895
1220.178, 10.84116
1220.660, 10.43140
1221.142, 10.30798
1221.624, 10.38591
1222.106, 10.35951
1222.588, 10.27175
1223.070, 10.36651
1223.552, 10.64234
1224.035, 10.84317
1224.517, 10.84929
1224.999, 10.79207
1225.481, 10.82735
1225.963, 10.79712
1226.445, 10.46119
1226.927, 10.07118
1227.409, 9.790997
1227.891, 9.709102
1228.374, 10.09849
1228.856, 10.82572
1229.338, 11.12385
1229.820, 10.68378
1230.302, 10.19107
1230.784, 9.652826
1231.266, 9.289975
1231.748, 9.316764
1232.231, 9.378833
1232.713, 9.214784
1233.195, 8.991253
1233.677, 8.951709
1234.159, 9.075818
1234.641, 9.182509
1235.123, 9.266236
1235.605, 9.376586
1236.088, 9.536378
1236.570, 9.576779
1237.052, 9.444187
1237.534, 9.275019
1238.016, 9.148665
1238.498, 9.090811
1238.980, 9.145586
1239.462, 9.286831
1239.944, 9.538420
1240.427, 9.793073
1240.909, 9.604802
1241.391, 9.132840
1241.873, 9.067747
1242.355, 9.477489
1242.837, 9.677682
1243.319, 9.258899
1243.801, 8.916067
1244.283, 9.410422
1244.766, 9.904172
1245.248, 9.658159
1245.730, 9.186739
1246.212, 9.014571
1246.694, 9.001210
1247.176, 8.682898
1247.658, 8.106848
1248.140, 8.220710
1248.622, 9.977859
1249.105, 10.67863
1249.587, 9.270029
1250.069, 8.276628
1250.551, 8.427702
1251.033, 8.865081
1251.515, 9.158010
1251.997, 9.251966
1252.479, 9.002261
1252.962, 8.517640
1253.444, 8.451275
1253.926, 8.794227
1254.408, 9.117834
1254.890, 9.389067
1255.372, 9.487237
1255.854, 9.396821
1256.336, 9.292679
1256.818, 9.276185
1257.301, 9.250488
1257.783, 9.072009
1258.265, 8.867804
1258.747, 8.750722
1259.229, 8.765328
1259.711, 9.150583
1260.193, 9.630995
1260.675, 9.575463
1261.157, 9.063122
1261.640, 8.928382
1262.122, 9.550790
1262.604, 9.926326
1263.086, 9.494313
1263.568, 9.115880
1264.050, 9.076476
1264.532, 9.161551
1265.014, 9.383383
1265.497, 9.524011
1265.979, 9.259269
1266.461, 8.722723
1266.943, 8.476747
1267.425, 8.545399
1267.907, 8.794543
1268.389, 9.266308
1268.871, 9.382435
1269.354, 9.033066
1269.836, 8.862955
1270.318, 9.169614
1270.800, 9.476673
1271.282, 9.288654
1271.764, 8.927766
1272.246, 8.912807
1272.728, 9.084803
1273.210, 9.198959
1273.693, 9.264923
1274.175, 9.338089
1274.657, 9.404912
1275.139, 9.384441
1275.621, 9.260955
1276.103, 9.184884
1276.585, 9.200634
1277.067, 9.303897
1277.549, 9.645996
1278.032, 9.883582
1278.514, 9.744048
1278.996, 9.533193
1279.478, 9.530334
1279.960, 9.629355
1280.442, 9.612274
1280.924, 9.485467
1281.406, 9.455120
1281.889, 9.524249
1282.371, 9.702214
1282.853, 10.00040
1283.335, 10.19552
1283.817, 10.22586
1284.299, 9.987527
1284.781, 9.354230
1285.263, 9.360930
1285.745, 11.06614
1286.228, 14.47839
##END=



