##NAMES=Gaylussite
##RRUFFID=R040146
##IDEAL CHEMISTRY=Na_2_Ca(CO_3_)_2_&#183;5H_2_O
##LOCALITY=Searles Lake, Trona, San Bernardino County, California, USA
##OWNER=RRUFF
##SOURCE=University of Arizona Mineral Museum
##DESCRIPTION=Colorless crystal fragments
##STATUS=The identification of this mineral has been confirmed by X-ray diffraction and chemical analysis
##URL=rruff.info/R040146
##MEASURED CHEMISTRY=Na_2.00_Ca_1.00_(C_1.00_O_3_)_2_Â·5H_2_O
141.7504, 920.4282
142.2325, 970.2919
142.7147, 1025.212
143.1968, 1084.401
143.6789, 1147.923
144.1610, 1215.327
144.6431, 1284.773
145.1252, 1358.763
145.6074, 1440.253
146.0895, 1528.523
146.5716, 1619.514
147.0537, 1712.003
147.5358, 1805.182
148.0179, 1888.088
148.5001, 1950.263
148.9822, 2009.987
149.4643, 2082.991
149.9464, 2169.915
150.4285, 2255.546
150.9106, 2325.380
151.3928, 2381.343
151.8749, 2448.496
152.3570, 2532.933
152.8391, 2626.259
153.3212, 2719.842
153.8033, 2812.641
154.2855, 2913.657
154.7676, 3032.145
155.2497, 3166.478
155.7318, 3307.705
156.2139, 3452.241
156.6960, 3604.242
157.1782, 3767.031
157.6603, 3939.858
158.1424, 4127.349
158.6245, 4332.795
159.1066, 4555.257
159.5887, 4797.164
160.0709, 5069.050
160.5530, 5356.546
161.0351, 5645.240
161.5172, 5940.896
161.9993, 6209.616
162.4814, 6439.386
162.9636, 6625.197
163.4457, 6745.738
163.9278, 6793.358
164.4099, 6769.827
164.8920, 6668.933
165.3741, 6476.808
165.8563, 6245.124
166.3384, 5989.638
166.8205, 5719.841
167.3026, 5449.516
167.7847, 5174.483
168.2668, 4904.463
168.7490, 4659.969
169.2311, 4442.723
169.7132, 4246.510
170.1953, 4071.127
170.6774, 3911.496
171.1595, 3760.847
171.6417, 3614.786
172.1238, 3476.270
172.6059, 3354.156
173.0880, 3253.678
173.5701, 3159.896
174.0522, 3063.086
174.5344, 2967.458
175.0165, 2881.406
175.4986, 2810.959
175.9807, 2750.971
176.4628, 2686.142
176.9449, 2613.563
177.4271, 2541.260
177.9092, 2472.055
178.3913, 2405.141
178.8734, 2339.754
179.3555, 2274.970
179.8376, 2211.058
180.3197, 2147.728
180.8019, 2083.491
181.2840, 2022.890
181.7661, 1966.041
182.2482, 1913.130
182.7303, 1864.944
183.2124, 1822.012
183.6946, 1783.685
184.1767, 1748.491
184.6588, 1718.615
185.1409, 1688.564
185.6230, 1651.520
186.1051, 1615.424
186.5873, 1590.565
187.0694, 1583.016
187.5515, 1585.838
188.0336, 1579.613
188.5157, 1556.243
188.9978, 1537.894
189.4800, 1533.010
189.9621, 1533.308
190.4442, 1529.286
190.9263, 1516.384
191.4084, 1499.633
191.8905, 1492.168
192.3727, 1502.008
192.8548, 1506.874
193.3369, 1500.905
193.8190, 1490.053
194.3011, 1479.228
194.7832, 1470.328
195.2654, 1463.602
195.7475, 1460.077
196.2296, 1462.285
196.7117, 1462.930
197.1938, 1458.811
197.6759, 1454.184
198.1581, 1452.613
198.6402, 1455.302
199.1223, 1461.179
199.6044, 1468.519
200.0865, 1478.176
200.5686, 1487.688
201.0508, 1495.962
201.5329, 1504.564
202.0150, 1514.692
202.4971, 1526.699
202.9792, 1539.825
203.4613, 1553.199
203.9435, 1567.838
204.4256, 1580.207
204.9077, 1588.358
205.3898, 1595.833
205.8719, 1607.478
206.3540, 1623.160
206.8362, 1636.005
207.3183, 1635.923
207.8004, 1618.297
208.2825, 1598.835
208.7646, 1574.020
209.2467, 1550.369
209.7289, 1533.011
210.2110, 1521.849
210.6931, 1511.879
211.1752, 1496.515
211.6573, 1472.959
212.1395, 1454.753
212.6216, 1445.509
213.1037, 1438.185
213.5858, 1428.549
214.0679, 1417.229
214.5500, 1408.208
215.0322, 1405.800
215.5143, 1410.970
215.9964, 1416.545
216.4785, 1421.806
216.9606, 1428.147
217.4427, 1436.641
217.9249, 1446.821
218.4070, 1457.202
218.8891, 1466.112
219.3712, 1473.402
219.8533, 1484.704
220.3354, 1510.472
220.8176, 1530.080
221.2997, 1536.343
221.7818, 1532.010
222.2639, 1522.699
222.7460, 1511.538
223.2281, 1498.956
223.7103, 1490.506
224.1924, 1488.317
224.6745, 1488.444
225.1566, 1492.830
225.6387, 1498.467
226.1208, 1500.148
226.6030, 1494.134
227.0851, 1483.620
227.5672, 1482.517
228.0493, 1500.791
228.5314, 1515.422
229.0135, 1519.850
229.4957, 1519.728
229.9778, 1522.208
230.4599, 1530.639
230.9420, 1541.583
231.4241, 1546.525
231.9062, 1542.974
232.3884, 1537.035
232.8705, 1526.947
233.3526, 1516.609
233.8347, 1509.549
234.3168, 1506.912
234.7989, 1506.750
235.2811, 1506.227
235.7632, 1506.435
236.2453, 1503.457
236.7274, 1492.529
237.2095, 1481.741
237.6916, 1476.416
238.1738, 1477.573
238.6559, 1482.659
239.1380, 1489.283
239.6201, 1498.328
240.1022, 1505.638
240.5843, 1506.445
241.0665, 1509.266
241.5486, 1518.229
242.0307, 1533.475
242.5128, 1552.710
242.9949, 1573.600
243.4770, 1595.981
243.9592, 1622.606
244.4413, 1657.477
244.9234, 1693.408
245.4055, 1726.902
245.8876, 1759.210
246.3697, 1793.682
246.8519, 1833.367
247.3340, 1877.868
247.8161, 1920.789
248.2982, 1957.366
248.7803, 1999.428
249.2624, 2052.646
249.7446, 2113.374
250.2267, 2175.462
250.7088, 2236.159
251.1909, 2296.064
251.6730, 2359.048
252.1551, 2432.603
252.6373, 2493.618
253.1194, 2533.673
253.6015, 2559.480
254.0836, 2576.770
254.5657, 2586.958
255.0478, 2591.832
255.5300, 2594.578
256.0121, 2595.968
256.4942, 2592.127
256.9763, 2576.678
257.4584, 2558.495
257.9406, 2544.097
258.4227, 2534.954
258.9048, 2526.899
259.3869, 2516.353
259.8690, 2503.322
260.3511, 2486.788
260.8333, 2464.096
261.3154, 2439.589
261.7975, 2418.242
262.2796, 2399.640
262.7617, 2376.110
263.2438, 2340.083
263.7260, 2293.397
264.2081, 2247.465
264.6902, 2204.543
265.1723, 2160.682
265.6544, 2111.933
266.1365, 2059.601
266.6187, 2008.691
267.1008, 1958.470
267.5829, 1911.777
268.0650, 1876.150
268.5471, 1854.282
269.0292, 1835.365
269.5114, 1812.235
269.9935, 1787.107
270.4756, 1763.443
270.9577, 1740.884
271.4398, 1721.193
271.9219, 1707.521
272.4041, 1700.011
272.8862, 1692.619
273.3683, 1680.154
273.8504, 1667.234
274.3325, 1662.492
274.8146, 1669.475
275.2968, 1678.951
275.7789, 1684.451
276.2610, 1687.124
276.7431, 1692.633
277.2252, 1705.078
277.7073, 1718.287
278.1895, 1722.023
278.6716, 1715.827
279.1537, 1705.764
279.6358, 1693.277
280.1179, 1678.468
280.6000, 1661.286
281.0822, 1641.508
281.5643, 1620.379
282.0464, 1598.827
282.5285, 1576.876
283.0106, 1555.649
283.4927, 1536.936
283.9749, 1517.963
284.4570, 1494.869
284.9391, 1467.795
285.4212, 1441.835
285.9033, 1421.644
286.3854, 1407.209
286.8676, 1390.581
287.3497, 1369.756
287.8318, 1348.875
288.3139, 1328.881
288.7960, 1310.301
289.2781, 1294.612
289.7603, 1282.834
290.2424, 1274.185
290.7245, 1265.689
291.2066, 1260.100
291.6887, 1251.293
292.1708, 1236.273
292.6530, 1218.259
293.1351, 1201.050
293.6172, 1185.998
294.0993, 1172.223
294.5814, 1157.940
295.0635, 1139.322
295.5457, 1128.089
296.0278, 1131.093
296.5099, 1136.026
296.9920, 1133.258
297.4741, 1122.426
297.9562, 1110.433
298.4384, 1104.672
298.9205, 1106.371
299.4026, 1105.731
299.8847, 1103.154
300.3668, 1097.941
300.8489, 1087.674
301.3310, 1074.535
301.8131, 1062.818
302.2953, 1055.358
302.7774, 1051.562
303.2595, 1048.559
303.7416, 1047.341
304.2237, 1045.431
304.7058, 1040.588
305.1880, 1035.608
305.6701, 1034.656
306.1522, 1039.458
306.6343, 1045.022
307.1164, 1041.579
307.5985, 1025.437
308.0807, 1014.137
308.5628, 1015.423
309.0449, 1019.364
309.5270, 1020.064
310.0091, 1017.096
310.4912, 1014.245
310.9734, 1015.529
311.4555, 1020.447
311.9376, 1023.547
312.4197, 1024.778
312.9018, 1023.441
313.3839, 1018.913
313.8661, 1011.800
314.3482, 1003.560
314.8303, 992.7803
315.3124, 982.1740
315.7945, 976.6047
316.2766, 976.4086
316.7588, 979.4395
317.2409, 987.2148
317.7230, 996.6689
318.2051, 1002.915
318.6872, 1005.527
319.1693, 1004.534
319.6515, 997.7802
320.1336, 986.7093
320.6157, 977.6758
321.0978, 972.9760
321.5799, 971.0962
322.0620, 969.8752
322.5442, 969.3137
323.0263, 969.0938
323.5084, 967.8843
323.9905, 967.4904
324.4726, 971.5263
324.9547, 980.5751
325.4369, 989.2211
325.9190, 992.0065
326.4011, 988.2073
326.8832, 985.5661
327.3653, 982.7692
327.8474, 982.2373
328.3296, 986.4593
328.8117, 994.2680
329.2938, 1002.416
329.7759, 1009.189
330.2580, 1014.586
330.7401, 1018.366
331.2223, 1021.260
331.7044, 1021.609
332.1865, 1015.113
332.6686, 1007.861
333.1507, 1007.859
333.6328, 1017.060
334.1150, 1028.873
334.5971, 1032.935
335.0792, 1024.716
335.5613, 1020.981
336.0434, 1026.247
336.5255, 1031.460
337.0077, 1031.382
337.4898, 1026.863
337.9719, 1022.169
338.4540, 1020.931
338.9361, 1022.587
339.4182, 1021.769
339.9004, 1015.520
340.3825, 1011.243
340.8646, 1013.692
341.3467, 1018.190
341.8288, 1018.143
342.3109, 1010.453
342.7931, 1000.439
343.2752, 997.2318
343.7573, 1002.289
344.2394, 1003.483
344.7215, 993.0912
345.2036, 981.6852
345.6858, 978.4843
346.1679, 983.7417
346.6500, 989.4517
347.1321, 990.2723
347.6142, 987.7001
348.0963, 986.2917
348.5785, 987.2319
349.0606, 986.9703
349.5427, 981.1702
350.0248, 971.7114
350.5069, 964.1909
350.9890, 959.4113
351.4712, 957.0300
351.9533, 958.4376
352.4354, 962.6703
352.9175, 964.4368
353.3996, 960.5616
353.8817, 953.4764
354.3639, 949.7153
354.8460, 950.6007
355.3281, 951.2141
355.8102, 950.2108
356.2923, 948.4868
356.7744, 946.8768
357.2566, 945.6100
357.7387, 945.0535
358.2208, 945.9138
358.7029, 948.8859
359.1850, 949.1813
359.6671, 945.6747
360.1493, 941.0627
360.6314, 935.3531
361.1135, 929.5289
361.5956, 925.4226
362.0777, 924.1959
362.5598, 925.1312
363.0420, 925.5676
363.5241, 924.8158
364.0062, 924.6968
364.4883, 927.1936
364.9704, 929.2596
365.4525, 927.5355
365.9347, 921.6546
366.4168, 915.1646
366.8989, 912.4849
367.3810, 913.8964
367.8631, 913.7850
368.3452, 908.6161
368.8274, 906.0821
369.3095, 913.3704
369.7916, 926.1234
370.2737, 933.7061
370.7558, 929.1386
371.2379, 918.2261
371.7201, 909.5261
372.2022, 902.8642
372.6843, 900.4491
373.1664, 906.1946
373.6485, 915.0690
374.1306, 919.0305
374.6128, 916.4933
375.0949, 913.9104
375.5770, 916.8808
376.0591, 921.7878
376.5412, 919.8500
377.0233, 908.4809
377.5055, 896.4833
377.9876, 893.0410
378.4697, 899.2533
378.9518, 905.1025
379.4339, 911.8493
379.9160, 916.9680
380.3982, 917.9732
380.8803, 915.9684
381.3624, 913.9679
381.8445, 913.5774
382.3266, 914.3950
382.8087, 915.2386
383.2909, 917.5362
383.7730, 917.8254
384.2551, 914.7362
384.7372, 910.4950
385.2193, 906.7220
385.7014, 903.7679
386.1836, 901.1774
386.6657, 898.3185
387.1478, 895.1195
387.6299, 893.3132
388.1120, 894.7117
388.5941, 895.4058
389.0763, 892.9972
389.5584, 889.3400
390.0405, 887.8589
390.5226, 890.6738
391.0047, 894.2705
391.4868, 891.1766
391.9690, 880.0985
392.4511, 875.3283
392.9332, 886.5581
393.4153, 900.2343
393.8974, 901.4426
394.3795, 890.2324
394.8617, 882.4335
395.3438, 890.3580
395.8259, 905.0672
396.3080, 911.2739
396.7901, 907.3580
397.2722, 900.3130
397.7544, 893.8414
398.2365, 888.2841
398.7186, 884.6546
399.2007, 882.6749
399.6828, 882.8817
400.1649, 887.0880
400.6471, 893.2525
401.1292, 898.5671
401.6113, 902.1368
402.0934, 903.1432
402.5755, 899.9047
403.0576, 889.8080
403.5398, 883.5645
404.0219, 880.6382
404.5040, 881.3917
404.9861, 890.0966
405.4682, 902.7291
405.9503, 909.6992
406.4325, 904.2756
406.9146, 890.2653
407.3967, 881.0020
407.8788, 877.3720
408.3609, 876.9285
408.8430, 883.3326
409.3252, 889.7493
409.8073, 889.6468
410.2894, 882.4180
410.7715, 874.7104
411.2536, 872.1942
411.7357, 874.1111
412.2179, 876.8441
412.7000, 880.3426
413.1821, 884.2114
413.6642, 889.5355
414.1463, 894.9464
414.6284, 897.2521
415.1106, 895.0906
415.5927, 890.6327
416.0748, 883.0527
416.5569, 874.1689
417.0390, 870.3740
417.5211, 874.4975
418.0033, 882.1290
418.4854, 886.8072
418.9675, 887.5276
419.4496, 888.4721
419.9317, 890.1840
420.4138, 891.8026
420.8960, 892.4169
421.3781, 892.3658
421.8602, 893.2581
422.3423, 896.4966
422.8244, 900.6889
423.3065, 899.5103
423.7887, 887.0453
424.2708, 878.4293
424.7529, 878.8010
425.2350, 880.8779
425.7171, 877.5585
426.1992, 868.4857
426.6814, 860.2108
427.1635, 860.4698
427.6456, 868.2939
428.1277, 871.4470
428.6098, 867.0405
429.0919, 863.5108
429.5741, 866.6442
430.0562, 873.0169
430.5383, 877.5765
431.0204, 878.6683
431.5025, 878.7427
431.9846, 880.4304
432.4668, 882.8901
432.9489, 882.2061
433.4310, 876.3606
433.9131, 870.6772
434.3952, 872.4902
434.8773, 882.8433
435.3595, 889.4229
435.8416, 891.0208
436.3237, 889.1520
436.8058, 881.1547
437.2879, 870.4105
437.7701, 865.6445
438.2522, 871.7382
438.7343, 883.8040
439.2164, 889.1655
439.6985, 882.2819
440.1806, 878.4404
440.6628, 879.9994
441.1449, 882.6084
441.6270, 883.2502
442.1091, 882.1716
442.5912, 881.6573
443.0733, 883.6995
443.5555, 887.5365
444.0376, 890.5031
444.5197, 893.0087
445.0018, 893.4659
445.4839, 888.1622
445.9660, 882.1029
446.4482, 881.1874
446.9303, 886.9047
447.4124, 891.6348
447.8945, 889.1309
448.3766, 882.6421
448.8587, 878.7697
449.3409, 878.4082
449.8230, 880.2239
450.3051, 884.0044
450.7872, 889.3218
451.2693, 892.1107
451.7514, 890.8359
452.2336, 889.0377
452.7157, 888.0528
453.1978, 887.1727
453.6799, 884.5851
454.1620, 880.0160
454.6441, 876.3508
455.1263, 877.8162
455.6084, 885.7399
456.0905, 891.2463
456.5726, 895.1651
457.0547, 895.5188
457.5368, 886.0286
458.0190, 873.8778
458.5011, 872.0001
458.9832, 887.4471
459.4653, 907.2219
459.9474, 910.8152
460.4295, 897.9128
460.9117, 889.8910
461.3938, 893.6029
461.8759, 899.5092
462.3580, 897.5289
462.8401, 889.5068
463.3222, 885.4377
463.8044, 893.1213
464.2865, 901.8806
464.7686, 900.1777
465.2507, 890.6765
465.7328, 885.1754
466.2149, 889.4750
466.6971, 897.9727
467.1792, 899.4426
467.6613, 887.9669
468.1434, 881.9161
468.6255, 883.1595
469.1076, 888.0555
469.5898, 896.5123
470.0719, 906.7678
470.5540, 915.4865
471.0361, 920.8449
471.5182, 922.6306
472.0003, 919.1677
472.4825, 907.3039
472.9646, 898.8705
473.4467, 898.9623
473.9288, 901.5599
474.4109, 903.4899
474.8930, 904.4366
475.3752, 904.7680
475.8573, 902.2362
476.3394, 900.1865
476.8215, 906.3544
477.3036, 920.9694
477.7857, 933.5083
478.2679, 939.1845
478.7500, 939.0657
479.2321, 934.5927
479.7142, 922.5306
480.1963, 914.8105
480.6784, 917.2891
481.1606, 922.6671
481.6427, 924.7220
482.1248, 922.9305
482.6069, 919.2370
483.0890, 914.6810
483.5711, 909.8840
484.0533, 908.5401
484.5354, 914.4641
485.0175, 917.5223
485.4996, 912.2818
485.9817, 906.7520
486.4638, 908.3220
486.9460, 917.1760
487.4281, 926.6687
487.9102, 932.2695
488.3923, 934.4985
488.8744, 933.9452
489.3565, 929.8391
489.8387, 927.4939
490.3208, 929.9038
490.8029, 935.7434
491.2850, 942.4196
491.7671, 951.3548
492.2492, 957.1093
492.7314, 955.7007
493.2135, 951.3037
493.6956, 948.5750
494.1777, 947.9241
494.6598, 947.1402
495.1419, 944.3331
495.6241, 940.0952
496.1062, 938.2296
496.5883, 940.1625
497.0704, 942.6369
497.5525, 946.5663
498.0346, 950.0443
498.5168, 950.9227
498.9989, 949.3391
499.4810, 947.8097
499.9631, 948.2151
500.4452, 950.3403
500.9273, 953.6150
501.4095, 958.3271
501.8916, 962.9685
502.3737, 966.5621
502.8558, 969.9369
503.3379, 974.6376
503.8200, 981.2377
504.3022, 986.7584
504.7843, 988.4573
505.2664, 989.4086
505.7485, 993.6301
506.2306, 1001.045
506.7127, 1008.937
507.1949, 1016.080
507.6770, 1021.500
508.1591, 1020.711
508.6412, 1006.521
509.1233, 996.5567
509.6054, 991.1802
510.0876, 990.5383
510.5697, 996.5858
511.0518, 1008.027
511.5339, 1020.213
512.0161, 1030.964
512.4982, 1039.318
512.9803, 1041.346
513.4624, 1035.715
513.9445, 1031.674
514.4266, 1032.048
514.9088, 1036.033
515.3909, 1043.181
515.8730, 1053.868
516.3551, 1062.922
516.8372, 1069.541
517.3193, 1073.318
517.8015, 1072.644
518.2836, 1068.518
518.7657, 1064.888
519.2478, 1063.994
519.7299, 1064.208
520.2120, 1061.569
520.6942, 1054.358
521.1763, 1047.473
521.6584, 1040.370
522.1405, 1034.067
522.6226, 1029.215
523.1047, 1025.601
523.5869, 1022.772
524.0690, 1020.638
524.5511, 1018.785
525.0332, 1017.215
525.5153, 1015.910
525.9974, 1011.632
526.4796, 1002.353
526.9617, 991.9057
527.4438, 984.9235
527.9259, 980.8846
528.4080, 975.3376
528.8901, 963.7112
529.3723, 954.3131
529.8544, 955.3454
530.3365, 961.5204
530.8186, 961.7040
531.3007, 952.2250
531.7828, 939.6476
532.2650, 933.3069
532.7471, 934.5424
533.2292, 933.5297
533.7113, 928.7805
534.1934, 923.3530
534.6755, 917.8738
535.1577, 912.4037
535.6398, 906.3713
536.1219, 899.3389
536.6040, 894.1640
537.0861, 895.2910
537.5682, 900.4794
538.0504, 901.9084
538.5325, 898.2140
539.0146, 894.1474
539.4967, 892.5590
539.9788, 893.4349
540.4609, 896.5737
540.9431, 907.7635
541.4252, 913.1346
541.9073, 906.1036
542.3894, 894.4733
542.8715, 883.9814
543.3536, 876.2343
543.8358, 872.2573
544.3179, 873.3194
544.8000, 878.3392
545.2821, 882.9658
545.7642, 887.8959
546.2463, 890.4489
546.7285, 885.9647
547.2106, 881.8406
547.6926, 885.8658
548.1747, 897.2454
548.6569, 904.8566
549.1390, 901.2247
549.6211, 893.2202
550.1032, 887.5905
550.5853, 884.1636
551.0674, 881.0839
551.5496, 877.3248
552.0317, 875.0149
552.5138, 878.1718
552.9959, 889.9388
553.4780, 896.4783
553.9601, 892.9788
554.4423, 890.2080
554.9244, 895.5088
555.4065, 903.4588
555.8886, 904.0931
556.3707, 893.5490
556.8528, 881.0262
557.3350, 878.0671
557.8171, 883.5622
558.2992, 888.5551
558.7813, 892.1846
559.2634, 895.4775
559.7455, 899.1436
560.2277, 902.9755
560.7098, 906.3547
561.1919, 909.5761
561.6740, 911.8416
562.1561, 913.5397
562.6382, 913.7682
563.1204, 910.2686
563.6025, 903.8025
564.0846, 898.6210
564.5667, 897.9581
565.0488, 900.6826
565.5309, 902.1964
566.0131, 901.6307
566.4952, 902.0423
566.9773, 903.5827
567.4594, 906.6470
567.9415, 913.0063
568.4236, 921.5941
568.9058, 927.7615
569.3879, 928.4359
569.8700, 926.8664
570.3521, 928.3040
570.8342, 930.5400
571.3163, 924.1157
571.7985, 905.3719
572.2806, 884.9349
572.7627, 875.8919
573.2448, 879.5059
573.7269, 882.4299
574.2090, 885.8262
574.6912, 887.2236
575.1733, 882.4853
575.6554, 877.2665
576.1375, 879.7657
576.6196, 890.9717
577.1017, 901.0231
577.5839, 898.6396
578.0660, 887.9775
578.5481, 883.4807
579.0302, 885.9556
579.5123, 889.5615
579.9944, 892.9176
580.4766, 894.7505
580.9587, 891.6536
581.4408, 882.1961
581.9229, 874.7715
582.4050, 873.1401
582.8871, 871.5677
583.3693, 863.6722
583.8514, 853.1346
584.3335, 849.0710
584.8156, 855.7514
585.2977, 866.5576
585.7798, 870.6506
586.2620, 867.3200
586.7441, 865.6587
587.2262, 867.4891
587.7083, 868.6964
588.1904, 866.1883
588.6725, 861.7176
589.1547, 857.7364
589.6368, 853.7781
590.1189, 852.3920
590.6010, 858.9730
591.0831, 866.5577
591.5652, 864.5710
592.0474, 853.5941
592.5295, 842.9235
593.0116, 838.7802
593.4937, 839.1763
593.9758, 837.6809
594.4579, 832.3832
594.9401, 829.7607
595.4222, 833.8715
595.9043, 837.5805
596.3864, 836.5776
596.8685, 832.3362
597.3506, 829.1776
597.8328, 829.8144
598.3149, 829.8421
598.7970, 821.9705
599.2791, 810.6512
599.7612, 809.5607
600.2433, 821.3694
600.7255, 832.9320
601.2076, 832.7346
601.6897, 822.3871
602.1718, 815.0090
602.6539, 810.7747
603.1360, 809.5570
603.6182, 813.5375
604.1003, 818.7496
604.5824, 823.2716
605.0645, 826.3849
605.5466, 826.7570
606.0287, 822.0619
606.5109, 816.3532
606.9930, 817.4688
607.4751, 824.1683
607.9572, 825.9179
608.4393, 819.2457
608.9214, 810.3291
609.4036, 804.9341
609.8857, 803.0884
610.3678, 802.8181
610.8499, 806.8235
611.3320, 808.8418
611.8141, 803.6104
612.2963, 798.0956
612.7784, 801.2563
613.2605, 812.5671
613.7426, 822.3427
614.2247, 822.2077
614.7068, 816.2397
615.1890, 814.4203
615.6711, 816.8982
616.1532, 820.9026
616.6353, 827.5988
617.1174, 831.9019
617.5995, 825.0604
618.0817, 806.7837
618.5638, 799.0248
619.0459, 812.0797
619.5280, 824.8430
620.0101, 828.9986
620.4922, 828.3756
620.9744, 827.4307
621.4565, 827.3838
621.9386, 828.0945
622.4207, 830.3496
622.9028, 832.8754
623.3849, 829.3320
623.8671, 818.1494
624.3492, 810.2996
624.8313, 810.6312
625.3134, 813.9280
625.7955, 812.8229
626.2776, 807.6367
626.7598, 807.5418
627.2419, 819.5966
627.7240, 830.7521
628.2061, 834.5383
628.6882, 833.1730
629.1703, 828.7182
629.6525, 822.4216
630.1346, 817.4957
630.6167, 817.8547
631.0988, 822.1787
631.5809, 822.2012
632.0630, 816.0292
632.5452, 813.0740
633.0273, 817.5875
633.5094, 825.2134
633.9915, 831.9871
634.4736, 837.8704
634.9557, 841.2759
635.4379, 839.0880
635.9200, 837.2387
636.4021, 838.3094
636.8842, 842.1766
637.3663, 850.2839
637.8484, 862.0526
638.3306, 871.6653
638.8127, 872.7780
639.2948, 866.7655
639.7769, 861.6674
640.2590, 857.2531
640.7411, 854.5605
641.2233, 854.4013
641.7054, 855.6584
642.1875, 857.4669
642.6696, 859.7617
643.1517, 861.6625
643.6339, 862.3506
644.1160, 863.2823
644.5981, 865.9744
645.0802, 869.1458
645.5623, 870.7711
646.0444, 870.4745
646.5266, 868.9039
647.0087, 865.4224
647.4908, 861.8732
647.9729, 869.1981
648.4550, 891.4654
648.9371, 908.0099
649.4193, 912.0654
649.9014, 910.1357
650.3835, 906.7679
650.8656, 902.4287
651.3477, 900.6185
651.8298, 904.3369
652.3120, 907.9509
652.7941, 908.1187
653.2762, 906.9564
653.7583, 907.6187
654.2404, 910.3553
654.7225, 912.7814
655.2047, 912.7549
655.6868, 911.2410
656.1689, 910.9080
656.6510, 911.3914
657.1331, 916.0489
657.6152, 929.2549
658.0974, 941.4933
658.5795, 941.1012
659.0616, 931.4879
659.5437, 928.0405
660.0258, 937.3972
660.5079, 946.5532
660.9901, 951.9764
661.4722, 954.4628
661.9543, 954.4775
662.4364, 952.3757
662.9185, 948.3793
663.4006, 942.0113
663.8828, 935.6420
664.3649, 935.4742
664.8470, 941.7718
665.3291, 945.1863
665.8112, 943.0737
666.2933, 940.9569
666.7755, 944.8266
667.2576, 952.0822
667.7397, 951.4039
668.2218, 934.1873
668.7039, 923.0794
669.1860, 928.7521
669.6682, 936.9416
670.1503, 935.6702
670.6324, 926.9160
671.1145, 919.1742
671.5966, 916.6315
672.0787, 916.7139
672.5609, 915.8903
673.0430, 914.3893
673.5251, 914.1241
674.0072, 915.5392
674.4893, 916.4590
674.9714, 914.9651
675.4536, 912.5916
675.9357, 913.5554
676.4178, 920.3954
676.8999, 925.0252
677.3820, 926.0591
677.8641, 926.0483
678.3463, 925.7578
678.8284, 925.5183
679.3105, 925.5775
679.7926, 926.0148
680.2747, 927.0137
680.7568, 928.8162
681.2390, 931.2841
681.7211, 934.2639
682.2032, 937.6996
682.6853, 940.6628
683.1674, 942.3854
683.6495, 944.7359
684.1317, 951.1445
684.6138, 962.9909
685.0959, 971.4724
685.5780, 976.1061
686.0601, 977.9680
686.5422, 972.8643
687.0244, 967.8049
687.5065, 971.8447
687.9886, 985.1820
688.4707, 996.7700
688.9528, 999.5997
689.4349, 998.0712
689.9171, 996.3190
690.3992, 994.3928
690.8813, 993.5481
691.3634, 993.9651
691.8455, 990.3824
692.3276, 976.7903
692.8098, 954.5096
693.2919, 935.0425
693.7740, 917.6346
694.2561, 904.7492
694.7382, 899.5992
695.2203, 896.7018
695.7025, 892.2099
696.1846, 886.7111
696.6667, 882.7888
697.1488, 881.8365
697.6309, 881.4503
698.1130, 880.4377
698.5952, 879.2327
699.0773, 878.8503
699.5594, 878.9670
700.0415, 877.6766
700.5236, 873.6202
701.0057, 868.4240
701.4879, 865.1985
701.9700, 863.9434
702.4521, 865.3265
702.9342, 871.7233
703.4163, 874.5545
703.8984, 865.7234
704.3806, 851.0562
704.8627, 845.2139
705.3448, 852.3718
705.8269, 855.6976
706.3090, 845.6855
706.7911, 838.4280
707.2733, 846.7233
707.7554, 863.3764
708.2375, 876.4109
708.7196, 882.0693
709.2017, 883.0247
709.6838, 878.7947
710.1660, 872.5312
710.6481, 872.2550
711.1302, 877.9216
711.6123, 887.1200
712.0944, 899.3477
712.5765, 913.1749
713.0587, 926.1747
713.5408, 937.9857
714.0229, 956.9129
714.5050, 991.7119
714.9871, 1021.517
715.4692, 1040.216
715.9514, 1055.073
716.4335, 1070.677
716.9156, 1087.664
717.3977, 1106.604
717.8798, 1131.657
718.3619, 1153.075
718.8441, 1164.797
719.3262, 1166.995
719.8083, 1159.607
720.2904, 1142.883
720.7725, 1116.610
721.2546, 1079.822
721.7368, 1037.208
722.2189, 999.2395
722.7010, 965.7753
723.1831, 938.4096
723.6652, 919.2983
724.1473, 902.3146
724.6295, 884.5550
725.1116, 866.5938
725.5937, 849.2811
726.0758, 832.2982
726.5579, 817.4497
727.0400, 805.7034
727.5222, 795.4630
728.0043, 785.5017
728.4864, 776.4261
728.9685, 769.6456
729.4506, 765.3983
729.9327, 761.9958
730.4149, 758.6315
730.8970, 754.7675
731.3791, 748.6409
731.8612, 740.5352
732.3433, 732.4077
732.8254, 724.3163
733.3076, 719.9908
733.7897, 724.8108
734.2718, 737.4846
734.7539, 740.7144
735.2360, 726.8420
735.7181, 716.3000
736.2003, 709.8853
736.6824, 708.6549
737.1645, 717.8666
737.6466, 732.6096
738.1287, 739.1634
738.6108, 729.9471
739.0930, 721.8027
739.5751, 727.4116
740.0572, 737.0104
740.5393, 739.5498
741.0214, 735.3429
741.5035, 728.6732
741.9857, 721.5574
742.4678, 715.2304
742.9499, 711.7481
743.4320, 710.9272
743.9141, 709.7653
744.3962, 707.8370
744.8784, 708.1443
745.3605, 713.3477
745.8426, 719.0779
746.3247, 718.9843
746.8068, 712.2477
747.2889, 707.1954
747.7711, 704.7247
748.2532, 702.6188
748.7353, 698.7191
749.2174, 696.1666
749.6995, 699.7819
750.1816, 707.8361
750.6638, 712.1243
751.1459, 706.2449
751.6280, 700.0722
752.1101, 706.2997
752.5922, 717.4462
753.0743, 717.0154
753.5565, 705.0667
754.0386, 696.2365
754.5207, 699.4515
755.0028, 708.2346
755.4849, 709.8994
755.9670, 703.6895
756.4492, 696.9785
756.9313, 689.1258
757.4134, 682.6592
757.8955, 678.2813
758.3776, 676.1281
758.8597, 677.0457
759.3419, 681.3449
759.8240, 684.7666
760.3061, 687.4136
760.7882, 688.6043
761.2703, 686.0279
761.7524, 683.2096
762.2346, 684.7755
762.7167, 690.2605
763.1988, 694.5586
763.6809, 694.1198
764.1630, 692.4163
764.6451, 694.8928
765.1273, 698.9786
765.6094, 696.7932
766.0915, 688.0514
766.5736, 680.8044
767.0557, 680.0026
767.5378, 683.8290
768.0200, 689.4434
768.5021, 697.9698
768.9842, 701.0940
769.4663, 697.1259
769.9484, 690.9045
770.4305, 681.5939
770.9127, 673.1436
771.3948, 672.9236
771.8769, 681.9299
772.3590, 685.5719
772.8411, 676.8463
773.3232, 668.8799
773.8054, 666.3010
774.2875, 667.3019
774.7696, 671.4893
775.2517, 677.4551
775.7338, 680.9190
776.2159, 678.6529
776.6981, 674.8141
777.1802, 675.4213
777.6623, 677.6862
778.1444, 672.9086
778.6265, 661.4890
779.1086, 655.0947
779.5908, 660.6990
780.0729, 671.9955
780.5550, 677.5392
781.0371, 676.8591
781.5192, 674.4153
782.0013, 668.6877
782.4835, 665.4213
782.9656, 668.7433
783.4477, 673.7368
783.9298, 673.2762
784.4119, 667.1835
784.8940, 664.1791
785.3762, 664.1722
785.8583, 667.9001
786.3404, 681.9819
786.8225, 694.8076
787.3046, 694.6341
787.7867, 684.0018
788.2689, 673.7016
788.7510, 667.4528
789.2331, 665.2802
789.7152, 670.8539
790.1973, 678.5950
790.6794, 678.2302
791.1616, 671.0473
791.6437, 665.6372
792.1258, 665.6743
792.6079, 668.8682
793.0900, 673.3431
793.5721, 678.5100
794.0543, 676.7980
794.5364, 666.2914
795.0185, 661.4169
795.5006, 667.8657
795.9827, 678.1027
796.4648, 686.1505
796.9470, 691.7576
797.4291, 691.9668
797.9112, 679.9649
798.3933, 672.3340
798.8754, 673.4171
799.3575, 675.4551
799.8397, 672.8803
800.3218, 668.3741
800.8039, 668.2729
801.2860, 674.9596
801.7681, 679.2866
802.2502, 674.3072
802.7324, 667.0388
803.2145, 663.5695
803.6966, 662.7138
804.1787, 660.5156
804.6608, 656.6452
805.1429, 656.7985
805.6251, 668.7609
806.1072, 683.8388
806.5893, 679.8137
807.0714, 659.7867
807.5535, 647.4355
808.0356, 646.9371
808.5178, 652.0189
808.9999, 659.6896
809.4820, 667.6454
809.9641, 668.6862
810.4462, 658.0142
810.9283, 659.0646
811.4105, 683.3732
811.8926, 700.6057
812.3747, 695.2918
812.8568, 679.3994
813.3389, 663.0511
813.8210, 646.5697
814.3032, 640.8847
814.7853, 657.6009
815.2674, 672.6704
815.7495, 677.1643
816.2316, 677.0399
816.7137, 676.4491
817.1959, 676.4268
817.6780, 678.2095
818.1601, 683.1149
818.6422, 686.0725
819.1243, 680.6149
819.6064, 671.6722
820.0886, 666.0958
820.5707, 664.1183
821.0528, 665.3729
821.5349, 669.5476
822.0170, 673.4686
822.4991, 672.7791
822.9813, 669.4039
823.4634, 673.5369
823.9455, 685.8882
824.4276, 689.8357
824.9097, 679.3782
825.3918, 670.6934
825.8740, 677.5176
826.3561, 694.2812
826.8382, 702.0443
827.3203, 697.1412
827.8024, 691.6422
828.2845, 684.2697
828.7667, 677.8876
829.2488, 673.4400
829.7309, 670.5493
830.2130, 669.1016
830.6951, 669.0530
831.1772, 669.0243
831.6594, 669.5004
832.1415, 668.9369
832.6236, 666.3928
833.1057, 662.6855
833.5878, 656.8899
834.0699, 650.6953
834.5521, 648.9817
835.0342, 654.4601
835.5163, 661.8272
835.9984, 668.6340
836.4805, 672.8246
836.9626, 668.2200
837.4448, 657.6344
837.9269, 652.5148
838.4090, 656.4581
838.8911, 661.7737
839.3732, 659.8884
839.8553, 653.3140
840.3375, 652.3895
840.8196, 657.2980
841.3017, 657.2621
841.7838, 649.0609
842.2659, 642.6232
842.7480, 645.6020
843.2302, 653.7479
843.7123, 656.1402
844.1944, 650.6954
844.6765, 646.4810
845.1586, 644.7491
845.6407, 642.3851
846.1229, 636.9869
846.6050, 631.4088
847.0871, 628.1104
847.5692, 627.1372
848.0513, 628.2848
848.5334, 634.4382
849.0156, 638.7668
849.4977, 636.9344
849.9798, 634.8159
850.4619, 637.9056
850.9440, 644.1531
851.4261, 648.6443
851.9083, 649.9080
852.3904, 649.2154
852.8725, 645.6258
853.3546, 642.0028
853.8367, 643.1196
854.3188, 646.0155
854.8010, 642.9769
855.2831, 633.7038
855.7652, 626.8691
856.2473, 629.3846
856.7294, 636.3289
857.2115, 638.9185
857.6937, 638.2708
858.1758, 639.8116
858.6579, 643.9535
859.1400, 647.2316
859.6221, 648.0538
860.1042, 647.1911
860.5864, 645.4666
861.0685, 642.9538
861.5506, 641.4937
862.0327, 641.2740
862.5148, 641.2849
862.9969, 640.9189
863.4791, 641.6027
863.9612, 645.3885
864.4433, 650.8839
864.9254, 652.9918
865.4075, 650.7314
865.8896, 647.0965
866.3718, 637.9781
866.8539, 632.4149
867.3360, 635.9314
867.8181, 643.1188
868.3002, 649.2936
868.7823, 653.7429
869.2645, 653.7800
869.7466, 642.3510
870.2287, 634.6536
870.7108, 641.6459
871.1929, 650.5739
871.6750, 648.2064
872.1572, 638.6039
872.6393, 632.8879
873.1214, 634.7548
873.6035, 640.6521
874.0856, 650.5283
874.5677, 661.0176
875.0499, 669.4284
875.5320, 675.2342
876.0141, 676.4648
876.4962, 673.6089
876.9783, 671.2666
877.4604, 672.8679
877.9426, 675.2795
878.4247, 672.4780
878.9068, 666.1766
879.3889, 662.8975
879.8710, 662.9324
880.3531, 663.9124
880.8353, 664.9312
881.3174, 665.7490
881.7995, 665.6708
882.2816, 665.2897
882.7637, 670.0322
883.2458, 681.5821
883.7280, 684.4768
884.2101, 673.7590
884.6922, 661.9510
885.1743, 656.3209
885.6564, 655.8744
886.1385, 658.9870
886.6207, 666.9620
887.1028, 672.4980
887.5849, 674.1108
888.0670, 675.6317
888.5491, 677.2795
889.0313, 679.9136
889.5134, 687.0826
889.9955, 696.4411
890.4776, 696.8924
890.9597, 679.6645
891.4418, 668.0987
891.9240, 670.1428
892.4061, 673.3375
892.8882, 670.3262
893.3703, 664.8452
893.8524, 662.9593
894.3345, 665.1304
894.8167, 665.8097
895.2988, 661.8151
895.7809, 656.9578
896.2630, 651.4728
896.7451, 647.4930
897.2272, 647.3969
897.7094, 650.7563
898.1915, 657.1237
898.6736, 666.3844
899.1557, 672.9239
899.6378, 669.4816
900.1199, 663.0015
900.6021, 662.8869
901.0842, 666.1787
901.5663, 666.3475
902.0484, 662.4423
902.5305, 656.7603
903.0126, 650.4247
903.4948, 645.0464
903.9769, 642.8607
904.4590, 643.6036
904.9411, 648.2111
905.4232, 655.7251
905.9053, 658.9625
906.3875, 655.6160
906.8696, 649.7887
907.3517, 644.7921
907.8338, 641.4168
908.3159, 644.2139
908.7980, 653.2799
909.2802, 653.1318
909.7623, 640.5677
910.2444, 631.6511
910.7265, 635.3636
911.2086, 642.8024
911.6907, 640.3773
912.1729, 628.2847
912.6550, 622.7013
913.1371, 625.3037
913.6192, 629.6859
914.1013, 637.8967
914.5834, 641.3160
915.0656, 630.1226
915.5477, 612.8665
916.0298, 610.2825
916.5119, 628.2198
916.9940, 638.8542
917.4761, 637.0743
917.9583, 635.2065
918.4404, 638.2344
918.9225, 640.4078
919.4046, 635.2256
919.8867, 625.2254
920.3688, 620.2362
920.8510, 624.3644
921.3331, 625.9407
921.8152, 620.8505
922.2973, 615.6987
922.7794, 613.8019
923.2615, 613.3033
923.7437, 611.9003
924.2258, 609.5383
924.7079, 607.6546
925.1900, 606.1057
925.6721, 606.0394
926.1542, 609.3074
926.6364, 612.9476
927.1185, 614.8047
927.6006, 615.2203
928.0827, 614.7536
928.5648, 613.6747
929.0469, 613.1498
929.5291, 614.2354
930.0112, 615.6395
930.4933, 616.7964
930.9754, 617.4487
931.4575, 617.2294
931.9396, 616.2153
932.4218, 614.6358
932.9039, 612.5758
933.3860, 610.3243
933.8681, 607.6356
934.3502, 605.2982
934.8323, 604.2880
935.3145, 604.4397
935.7966, 605.5103
936.2787, 607.3978
936.7608, 610.5398
937.2429, 615.3271
937.7250, 618.7123
938.2072, 615.2379
938.6893, 608.2997
939.1714, 605.9234
939.6535, 607.2689
940.1356, 608.8129
940.6177, 609.6055
941.0999, 608.8566
941.5820, 605.5974
942.0641, 602.6859
942.5462, 606.7123
943.0283, 615.9088
943.5104, 621.8437
943.9926, 624.0509
944.4747, 619.8414
944.9568, 608.1692
945.4389, 598.5526
945.9210, 600.2017
946.4031, 608.7468
946.8853, 612.2060
947.3674, 610.5959
947.8495, 607.5649
948.3316, 603.2349
948.8137, 598.4985
949.2958, 593.4297
949.7780, 589.4352
950.2601, 588.1254
950.7422, 589.2627
951.2243, 592.4041
951.7064, 598.5212
952.1885, 599.2922
952.6707, 591.7454
953.1528, 587.6132
953.6349, 593.9382
954.1170, 602.9665
954.5991, 603.8950
955.0812, 597.1710
955.5634, 592.9305
956.0455, 592.1059
956.5276, 590.7385
957.0097, 587.2258
957.4918, 585.6710
957.9739, 589.8071
958.4561, 595.4995
958.9382, 595.3873
959.4203, 588.8005
959.9024, 586.0909
960.3845, 589.2381
960.8666, 592.4763
961.3488, 597.0543
961.8309, 598.5869
962.3130, 592.1044
962.7951, 581.9238
963.2772, 576.4343
963.7593, 576.2463
964.2415, 577.4969
964.7236, 580.5543
965.2057, 584.5198
965.6878, 593.1837
966.1699, 598.8905
966.6520, 592.2424
967.1342, 580.0616
967.6163, 579.5556
968.0984, 596.2059
968.5805, 603.9597
969.0626, 596.2513
969.5447, 586.6642
970.0269, 573.3865
970.5090, 564.1630
970.9911, 567.0882
971.4732, 578.3772
971.9553, 588.4394
972.4374, 597.4575
972.9196, 601.4317
973.4017, 595.4447
973.8838, 589.9723
974.3659, 588.2078
974.8480, 588.9165
975.3301, 593.7405
975.8123, 599.8941
976.2944, 598.1337
976.7765, 582.6341
977.2586, 573.9213
977.7407, 583.2149
978.2228, 592.1442
978.7050, 590.5622
979.1871, 586.4155
979.6692, 588.4888
980.1513, 595.3676
980.6334, 600.0284
981.1155, 601.1350
981.5977, 599.4091
982.0798, 592.8047
982.5619, 586.0673
983.0440, 580.6666
983.5261, 577.0410
984.0082, 576.0217
984.4904, 577.1200
984.9725, 578.7914
985.4546, 581.4760
985.9367, 582.1710
986.4188, 577.0549
986.9009, 572.7393
987.3831, 573.6621
987.8652, 577.1404
988.3473, 581.0635
988.8294, 584.4344
989.3115, 584.6426
989.7936, 578.7346
990.2758, 576.0621
990.7579, 585.0871
991.2400, 593.5291
991.7221, 590.6450
992.2042, 584.4908
992.6863, 587.2715
993.1685, 597.3016
993.6506, 601.1755
994.1327, 592.1600
994.6148, 583.3566
995.0969, 581.1307
995.5790, 580.4913
996.0612, 576.7161
996.5433, 573.3864
997.0254, 576.0746
997.5075, 584.0660
997.9896, 592.0079
998.4717, 599.5419
998.9539, 602.3621
999.4360, 594.0593
999.9181, 585.0868
1000.400, 582.1998
1000.882, 583.3734
1001.364, 587.3075
1001.847, 592.4641
1002.329, 594.4084
1002.811, 590.4524
1003.293, 586.8160
1003.775, 585.6816
1004.257, 586.6469
1004.739, 593.0429
1005.221, 599.0338
1005.703, 594.4759
1006.186, 582.1334
1006.668, 576.9124
1007.150, 586.6233
1007.632, 594.2463
1008.114, 589.2372
1008.596, 582.6723
1009.078, 581.2097
1009.560, 582.6936
1010.043, 584.8029
1010.525, 586.9223
1011.007, 588.8885
1011.489, 591.4955
1011.971, 590.7984
1012.453, 578.5055
1012.935, 569.9162
1013.417, 579.3363
1013.899, 593.9061
1014.382, 598.7377
1014.864, 594.9314
1015.346, 592.1497
1015.828, 593.5532
1016.310, 593.7790
1016.792, 588.6961
1017.274, 584.3533
1017.756, 585.0398
1018.239, 587.3286
1018.721, 587.2557
1019.203, 585.5898
1019.685, 586.1293
1020.167, 590.6544
1020.649, 592.7282
1021.131, 585.6537
1021.613, 581.3903
1022.095, 589.0925
1022.578, 599.0145
1023.060, 602.6689
1023.542, 600.8604
1024.024, 596.1851
1024.506, 587.7246
1024.988, 585.6563
1025.470, 601.4677
1025.952, 612.5308
1026.435, 606.1742
1026.917, 595.6537
1027.399, 590.8865
1027.881, 590.5316
1028.363, 590.4047
1028.845, 590.0044
1029.327, 589.5759
1029.809, 587.5008
1030.292, 587.7073
1030.774, 593.4442
1031.256, 599.5984
1031.738, 602.8928
1032.220, 604.1159
1032.702, 604.2935
1033.184, 603.2773
1033.666, 604.6106
1034.148, 611.8640
1034.630, 616.7701
1035.113, 618.2689
1035.595, 616.7974
1036.077, 610.1412
1036.559, 601.9440
1037.041, 597.0963
1037.523, 595.6667
1038.005, 597.7139
1038.487, 605.7437
1038.970, 613.1878
1039.452, 621.9852
1039.934, 627.1134
1040.416, 624.4275
1040.898, 618.4670
1041.380, 612.8221
1041.862, 608.1351
1042.344, 612.3143
1042.826, 633.1986
1043.309, 645.3333
1043.791, 643.8384
1044.273, 640.6993
1044.755, 637.5110
1045.237, 638.5685
1045.719, 649.7322
1046.201, 668.5060
1046.683, 683.0353
1047.166, 691.2778
1047.648, 703.4856
1048.130, 723.1629
1048.612, 735.5641
1049.094, 732.9068
1049.576, 730.9211
1050.058, 745.1171
1050.540, 766.7660
1051.022, 770.7605
1051.505, 754.7153
1051.987, 743.8965
1052.469, 737.9444
1052.951, 741.4926
1053.433, 757.4646
1053.915, 772.7257
1054.397, 777.9673
1054.879, 778.9631
1055.361, 784.0010
1055.844, 794.1581
1056.326, 825.5974
1056.808, 878.4325
1057.290, 922.9498
1057.772, 953.8638
1058.254, 997.5764
1058.736, 1067.439
1059.218, 1160.390
1059.701, 1270.972
1060.183, 1401.861
1060.665, 1567.072
1061.147, 1762.214
1061.629, 1956.510
1062.111, 2149.674
1062.593, 2362.586
1063.075, 2604.047
1063.557, 2876.381
1064.040, 3171.288
1064.522, 3513.791
1065.004, 3924.877
1065.486, 4425.014
1065.968, 5040.768
1066.450, 5793.267
1066.932, 6724.792
1067.414, 7855.868
1067.896, 9252.316
1068.379, 11015.89
1068.861, 12830.24
1069.343, 14672.49
1069.825, 16089.61
1070.307, 16475.08
1070.789, 15931.25
1071.271, 14496.40
1071.753, 12393.53
1072.236, 10224.74
1072.718, 8209.196
1073.200, 6474.000
1073.682, 5119.677
1074.164, 4056.735
1074.646, 3267.768
1075.128, 2674.752
1075.610, 2218.319
1076.093, 1871.477
1076.575, 1605.816
1077.057, 1414.129
1077.539, 1266.918
1078.021, 1165.587
1078.503, 1088.297
1078.985, 1036.761
1079.467, 994.1402
1079.949, 948.4985
1080.432, 902.1875
1080.914, 858.5120
1081.396, 818.4859
1081.878, 788.7468
1082.360, 775.3900
1082.842, 764.6367
1083.324, 759.8430
1083.806, 750.8256
1084.288, 728.1792
1084.771, 702.6439
1085.253, 685.9359
1085.735, 676.8126
1086.217, 669.2094
1086.699, 664.5707
1087.181, 657.5157
1087.663, 646.2417
1088.145, 636.1807
1088.628, 628.4943
1089.110, 622.9130
1089.592, 619.7110
1090.074, 617.8942
1090.556, 615.3168
1091.038, 611.9570
1091.520, 608.1788
1092.002, 603.4855
1092.484, 602.8521
1092.967, 608.2371
1093.449, 609.0900
1093.931, 599.1779
1094.413, 587.1753
1094.895, 584.6837
1095.377, 588.4552
1095.859, 586.1912
1096.341, 578.7889
1096.823, 572.0146
1097.306, 566.8517
1097.788, 569.4522
1098.270, 580.8806
1098.752, 585.4060
1099.234, 568.5926
1099.716, 546.3652
1100.198, 543.9229
1100.680, 553.4293
1101.163, 561.2191
1101.645, 566.5780
1102.127, 569.4294
1102.609, 569.9982
1103.091, 568.6929
1103.573, 565.5662
1104.055, 563.1376
1104.537, 565.3198
1105.020, 567.1977
1105.502, 561.9779
1105.984, 555.5522
1106.466, 557.2175
1106.948, 563.0845
1107.430, 562.0534
1107.912, 552.2997
1108.394, 545.6859
1108.876, 551.1572
1109.359, 554.3718
1109.841, 545.2079
1110.323, 537.5566
1110.805, 542.3188
1111.287, 551.7634
1111.769, 557.3084
1112.251, 558.5199
1112.733, 556.5448
1113.215, 550.0331
1113.698, 543.8292
1114.180, 536.2911
1114.662, 532.0047
1115.144, 533.3860
1115.626, 536.3033
1116.108, 538.0996
1116.590, 539.5844
1117.072, 542.8476
1117.555, 547.9174
1118.037, 547.2738
1118.519, 539.3140
1119.001, 534.7618
1119.483, 535.1199
1119.965, 537.5726
1120.447, 541.2446
1120.929, 544.4390
1121.411, 545.2198
1121.894, 544.6545
1122.376, 546.8240
1122.858, 550.2617
1123.340, 543.9656
1123.822, 530.7163
1124.304, 530.2242
1124.786, 544.7817
1125.268, 555.0799
1125.750, 550.0126
1126.233, 538.9598
1126.715, 527.2676
1127.197, 520.3423
1127.679, 532.4384
1128.161, 550.3390
1128.643, 549.4496
1129.125, 535.9388
1129.607, 533.5919
1130.090, 547.3099
1130.572, 557.5878
1131.054, 553.7805
1131.536, 545.7608
1132.018, 534.2920
1132.500, 525.1934
1132.982, 524.1010
1133.464, 526.4020
1133.947, 526.1487
1134.429, 524.0161
1134.911, 524.7025
1135.393, 529.5229
1135.875, 534.5389
1136.357, 543.2471
1136.839, 546.1870
1137.321, 538.2845
1137.803, 529.1321
1138.286, 522.6010
1138.768, 519.8188
1139.250, 522.9784
1139.732, 531.4872
1140.214, 540.8218
1140.696, 551.9778
1141.178, 556.1527
1141.660, 552.4778
1142.142, 543.7125
1142.625, 530.1961
1143.107, 521.8672
1143.589, 527.2444
1144.071, 538.2716
1144.553, 541.9056
1145.035, 539.4728
1145.517, 531.6603
1145.999, 521.8287
1146.482, 522.3130
1146.964, 531.6757
1147.446, 536.5446
1147.928, 532.2246
1148.410, 527.9031
1148.892, 532.0467
1149.374, 536.0583
1149.856, 530.7437
1150.339, 523.0777
1150.821, 519.8607
1151.303, 519.1298
1151.785, 516.2118
1152.267, 511.9897
1152.749, 513.2903
1153.231, 524.6169
1153.713, 529.9920
1154.195, 519.4984
1154.677, 511.3439
1155.160, 512.9876
1155.642, 516.4091
1156.124, 517.1225
1156.606, 516.1692
1157.088, 514.6791
1157.570, 512.8046
1158.052, 512.7925
1158.534, 515.8307
1159.017, 514.5591
1159.499, 507.5052
1159.981, 502.9333
1160.463, 503.4319
1160.945, 506.0484
1161.427, 508.8620
1161.909, 511.3884
1162.391, 512.0016
1162.874, 511.9965
1163.356, 517.4761
1163.838, 525.8292
1164.320, 527.7617
1164.802, 523.7906
1165.284, 520.5489
1165.766, 520.0845
1166.248, 519.4793
1166.730, 516.2524
1167.213, 513.6365
1167.695, 516.2737
1168.177, 518.6538
1168.659, 512.2645
1169.141, 505.2974
1169.623, 510.6665
1170.105, 524.3506
1170.587, 532.3803
1171.069, 532.0533
1171.552, 528.1904
1172.034, 517.0972
1172.516, 509.4713
1172.998, 507.9746
1173.480, 508.6193
1173.962, 509.7204
1174.444, 512.5203
1174.926, 519.5743
1175.409, 528.3933
1175.891, 529.8123
1176.373, 523.2949
1176.855, 515.7460
1177.337, 506.9917
1177.819, 505.1949
1178.301, 511.6991
1178.783, 518.8958
1179.266, 523.0972
1179.748, 523.9855
1180.230, 520.3279
1180.712, 514.7764
1181.194, 511.1673
1181.676, 508.9891
1182.158, 507.0974
1182.640, 506.1111
1183.122, 508.6539
1183.604, 513.6903
1184.087, 515.9318
1184.569, 513.2704
1185.051, 509.1050
1185.533, 500.9455
1186.015, 497.1333
1186.497, 504.7676
1186.979, 514.1317
1187.461, 520.0289
1187.944, 522.5059
1188.426, 521.7992
1188.908, 518.1850
1189.390, 512.6995
1189.872, 503.2951
1190.354, 499.7690
1190.836, 503.6352
1191.318, 506.5675
1191.801, 506.6059
1192.283, 506.5565
1192.765, 508.0190
1193.247, 510.2016
1193.729, 512.8735
1194.211, 514.3585
1194.693, 508.2599
1195.175, 498.4935
1195.657, 496.2412
1196.140, 499.6416
1196.622, 500.9136
1197.104, 499.2909
1197.586, 500.0506
1198.068, 505.7913
1198.550, 511.2212
1199.032, 512.3677
1199.514, 513.1112
1199.996, 519.3998
1200.479, 522.3304
1200.961, 508.6750
1201.443, 490.9595
1201.925, 489.5490
1202.407, 502.9032
1202.889, 511.0177
1203.371, 513.3502
1203.853, 511.1874
1204.336, 501.8582
1204.818, 497.1325
1205.300, 500.2502
1205.782, 503.9382
1206.264, 504.1913
1206.746, 504.2084
1207.228, 508.4050
1207.710, 513.9599
1208.193, 512.9971
1208.675, 507.8581
1209.157, 504.7338
1209.639, 503.6710
1210.121, 504.4656
1210.603, 506.3044
1211.085, 506.2310
1211.567, 503.0141
1212.049, 500.8688
1212.531, 505.8558
1213.014, 507.8757
1213.496, 496.5741
1213.978, 485.9864
1214.460, 486.1421
1214.942, 492.4725
1215.424, 502.6764
1215.906, 513.3302
1216.388, 511.8811
1216.871, 494.4479
1217.353, 490.4328
1217.835, 504.8630
1218.317, 510.0284
1218.799, 500.3767
1219.281, 494.0189
1219.763, 498.6623
1220.245, 506.2691
1220.728, 509.9341
1221.210, 510.4813
1221.692, 509.1128
1222.174, 505.8264
1222.656, 498.1739
1223.138, 489.7939
1223.620, 490.2334
1224.102, 496.5186
1224.584, 496.0325
1225.067, 486.4392
1225.549, 481.7997
1226.031, 492.1942
1226.513, 500.3553
1226.995, 496.0385
1227.477, 494.0950
1227.959, 506.7519
1228.441, 518.0564
1228.923, 513.4935
1229.406, 502.5283
1229.888, 502.2693
1230.370, 511.2314
1230.852, 512.8607
1231.334, 506.9005
1231.816, 499.2392
1232.298, 490.4221
1232.780, 482.3879
1233.263, 476.1858
1233.745, 478.5174
1234.227, 493.5329
1234.709, 508.9518
1235.191, 511.6175
1235.673, 508.5682
1236.155, 505.9420
1236.637, 503.3878
1237.120, 498.7509
1237.602, 495.0073
1238.084, 497.9761
1238.566, 506.4002
1239.048, 513.5162
1239.530, 519.4615
1240.012, 518.3711
1240.494, 503.9935
1240.976, 494.9386
1241.458, 494.5515
1241.941, 497.1607
1242.423, 501.5368
1242.905, 504.2253
##END=



