##NAMES=Gearksutite
##RRUFFID=R050657
##IDEAL CHEMISTRY=CaAlF_4_(OH)&#183;H_2_O
##LOCALITY=Jamestown, Colorado, USA
##OWNER=RRUFF
##SOURCE=University of Arizona Mineral Museum
##DESCRIPTION=White fragment
##STATUS=The identification of this mineral has been confirmed by X-ray diffraction and chemical analysis
##URL=rruff.info/R050657
##MEASURED CHEMISTRY=(Ca_0.98_Sr_0.02_)Al_1.00_F_4.00_(OH)Â·H_2_O
89.78156, 0.0000000E+00
90.26367, 63.53044
90.74579, 63.38337
91.22791, 63.55828
91.71002, 63.99907
92.19214, 64.19952
92.67426, 63.25488
93.15638, 61.68086
93.63850, 60.91581
94.12061, 62.16690
94.60273, 64.34763
95.08485, 64.95963
95.56696, 63.93391
96.04908, 61.77271
96.53120, 57.90698
97.01331, 52.57279
97.49543, 49.20925
97.97755, 50.25111
98.45966, 55.40984
98.94178, 59.68097
99.42390, 63.29577
99.90602, 65.61815
100.3881, 64.99725
100.8703, 60.69044
101.3524, 56.02879
101.8345, 52.57859
102.3166, 50.53609
102.7987, 48.91931
103.2808, 47.38279
103.7630, 46.23977
104.2451, 47.36261
104.7272, 52.91320
105.2093, 57.88485
105.6914, 58.46374
106.1735, 49.84369
106.6557, 45.19312
107.1378, 48.01718
107.6199, 58.68721
108.1020, 64.87741
108.5841, 62.72631
109.0662, 58.15380
109.5484, 56.44148
110.0305, 60.55009
110.5126, 64.55542
110.9947, 67.28126
111.4768, 68.36204
111.9590, 69.90142
112.4411, 71.94933
112.9232, 74.60706
113.4053, 77.94265
113.8874, 82.32751
114.3695, 87.12510
114.8517, 92.05077
115.3338, 96.98619
115.8159, 102.2464
116.2980, 108.1171
116.7801, 114.4379
117.2622, 120.8019
117.7444, 124.6800
118.2265, 130.0101
118.7086, 139.7604
119.1907, 157.1849
119.6728, 175.3111
120.1549, 188.8101
120.6371, 199.1702
121.1192, 212.4864
121.6013, 234.0147
122.0834, 259.6670
122.5655, 284.8123
123.0476, 307.4550
123.5298, 329.5565
124.0119, 352.7756
124.4940, 377.0779
124.9761, 402.0816
125.4582, 427.8758
125.9404, 453.9833
126.4225, 479.2456
126.9046, 503.2040
127.3867, 526.0444
127.8688, 548.2827
128.3509, 569.9964
128.8331, 590.3469
129.3152, 608.7880
129.7973, 625.2877
130.2794, 639.2838
130.7615, 646.9500
131.2436, 651.3959
131.7258, 663.5318
132.2079, 684.4230
132.6900, 711.0769
133.1721, 739.9411
133.6542, 770.9125
134.1364, 802.8282
134.6185, 836.6112
135.1006, 872.1982
135.5827, 903.5840
136.0648, 929.4847
136.5469, 952.2441
137.0291, 977.6609
137.5112, 1006.077
137.9933, 1035.072
138.4754, 1064.537
138.9575, 1095.019
139.4396, 1120.615
139.9218, 1139.014
140.4039, 1151.946
140.8860, 1167.263
141.3681, 1184.928
141.8502, 1204.912
142.3323, 1227.387
142.8145, 1254.603
143.2966, 1279.292
143.7787, 1299.813
144.2608, 1316.389
144.7429, 1331.938
145.2250, 1346.052
145.7072, 1359.690
146.1893, 1373.695
146.6714, 1387.237
147.1535, 1402.338
147.6356, 1419.235
148.1178, 1437.843
148.5999, 1458.349
149.0820, 1481.347
149.5641, 1505.929
150.0462, 1530.846
150.5283, 1558.723
151.0105, 1584.008
151.4926, 1590.319
151.9747, 1588.021
152.4568, 1587.741
152.9389, 1591.557
153.4210, 1597.082
153.9032, 1601.032
154.3853, 1602.162
154.8674, 1602.516
155.3495, 1602.450
155.8316, 1601.167
156.3137, 1601.367
156.7959, 1604.981
157.2780, 1610.203
157.7601, 1613.621
158.2422, 1610.816
158.7243, 1608.740
159.2065, 1610.943
159.6886, 1620.048
160.1707, 1629.595
160.6528, 1637.583
161.1349, 1644.558
161.6170, 1651.995
162.0992, 1662.379
162.5813, 1672.212
163.0634, 1678.784
163.5455, 1677.535
164.0276, 1678.335
164.5097, 1687.770
164.9919, 1703.670
165.4740, 1717.617
165.9561, 1725.683
166.4382, 1729.901
166.9203, 1732.220
167.4024, 1733.537
167.8846, 1732.808
168.3667, 1727.727
168.8488, 1719.092
169.3309, 1712.081
169.8130, 1710.781
170.2952, 1712.593
170.7773, 1714.331
171.2594, 1715.382
171.7415, 1715.581
172.2236, 1713.504
172.7057, 1709.399
173.1879, 1707.319
173.6700, 1710.842
174.1521, 1718.322
174.6342, 1726.963
175.1163, 1736.906
175.5984, 1746.933
176.0806, 1755.585
176.5627, 1762.899
177.0448, 1769.124
177.5269, 1773.098
178.0090, 1776.010
178.4911, 1780.815
178.9733, 1791.087
179.4554, 1803.251
179.9375, 1810.742
180.4196, 1812.966
180.9017, 1815.184
181.3838, 1824.090
181.8660, 1837.935
182.3481, 1850.807
182.8302, 1858.579
183.3123, 1863.549
183.7944, 1871.322
184.2766, 1882.529
184.7587, 1894.461
185.2408, 1904.475
185.7229, 1912.570
186.2050, 1919.199
186.6871, 1923.402
187.1693, 1926.102
187.6514, 1930.525
188.1335, 1937.049
188.6156, 1944.577
189.0977, 1951.730
189.5798, 1958.481
190.0620, 1965.322
190.5441, 1973.511
191.0262, 1982.471
191.5083, 1988.213
191.9904, 1990.122
192.4725, 1989.888
192.9547, 1990.340
193.4368, 1991.521
193.9189, 1992.361
194.4010, 1992.433
194.8831, 1991.742
195.3652, 1990.379
195.8474, 1988.723
196.3295, 1985.857
196.8116, 1979.058
197.2937, 1967.931
197.7758, 1956.952
198.2579, 1948.763
198.7401, 1943.392
199.2222, 1938.757
199.7043, 1934.477
200.1864, 1931.135
200.6685, 1930.544
201.1507, 1933.157
201.6328, 1936.317
202.1149, 1938.017
202.5970, 1937.924
203.0791, 1939.746
203.5612, 1944.023
204.0434, 1950.183
204.5255, 1956.695
205.0076, 1963.495
205.4897, 1970.902
205.9718, 1978.538
206.4539, 1985.889
206.9361, 1997.060
207.4182, 2013.934
207.9003, 2034.159
208.3824, 2050.958
208.8645, 2064.320
209.3466, 2074.442
209.8288, 2082.244
210.3109, 2088.708
210.7930, 2088.436
211.2751, 2080.000
211.7572, 2064.774
212.2393, 2047.052
212.7215, 2026.711
213.2036, 2004.553
213.6857, 1980.140
214.1678, 1951.458
214.6499, 1927.100
215.1320, 1908.026
215.6142, 1893.576
216.0963, 1881.217
216.5784, 1870.595
217.0605, 1862.727
217.5426, 1858.871
218.0247, 1860.646
218.5069, 1861.683
218.9890, 1861.039
219.4711, 1859.215
219.9532, 1858.786
220.4353, 1860.741
220.9175, 1862.490
221.3996, 1861.853
221.8817, 1856.729
222.3638, 1855.027
222.8459, 1859.063
223.3280, 1867.301
223.8102, 1871.202
224.2923, 1868.250
224.7744, 1864.908
225.2565, 1865.178
225.7386, 1869.828
226.2207, 1876.239
226.7029, 1884.743
227.1850, 1894.918
227.6671, 1904.227
228.1492, 1912.479
228.6313, 1920.131
229.1134, 1927.670
229.5956, 1936.232
230.0777, 1942.286
230.5598, 1945.393
231.0419, 1945.805
231.5240, 1944.526
232.0062, 1940.360
232.4883, 1936.178
232.9704, 1933.803
233.4525, 1934.169
233.9346, 1934.386
234.4167, 1934.545
234.8989, 1934.443
235.3810, 1932.756
235.8631, 1927.308
236.3452, 1923.078
236.8273, 1923.176
237.3094, 1929.941
237.7916, 1935.892
238.2737, 1940.651
238.7558, 1944.279
239.2379, 1947.205
239.7200, 1949.531
240.2021, 1950.978
240.6843, 1951.151
241.1664, 1948.772
241.6485, 1947.928
242.1306, 1949.015
242.6127, 1951.795
243.0948, 1955.214
243.5770, 1958.816
244.0591, 1963.791
244.5412, 1971.100
245.0233, 1982.876
245.5054, 1992.278
245.9876, 1997.814
246.4697, 2001.019
246.9518, 2006.846
247.4339, 2015.731
247.9160, 2026.634
248.3981, 2039.115
248.8803, 2053.838
249.3624, 2068.684
249.8445, 2083.572
250.3266, 2098.531
250.8087, 2113.760
251.2908, 2129.226
251.7730, 2144.724
252.2551, 2160.160
252.7372, 2176.265
253.2193, 2190.598
253.7014, 2202.653
254.1835, 2213.033
254.6657, 2223.559
255.1478, 2236.675
255.6299, 2245.645
256.1120, 2246.767
256.5941, 2236.702
257.0763, 2229.513
257.5584, 2225.895
258.0405, 2224.669
258.5226, 2223.700
259.0047, 2223.301
259.4868, 2222.519
259.9690, 2220.653
260.4511, 2217.074
260.9332, 2215.825
261.4153, 2218.848
261.8974, 2222.487
262.3795, 2220.508
262.8617, 2211.831
263.3438, 2200.071
263.8259, 2185.998
264.3080, 2169.495
264.7901, 2151.344
265.2722, 2130.095
265.7544, 2108.892
266.2365, 2093.043
266.7186, 2084.051
267.2007, 2075.864
267.6828, 2066.478
268.1649, 2055.594
268.6471, 2046.973
269.1292, 2040.617
269.6113, 2036.273
270.0934, 2033.747
270.5755, 2033.205
271.0576, 2033.826
271.5398, 2035.683
272.0219, 2038.750
272.5040, 2041.159
272.9861, 2042.476
273.4682, 2044.010
273.9503, 2047.986
274.4325, 2055.267
274.9146, 2059.917
275.3967, 2060.035
275.8788, 2056.142
276.3610, 2052.410
276.8431, 2049.021
277.3252, 2045.349
277.8073, 2040.878
278.2894, 2035.612
278.7715, 2029.615
279.2537, 2022.539
279.7358, 2014.815
280.2179, 2008.246
280.7000, 2003.043
281.1821, 1998.037
281.6642, 1991.985
282.1464, 1984.883
282.6285, 1978.322
283.1106, 1972.198
283.5927, 1967.057
284.0748, 1965.186
284.5569, 1966.941
285.0391, 1968.500
285.5212, 1966.593
286.0033, 1961.544
286.4854, 1957.084
286.9675, 1953.041
287.4496, 1950.716
287.9318, 1954.131
288.4139, 1963.407
288.8960, 1972.154
289.3781, 1976.920
289.8602, 1978.070
290.3423, 1976.823
290.8245, 1972.595
291.3066, 1967.828
291.7887, 1966.715
292.2708, 1968.950
292.7529, 1971.639
293.2350, 1974.273
293.7172, 1976.227
294.1993, 1974.958
294.6814, 1969.938
295.1635, 1963.670
295.6456, 1958.754
296.1277, 1955.129
296.6099, 1952.687
297.0920, 1953.144
297.5741, 1954.408
298.0562, 1951.749
298.5383, 1944.896
299.0204, 1937.116
299.5026, 1930.870
299.9847, 1926.216
300.4668, 1923.153
300.9489, 1923.263
301.4311, 1924.245
301.9132, 1922.493
302.3953, 1918.106
302.8774, 1913.642
303.3595, 1910.721
303.8416, 1909.186
304.3238, 1908.852
304.8059, 1911.016
305.2880, 1913.053
305.7701, 1911.002
306.2522, 1905.637
306.7343, 1901.827
307.2165, 1904.220
307.6986, 1909.504
308.1807, 1913.613
308.6628, 1915.630
309.1449, 1916.130
309.6270, 1914.617
310.1092, 1911.727
310.5913, 1909.586
311.0734, 1909.196
311.5555, 1910.118
312.0376, 1912.249
312.5197, 1916.098
313.0019, 1919.679
313.4840, 1921.791
313.9661, 1922.874
314.4482, 1923.853
314.9303, 1924.264
315.4124, 1925.337
315.8946, 1928.617
316.3767, 1935.143
316.8588, 1939.623
317.3409, 1938.121
317.8230, 1933.824
318.3051, 1930.936
318.7873, 1932.339
319.2694, 1933.995
319.7515, 1933.521
320.2336, 1930.514
320.7157, 1929.655
321.1978, 1934.443
321.6800, 1940.960
322.1621, 1945.657
322.6442, 1945.263
323.1263, 1945.602
323.6084, 1949.202
324.0905, 1955.712
324.5727, 1959.520
325.0548, 1955.810
325.5369, 1951.708
326.0190, 1951.533
326.5012, 1959.935
326.9833, 1967.295
327.4654, 1973.567
327.9475, 1978.439
328.4296, 1980.496
328.9117, 1975.418
329.3939, 1971.335
329.8760, 1971.716
330.3581, 1979.838
330.8402, 1986.291
331.3223, 1989.560
331.8044, 1991.554
332.2866, 1996.512
332.7687, 2007.446
333.2508, 2016.756
333.7329, 2021.946
334.2150, 2022.356
334.6971, 2021.449
335.1793, 2018.216
335.6614, 2014.631
336.1435, 2013.272
336.6256, 2014.500
337.1077, 2017.168
337.5898, 2021.416
338.0720, 2027.216
338.5541, 2032.007
339.0362, 2035.422
339.5183, 2038.901
340.0004, 2043.942
340.4825, 2050.898
340.9647, 2057.458
341.4468, 2063.164
341.9289, 2068.241
342.4110, 2073.431
342.8931, 2078.643
343.3752, 2084.142
343.8574, 2090.032
344.3395, 2096.317
344.8216, 2102.867
345.3037, 2109.816
345.7858, 2116.605
346.2679, 2122.228
346.7501, 2126.740
347.2322, 2130.658
347.7143, 2133.349
348.1964, 2135.609
348.6785, 2140.842
349.1607, 2149.762
349.6428, 2158.493
350.1249, 2162.386
350.6070, 2162.518
351.0891, 2162.283
351.5713, 2162.915
352.0534, 2164.077
352.5355, 2165.297
353.0176, 2166.581
353.4997, 2168.055
353.9818, 2170.954
354.4640, 2173.870
354.9461, 2174.285
355.4282, 2169.134
355.9103, 2164.287
356.3924, 2165.718
356.8745, 2172.218
357.3567, 2178.907
357.8388, 2182.908
358.3209, 2186.009
358.8030, 2189.947
359.2851, 2195.443
359.7672, 2200.609
360.2494, 2204.512
360.7315, 2207.390
361.2136, 2209.635
361.6957, 2210.327
362.1778, 2211.309
362.6599, 2213.724
363.1421, 2217.853
363.6242, 2221.770
364.1063, 2224.957
364.5884, 2227.608
365.0705, 2229.895
365.5526, 2232.178
366.0348, 2233.723
366.5169, 2234.398
366.9990, 2234.184
367.4811, 2233.049
367.9632, 2231.073
368.4453, 2228.088
368.9275, 2223.914
369.4096, 2214.814
369.8917, 2209.737
370.3738, 2210.652
370.8559, 2215.635
371.3380, 2219.433
371.8202, 2222.412
372.3023, 2223.746
372.7844, 2222.648
373.2665, 2218.133
373.7487, 2215.068
374.2308, 2212.916
374.7129, 2212.772
375.1950, 2216.800
375.6771, 2226.613
376.1592, 2235.567
376.6414, 2242.026
377.1235, 2246.136
377.6056, 2249.311
378.0877, 2251.300
378.5698, 2253.333
379.0519, 2257.003
379.5341, 2262.307
380.0162, 2266.171
380.4983, 2267.577
380.9804, 2267.828
381.4625, 2271.056
381.9446, 2277.186
382.4268, 2280.503
382.9089, 2275.495
383.3910, 2264.727
383.8731, 2256.760
384.3552, 2252.714
384.8373, 2249.368
385.3195, 2242.737
385.8016, 2233.699
386.2837, 2224.712
386.7658, 2217.234
387.2479, 2210.337
387.7300, 2202.233
388.2122, 2193.050
388.6943, 2184.935
389.1764, 2181.116
389.6585, 2178.813
390.1406, 2174.311
390.6227, 2164.424
391.1049, 2155.172
391.5870, 2151.000
392.0691, 2150.816
392.5512, 2151.340
393.0333, 2152.925
393.5154, 2153.446
393.9976, 2150.730
394.4797, 2142.926
394.9618, 2137.344
395.4439, 2138.633
395.9260, 2142.837
396.4081, 2144.694
396.8903, 2139.760
397.3724, 2135.700
397.8545, 2134.951
398.3366, 2137.703
398.8188, 2140.427
399.3009, 2143.033
399.7830, 2145.445
400.2651, 2147.642
400.7472, 2150.251
401.2293, 2151.592
401.7115, 2150.465
402.1936, 2148.106
402.6757, 2148.580
403.1578, 2153.776
403.6399, 2158.524
404.1220, 2160.140
404.6042, 2157.717
405.0863, 2157.645
405.5684, 2160.535
406.0505, 2164.776
406.5326, 2168.720
407.0147, 2172.548
407.4969, 2174.517
407.9790, 2172.903
408.4611, 2169.385
408.9432, 2171.757
409.4253, 2180.551
409.9074, 2189.723
410.3896, 2194.814
410.8717, 2196.350
411.3538, 2196.067
411.8359, 2193.424
412.3180, 2191.082
412.8001, 2193.835
413.2823, 2200.485
413.7644, 2206.441
414.2465, 2207.772
414.7286, 2207.641
415.2107, 2210.880
415.6928, 2217.767
416.1750, 2224.475
416.6571, 2227.148
417.1392, 2228.094
417.6213, 2230.567
418.1034, 2236.711
418.5855, 2243.494
419.0677, 2248.852
419.5498, 2253.300
420.0319, 2258.529
420.5140, 2265.909
420.9961, 2273.884
421.4782, 2281.712
421.9604, 2289.615
422.4425, 2296.448
422.9246, 2300.493
423.4067, 2303.664
423.8889, 2308.651
424.3710, 2318.962
424.8531, 2327.734
425.3352, 2331.933
425.8173, 2331.507
426.2994, 2335.744
426.7816, 2348.453
427.2637, 2361.935
427.7458, 2371.055
428.2279, 2374.180
428.7100, 2377.110
429.1921, 2380.274
429.6743, 2383.381
430.1564, 2385.845
430.6385, 2387.887
431.1206, 2388.446
431.6027, 2386.911
432.0848, 2383.328
432.5670, 2378.959
433.0491, 2373.704
433.5312, 2368.034
434.0133, 2362.988
434.4954, 2358.229
434.9775, 2351.086
435.4597, 2339.829
435.9418, 2327.255
436.4239, 2318.539
436.9060, 2313.370
437.3881, 2309.212
437.8702, 2304.517
438.3524, 2299.825
438.8345, 2295.681
439.3166, 2292.010
439.7987, 2289.646
440.2808, 2290.271
440.7629, 2292.424
441.2451, 2293.828
441.7272, 2293.298
442.2093, 2292.028
442.6914, 2290.281
443.1735, 2288.181
443.6556, 2286.484
444.1378, 2284.452
444.6199, 2283.621
445.1020, 2285.134
445.5841, 2290.309
446.0662, 2295.633
446.5483, 2301.789
447.0305, 2307.635
447.5126, 2311.169
447.9947, 2309.324
448.4768, 2308.886
448.9590, 2311.968
449.4411, 2318.649
449.9232, 2323.612
450.4053, 2326.487
450.8874, 2328.171
451.3695, 2328.446
451.8517, 2326.052
452.3338, 2328.482
452.8159, 2338.576
453.2980, 2351.215
453.7801, 2355.541
454.2622, 2351.077
454.7444, 2344.671
455.2265, 2339.197
455.7086, 2334.282
456.1907, 2328.461
456.6728, 2321.618
457.1549, 2314.618
457.6371, 2307.815
458.1192, 2301.382
458.6013, 2295.656
459.0834, 2291.137
459.5655, 2286.707
460.0476, 2281.315
460.5298, 2275.036
461.0119, 2268.401
461.4940, 2259.413
461.9761, 2251.555
462.4582, 2248.545
462.9403, 2251.028
463.4225, 2252.684
463.9046, 2249.113
464.3867, 2244.028
464.8688, 2241.030
465.3509, 2245.219
465.8330, 2246.751
466.3152, 2241.233
466.7973, 2231.016
467.2794, 2224.616
467.7615, 2225.496
468.2436, 2227.316
468.7257, 2228.103
469.2079, 2227.683
469.6900, 2226.962
470.1721, 2225.760
470.6542, 2224.431
471.1363, 2223.212
471.6184, 2221.919
472.1006, 2221.541
472.5827, 2222.612
473.0648, 2224.487
473.5469, 2224.913
474.0291, 2223.750
474.5112, 2222.879
474.9933, 2223.782
475.4754, 2225.980
475.9575, 2227.326
476.4396, 2227.694
476.9218, 2227.665
477.4039, 2227.546
477.8860, 2227.501
478.3681, 2228.027
478.8502, 2230.004
479.3323, 2231.691
479.8145, 2229.879
480.2966, 2225.864
480.7787, 2224.483
481.2608, 2231.323
481.7429, 2239.436
482.2250, 2243.533
482.7072, 2242.248
483.1893, 2241.432
483.6714, 2244.435
484.1535, 2248.328
484.6356, 2250.170
485.1177, 2247.794
485.5999, 2245.369
486.0820, 2243.278
486.5641, 2241.618
487.0462, 2240.611
487.5283, 2240.089
488.0104, 2240.543
488.4926, 2242.615
488.9747, 2246.832
489.4568, 2249.109
489.9389, 2248.886
490.4210, 2247.704
490.9031, 2246.996
491.3853, 2246.719
491.8674, 2247.444
492.3495, 2249.626
492.8316, 2252.425
493.3137, 2253.885
493.7958, 2254.102
494.2780, 2254.239
494.7601, 2255.143
495.2422, 2256.365
495.7243, 2256.625
496.2064, 2255.795
496.6885, 2255.828
497.1707, 2258.827
497.6528, 2263.490
498.1349, 2268.184
498.6170, 2273.450
499.0992, 2277.209
499.5813, 2276.624
500.0634, 2273.625
500.5455, 2272.945
501.0276, 2278.535
501.5097, 2284.592
501.9919, 2288.890
502.4740, 2291.085
502.9561, 2292.692
503.4382, 2293.323
503.9203, 2293.797
504.4024, 2294.660
504.8846, 2295.939
505.3667, 2297.657
505.8488, 2300.380
506.3309, 2303.196
506.8130, 2303.757
507.2951, 2301.487
507.7773, 2299.566
508.2594, 2299.106
508.7415, 2299.996
509.2236, 2301.636
509.7057, 2304.046
510.1878, 2307.036
510.6700, 2310.787
511.1521, 2315.039
511.6342, 2319.251
512.1163, 2323.499
512.5984, 2326.981
513.0806, 2328.101
513.5627, 2327.833
514.0448, 2328.219
514.5269, 2331.145
515.0090, 2334.186
515.4911, 2334.851
515.9733, 2333.680
516.4554, 2334.386
516.9375, 2339.628
517.4196, 2346.244
517.9017, 2352.676
518.3839, 2359.443
518.8660, 2364.224
519.3481, 2365.005
519.8302, 2364.451
520.3123, 2365.448
520.7944, 2369.433
521.2766, 2372.266
521.7587, 2372.392
522.2408, 2371.073
522.7229, 2373.649
523.2050, 2381.074
523.6871, 2389.031
524.1693, 2395.375
524.6514, 2400.161
525.1335, 2405.306
525.6156, 2410.957
526.0977, 2416.202
526.5798, 2419.353
527.0620, 2421.344
527.5441, 2425.094
528.0262, 2431.842
528.5083, 2439.355
528.9904, 2444.834
529.4725, 2449.082
529.9547, 2454.053
530.4368, 2461.957
530.9189, 2469.792
531.4010, 2474.890
531.8831, 2477.292
532.3652, 2480.780
532.8474, 2486.738
533.3295, 2494.114
533.8116, 2502.422
534.2937, 2512.466
534.7758, 2521.934
535.2579, 2531.226
535.7401, 2539.733
536.2222, 2546.126
536.7043, 2549.599
537.1864, 2553.174
537.6685, 2557.329
538.1506, 2562.180
538.6328, 2568.175
539.1149, 2575.571
539.5970, 2583.070
540.0791, 2589.217
540.5612, 2594.659
541.0433, 2602.436
541.5255, 2612.841
542.0076, 2623.595
542.4897, 2633.082
542.9718, 2641.250
543.4539, 2647.917
543.9360, 2652.038
544.4182, 2656.159
544.9003, 2663.109
545.3824, 2671.469
545.8645, 2678.126
546.3466, 2679.329
546.8287, 2680.739
547.3109, 2685.287
547.7930, 2693.117
548.2751, 2700.558
548.7572, 2708.637
549.2393, 2714.927
549.7214, 2717.832
550.2036, 2714.968
550.6857, 2714.260
551.1678, 2716.452
551.6499, 2720.120
552.1320, 2723.206
552.6141, 2725.568
553.0963, 2728.516
553.5784, 2732.280
554.0605, 2736.930
554.5426, 2742.940
555.0247, 2750.249
555.5068, 2757.674
555.9890, 2764.437
556.4711, 2770.801
556.9532, 2776.635
557.4353, 2781.935
557.9174, 2788.629
558.3995, 2797.579
558.8817, 2808.841
559.3638, 2823.007
559.8459, 2842.171
560.3281, 2859.927
560.8102, 2871.834
561.2923, 2880.976
561.7744, 2892.113
562.2565, 2906.864
562.7386, 2922.934
563.2208, 2940.272
563.7029, 2958.630
564.1850, 2977.570
564.6671, 2997.510
565.1492, 3016.979
565.6313, 3035.234
566.1135, 3052.059
566.5956, 3068.441
567.0777, 3084.075
567.5598, 3099.958
568.0419, 3117.969
568.5240, 3137.405
569.0062, 3155.625
569.4883, 3171.889
569.9704, 3186.802
570.4525, 3200.656
570.9346, 3213.671
571.4167, 3225.770
571.8989, 3237.622
572.3810, 3248.297
572.8631, 3257.640
573.3452, 3265.454
573.8273, 3271.095
574.3094, 3273.750
574.7916, 3274.548
575.2737, 3274.584
575.7558, 3275.260
576.2379, 3270.855
576.7200, 3261.562
577.2021, 3247.070
577.6843, 3225.995
578.1664, 3195.723
578.6485, 3167.058
579.1306, 3141.113
579.6127, 3116.857
580.0948, 3092.304
580.5770, 3067.562
581.0591, 3039.801
581.5412, 3006.461
582.0233, 2970.445
582.5054, 2937.240
582.9875, 2907.239
583.4697, 2880.060
583.9518, 2857.897
584.4339, 2837.605
584.9160, 2815.351
585.3981, 2790.413
585.8802, 2766.747
586.3624, 2746.678
586.8445, 2728.684
587.3266, 2711.359
587.8087, 2693.761
588.2908, 2677.708
588.7729, 2662.990
589.2551, 2650.042
589.7372, 2639.804
590.2193, 2633.039
590.7014, 2627.583
591.1835, 2623.800
591.6656, 2620.910
592.1478, 2614.488
592.6299, 2604.164
593.1120, 2593.286
593.5941, 2583.655
594.0762, 2575.074
594.5583, 2566.563
595.0405, 2558.110
595.5226, 2550.925
596.0047, 2546.954
596.4868, 2544.706
596.9689, 2541.843
597.4510, 2537.483
597.9332, 2533.513
598.4153, 2530.951
598.8974, 2529.562
599.3795, 2528.879
599.8616, 2530.990
600.3438, 2531.448
600.8259, 2527.916
601.3080, 2521.620
601.7901, 2517.395
602.2722, 2515.906
602.7543, 2515.460
603.2365, 2516.028
603.7186, 2517.519
604.2007, 2515.554
604.6828, 2509.164
605.1649, 2503.748
605.6470, 2505.113
606.1292, 2511.486
606.6113, 2515.663
607.0934, 2516.719
607.5755, 2515.870
608.0576, 2513.381
608.5398, 2510.015
609.0219, 2507.119
609.5040, 2505.250
609.9861, 2503.807
610.4683, 2502.589
610.9504, 2501.613
611.4325, 2500.853
611.9146, 2500.972
612.3967, 2500.754
612.8788, 2499.452
613.3610, 2497.284
613.8431, 2496.485
614.3252, 2497.890
614.8073, 2499.329
615.2894, 2499.518
615.7715, 2498.327
616.2537, 2497.679
616.7358, 2497.293
617.2179, 2498.553
617.7000, 2504.551
618.1821, 2513.550
618.6642, 2519.229
619.1464, 2520.223
619.6285, 2518.941
620.1106, 2515.632
620.5927, 2512.104
621.0748, 2511.496
621.5569, 2518.302
622.0391, 2524.948
622.5212, 2528.009
623.0033, 2528.315
623.4854, 2528.405
623.9675, 2528.859
624.4496, 2529.088
624.9318, 2528.578
625.4139, 2527.404
625.8960, 2528.151
626.3781, 2531.684
626.8602, 2535.212
627.3423, 2536.728
627.8245, 2536.315
628.3066, 2537.023
628.7887, 2539.133
629.2708, 2540.914
629.7529, 2540.041
630.2350, 2537.474
630.7172, 2535.233
631.1993, 2533.406
631.6814, 2532.832
632.1635, 2535.846
632.6456, 2540.171
633.1277, 2542.252
633.6099, 2537.324
634.0920, 2533.782
634.5741, 2535.352
635.0562, 2540.646
635.5383, 2544.213
636.0204, 2545.856
636.5026, 2545.877
636.9847, 2543.648
637.4668, 2539.477
637.9489, 2538.381
638.4310, 2541.279
638.9131, 2543.246
639.3953, 2539.673
639.8774, 2532.083
640.3595, 2527.602
640.8416, 2526.622
641.3237, 2527.118
641.8058, 2528.357
642.2880, 2529.477
642.7701, 2528.828
643.2522, 2524.957
643.7343, 2522.249
644.2164, 2524.684
644.6985, 2529.005
645.1807, 2530.858
645.6628, 2526.267
646.1449, 2522.893
646.6270, 2522.037
647.1091, 2522.990
647.5912, 2524.171
648.0734, 2525.956
648.5555, 2526.990
649.0376, 2526.922
649.5197, 2525.754
650.0018, 2522.734
650.4839, 2517.860
650.9661, 2514.342
651.4482, 2514.835
651.9303, 2517.823
652.4124, 2521.120
652.8945, 2524.594
653.3766, 2527.429
653.8588, 2528.719
654.3409, 2529.373
654.8230, 2530.158
655.3051, 2531.265
655.7872, 2532.319
656.2693, 2533.020
656.7515, 2533.740
657.2336, 2534.780
657.7158, 2535.918
658.1979, 2537.820
658.6800, 2540.652
659.1621, 2544.047
659.6442, 2547.894
660.1263, 2552.174
660.6085, 2554.620
661.0906, 2553.957
661.5727, 2551.671
662.0548, 2549.781
662.5369, 2548.419
663.0190, 2548.116
663.5012, 2550.389
663.9833, 2552.914
664.4654, 2554.169
664.9475, 2554.145
665.4296, 2553.069
665.9117, 2549.912
666.3939, 2546.765
666.8760, 2544.722
667.3581, 2543.937
667.8402, 2543.322
668.3223, 2542.232
668.8044, 2542.376
669.2866, 2546.200
669.7687, 2554.027
670.2508, 2556.775
670.7329, 2553.019
671.2150, 2548.221
671.6971, 2548.627
672.1793, 2552.795
672.6614, 2557.428
673.1435, 2562.544
673.6256, 2565.824
674.1077, 2563.199
674.5898, 2558.081
675.0720, 2555.790
675.5541, 2561.015
676.0362, 2565.869
676.5183, 2568.078
677.0004, 2568.380
677.4825, 2568.907
677.9647, 2570.070
678.4468, 2570.705
678.9289, 2570.114
679.4110, 2568.826
679.8931, 2569.622
680.3752, 2572.651
680.8574, 2575.623
681.3395, 2576.917
681.8216, 2577.316
682.3037, 2578.114
682.7858, 2579.369
683.2679, 2581.632
683.7501, 2587.556
684.2322, 2593.100
684.7143, 2594.222
685.1964, 2589.510
685.6785, 2586.077
686.1606, 2585.522
686.6428, 2587.121
687.1249, 2590.525
687.6070, 2597.372
688.0891, 2602.148
688.5712, 2604.330
689.0533, 2605.344
689.5355, 2606.865
690.0176, 2608.901
690.4997, 2610.824
690.9818, 2612.675
691.4639, 2614.031
691.9460, 2613.480
692.4282, 2612.007
692.9103, 2611.762
693.3924, 2613.510
693.8745, 2616.738
694.3566, 2621.749
694.8387, 2627.964
695.3209, 2634.047
695.8030, 2641.071
696.2851, 2646.192
696.7672, 2648.063
697.2493, 2647.419
697.7314, 2647.971
698.2136, 2649.810
698.6957, 2652.555
699.1778, 2656.523
699.6599, 2661.268
700.1420, 2664.872
700.6241, 2667.367
701.1063, 2668.728
701.5884, 2668.736
702.0705, 2667.737
702.5526, 2665.353
703.0347, 2661.606
703.5168, 2659.704
703.9990, 2661.747
704.4811, 2665.871
704.9632, 2671.005
705.4453, 2677.598
705.9274, 2683.770
706.4095, 2690.260
706.8917, 2695.465
707.3738, 2697.363
707.8560, 2695.395
708.3381, 2695.536
708.8202, 2698.782
709.3023, 2702.279
709.7844, 2701.742
710.2665, 2698.523
710.7487, 2696.339
711.2308, 2696.148
711.7129, 2697.211
712.1950, 2699.163
712.6771, 2701.930
713.1592, 2705.414
713.6414, 2712.050
714.1235, 2716.485
714.6056, 2715.762
715.0877, 2712.330
715.5698, 2711.241
716.0519, 2714.004
716.5341, 2714.926
717.0162, 2711.933
717.4983, 2706.669
717.9804, 2704.510
718.4625, 2705.147
718.9446, 2704.574
719.4268, 2698.677
719.9089, 2691.922
720.3910, 2691.144
720.8731, 2695.029
721.3552, 2697.944
721.8373, 2696.351
722.3195, 2693.691
722.8016, 2691.590
723.2837, 2690.197
723.7658, 2689.041
724.2479, 2688.021
724.7300, 2687.440
725.2122, 2688.142
725.6943, 2690.197
726.1764, 2687.499
726.6585, 2679.065
727.1406, 2671.939
727.6227, 2673.297
728.1049, 2679.746
728.5870, 2683.353
729.0691, 2683.458
729.5512, 2682.509
730.0333, 2681.733
730.5154, 2681.021
730.9976, 2680.211
731.4797, 2679.047
731.9618, 2678.478
732.4439, 2679.118
732.9260, 2680.121
733.4081, 2680.843
733.8903, 2681.109
734.3724, 2681.765
734.8545, 2682.920
735.3366, 2684.319
735.8187, 2685.535
736.3008, 2686.671
736.7830, 2687.981
737.2651, 2689.188
737.7472, 2691.671
738.2293, 2698.327
738.7114, 2706.681
739.1935, 2712.991
739.6757, 2714.579
740.1578, 2715.846
740.6399, 2718.891
741.1220, 2722.010
741.6041, 2722.048
742.0862, 2716.415
742.5684, 2713.447
743.0505, 2714.862
743.5326, 2719.218
744.0147, 2724.623
744.4968, 2730.744
744.9789, 2733.475
745.4611, 2729.022
745.9432, 2723.240
746.4253, 2724.322
746.9074, 2730.292
747.3895, 2736.032
747.8716, 2740.600
748.3538, 2743.217
748.8359, 2742.769
749.3180, 2739.899
749.8001, 2737.720
750.2822, 2736.248
750.7643, 2735.821
751.2465, 2737.169
751.7286, 2739.617
752.2107, 2739.205
752.6928, 2735.865
753.1749, 2733.254
753.6570, 2734.560
754.1392, 2737.365
754.6213, 2736.802
755.1034, 2733.589
755.5855, 2732.040
756.0676, 2736.511
756.5498, 2741.524
757.0319, 2743.852
757.5140, 2743.179
757.9962, 2742.249
758.4783, 2740.903
758.9604, 2739.734
759.4425, 2739.036
759.9246, 2738.788
760.4067, 2738.560
760.8889, 2738.414
761.3710, 2737.674
761.8531, 2735.474
762.3352, 2732.471
762.8173, 2729.779
763.2994, 2727.496
763.7816, 2725.683
764.2637, 2725.285
764.7458, 2724.804
765.2279, 2723.017
765.7100, 2719.472
766.1921, 2716.424
766.6743, 2714.469
767.1564, 2712.542
767.6385, 2709.698
768.1206, 2705.655
768.6027, 2703.262
769.0848, 2702.649
769.5670, 2702.864
770.0491, 2703.497
770.5312, 2704.175
771.0133, 2703.867
771.4954, 2702.302
771.9775, 2701.330
772.4597, 2702.520
772.9418, 2704.536
773.4239, 2706.135
773.9060, 2706.454
774.3881, 2708.406
774.8702, 2714.528
775.3524, 2719.552
775.8345, 2718.167
776.3166, 2709.700
776.7987, 2703.350
777.2808, 2699.809
777.7629, 2698.067
778.2451, 2697.237
778.7272, 2697.393
779.2093, 2699.191
779.6914, 2703.350
780.1735, 2706.330
780.6556, 2705.413
781.1378, 2702.557
781.6199, 2699.549
782.1020, 2695.563
782.5841, 2693.364
783.0662, 2693.190
783.5483, 2694.496
784.0305, 2697.171
784.5126, 2701.301
784.9947, 2704.387
785.4768, 2706.146
785.9589, 2706.780
786.4410, 2705.649
786.9232, 2703.769
787.4053, 2703.360
787.8874, 2706.116
788.3695, 2707.179
788.8516, 2702.502
789.3337, 2695.687
789.8159, 2690.781
790.2980, 2689.162
790.7801, 2687.434
791.2622, 2684.686
791.7443, 2682.923
792.2264, 2685.972
792.7086, 2693.466
793.1907, 2698.331
793.6728, 2699.287
794.1549, 2698.023
794.6370, 2694.772
795.1191, 2691.079
795.6013, 2689.609
796.0834, 2692.315
796.5655, 2694.880
797.0476, 2695.383
797.5297, 2695.146
798.0118, 2695.835
798.4940, 2698.074
798.9761, 2699.843
799.4582, 2700.871
799.9403, 2701.613
800.4224, 2702.939
800.9045, 2704.639
801.3867, 2705.546
801.8688, 2705.416
802.3509, 2704.429
802.8330, 2701.152
803.3151, 2697.676
803.7972, 2697.081
804.2794, 2702.231
804.7615, 2706.795
805.2436, 2709.776
805.7258, 2711.363
806.2079, 2711.241
806.6900, 2708.409
807.1721, 2708.120
807.6542, 2711.459
808.1364, 2715.923
808.6185, 2718.751
809.1006, 2719.972
809.5827, 2719.212
810.0648, 2715.625
810.5469, 2712.658
811.0291, 2713.622
811.5112, 2716.288
811.9933, 2718.063
812.4754, 2717.660
812.9575, 2717.527
813.4396, 2718.042
813.9218, 2718.632
814.4039, 2718.627
814.8860, 2718.009
815.3681, 2717.403
815.8502, 2716.956
816.3323, 2716.289
816.8145, 2713.818
817.2966, 2711.141
817.7787, 2711.617
818.2608, 2717.273
818.7429, 2721.860
819.2250, 2721.110
819.7072, 2718.587
820.1893, 2717.867
820.6714, 2720.222
821.1535, 2721.934
821.6356, 2722.876
822.1177, 2723.363
822.5999, 2723.600
823.0820, 2723.615
823.5641, 2723.371
824.0462, 2722.695
824.5283, 2723.010
825.0104, 2727.111
825.4926, 2732.172
825.9747, 2734.775
826.4568, 2733.694
826.9389, 2732.111
827.4210, 2729.992
827.9031, 2728.173
828.3853, 2727.305
828.8674, 2727.664
829.3495, 2727.259
829.8316, 2725.630
830.3137, 2725.240
830.7958, 2730.456
831.2780, 2738.224
831.7601, 2741.488
832.2422, 2739.343
832.7243, 2736.592
833.2064, 2734.615
833.6885, 2734.439
834.1707, 2737.639
834.6528, 2745.947
835.1349, 2751.081
835.6170, 2752.959
836.0991, 2751.844
836.5812, 2746.066
837.0634, 2736.234
837.5455, 2732.102
838.0276, 2733.716
838.5097, 2737.507
838.9918, 2742.912
839.4739, 2747.633
839.9561, 2748.391
840.4382, 2745.051
840.9203, 2742.410
841.4024, 2741.773
841.8845, 2742.516
842.3666, 2744.862
842.8488, 2748.748
843.3309, 2750.315
843.8130, 2749.091
844.2951, 2748.313
844.7772, 2750.864
845.2593, 2754.971
845.7415, 2756.267
846.2236, 2755.189
846.7057, 2753.932
847.1878, 2754.269
847.6699, 2754.300
848.1520, 2752.866
848.6342, 2750.050
849.1163, 2746.730
849.5984, 2741.187
850.0805, 2738.895
850.5626, 2742.876
851.0447, 2750.694
851.5269, 2753.834
852.0090, 2752.852
852.4911, 2752.467
852.9732, 2755.722
853.4553, 2759.830
853.9374, 2762.948
854.4196, 2764.909
854.9017, 2765.323
855.3839, 2761.333
855.8660, 2759.286
856.3481, 2761.957
856.8302, 2766.500
857.3123, 2765.946
857.7944, 2759.810
858.2766, 2755.266
858.7587, 2754.584
859.2408, 2755.259
859.7229, 2753.272
860.2050, 2749.990
860.6871, 2748.279
861.1693, 2750.119
861.6514, 2752.114
862.1335, 2752.205
862.6156, 2752.183
863.0977, 2754.688
863.5798, 2761.564
864.0620, 2765.432
864.5441, 2765.026
865.0262, 2763.119
865.5083, 2763.322
865.9904, 2764.930
866.4725, 2765.810
866.9547, 2765.524
867.4368, 2764.730
867.9189, 2762.153
868.4010, 2760.294
868.8831, 2761.901
869.3652, 2769.925
869.8474, 2774.665
870.3295, 2775.215
870.8116, 2773.903
871.2937, 2771.808
871.7758, 2769.144
872.2579, 2768.535
872.7401, 2770.077
873.2222, 2772.129
873.7043, 2774.471
874.1864, 2775.975
874.6685, 2774.650
875.1506, 2770.327
875.6328, 2767.992
876.1149, 2769.880
876.5970, 2773.049
877.0791, 2777.282
877.5612, 2782.185
878.0433, 2782.960
878.5255, 2779.440
879.0076, 2776.210
879.4897, 2775.876
879.9718, 2777.452
880.4539, 2780.560
880.9360, 2784.570
881.4182, 2787.292
881.9003, 2786.417
882.3824, 2785.656
882.8645, 2787.081
883.3466, 2789.411
883.8287, 2788.910
884.3109, 2784.839
884.7930, 2781.996
885.2751, 2781.888
885.7572, 2783.091
886.2393, 2783.260
886.7214, 2782.835
887.2036, 2782.777
887.6857, 2782.260
888.1678, 2784.077
888.6499, 2792.626
889.1320, 2802.802
889.6141, 2807.868
890.0963, 2806.276
890.5784, 2803.041
891.0605, 2797.509
891.5426, 2792.789
892.0247, 2793.642
892.5068, 2798.148
892.9890, 2800.252
893.4711, 2798.865
893.9532, 2797.567
894.4353, 2799.390
894.9174, 2801.920
895.3995, 2803.055
895.8817, 2802.085
896.3638, 2801.899
896.8459, 2802.323
897.3280, 2803.859
897.8101, 2807.760
898.2922, 2813.215
898.7744, 2815.046
899.2565, 2813.548
899.7386, 2812.226
900.2207, 2813.243
900.7028, 2815.301
901.1849, 2818.010
901.6671, 2821.080
902.1492, 2822.992
902.6313, 2823.128
903.1134, 2822.938
903.5955, 2822.817
904.0776, 2822.642
904.5598, 2822.001
905.0419, 2820.950
905.5240, 2819.636
906.0062, 2817.628
906.4883, 2816.264
906.9704, 2816.260
907.4525, 2817.864
907.9346, 2821.479
908.4167, 2830.552
908.8989, 2836.966
909.3810, 2840.009
909.8631, 2840.439
910.3452, 2837.483
910.8273, 2831.636
911.3094, 2832.302
911.7916, 2841.558
912.2737, 2849.300
912.7558, 2842.841
913.2379, 2831.720
913.7200, 2826.493
914.2021, 2829.784
914.6843, 2833.104
915.1664, 2835.837
915.6485, 2837.443
916.1306, 2837.194
916.6127, 2835.272
917.0948, 2835.063
917.5770, 2836.563
918.0591, 2837.427
918.5412, 2834.887
919.0233, 2831.878
919.5054, 2832.368
919.9875, 2835.359
920.4697, 2836.426
920.9518, 2831.601
921.4339, 2828.062
921.9160, 2827.660
922.3981, 2829.308
922.8802, 2830.611
923.3624, 2831.531
923.8445, 2831.516
924.3266, 2830.031
924.8087, 2828.458
925.2908, 2829.170
925.7729, 2830.493
926.2551, 2829.747
926.7372, 2823.306
927.2193, 2820.356
927.7014, 2824.379
928.1835, 2829.451
928.6656, 2829.527
929.1478, 2824.654
929.6299, 2822.632
930.1120, 2823.982
930.5941, 2826.291
931.0762, 2828.418
931.5583, 2829.842
932.0405, 2829.269
932.5226, 2826.649
933.0047, 2825.940
933.4868, 2830.918
933.9689, 2834.141
934.4510, 2831.403
934.9332, 2824.840
935.4153, 2827.225
935.8974, 2838.045
936.3795, 2846.497
936.8616, 2845.995
937.3438, 2842.649
937.8259, 2842.216
938.3080, 2843.599
938.7901, 2844.645
939.2722, 2844.712
939.7543, 2844.398
940.2365, 2843.313
940.7186, 2842.424
941.2007, 2844.030
941.6828, 2847.716
942.1649, 2847.615
942.6470, 2842.460
943.1292, 2837.510
943.6113, 2838.070
944.0934, 2840.926
944.5755, 2843.149
945.0576, 2844.352
945.5397, 2844.781
946.0219, 2844.798
946.5040, 2843.568
946.9861, 2839.547
947.4682, 2833.783
947.9503, 2834.054
948.4324, 2839.597
948.9146, 2843.913
949.3967, 2842.410
949.8788, 2839.001
950.3609, 2834.767
950.8430, 2830.885
951.3251, 2831.203
951.8073, 2839.956
952.2894, 2844.838
952.7715, 2842.911
953.2536, 2838.194
953.7357, 2837.149
954.2179, 2839.084
954.7000, 2841.446
955.1821, 2843.886
955.6642, 2845.724
956.1464, 2846.096
956.6285, 2845.895
957.1106, 2845.777
957.5927, 2845.606
958.0748, 2846.676
958.5569, 2849.728
959.0391, 2851.929
959.5212, 2850.401
960.0033, 2846.714
960.4854, 2845.821
960.9675, 2847.272
961.4496, 2848.579
961.9318, 2848.584
962.4139, 2847.920
962.8960, 2845.930
963.3781, 2843.632
963.8602, 2843.946
964.3423, 2847.688
964.8245, 2850.904
965.3066, 2853.111
965.7887, 2853.879
966.2708, 2850.848
966.7529, 2846.401
967.2350, 2845.680
967.7172, 2851.216
968.1993, 2855.567
968.6814, 2854.097
969.1635, 2852.004
969.6456, 2853.314
970.1277, 2858.470
970.6099, 2860.170
971.0920, 2858.092
971.5741, 2856.283
972.0562, 2857.770
972.5383, 2860.908
973.0204, 2864.433
973.5026, 2867.895
973.9847, 2869.864
974.4668, 2867.659
974.9489, 2866.802
975.4310, 2869.296
975.9131, 2873.146
976.3953, 2873.938
976.8774, 2871.947
977.3595, 2870.815
977.8416, 2871.305
978.3237, 2873.146
978.8058, 2878.090
979.2880, 2883.195
979.7701, 2885.199
980.2522, 2882.858
980.7343, 2879.254
981.2164, 2872.767
981.6985, 2868.282
982.1807, 2869.929
982.6628, 2876.015
983.1449, 2879.042
983.6270, 2879.344
984.1091, 2879.138
984.5912, 2879.190
985.0734, 2879.545
985.5555, 2880.326
986.0376, 2881.403
986.5197, 2882.556
987.0018, 2884.095
987.4839, 2884.555
987.9661, 2883.510
988.4482, 2881.971
988.9303, 2881.516
989.4124, 2881.552
989.8945, 2880.947
990.3766, 2879.505
990.8588, 2877.649
991.3409, 2873.739
991.8230, 2871.295
992.3051, 2872.528
992.7872, 2877.296
993.2693, 2882.888
993.7515, 2889.382
994.2336, 2894.117
994.7157, 2894.768
995.1978, 2893.597
995.6799, 2892.847
996.1620, 2892.319
996.6442, 2891.618
997.1263, 2887.598
997.6084, 2888.284
998.0905, 2897.560
998.5726, 2907.575
999.0547, 2906.633
999.5369, 2896.737
1000.019, 2890.480
1000.501, 2889.397
1000.983, 2890.764
1001.465, 2896.647
1001.947, 2901.036
1002.430, 2897.581
1002.912, 2885.936
1003.394, 2879.280
1003.876, 2878.269
1004.358, 2880.428
1004.840, 2886.573
1005.322, 2893.176
1005.804, 2891.860
1006.287, 2885.546
1006.769, 2881.331
1007.251, 2881.875
1007.733, 2884.852
1008.215, 2892.104
1008.697, 2899.646
1009.179, 2904.134
1009.661, 2905.443
1010.143, 2904.037
1010.626, 2899.723
1011.108, 2895.378
1011.590, 2892.458
1012.072, 2891.251
1012.554, 2893.094
1013.036, 2897.442
1013.518, 2899.866
1014.000, 2897.248
1014.483, 2897.303
1014.965, 2903.523
1015.447, 2911.353
1015.929, 2909.780
1016.411, 2901.605
1016.893, 2897.490
1017.375, 2901.215
1017.857, 2905.384
1018.339, 2904.423
1018.822, 2902.621
1019.304, 2904.216
1019.786, 2909.987
1020.268, 2912.642
1020.750, 2911.732
1021.232, 2910.350
1021.714, 2910.376
1022.196, 2911.126
1022.679, 2912.107
1023.161, 2912.944
1023.643, 2912.572
1024.125, 2909.030
1024.607, 2906.380
1025.089, 2905.231
1025.571, 2905.322
1026.053, 2906.687
1026.535, 2909.144
1027.018, 2911.060
1027.500, 2912.210
1027.982, 2913.781
1028.464, 2918.627
1028.946, 2922.751
1029.428, 2922.097
1029.910, 2916.550
1030.392, 2913.203
1030.875, 2912.123
1031.357, 2913.043
1031.839, 2916.609
1032.321, 2920.940
1032.803, 2922.485
1033.285, 2922.226
1033.767, 2922.209
1034.249, 2923.202
1034.731, 2924.207
1035.214, 2925.421
1035.696, 2926.158
1036.178, 2925.791
1036.660, 2924.351
1037.142, 2922.628
1037.624, 2920.717
1038.106, 2919.824
1038.588, 2921.921
1039.071, 2924.341
1039.553, 2924.196
1040.035, 2922.708
1040.517, 2924.398
1040.999, 2931.634
1041.481, 2935.803
1041.963, 2935.096
1042.445, 2932.591
1042.927, 2930.891
1043.410, 2930.792
1043.892, 2934.930
1044.374, 2944.235
1044.856, 2951.166
1045.338, 2950.735
1045.820, 2949.558
1046.302, 2950.938
1046.784, 2953.889
1047.266, 2952.137
1047.749, 2946.245
1048.231, 2943.460
1048.713, 2948.533
1049.195, 2954.436
1049.677, 2955.787
1050.159, 2954.594
1050.641, 2953.434
1051.123, 2952.114
1051.606, 2952.554
1052.088, 2955.401
1052.570, 2957.821
1053.052, 2957.173
1053.534, 2954.845
1054.016, 2952.736
1054.498, 2951.174
1054.980, 2951.273
1055.463, 2955.043
1055.945, 2958.544
1056.427, 2960.746
1056.909, 2962.234
1057.391, 2964.237
1057.873, 2966.531
1058.355, 2966.750
1058.837, 2964.210
1059.319, 2963.179
1059.802, 2968.555
1060.284, 2975.435
1060.766, 2980.345
1061.248, 2983.203
1061.730, 2985.054
1062.212, 2985.622
1062.694, 2986.871
1063.176, 2989.997
1063.658, 2993.330
1064.141, 2993.868
1064.623, 2993.075
1065.105, 2993.519
1065.587, 2996.742
1066.069, 2998.921
1066.551, 2997.898
1067.033, 2998.391
1067.515, 3005.677
1067.998, 3017.609
1068.480, 3021.203
1068.962, 3017.939
1069.444, 3016.140
1069.926, 3023.237
1070.408, 3029.673
1070.890, 3030.454
1071.372, 3027.923
1071.854, 3024.606
1072.337, 3020.059
1072.819, 3020.726
1073.301, 3027.786
1073.783, 3035.339
1074.265, 3038.396
1074.747, 3038.808
1075.229, 3037.698
1075.711, 3035.366
1076.193, 3033.860
1076.676, 3032.992
1077.158, 3033.754
1077.640, 3036.709
1078.122, 3040.833
1078.604, 3044.676
1079.086, 3048.255
1079.568, 3051.834
1080.051, 3055.855
1080.533, 3058.294
1081.015, 3055.740
1081.497, 3054.330
1081.979, 3058.186
1082.461, 3065.966
1082.943, 3068.200
1083.425, 3065.693
1083.907, 3064.236
1084.390, 3067.875
1084.872, 3071.542
1085.354, 3072.274
1085.836, 3070.986
1086.318, 3068.621
1086.800, 3064.272
1087.282, 3063.339
1087.764, 3066.335
1088.246, 3069.084
1088.729, 3067.372
1089.211, 3064.219
1089.693, 3063.317
1090.175, 3064.098
1090.657, 3064.017
1091.139, 3062.373
1091.621, 3060.177
1092.103, 3057.254
1092.586, 3054.489
1093.068, 3053.382
1093.550, 3053.303
1094.032, 3052.873
1094.514, 3051.934
1094.996, 3050.452
1095.478, 3048.477
1095.960, 3045.825
1096.443, 3041.969
1096.925, 3037.701
1097.407, 3035.005
1097.889, 3033.890
1098.371, 3034.999
1098.853, 3039.487
1099.335, 3042.562
1099.817, 3040.125
1100.299, 3035.192
1100.781, 3029.860
1101.264, 3024.110
1101.746, 3021.531
1102.228, 3022.489
1102.710, 3021.326
1103.192, 3013.094
1103.674, 3004.182
1104.156, 3002.462
1104.638, 3005.016
1105.121, 3007.180
1105.603, 3009.019
1106.085, 3008.018
1106.567, 3002.809
1107.049, 2998.760
1107.531, 3002.992
1108.013, 3010.146
1108.495, 3007.071
1108.978, 2996.694
1109.460, 2991.304
1109.942, 3001.565
1110.424, 3008.739
1110.906, 3008.966
1111.388, 3005.653
1111.870, 3002.090
1112.352, 2998.765
1112.834, 2998.725
1113.317, 3002.062
1113.799, 3004.340
1114.281, 3001.673
1114.763, 2998.670
1115.245, 2997.691
1115.727, 2998.023
1116.209, 2998.065
1116.691, 2997.841
1117.173, 2997.009
1117.656, 2995.458
1118.138, 2993.781
1118.620, 2992.558
1119.102, 2991.431
1119.584, 2989.776
1120.066, 2987.653
1120.548, 2986.854
1121.030, 2987.278
1121.513, 2990.315
1121.995, 2998.719
1122.477, 3005.354
1122.959, 2997.616
1123.441, 2984.224
1123.923, 2977.647
1124.405, 2982.798
1124.887, 2988.023
1125.370, 2993.681
1125.852, 2997.872
1126.334, 2998.790
1126.816, 2997.997
1127.298, 2998.823
1127.780, 3000.620
1128.262, 3001.806
1128.744, 3002.500
1129.226, 3001.324
1129.709, 2997.272
1130.191, 2992.898
1130.673, 2989.251
1131.155, 2987.114
1131.637, 2991.795
1132.119, 3001.777
1132.601, 3008.074
1133.083, 3003.145
1133.566, 2997.282
1134.048, 2993.307
1134.530, 2990.799
1135.012, 2989.083
1135.494, 2988.288
1135.976, 2990.383
1136.458, 2995.536
1136.940, 2999.672
1137.422, 2999.710
1137.905, 2998.213
1138.387, 2995.764
1138.869, 2993.157
1139.351, 2992.170
1139.833, 2992.814
1140.315, 2995.575
1140.797, 3000.985
1141.279, 3005.419
1141.761, 3004.464
1142.244, 3002.034
1142.726, 3001.775
1143.208, 3003.657
1143.690, 3003.765
1144.172, 3001.647
1144.654, 3000.105
1145.136, 2999.646
1145.618, 3000.998
1146.101, 3007.512
1146.583, 3014.980
1147.065, 3017.966
1147.547, 3014.521
1148.029, 3011.575
1148.511, 3009.101
1148.993, 3007.635
1149.475, 3007.825
1149.958, 3008.583
1150.440, 3008.288
1150.922, 3007.221
1151.404, 3005.859
1151.886, 3004.208
1152.368, 3002.717
1152.850, 3001.657
1153.332, 3000.333
1153.814, 2997.323
1154.297, 2994.323
1154.779, 2997.060
1155.261, 3003.445
1155.743, 3007.490
1156.225, 3005.360
1156.707, 3002.801
1157.189, 2999.007
1157.671, 2997.312
1158.153, 3003.639
1158.636, 3014.416
1159.118, 3011.987
1159.600, 2999.119
1160.082, 2990.691
1160.564, 2998.649
1161.046, 3005.867
1161.528, 3007.384
1162.010, 3006.342
1162.493, 3005.995
1162.975, 3006.255
1163.457, 3006.268
1163.939, 3006.077
1164.421, 3006.742
1164.903, 3010.306
1165.385, 3013.223
1165.867, 3013.485
1166.349, 3014.536
1166.832, 3012.060
1167.314, 3012.397
1167.796, 3010.686
1168.278, 3006.565
1168.760, 3004.743
1169.242, 3011.693
1169.724, 3018.827
1170.206, 3020.619
1170.688, 3018.697
1171.171, 3016.286
1171.653, 3013.417
1172.135, 3012.566
1172.617, 3014.303
1173.099, 3017.267
1173.581, 3022.700
1174.063, 3026.903
1174.545, 3025.624
1175.028, 3020.362
1175.510, 3018.167
1175.992, 3019.148
1176.474, 3019.973
1176.956, 3019.690
1177.438, 3019.401
1177.920, 3020.714
1178.402, 3022.084
1178.885, 3022.056
1179.367, 3020.606
1179.849, 3018.028
1180.331, 3014.026
1180.813, 3012.308
1181.295, 3014.907
1181.777, 3018.415
1182.259, 3019.281
1182.741, 3019.114
1183.224, 3019.712
1183.706, 3021.317
1184.188, 3022.893
1184.670, 3024.461
1185.152, 3025.996
1185.634, 3027.561
1186.116, 3028.883
1186.598, 3029.334
1187.081, 3029.447
1187.563, 3030.233
1188.045, 3032.500
1188.527, 3031.334
1189.009, 3025.891
1189.491, 3021.923
1189.973, 3023.262
1190.455, 3026.889
1190.938, 3029.838
1191.420, 3032.235
1191.902, 3034.504
1192.384, 3034.268
1192.866, 3037.228
1193.348, 3031.878
1193.830, 3026.457
1194.312, 3023.179
1194.794, 3022.223
1195.276, 3025.661
1195.759, 3031.211
1196.241, 3033.959
1196.723, 3031.148
1197.205, 3030.321
1197.687, 3031.732
1198.169, 3034.286
1198.651, 3038.301
1199.133, 3042.065
1199.616, 3042.437
1200.098, 3040.749
1200.580, 3040.474
1201.062, 3043.123
1201.544, 3044.857
1202.026, 3045.491
1202.508, 3045.191
1202.990, 3043.184
1203.473, 3040.979
1203.955, 3040.505
1204.437, 3041.550
1204.919, 3043.369
1205.401, 3046.802
1205.883, 3048.727
1206.365, 3048.958
1206.847, 3047.538
1207.329, 3043.546
1207.812, 3038.646
1208.294, 3033.541
1208.776, 3029.214
1209.258, 3030.055
1209.740, 3039.763
1210.222, 3045.336
1210.704, 3044.844
1211.186, 3042.367
1211.668, 3039.969
1212.151, 3039.482
1212.633, 3046.340
1213.115, 3044.222
1213.597, 3043.401
1214.079, 3047.788
1214.561, 3041.377
1215.043, 3045.750
1215.525, 3052.415
1216.008, 3053.160
1216.490, 3050.408
1216.972, 3044.727
1217.454, 3037.496
1217.936, 3037.953
1218.418, 3050.093
1218.900, 3056.371
1219.382, 3052.990
1219.865, 3047.185
1220.347, 3045.539
1220.829, 3046.934
1221.311, 3051.626
1221.793, 3058.798
1222.275, 3062.499
1222.757, 3061.869
1223.239, 3060.560
1223.721, 3059.153
1224.203, 3057.927
1224.686, 3057.693
1225.168, 3057.456
1225.650, 3055.292
1226.132, 3056.277
1226.614, 3051.959
1227.096, 3057.247
1227.578, 3061.097
1228.061, 3062.119
1228.543, 3061.400
1229.025, 3057.052
1229.507, 3053.811
1229.989, 3058.456
1230.471, 3069.842
1230.953, 3074.115
1231.435, 3070.454
1231.917, 3066.532
1232.400, 3063.715
1232.882, 3062.927
1233.364, 3067.407
1233.846, 3072.397
1234.328, 3073.655
1234.810, 3071.413
1235.292, 3066.995
1235.774, 3060.195
1236.256, 3058.045
1236.739, 3063.269
1237.221, 3068.309
1237.703, 3065.927
1238.185, 3061.454
1238.667, 3058.124
1239.149, 3056.488
1239.631, 3060.464
1240.113, 3069.682
1240.596, 3075.131
1241.078, 3074.152
1241.560, 3071.429
1242.042, 3069.644
1242.524, 3067.969
1243.006, 3064.994
1243.488, 3061.790
1243.970, 3064.130
1244.453, 3070.983
1244.935, 3073.403
1245.417, 3068.455
1245.899, 3063.734
1246.381, 3063.383
1246.863, 3065.391
1247.345, 3069.465
1247.827, 3074.263
1248.309, 3074.243
1248.792, 3070.693
1249.274, 3068.923
1249.756, 3070.155
1250.238, 3073.634
1250.720, 3084.183
1251.202, 3090.370
1251.684, 3085.540
1252.166, 3075.046
1252.648, 3072.375
1253.131, 3075.662
1253.613, 3079.793
1254.095, 3083.938
1254.577, 3087.009
1255.059, 3089.604
1255.541, 3089.301
1256.023, 3083.915
1256.505, 3076.842
1256.988, 3075.086
1257.470, 3077.098
1257.952, 3080.036
1258.434, 3083.614
1258.916, 3086.304
1259.398, 3087.937
1259.880, 3088.738
1260.362, 3088.478
1260.844, 3088.120
1261.327, 3090.020
1261.809, 3092.517
1262.291, 3092.237
1262.773, 3088.209
1263.255, 3088.908
1263.737, 3096.833
1264.219, 3101.356
1264.701, 3097.965
1265.183, 3092.802
1265.666, 3093.127
1266.148, 3096.372
1266.630, 3099.862
1267.112, 3103.277
1267.594, 3106.669
1268.076, 3110.141
1268.558, 3112.848
1269.040, 3114.693
1269.523, 3115.043
1270.005, 3111.995
1270.487, 3108.185
1270.969, 3106.112
1271.451, 3105.618
1271.933, 3105.728
1272.415, 3106.468
1272.897, 3107.644
1273.380, 3109.500
1273.862, 3110.191
1274.344, 3105.727
1274.826, 3102.427
1275.308, 3105.698
1275.790, 3103.250
1276.272, 3103.287
1276.754, 3106.019
1277.236, 3104.190
1277.719, 3109.246
1278.201, 3113.359
1278.683, 3110.074
1279.165, 3108.032
1279.647, 3111.926
1280.129, 3117.729
1280.611, 3115.752
1281.093, 3108.851
1281.576, 3104.851
1282.058, 3105.089
1282.540, 3105.611
1283.022, 3104.582
1283.504, 3104.951
1283.986, 3107.853
1284.468, 3111.671
1284.950, 3114.297
1285.432, 3115.921
1285.915, 3116.336
1286.397, 3115.607
1286.879, 3116.508
1287.361, 3120.417
1287.843, 3121.718
1288.325, 3118.646
1288.807, 3114.646
1289.289, 3112.239
1289.771, 3112.076
1290.254, 3116.215
1290.736, 3123.749
1291.218, 3128.241
1291.700, 3129.395
1292.182, 3130.300
1292.664, 3131.593
1293.146, 3131.392
1293.628, 3125.825
1294.111, 3120.342
1294.593, 3118.797
1295.075, 3120.133
1295.557, 3122.949
1296.039, 3127.070
1296.521, 3130.985
1297.003, 3134.688
1297.485, 3136.914
1297.968, 3135.247
1298.450, 3132.900
1298.932, 3130.575
1299.414, 3129.106
1299.896, 3131.158
1300.378, 3134.937
1300.860, 3132.952
1301.342, 3125.698
1301.824, 3122.091
##END=



