##NAMES=Gehlenite
##RRUFFID=R061091
##IDEAL CHEMISTRY=Ca_2_Al(SiAl)O_7_
##LOCALITY=Carneal Plug, Glenoe Larne District, County Antrim, Northern Ireland
##OWNER=RRUFF
##SOURCE=Michael Scott
##DESCRIPTION=Yellowish-brown anhedral blebs associated with black magnetite and white wollastonite
##STATUS=The identification of this mineral is confirmed by single-crystal X-ray diffraction and chemical analysis.
##URL=rruff.info/R061091
##MEASURED CHEMISTRY=(Ca_1.64_Na_0.36_)_Σ=2_(Al_0.38_Fe_0.36_Mg_0.26_)_Σ=1_(Si_1.98_Al_0.02_)_Σ=2_O_7_
114.8152, 934.5324
115.2973, 992.8621
115.7794, 1068.767
116.2615, 1167.250
116.7436, 1258.778
117.2257, 1328.496
117.7079, 1382.437
118.1900, 1430.280
118.6721, 1457.224
119.1542, 1489.993
119.6363, 1549.554
120.1184, 1646.586
120.6006, 1759.709
121.0827, 1886.484
121.5648, 2021.387
122.0469, 2139.663
122.5290, 2218.269
123.0111, 2272.672
123.4933, 2323.206
123.9754, 2368.432
124.4575, 2416.449
124.9396, 2449.865
125.4217, 2479.453
125.9038, 2508.312
126.3860, 2506.410
126.8681, 2485.789
127.3502, 2477.877
127.8323, 2512.531
128.3144, 2566.490
128.7965, 2586.493
129.2787, 2565.487
129.7608, 2527.380
130.2429, 2502.081
130.7250, 2488.078
131.2071, 2474.051
131.6892, 2447.875
132.1714, 2412.369
132.6535, 2390.406
133.1356, 2386.755
133.6177, 2395.344
134.0998, 2403.036
134.5819, 2410.413
135.0640, 2413.086
135.5462, 2401.901
136.0283, 2374.871
136.5104, 2362.289
136.9925, 2376.619
137.4746, 2414.922
137.9567, 2435.976
138.4389, 2439.262
138.9210, 2429.661
139.4031, 2410.078
139.8852, 2375.547
140.3673, 2347.534
140.8494, 2335.219
141.3316, 2343.966
141.8137, 2343.794
142.2958, 2329.984
142.7779, 2310.117
143.2600, 2302.401
143.7421, 2313.849
144.2243, 2326.654
144.7064, 2332.040
145.1885, 2325.323
145.6706, 2320.089
146.1527, 2317.982
146.6348, 2318.246
147.1170, 2315.556
147.5991, 2308.760
148.0812, 2299.665
148.5633, 2289.347
149.0454, 2270.886
149.5275, 2258.802
150.0097, 2258.651
150.4918, 2272.934
150.9739, 2277.845
151.4560, 2260.427
151.9381, 2238.357
152.4202, 2229.605
152.9024, 2251.241
153.3845, 2271.668
153.8666, 2283.441
154.3487, 2285.012
154.8308, 2280.374
155.3129, 2266.158
155.7950, 2246.557
156.2772, 2229.054
156.7593, 2210.417
157.2414, 2197.746
157.7235, 2195.267
158.2056, 2212.129
158.6877, 2226.085
159.1699, 2228.466
159.6520, 2222.656
160.1341, 2220.074
160.6162, 2228.508
161.0983, 2239.480
161.5804, 2246.972
162.0626, 2251.054
162.5447, 2249.804
163.0268, 2239.497
163.5089, 2220.983
163.9910, 2204.424
164.4731, 2197.128
164.9553, 2193.476
165.4374, 2187.279
165.9195, 2168.307
166.4016, 2151.728
166.8837, 2149.484
167.3658, 2163.296
167.8480, 2177.012
168.3301, 2177.708
168.8122, 2171.418
169.2943, 2168.832
169.7764, 2177.652
170.2585, 2191.159
170.7407, 2204.836
171.2228, 2219.979
171.7049, 2229.201
172.1870, 2222.418
172.6691, 2203.742
173.1512, 2185.753
173.6334, 2171.981
174.1155, 2164.115
174.5976, 2166.557
175.0797, 2185.530
175.5618, 2205.732
176.0439, 2205.824
176.5260, 2189.083
177.0082, 2176.497
177.4903, 2191.739
177.9724, 2221.822
178.4545, 2238.147
178.9366, 2226.521
179.4187, 2202.966
179.9009, 2190.963
180.3830, 2190.313
180.8651, 2195.592
181.3472, 2205.695
181.8293, 2218.660
182.3114, 2227.610
182.7936, 2228.596
183.2757, 2224.139
183.7578, 2219.643
184.2399, 2215.075
184.7220, 2210.786
185.2041, 2207.498
185.6863, 2205.033
186.1684, 2202.474
186.6505, 2198.032
187.1326, 2192.897
187.6147, 2192.444
188.0968, 2198.018
188.5790, 2204.909
189.0611, 2206.317
189.5432, 2202.328
190.0253, 2195.899
190.5074, 2185.852
190.9895, 2173.456
191.4717, 2168.054
191.9538, 2171.938
192.4359, 2180.921
192.9180, 2186.173
193.4001, 2187.389
193.8822, 2188.716
194.3644, 2193.516
194.8465, 2201.658
195.3286, 2208.261
195.8107, 2210.927
196.2928, 2212.444
196.7749, 2224.284
197.2570, 2248.677
197.7392, 2272.038
198.2213, 2278.103
198.7034, 2264.743
199.1855, 2263.558
199.6676, 2286.114
200.1497, 2326.478
200.6319, 2349.153
201.1140, 2350.635
201.5961, 2344.532
202.0782, 2343.960
202.5603, 2349.302
203.0424, 2358.309
203.5246, 2370.594
204.0067, 2386.208
204.4888, 2405.383
204.9709, 2430.354
205.4530, 2455.161
205.9352, 2470.618
206.4173, 2474.002
206.8994, 2478.415
207.3815, 2487.596
207.8636, 2501.636
208.3457, 2520.230
208.8279, 2545.071
209.3100, 2572.489
209.7921, 2595.434
210.2742, 2611.525
210.7563, 2629.634
211.2384, 2654.799
211.7206, 2690.604
212.2027, 2717.377
212.6848, 2731.885
213.1669, 2739.347
213.6490, 2752.157
214.1311, 2773.181
214.6133, 2793.394
215.0954, 2807.541
215.5775, 2812.328
216.0596, 2821.118
216.5417, 2835.483
217.0238, 2853.893
217.5059, 2872.534
217.9881, 2893.070
218.4702, 2911.114
218.9523, 2924.233
219.4344, 2931.376
219.9165, 2936.265
220.3986, 2938.968
220.8808, 2939.703
221.3629, 2938.682
221.8450, 2932.620
222.3271, 2929.556
222.8092, 2937.819
223.2913, 2969.255
223.7735, 2983.961
224.2556, 2971.565
224.7377, 2935.025
225.2198, 2908.615
225.7019, 2892.723
226.1840, 2886.063
226.6662, 2889.197
227.1483, 2909.444
227.6304, 2924.739
228.1125, 2933.229
228.5946, 2934.827
229.0767, 2923.438
229.5589, 2890.892
230.0410, 2853.787
230.5231, 2827.769
231.0052, 2817.441
231.4873, 2810.415
231.9694, 2806.760
232.4516, 2807.504
232.9337, 2796.860
233.4158, 2766.896
233.8979, 2732.646
234.3800, 2712.722
234.8621, 2717.156
235.3443, 2718.414
235.8264, 2709.250
236.3085, 2687.922
236.7906, 2668.133
237.2727, 2649.349
237.7548, 2632.553
238.2369, 2618.587
238.7191, 2606.425
239.2012, 2598.962
239.6833, 2598.860
240.1654, 2609.247
240.6475, 2612.218
241.1296, 2606.405
241.6118, 2593.760
242.0939, 2576.261
242.5760, 2548.230
243.0581, 2524.374
243.5402, 2509.853
244.0223, 2507.189
244.5045, 2505.750
244.9866, 2508.042
245.4687, 2510.360
245.9508, 2505.169
246.4329, 2487.853
246.9150, 2470.790
247.3972, 2459.033
247.8793, 2455.858
248.3614, 2448.613
248.8435, 2435.047
249.3256, 2418.424
249.8077, 2406.299
250.2899, 2401.846
250.7720, 2396.480
251.2541, 2384.821
251.7362, 2359.505
252.2183, 2348.754
252.7004, 2360.185
253.1826, 2383.149
253.6647, 2391.576
254.1468, 2377.838
254.6289, 2361.884
255.1110, 2352.890
255.5931, 2355.085
256.0753, 2352.740
256.5574, 2342.720
257.0395, 2329.133
257.5216, 2324.278
258.0037, 2333.581
258.4858, 2341.944
258.9680, 2340.285
259.4501, 2321.690
259.9322, 2314.207
260.4143, 2324.237
260.8964, 2344.246
261.3785, 2350.786
261.8607, 2339.117
262.3428, 2323.481
262.8249, 2311.261
263.3070, 2304.129
263.7891, 2294.334
264.2712, 2278.292
264.7534, 2260.498
265.2355, 2257.345
265.7176, 2274.472
266.1997, 2293.681
266.6818, 2305.143
267.1639, 2307.284
267.6461, 2306.722
268.1282, 2301.904
268.6103, 2295.474
269.0924, 2297.242
269.5745, 2311.079
270.0566, 2323.148
270.5387, 2323.459
271.0208, 2308.722
271.5030, 2297.995
271.9851, 2291.524
272.4672, 2290.745
272.9493, 2303.292
273.4314, 2333.782
273.9135, 2362.314
274.3957, 2374.779
274.8778, 2369.150
275.3599, 2362.077
275.8420, 2352.852
276.3241, 2344.721
276.8062, 2350.881
277.2884, 2375.700
277.7705, 2396.272
278.2526, 2391.752
278.7347, 2359.946
279.2168, 2343.933
279.6989, 2350.778
280.1811, 2373.773
280.6632, 2398.527
281.1453, 2426.036
281.6274, 2449.246
282.1095, 2461.778
282.5916, 2463.787
283.0738, 2465.462
283.5559, 2466.246
284.0380, 2469.256
284.5201, 2483.367
285.0022, 2509.268
285.4843, 2537.338
285.9665, 2560.289
286.4486, 2578.781
286.9307, 2601.331
287.4128, 2630.419
287.8949, 2661.550
288.3770, 2684.097
288.8592, 2698.157
289.3413, 2710.881
289.8234, 2729.304
290.3055, 2751.429
290.7876, 2764.600
291.2697, 2764.223
291.7519, 2760.201
292.2340, 2767.538
292.7161, 2786.231
293.1982, 2815.405
293.6803, 2864.591
294.1624, 2925.456
294.6446, 2969.044
295.1267, 2989.331
295.6088, 2997.824
296.0909, 3010.107
296.5730, 3025.337
297.0551, 3039.549
297.5373, 3048.473
298.0194, 3054.678
298.5015, 3064.506
298.9836, 3080.136
299.4657, 3095.432
299.9478, 3103.389
300.4300, 3104.562
300.9121, 3100.496
301.3942, 3086.204
301.8763, 3068.815
302.3584, 3061.912
302.8405, 3070.148
303.3227, 3078.051
303.8048, 3068.510
304.2869, 3045.816
304.7690, 3021.645
305.2511, 3001.879
305.7332, 2984.494
306.2154, 2967.990
306.6975, 2953.184
307.1796, 2935.619
307.6617, 2910.361
308.1438, 2879.997
308.6259, 2848.979
309.1081, 2816.422
309.5901, 2786.488
310.0723, 2763.674
310.5544, 2749.807
311.0365, 2736.329
311.5186, 2719.853
312.0007, 2699.733
312.4828, 2675.095
312.9650, 2642.740
313.4471, 2607.510
313.9292, 2572.235
314.4113, 2537.022
314.8934, 2502.422
315.3755, 2468.551
315.8577, 2435.166
316.3398, 2402.963
316.8219, 2369.502
317.3040, 2339.053
317.7861, 2315.966
318.2682, 2301.500
318.7504, 2282.564
319.2325, 2246.674
319.7146, 2206.773
320.1967, 2177.325
320.6788, 2172.233
321.1609, 2167.942
321.6431, 2139.118
322.1252, 2066.161
322.6073, 2075.053
323.0894, 2075.798
323.5715, 2068.831
324.0536, 2031.062
324.5358, 2033.066
325.0179, 2019.132
325.5000, 2004.545
325.9821, 2012.150
326.4642, 1978.861
326.9464, 1986.111
327.4285, 1977.181
327.9106, 1975.657
328.3927, 1958.094
328.8748, 1945.486
329.3569, 1948.921
329.8391, 1943.470
330.3212, 1924.061
330.8033, 1923.008
331.2854, 1889.159
331.7675, 1884.089
332.2496, 1891.435
332.7318, 1872.831
333.2139, 1872.071
333.6960, 1864.515
334.1781, 1826.078
334.6602, 1841.348
335.1423, 1833.391
335.6245, 1801.583
336.1066, 1815.013
336.5887, 1786.494
337.0708, 1772.949
337.5529, 1770.672
338.0350, 1756.648
338.5172, 1761.142
338.9993, 1747.797
339.4814, 1732.857
339.9635, 1724.875
340.4456, 1697.179
340.9277, 1706.054
341.4099, 1689.946
341.8920, 1686.258
342.3741, 1685.385
342.8562, 1662.960
343.3383, 1663.351
343.8204, 1628.360
344.3026, 1622.972
344.7847, 1614.399
345.2668, 1624.748
345.7489, 1589.930
346.2310, 1583.722
346.7131, 1589.696
347.1953, 1578.622
347.6774, 1574.677
348.1595, 1549.635
348.6416, 1544.412
349.1237, 1533.726
349.6058, 1541.918
350.0880, 1535.205
350.5700, 1510.522
351.0522, 1485.912
351.5343, 1495.462
352.0164, 1472.637
352.4985, 1467.277
352.9806, 1443.879
353.4627, 1436.056
353.9449, 1427.984
354.4270, 1427.899
354.9091, 1403.603
355.3912, 1410.712
355.8733, 1399.670
356.3554, 1393.974
356.8376, 1387.682
357.3197, 1357.034
357.8018, 1346.353
358.2839, 1364.245
358.7660, 1338.563
359.2481, 1321.675
359.7303, 1331.568
360.2124, 1336.820
360.6945, 1338.643
361.1766, 1330.567
361.6587, 1319.280
362.1408, 1308.453
362.6230, 1297.541
363.1051, 1289.556
363.5872, 1287.511
364.0693, 1288.724
364.5514, 1288.404
365.0335, 1283.805
365.5157, 1278.995
365.9978, 1276.048
366.4799, 1276.509
366.9620, 1273.856
367.4441, 1261.435
367.9262, 1247.656
368.4084, 1242.996
368.8905, 1258.364
369.3726, 1270.531
369.8547, 1274.002
370.3368, 1267.897
370.8189, 1264.273
371.3011, 1265.716
371.7832, 1267.419
372.2653, 1265.468
372.7474, 1260.226
373.2295, 1250.095
373.7116, 1231.886
374.1938, 1207.736
374.6759, 1193.980
375.1580, 1193.595
375.6401, 1197.650
376.1222, 1199.885
376.6043, 1199.612
377.0865, 1202.636
377.5686, 1211.948
378.0507, 1222.777
378.5328, 1219.995
379.0149, 1201.723
379.4970, 1185.515
379.9792, 1184.841
380.4613, 1197.687
380.9434, 1203.189
381.4255, 1198.955
381.9076, 1190.932
382.3897, 1185.699
382.8719, 1183.489
383.3540, 1186.324
383.8361, 1202.109
384.3182, 1222.517
384.8003, 1228.253
385.2824, 1218.304
385.7646, 1201.637
386.2467, 1180.395
386.7288, 1158.713
387.2109, 1145.503
387.6930, 1151.361
388.1751, 1161.930
388.6573, 1160.812
389.1394, 1149.427
389.6215, 1141.090
390.1036, 1147.531
390.5857, 1160.119
391.0678, 1170.019
391.5499, 1174.260
392.0320, 1175.947
392.5142, 1177.369
392.9963, 1177.674
393.4784, 1174.160
393.9605, 1158.426
394.4426, 1143.722
394.9247, 1138.297
395.4069, 1147.206
395.8890, 1156.934
396.3711, 1167.501
396.8532, 1176.541
397.3353, 1179.916
397.8174, 1172.356
398.2996, 1163.565
398.7817, 1156.710
399.2638, 1152.907
399.7459, 1146.114
400.2280, 1127.978
400.7101, 1112.062
401.1923, 1113.294
401.6744, 1145.735
402.1565, 1170.357
402.6386, 1179.379
403.1207, 1173.954
403.6028, 1165.954
404.0850, 1151.539
404.5671, 1141.578
405.0492, 1147.853
405.5313, 1175.383
406.0134, 1188.414
406.4955, 1177.725
406.9777, 1155.112
407.4598, 1152.428
407.9419, 1171.936
408.4240, 1189.873
408.9061, 1189.510
409.3882, 1174.461
409.8704, 1167.019
410.3525, 1169.385
410.8346, 1175.163
411.3167, 1176.069
411.7988, 1173.113
412.2809, 1170.965
412.7631, 1171.383
413.2452, 1173.925
413.7273, 1179.754
414.2094, 1188.803
414.6915, 1194.751
415.1736, 1190.647
415.6558, 1180.585
416.1379, 1170.664
416.6200, 1161.201
417.1021, 1154.064
417.5842, 1149.747
418.0663, 1148.557
418.5485, 1151.686
419.0306, 1163.749
419.5127, 1177.712
419.9948, 1188.950
420.4769, 1196.009
420.9590, 1201.134
421.4412, 1203.233
421.9233, 1204.012
422.4054, 1206.551
422.8875, 1211.403
423.3696, 1218.060
423.8517, 1227.665
424.3339, 1241.670
424.8160, 1250.725
425.2981, 1253.070
425.7802, 1251.464
426.2623, 1247.249
426.7444, 1232.729
427.2266, 1229.760
427.7087, 1246.488
428.1908, 1278.464
428.6729, 1298.605
429.1550, 1303.075
429.6371, 1304.309
430.1193, 1308.453
430.6014, 1315.033
431.0835, 1330.725
431.5656, 1360.191
432.0477, 1392.360
432.5298, 1401.438
433.0119, 1387.167
433.4940, 1380.795
433.9762, 1403.283
434.4583, 1446.081
434.9404, 1479.516
435.4225, 1503.337
435.9046, 1518.859
436.3867, 1519.980
436.8689, 1513.458
437.3510, 1516.177
437.8331, 1538.989
438.3152, 1568.150
438.7973, 1588.383
439.2794, 1601.254
439.7616, 1615.253
440.2437, 1639.472
440.7258, 1665.001
441.2079, 1681.686
441.6900, 1681.558
442.1721, 1687.185
442.6543, 1715.876
443.1364, 1756.740
443.6185, 1790.188
444.1006, 1808.438
444.5827, 1819.351
445.0648, 1822.276
445.5470, 1814.646
446.0291, 1817.005
446.5112, 1840.296
446.9933, 1869.806
447.4754, 1893.385
447.9576, 1907.648
448.4397, 1920.781
448.9218, 1933.474
449.4039, 1945.680
449.8860, 1957.014
450.3681, 1968.079
450.8503, 1976.995
451.3324, 1981.430
451.8145, 1979.803
452.2966, 1983.877
452.7787, 1996.002
453.2608, 2010.182
453.7430, 2015.503
454.2251, 2011.744
454.7072, 2011.328
455.1893, 2024.040
455.6714, 2042.943
456.1535, 2042.329
456.6357, 2021.812
457.1178, 2000.490
457.5999, 1995.805
458.0820, 2002.881
458.5641, 2012.282
459.0462, 2024.630
459.5284, 2033.782
460.0105, 2030.837
460.4926, 2019.201
460.9747, 2008.667
461.4568, 2001.363
461.9389, 1999.010
462.4211, 2004.709
462.9032, 2020.441
463.3853, 2034.376
463.8674, 2038.737
464.3495, 2039.792
464.8316, 2044.620
465.3138, 2058.115
465.7959, 2071.966
466.2780, 2086.080
466.7601, 2099.927
467.2422, 2107.468
467.7243, 2099.583
468.2065, 2093.767
468.6886, 2098.748
469.1707, 2117.874
469.6528, 2141.268
470.1349, 2172.610
470.6170, 2205.356
471.0992, 2227.611
471.5813, 2238.358
472.0634, 2242.365
472.5455, 2237.884
473.0276, 2226.996
473.5097, 2226.711
473.9918, 2237.988
474.4739, 2254.051
474.9561, 2268.524
475.4382, 2282.292
475.9203, 2300.352
476.4024, 2326.790
476.8845, 2352.480
477.3666, 2362.317
477.8488, 2359.528
478.3309, 2356.685
478.8130, 2365.455
479.2951, 2375.317
479.7772, 2373.090
480.2593, 2356.456
480.7415, 2341.659
481.2236, 2340.681
481.7057, 2345.781
482.1878, 2348.150
482.6699, 2344.025
483.1520, 2337.919
483.6342, 2333.840
484.1163, 2330.097
484.5984, 2317.552
485.0805, 2285.490
485.5626, 2252.143
486.0447, 2224.610
486.5269, 2202.101
487.0090, 2187.796
487.4911, 2185.331
487.9732, 2188.607
488.4553, 2190.723
488.9374, 2194.196
489.4196, 2188.170
489.9017, 2165.696
490.3838, 2131.134
490.8659, 2109.392
491.3480, 2101.845
491.8301, 2099.822
492.3123, 2099.334
492.7944, 2099.469
493.2765, 2095.331
493.7586, 2086.219
494.2407, 2073.082
494.7228, 2054.143
495.2050, 2031.763
495.6871, 2013.279
496.1692, 2005.205
496.6513, 2000.649
497.1334, 1991.871
497.6155, 1979.165
498.0977, 1968.194
498.5798, 1960.991
499.0619, 1957.792
499.5440, 1959.394
500.0261, 1969.679
500.5082, 1978.729
500.9904, 1984.372
501.4725, 1986.707
501.9546, 1986.029
502.4367, 1977.701
502.9188, 1970.908
503.4009, 1969.499
503.8831, 1974.567
504.3652, 1973.796
504.8473, 1963.957
505.3294, 1952.250
505.8115, 1944.548
506.2936, 1941.338
506.7758, 1940.112
507.2579, 1940.332
507.7400, 1942.712
508.2221, 1951.091
508.7042, 1965.776
509.1863, 1976.759
509.6685, 1978.647
510.1506, 1972.945
510.6327, 1960.753
511.1148, 1941.499
511.5969, 1927.257
512.0790, 1934.642
512.5612, 1953.540
513.0433, 1966.102
513.5254, 1964.264
514.0075, 1959.222
514.4896, 1956.938
514.9717, 1957.757
515.4539, 1962.554
515.9360, 1983.089
516.4181, 1998.442
516.9002, 1994.646
517.3823, 1966.376
517.8644, 1943.570
518.3466, 1930.383
518.8287, 1925.195
519.3108, 1926.911
519.7929, 1942.911
520.2750, 1954.019
520.7571, 1958.306
521.2393, 1956.623
521.7214, 1950.153
522.2035, 1935.958
522.6856, 1925.402
523.1677, 1926.099
523.6498, 1937.176
524.1320, 1940.466
524.6141, 1935.101
525.0962, 1925.868
525.5783, 1917.316
526.0604, 1908.970
526.5425, 1897.872
527.0247, 1880.400
527.5068, 1865.489
527.9889, 1869.114
528.4710, 1885.679
528.9531, 1897.254
529.4352, 1890.003
529.9174, 1876.919
530.3995, 1868.255
530.8816, 1865.384
531.3637, 1860.698
531.8458, 1846.421
532.3279, 1831.596
532.8101, 1824.098
533.2922, 1838.121
533.7743, 1843.838
534.2564, 1829.129
534.7385, 1804.760
535.2206, 1797.295
535.7027, 1818.869
536.1848, 1837.058
536.6669, 1840.273
537.1490, 1828.161
537.6312, 1817.223
538.1133, 1807.226
538.5954, 1799.278
539.0775, 1795.650
539.5596, 1795.843
540.0417, 1793.861
540.5239, 1788.114
541.0060, 1781.277
541.4881, 1777.577
541.9702, 1776.308
542.4523, 1774.849
542.9344, 1772.825
543.4166, 1769.370
543.8987, 1762.215
544.3808, 1751.571
544.8629, 1742.945
545.3450, 1742.538
545.8271, 1743.485
546.3093, 1739.728
546.7914, 1725.637
547.2735, 1714.909
547.7556, 1713.503
548.2377, 1716.606
548.7198, 1715.612
549.2020, 1705.022
549.6841, 1697.831
550.1662, 1698.861
550.6483, 1706.938
551.1304, 1707.991
551.6125, 1700.973
552.0947, 1689.840
552.5768, 1675.215
553.0589, 1657.262
553.5410, 1644.442
554.0231, 1637.604
554.5052, 1634.806
554.9874, 1636.817
555.4695, 1641.456
555.9516, 1640.561
556.4337, 1627.024
556.9158, 1610.771
557.3979, 1600.928
557.8801, 1597.398
558.3622, 1599.876
558.8443, 1616.458
559.3264, 1633.161
559.8085, 1639.115
560.2906, 1631.224
560.7728, 1622.428
561.2549, 1615.260
561.7370, 1609.125
562.2191, 1603.377
562.7012, 1595.588
563.1833, 1591.576
563.6655, 1593.184
564.1476, 1598.542
564.6297, 1603.787
565.1118, 1611.234
565.5939, 1611.123
566.0760, 1594.833
566.5582, 1565.433
567.0403, 1551.029
567.5224, 1552.970
568.0045, 1559.334
568.4866, 1558.757
568.9688, 1554.165
569.4509, 1553.541
569.9330, 1558.796
570.4151, 1567.087
570.8972, 1580.123
571.3793, 1593.879
571.8615, 1600.090
572.3436, 1586.732
572.8257, 1572.705
573.3078, 1569.024
573.7899, 1574.729
574.2720, 1579.012
574.7542, 1573.739
575.2363, 1570.985
575.7184, 1577.847
576.2005, 1599.899
576.6826, 1616.663
577.1647, 1627.139
577.6469, 1633.344
578.1290, 1635.503
578.6111, 1631.680
579.0932, 1635.294
579.5753, 1651.404
580.0574, 1673.976
580.5396, 1689.518
581.0217, 1698.273
581.5038, 1702.321
581.9859, 1699.020
582.4680, 1693.130
582.9501, 1690.615
583.4323, 1691.752
583.9144, 1701.215
584.3965, 1733.265
584.8786, 1770.116
585.3607, 1792.402
585.8428, 1788.160
586.3250, 1783.929
586.8071, 1786.283
587.2892, 1794.581
587.7713, 1807.829
588.2534, 1833.220
588.7355, 1855.025
589.2177, 1869.689
589.6998, 1878.137
590.1819, 1886.615
590.6640, 1893.402
591.1461, 1904.350
591.6282, 1925.193
592.1104, 1955.674
592.5925, 1978.989
593.0746, 1994.202
593.5567, 2006.160
594.0388, 2014.363
594.5209, 2023.107
595.0031, 2046.707
595.4852, 2095.735
595.9673, 2146.353
596.4494, 2172.927
596.9315, 2183.794
597.4136, 2197.754
597.8958, 2222.086
598.3779, 2252.229
598.8600, 2289.262
599.3421, 2332.993
599.8242, 2370.875
600.3063, 2395.614
600.7885, 2419.084
601.2706, 2445.461
601.7527, 2472.671
602.2348, 2510.351
602.7169, 2560.211
603.1990, 2617.462
603.6812, 2677.035
604.1633, 2738.479
604.6454, 2802.190
605.1275, 2869.902
605.6096, 2936.415
606.0917, 2986.090
606.5739, 3023.331
607.0560, 3073.026
607.5381, 3153.564
608.0202, 3250.008
608.5023, 3347.897
608.9844, 3446.499
609.4666, 3543.706
609.9487, 3631.008
610.4308, 3722.398
610.9129, 3829.679
611.3950, 3966.382
611.8771, 4094.634
612.3593, 4202.570
612.8414, 4305.277
613.3235, 4416.379
613.8056, 4533.472
614.2877, 4670.391
614.7698, 4834.927
615.2520, 5017.641
615.7341, 5186.350
616.2162, 5340.386
616.6983, 5493.884
617.1804, 5650.978
617.6625, 5813.237
618.1446, 5986.908
618.6267, 6170.908
619.1088, 6357.464
619.5909, 6538.354
620.0731, 6718.093
620.5552, 6898.899
621.0373, 7081.388
621.5194, 7267.174
622.0015, 7466.325
622.4836, 7666.829
622.9658, 7855.556
623.4479, 8024.890
623.9300, 8188.196
624.4121, 8354.288
624.8942, 8513.457
625.3763, 8640.824
625.8585, 8728.256
626.3406, 8806.630
626.8227, 8890.238
627.3048, 8975.235
627.7869, 9041.558
628.2690, 9090.338
628.7512, 9108.497
629.2333, 9079.000
629.7154, 9014.393
630.1975, 8940.984
630.6796, 8863.336
631.1617, 8766.178
631.6439, 8628.429
632.1260, 8466.603
632.6081, 8302.857
633.0902, 8147.019
633.5723, 7982.858
634.0544, 7803.794
634.5366, 7613.764
635.0187, 7422.860
635.5008, 7218.546
635.9829, 7029.743
636.4650, 6868.577
636.9471, 6731.118
637.4293, 6595.261
637.9114, 6458.125
638.3935, 6339.777
638.8756, 6255.150
639.3577, 6201.467
639.8398, 6163.313
640.3220, 6140.522
640.8041, 6131.779
641.2862, 6135.852
641.7683, 6153.232
642.2504, 6184.922
642.7325, 6233.395
643.2147, 6292.065
643.6968, 6349.171
644.1789, 6416.384
644.6610, 6514.193
645.1431, 6665.731
645.6252, 6827.203
646.1074, 6989.588
646.5895, 7155.307
647.0716, 7327.000
647.5537, 7504.957
648.0358, 7693.876
648.5179, 7898.103
649.0001, 8118.129
649.4822, 8345.604
649.9643, 8583.351
650.4464, 8815.962
650.9285, 9021.824
651.4106, 9217.680
651.8928, 9433.561
652.3749, 9677.731
652.8570, 9918.468
653.3391, 10131.17
653.8212, 10325.16
654.3033, 10510.83
654.7855, 10698.54
655.2676, 10872.94
655.7497, 11021.26
656.2318, 11154.34
656.7139, 11295.36
657.1960, 11466.63
657.6782, 11607.15
658.1603, 11696.40
658.6424, 11743.26
659.1245, 11795.44
659.6066, 11855.30
660.0887, 11898.36
660.5709, 11908.94
661.0530, 11892.36
661.5351, 11860.34
662.0172, 11813.10
662.4993, 11754.50
662.9814, 11695.90
663.4636, 11623.09
663.9457, 11518.07
664.4278, 11371.00
664.9099, 11209.83
665.3920, 11041.97
665.8741, 10864.99
666.3563, 10678.63
666.8384, 10492.23
667.3205, 10278.18
667.8026, 10022.99
668.2847, 9744.483
668.7668, 9478.498
669.2490, 9224.710
669.7311, 8989.700
670.2132, 8792.374
670.6953, 8608.358
671.1774, 8367.289
671.6595, 8078.617
672.1417, 7795.168
672.6238, 7556.722
673.1059, 7340.120
673.5880, 7124.548
674.0701, 6910.210
674.5522, 6698.387
675.0344, 6490.390
675.5165, 6286.325
675.9986, 6088.303
676.4807, 5890.153
676.9628, 5708.422
677.4449, 5550.162
677.9271, 5402.600
678.4092, 5255.674
678.8913, 5108.292
679.3734, 4958.201
679.8555, 4802.075
680.3376, 4649.518
680.8198, 4524.008
681.3019, 4419.495
681.7840, 4316.221
682.2661, 4202.120
682.7482, 4088.247
683.2303, 3977.591
683.7125, 3873.176
684.1946, 3781.163
684.6767, 3721.027
685.1588, 3659.760
685.6409, 3579.703
686.1230, 3478.957
686.6052, 3383.492
687.0873, 3289.728
687.5694, 3206.778
688.0515, 3142.420
688.5336, 3099.499
689.0157, 3046.723
689.4979, 2982.788
689.9800, 2916.217
690.4621, 2855.066
690.9442, 2799.371
691.4263, 2746.229
691.9084, 2695.073
692.3906, 2648.341
692.8727, 2610.413
693.3548, 2577.609
693.8369, 2544.255
694.3190, 2511.740
694.8011, 2475.677
695.2833, 2428.271
695.7654, 2377.255
696.2475, 2341.684
696.7296, 2332.223
697.2117, 2316.955
697.6938, 2285.730
698.1760, 2242.816
698.6581, 2205.878
699.1402, 2174.755
699.6223, 2149.109
700.1044, 2131.824
700.5865, 2118.919
701.0686, 2103.709
701.5507, 2085.970
702.0328, 2065.157
702.5150, 2036.939
702.9971, 2008.121
703.4792, 1983.563
703.9613, 1964.232
704.4434, 1947.600
704.9255, 1939.487
705.4077, 1929.322
705.8898, 1907.679
706.3719, 1865.137
706.8540, 1841.111
707.3361, 1842.689
707.8182, 1851.328
708.3004, 1843.081
708.7825, 1819.134
709.2646, 1787.310
709.7467, 1744.116
710.2288, 1706.176
710.7109, 1699.709
711.1931, 1712.908
711.6752, 1720.911
712.1573, 1706.205
712.6394, 1691.502
713.1215, 1688.733
713.6036, 1694.446
714.0858, 1694.213
714.5679, 1684.165
715.0500, 1672.406
715.5321, 1661.596
716.0142, 1651.157
716.4963, 1635.672
716.9785, 1614.435
717.4606, 1592.101
717.9427, 1568.889
718.4248, 1547.149
718.9069, 1534.887
719.3890, 1532.049
719.8712, 1528.716
720.3533, 1518.050
720.8354, 1503.225
721.3175, 1484.949
721.7996, 1459.987
722.2817, 1446.175
722.7639, 1462.265
723.2460, 1482.178
723.7281, 1484.042
724.2102, 1458.071
724.6923, 1439.741
725.1744, 1433.283
725.6566, 1430.068
726.1387, 1416.818
726.6208, 1394.934
727.1029, 1377.698
727.5850, 1369.006
728.0671, 1363.988
728.5493, 1357.094
729.0314, 1349.558
729.5135, 1343.719
729.9956, 1343.891
730.4777, 1342.407
730.9598, 1334.941
731.4420, 1323.218
731.9241, 1312.646
732.4062, 1301.599
732.8883, 1294.788
733.3704, 1294.944
733.8525, 1300.117
734.3347, 1301.066
734.8168, 1297.607
735.2989, 1291.570
735.7810, 1282.344
736.2631, 1271.658
736.7452, 1263.866
737.2274, 1258.667
737.7095, 1253.521
738.1916, 1246.436
738.6737, 1239.073
739.1558, 1233.746
739.6379, 1231.460
740.1201, 1224.520
740.6022, 1202.768
741.0843, 1183.860
741.5664, 1178.517
742.0485, 1190.711
742.5306, 1199.179
743.0128, 1203.268
743.4949, 1205.615
743.9770, 1211.956
744.4591, 1219.373
744.9412, 1213.995
745.4233, 1191.239
745.9055, 1168.367
746.3876, 1161.837
746.8697, 1163.807
747.3518, 1163.816
747.8339, 1154.733
748.3160, 1149.871
748.7982, 1161.760
749.2803, 1175.879
749.7624, 1169.768
750.2445, 1131.809
750.7266, 1104.477
751.2087, 1096.501
751.6909, 1099.998
752.1730, 1098.786
752.6551, 1093.661
753.1372, 1091.000
753.6193, 1094.953
754.1014, 1100.491
754.5836, 1103.907
755.0657, 1104.333
755.5478, 1099.462
756.0299, 1081.221
756.5120, 1064.816
756.9941, 1056.901
757.4763, 1056.588
757.9584, 1056.144
758.4405, 1056.590
758.9226, 1054.795
759.4047, 1048.498
759.8868, 1038.987
760.3690, 1033.348
760.8511, 1031.597
761.3332, 1030.052
761.8153, 1026.531
762.2974, 1021.651
762.7795, 1014.872
763.2617, 1006.474
763.7438, 1001.555
764.2259, 1004.985
764.7080, 1010.727
765.1901, 1016.282
765.6722, 1022.342
766.1544, 1022.662
766.6365, 1015.520
767.1186, 1005.215
767.6007, 990.8423
768.0828, 972.2191
768.5649, 975.5236
769.0471, 1004.491
769.5292, 1030.242
770.0113, 1018.234
770.4934, 986.6269
770.9755, 964.4036
771.4576, 956.4306
771.9398, 956.1912
772.4219, 968.9970
772.9040, 983.2236
773.3861, 987.5367
773.8682, 970.9652
774.3503, 961.4885
774.8325, 960.9645
775.3146, 965.3060
775.7967, 971.0558
776.2788, 978.2173
776.7609, 982.5303
777.2430, 983.5142
777.7252, 980.8931
778.2073, 968.7651
778.6894, 953.8356
779.1715, 949.4790
779.6536, 967.8361
780.1357, 984.1933
780.6179, 985.5733
781.1000, 978.3254
781.5821, 972.7861
782.0642, 969.0952
782.5463, 968.0753
783.0284, 969.7528
783.5105, 974.1863
783.9926, 983.7898
784.4747, 998.2258
784.9568, 1007.106
785.4390, 1005.703
785.9211, 999.3185
786.4032, 993.3068
786.8853, 988.1082
787.3674, 984.9802
787.8495, 983.4247
788.3317, 985.0339
788.8138, 994.9498
789.2959, 1009.008
789.7780, 1012.418
790.2601, 999.5709
790.7422, 986.5576
791.2244, 975.9430
791.7065, 968.7505
792.1886, 969.7641
792.6707, 978.5413
793.1528, 987.4745
793.6349, 996.2526
794.1171, 1000.595
794.5992, 989.5329
795.0813, 968.2284
795.5634, 955.9177
796.0455, 968.2149
796.5276, 984.0830
797.0098, 996.6313
797.4919, 1005.455
797.9740, 1008.701
798.4561, 1003.713
798.9382, 1000.022
799.4203, 1003.220
799.9025, 1010.679
800.3846, 1009.942
800.8667, 1001.653
801.3488, 994.1266
801.8309, 995.2089
802.3130, 997.9892
802.7952, 994.3074
803.2773, 984.7617
803.7594, 978.4601
804.2415, 978.6511
804.7236, 982.7023
805.2057, 990.7155
805.6879, 1002.602
806.1700, 1010.723
806.6521, 1015.421
807.1342, 1015.110
807.6163, 1001.862
808.0984, 982.9884
808.5806, 988.5356
809.0627, 1016.773
809.5448, 1041.474
810.0269, 1041.125
810.5090, 1032.796
810.9911, 1028.376
811.4733, 1028.923
811.9554, 1034.553
812.4375, 1051.350
812.9196, 1066.703
813.4017, 1075.239
813.8839, 1077.003
814.3660, 1072.331
814.8481, 1059.940
815.3302, 1051.106
815.8123, 1056.903
816.2944, 1071.437
816.7766, 1083.896
817.2587, 1093.751
817.7408, 1103.555
818.2229, 1114.891
818.7050, 1126.469
819.1871, 1138.348
819.6693, 1151.561
820.1514, 1158.044
820.6335, 1152.813
821.1156, 1149.318
821.5977, 1156.666
822.0798, 1174.282
822.5620, 1195.553
823.0441, 1220.645
823.5262, 1238.694
824.0083, 1230.859
824.4904, 1216.177
824.9725, 1219.851
825.4547, 1245.856
825.9368, 1267.056
826.4189, 1267.001
826.9010, 1264.501
827.3831, 1271.722
827.8652, 1291.332
828.3474, 1303.709
828.8295, 1307.010
829.3116, 1309.057
829.7937, 1314.733
830.2758, 1324.086
830.7579, 1337.907
831.2401, 1356.289
831.7222, 1375.853
832.2043, 1393.951
832.6864, 1412.123
833.1685, 1431.643
833.6506, 1452.948
834.1328, 1473.452
834.6149, 1495.700
835.0970, 1513.417
835.5791, 1519.286
836.0612, 1512.432
836.5433, 1525.776
837.0255, 1560.970
837.5076, 1596.472
837.9897, 1611.105
838.4718, 1617.107
838.9539, 1635.108
839.4360, 1666.974
839.9182, 1693.682
840.4003, 1699.594
840.8824, 1703.831
841.3645, 1717.938
841.8466, 1742.605
842.3287, 1772.192
842.8109, 1809.109
843.2930, 1844.622
843.7751, 1872.697
844.2572, 1894.217
844.7393, 1909.810
845.2214, 1919.870
845.7036, 1932.701
846.1857, 1952.333
846.6678, 1978.500
847.1499, 2015.858
847.6320, 2065.482
848.1141, 2100.756
848.5963, 2105.343
849.0784, 2111.290
849.5605, 2134.994
850.0426, 2175.225
850.5247, 2204.546
851.0068, 2222.676
851.4890, 2235.846
851.9711, 2247.722
852.4532, 2257.765
852.9353, 2263.918
853.4174, 2266.846
853.8995, 2272.223
854.3817, 2285.262
854.8638, 2298.889
855.3459, 2311.136
855.8280, 2321.821
856.3101, 2325.858
856.7922, 2321.514
857.2744, 2316.869
857.7565, 2317.989
858.2386, 2321.192
858.7207, 2313.827
859.2028, 2297.486
859.6849, 2281.355
860.1671, 2271.331
860.6492, 2262.999
861.1313, 2254.583
861.6134, 2245.620
862.0955, 2234.305
862.5776, 2220.847
863.0598, 2204.936
863.5419, 2187.811
864.0240, 2167.921
864.5061, 2132.856
864.9882, 2084.588
865.4703, 2048.322
865.9524, 2048.545
866.4345, 2057.248
866.9166, 2041.512
867.3987, 2009.587
867.8809, 1984.006
868.3630, 1977.223
868.8451, 1972.391
869.3272, 1962.749
869.8093, 1952.545
870.2914, 1955.329
870.7736, 1972.994
871.2557, 1987.643
871.7378, 1993.826
872.2199, 1994.416
872.7020, 1989.475
873.1841, 1982.667
873.6663, 1983.097
874.1484, 1998.183
874.6305, 2016.614
875.1126, 2035.706
875.5947, 2055.162
876.0768, 2074.658
876.5590, 2094.341
877.0411, 2113.586
877.5232, 2132.378
878.0053, 2150.676
878.4874, 2165.576
878.9695, 2179.969
879.4517, 2204.467
879.9338, 2245.281
880.4159, 2287.264
880.8980, 2321.418
881.3801, 2350.166
881.8622, 2376.554
882.3444, 2391.391
882.8265, 2420.713
883.3086, 2469.192
883.7907, 2525.409
884.2728, 2579.201
884.7549, 2630.159
885.2371, 2673.323
885.7192, 2706.900
886.2013, 2739.547
886.6834, 2775.982
887.1655, 2816.791
887.6476, 2860.689
888.1298, 2903.947
888.6119, 2965.665
889.0940, 3065.914
889.5761, 3163.376
890.0582, 3227.451
890.5403, 3255.424
891.0225, 3298.004
891.5046, 3355.769
891.9867, 3421.299
892.4688, 3489.232
892.9509, 3559.325
893.4330, 3629.006
893.9152, 3697.889
894.3973, 3775.345
894.8794, 3869.165
895.3615, 3967.220
895.8436, 4065.893
896.3257, 4164.563
896.8079, 4253.816
897.2900, 4330.784
897.7721, 4421.012
898.2542, 4542.692
898.7363, 4683.689
899.2184, 4821.816
899.7006, 4959.730
900.1827, 5099.029
900.6648, 5246.646
901.1469, 5393.416
901.6290, 5524.852
902.1111, 5653.500
902.5933, 5815.642
903.0754, 6020.864
903.5575, 6226.833
904.0396, 6421.438
904.5217, 6611.121
905.0038, 6807.630
905.4860, 7008.120
905.9681, 7208.299
906.4502, 7396.591
906.9323, 7595.080
907.4144, 7824.539
907.8965, 8066.752
908.3787, 8291.477
908.8608, 8485.069
909.3429, 8698.531
909.8250, 8941.580
910.3071, 9192.910
910.7892, 9418.031
911.2714, 9624.042
911.7535, 9839.610
912.2356, 10072.78
912.7177, 10301.13
913.1998, 10506.63
913.6819, 10703.21
914.1641, 10904.30
914.6462, 11120.51
915.1283, 11320.19
915.6104, 11505.27
916.0925, 11665.19
916.5746, 11783.60
917.0568, 11868.80
917.5389, 11958.18
918.0210, 12051.90
918.5031, 12121.04
918.9852, 12144.68
919.4673, 12136.67
919.9495, 12111.45
920.4316, 12068.02
920.9137, 11968.13
921.3958, 11785.32
921.8779, 11600.84
922.3600, 11453.93
922.8422, 11327.10
923.3243, 11168.06
923.8064, 10978.94
924.2885, 10773.68
924.7706, 10569.02
925.2527, 10344.57
925.7349, 10078.17
926.2170, 9779.731
926.6991, 9484.595
927.1812, 9179.984
927.6633, 8901.505
928.1454, 8661.875
928.6276, 8444.714
929.1097, 8225.433
929.5918, 8006.167
930.0739, 7783.826
930.5560, 7557.646
931.0381, 7342.994
931.5203, 7169.176
932.0024, 7008.430
932.4845, 6829.362
932.9666, 6612.057
933.4487, 6408.691
933.9308, 6219.652
934.4130, 6046.344
934.8951, 5890.973
935.3772, 5751.893
935.8593, 5632.614
936.3414, 5533.428
936.8235, 5432.322
937.3057, 5306.847
937.7878, 5179.377
938.2699, 5066.586
938.7520, 4970.899
939.2341, 4881.802
939.7162, 4804.079
940.1984, 4723.042
940.6805, 4628.367
941.1626, 4526.686
941.6447, 4440.264
942.1268, 4367.583
942.6089, 4300.482
943.0911, 4237.086
943.5732, 4175.551
944.0553, 4116.126
944.5374, 4057.404
945.0195, 3995.521
945.5016, 3919.952
945.9838, 3867.638
946.4659, 3851.940
946.9480, 3847.472
947.4301, 3812.056
947.9122, 3753.120
948.3943, 3694.733
948.8764, 3639.952
949.3585, 3595.279
949.8406, 3572.919
950.3228, 3557.352
950.8049, 3532.802
951.2870, 3494.378
951.7691, 3460.415
952.2512, 3431.517
952.7333, 3405.406
953.2155, 3383.825
953.6976, 3363.363
954.1797, 3331.227
954.6618, 3288.425
955.1439, 3249.749
955.6260, 3223.288
956.1082, 3204.377
956.5903, 3198.339
957.0724, 3200.168
957.5545, 3178.402
958.0366, 3124.454
958.5187, 3078.647
959.0009, 3057.219
959.4830, 3047.054
959.9651, 3023.062
960.4472, 2989.998
960.9293, 2958.719
961.4114, 2933.275
961.8936, 2910.453
962.3757, 2893.451
962.8578, 2876.315
963.3399, 2851.322
963.8220, 2816.752
964.3041, 2782.275
964.7863, 2747.826
965.2684, 2715.262
965.7505, 2683.196
966.2326, 2655.167
966.7147, 2640.069
967.1968, 2640.196
967.6790, 2632.189
968.1611, 2601.867
968.6432, 2566.402
969.1253, 2533.304
969.6074, 2502.617
970.0895, 2471.058
970.5717, 2438.311
971.0538, 2409.953
971.5359, 2392.979
972.0180, 2378.759
972.5001, 2353.419
972.9822, 2322.429
973.4644, 2299.829
973.9465, 2301.827
974.4286, 2295.784
974.9107, 2272.491
975.3928, 2242.802
975.8749, 2222.035
976.3571, 2210.194
976.8392, 2211.829
977.3213, 2231.469
977.8034, 2244.708
978.2855, 2219.711
978.7676, 2182.231
979.2498, 2160.367
979.7319, 2163.188
980.2140, 2162.469
980.6961, 2153.677
981.1782, 2148.384
981.6603, 2159.482
982.1425, 2180.522
982.6246, 2175.900
983.1067, 2149.093
983.5888, 2123.770
984.0709, 2112.375
984.5530, 2107.744
985.0352, 2110.670
985.5173, 2117.031
985.9994, 2112.437
986.4815, 2089.787
986.9636, 2078.481
987.4457, 2087.065
987.9279, 2102.396
988.4100, 2103.039
988.8921, 2094.967
989.3742, 2092.199
989.8563, 2100.885
990.3384, 2105.641
990.8206, 2096.829
991.3027, 2084.230
991.7848, 2075.886
992.2669, 2072.792
992.7490, 2064.150
993.2311, 2049.643
993.7133, 2033.552
994.1954, 2016.482
994.6775, 2001.584
995.1596, 1994.004
995.6417, 1992.668
996.1238, 1992.125
996.6060, 1994.531
997.0881, 1991.968
997.5702, 1979.197
998.0523, 1963.465
998.5344, 1963.278
999.0165, 1976.440
999.4987, 1984.735
999.9808, 1984.032
1000.463, 1975.841
1000.945, 1952.720
1001.427, 1927.665
1001.909, 1915.884
1002.391, 1927.699
1002.873, 1926.818
1003.356, 1908.790
1003.838, 1888.582
1004.320, 1876.951
1004.802, 1871.339
1005.284, 1862.128
1005.766, 1850.459
1006.248, 1844.193
1006.730, 1861.144
1007.213, 1870.144
1007.695, 1845.596
1008.177, 1804.082
1008.659, 1788.389
1009.141, 1802.779
1009.623, 1812.707
1010.105, 1810.195
1010.587, 1802.415
1011.069, 1797.849
1011.552, 1794.325
1012.034, 1788.042
1012.516, 1776.585
1012.998, 1767.794
1013.480, 1765.302
1013.962, 1762.688
1014.444, 1756.290
1014.926, 1746.200
1015.409, 1732.618
1015.891, 1715.787
1016.373, 1700.171
1016.855, 1688.251
1017.337, 1678.581
1017.819, 1670.332
1018.301, 1663.685
1018.783, 1658.718
1019.265, 1653.453
1019.748, 1655.935
1020.230, 1669.942
1020.712, 1686.345
1021.194, 1689.195
1021.676, 1684.911
1022.158, 1690.607
1022.640, 1713.279
1023.122, 1724.118
1023.604, 1695.609
1024.087, 1664.783
1024.569, 1655.748
1025.051, 1667.555
1025.533, 1667.686
1026.015, 1655.914
1026.497, 1642.563
1026.979, 1630.552
1027.461, 1622.307
1027.943, 1625.090
1028.426, 1632.997
1028.908, 1632.105
1029.390, 1608.573
1029.872, 1595.013
1030.354, 1599.157
1030.836, 1605.556
1031.318, 1589.670
1031.800, 1559.299
1032.283, 1542.662
1032.765, 1543.544
1033.247, 1545.677
1033.729, 1534.888
1034.211, 1526.239
1034.693, 1535.414
1035.175, 1558.615
1035.657, 1554.384
1036.140, 1519.235
1036.622, 1489.304
1037.104, 1480.811
1037.586, 1483.266
1038.068, 1487.408
1038.550, 1491.289
1039.032, 1491.404
1039.514, 1484.891
1039.996, 1476.795
1040.479, 1465.038
1040.961, 1455.423
1041.443, 1457.750
1041.925, 1468.070
1042.407, 1459.884
1042.889, 1433.304
1043.371, 1411.969
1043.853, 1421.207
1044.335, 1430.684
1044.818, 1415.765
1045.300, 1384.877
1045.782, 1376.652
1046.264, 1397.154
1046.746, 1404.471
1047.228, 1384.163
1047.710, 1356.917
1048.192, 1349.706
1048.675, 1354.198
1049.157, 1358.224
1049.639, 1359.152
1050.121, 1359.993
1050.603, 1364.715
1051.085, 1364.244
1051.567, 1349.531
1052.049, 1324.353
1052.531, 1312.885
1053.014, 1312.975
1053.496, 1310.395
1053.978, 1290.753
1054.460, 1273.187
1054.942, 1272.437
1055.424, 1279.671
1055.906, 1275.147
1056.388, 1254.139
1056.870, 1246.734
1057.353, 1258.834
1057.835, 1272.918
1058.317, 1265.227
1058.799, 1250.941
1059.281, 1253.534
1059.763, 1276.243
1060.245, 1284.025
1060.727, 1258.523
1061.210, 1236.954
1061.692, 1232.452
1062.174, 1240.065
1062.656, 1251.700
1063.138, 1263.981
1063.620, 1262.495
1064.102, 1232.708
1064.584, 1206.845
1065.067, 1208.539
1065.549, 1216.687
1066.031, 1207.421
1066.513, 1174.604
1066.995, 1165.379
1067.477, 1181.534
1067.959, 1200.336
1068.441, 1207.855
1068.923, 1207.122
1069.406, 1196.087
1069.888, 1178.652
1070.370, 1170.388
1070.852, 1180.043
1071.334, 1185.955
1071.816, 1183.836
1072.298, 1178.774
1072.780, 1177.394
1073.262, 1178.997
1073.745, 1183.542
1074.227, 1191.680
1074.709, 1194.247
1075.191, 1177.501
1075.673, 1164.000
1076.155, 1167.822
1076.637, 1184.870
1077.119, 1187.848
1077.601, 1177.562
1078.084, 1165.373
1078.566, 1151.617
1079.048, 1145.220
1079.530, 1164.468
1080.012, 1191.032
1080.494, 1197.361
1080.976, 1171.424
1081.458, 1157.110
1081.941, 1156.369
1082.423, 1159.713
1082.905, 1157.763
1083.387, 1156.017
1083.869, 1167.664
1084.351, 1188.933
1084.833, 1201.971
1085.315, 1193.007
1085.797, 1185.363
1086.280, 1183.362
1086.762, 1184.320
1087.244, 1182.853
1087.726, 1180.295
1088.208, 1185.020
1088.690, 1199.494
1089.172, 1206.323
1089.654, 1182.857
1090.136, 1159.444
1090.619, 1159.181
1091.101, 1177.325
1091.583, 1177.435
1092.065, 1158.905
1092.547, 1143.756
1093.029, 1141.528
1093.511, 1143.471
1093.993, 1142.697
1094.476, 1139.425
1094.958, 1133.861
1095.440, 1125.934
1095.922, 1115.541
1096.404, 1101.765
1096.886, 1088.372
1097.368, 1077.429
1097.850, 1069.227
1098.333, 1066.950
1098.815, 1068.240
1099.297, 1064.689
1099.779, 1051.434
1100.261, 1034.624
1100.743, 1012.748
1101.225, 991.2557
1101.707, 977.5606
1102.189, 970.6127
1102.672, 966.9691
1103.154, 966.2283
1103.636, 964.5658
1104.118, 959.8505
1104.600, 953.1635
1105.082, 942.9672
1105.564, 931.5007
1106.046, 928.7164
1106.528, 934.8755
1107.011, 936.0524
1107.493, 926.9456
1107.975, 916.5277
1108.457, 912.2535
1108.939, 912.1791
1109.421, 915.0309
1109.903, 921.8105
1110.385, 924.4974
1110.868, 922.4348
1111.350, 918.7775
1111.832, 915.1059
1112.314, 910.8679
1112.796, 903.7863
1113.278, 895.5917
1113.760, 890.1901
1114.242, 891.2565
1114.724, 891.9387
1115.207, 893.0646
1115.689, 891.4730
1116.171, 880.2358
1116.653, 864.1840
1117.135, 861.9546
1117.617, 872.4044
1118.099, 882.4081
1118.581, 890.5223
1119.063, 890.2667
1119.546, 873.6459
1120.028, 851.7970
1120.510, 844.4033
1120.992, 850.3399
1121.474, 857.0366
1121.956, 862.8474
1122.438, 867.3229
1122.920, 869.9306
1123.403, 871.2503
1123.885, 871.1379
1124.367, 869.9729
1124.849, 870.0886
1125.331, 871.7784
1125.813, 870.8633
1126.295, 864.7292
1126.777, 858.9503
1127.260, 862.8253
1127.742, 869.0955
1128.224, 868.4839
1128.706, 857.3497
1129.188, 847.6473
1129.670, 838.5243
1130.152, 833.8274
1130.634, 837.3370
1131.116, 845.0333
1131.599, 851.1121
1132.081, 855.7133
1132.563, 859.0810
1133.045, 866.3138
1133.527, 862.8200
1134.009, 840.6487
1134.491, 820.8836
1134.973, 827.7327
1135.455, 851.1907
1135.938, 860.0089
1136.420, 855.2697
1136.902, 848.7946
1137.384, 843.0280
1137.866, 840.5940
1138.348, 843.4439
1138.830, 848.4146
1139.312, 851.3274
1139.795, 852.1907
1140.277, 850.3017
1140.759, 845.5189
1141.241, 842.1722
1141.723, 844.6984
1142.205, 847.9879
1142.687, 849.9952
1143.169, 850.3109
1143.651, 847.0813
1144.134, 840.3179
1144.616, 831.5422
1145.098, 819.3633
1145.580, 812.9388
1146.062, 829.7027
1146.544, 848.9460
1147.026, 848.5211
1147.508, 828.0388
1147.990, 816.9938
1148.473, 815.9162
1148.955, 819.7553
1149.437, 829.9800
1149.919, 837.8377
1150.401, 828.1382
1150.883, 811.6104
1151.365, 804.4669
1151.847, 814.3413
1152.330, 816.3498
1152.812, 808.0750
1153.294, 800.8862
1153.776, 804.4637
1154.258, 812.1194
1154.740, 812.4880
1155.222, 808.5196
1155.704, 807.1121
1156.186, 807.4428
1156.669, 817.1474
1157.151, 841.7629
1157.633, 863.3679
1158.115, 860.3339
1158.597, 843.5289
1159.079, 836.4202
1159.561, 838.3220
1160.043, 839.4816
1160.526, 837.0414
1161.008, 831.9378
1161.490, 823.1613
1161.972, 813.8657
1162.454, 807.6343
1162.936, 804.6683
1163.418, 806.5496
1163.900, 813.3104
1164.382, 820.1719
1164.865, 825.1907
1165.347, 829.4359
1165.829, 833.4008
1166.311, 836.7677
1166.793, 839.7187
1167.275, 841.5698
1167.757, 837.3826
1168.239, 824.5781
1168.721, 817.2078
1169.204, 831.2681
1169.686, 844.3488
1170.168, 842.2665
1170.650, 829.2257
1171.132, 826.6075
1171.614, 832.6455
1172.096, 832.1219
1172.578, 815.7810
1173.061, 804.0482
1173.543, 814.7704
1174.025, 831.9277
1174.507, 843.0648
1174.989, 848.0331
1175.471, 848.3103
1175.953, 843.9941
1176.435, 836.9771
1176.917, 825.0710
1177.400, 815.4736
1177.882, 811.2985
1178.364, 814.1347
1178.846, 827.7676
1179.328, 855.7637
1179.810, 867.2225
1180.292, 861.6946
1180.774, 851.1786
1181.256, 842.6715
1181.739, 832.9452
1182.221, 812.0275
1182.703, 790.9054
1183.185, 792.5231
1183.667, 825.8724
1184.149, 838.0698
1184.631, 824.9496
1185.113, 810.3564
1185.596, 816.1235
1186.078, 827.4239
1186.560, 830.4194
1187.042, 827.4682
1187.524, 827.9406
1188.006, 833.4169
1188.488, 837.8647
1188.970, 841.0370
1189.453, 840.6017
1189.935, 831.4702
1190.417, 819.7328
1190.899, 809.7606
1191.381, 802.7977
1191.863, 803.2186
1192.345, 812.3923
1192.827, 825.3084
1193.309, 843.2111
1193.792, 856.1860
1194.274, 846.2863
1194.756, 829.4096
1195.238, 826.3410
1195.720, 838.7988
1196.202, 841.0267
1196.684, 827.7170
1197.166, 818.7661
1197.648, 820.8386
1198.131, 825.9563
1198.613, 824.1050
1199.095, 818.3123
1199.577, 811.6439
1200.059, 804.2019
1200.541, 801.0023
1201.023, 803.3259
1201.505, 806.2430
1201.988, 809.1440
1202.470, 809.3629
1202.952, 796.7195
1203.434, 781.3092
1203.916, 779.5978
1204.398, 799.9457
1204.880, 814.4849
1205.362, 822.3772
1205.844, 824.9733
1206.327, 822.0714
1206.809, 815.3252
1207.291, 801.8311
1207.773, 788.3040
1208.255, 787.2807
1208.737, 809.4222
1209.219, 824.7979
1209.701, 832.9454
1210.183, 834.8555
1210.666, 827.5405
1211.148, 817.4985
1211.630, 814.5357
1212.112, 817.4361
1212.594, 824.2004
1213.076, 843.4733
1213.558, 847.1943
1214.040, 830.8746
1214.523, 813.3823
1215.005, 809.4308
1215.487, 812.6217
1215.969, 814.9832
1216.451, 815.9377
1216.933, 813.9843
1217.415, 804.9775
1217.897, 800.4256
1218.380, 800.9460
1218.862, 805.1285
1219.344, 815.7151
1219.826, 826.7540
1220.308, 827.2303
1220.790, 820.5485
1221.272, 818.3541
1221.754, 825.8073
1222.236, 830.8079
1222.719, 832.5897
1223.201, 830.9474
1223.683, 819.1223
1224.165, 808.0371
1224.647, 818.4465
1225.129, 844.3216
1225.611, 855.2608
1226.093, 842.8525
1226.575, 829.6682
1227.058, 817.3135
1227.540, 808.2814
1228.022, 803.8594
1228.504, 805.1226
1228.986, 819.6559
1229.468, 843.0302
1229.950, 847.7219
1230.432, 824.2813
1230.915, 812.5703
1231.397, 820.8229
1231.879, 831.5837
1232.361, 824.4944
1232.843, 810.9791
1233.325, 802.2795
1233.807, 799.2916
1234.289, 801.3997
1234.771, 811.2449
1235.254, 812.2323
1235.736, 799.5564
1236.218, 785.4467
1236.700, 783.8296
1237.182, 787.1718
1237.664, 787.9028
1238.146, 786.1400
1238.628, 788.9805
1239.110, 797.5562
1239.593, 802.2941
1240.075, 800.5252
1240.557, 797.0257
1241.039, 793.8549
1241.521, 793.2371
1242.003, 799.0318
1242.485, 810.0242
1242.967, 816.9064
1243.449, 819.4210
1243.932, 822.0688
1244.414, 826.6751
1244.896, 828.1357
1245.378, 815.9717
1245.860, 803.5309
1246.342, 805.6627
1246.824, 818.3580
1247.306, 816.5985
1247.789, 800.7591
1248.271, 795.8491
1248.753, 811.4822
1249.235, 826.1637
1249.717, 820.9160
1250.199, 810.9329
1250.681, 807.4365
1251.163, 809.0419
1251.646, 806.0450
1252.128, 799.5678
1252.610, 799.9967
1253.092, 813.2161
1253.574, 822.4373
1254.056, 813.4042
1254.538, 800.7638
1255.020, 791.6577
1255.502, 787.0271
1255.984, 795.9489
1256.467, 814.4910
1256.949, 823.5178
1257.431, 814.2886
1257.913, 806.0449
1258.395, 810.7740
1258.877, 814.9639
1259.359, 811.1625
1259.841, 802.5128
1260.324, 798.6544
1260.806, 798.7731
1261.288, 801.0016
1261.770, 806.2897
1262.252, 808.3287
1262.734, 802.4210
1263.216, 798.0063
1263.698, 799.7567
1264.181, 805.8278
1264.663, 813.3286
1265.145, 821.3188
1265.627, 828.5004
1266.109, 836.5759
1266.591, 834.6763
1267.073, 816.0414
1267.555, 803.5877
1268.037, 812.3200
1268.520, 829.1282
1269.002, 831.6326
1269.484, 824.9910
1269.966, 817.7736
1270.448, 811.2682
1270.930, 805.5853
1271.412, 800.6334
1271.894, 796.7525
1272.376, 792.4874
1272.859, 791.9055
1273.341, 805.0018
1273.823, 822.7637
1274.305, 832.2958
1274.787, 831.6027
1275.269, 828.9440
1275.751, 824.1650
1276.233, 818.6537
1276.716, 811.7338
1277.198, 806.7227
1277.680, 809.1998
1278.162, 813.4662
1278.644, 812.2032
1279.126, 805.2546
1279.608, 806.7998
1280.090, 816.0149
1280.573, 817.4885
1281.055, 797.8139
1281.537, 782.5081
1282.019, 794.4988
1282.501, 811.6616
1282.983, 816.6938
1283.465, 811.0623
1283.947, 803.9333
1284.429, 796.2708
1284.911, 792.6358
1285.394, 796.1512
1285.876, 800.6896
1286.358, 804.2342
1286.840, 807.8669
1287.322, 812.1173
1287.804, 816.9506
1288.286, 824.5048
1288.768, 832.3785
1289.251, 833.7687
##END=



