##NAMES=Gehlenite
##RRUFFID=R070478
##IDEAL CHEMISTRY=Ca_2_Al(SiAl)O_7_
##LOCALITY=Durham Ranch, South of Gillette, Sublette County, Wyoming, USA
##OWNER=RRUFF
##SOURCE=Michael Scott
##DESCRIPTION=Brown short, tetragonal prismatic crystals, associated with esseneite R061123
##STATUS=The identification of this mineral is confirmed by single-crystal X-ray diffraction and chemical analysis.
##URL=rruff.info/R070478
##MEASURED CHEMISTRY=(Ca_1.65_Na_0.34_K_0.01_)_Σ=2_(Al_0.64_Mg_0.21_Fe^3+^_0.15_)_Σ=1_(Si_1.56_Al_0.44_)_Σ=1_O_7_ ; = gray phase. The light phase is esseneite: (Ca_0.97_Na_0.03_)_Σ=1_(Fe^3+^_0.72_Mg_0.23_Ti_0.05_)_Σ=1_(Al_0.79_Si_0.21_)_Σ=1_Si_1.00_O_6_ (esseneite)
166.5476, 38471.33
167.0297, 38484.92
167.5118, 38482.71
167.9940, 38489.59
168.4761, 38542.78
168.9582, 38625.45
169.4403, 38668.14
169.9224, 38568.29
170.4045, 38426.54
170.8867, 38359.05
171.3688, 38468.41
171.8509, 38608.59
172.3330, 38642.95
172.8151, 38579.80
173.2972, 38526.25
173.7794, 38575.80
174.2615, 38685.77
174.7436, 38783.36
175.2257, 38847.23
175.7078, 38883.00
176.1899, 38891.11
176.6721, 38870.82
177.1542, 38845.66
177.6363, 38840.60
178.1184, 38848.66
178.6005, 38850.61
179.0826, 38833.89
179.5648, 38806.96
180.0469, 38780.75
180.5290, 38754.34
181.0111, 38736.50
181.4932, 38738.22
181.9753, 38757.61
182.4575, 38785.42
182.9396, 38830.11
183.4217, 38878.88
183.9038, 38894.47
184.3859, 38859.97
184.8680, 38814.30
185.3502, 38823.68
185.8323, 38883.57
186.3144, 38945.13
186.7965, 38974.16
187.2786, 38975.99
187.7607, 38971.98
188.2429, 38959.27
188.7250, 38948.71
189.2071, 38972.44
189.6892, 39031.02
190.1713, 39086.80
190.6534, 39096.70
191.1356, 39067.44
191.6177, 39060.23
192.0998, 39104.06
192.5819, 39175.25
193.0640, 39187.89
193.5461, 39134.58
194.0283, 39071.64
194.5104, 39058.96
194.9925, 39096.36
195.4746, 39134.14
195.9567, 39161.79
196.4388, 39179.40
196.9210, 39186.77
197.4031, 39186.57
197.8852, 39171.27
198.3673, 39114.82
198.8494, 39011.67
199.3315, 38942.95
199.8137, 38949.54
200.2958, 39029.35
200.7779, 39087.29
201.2600, 39114.48
201.7421, 39136.72
202.2242, 39202.46
202.7064, 39320.75
203.1885, 39427.96
203.6706, 39499.48
204.1527, 39533.88
204.6348, 39531.27
205.1169, 39473.33
205.5991, 39398.36
206.0812, 39380.64
206.5633, 39424.39
207.0454, 39508.09
207.5275, 39656.43
208.0096, 39905.91
208.4918, 40001.66
208.9739, 39883.86
209.4560, 39642.79
209.9381, 39518.51
210.4202, 39543.93
210.9023, 39600.42
211.3845, 39623.61
211.8666, 39607.24
212.3487, 39584.07
212.8308, 39552.60
213.3129, 39518.15
213.7951, 39501.82
214.2772, 39508.47
214.7593, 39524.71
215.2414, 39543.86
215.7235, 39569.63
216.2056, 39586.58
216.6878, 39590.80
217.1699, 39583.91
217.6520, 39571.51
218.1341, 39538.57
218.6162, 39522.29
219.0983, 39557.74
219.5805, 39670.59
220.0626, 39767.36
220.5447, 39831.19
221.0268, 39863.34
221.5089, 39898.34
221.9910, 39934.30
222.4732, 39975.34
222.9553, 40032.26
223.4374, 40127.09
223.9195, 40186.19
224.4016, 40183.85
224.8837, 40120.23
225.3659, 40086.52
225.8480, 40089.41
226.3301, 40114.92
226.8122, 40153.50
227.2943, 40220.21
227.7764, 40265.77
228.2586, 40265.09
228.7407, 40209.84
229.2228, 40211.04
229.7049, 40300.18
230.1870, 40413.57
230.6691, 40471.74
231.1513, 40439.42
231.6334, 40416.72
232.1155, 40433.52
232.5976, 40498.17
233.0797, 40540.63
233.5618, 40547.73
234.0440, 40545.11
234.5261, 40575.81
235.0082, 40692.10
235.4903, 40754.28
235.9724, 40704.93
236.4545, 40502.23
236.9367, 40391.46
237.4188, 40416.42
237.9009, 40503.98
238.3830, 40539.97
238.8651, 40488.68
239.3472, 40446.32
239.8294, 40447.84
240.3115, 40510.99
240.7936, 40541.32
241.2757, 40508.98
241.7578, 40457.93
242.2399, 40469.89
242.7221, 40583.51
243.2042, 40693.87
243.6863, 40762.66
244.1684, 40774.11
244.6505, 40791.86
245.1326, 40813.16
245.6148, 40841.94
246.0969, 40890.25
246.5790, 40981.23
247.0611, 41055.23
247.5432, 41085.24
248.0253, 41048.76
248.5075, 41038.14
248.9896, 41074.70
249.4717, 41127.75
249.9538, 41123.19
250.4359, 41009.95
250.9180, 40922.38
251.4002, 40925.82
251.8823, 41074.98
252.3644, 41158.26
252.8465, 41148.50
253.3286, 41084.45
253.8107, 41057.60
254.2929, 41094.91
254.7750, 41122.75
255.2571, 41097.04
255.7392, 40968.33
256.2213, 40932.55
256.7034, 41039.38
257.1855, 41219.20
257.6677, 41297.57
258.1498, 41227.70
258.6319, 41145.32
259.1140, 41115.55
259.5961, 41163.29
260.0782, 41186.77
260.5604, 41172.54
261.0425, 41138.25
261.5246, 41133.73
262.0067, 41174.05
262.4888, 41211.91
262.9709, 41219.08
263.4531, 41176.73
263.9352, 41169.81
264.4173, 41210.49
264.8994, 41282.83
265.3815, 41354.39
265.8636, 41438.43
266.3458, 41490.33
266.8279, 41472.17
267.3100, 41352.96
267.7921, 41296.75
268.2742, 41328.43
268.7563, 41413.37
269.2385, 41465.41
269.7206, 41480.00
270.2027, 41475.94
270.6848, 41451.42
271.1669, 41395.27
271.6490, 41384.26
272.1312, 41436.41
272.6133, 41521.95
273.0954, 41575.49
273.5775, 41592.30
274.0596, 41591.38
274.5417, 41573.91
275.0239, 41534.95
275.5060, 41525.33
275.9881, 41557.46
276.4702, 41609.49
276.9523, 41635.32
277.4344, 41631.86
277.9166, 41617.55
278.3987, 41598.11
278.8808, 41573.15
279.3629, 41555.03
279.8450, 41542.67
280.3271, 41539.85
280.8093, 41549.38
281.2914, 41568.84
281.7735, 41616.80
282.2556, 41726.52
282.7377, 41894.76
283.2198, 41994.30
283.7020, 42004.24
284.1841, 41969.29
284.6662, 41963.48
285.1483, 41987.16
285.6304, 42026.55
286.1125, 42089.55
286.5947, 42170.69
287.0768, 42213.10
287.5589, 42207.89
288.0410, 42181.32
288.5231, 42176.06
289.0052, 42192.00
289.4874, 42204.99
289.9695, 42194.48
290.4516, 42169.19
290.9337, 42174.98
291.4158, 42221.45
291.8979, 42274.71
292.3801, 42276.84
292.8622, 42235.07
293.3443, 42210.25
293.8264, 42250.56
294.3085, 42330.59
294.7906, 42377.90
295.2728, 42387.74
295.7549, 42374.65
296.2370, 42341.96
296.7191, 42296.41
297.2012, 42268.19
297.6833, 42289.68
298.1655, 42335.55
298.6476, 42353.90
299.1297, 42341.57
299.6118, 42316.49
300.0939, 42291.67
300.5760, 42268.45
301.0582, 42250.70
301.5403, 42238.93
302.0224, 42234.45
302.5045, 42242.05
302.9866, 42262.41
303.4688, 42285.41
303.9509, 42301.06
304.4330, 42312.96
304.9151, 42328.94
305.3972, 42363.03
305.8793, 42397.00
306.3615, 42403.73
306.8436, 42383.54
307.3257, 42369.27
307.8078, 42402.70
308.2899, 42454.80
308.7720, 42481.50
309.2542, 42435.20
309.7363, 42377.95
310.2184, 42361.88
310.7005, 42383.79
311.1826, 42406.57
311.6647, 42393.57
312.1469, 42372.72
312.6290, 42375.64
313.1111, 42455.12
313.5932, 42523.02
314.0753, 42520.65
314.5574, 42456.41
315.0396, 42391.85
315.5217, 42344.81
316.0038, 42317.74
316.4859, 42312.93
316.9680, 42344.01
317.4501, 42384.83
317.9323, 42435.13
318.4144, 42490.62
318.8965, 42531.24
319.3786, 42536.87
319.8607, 42533.48
320.3428, 42537.63
320.8250, 42553.56
321.3071, 42575.37
321.7892, 42606.27
322.2713, 42641.77
322.7534, 42668.83
323.2355, 42688.17
323.7177, 42693.64
324.1998, 42677.65
324.6819, 42602.13
325.1640, 42564.51
325.6461, 42619.20
326.1282, 42720.59
326.6104, 42763.88
327.0925, 42667.03
327.5746, 42573.64
328.0567, 42538.33
328.5388, 42604.98
329.0209, 42644.48
329.5031, 42644.39
329.9852, 42622.24
330.4673, 42607.11
330.9494, 42621.41
331.4315, 42619.20
331.9136, 42576.69
332.3958, 42469.22
332.8779, 42424.03
333.3600, 42475.98
333.8421, 42566.84
334.3242, 42621.46
334.8063, 42622.49
335.2885, 42616.34
335.7706, 42611.01
336.2527, 42605.32
336.7348, 42607.17
337.2169, 42618.70
337.6991, 42632.39
338.1812, 42638.28
338.6633, 42630.57
339.1454, 42633.23
339.6275, 42656.75
340.1096, 42696.40
340.5918, 42713.04
341.0739, 42699.45
341.5560, 42683.75
342.0381, 42695.81
342.5202, 42738.36
343.0023, 42771.28
343.4845, 42786.65
343.9666, 42788.62
344.4487, 42785.18
344.9308, 42775.74
345.4129, 42771.71
345.8951, 42795.52
346.3772, 42840.52
346.8593, 42842.32
347.3414, 42771.96
347.8235, 42689.77
348.3056, 42727.68
348.7878, 42875.80
349.2699, 43008.95
349.7520, 43018.31
350.2341, 42953.26
350.7162, 42939.68
351.1983, 42996.25
351.6805, 43080.04
352.1626, 43148.73
352.6447, 43201.58
353.1268, 43238.96
353.6089, 43237.80
354.0910, 43228.38
354.5732, 43264.29
355.0553, 43354.18
355.5374, 43427.88
356.0195, 43401.55
356.5016, 43322.02
356.9837, 43273.31
357.4659, 43338.36
357.9480, 43417.80
358.4301, 43428.55
358.9122, 43370.82
359.3943, 43315.02
359.8764, 43310.53
360.3586, 43327.29
360.8407, 43333.05
361.3228, 43288.70
361.8049, 43258.63
362.2870, 43279.04
362.7691, 43342.55
363.2513, 43403.23
363.7334, 43452.27
364.2155, 43486.62
364.6976, 43502.03
365.1797, 43466.46
365.6618, 43450.23
366.1440, 43482.43
366.6261, 43546.04
367.1082, 43588.85
367.5903, 43598.66
368.0724, 43591.09
368.5545, 43571.00
369.0367, 43527.25
369.5188, 43495.54
370.0009, 43481.34
370.4830, 43479.84
370.9651, 43483.16
371.4472, 43504.67
371.9294, 43515.66
372.4115, 43499.38
372.8936, 43441.67
373.3757, 43432.13
373.8578, 43491.01
374.3399, 43576.07
374.8221, 43624.25
375.3042, 43592.78
375.7863, 43644.13
376.2684, 43866.25
376.7505, 44229.63
377.2326, 44369.63
377.7148, 44231.04
378.1969, 44006.36
378.6790, 43845.59
379.1611, 43748.60
379.6432, 43714.47
380.1253, 43765.25
380.6075, 43862.89
381.0896, 43900.07
381.5717, 43875.61
382.0538, 43839.27
382.5359, 43819.07
383.0180, 43815.05
383.5002, 43825.96
383.9823, 43856.14
384.4644, 43890.13
384.9465, 43898.23
385.4286, 43886.57
385.9107, 43887.63
386.3929, 43917.13
386.8750, 43968.15
387.3571, 44040.20
387.8392, 44134.90
388.3213, 44216.82
388.8034, 44245.22
389.2856, 44239.54
389.7677, 44236.80
390.2498, 44247.98
390.7319, 44270.56
391.2140, 44314.74
391.6961, 44377.49
392.1783, 44421.56
392.6604, 44402.99
393.1425, 44367.87
393.6246, 44362.25
394.1067, 44448.56
394.5888, 44504.51
395.0710, 44439.82
395.5531, 44298.32
396.0352, 44225.70
396.5173, 44321.61
396.9994, 44453.35
397.4815, 44555.65
397.9637, 44621.73
398.4458, 44656.88
398.9279, 44639.27
399.4100, 44593.17
399.8921, 44560.78
400.3742, 44555.54
400.8564, 44550.24
401.3385, 44533.17
401.8206, 44498.58
402.3027, 44495.43
402.7848, 44550.62
403.2669, 44614.30
403.7491, 44632.15
404.2312, 44578.61
404.7133, 44546.03
405.1954, 44553.47
405.6775, 44596.05
406.1596, 44647.30
406.6418, 44710.97
407.1239, 44773.09
407.6060, 44828.23
408.0881, 44877.20
408.5702, 44892.92
409.0523, 44860.70
409.5345, 44810.81
410.0166, 44805.21
410.4987, 44841.93
410.9808, 44881.22
411.4629, 44902.54
411.9450, 44909.47
412.4272, 44907.15
412.9093, 44892.17
413.3914, 44891.78
413.8735, 44948.93
414.3556, 45044.52
414.8377, 45127.92
415.3199, 45186.71
415.8020, 45220.46
416.2841, 45218.92
416.7662, 45185.68
417.2483, 45151.44
417.7304, 45139.48
418.2126, 45135.25
418.6947, 45119.50
419.1768, 45064.78
419.6589, 45036.68
420.1410, 45102.18
420.6231, 45222.57
421.1053, 45302.29
421.5874, 45266.35
422.0695, 45211.49
422.5516, 45183.90
423.0337, 45193.09
423.5158, 45214.02
423.9980, 45249.05
424.4801, 45290.42
424.9622, 45328.56
425.4443, 45342.82
425.9264, 45373.57
426.4085, 45441.16
426.8907, 45544.20
427.3728, 45598.39
427.8549, 45569.50
428.3370, 45527.86
428.8191, 45525.11
429.3012, 45583.10
429.7834, 45620.61
430.2655, 45630.23
430.7476, 45617.55
431.2297, 45585.84
431.7118, 45525.26
432.1939, 45494.29
432.6761, 45536.95
433.1582, 45652.16
433.6403, 45747.59
434.1224, 45825.53
434.6045, 45875.46
435.0866, 45860.44
435.5688, 45792.75
436.0509, 45753.97
436.5330, 45773.55
437.0151, 45835.99
437.4972, 45929.92
437.9793, 46051.31
438.4615, 46153.34
438.9436, 46197.75
439.4257, 46200.73
439.9078, 46184.25
440.3899, 46148.17
440.8720, 46105.77
441.3542, 46060.87
441.8363, 46018.90
442.3184, 45991.18
442.8005, 46001.32
443.2826, 46016.05
443.7647, 46009.66
444.2469, 45975.45
444.7290, 45964.30
445.2111, 46008.01
445.6932, 46076.15
446.1753, 46139.14
446.6574, 46199.14
447.1396, 46244.38
447.6217, 46269.84
448.1038, 46275.59
448.5859, 46269.77
449.0680, 46227.75
449.5501, 46198.34
450.0323, 46210.30
450.5144, 46294.42
450.9965, 46344.43
451.4786, 46341.50
451.9607, 46321.14
452.4428, 46353.20
452.9250, 46455.13
453.4071, 46541.47
453.8892, 46582.32
454.3713, 46581.50
454.8534, 46564.65
455.3355, 46525.44
455.8177, 46499.88
456.2998, 46525.00
456.7819, 46593.61
457.2640, 46675.75
457.7461, 46773.40
458.2282, 46863.44
458.7104, 46905.85
459.1925, 46906.32
459.6746, 46892.52
460.1567, 46885.03
460.6388, 46871.28
461.1209, 46824.55
461.6031, 46737.68
462.0852, 46675.48
462.5673, 46712.02
463.0494, 46792.46
463.5315, 46844.94
464.0136, 46821.05
464.4958, 46789.27
464.9779, 46774.53
465.4600, 46777.01
465.9421, 46790.18
466.4242, 46827.53
466.9063, 46863.66
467.3885, 46882.32
467.8706, 46856.43
468.3527, 46853.41
468.8348, 46885.48
469.3169, 46932.71
469.7990, 46963.31
470.2812, 46963.08
470.7633, 46966.71
471.2454, 46988.68
471.7275, 47027.52
472.2096, 47029.39
472.6917, 46978.73
473.1739, 46932.39
473.6560, 46951.80
474.1381, 47039.54
474.6202, 47096.51
475.1023, 47107.98
475.5844, 47088.42
476.0666, 47048.37
476.5487, 46992.74
477.0308, 46961.77
477.5129, 46997.83
477.9950, 47067.29
478.4771, 47098.59
478.9593, 47086.95
479.4414, 47082.53
479.9235, 47126.61
480.4056, 47203.58
480.8877, 47290.80
481.3698, 47406.95
481.8520, 47498.95
482.3341, 47515.85
482.8162, 47477.83
483.2983, 47452.14
483.7804, 47476.24
484.2625, 47509.49
484.7447, 47530.25
485.2268, 47532.61
485.7089, 47534.89
486.1910, 47538.88
486.6731, 47544.36
487.1552, 47550.98
487.6374, 47555.70
488.1195, 47568.16
488.6016, 47597.22
489.0837, 47637.96
489.5658, 47657.04
490.0479, 47651.56
490.5301, 47633.14
491.0122, 47604.78
491.4943, 47566.04
491.9764, 47535.51
492.4585, 47513.52
492.9406, 47502.82
493.4228, 47503.38
493.9049, 47516.41
494.3870, 47551.98
494.8691, 47626.45
495.3512, 47717.09
495.8333, 47784.64
496.3155, 47828.71
496.7976, 47851.36
497.2797, 47831.22
497.7618, 47798.65
498.2439, 47793.68
498.7260, 47830.28
499.2082, 47870.82
499.6903, 47885.03
500.1724, 47888.29
500.6545, 47905.65
501.1366, 47980.50
501.6187, 48038.77
502.1009, 48048.70
502.5830, 48010.91
503.0651, 47968.18
503.5472, 47907.34
504.0293, 47859.98
504.5114, 47844.43
504.9936, 47878.92
505.4757, 47917.55
505.9578, 47974.71
506.4399, 48028.04
506.9220, 48018.44
507.4041, 47912.03
507.8863, 47863.39
508.3684, 47946.81
508.8505, 48133.91
509.3326, 48238.24
509.8147, 48250.09
510.2968, 48248.04
510.7790, 48313.71
511.2611, 48421.57
511.7432, 48471.36
512.2253, 48431.11
512.7074, 48377.63
513.1895, 48419.44
513.6716, 48520.79
514.1537, 48592.20
514.6359, 48541.61
515.1180, 48480.78
515.6001, 48521.70
516.0822, 48657.80
516.5643, 48755.55
517.0464, 48722.11
517.5286, 48648.96
518.0107, 48602.00
518.4928, 48607.79
518.9749, 48616.19
519.4570, 48619.10
519.9391, 48620.66
520.4213, 48627.99
520.9034, 48642.96
521.3855, 48661.79
521.8676, 48690.55
522.3497, 48727.43
522.8318, 48726.83
523.3140, 48670.58
523.7961, 48620.65
524.2782, 48635.26
524.7603, 48715.30
525.2424, 48763.02
525.7245, 48764.72
526.2067, 48748.05
526.6888, 48752.14
527.1709, 48774.50
527.6530, 48801.98
528.1351, 48839.95
528.6172, 48872.82
529.0994, 48862.84
529.5815, 48817.23
530.0636, 48793.91
530.5457, 48843.79
531.0278, 48924.55
531.5099, 48998.29
531.9921, 49053.09
532.4742, 49105.37
532.9563, 49162.27
533.4384, 49217.47
533.9205, 49261.80
534.4026, 49297.10
534.8848, 49316.64
535.3669, 49310.54
535.8490, 49283.87
536.3311, 49275.74
536.8132, 49306.75
537.2953, 49329.44
537.7775, 49310.09
538.2596, 49232.70
538.7417, 49209.79
539.2238, 49257.19
539.7059, 49330.91
540.1880, 49378.83
540.6702, 49402.18
541.1523, 49407.25
541.6344, 49387.51
542.1165, 49358.89
542.5986, 49334.98
543.0807, 49320.43
543.5629, 49347.90
544.0450, 49481.58
544.5271, 49641.69
545.0092, 49736.60
545.4913, 49750.34
545.9734, 49757.77
546.4556, 49813.56
546.9377, 49878.29
547.4198, 49911.77
547.9019, 49868.45
548.3840, 49833.27
548.8661, 49828.48
549.3483, 49845.99
549.8304, 49859.29
550.3125, 49861.72
550.7946, 49870.92
551.2767, 49899.38
551.7589, 49950.07
552.2410, 49972.29
552.7231, 49960.56
553.2052, 49934.60
553.6873, 49905.08
554.1694, 49872.05
554.6516, 49852.96
555.1337, 49848.00
555.6158, 49861.58
556.0979, 49921.42
556.5800, 50012.10
557.0621, 50070.21
557.5443, 50038.27
558.0264, 49973.96
558.5085, 49934.34
558.9906, 49919.75
559.4727, 49936.18
559.9548, 50037.57
560.4370, 50139.83
560.9191, 50166.66
561.4012, 50073.11
561.8833, 50002.27
562.3654, 50012.74
562.8475, 50058.51
563.3297, 50078.88
563.8118, 50043.29
564.2939, 50023.48
564.7760, 50028.76
565.2581, 50057.42
565.7402, 50108.82
566.2224, 50195.30
566.7045, 50267.60
567.1866, 50288.31
567.6687, 50260.76
568.1508, 50278.30
568.6329, 50347.05
569.1151, 50417.86
569.5972, 50431.14
570.0793, 50404.74
570.5614, 50390.80
571.0435, 50401.68
571.5256, 50426.44
572.0078, 50447.86
572.4899, 50474.48
572.9720, 50525.52
573.4541, 50673.02
573.9362, 50792.52
574.4183, 50795.35
574.9005, 50684.63
575.3826, 50594.18
575.8647, 50554.14
576.3468, 50541.78
576.8289, 50547.18
577.3110, 50584.98
577.7932, 50604.94
578.2753, 50596.42
578.7574, 50581.40
579.2395, 50594.71
579.7216, 50645.69
580.2037, 50674.59
580.6859, 50664.20
581.1680, 50628.69
581.6501, 50599.15
582.1323, 50575.90
582.6144, 50560.88
583.0965, 50547.62
583.5786, 50547.03
584.0607, 50589.18
584.5428, 50675.54
585.0250, 50752.50
585.5071, 50795.37
585.9892, 50803.03
586.4713, 50765.85
586.9534, 50636.99
587.4355, 50548.35
587.9177, 50564.55
588.3998, 50642.35
588.8819, 50711.09
589.3640, 50742.68
589.8461, 50787.84
590.3282, 50858.70
590.8104, 50950.75
591.2925, 51036.66
591.7746, 51113.96
592.2567, 51188.85
592.7388, 51269.40
593.2209, 51354.41
593.7031, 51414.68
594.1852, 51449.29
594.6673, 51461.16
595.1494, 51436.17
595.6315, 51391.25
596.1136, 51371.52
596.5958, 51389.80
597.0779, 51435.18
597.5600, 51524.19
598.0421, 51633.77
598.5242, 51711.64
599.0063, 51708.75
599.4885, 51696.63
599.9706, 51711.97
600.4527, 51753.76
600.9348, 51781.11
601.4169, 51749.10
601.8990, 51734.50
602.3812, 51774.89
602.8633, 51888.36
603.3454, 51991.43
603.8275, 52090.59
604.3096, 52164.00
604.7917, 52167.13
605.2739, 52095.44
605.7560, 52066.41
606.2381, 52107.28
606.7202, 52191.14
607.2023, 52296.87
607.6844, 52413.45
608.1666, 52497.07
608.6487, 52513.05
609.1308, 52494.26
609.6129, 52459.35
610.0950, 52413.59
610.5771, 52389.80
611.0593, 52421.19
611.5414, 52467.86
612.0235, 52506.14
612.5056, 52535.92
612.9877, 52549.62
613.4698, 52533.10
613.9520, 52508.49
614.4341, 52493.07
614.9162, 52482.93
615.3983, 52492.56
615.8804, 52529.71
616.3625, 52581.54
616.8447, 52619.80
617.3268, 52644.22
617.8089, 52662.02
618.2910, 52678.64
618.7731, 52688.84
619.2552, 52673.62
619.7374, 52636.42
620.2195, 52604.38
620.7016, 52606.54
621.1837, 52617.39
621.6658, 52603.77
622.1479, 52556.42
622.6301, 52529.12
623.1122, 52571.35
623.5943, 52630.77
624.0764, 52659.90
624.5585, 52598.54
625.0406, 52578.85
625.5228, 52634.70
626.0049, 52722.72
626.4870, 52764.41
626.9691, 52747.28
627.4512, 52721.27
627.9333, 52693.29
628.4155, 52667.50
628.8976, 52665.95
629.3797, 52687.80
629.8618, 52707.52
630.3439, 52702.34
630.8260, 52685.24
631.3082, 52675.56
631.7903, 52673.75
632.2724, 52689.37
632.7545, 52760.63
633.2366, 52836.48
633.7188, 52866.38
634.2009, 52824.11
634.6830, 52772.41
635.1651, 52736.07
635.6472, 52699.24
636.1293, 52637.00
636.6115, 52521.01
637.0936, 52428.26
637.5757, 52371.88
638.0578, 52347.51
638.5399, 52353.18
639.0220, 52396.01
639.5042, 52421.09
639.9863, 52380.25
640.4684, 52303.31
640.9505, 52310.64
641.4326, 52398.27
641.9147, 52483.91
642.3969, 52491.45
642.8790, 52467.03
643.3611, 52467.54
643.8432, 52502.29
644.3253, 52547.28
644.8074, 52615.33
645.2896, 52675.00
645.7717, 52696.91
646.2538, 52642.31
646.7359, 52590.50
647.2180, 52529.11
647.7001, 52481.58
648.1823, 52502.14
648.6644, 52623.18
649.1465, 52721.02
649.6286, 52763.16
650.1107, 52762.17
650.5928, 52755.47
651.0750, 52743.56
651.5571, 52735.22
652.0392, 52721.50
652.5213, 52719.63
653.0034, 52777.53
653.4855, 52893.22
653.9677, 52983.74
654.4498, 52976.37
654.9319, 52928.94
655.4140, 52888.12
655.8961, 52858.47
656.3782, 52843.00
656.8604, 52856.71
657.3425, 52877.64
657.8246, 52882.39
658.3067, 52859.67
658.7888, 52844.17
659.2709, 52838.55
659.7531, 52842.72
660.2352, 52863.02
660.7173, 52899.86
661.1994, 52920.91
661.6815, 52901.91
662.1636, 52868.81
662.6458, 52891.88
663.1279, 52957.04
663.6100, 52988.20
664.0921, 52879.36
664.5742, 52758.77
665.0563, 52753.37
665.5385, 52874.85
666.0206, 52964.64
666.5027, 52949.28
666.9848, 52899.67
667.4669, 52859.71
667.9490, 52827.29
668.4312, 52816.68
668.9133, 52834.36
669.3954, 52865.90
669.8775, 52899.69
670.3596, 52936.77
670.8417, 52958.41
671.3239, 52959.41
671.8060, 52946.57
672.2881, 52926.52
672.7702, 52900.88
673.2523, 52875.68
673.7344, 52835.39
674.2166, 52813.20
674.6987, 52852.27
675.1808, 52936.45
675.6629, 53009.10
676.1450, 53052.42
676.6271, 53076.62
677.1093, 53075.88
677.5914, 53048.86
678.0735, 53047.64
678.5556, 53090.47
679.0377, 53132.31
679.5198, 53141.46
680.0020, 53113.40
680.4841, 53114.39
680.9662, 53149.58
681.4483, 53188.71
681.9304, 53201.02
682.4125, 53192.15
682.8947, 53170.39
683.3768, 53127.50
683.8589, 53106.75
684.3410, 53170.40
684.8231, 53271.05
685.3052, 53342.26
685.7874, 53343.87
686.2695, 53335.06
686.7516, 53320.95
687.2337, 53308.91
687.7158, 53314.70
688.1979, 53335.17
688.6801, 53383.52
689.1622, 53482.17
689.6443, 53609.21
690.1264, 53656.59
690.6085, 53619.93
691.0906, 53564.89
691.5728, 53499.51
692.0549, 53449.93
692.5370, 53493.34
693.0191, 53624.96
693.5012, 53746.59
693.9833, 53794.71
694.4655, 53801.32
694.9476, 53788.95
695.4297, 53756.36
695.9118, 53727.80
696.3939, 53705.45
696.8760, 53694.28
697.3582, 53698.82
697.8403, 53724.82
698.3224, 53758.39
698.8045, 53804.47
699.2866, 53851.36
699.7687, 53876.12
700.2509, 53880.69
700.7330, 53903.09
701.2151, 53958.63
701.6972, 54021.19
702.1793, 54049.21
702.6614, 54053.45
703.1436, 54063.83
703.6257, 54086.17
704.1078, 54123.05
704.5899, 54192.02
705.0720, 54280.55
705.5541, 54335.82
706.0363, 54315.04
706.5184, 54295.55
707.0005, 54305.11
707.4826, 54342.57
707.9647, 54355.18
708.4468, 54338.52
708.9290, 54322.37
709.4111, 54335.54
709.8932, 54369.22
710.3753, 54373.20
710.8574, 54346.67
711.3395, 54318.02
711.8217, 54292.56
712.3038, 54287.07
712.7859, 54333.44
713.2680, 54457.88
713.7501, 54549.13
714.2322, 54507.34
714.7144, 54438.97
715.1965, 54455.78
715.6786, 54626.36
716.1607, 54762.34
716.6428, 54856.15
717.1249, 54911.99
717.6071, 54924.92
718.0892, 54891.91
718.5713, 54872.60
719.0534, 54883.84
719.5355, 54910.16
720.0176, 54940.66
720.4998, 54968.54
720.9819, 54972.92
721.4640, 54900.98
721.9461, 54844.82
722.4282, 54909.09
722.9103, 55050.50
723.3925, 55109.64
723.8746, 54918.80
724.3567, 54781.54
724.8388, 54810.74
725.3209, 54990.09
725.8030, 55109.18
726.2852, 55150.43
726.7673, 55178.30
727.2494, 55229.47
727.7315, 55295.95
728.2136, 55351.24
728.6957, 55392.89
729.1779, 55403.61
729.6600, 55327.12
730.1421, 55231.97
730.6242, 55200.49
731.1063, 55249.35
731.5884, 55309.43
732.0706, 55396.01
732.5527, 55458.06
733.0348, 55449.46
733.5169, 55332.31
733.9990, 55237.65
734.4811, 55180.20
734.9633, 55129.31
735.4454, 55035.55
735.9275, 54901.52
736.4096, 54824.86
736.8917, 54830.19
737.3738, 54870.40
737.8560, 54896.73
738.3381, 54910.78
738.8202, 54915.89
739.3023, 54909.36
739.7844, 54896.15
740.2665, 54869.25
740.7487, 54836.90
741.2308, 54817.63
741.7129, 54815.78
742.1950, 54826.64
742.6771, 54863.74
743.1592, 54909.75
743.6414, 54895.82
744.1235, 54810.73
744.6056, 54753.27
745.0877, 54776.19
745.5698, 54842.16
746.0519, 54873.44
746.5341, 54873.11
747.0162, 54859.32
747.4983, 54811.44
747.9804, 54776.74
748.4625, 54816.20
748.9446, 54921.06
749.4268, 54966.08
749.9089, 54847.27
750.3910, 54734.87
750.8731, 54708.97
751.3552, 54779.56
751.8373, 54789.39
752.3195, 54727.73
752.8016, 54652.34
753.2837, 54609.11
753.7658, 54589.46
754.2479, 54544.22
754.7300, 54470.30
755.2122, 54427.52
755.6943, 54498.29
756.1764, 54605.31
756.6585, 54661.04
757.1406, 54634.40
757.6227, 54612.70
758.1049, 54616.15
758.5870, 54631.11
759.0691, 54648.12
759.5512, 54671.93
760.0333, 54673.65
760.5154, 54645.18
760.9976, 54607.25
761.4797, 54594.50
761.9618, 54599.79
762.4439, 54569.68
762.9260, 54485.36
763.4081, 54403.50
763.8903, 54392.48
764.3724, 54421.22
764.8545, 54442.23
765.3366, 54448.04
765.8187, 54437.89
766.3008, 54389.00
766.7830, 54330.66
767.2651, 54312.49
767.7472, 54346.73
768.2293, 54386.90
768.7114, 54424.09
769.1935, 54460.05
769.6757, 54502.38
770.1578, 54548.19
770.6399, 54582.81
771.1220, 54592.67
771.6041, 54598.07
772.0862, 54636.66
772.5684, 54689.97
773.0505, 54711.81
773.5326, 54650.06
774.0147, 54590.80
774.4968, 54570.09
774.9789, 54579.89
775.4611, 54584.72
775.9432, 54590.86
776.4253, 54576.11
776.9074, 54518.29
777.3895, 54439.95
777.8716, 54437.64
778.3538, 54505.92
778.8359, 54570.74
779.3180, 54590.95
779.8001, 54584.52
780.2822, 54550.66
780.7643, 54500.65
781.2465, 54494.32
781.7286, 54601.07
782.2107, 54716.46
782.6928, 54783.44
783.1749, 54803.57
783.6570, 54859.75
784.1392, 54973.53
784.6213, 55065.85
785.1034, 55086.31
785.5855, 55043.95
786.0676, 54981.56
786.5497, 54898.89
787.0319, 54858.08
787.5140, 54942.23
787.9961, 55065.82
788.4782, 55142.80
788.9603, 55166.09
789.4424, 55157.90
789.9246, 55100.23
790.4067, 55035.71
790.8888, 54990.88
791.3709, 54970.98
791.8530, 54942.81
792.3351, 54900.70
792.8173, 54870.09
793.2994, 54895.39
793.7815, 54954.54
794.2636, 54925.84
794.7457, 54800.18
795.2278, 54684.74
795.7100, 54669.27
796.1921, 54704.54
796.6742, 54749.15
797.1563, 54804.02
797.6384, 54834.14
798.1205, 54802.85
798.6027, 54766.05
799.0848, 54761.14
799.5669, 54796.18
800.0490, 54829.72
800.5311, 54861.71
801.0132, 54887.39
801.4954, 54899.23
801.9775, 54899.57
802.4596, 54886.67
802.9417, 54853.29
803.4238, 54855.16
803.9059, 54982.00
804.3881, 55138.65
804.8702, 55228.98
805.3523, 55209.38
805.8344, 55180.63
806.3165, 55146.22
806.7986, 55114.69
807.2808, 55092.74
807.7629, 55080.53
808.2450, 55090.55
808.7271, 55129.00
809.2092, 55171.25
809.6913, 55192.68
810.1735, 55196.06
810.6556, 55179.75
811.1377, 55131.82
811.6198, 55104.12
812.1019, 55144.13
812.5840, 55207.65
813.0662, 55248.82
813.5483, 55257.71
814.0304, 55245.48
814.5125, 55202.37
814.9946, 55150.68
815.4767, 55116.81
815.9589, 55100.76
816.4410, 55092.47
816.9231, 55095.19
817.4052, 55092.05
817.8873, 55053.00
818.3694, 55002.48
818.8516, 54978.93
819.3337, 55011.43
819.8158, 55033.48
820.2979, 55003.04
820.7800, 54963.67
821.2621, 54962.25
821.7443, 55006.90
822.2264, 55062.36
822.7085, 55126.50
823.1906, 55192.46
823.6727, 55246.87
824.1548, 55292.01
824.6370, 55350.98
825.1191, 55433.92
825.6012, 55497.36
826.0833, 55475.84
826.5654, 55426.07
827.0475, 55417.20
827.5297, 55502.51
828.0118, 55571.13
828.4939, 55624.28
828.9760, 55651.20
829.4581, 55631.56
829.9402, 55561.13
830.4224, 55504.97
830.9045, 55471.57
831.3866, 55455.20
831.8687, 55455.63
832.3508, 55467.16
832.8329, 55479.06
833.3151, 55490.59
833.7972, 55495.87
834.2793, 55477.93
834.7614, 55458.26
835.2435, 55463.32
835.7256, 55526.91
836.2078, 55542.27
836.6899, 55488.30
837.1720, 55418.02
837.6541, 55388.71
838.1362, 55397.54
838.6183, 55429.04
839.1005, 55483.20
839.5826, 55548.46
840.0647, 55623.55
840.5468, 55699.42
841.0289, 55766.78
841.5110, 55827.13
841.9932, 55870.86
842.4753, 55870.91
842.9574, 55872.25
843.4395, 55920.85
843.9216, 56031.93
844.4037, 56086.88
844.8859, 56070.05
845.3680, 56038.22
845.8501, 56059.23
846.3322, 56107.60
846.8143, 56129.84
847.2964, 56112.86
847.7786, 56096.45
848.2607, 56115.19
848.7428, 56136.57
849.2249, 56128.23
849.7070, 56065.30
850.1891, 56043.21
850.6713, 56072.34
851.1534, 56125.71
851.6355, 56204.68
852.1176, 56296.37
852.5997, 56295.21
853.0818, 56189.72
853.5640, 56104.80
854.0461, 56197.55
854.5282, 56329.00
855.0103, 56344.40
855.4924, 56195.15
855.9745, 56095.90
856.4567, 56116.98
856.9388, 56164.31
857.4209, 56183.25
857.9030, 56169.01
858.3851, 56200.73
858.8672, 56284.40
859.3494, 56354.27
859.8315, 56328.00
860.3136, 56265.27
860.7957, 56265.57
861.2778, 56332.89
861.7599, 56407.15
862.2421, 56454.34
862.7242, 56503.60
863.2063, 56591.11
863.6884, 56717.39
864.1705, 56746.46
864.6526, 56637.79
865.1348, 56551.23
865.6169, 56612.95
866.0990, 56762.84
866.5811, 56779.76
867.0632, 56678.96
867.5453, 56584.39
868.0275, 56572.78
868.5096, 56596.25
868.9917, 56638.84
869.4738, 56695.77
869.9559, 56725.79
870.4380, 56730.13
870.9202, 56705.60
871.4023, 56632.73
871.8844, 56537.87
872.3665, 56550.54
872.8486, 56663.53
873.3307, 56757.02
873.8129, 56749.54
874.2950, 56710.45
874.7771, 56700.75
875.2592, 56717.79
875.7413, 56756.68
876.2234, 56834.43
876.7056, 56908.77
877.1877, 56972.76
877.6698, 57023.34
878.1519, 57050.82
878.6340, 57052.32
879.1161, 57046.98
879.5983, 57028.41
880.0804, 57026.77
880.5625, 57128.27
881.0446, 57276.96
881.5267, 57352.26
882.0089, 57225.57
882.4910, 57127.23
882.9731, 57167.85
883.4552, 57268.57
883.9373, 57312.65
884.4194, 57282.14
884.9016, 57258.27
885.3837, 57251.16
885.8658, 57254.45
886.3479, 57273.34
886.8300, 57295.95
887.3121, 57277.39
887.7943, 57187.68
888.2764, 57134.34
888.7585, 57214.84
889.2406, 57346.43
889.7227, 57445.36
890.2048, 57499.41
890.6870, 57525.47
891.1691, 57507.81
891.6512, 57488.04
892.1333, 57501.48
892.6154, 57544.05
893.0975, 57618.37
893.5797, 57723.52
894.0618, 57798.16
894.5439, 57776.42
895.0260, 57716.06
895.5081, 57664.52
895.9902, 57629.95
896.4724, 57589.80
896.9545, 57521.67
897.4366, 57488.70
897.9187, 57549.76
898.4008, 57687.12
898.8829, 57720.80
899.3651, 57656.72
899.8472, 57590.21
900.3293, 57559.15
900.8114, 57575.89
901.2935, 57697.56
901.7756, 57896.39
902.2578, 58006.31
902.7399, 57869.68
903.2220, 57770.75
903.7041, 57784.65
904.1862, 57883.67
904.6683, 57975.03
905.1505, 58056.03
905.6326, 58140.05
906.1147, 58240.61
906.5968, 58332.03
907.0789, 58387.60
907.5610, 58411.31
908.0432, 58412.56
908.5253, 58373.82
909.0074, 58339.78
909.4895, 58310.53
909.9716, 58297.39
910.4537, 58333.48
910.9359, 58426.92
911.4180, 58456.81
911.9001, 58388.88
912.3822, 58305.21
912.8643, 58317.70
913.3464, 58373.96
913.8286, 58388.86
914.3107, 58325.03
914.7928, 58271.92
915.2749, 58246.69
915.7570, 58251.89
916.2391, 58309.15
916.7213, 58449.23
917.2034, 58445.88
917.6855, 58275.54
918.1676, 58112.13
918.6497, 58138.97
919.1318, 58257.08
919.6140, 58315.84
920.0961, 58304.57
920.5782, 58266.25
921.0603, 58164.52
921.5424, 58094.09
922.0245, 58116.60
922.5067, 58221.39
922.9888, 58263.07
923.4709, 58226.93
923.9530, 58220.59
924.4351, 58339.21
924.9172, 58484.29
925.3994, 58443.27
925.8815, 58275.60
926.3636, 58164.30
926.8457, 58262.34
927.3278, 58350.56
927.8099, 58333.55
928.2921, 58259.09
928.7742, 58214.87
929.2563, 58208.61
929.7384, 58187.94
930.2205, 58131.39
930.7026, 58085.05
931.1848, 58146.97
931.6669, 58259.90
932.1490, 58308.06
932.6311, 58229.81
933.1132, 58163.73
933.5953, 58178.75
934.0775, 58218.82
934.5596, 58231.16
935.0417, 58203.41
935.5238, 58208.98
936.0059, 58256.46
936.4880, 58300.50
936.9702, 58283.95
937.4523, 58243.80
937.9344, 58254.03
938.4165, 58318.05
938.8986, 58362.80
939.3807, 58346.38
939.8629, 58309.86
940.3450, 58255.33
940.8271, 58190.48
941.3092, 58203.98
941.7913, 58307.26
942.2734, 58404.21
942.7556, 58453.79
943.2377, 58465.11
943.7198, 58425.57
944.2019, 58357.31
944.6840, 58321.54
945.1661, 58355.46
945.6483, 58409.73
946.1304, 58507.36
946.6125, 58597.43
947.0946, 58587.88
947.5767, 58464.34
948.0588, 58373.62
948.5410, 58342.34
949.0231, 58335.08
949.5052, 58315.59
949.9873, 58290.42
950.4694, 58268.30
950.9515, 58251.69
951.4337, 58241.84
951.9158, 58240.00
952.3979, 58247.46
952.8800, 58271.66
953.3621, 58315.64
953.8442, 58315.98
954.3264, 58269.14
954.8085, 58235.90
955.2906, 58255.74
955.7727, 58314.19
956.2548, 58413.86
956.7369, 58541.68
957.2191, 58637.99
957.7012, 58655.26
958.1833, 58666.26
958.6654, 58687.43
959.1475, 58714.18
959.6296, 58733.56
960.1118, 58745.95
960.5939, 58761.38
961.0760, 58787.91
961.5581, 58810.53
962.0402, 58809.07
962.5223, 58796.37
963.0045, 58789.84
963.4866, 58789.22
963.9687, 58810.11
964.4508, 58876.89
964.9329, 58934.75
965.4150, 58912.63
965.8972, 58824.24
966.3793, 58803.57
966.8614, 58858.90
967.3435, 58930.39
967.8256, 58998.98
968.3077, 59042.61
968.7899, 59024.98
969.2720, 58943.23
969.7541, 58910.77
970.2362, 58957.90
970.7183, 58998.05
971.2004, 58990.70
971.6826, 58959.80
972.1647, 58987.55
972.6468, 59058.59
973.1289, 59106.14
973.6110, 59066.66
974.0931, 59039.69
974.5753, 59125.34
975.0574, 59244.58
975.5395, 59256.02
976.0216, 59099.31
976.5037, 58999.71
976.9858, 58982.93
977.4680, 59000.42
977.9501, 59008.98
978.4322, 59006.11
978.9143, 58974.95
979.3964, 58910.27
979.8785, 58877.17
980.3607, 58958.16
980.8428, 59036.02
981.3249, 59037.02
981.8070, 58965.81
982.2891, 58910.12
982.7712, 58869.20
983.2534, 58865.83
983.7355, 58933.05
984.2176, 59027.60
984.6997, 59089.15
985.1818, 59125.29
985.6639, 59155.71
986.1461, 59184.18
986.6282, 59206.51
987.1103, 59209.08
987.5924, 59211.93
988.0745, 59248.60
988.5566, 59316.36
989.0388, 59381.88
989.5209, 59440.67
990.0030, 59484.75
990.4851, 59506.50
990.9672, 59509.97
991.4493, 59493.89
991.9315, 59452.81
992.4136, 59437.82
992.8957, 59475.20
993.3778, 59498.89
993.8599, 59465.64
994.3420, 59396.82
994.8242, 59388.10
995.3063, 59427.34
995.7884, 59444.79
996.2705, 59362.72
996.7526, 59292.00
997.2347, 59318.41
997.7169, 59396.54
998.1990, 59421.00
998.6811, 59364.54
999.1632, 59336.47
999.6453, 59351.27
1000.127, 59392.83
1000.610, 59479.68
1001.092, 59567.82
1001.574, 59547.20
1002.056, 59384.25
1002.538, 59268.47
1003.020, 59317.35
1003.502, 59394.48
1003.984, 59423.08
1004.466, 59407.60
1004.949, 59430.48
1005.431, 59493.51
1005.913, 59544.21
1006.395, 59539.55
1006.877, 59523.96
1007.359, 59549.51
1007.841, 59601.98
1008.323, 59648.05
1008.806, 59679.55
1009.288, 59703.11
1009.770, 59717.54
1010.252, 59723.88
1010.734, 59698.17
1011.216, 59659.29
1011.698, 59729.20
1012.180, 59932.22
1012.662, 60083.73
1013.145, 59998.89
1013.627, 59858.41
1014.109, 59803.50
1014.591, 59839.38
1015.073, 59831.21
1015.555, 59766.02
1016.037, 59714.53
1016.519, 59712.45
1017.002, 59740.38
1017.484, 59790.64
1017.966, 59841.87
1018.448, 59841.94
1018.930, 59689.14
1019.412, 59592.03
1019.894, 59640.77
1020.376, 59727.18
1020.858, 59726.41
1021.341, 59639.46
1021.823, 59600.10
1022.305, 59620.53
1022.787, 59651.75
1023.269, 59643.87
1023.751, 59635.62
1024.233, 59670.84
1024.715, 59750.38
1025.198, 59805.00
1025.680, 59816.60
1026.162, 59827.16
1026.644, 59831.56
1027.126, 59860.71
1027.608, 60019.31
1028.090, 60260.09
1028.572, 60452.26
1029.054, 60543.48
1029.536, 60585.47
1030.019, 60560.44
1030.501, 60519.14
1030.983, 60518.86
1031.465, 60576.63
1031.947, 60560.54
1032.429, 60466.98
1032.911, 60359.28
1033.393, 60269.50
1033.876, 60210.45
1034.358, 60236.17
1034.840, 60323.04
1035.322, 60326.32
1035.804, 60137.76
1036.286, 59996.37
1036.768, 59959.68
1037.250, 59980.38
1037.733, 59967.93
1038.215, 59932.39
1038.697, 59910.43
1039.179, 59907.35
1039.661, 59924.75
1040.143, 59980.74
1040.625, 60040.93
1041.107, 60073.38
1041.589, 60074.15
1042.072, 60091.30
1042.554, 60126.81
1043.036, 60162.66
1043.518, 60190.36
1044.000, 60211.71
1044.482, 60218.58
1044.964, 60221.38
1045.446, 60245.61
1045.928, 60337.21
1046.411, 60394.98
1046.893, 60392.17
1047.375, 60373.96
1047.857, 60408.35
1048.339, 60479.33
1048.821, 60498.94
1049.303, 60455.57
1049.785, 60427.26
1050.268, 60488.43
1050.750, 60561.08
1051.232, 60589.00
1051.714, 60578.84
1052.196, 60582.52
1052.678, 60603.07
1053.160, 60623.22
1053.642, 60645.97
1054.125, 60651.96
1054.607, 60614.96
1055.089, 60544.94
1055.571, 60452.59
1056.053, 60303.09
1056.535, 60217.79
1057.017, 60223.82
1057.499, 60264.48
1057.981, 60303.05
1058.464, 60339.86
1058.946, 60369.55
1059.428, 60394.83
1059.910, 60436.98
1060.392, 60527.78
1060.874, 60616.95
1061.356, 60665.66
1061.838, 60697.36
1062.320, 60768.44
1062.803, 60887.14
1063.285, 60976.14
1063.767, 61019.55
1064.249, 61052.29
1064.731, 61120.25
1065.213, 61193.61
1065.695, 61238.12
1066.177, 61247.96
1066.660, 61232.45
1067.142, 61168.40
1067.624, 61128.79
1068.106, 61150.16
1068.588, 61208.64
1069.070, 61235.30
1069.552, 61243.47
1070.034, 61280.01
1070.516, 61409.01
1070.999, 61491.64
1071.481, 61413.92
1071.963, 61308.90
1072.445, 61312.20
1072.927, 61437.44
1073.409, 61465.40
1073.891, 61392.72
1074.373, 61307.34
1074.855, 61277.89
1075.338, 61259.45
1075.820, 61205.45
1076.302, 61128.50
1076.784, 61078.65
1077.266, 61058.36
1077.748, 61073.05
1078.230, 61136.39
1078.713, 61202.17
1079.195, 61192.55
1079.677, 61146.38
1080.159, 61148.89
1080.641, 61220.97
1081.123, 61247.61
1081.605, 61119.59
1082.087, 61018.61
1082.569, 61016.47
1083.052, 61091.09
1083.534, 61169.02
1084.016, 61244.65
1084.498, 61294.23
1084.980, 61294.91
1085.462, 61288.06
1085.944, 61297.18
1086.426, 61312.54
1086.908, 61323.79
1087.391, 61330.98
1087.873, 61337.31
1088.355, 61343.97
1088.837, 61346.10
1089.319, 61333.59
1089.801, 61321.05
1090.283, 61331.25
1090.765, 61357.36
1091.248, 61372.07
1091.730, 61370.29
1092.212, 61356.55
1092.694, 61322.69
1093.176, 61295.82
1093.658, 61326.36
1094.140, 61388.63
1094.622, 61406.54
1095.104, 61369.44
1095.587, 61381.98
1096.069, 61575.61
1096.551, 61724.42
1097.033, 61708.99
1097.515, 61595.20
1097.997, 61638.78
1098.479, 61815.03
1098.961, 61929.13
1099.443, 61899.09
1099.926, 61852.24
1100.408, 61887.80
1100.890, 61943.35
1101.372, 61955.32
1101.854, 61915.26
1102.336, 61881.63
1102.818, 61854.34
1103.300, 61828.93
1103.783, 61810.11
1104.265, 61788.16
1104.747, 61739.77
1105.229, 61684.32
1105.711, 61664.55
1106.193, 61738.05
1106.675, 61760.50
1107.157, 61711.50
1107.640, 61653.04
1108.122, 61642.84
1108.604, 61672.32
1109.086, 61734.69
1109.568, 61824.28
1110.050, 61898.49
1110.532, 61922.60
1111.014, 61945.68
1111.496, 61969.04
1111.979, 62004.36
1112.461, 62095.21
1112.943, 62224.07
1113.425, 62285.23
1113.907, 62245.07
1114.389, 62235.80
1114.871, 62412.23
1115.353, 62582.53
1115.835, 62599.20
1116.318, 62484.86
1116.800, 62452.23
1117.282, 62502.99
1117.764, 62538.91
1118.246, 62522.63
1118.728, 62481.75
1119.210, 62435.91
1119.692, 62387.20
1120.175, 62338.89
1120.657, 62295.63
1121.139, 62239.69
1121.621, 62163.90
1122.103, 62111.83
1122.585, 62131.60
1123.067, 62180.89
1123.549, 62198.74
1124.031, 62192.67
1124.514, 62183.32
1124.996, 62157.40
1125.478, 62159.02
1125.960, 62196.78
1126.442, 62249.46
1126.924, 62302.34
1127.406, 62350.52
1127.888, 62371.83
1128.370, 62369.14
1128.853, 62382.56
1129.335, 62451.91
1129.817, 62509.13
1130.299, 62520.90
1130.781, 62518.69
1131.263, 62586.90
1131.745, 62702.68
1132.227, 62742.96
1132.710, 62681.59
1133.192, 62590.75
1133.674, 62460.95
1134.156, 62373.90
1134.638, 62390.65
1135.120, 62496.48
1135.602, 62625.73
1136.084, 62778.35
1136.567, 62851.56
1137.049, 62789.39
1137.531, 62693.84
1138.013, 62630.96
1138.495, 62595.34
1138.977, 62582.32
1139.459, 62588.68
1139.941, 62617.05
1140.423, 62669.04
1140.906, 62721.42
1141.388, 62754.38
1141.870, 62786.92
1142.352, 62862.10
1142.834, 62949.24
1143.316, 62991.83
1143.798, 62939.16
1144.280, 62931.00
1144.762, 62984.82
1145.245, 63036.03
1145.727, 63017.37
1146.209, 62968.05
1146.691, 62958.52
1147.173, 62979.95
1147.655, 62988.43
1148.137, 62940.86
1148.619, 62921.52
1149.102, 62941.13
1149.584, 62987.51
1150.066, 63074.82
1150.548, 63168.77
1151.030, 63153.78
1151.512, 63028.26
1151.994, 62958.91
1152.476, 63071.11
1152.958, 63187.87
1153.441, 63263.01
1153.923, 63303.53
1154.405, 63319.26
1154.887, 63315.07
1155.369, 63313.77
1155.851, 63323.17
1156.333, 63311.55
1156.815, 63256.10
1157.297, 63176.92
1157.780, 63067.13
1158.262, 62947.17
1158.744, 62926.10
1159.226, 62992.71
1159.708, 63046.44
1160.190, 63049.91
1160.672, 63047.17
1161.154, 63069.85
1161.637, 63098.18
1162.119, 63108.98
1162.601, 63102.13
1163.083, 63152.27
1163.565, 63258.63
1164.047, 63315.61
1164.529, 63234.85
1165.011, 63138.45
1165.494, 63117.01
1165.976, 63146.05
1166.458, 63200.02
1166.940, 63298.83
1167.422, 63301.09
1167.904, 63192.70
1168.386, 63125.74
1168.868, 63257.85
1169.350, 63430.18
1169.833, 63495.23
1170.315, 63477.40
1170.797, 63423.18
1171.279, 63299.10
1171.761, 63262.57
1172.243, 63328.59
1172.725, 63448.06
1173.207, 63643.81
1173.689, 63823.60
1174.172, 63850.89
1174.654, 63753.77
1175.136, 63675.95
1175.618, 63632.09
1176.100, 63615.77
1176.582, 63627.51
1177.064, 63664.57
1177.546, 63735.58
1178.029, 63823.92
1178.511, 63925.45
1178.993, 64034.21
1179.475, 64064.66
1179.957, 63951.07
1180.439, 63883.07
1180.921, 63906.51
1181.403, 63983.76
1181.885, 64091.62
1182.368, 64198.50
1182.850, 64214.87
1183.332, 64113.82
1183.814, 64138.38
1184.296, 64438.20
1184.778, 64666.50
1185.260, 64697.43
1185.742, 64608.23
1186.224, 64532.30
1186.707, 64464.88
1187.189, 64391.45
1187.671, 64301.11
1188.153, 64247.10
1188.635, 64263.11
1189.117, 64280.04
1189.599, 64251.00
1190.081, 64214.36
1190.564, 64303.93
1191.046, 64469.46
1191.528, 64577.76
1192.010, 64563.66
1192.492, 64546.92
1192.974, 64547.27
1193.456, 64562.38
1193.938, 64613.84
1194.421, 64672.32
1194.903, 64602.15
1195.385, 64441.89
1195.867, 64320.50
1196.349, 64317.00
1196.831, 64318.28
1197.313, 64291.82
1197.795, 64271.29
1198.277, 64291.86
1198.760, 64341.41
1199.242, 64373.30
1199.724, 64382.23
1200.206, 64347.29
1200.688, 64137.43
1201.170, 64052.51
1201.652, 64244.69
1202.134, 64477.56
1202.616, 64484.73
1203.099, 64321.05
1203.581, 64268.19
1204.063, 64320.93
1204.545, 64365.99
1205.027, 64327.73
1205.509, 64302.32
1205.991, 64331.45
1206.473, 64373.32
1206.956, 64372.84
1207.438, 64338.30
1207.920, 64296.99
1208.402, 64254.45
1208.884, 64235.86
1209.366, 64272.50
1209.848, 64316.54
1210.330, 64365.73
1210.813, 64399.06
1211.295, 64346.25
1211.777, 64241.53
1212.259, 64271.34
1212.741, 64451.08
1213.223, 64605.37
1213.705, 64619.79
1214.187, 64618.61
1214.669, 64639.88
1215.151, 64684.34
1215.634, 64766.45
1216.116, 64872.92
1216.598, 64949.82
1217.080, 64986.59
1217.562, 65026.03
1218.044, 65125.65
1218.526, 65177.16
1219.008, 65099.05
1219.491, 64979.27
1219.973, 65040.79
1220.455, 65238.87
1220.937, 65422.53
1221.419, 65564.00
1221.901, 65659.91
1222.383, 65692.79
1222.865, 65691.70
1223.348, 65665.87
1223.830, 65618.63
1224.312, 65549.13
1224.794, 65467.29
1225.276, 65408.67
1225.758, 65392.44
1226.240, 65357.17
1226.722, 65244.17
1227.204, 65155.82
1227.687, 65144.67
1228.169, 65180.52
1228.651, 65172.74
1229.133, 65137.21
1229.615, 65125.68
1230.097, 65169.12
1230.579, 65172.55
1231.061, 65060.79
1231.543, 64970.97
1232.026, 64975.59
1232.508, 65038.36
1232.990, 65058.56
1233.472, 65051.63
1233.954, 65055.39
1234.436, 65064.00
1234.918, 65138.13
1235.400, 65345.07
1235.883, 65517.07
1236.365, 65543.31
1236.847, 65488.19
1237.329, 65540.82
1237.811, 65647.98
1238.293, 65676.96
1238.775, 65513.93
1239.257, 65454.04
1239.740, 65577.17
1240.222, 65694.81
1240.704, 65688.09
1241.186, 65602.88
1241.668, 65528.96
1242.150, 65464.16
1242.632, 65405.64
1243.114, 65344.89
1243.596, 65311.01
1244.078, 65308.81
1244.561, 65324.70
1245.043, 65347.59
1245.525, 65385.95
1246.007, 65493.90
1246.489, 65621.54
1246.971, 65659.77
1247.453, 65482.46
1247.935, 65414.22
1248.418, 65472.79
1248.900, 65569.37
1249.382, 65659.61
1249.864, 65735.80
1250.346, 65793.32
1250.828, 65824.67
1251.310, 65808.32
1251.792, 65691.90
1252.275, 65666.65
1252.757, 65747.52
1253.239, 65825.99
1253.721, 65809.09
1254.203, 65766.70
1254.685, 65799.62
1255.167, 65856.18
1255.649, 65824.72
1256.131, 65673.71
1256.614, 65559.52
1257.096, 65485.05
1257.578, 65476.68
1258.060, 65635.41
1258.542, 65787.04
1259.024, 65721.70
1259.506, 65580.80
1259.988, 65623.22
1260.470, 65878.67
1260.953, 66076.63
1261.435, 66208.08
1261.917, 66283.30
1262.399, 66261.13
1262.881, 66234.38
1263.363, 66265.86
1263.845, 66322.69
1264.327, 66370.30
1264.810, 66407.72
1265.292, 66363.09
1265.774, 66246.13
1266.256, 66207.44
1266.738, 66431.89
1267.220, 66637.07
1267.702, 66695.13
1268.184, 66679.27
1268.667, 66647.98
1269.149, 66605.66
1269.631, 66583.02
1270.113, 66579.88
1270.595, 66585.48
1271.077, 66616.69
1271.559, 66626.84
1272.041, 66614.97
1272.523, 66571.16
1273.005, 66460.37
1273.488, 66314.08
1273.970, 66225.80
1274.452, 66194.87
1274.934, 66203.42
1275.416, 66262.09
1275.898, 66344.47
1276.380, 66463.70
1276.862, 66567.89
1277.345, 66589.73
1277.827, 66566.88
1278.309, 66558.07
1278.791, 66563.52
1279.273, 66576.74
1279.755, 66581.97
1280.237, 66630.08
1280.719, 66733.69
1281.202, 66838.43
1281.684, 66911.38
1282.166, 66950.69
1282.648, 66927.80
1283.130, 66873.73
1283.612, 66878.63
1284.094, 66963.89
1284.576, 67034.71
1285.058, 67086.35
1285.541, 67118.22
1286.023, 67114.98
1286.505, 67105.80
1286.987, 67111.63
1287.469, 67126.82
1287.951, 67136.41
1288.433, 67137.88
1288.915, 67164.49
1289.397, 67215.68
1289.880, 67262.29
1290.362, 67297.37
1290.844, 67308.03
1291.326, 67261.38
1291.808, 67208.17
1292.290, 67200.77
1292.772, 67236.40
1293.254, 67322.92
1293.737, 67446.26
1294.219, 67511.12
1294.701, 67394.30
1295.183, 67329.73
1295.665, 67397.55
1296.147, 67476.97
1296.629, 67421.47
1297.111, 67294.30
1297.594, 67254.25
1298.076, 67290.44
1298.558, 67335.82
1299.040, 67358.48
1299.522, 67426.38
1300.004, 67558.86
1300.486, 67656.77
1300.968, 67586.61
1301.450, 67464.57
1301.932, 67455.86
##END=



