##NAMES=Gehlenite
##RRUFFID=R061091
##IDEAL CHEMISTRY=Ca_2_Al(SiAl)O_7_
##LOCALITY=Carneal Plug, Glenoe Larne District, County Antrim, Northern Ireland
##OWNER=RRUFF
##SOURCE=Michael Scott
##DESCRIPTION=Yellowish-brown anhedral blebs associated with black magnetite and white wollastonite
##STATUS=The identification of this mineral is confirmed by single-crystal X-ray diffraction and chemical analysis.
##URL=rruff.info/R061091
##MEASURED CHEMISTRY=(Ca_1.64_Na_0.36_)_Σ=2_(Al_0.38_Fe_0.36_Mg_0.26_)_Σ=1_(Si_1.98_Al_0.02_)_Σ=2_O_7_
137.0571, 1428.063
137.5392, 1437.463
138.0213, 1461.071
138.5035, 1485.631
138.9856, 1504.692
139.4677, 1518.807
139.9498, 1527.561
140.4319, 1518.269
140.9140, 1519.884
141.3961, 1559.507
141.8783, 1636.931
142.3604, 1720.519
142.8425, 1785.541
143.3246, 1833.254
143.8067, 1887.584
144.2888, 1957.836
144.7710, 2032.598
145.2531, 2107.439
145.7352, 2164.318
146.2173, 2188.412
146.6994, 2178.880
147.1815, 2151.441
147.6637, 2130.537
148.1458, 2126.939
148.6279, 2125.353
149.1100, 2116.179
149.5921, 2098.577
150.0742, 2080.548
150.5564, 2073.111
151.0385, 2079.489
151.5206, 2077.764
152.0027, 2058.950
152.4848, 2034.481
152.9669, 2007.619
153.4491, 1979.533
153.9312, 1953.744
154.4133, 1937.484
154.8954, 1936.235
155.3775, 1925.496
155.8596, 1891.423
156.3418, 1854.562
156.8239, 1828.327
157.3060, 1815.587
157.7881, 1809.609
158.2702, 1800.153
158.7523, 1784.871
159.2345, 1771.675
159.7166, 1759.077
160.1987, 1749.726
160.6808, 1747.174
161.1629, 1751.919
161.6451, 1759.365
162.1272, 1761.970
162.6093, 1759.384
163.0914, 1753.167
163.5735, 1738.392
164.0556, 1724.307
164.5378, 1720.107
165.0199, 1727.881
165.5020, 1740.098
165.9841, 1742.780
166.4662, 1729.078
166.9483, 1717.636
167.4305, 1709.641
167.9126, 1703.615
168.3947, 1699.318
168.8768, 1696.413
169.3589, 1693.035
169.8410, 1685.236
170.3232, 1667.153
170.8053, 1653.280
171.2874, 1644.767
171.7695, 1639.434
172.2516, 1635.395
172.7337, 1631.944
173.2159, 1629.334
173.6980, 1628.300
174.1801, 1632.816
174.6622, 1632.950
175.1443, 1625.745
175.6264, 1615.642
176.1085, 1607.062
176.5907, 1601.440
177.0728, 1596.457
177.5549, 1587.544
178.0370, 1565.419
178.5191, 1552.401
179.0012, 1554.381
179.4834, 1562.484
179.9655, 1569.303
180.4476, 1572.302
180.9297, 1571.681
181.4118, 1567.675
181.8939, 1555.302
182.3761, 1546.827
182.8582, 1545.113
183.3403, 1546.024
183.8224, 1544.928
184.3045, 1540.446
184.7866, 1535.526
185.2688, 1535.523
185.7509, 1547.944
186.2330, 1552.905
186.7151, 1546.201
187.1972, 1533.823
187.6793, 1521.686
188.1615, 1511.428
188.6436, 1501.033
189.1257, 1486.853
189.6078, 1463.952
190.0899, 1446.856
190.5720, 1436.571
191.0542, 1431.829
191.5363, 1432.120
192.0184, 1437.229
192.5005, 1445.597
192.9826, 1455.375
193.4647, 1469.025
193.9469, 1478.366
194.4290, 1483.498
194.9111, 1484.189
195.3932, 1478.694
195.8753, 1466.901
196.3574, 1452.902
196.8396, 1441.677
197.3217, 1432.367
197.8038, 1429.789
198.2859, 1442.774
198.7680, 1457.680
199.2501, 1460.516
199.7323, 1448.902
200.2144, 1432.500
200.6965, 1422.084
201.1786, 1418.341
201.6607, 1421.576
202.1428, 1437.984
202.6250, 1457.635
203.1071, 1474.423
203.5892, 1486.882
204.0713, 1491.997
204.5534, 1484.100
205.0355, 1457.392
205.5177, 1444.828
205.9998, 1457.076
206.4819, 1475.886
206.9640, 1487.334
207.4461, 1490.073
207.9282, 1491.415
208.4104, 1499.540
208.8925, 1516.409
209.3746, 1522.424
209.8567, 1507.732
210.3388, 1490.120
210.8209, 1480.422
211.3030, 1479.464
211.7852, 1483.802
212.2673, 1490.982
212.7494, 1501.228
213.2315, 1513.510
213.7136, 1532.941
214.1957, 1549.902
214.6779, 1556.333
215.1600, 1553.971
215.6421, 1552.789
216.1242, 1561.284
216.6063, 1578.990
217.0884, 1588.006
217.5706, 1585.470
218.0527, 1578.601
218.5348, 1565.527
219.0169, 1549.877
219.4990, 1543.210
219.9811, 1555.073
220.4633, 1582.598
220.9454, 1597.472
221.4275, 1587.910
221.9096, 1580.776
222.3917, 1591.748
222.8738, 1613.135
223.3560, 1625.777
223.8381, 1617.984
224.3202, 1594.154
224.8023, 1575.961
225.2844, 1563.947
225.7665, 1555.655
226.2487, 1552.059
226.7308, 1551.654
227.2129, 1552.298
227.6950, 1553.165
228.1771, 1553.819
228.6592, 1552.871
229.1414, 1551.734
229.6235, 1547.367
230.1056, 1535.492
230.5877, 1521.288
231.0698, 1512.439
231.5519, 1511.974
232.0341, 1515.620
232.5162, 1514.356
232.9983, 1503.727
233.4804, 1494.742
233.9625, 1488.306
234.4446, 1483.436
234.9268, 1480.441
235.4089, 1479.186
235.8910, 1476.402
236.3731, 1466.283
236.8552, 1439.764
237.3373, 1424.847
237.8195, 1433.693
238.3016, 1445.887
238.7837, 1443.789
239.2658, 1425.292
239.7479, 1402.029
240.2300, 1387.763
240.7122, 1385.209
241.1943, 1383.797
241.6764, 1383.838
242.1585, 1384.582
242.6406, 1385.680
243.1227, 1387.069
243.6049, 1389.084
244.0870, 1392.618
244.5691, 1398.643
245.0512, 1398.137
245.5333, 1386.865
246.0154, 1374.248
246.4975, 1362.364
246.9797, 1352.251
247.4618, 1345.781
247.9439, 1345.060
248.4260, 1349.728
248.9081, 1348.770
249.3902, 1335.460
249.8724, 1323.660
250.3545, 1315.418
250.8366, 1311.087
251.3187, 1311.396
251.8008, 1317.209
252.2829, 1326.843
252.7651, 1332.804
253.2472, 1333.787
253.7293, 1332.165
254.2114, 1326.383
254.6935, 1318.980
255.1756, 1312.723
255.6578, 1308.840
256.1399, 1306.457
256.6220, 1303.642
257.1041, 1300.552
257.5862, 1296.671
258.0684, 1291.353
258.5505, 1285.708
259.0326, 1279.981
259.5147, 1274.461
259.9968, 1257.728
260.4789, 1271.832
260.9611, 1278.685
261.4432, 1278.680
261.9253, 1251.270
262.4074, 1259.247
262.8895, 1253.043
263.3716, 1246.257
263.8537, 1259.215
264.3358, 1235.791
264.8180, 1248.436
265.3001, 1246.683
265.7822, 1251.519
266.2643, 1242.086
266.7464, 1237.061
267.2285, 1247.546
267.7107, 1257.456
268.1928, 1254.233
268.6749, 1240.427
269.1570, 1234.295
269.6391, 1241.458
270.1212, 1248.199
270.6034, 1249.084
271.0855, 1245.563
271.5676, 1239.772
272.0497, 1231.865
272.5318, 1223.072
273.0139, 1215.798
273.4961, 1209.522
273.9782, 1206.250
274.4603, 1206.287
274.9424, 1209.904
275.4245, 1219.358
275.9066, 1237.955
276.3888, 1256.013
276.8709, 1261.276
277.3530, 1253.196
277.8351, 1242.305
278.3172, 1226.252
278.7993, 1213.450
279.2815, 1215.594
279.7636, 1236.367
280.2457, 1254.723
280.7278, 1251.660
281.2099, 1232.243
281.6920, 1220.379
282.1742, 1223.749
282.6563, 1232.788
283.1384, 1238.035
283.6205, 1239.758
284.1026, 1238.232
284.5847, 1231.026
285.0669, 1221.369
285.5490, 1213.384
286.0311, 1207.065
286.5132, 1206.014
286.9953, 1217.334
287.4774, 1238.997
287.9596, 1254.233
288.4417, 1253.550
288.9238, 1250.440
289.4059, 1259.765
289.8880, 1280.629
290.3701, 1296.869
290.8523, 1296.406
291.3344, 1282.003
291.8165, 1273.386
292.2986, 1271.833
292.7807, 1274.109
293.2628, 1282.053
293.7450, 1292.844
294.2271, 1298.143
294.7092, 1292.547
295.1913, 1283.189
295.6734, 1290.571
296.1555, 1333.304
296.6377, 1363.793
297.1198, 1369.789
297.6019, 1363.359
298.0840, 1356.330
298.5661, 1352.274
299.0482, 1350.449
299.5304, 1349.998
300.0125, 1352.051
300.4946, 1352.571
300.9767, 1348.943
301.4588, 1346.046
301.9409, 1349.183
302.4231, 1357.015
302.9052, 1362.286
303.3873, 1357.498
303.8694, 1341.719
304.3515, 1332.612
304.8336, 1335.759
305.3158, 1339.804
305.7979, 1345.072
306.2800, 1348.577
306.7621, 1344.678
307.2442, 1329.007
307.7263, 1306.105
308.2085, 1293.191
308.6906, 1300.314
309.1727, 1300.725
309.6548, 1283.411
310.1369, 1261.112
310.6190, 1246.290
311.1012, 1242.844
311.5833, 1245.069
312.0654, 1245.351
312.5475, 1243.399
313.0296, 1240.892
313.5117, 1239.728
313.9939, 1236.635
314.4760, 1228.863
314.9581, 1216.649
315.4402, 1203.382
315.9223, 1193.131
316.4044, 1184.666
316.8866, 1168.998
317.3687, 1139.195
317.8508, 1113.595
318.3329, 1107.054
318.8150, 1113.522
319.2971, 1119.152
319.7793, 1120.547
320.2614, 1117.380
320.7435, 1107.071
321.2256, 1089.000
321.7077, 1072.631
322.1898, 1062.461
322.6720, 1057.837
323.1541, 1056.957
323.6362, 1062.129
324.1183, 1067.047
324.6004, 1067.309
325.0826, 1064.293
325.5647, 1062.860
326.0468, 1065.714
326.5289, 1068.286
327.0110, 1061.209
327.4931, 1041.686
327.9753, 1025.999
328.4574, 1019.693
328.9395, 1017.252
329.4216, 1013.141
329.9037, 1006.495
330.3858, 999.1049
330.8680, 992.7330
331.3501, 987.5765
331.8322, 981.4656
332.3143, 969.8997
332.7964, 961.8916
333.2785, 965.5206
333.7606, 976.0426
334.2427, 981.8856
334.7249, 975.7825
335.2070, 960.8653
335.6891, 950.6497
336.1712, 950.3306
336.6533, 948.2681
337.1354, 940.9211
337.6176, 932.7081
338.0997, 928.0128
338.5818, 928.0821
339.0639, 930.7971
339.5460, 934.2574
340.0281, 940.4091
340.5103, 940.2911
340.9924, 925.7900
341.4745, 911.4561
341.9566, 903.8336
342.4387, 902.5793
342.9208, 904.2471
343.4030, 907.5399
343.8851, 911.8015
344.3672, 913.5128
344.8493, 912.2545
345.3314, 909.1754
345.8135, 903.9896
346.2957, 897.6966
346.7778, 891.5555
347.2599, 885.9202
347.7420, 880.6982
348.2241, 874.3145
348.7062, 866.9395
349.1884, 865.5990
349.6705, 877.6866
350.1526, 892.0246
350.6347, 891.6927
351.1168, 874.1490
351.5989, 860.2645
352.0811, 864.6384
352.5632, 876.8734
353.0453, 877.7272
353.5274, 863.2050
354.0095, 846.6265
354.4916, 841.1816
354.9738, 847.8649
355.4559, 848.7261
355.9380, 836.7083
356.4201, 825.0914
356.9022, 822.5776
357.3843, 827.2206
357.8665, 832.2675
358.3486, 834.1473
358.8307, 833.3513
359.3128, 831.6860
359.7949, 827.2389
360.2770, 824.2708
360.7592, 825.3340
361.2413, 826.7708
361.7234, 824.5067
362.2055, 817.8442
362.6876, 809.6360
363.1697, 802.9407
363.6519, 796.9463
364.1340, 796.0631
364.6161, 810.1005
365.0982, 819.9518
365.5803, 814.4784
366.0624, 798.7547
366.5446, 785.4650
367.0267, 782.7139
367.5088, 787.6436
367.9909, 791.4206
368.4730, 792.9504
368.9551, 796.0757
369.4373, 807.7104
369.9194, 818.7295
370.4015, 818.4401
370.8836, 803.0310
371.3657, 786.6681
371.8478, 784.2028
372.3300, 792.8497
372.8121, 795.3823
373.2942, 785.9100
373.7763, 774.1223
374.2584, 771.3488
374.7405, 776.1273
375.2227, 778.0402
375.7048, 769.0002
376.1869, 759.3283
376.6690, 762.0645
377.1511, 776.3859
377.6332, 789.0023
378.1154, 791.8999
378.5975, 786.5769
379.0796, 780.4705
379.5617, 768.6412
380.0438, 762.0726
380.5259, 769.3335
381.0081, 781.0037
381.4902, 783.5366
381.9723, 773.2534
382.4544, 758.4632
382.9365, 750.9185
383.4186, 752.9328
383.9008, 754.9121
384.3829, 757.9464
384.8650, 759.9453
385.3471, 759.4952
385.8292, 757.1537
386.3113, 754.4867
386.7935, 752.6334
387.2756, 751.1456
387.7577, 747.6589
388.2398, 739.1697
388.7219, 735.0826
389.2040, 742.5986
389.6862, 752.6990
390.1683, 756.6667
390.6504, 752.4564
391.1325, 746.7214
391.6146, 744.8379
392.0967, 746.6587
392.5789, 752.7093
393.0610, 767.1591
393.5431, 778.1235
394.0252, 771.1711
394.5073, 751.0266
394.9894, 735.1493
395.4716, 727.6644
395.9537, 726.4553
396.4358, 732.5533
396.9179, 744.5126
397.4000, 753.9415
397.8821, 756.5854
398.3643, 753.9822
398.8464, 750.2043
399.3285, 745.0212
399.8106, 739.1990
400.2927, 727.9540
400.7748, 718.7817
401.2570, 723.1997
401.7391, 741.1965
402.2212, 758.4279
402.7033, 758.7913
403.1854, 740.1238
403.6675, 728.9554
404.1497, 727.8096
404.6317, 731.7054
405.1139, 745.5765
405.5960, 762.1807
406.0781, 769.9766
406.5602, 763.1975
407.0423, 749.5940
407.5244, 743.7834
408.0066, 747.9362
408.4887, 750.0655
408.9708, 744.9979
409.4529, 739.6940
409.9350, 740.0854
410.4171, 745.6176
410.8993, 749.3895
411.3814, 743.5055
411.8635, 734.1417
412.3456, 735.6390
412.8277, 749.9399
413.3098, 763.5598
413.7920, 769.0237
414.2741, 767.1856
414.7562, 762.6752
415.2383, 751.9571
415.7204, 743.6996
416.2025, 744.4615
416.6847, 749.4078
417.1668, 749.6987
417.6489, 742.9219
418.1310, 734.6273
418.6131, 732.3397
419.0952, 738.5322
419.5774, 740.0842
420.0595, 730.3896
420.5416, 723.2587
421.0237, 725.2890
421.5058, 734.7202
421.9879, 748.1755
422.4701, 764.4247
422.9522, 780.5494
423.4343, 788.2993
423.9164, 784.6585
424.3985, 780.0322
424.8806, 775.5522
425.3628, 771.1298
425.8449, 764.7659
426.3270, 757.1823
426.8091, 754.4874
427.2912, 765.6922
427.7733, 785.0803
428.2555, 793.8160
428.7376, 788.5981
429.2197, 784.2610
429.7018, 791.7993
430.1839, 806.2181
430.6660, 815.3620
431.1482, 816.2153
431.6303, 815.2775
432.1124, 813.2728
432.5945, 812.3190
433.0766, 817.6912
433.5587, 831.0118
434.0409, 846.3535
434.5230, 856.5906
435.0051, 860.7735
435.4872, 863.9033
435.9693, 863.8966
436.4514, 865.0891
436.9336, 869.9255
437.4157, 877.3765
437.8978, 885.6829
438.3799, 894.1192
438.8620, 901.7068
439.3441, 904.9168
439.8263, 899.8520
440.3084, 901.3410
440.7905, 916.6002
441.2726, 934.9578
441.7547, 951.6715
442.2368, 966.0741
442.7190, 978.3278
443.2011, 988.4576
443.6832, 996.5193
444.1653, 1002.027
444.6474, 1004.566
445.1295, 1007.538
445.6117, 1012.574
446.0938, 1019.285
446.5759, 1026.746
447.0580, 1035.557
447.5401, 1043.624
448.0222, 1048.912
448.5044, 1053.500
448.9865, 1061.162
449.4686, 1072.280
449.9507, 1082.635
450.4328, 1087.755
450.9149, 1087.392
451.3971, 1089.709
451.8792, 1098.666
452.3613, 1105.572
452.8434, 1107.333
453.3255, 1106.150
453.8076, 1105.552
454.2898, 1106.666
454.7719, 1106.371
455.2540, 1098.782
455.7361, 1082.601
456.2182, 1070.465
456.7003, 1062.661
457.1825, 1060.058
457.6646, 1067.575
458.1467, 1080.238
458.6288, 1085.191
459.1109, 1073.786
459.5930, 1057.048
460.0752, 1046.958
460.5573, 1042.636
461.0394, 1038.896
461.5215, 1034.406
462.0036, 1028.717
462.4857, 1019.671
462.9679, 1004.609
463.4500, 997.9623
463.9321, 1008.241
464.4142, 1021.408
464.8963, 1029.253
465.3784, 1031.327
465.8606, 1028.636
466.3427, 1021.219
466.8248, 1011.524
467.3069, 1007.522
467.7890, 1011.089
468.2711, 1017.080
468.7533, 1029.259
469.2354, 1040.141
469.7175, 1042.704
470.1996, 1037.918
470.6817, 1033.967
471.1638, 1037.917
471.6460, 1047.062
472.1281, 1052.821
472.6102, 1054.175
473.0923, 1057.808
473.5744, 1067.755
474.0565, 1081.589
474.5387, 1095.383
475.0208, 1111.502
475.5029, 1120.684
475.9850, 1113.395
476.4671, 1099.976
476.9492, 1094.549
477.4313, 1098.374
477.9135, 1102.500
478.3956, 1099.067
478.8777, 1088.964
479.3598, 1083.956
479.8419, 1089.683
480.3240, 1093.897
480.8062, 1092.920
481.2883, 1090.902
481.7704, 1093.923
482.2525, 1102.411
482.7346, 1108.607
483.2167, 1102.174
483.6989, 1084.277
484.1810, 1072.374
484.6631, 1069.262
485.1452, 1066.694
485.6273, 1056.750
486.1094, 1045.416
486.5916, 1043.091
487.0737, 1056.151
487.5558, 1067.524
488.0379, 1064.608
488.5200, 1052.871
489.0021, 1043.435
489.4843, 1038.621
489.9664, 1034.007
490.4485, 1024.582
490.9306, 1009.866
491.4127, 1001.758
491.8948, 1007.065
492.3770, 1009.965
492.8591, 1006.072
493.3412, 997.4034
493.8233, 984.3889
494.3054, 967.9331
494.7875, 954.1599
495.2697, 953.0297
495.7518, 965.3059
496.2339, 972.0009
496.7160, 968.7488
497.1981, 966.0865
497.6802, 974.2075
498.1624, 985.5712
498.6445, 985.8503
499.1266, 965.9311
499.6087, 946.0509
500.0908, 943.3763
500.5729, 952.3623
501.0551, 959.8405
501.5372, 962.9794
502.0193, 963.1423
502.5014, 961.5920
502.9835, 958.3024
503.4656, 953.2586
503.9478, 943.0210
504.4299, 935.2276
504.9120, 932.6141
505.3941, 933.7379
505.8762, 937.9163
506.3583, 944.5323
506.8405, 950.0596
507.3226, 948.9664
507.8047, 940.8295
508.2868, 934.6838
508.7689, 930.6238
509.2510, 928.7553
509.7332, 928.3719
510.2153, 930.2316
510.6974, 936.7368
511.1795, 951.4389
511.6616, 963.9290
512.1437, 962.9302
512.6259, 954.6180
513.1080, 955.3669
513.5901, 968.8910
514.0722, 980.5378
514.5543, 974.7421
515.0364, 950.9931
515.5186, 938.4946
516.0007, 945.8649
516.4828, 952.5729
516.9649, 954.2141
517.4470, 952.3021
517.9291, 947.6484
518.4113, 940.9593
518.8934, 935.1929
519.3755, 933.5229
519.8576, 935.8690
520.3397, 941.2647
520.8218, 953.3665
521.3040, 960.7552
521.7861, 952.8885
522.2682, 938.1566
522.7503, 927.7549
523.2324, 923.7195
523.7145, 922.1724
524.1967, 918.7023
524.6788, 917.3420
525.1609, 929.2920
525.6430, 954.4766
526.1251, 971.9344
526.6072, 962.7970
527.0894, 931.5789
527.5715, 917.6092
528.0536, 944.1728
528.5357, 958.5307
529.0178, 948.4318
529.4999, 929.3282
529.9821, 912.5891
530.4642, 900.5609
530.9463, 891.5251
531.4284, 884.9332
531.9105, 880.0894
532.3926, 873.1094
532.8748, 862.5468
533.3569, 858.9677
533.8390, 871.9696
534.3211, 890.4968
534.8032, 895.9430
535.2853, 885.6526
535.7675, 875.9337
536.2496, 869.4499
536.7317, 866.6413
537.2138, 870.9700
537.6959, 879.9612
538.1780, 884.3355
538.6602, 878.1161
539.1423, 866.3784
539.6244, 863.6089
540.1065, 876.8759
540.5886, 882.7792
541.0707, 874.9608
541.5529, 863.6892
542.0350, 851.2823
542.5171, 839.6609
542.9992, 833.0731
543.4813, 834.4921
543.9634, 840.6060
544.4456, 849.9557
544.9277, 861.3146
545.4098, 866.4373
545.8919, 862.0341
546.3740, 853.4200
546.8561, 846.4507
547.3383, 841.3798
547.8204, 836.6577
548.3025, 832.5582
548.7846, 828.5033
549.2667, 825.9802
549.7488, 822.7701
550.2310, 813.4464
550.7131, 796.9249
551.1952, 781.9686
551.6773, 783.2601
552.1594, 801.0182
552.6415, 806.3619
553.1237, 792.1917
553.6058, 778.6641
554.0879, 778.3508
554.5700, 784.6315
555.0521, 788.4628
555.5342, 788.4225
556.0164, 786.8666
556.4985, 784.5533
556.9806, 781.6193
557.4627, 778.8252
557.9448, 775.9584
558.4269, 770.1650
558.9091, 758.2319
559.3912, 743.1289
559.8733, 739.4739
560.3554, 756.8030
560.8375, 769.6537
561.3196, 778.5777
561.8018, 780.4979
562.2839, 770.0746
562.7660, 749.7474
563.2481, 729.4937
563.7302, 713.4781
564.2123, 702.3019
564.6945, 698.8050
565.1766, 702.3160
565.6587, 705.1131
566.1408, 704.2326
566.6229, 702.8965
567.1050, 705.1205
567.5872, 711.4559
568.0693, 719.0765
568.5514, 733.4318
569.0335, 743.2241
569.5156, 741.0835
569.9977, 732.0197
570.4799, 721.9737
570.9620, 713.3618
571.4441, 708.8621
571.9262, 714.8423
572.4083, 730.7869
572.8904, 737.4596
573.3726, 730.8359
573.8547, 723.6833
574.3368, 721.4077
574.8189, 723.2524
575.3010, 728.5935
575.7831, 738.9118
576.2653, 748.1039
576.7474, 754.9179
577.2295, 758.7218
577.7116, 758.3195
578.1937, 754.0267
578.6758, 746.3097
579.1580, 734.6340
579.6401, 722.6744
580.1222, 722.7877
580.6042, 742.6284
581.0864, 755.4587
581.5685, 753.7124
582.0506, 748.5656
582.5327, 744.3176
583.0148, 741.2039
583.4969, 738.5396
583.9791, 734.3844
584.4612, 733.1217
584.9433, 743.5260
585.4254, 760.2275
585.9075, 765.7430
586.3896, 755.5516
586.8718, 742.6955
587.3539, 739.9926
587.8360, 747.3354
588.3181, 753.9143
588.8002, 760.7988
589.2823, 765.6202
589.7645, 765.9260
590.2466, 765.3608
590.7287, 768.1053
591.2108, 774.1777
591.6929, 779.0775
592.1750, 777.2127
592.6572, 772.7308
593.1393, 776.2073
593.6214, 787.5717
594.1035, 796.6722
594.5856, 798.4944
595.0677, 798.3893
595.5499, 804.8270
596.0320, 820.0726
596.5141, 831.8816
596.9962, 838.1663
597.4783, 842.8387
597.9604, 845.9484
598.4426, 849.2685
598.9247, 856.6877
599.4068, 869.1938
599.8889, 880.6238
600.3710, 881.2965
600.8531, 872.7718
601.3353, 871.1046
601.8174, 877.3660
602.2995, 888.6003
602.7816, 905.7124
603.2637, 925.8111
603.7458, 942.9113
604.2280, 956.5763
604.7101, 969.0648
605.1922, 980.8169
605.6743, 991.7629
606.1564, 999.9702
606.6385, 1007.296
607.1207, 1018.936
607.6028, 1037.798
608.0849, 1060.282
608.5670, 1079.168
609.0491, 1093.724
609.5313, 1111.963
610.0134, 1136.400
610.4955, 1161.635
610.9776, 1183.483
611.4597, 1203.957
611.9418, 1226.225
612.4240, 1248.197
612.9061, 1277.302
613.3882, 1323.230
613.8703, 1374.602
614.3524, 1418.032
614.8345, 1452.360
615.3167, 1480.242
615.7988, 1501.921
616.2809, 1523.626
616.7630, 1566.123
617.2451, 1636.543
617.7272, 1705.725
618.2094, 1772.969
618.6915, 1835.183
619.1736, 1889.287
619.6557, 1937.347
620.1378, 1985.474
620.6199, 2030.608
621.1021, 2083.633
621.5842, 2158.358
622.0663, 2243.835
622.5484, 2320.360
623.0305, 2385.303
623.5126, 2451.717
623.9948, 2532.244
624.4769, 2621.599
624.9590, 2686.879
625.4411, 2713.581
625.9232, 2747.010
626.4053, 2808.779
626.8875, 2867.688
627.3696, 2900.028
627.8517, 2910.617
628.3338, 2923.294
628.8159, 2959.140
629.2980, 2986.426
629.7802, 2973.085
630.2623, 2932.188
630.7444, 2891.460
631.2265, 2857.505
631.7086, 2823.689
632.1907, 2784.446
632.6729, 2739.504
633.1550, 2683.523
633.6371, 2607.428
634.1192, 2536.466
634.6013, 2478.142
635.0834, 2423.295
635.5656, 2366.513
636.0477, 2307.182
636.5298, 2245.895
637.0119, 2175.126
637.4940, 2109.241
637.9761, 2062.618
638.4583, 2031.099
638.9404, 2006.708
639.4225, 1987.020
639.9046, 1965.556
640.3867, 1933.210
640.8688, 1891.574
641.3510, 1872.012
641.8331, 1888.901
642.3152, 1904.413
642.7973, 1910.960
643.2794, 1913.757
643.7615, 1910.492
644.2437, 1904.642
644.7258, 1914.864
645.2079, 1958.296
645.6900, 2014.242
646.1721, 2062.574
646.6542, 2107.793
647.1364, 2162.204
647.6185, 2229.010
648.1006, 2301.622
648.5827, 2373.807
649.0648, 2445.188
649.5469, 2516.731
650.0291, 2588.928
650.5112, 2659.545
650.9933, 2722.781
651.4754, 2788.052
651.9575, 2862.270
652.4396, 2945.684
652.9218, 3034.775
653.4039, 3140.417
653.8860, 3239.767
654.3681, 3310.491
654.8502, 3361.347
655.3323, 3411.410
655.8145, 3465.841
656.2966, 3522.489
656.7787, 3579.773
657.2608, 3637.526
657.7429, 3691.583
658.2250, 3746.968
658.7072, 3788.109
659.1893, 3796.836
659.6714, 3801.276
660.1535, 3828.568
660.6356, 3873.888
661.1177, 3901.307
661.5999, 3890.621
662.0820, 3867.091
662.5641, 3841.829
663.0462, 3817.392
663.5283, 3801.834
664.0104, 3794.796
664.4926, 3781.705
664.9747, 3748.971
665.4568, 3699.602
665.9389, 3648.753
666.4210, 3597.780
666.9031, 3540.557
667.3853, 3471.003
667.8674, 3399.409
668.3495, 3337.623
668.8316, 3282.276
669.3137, 3216.814
669.7958, 3126.206
670.2780, 3038.660
670.7601, 2972.615
671.2422, 2914.321
671.7243, 2844.691
672.2064, 2762.461
672.6885, 2680.949
673.1707, 2610.045
673.6528, 2546.274
674.1349, 2481.860
674.6170, 2417.193
675.0991, 2349.014
675.5812, 2272.203
676.0634, 2200.948
676.5455, 2150.804
677.0276, 2117.117
677.5097, 2075.213
677.9918, 2013.705
678.4739, 1958.985
678.9561, 1927.264
679.4382, 1897.574
679.9203, 1847.060
680.4024, 1780.262
680.8845, 1719.169
681.3666, 1676.216
681.8488, 1643.139
682.3309, 1608.656
682.8130, 1572.586
683.2951, 1534.811
683.7772, 1494.245
684.2593, 1457.201
684.7415, 1429.502
685.2236, 1407.578
685.7057, 1378.880
686.1878, 1332.146
686.6699, 1297.327
687.1520, 1288.587
687.6342, 1279.035
688.1163, 1248.658
688.5984, 1206.787
689.0805, 1173.993
689.5626, 1158.244
690.0447, 1147.762
690.5269, 1132.753
691.0090, 1114.402
691.4911, 1092.755
691.9732, 1068.613
692.4553, 1052.560
692.9374, 1051.771
693.4196, 1056.215
693.9017, 1044.886
694.3838, 1010.252
694.8659, 986.3435
695.3480, 983.0056
695.8301, 979.0436
696.3123, 964.5937
696.7944, 947.2739
697.2765, 938.7970
697.7586, 941.7157
698.2407, 938.7095
698.7228, 912.1968
699.2050, 882.6976
699.6871, 873.1109
700.1692, 877.9306
700.6513, 881.9916
701.1334, 879.7490
701.6155, 869.5127
702.0977, 845.9609
702.5798, 810.7896
703.0619, 793.8634
703.5440, 801.7740
704.0261, 808.0580
704.5082, 802.5493
704.9904, 794.0543
705.4725, 793.3694
705.9546, 799.8688
706.4367, 803.3133
706.9188, 800.6833
707.4009, 796.6203
707.8831, 792.5893
708.3652, 788.4533
708.8473, 785.4731
709.3294, 782.6654
709.8115, 774.6606
710.2936, 754.7020
710.7758, 732.3647
711.2579, 729.1888
711.7400, 743.0576
712.2221, 751.3893
712.7042, 749.6965
713.1863, 742.5909
713.6685, 732.0866
714.1506, 719.5919
714.6327, 712.6022
715.1148, 716.6663
715.5969, 717.9010
716.0790, 713.7894
716.5612, 708.9446
717.0433, 706.5252
717.5254, 705.3026
718.0075, 702.3104
718.4896, 696.3989
718.9717, 689.3355
719.4539, 680.1070
719.9360, 671.7172
720.4181, 670.8920
720.9002, 676.2236
721.3823, 678.8917
721.8644, 674.5339
722.3465, 666.0844
722.8286, 657.8273
723.3107, 649.5774
723.7928, 643.3809
724.2750, 639.6053
724.7571, 637.0010
725.2392, 634.1046
725.7213, 632.8197
726.2034, 637.9316
726.6855, 650.7103
727.1677, 654.6232
727.6498, 637.7136
728.1319, 621.0931
728.6140, 617.7313
729.0961, 620.2646
729.5782, 618.1342
730.0604, 609.6938
730.5425, 600.8126
731.0246, 596.2242
731.5067, 594.0391
731.9888, 589.3899
732.4709, 582.9838
732.9531, 581.5567
733.4352, 587.0363
733.9173, 595.2438
734.3994, 603.4363
734.8815, 610.9662
735.3636, 613.1622
735.8458, 605.2463
736.3279, 600.3429
736.8100, 604.1692
737.2921, 606.4235
737.7742, 598.3603
738.2563, 584.9544
738.7385, 577.8552
739.2206, 570.3453
739.7027, 586.1315
740.1848, 594.6686
740.6669, 596.3462
741.1490, 570.6190
741.6312, 580.2791
742.1133, 575.7578
742.5954, 570.6548
743.0775, 585.2957
743.5596, 563.5546
744.0417, 577.8824
744.5239, 577.8119
745.0060, 584.3314
745.4881, 576.5814
745.9702, 571.2986
746.4523, 570.5541
746.9344, 563.9700
747.4166, 550.0063
747.8987, 543.3049
748.3808, 549.4313
748.8629, 555.2676
749.3450, 559.1384
749.8271, 560.2415
750.3093, 556.8016
750.7914, 549.6458
751.2735, 542.4467
751.7556, 535.8830
752.2377, 531.6598
752.7198, 533.9143
753.2020, 538.9523
753.6841, 537.7665
754.1662, 530.4178
754.6483, 526.8915
755.1304, 534.1842
755.6125, 546.5750
756.0947, 550.6158
756.5768, 545.2720
757.0589, 540.8723
757.5410, 538.1612
758.0231, 535.8306
758.5052, 531.8041
758.9874, 528.5009
759.4695, 532.5352
759.9516, 547.7067
760.4337, 553.5630
760.9158, 541.6134
761.3979, 527.7650
761.8801, 515.4655
762.3622, 507.1639
762.8443, 508.1318
763.3264, 517.6435
763.8085, 524.2809
764.2906, 518.6555
764.7728, 508.0141
765.2549, 499.9072
765.7370, 494.2965
766.2191, 491.0467
766.7012, 490.1394
767.1833, 492.4822
767.6655, 499.5697
768.1476, 508.7917
768.6297, 510.5410
769.1118, 502.7610
769.5939, 498.8923
770.0760, 501.4928
770.5582, 506.0855
771.0403, 512.9658
771.5224, 518.9563
772.0045, 514.5182
772.4866, 491.9461
772.9688, 481.1554
773.4509, 497.9573
773.9330, 513.8496
774.4151, 509.4116
774.8972, 497.3026
775.3793, 499.1490
775.8615, 518.3598
776.3436, 533.9737
776.8257, 526.9415
777.3078, 512.0275
777.7899, 506.2477
778.2720, 508.2034
778.7542, 516.8820
779.2363, 530.8745
779.7184, 538.3564
780.2005, 527.5645
780.6826, 505.5626
781.1647, 496.9541
781.6469, 503.6915
782.1290, 510.5639
782.6111, 516.7572
783.0932, 520.0500
783.5753, 517.4944
784.0574, 511.5057
784.5396, 509.1432
785.0217, 513.4577
785.5038, 513.9299
785.9859, 502.5222
786.4680, 495.5688
786.9501, 504.8424
787.4323, 520.7280
787.9144, 530.2971
788.3965, 531.1450
788.8786, 529.4926
789.3607, 527.0326
789.8428, 525.2656
790.3250, 526.4385
790.8071, 529.1666
791.2892, 531.3489
791.7713, 532.2055
792.2534, 530.4843
792.7355, 525.0123
793.2177, 516.8727
793.6998, 492.6302
794.1819, 509.2059
794.6640, 518.5326
795.1461, 520.9996
795.6282, 496.0620
796.1104, 506.5119
796.5925, 502.7800
797.0746, 498.4666
797.5567, 513.8972
798.0388, 492.9454
798.5209, 508.0628
799.0031, 508.7821
799.4852, 516.0910
799.9673, 509.1306
800.4494, 506.5776
800.9315, 518.2985
801.4136, 522.1157
801.8958, 513.5128
802.3779, 521.2405
802.8600, 499.7904
803.3421, 503.9443
803.8242, 519.1452
804.3063, 511.2596
804.7885, 503.3923
805.2706, 508.5606
805.7527, 516.7745
806.2348, 518.5529
806.7169, 516.1147
807.1990, 516.6405
807.6812, 520.6290
808.1633, 525.9701
808.6454, 532.0519
809.1275, 536.1746
809.6096, 532.4969
810.0917, 520.1507
810.5739, 519.1964
811.0560, 534.6975
811.5381, 548.8184
812.0202, 559.2910
812.5023, 563.3492
812.9844, 553.6512
813.4666, 532.4833
813.9487, 521.9984
814.4308, 532.5601
814.9129, 540.1584
815.3950, 537.3225
815.8771, 533.2679
816.3593, 534.0536
816.8414, 538.8078
817.3235, 546.1411
817.8056, 556.8380
818.2877, 560.9385
818.7698, 543.1304
819.2520, 522.0444
819.7341, 519.8554
820.2162, 531.7075
820.6983, 545.0814
821.1804, 555.6875
821.6625, 562.3010
822.1447, 562.6183
822.6268, 559.3358
823.1089, 560.5465
823.5910, 565.7187
824.0731, 566.5966
824.5552, 561.0029
825.0374, 557.1337
825.5195, 560.9505
826.0016, 570.4606
826.4837, 580.9139
826.9658, 594.8252
827.4479, 601.7768
827.9301, 599.4726
828.4122, 593.6968
828.8943, 583.3301
829.3764, 572.8463
829.8585, 567.1951
830.3406, 566.4314
830.8228, 571.2714
831.3049, 588.1953
831.7870, 602.7236
832.2691, 609.0820
832.7512, 611.6149
833.2333, 613.8900
833.7155, 616.2625
834.1976, 618.2352
834.6797, 620.1265
835.1618, 619.9331
835.6439, 613.3492
836.1260, 605.5604
836.6082, 602.4706
837.0903, 604.5436
837.5724, 612.7906
838.0545, 627.1561
838.5366, 641.1202
839.0187, 646.5963
839.5009, 646.5081
839.9830, 650.2530
840.4651, 657.6336
840.9472, 666.1833
841.4293, 675.4399
841.9114, 685.2007
842.3936, 696.2700
842.8757, 706.2892
843.3578, 704.8403
843.8399, 685.0834
844.3220, 679.3434
844.8041, 697.3869
845.2863, 714.0150
845.7684, 712.8893
846.2505, 706.1653
846.7326, 716.3924
847.2147, 747.1280
847.6968, 764.6393
848.1790, 754.5720
848.6611, 747.7787
849.1432, 755.4190
849.6253, 767.7732
850.1074, 775.4319
850.5895, 779.7354
851.0717, 789.2778
851.5538, 811.5673
852.0359, 827.6426
852.5180, 821.7234
853.0001, 808.6780
853.4822, 802.5364
853.9644, 801.7500
854.4465, 798.6671
854.9286, 791.2952
855.4107, 787.1521
855.8928, 796.0021
856.3749, 810.4235
856.8571, 816.5677
857.3392, 816.6321
857.8213, 818.4158
858.3034, 823.3673
858.7855, 829.0289
859.2676, 834.5435
859.7498, 836.1929
860.2319, 822.4388
860.7140, 792.7725
861.1961, 771.4259
861.6782, 759.2458
862.1603, 759.6240
862.6425, 779.0543
863.1245, 800.6505
863.6066, 799.5437
864.0887, 774.9443
864.5709, 761.5803
865.0530, 768.4427
865.5351, 769.7683
866.0172, 755.5729
866.4993, 740.6916
866.9814, 735.9855
867.4636, 737.9344
867.9457, 737.5231
868.4278, 732.9909
868.9099, 729.2616
869.3920, 727.5204
869.8741, 726.3987
870.3563, 723.9612
870.8384, 722.4620
871.3205, 727.4980
871.8026, 738.0842
872.2847, 741.5992
872.7668, 722.9103
873.2490, 707.2307
873.7311, 719.6268
874.2132, 739.7001
874.6953, 737.4325
875.1774, 718.9636
875.6595, 713.6832
876.1417, 734.5151
876.6238, 758.7619
877.1059, 759.7757
877.5880, 749.3010
878.0701, 749.7697
878.5522, 759.2849
879.0344, 768.4040
879.5165, 774.7209
879.9986, 781.5842
880.4807, 792.4235
880.9628, 804.2277
881.4449, 808.1636
881.9271, 804.6594
882.4092, 805.4312
882.8913, 812.0845
883.3734, 817.4278
883.8555, 816.9648
884.3376, 816.4987
884.8198, 825.0825
885.3019, 843.0426
885.7840, 861.5257
886.2661, 882.5920
886.7482, 898.3934
887.2303, 904.9794
887.7125, 909.3328
888.1946, 915.5939
888.6767, 924.0193
889.1588, 935.6825
889.6409, 952.8193
890.1230, 968.6885
890.6052, 982.1851
891.0873, 995.6464
891.5694, 1010.389
892.0515, 1025.269
892.5336, 1038.384
893.0157, 1049.877
893.4979, 1063.617
893.9800, 1082.421
894.4621, 1101.026
894.9442, 1115.345
895.4263, 1130.708
895.9084, 1154.984
896.3906, 1182.904
896.8727, 1200.295
897.3548, 1202.328
897.8369, 1211.494
898.3190, 1249.104
898.8011, 1293.068
899.2833, 1324.306
899.7654, 1347.469
900.2475, 1369.542
900.7296, 1392.722
901.2117, 1417.357
901.6938, 1442.079
902.1760, 1474.963
902.6581, 1535.003
903.1402, 1606.708
903.6223, 1657.717
904.1044, 1689.436
904.5865, 1714.223
905.0687, 1737.254
905.5508, 1768.922
906.0329, 1823.498
906.5150, 1889.670
906.9971, 1932.989
907.4792, 1955.889
907.9614, 1980.173
908.4435, 2008.743
908.9256, 2053.116
909.4077, 2122.093
909.8898, 2202.729
910.3719, 2274.342
910.8541, 2336.893
911.3362, 2396.134
911.8183, 2452.029
912.3004, 2504.963
912.7825, 2552.620
913.2646, 2603.840
913.7468, 2668.609
914.2289, 2741.243
914.7110, 2800.229
915.1931, 2841.499
915.6752, 2878.449
916.1573, 2902.794
916.6395, 2937.700
917.1216, 3010.797
917.6037, 3083.013
918.0858, 3099.441
918.5679, 3060.773
919.0500, 3046.839
919.5322, 3077.848
920.0143, 3103.782
920.4964, 3133.634
920.9785, 3142.960
921.4606, 3105.270
921.9427, 3043.073
922.4249, 2998.267
922.9070, 2978.733
923.3891, 2940.362
923.8712, 2855.748
924.3533, 2772.707
924.8354, 2709.982
925.3176, 2657.498
925.7997, 2611.431
926.2818, 2566.662
926.7639, 2512.532
927.2460, 2443.456
927.7281, 2375.316
928.2103, 2319.703
928.6924, 2264.495
929.1745, 2200.441
929.6566, 2131.030
930.1387, 2055.439
930.6208, 1978.819
931.1030, 1922.470
931.5851, 1906.515
932.0672, 1894.328
932.5493, 1853.178
933.0314, 1799.208
933.5135, 1747.508
933.9957, 1701.666
934.4778, 1665.748
934.9599, 1640.429
935.4420, 1618.764
935.9241, 1597.446
936.4063, 1573.832
936.8884, 1543.832
937.3705, 1508.925
937.8526, 1469.027
938.3347, 1426.719
938.8168, 1390.900
939.2990, 1365.865
939.7811, 1348.277
940.2632, 1338.865
940.7453, 1332.052
941.2274, 1309.016
941.7095, 1274.188
942.1917, 1249.235
942.6738, 1238.028
943.1559, 1230.943
943.6380, 1222.473
944.1201, 1210.225
944.6022, 1185.698
945.0844, 1152.184
945.5665, 1135.111
946.0486, 1134.616
946.5307, 1130.408
947.0128, 1116.385
947.4949, 1101.158
947.9771, 1092.200
948.4592, 1087.192
948.9413, 1078.206
949.4234, 1064.862
949.9055, 1058.462
950.3876, 1061.137
950.8698, 1058.937
951.3519, 1045.017
951.8340, 1029.559
952.3161, 1025.158
952.7982, 1029.276
953.2803, 1023.695
953.7625, 1005.359
954.2446, 991.6469
954.7267, 984.8976
955.2088, 980.9551
955.6909, 978.1617
956.1730, 976.5385
956.6552, 976.8432
957.1373, 979.1850
957.6194, 975.9460
958.1015, 965.1318
958.5836, 953.5278
959.0657, 940.7380
959.5479, 929.8790
960.0300, 923.3407
960.5121, 919.6044
960.9942, 915.6841
961.4763, 911.5811
961.9584, 907.3029
962.4406, 902.7758
962.9227, 898.2950
963.4048, 897.0131
963.8869, 892.1319
964.3690, 873.8896
964.8511, 848.9720
965.3333, 838.4956
965.8154, 851.6904
966.2975, 853.8209
966.7796, 831.9899
967.2617, 816.0106
967.7438, 817.8300
968.2260, 824.9124
968.7081, 829.1648
969.1902, 829.8541
969.6723, 824.2468
970.1544, 806.0033
970.6365, 794.7137
971.1187, 796.9641
971.6008, 800.3329
972.0829, 801.2418
972.5650, 800.1295
973.0471, 795.8437
973.5292, 789.5289
974.0114, 788.0336
974.4935, 797.2497
974.9756, 802.7501
975.4577, 805.6893
975.9398, 800.3163
976.4219, 772.8495
976.9041, 787.0270
977.3862, 793.9561
977.8683, 794.0259
978.3504, 766.6906
978.8325, 774.7429
979.3146, 768.6137
979.7968, 761.9021
980.2789, 774.9353
980.7610, 751.5859
981.2431, 771.3467
981.7252, 778.7034
982.2073, 773.8676
982.6895, 767.3008
983.1716, 762.0442
983.6537, 755.5135
984.1358, 740.9717
984.6179, 730.4825
985.1000, 738.8822
985.5822, 755.3760
986.0643, 759.0526
986.5464, 746.2364
987.0285, 736.9493
987.5106, 744.5021
987.9927, 748.9602
988.4749, 727.1650
988.9570, 742.7950
989.4391, 751.1759
989.9212, 752.6971
990.4033, 726.8137
990.8854, 736.3179
991.3676, 731.6400
991.8497, 726.3809
992.3318, 740.8657
992.8139, 718.9682
993.2960, 733.1398
993.7781, 732.9135
994.2603, 739.2764
994.7424, 731.3704
995.2245, 727.8716
995.7066, 738.6467
996.1887, 741.5183
996.6708, 731.9697
997.1530, 738.7516
997.6351, 722.0435
998.1172, 718.1271
998.5993, 712.8550
999.0814, 710.3998
999.5635, 712.1884
1000.046, 714.2422
1000.528, 717.5964
1001.010, 717.4126
1001.492, 706.2610
1001.974, 693.5460
1002.456, 689.5145
1002.938, 692.9435
1003.420, 698.0110
1003.903, 703.7135
1004.385, 706.4450
1004.867, 701.7144
1005.349, 696.7379
1005.831, 693.5885
1006.313, 694.2958
1006.795, 706.8237
1007.277, 724.6499
1007.759, 726.5271
1008.242, 702.4482
1008.724, 682.7010
1009.206, 684.4547
1009.688, 690.4200
1010.170, 691.9713
1010.652, 690.8705
1011.134, 689.3063
1011.616, 687.4117
1012.099, 684.4919
1012.581, 680.2047
1013.063, 675.5367
1013.545, 667.8601
1014.027, 663.4485
1014.509, 670.9383
1014.991, 679.8377
1015.473, 675.3869
1015.955, 661.9642
1016.438, 658.5212
1016.920, 673.8572
1017.402, 682.9033
1017.884, 670.7285
1018.366, 656.0404
1018.848, 648.7316
1019.330, 644.2487
1019.812, 636.6995
1020.294, 627.2686
1020.777, 621.6808
1021.259, 622.4692
1021.741, 622.4818
1022.223, 616.0474
1022.705, 612.4401
1023.187, 621.5178
1023.669, 631.2819
1024.151, 625.8568
1024.634, 610.9302
1025.116, 608.3911
1025.598, 627.4672
1026.080, 639.1412
1026.562, 626.3886
1027.044, 617.2075
1027.526, 629.5369
1028.008, 645.3911
1028.490, 647.8392
1028.973, 639.6807
1029.455, 631.9638
1029.937, 626.3454
1030.419, 620.8317
1030.901, 611.7050
1031.383, 607.0279
1031.865, 611.7357
1032.347, 620.0467
1032.830, 630.2357
1033.312, 639.6740
1033.794, 641.5813
1034.276, 632.9007
1034.758, 626.1403
1035.240, 621.0456
1035.722, 619.8170
1036.204, 628.7369
1036.687, 636.2963
1037.169, 630.2461
1037.651, 617.1750
1038.133, 615.2293
1038.615, 630.4118
1039.097, 633.2918
1039.579, 606.7855
1040.061, 594.2686
1040.543, 618.2192
1041.026, 640.6902
1041.508, 631.4752
1041.990, 606.6281
1042.472, 600.5920
1042.954, 617.4914
1043.436, 625.1308
1043.918, 617.7046
1044.400, 613.3270
1044.882, 618.7668
1045.365, 621.0746
1045.847, 610.1883
1046.329, 593.6240
1046.811, 584.0884
1047.293, 581.7060
1047.775, 585.2971
1048.257, 598.8824
1048.739, 605.3221
1049.222, 600.1932
1049.704, 592.7313
1050.186, 586.8430
1050.668, 583.4824
1051.150, 585.0918
1051.632, 590.9470
1052.114, 589.1215
1052.596, 577.1821
1053.078, 576.2745
1053.561, 591.4917
1054.043, 602.9669
1054.525, 600.9691
1055.007, 593.1926
1055.489, 588.4329
1055.971, 586.7781
1056.453, 590.6899
1056.935, 600.0261
1057.417, 599.5946
1057.900, 587.8191
1058.382, 576.6406
1058.864, 570.5629
1059.346, 570.4605
1059.828, 579.3454
1060.310, 590.4316
1060.792, 582.0243
1061.274, 558.9218
1061.757, 547.8197
1062.239, 549.1628
1062.721, 551.4814
1063.203, 551.1693
1063.685, 551.8502
1064.167, 557.5153
1064.649, 561.9575
1065.131, 550.6104
1065.614, 531.4247
1066.096, 523.0128
1066.578, 525.0368
1067.060, 535.7380
1067.542, 552.6289
1068.024, 565.8707
1068.506, 569.5309
1068.988, 566.8066
1069.470, 555.7783
1069.953, 544.7631
1070.435, 552.2302
1070.917, 566.2039
1071.399, 557.5812
1071.881, 529.4216
1072.363, 513.9431
1072.845, 526.7164
1073.327, 542.2603
1073.809, 538.9301
1074.292, 532.7846
1074.774, 541.0057
1075.256, 552.6775
1075.738, 552.2416
1076.220, 542.5469
1076.702, 535.3415
1077.184, 533.9958
1077.666, 535.1426
1078.148, 539.8413
1078.631, 543.3317
1079.113, 542.7932
1079.595, 540.4338
1080.077, 535.7790
1080.559, 531.6731
1081.041, 534.9643
1081.523, 546.6238
1082.005, 551.2006
1082.488, 531.9371
1082.970, 525.2402
1083.452, 557.0296
1083.934, 582.6091
1084.416, 566.5830
1084.898, 537.1619
1085.380, 535.1561
1085.862, 558.6969
1086.344, 569.7983
1086.827, 557.9611
1087.309, 554.4974
1087.791, 566.0511
1088.273, 575.4388
1088.755, 577.2153
1089.237, 573.4611
1089.719, 563.8167
1090.201, 551.5159
1090.683, 549.1589
1091.166, 559.6754
1091.648, 565.5543
1092.130, 566.3925
1092.612, 563.8119
1093.094, 557.3600
1093.576, 551.9429
1094.058, 551.5446
1094.540, 552.5499
1095.023, 547.2855
1095.505, 536.7677
1095.987, 529.9526
1096.469, 526.8704
1096.951, 529.6743
1097.433, 538.0390
1097.915, 540.8951
1098.397, 532.4572
1098.880, 522.5635
1099.362, 524.1107
1099.844, 530.8073
1100.326, 527.7615
1100.808, 519.2178
1101.290, 517.3494
1101.772, 520.9218
1102.254, 520.0489
1102.736, 512.1400
1103.219, 504.7200
1103.701, 503.3394
1104.183, 504.4828
1104.665, 506.0000
1105.147, 506.8088
1105.629, 504.0908
1106.111, 500.4077
1106.593, 502.7085
1107.075, 509.5266
1107.558, 508.0790
1108.040, 489.2580
1108.522, 475.8224
1109.004, 484.5803
1109.486, 495.1383
1109.968, 495.4401
1110.450, 491.4352
1110.932, 490.7169
1111.415, 491.0634
1111.897, 482.8122
1112.379, 460.9333
1112.861, 452.1826
1113.343, 468.9425
1113.825, 486.3911
1114.307, 505.4724
1114.789, 517.0045
1115.271, 511.8372
1115.754, 499.5466
1116.236, 494.0566
1116.718, 495.0375
1117.200, 494.5633
1117.682, 492.4293
1118.164, 489.4461
1118.646, 485.3911
1119.128, 480.9037
1119.610, 475.2724
1120.093, 473.4338
1120.575, 481.2969
1121.057, 493.9433
1121.539, 497.1411
1122.021, 491.6731
1122.503, 486.5286
1122.985, 482.2401
1123.467, 483.1356
1123.950, 489.6022
1124.432, 493.3953
1124.914, 489.4580
1125.396, 482.8991
1125.878, 479.0861
1126.360, 477.9158
1126.842, 482.6296
1127.324, 488.2744
1127.807, 479.7224
1128.289, 462.5558
1128.771, 461.7742
1129.253, 483.6442
1129.735, 499.8460
1130.217, 485.5459
1130.699, 470.3171
1131.181, 477.4987
1131.663, 491.1851
1132.146, 502.4327
1132.628, 507.6611
1133.110, 498.7633
1133.592, 479.0721
1134.074, 468.6384
1134.556, 474.5510
1135.038, 483.2414
1135.520, 498.7553
1136.002, 507.6850
1136.485, 499.1070
1136.967, 488.4217
1137.449, 487.2295
1137.931, 492.1056
1138.413, 496.5647
1138.895, 500.8530
1139.377, 501.0221
1139.859, 495.4400
1140.342, 491.5313
1140.824, 490.5829
1141.306, 489.4158
1141.788, 485.9485
1142.270, 484.9787
1142.752, 493.1872
1143.234, 505.6591
1143.716, 505.0194
1144.198, 493.9091
1144.681, 490.9990
1145.163, 496.2015
1145.645, 503.5796
1146.127, 511.0045
1146.609, 514.4185
1147.091, 510.9748
1147.573, 506.4500
1148.055, 509.0723
1148.537, 513.0193
1149.020, 508.1484
1149.502, 500.5718
1149.984, 501.1334
1150.466, 507.7067
1150.948, 511.5685
1151.430, 510.5332
1151.912, 510.5229
1152.394, 518.4352
1152.877, 521.8844
1153.359, 511.6886
1153.841, 500.0736
1154.323, 490.6441
1154.805, 487.1014
1155.287, 497.8129
1155.769, 518.9257
1156.251, 529.3589
1156.734, 526.8841
1157.216, 518.9396
1157.698, 500.6402
1158.180, 487.4151
1158.662, 481.1952
1159.144, 485.1687
1159.626, 504.9100
1160.108, 526.9280
1160.590, 529.3661
1161.073, 516.1577
1161.555, 510.6223
1162.037, 512.1724
1162.519, 512.5352
1163.001, 511.0990
1163.483, 509.6807
1163.965, 508.9302
1164.447, 509.4019
1164.929, 511.8908
1165.412, 513.9033
1165.894, 511.2468
1166.376, 506.8887
1166.858, 504.7270
1167.340, 504.2199
1167.822, 502.6457
1168.304, 501.7396
1168.786, 509.0105
1169.269, 526.7777
1169.751, 539.5758
1170.233, 536.3264
1170.715, 532.4001
1171.197, 535.9351
1171.679, 538.2689
1172.161, 529.1627
1172.643, 518.8516
1173.125, 524.4390
1173.608, 541.7312
1174.090, 546.1393
1174.572, 532.0469
1175.054, 523.2422
1175.536, 520.9023
1176.018, 520.7243
1176.500, 522.8057
1176.982, 522.5176
1177.464, 516.7437
1177.947, 508.2908
1178.429, 500.0832
1178.911, 493.6102
1179.393, 495.8536
1179.875, 504.6682
1180.357, 509.2097
1180.839, 510.6847
1181.321, 522.0284
1181.804, 544.0523
1182.286, 555.0900
1182.768, 539.2911
1183.250, 521.9072
1183.732, 527.5474
1184.214, 539.9478
1184.696, 550.1959
1185.178, 554.1142
1185.661, 540.1495
1186.143, 518.6873
1186.625, 515.8395
1187.107, 536.3544
1187.589, 550.8462
1188.071, 552.3668
1188.553, 550.0103
1189.035, 540.0128
1189.517, 533.6171
1190.000, 536.3562
1190.482, 541.8804
1190.964, 545.8535
1191.446, 546.7526
1191.928, 538.1697
1192.410, 520.3210
1192.892, 519.0964
1193.374, 534.0767
1193.856, 546.7834
1194.339, 554.1847
1194.821, 554.7026
1195.303, 547.9779
1195.785, 542.2582
1196.267, 545.1597
1196.749, 552.3834
1197.231, 561.9876
1197.713, 569.4711
1198.196, 565.1840
1198.678, 556.2152
1199.160, 556.2025
1199.642, 563.6567
1200.124, 566.6794
1200.606, 561.5934
1201.088, 555.0419
1201.570, 546.8959
1202.052, 540.7650
1202.535, 536.1687
1203.017, 536.0077
1203.499, 546.8195
1203.981, 557.0562
1204.463, 551.9818
1204.945, 536.3184
1205.427, 530.8929
1205.909, 537.4284
1206.391, 536.4360
1206.874, 527.2078
1207.356, 529.1239
1207.838, 545.6231
1208.320, 557.1812
1208.802, 554.0020
1209.284, 544.8501
1209.766, 536.8636
1210.248, 532.0436
1210.731, 536.9404
1211.213, 544.3879
1211.695, 541.3407
1212.177, 533.6524
1212.659, 534.7198
1213.141, 543.9280
1213.623, 549.8163
1214.105, 548.5068
1214.588, 546.1168
1215.070, 542.3470
1215.552, 540.8726
1216.034, 545.1551
1216.516, 549.1021
1216.998, 548.3350
1217.480, 546.9818
1217.962, 550.2870
1218.444, 556.9913
1218.927, 561.1334
1219.409, 562.4556
1219.891, 568.0882
1220.373, 577.9337
1220.855, 574.9667
1221.337, 557.1614
1221.819, 544.2315
1222.301, 545.9008
1222.783, 552.6732
1223.266, 557.4846
1223.748, 558.8198
1224.230, 548.4805
1224.712, 539.0671
1225.194, 552.4149
1225.676, 574.0214
1226.158, 578.8982
1226.640, 567.7755
1227.122, 556.2574
1227.605, 547.0681
1228.087, 540.8487
1228.569, 537.3487
1229.051, 537.5720
1229.533, 542.8017
1230.015, 550.3969
1230.497, 562.4320
1230.979, 568.7848
1231.462, 556.2849
1231.944, 534.4157
1232.426, 533.6758
1232.908, 549.9559
1233.390, 546.3702
1233.872, 527.3360
1234.354, 518.3158
1234.836, 521.1613
1235.318, 521.2638
1235.801, 513.6273
1236.283, 509.5403
1236.765, 518.2746
1237.247, 530.4848
1237.729, 543.3260
1238.211, 552.4716
1238.693, 551.6207
1239.175, 547.7116
1239.657, 547.0828
1240.140, 550.2397
1240.622, 558.4888
1241.104, 572.5997
1241.586, 579.2780
1242.068, 576.1652
1242.550, 573.6165
1243.032, 572.8647
1243.514, 570.0453
1243.997, 563.5818
1244.479, 557.7481
1244.961, 555.5171
1245.443, 556.8856
1245.925, 563.6273
1246.407, 572.7516
1246.889, 581.7612
1247.371, 586.7808
1247.854, 576.0587
1248.336, 557.1069
1248.818, 548.4030
1249.300, 552.4713
1249.782, 558.0286
1250.264, 562.1135
1250.746, 565.3107
1251.228, 566.5645
1251.710, 568.8011
1252.193, 576.1910
1252.675, 579.4029
1253.157, 569.7059
1253.639, 559.4989
1254.121, 566.3181
1254.603, 584.0201
1255.085, 589.0101
1255.567, 582.7042
1256.049, 576.7377
1256.532, 572.5551
1257.014, 576.9141
1257.496, 589.0750
1257.978, 599.8079
1258.460, 605.2727
##END=



