##NAMES=Geikielite
##RRUFFID=R070479
##IDEAL CHEMISTRY=MgTi^4+^O_3_
##LOCALITY=Colombo, Sri Lanka
##OWNER=RRUFF
##SOURCE=Royal Ontario Museum
##DESCRIPTION=Dark red fragment
##STATUS=The identification of this mineral has been confirmed only by single crystal X-ray diffraction.
##URL=rruff.info/R070479
93.46680, 2379.863
93.94891, 2349.997
94.43103, 2355.974
94.91315, 2381.065
95.39526, 2400.498
95.87738, 2410.317
96.35950, 2415.010
96.84161, 2415.042
97.32373, 2411.271
97.80585, 2404.481
98.28796, 2396.995
98.77008, 2389.508
99.25220, 2382.548
99.73431, 2376.606
100.2164, 2371.791
100.6985, 2362.460
101.1807, 2354.033
101.6628, 2347.384
102.1449, 2342.481
102.6270, 2339.036
103.1091, 2336.609
103.5912, 2334.265
104.0734, 2329.890
104.5555, 2327.309
105.0376, 2327.676
105.5197, 2330.222
106.0018, 2333.428
106.4839, 2335.997
106.9661, 2337.698
107.4482, 2339.844
107.9303, 2341.420
108.4124, 2343.367
108.8945, 2346.589
109.3766, 2351.073
109.8588, 2355.611
110.3409, 2358.281
110.8230, 2358.537
111.3051, 2360.713
111.7872, 2366.813
112.2693, 2374.790
112.7515, 2381.549
113.2336, 2386.083
113.7157, 2389.561
114.1978, 2393.206
114.6799, 2396.964
115.1620, 2401.233
115.6442, 2406.719
116.1263, 2413.345
116.6084, 2418.920
117.0905, 2421.012
117.5726, 2423.181
118.0547, 2428.127
118.5369, 2436.318
119.0190, 2445.825
119.5011, 2454.150
119.9832, 2460.963
120.4653, 2467.092
120.9474, 2471.971
121.4296, 2476.679
121.9117, 2482.142
122.3938, 2488.754
122.8759, 2496.200
123.3580, 2503.558
123.8401, 2511.217
124.3223, 2518.222
124.8044, 2523.559
125.2865, 2528.287
125.7686, 2534.163
126.2507, 2542.534
126.7328, 2553.079
127.2150, 2561.136
127.6971, 2564.911
128.1792, 2568.616
128.6613, 2573.879
129.1434, 2580.700
129.6255, 2588.464
130.1077, 2597.187
130.5898, 2606.655
131.0719, 2614.998
131.5540, 2620.862
132.0361, 2626.296
132.5182, 2634.031
133.0004, 2644.814
133.4825, 2655.265
133.9646, 2661.532
134.4467, 2665.270
134.9288, 2669.853
135.4109, 2677.473
135.8931, 2687.183
136.3752, 2695.655
136.8573, 2701.767
137.3394, 2707.889
137.8215, 2715.486
138.3036, 2724.226
138.7858, 2732.954
139.2679, 2740.676
139.7500, 2747.239
140.2321, 2754.050
140.7142, 2762.253
141.1963, 2769.804
141.6785, 2775.852
142.1606, 2780.335
142.6427, 2783.761
143.1248, 2786.516
143.6069, 2787.590
144.0890, 2790.489
144.5712, 2796.436
145.0533, 2803.025
145.5354, 2809.054
146.0175, 2814.039
146.4996, 2817.798
146.9817, 2819.934
147.4639, 2819.331
147.9460, 2818.724
148.4281, 2817.909
148.9102, 2817.225
149.3923, 2817.636
149.8744, 2819.847
150.3566, 2822.163
150.8387, 2820.185
151.3208, 2813.289
151.8029, 2805.300
152.2850, 2797.097
152.7671, 2788.786
153.2493, 2780.980
153.7314, 2774.357
154.2135, 2767.906
154.6956, 2759.909
155.1777, 2749.951
155.6598, 2739.462
156.1420, 2729.913
156.6241, 2721.422
157.1062, 2711.995
157.5883, 2699.573
158.0704, 2686.411
158.5525, 2674.707
159.0347, 2665.315
159.5168, 2656.626
159.9989, 2645.757
160.4810, 2631.415
160.9631, 2618.174
161.4452, 2607.726
161.9274, 2598.682
162.4095, 2589.598
162.8916, 2579.776
163.3737, 2569.810
163.8558, 2561.839
164.3379, 2558.073
164.8201, 2553.499
165.3022, 2546.811
165.7843, 2538.975
166.2664, 2531.338
166.7485, 2524.689
167.2306, 2518.900
167.7128, 2512.586
168.1949, 2505.103
168.6770, 2497.792
169.1591, 2489.959
169.6412, 2482.477
170.1233, 2477.382
170.6055, 2476.581
171.0876, 2479.840
171.5697, 2478.544
172.0518, 2468.547
172.5339, 2458.842
173.0160, 2454.228
173.4982, 2454.098
173.9803, 2454.278
174.4624, 2451.189
174.9445, 2445.172
175.4266, 2442.086
175.9087, 2444.719
176.3909, 2448.382
176.8730, 2448.957
177.3551, 2446.134
177.8372, 2442.776
178.3193, 2441.156
178.8014, 2440.811
179.2836, 2440.490
179.7657, 2439.587
180.2478, 2438.676
180.7299, 2438.785
181.2120, 2440.284
181.6941, 2441.807
182.1763, 2441.986
182.6584, 2441.516
183.1405, 2441.716
183.6226, 2443.450
184.1047, 2446.306
184.5868, 2449.007
185.0690, 2451.595
185.5511, 2453.870
186.0332, 2455.499
186.5153, 2456.785
186.9974, 2458.332
187.4795, 2460.602
187.9617, 2463.546
188.4438, 2466.376
188.9259, 2469.075
189.4080, 2471.675
189.8901, 2474.165
190.3722, 2476.571
190.8544, 2478.919
191.3365, 2481.164
191.8186, 2483.287
192.3007, 2485.900
192.7828, 2489.733
193.2649, 2493.428
193.7471, 2496.506
194.2292, 2499.023
194.7113, 2501.297
195.1934, 2503.575
195.6755, 2505.862
196.1576, 2508.233
196.6398, 2510.636
197.1219, 2513.135
197.6040, 2515.649
198.0861, 2518.225
198.5682, 2521.060
199.0503, 2524.311
199.5325, 2527.995
200.0146, 2532.167
200.4967, 2537.832
200.9788, 2543.159
201.4609, 2546.675
201.9430, 2548.315
202.4252, 2549.343
202.9073, 2550.979
203.3894, 2553.305
203.8715, 2555.278
204.3536, 2556.529
204.8357, 2557.607
205.3179, 2559.012
205.8000, 2560.826
206.2821, 2562.905
206.7642, 2565.410
207.2463, 2568.235
207.7284, 2570.436
208.2106, 2572.226
208.6927, 2573.170
209.1748, 2572.310
209.6569, 2569.161
210.1390, 2565.692
210.6211, 2563.677
211.1033, 2562.662
211.5854, 2561.634
212.0675, 2560.297
212.5496, 2558.678
213.0317, 2556.792
213.5138, 2554.542
213.9960, 2552.209
214.4781, 2549.737
214.9602, 2547.293
215.4423, 2545.296
215.9244, 2544.451
216.4065, 2544.271
216.8886, 2542.618
217.3708, 2537.838
217.8529, 2534.143
218.3350, 2533.971
218.8171, 2536.064
219.2992, 2538.036
219.7813, 2538.297
220.2635, 2537.149
220.7456, 2536.701
221.2277, 2537.990
221.7098, 2538.726
222.1919, 2537.256
222.6740, 2534.814
223.1562, 2533.586
223.6383, 2535.288
224.1204, 2539.648
224.6025, 2543.215
225.0846, 2544.187
225.5667, 2546.241
226.0489, 2550.987
226.5310, 2557.396
227.0131, 2563.518
227.4952, 2567.953
227.9773, 2570.832
228.4594, 2574.732
228.9416, 2580.972
229.4237, 2586.869
229.9058, 2591.193
230.3879, 2594.734
230.8700, 2598.991
231.3521, 2605.052
231.8343, 2612.789
232.3164, 2620.021
232.7985, 2626.396
233.2806, 2632.662
233.7627, 2638.543
234.2448, 2644.469
234.7270, 2651.283
235.2091, 2659.562
235.6912, 2669.181
236.1733, 2678.984
236.6554, 2689.323
237.1375, 2699.512
237.6197, 2709.331
238.1018, 2718.828
238.5839, 2728.036
239.0660, 2736.749
239.5481, 2745.362
240.0302, 2756.160
240.5124, 2770.391
240.9945, 2784.907
241.4766, 2798.685
241.9587, 2811.878
242.4408, 2824.431
242.9229, 2835.712
243.4051, 2847.017
243.8872, 2862.673
244.3693, 2884.499
244.8514, 2907.189
245.3335, 2929.084
245.8156, 2950.054
246.2978, 2969.254
246.7799, 2985.330
247.2620, 3000.508
247.7441, 3019.984
248.2262, 3045.326
248.7083, 3070.729
249.1905, 3093.087
249.6726, 3113.001
250.1547, 3133.126
250.6368, 3155.011
251.1189, 3176.955
251.6010, 3196.248
252.0832, 3212.597
252.5653, 3228.362
253.0474, 3244.541
253.5295, 3261.173
254.0116, 3279.181
254.4937, 3299.861
254.9759, 3320.603
255.4580, 3337.747
255.9401, 3351.173
256.4222, 3365.378
256.9043, 3384.088
257.3864, 3406.300
257.8686, 3426.562
258.3507, 3442.320
258.8328, 3457.805
259.3149, 3477.460
259.7970, 3500.713
260.2791, 3522.794
260.7613, 3540.193
261.2434, 3553.563
261.7255, 3566.801
262.2076, 3580.095
262.6897, 3593.488
263.1718, 3607.307
263.6540, 3621.338
264.1361, 3634.862
264.6182, 3648.835
265.1003, 3662.443
265.5824, 3670.785
266.0645, 3671.438
266.5467, 3669.616
267.0288, 3668.567
267.5109, 3667.484
267.9930, 3664.691
268.4751, 3660.030
268.9572, 3652.925
269.4394, 3640.066
269.9215, 3618.082
270.4036, 3595.001
270.8857, 3575.288
271.3678, 3556.548
271.8499, 3534.794
272.3321, 3507.319
272.8142, 3475.771
273.2963, 3446.073
273.7784, 3418.563
274.2605, 3392.841
274.7426, 3368.638
275.2248, 3345.765
275.7069, 3324.547
276.1890, 3305.181
276.6711, 3286.880
277.1532, 3267.695
277.6353, 3246.674
278.1175, 3226.455
278.5996, 3205.992
279.0817, 3187.121
279.5638, 3171.674
280.0459, 3160.266
280.5280, 3152.059
281.0102, 3145.541
281.4923, 3141.385
281.9744, 3137.722
282.4565, 3134.183
282.9386, 3131.070
283.4207, 3128.772
283.9029, 3127.346
284.3850, 3126.355
284.8671, 3124.784
285.3492, 3121.237
285.8313, 3120.760
286.3134, 3125.872
286.7956, 3131.868
287.2777, 3135.977
287.7598, 3137.819
288.2419, 3138.712
288.7240, 3139.903
289.2061, 3140.898
289.6883, 3144.066
290.1704, 3150.648
290.6525, 3158.054
291.1346, 3164.967
291.6167, 3171.521
292.0988, 3178.810
292.5810, 3188.206
293.0631, 3200.104
293.5452, 3209.564
294.0273, 3214.168
294.5094, 3218.781
294.9915, 3224.518
295.4737, 3231.558
295.9558, 3239.996
296.4379, 3250.064
296.9200, 3261.645
297.4021, 3272.174
297.8842, 3280.841
298.3664, 3289.298
298.8485, 3297.879
299.3306, 3306.450
299.8127, 3314.726
300.2948, 3322.528
300.7769, 3329.875
301.2591, 3336.759
301.7412, 3342.657
302.2233, 3348.665
302.7054, 3354.479
303.1875, 3360.562
303.6696, 3367.637
304.1518, 3375.953
304.6339, 3384.848
305.1160, 3393.026
305.5981, 3400.049
306.0802, 3406.818
306.5623, 3413.059
307.0445, 3419.228
307.5266, 3425.818
308.0087, 3432.890
308.4908, 3440.042
308.9729, 3446.646
309.4550, 3452.251
309.9372, 3458.447
310.4193, 3466.438
310.9014, 3474.023
311.3835, 3479.323
311.8656, 3482.587
312.3477, 3485.789
312.8299, 3491.060
313.3120, 3499.020
313.7941, 3505.166
314.2762, 3508.891
314.7583, 3511.724
315.2404, 3514.191
315.7226, 3516.272
316.2047, 3517.556
316.6868, 3517.543
317.1689, 3516.410
317.6510, 3517.193
318.1331, 3523.986
318.6153, 3528.117
319.0974, 3526.380
319.5795, 3521.021
320.0616, 3515.650
320.5437, 3512.183
321.0258, 3509.664
321.5080, 3504.814
321.9901, 3494.242
322.4722, 3485.595
322.9543, 3481.433
323.4364, 3478.372
323.9185, 3472.710
324.4007, 3463.348
324.8828, 3452.229
325.3649, 3442.585
325.8470, 3433.525
326.3291, 3428.120
326.8112, 3428.241
327.2934, 3430.088
327.7755, 3431.553
328.2576, 3432.111
328.7397, 3431.967
329.2218, 3431.350
329.7039, 3430.309
330.1861, 3428.489
330.6682, 3425.303
331.1503, 3422.005
331.6324, 3418.876
332.1145, 3416.055
332.5966, 3413.856
333.0788, 3412.661
333.5609, 3412.335
334.0430, 3410.642
334.5251, 3407.086
335.0072, 3402.541
335.4893, 3396.227
335.9715, 3389.236
336.4536, 3383.407
336.9357, 3379.781
337.4178, 3377.074
337.8999, 3371.568
338.3820, 3362.336
338.8642, 3351.241
339.3463, 3337.003
339.8284, 3321.904
340.3105, 3308.453
340.7926, 3297.120
341.2747, 3286.015
341.7568, 3272.168
342.2390, 3254.735
342.7211, 3236.624
343.2032, 3216.223
343.6853, 3196.650
344.1674, 3180.525
344.6495, 3167.276
345.1317, 3153.905
345.6138, 3137.487
346.0959, 3117.829
346.5780, 3098.468
347.0601, 3078.947
347.5422, 3060.230
348.0244, 3042.233
348.5065, 3025.288
348.9886, 3010.189
349.4707, 2997.800
349.9528, 2987.105
350.4349, 2974.140
350.9171, 2956.967
351.3992, 2940.229
351.8813, 2924.224
352.3634, 2909.281
352.8455, 2896.047
353.3276, 2884.677
353.8098, 2874.371
354.2919, 2863.754
354.7740, 2852.373
355.2561, 2842.095
355.7382, 2833.842
356.2203, 2826.144
356.7025, 2818.097
357.1846, 2809.705
357.6667, 2801.719
358.1488, 2795.163
358.6309, 2790.156
359.1130, 2784.260
359.5952, 2776.258
360.0773, 2768.746
360.5594, 2762.514
361.0415, 2757.577
361.5236, 2753.959
362.0057, 2751.924
362.4879, 2751.051
362.9700, 2750.064
363.4521, 2748.956
363.9342, 2747.755
364.4163, 2746.946
364.8984, 2745.848
365.3806, 2743.318
365.8627, 2738.752
366.3448, 2734.212
366.8269, 2732.463
367.3090, 2733.729
367.7911, 2735.627
368.2733, 2737.980
368.7554, 2740.544
369.2375, 2743.319
369.7196, 2746.260
370.2017, 2748.869
370.6838, 2750.324
371.1660, 2751.008
371.6481, 2752.848
372.1302, 2756.461
372.6123, 2760.422
373.0944, 2764.305
373.5765, 2767.820
374.0587, 2770.167
374.5408, 2769.976
375.0229, 2769.156
375.5050, 2770.877
375.9871, 2775.437
376.4692, 2779.883
376.9514, 2782.538
377.4335, 2784.309
377.9156, 2786.478
378.3977, 2789.122
378.8798, 2792.262
379.3619, 2796.518
379.8441, 2801.458
380.3262, 2804.994
380.8083, 2805.981
381.2904, 2806.354
381.7725, 2808.818
382.2546, 2813.269
382.7368, 2817.273
383.2189, 2820.003
383.7010, 2821.876
384.1831, 2823.574
384.6652, 2825.208
385.1473, 2826.086
385.6295, 2825.371
386.1116, 2823.289
386.5937, 2821.703
387.0758, 2820.387
387.5579, 2819.848
388.0400, 2821.690
388.5222, 2824.847
389.0043, 2825.741
389.4864, 2822.612
389.9685, 2816.371
390.4506, 2808.859
390.9327, 2799.254
391.4149, 2790.358
391.8970, 2782.916
392.3791, 2776.402
392.8612, 2770.487
393.3433, 2765.055
393.8254, 2759.404
394.3076, 2752.677
394.7897, 2744.553
395.2718, 2736.984
395.7539, 2729.693
396.2360, 2723.096
396.7181, 2718.108
397.2003, 2714.126
397.6824, 2709.548
398.1645, 2703.272
398.6466, 2695.684
399.1287, 2688.498
399.6108, 2680.836
400.0930, 2674.775
400.5751, 2671.321
401.0572, 2669.200
401.5393, 2667.220
402.0214, 2664.968
402.5035, 2662.471
402.9857, 2659.809
403.4678, 2657.160
403.9499, 2653.809
404.4320, 2649.275
404.9141, 2644.567
405.3962, 2639.583
405.8784, 2634.790
406.3605, 2631.378
406.8426, 2630.620
407.3247, 2631.890
407.8068, 2630.525
408.2889, 2623.613
408.7711, 2618.260
409.2532, 2617.101
409.7353, 2617.655
410.2174, 2617.287
410.6995, 2615.076
411.1816, 2611.904
411.6638, 2608.879
412.1459, 2605.975
412.6280, 2603.413
413.1101, 2601.558
413.5922, 2599.788
414.0743, 2597.758
414.5565, 2595.507
415.0386, 2593.268
415.5207, 2591.188
416.0028, 2589.259
416.4849, 2587.431
416.9670, 2585.664
417.4492, 2584.128
417.9313, 2583.826
418.4134, 2583.535
418.8955, 2581.307
419.3776, 2575.945
419.8597, 2570.294
420.3419, 2567.083
420.8240, 2566.131
421.3061, 2565.779
421.7882, 2565.755
422.2703, 2565.934
422.7524, 2566.280
423.2346, 2566.794
423.7167, 2567.005
424.1988, 2567.254
424.6809, 2566.874
425.1630, 2564.312
425.6451, 2559.411
426.1273, 2555.008
426.6094, 2553.278
427.0915, 2553.894
427.5736, 2554.295
428.0557, 2554.096
428.5378, 2554.091
429.0200, 2554.886
429.5021, 2556.099
429.9842, 2556.937
430.4663, 2557.107
430.9484, 2556.874
431.4305, 2556.653
431.9127, 2556.462
432.3948, 2556.251
432.8769, 2555.471
433.3590, 2555.091
433.8411, 2556.146
434.3232, 2558.387
434.8054, 2560.617
435.2875, 2561.938
435.7696, 2562.385
436.2517, 2562.371
436.7338, 2560.373
437.2159, 2559.702
437.6981, 2561.804
438.1802, 2565.046
438.6623, 2567.447
439.1444, 2568.403
439.6265, 2569.074
440.1086, 2571.639
440.5908, 2577.478
441.0729, 2580.659
441.5550, 2578.705
442.0371, 2576.373
442.5192, 2575.202
443.0013, 2575.337
443.4835, 2576.650
443.9656, 2579.253
444.4477, 2582.815
444.9298, 2586.343
445.4119, 2590.154
445.8940, 2593.183
446.3762, 2594.784
446.8583, 2595.644
447.3404, 2595.947
447.8225, 2595.700
448.3046, 2595.993
448.7867, 2597.868
449.2689, 2601.130
449.7510, 2604.885
450.2331, 2609.247
450.7152, 2613.582
451.1973, 2617.341
451.6794, 2620.656
452.1616, 2623.889
452.6437, 2627.665
453.1258, 2630.938
453.6079, 2632.068
454.0900, 2631.446
454.5721, 2631.773
455.0543, 2634.506
455.5364, 2638.405
456.0185, 2640.884
456.5006, 2641.639
456.9827, 2642.515
457.4648, 2644.305
457.9470, 2646.211
458.4291, 2647.513
458.9112, 2648.087
459.3933, 2647.822
459.8754, 2646.303
460.3575, 2643.631
460.8397, 2643.358
461.3218, 2648.852
461.8039, 2652.437
462.2860, 2651.019
462.7681, 2646.908
463.2502, 2643.112
463.7324, 2640.718
464.2145, 2639.091
464.6966, 2637.378
465.1787, 2635.958
465.6608, 2633.274
466.1429, 2627.960
466.6251, 2622.758
467.1072, 2618.454
467.5893, 2615.234
468.0714, 2613.538
468.5535, 2614.126
469.0356, 2615.515
469.5178, 2612.889
469.9999, 2604.246
470.4820, 2596.843
470.9641, 2594.414
471.4462, 2592.668
471.9283, 2587.867
472.4105, 2579.740
472.8926, 2571.992
473.3747, 2568.008
473.8568, 2566.774
474.3389, 2564.624
474.8210, 2561.264
475.3032, 2557.232
475.7853, 2553.128
476.2674, 2548.538
476.7495, 2542.374
477.2316, 2533.117
477.7137, 2524.385
478.1959, 2519.360
478.6780, 2516.925
479.1601, 2513.755
479.6422, 2508.862
480.1243, 2503.002
480.6064, 2496.625
481.0886, 2489.267
481.5707, 2484.952
482.0528, 2486.869
482.5349, 2489.339
483.0170, 2488.231
483.4991, 2484.389
483.9813, 2481.166
484.4634, 2480.521
484.9455, 2481.318
485.4276, 2480.197
485.9097, 2476.727
486.3918, 2471.743
486.8740, 2463.290
487.3561, 2454.869
487.8382, 2448.861
488.3203, 2445.501
488.8024, 2444.102
489.2845, 2444.761
489.7667, 2446.947
490.2488, 2444.887
490.7309, 2435.085
491.2130, 2426.722
491.6951, 2422.178
492.1772, 2420.132
492.6594, 2419.892
493.1415, 2421.278
493.6236, 2422.383
494.1057, 2420.823
494.5878, 2416.962
495.0699, 2414.038
495.5521, 2412.594
496.0342, 2411.721
496.5163, 2411.000
496.9984, 2410.321
497.4805, 2409.414
497.9626, 2407.843
498.4448, 2406.423
498.9269, 2406.145
499.4090, 2406.640
499.8911, 2406.497
500.3732, 2405.111
500.8553, 2403.308
501.3375, 2402.437
501.8196, 2402.884
502.3017, 2402.166
502.7838, 2398.628
503.2659, 2395.173
503.7480, 2394.174
504.2302, 2394.999
504.7123, 2395.333
505.1944, 2393.795
505.6765, 2391.188
506.1586, 2389.874
506.6407, 2390.736
507.1228, 2391.554
507.6049, 2392.882
508.0871, 2393.686
508.5692, 2392.849
509.0513, 2390.682
509.5334, 2388.547
510.0155, 2387.319
510.4977, 2387.059
510.9798, 2388.389
511.4619, 2392.380
511.9440, 2395.532
512.4261, 2396.689
512.9083, 2396.550
513.3904, 2395.397
513.8725, 2393.276
514.3546, 2390.985
514.8367, 2388.556
515.3188, 2386.424
515.8010, 2385.886
516.2831, 2387.180
516.7652, 2389.585
517.2473, 2393.644
517.7294, 2398.306
518.2115, 2400.257
518.6937, 2397.846
519.1758, 2394.984
519.6579, 2393.453
520.1400, 2392.599
520.6221, 2391.148
521.1042, 2388.817
521.5864, 2386.771
522.0685, 2386.400
522.5506, 2387.937
523.0327, 2388.650
523.5148, 2387.409
523.9969, 2386.760
524.4791, 2388.658
524.9612, 2391.238
525.4433, 2391.478
525.9254, 2388.412
526.4075, 2384.355
526.8896, 2382.904
527.3718, 2384.614
527.8539, 2386.066
528.3360, 2387.933
528.8181, 2388.641
529.3002, 2386.469
529.7823, 2382.896
530.2645, 2380.812
530.7466, 2381.776
531.2287, 2383.598
531.7108, 2383.423
532.1929, 2381.374
532.6750, 2379.311
533.1572, 2377.546
533.6393, 2376.105
534.1214, 2374.749
534.6035, 2373.571
535.0856, 2373.597
535.5677, 2376.386
536.0499, 2379.297
536.5320, 2380.285
537.0141, 2379.742
537.4962, 2379.034
537.9783, 2378.741
538.4604, 2378.496
538.9426, 2377.567
539.4247, 2375.236
539.9068, 2374.121
540.3889, 2375.198
540.8710, 2376.462
541.3531, 2376.874
541.8353, 2376.604
542.3174, 2376.353
542.7995, 2376.529
543.2816, 2376.689
543.7637, 2375.607
544.2458, 2372.609
544.7280, 2370.556
545.2101, 2370.354
545.6922, 2370.775
546.1743, 2371.733
546.6564, 2372.846
547.1385, 2373.003
547.6207, 2371.292
548.1028, 2368.662
548.5849, 2366.213
549.0670, 2363.978
549.5491, 2362.818
550.0313, 2363.524
550.5134, 2364.807
550.9955, 2364.488
551.4776, 2362.500
551.9597, 2361.193
552.4418, 2361.487
552.9240, 2362.247
553.4061, 2362.416
553.8882, 2362.245
554.3703, 2362.960
554.8524, 2365.311
555.3345, 2368.095
555.8167, 2368.427
556.2988, 2364.136
556.7809, 2361.584
557.2630, 2361.256
557.7451, 2361.912
558.2272, 2363.305
558.7094, 2365.083
559.1915, 2366.787
559.6736, 2368.293
560.1557, 2369.199
560.6378, 2368.301
561.1199, 2365.203
561.6021, 2362.857
562.0842, 2362.259
562.5663, 2362.263
563.0484, 2361.898
563.5305, 2361.257
564.0126, 2360.841
564.4948, 2361.597
564.9769, 2362.118
565.4590, 2360.290
565.9411, 2356.737
566.4232, 2354.394
566.9053, 2354.471
567.3875, 2355.927
567.8696, 2357.186
568.3517, 2358.063
568.8338, 2359.458
569.3159, 2362.482
569.7980, 2364.931
570.2802, 2365.070
570.7623, 2363.837
571.2444, 2363.271
571.7265, 2364.308
572.2086, 2366.035
572.6907, 2366.858
573.1729, 2366.685
573.6550, 2365.909
574.1371, 2363.378
574.6192, 2361.488
575.1013, 2361.712
575.5834, 2363.285
576.0656, 2364.717
576.5477, 2365.599
577.0298, 2365.799
577.5119, 2364.522
577.9940, 2362.219
578.4761, 2361.581
578.9583, 2363.690
579.4404, 2366.004
579.9225, 2365.965
580.4046, 2363.655
580.8867, 2361.615
581.3688, 2358.587
581.8510, 2357.315
582.3331, 2360.713
582.8152, 2366.009
583.2973, 2368.950
583.7794, 2368.409
584.2615, 2366.448
584.7437, 2365.304
585.2258, 2364.969
585.7079, 2365.561
586.1900, 2367.232
586.6721, 2369.737
587.1542, 2374.908
587.6363, 2379.876
588.1184, 2380.613
588.6005, 2376.358
589.0826, 2372.058
589.5648, 2372.747
590.0469, 2377.091
590.5290, 2380.037
591.0111, 2381.039
591.4932, 2382.155
591.9753, 2385.128
592.4575, 2388.741
592.9396, 2389.990
593.4217, 2387.908
593.9038, 2386.083
594.3859, 2385.940
594.8680, 2386.417
595.3502, 2386.321
595.8323, 2385.674
596.3144, 2385.256
596.7965, 2385.603
597.2786, 2386.606
597.7607, 2387.872
598.2429, 2389.439
598.7250, 2391.247
599.2071, 2394.482
599.6892, 2396.920
600.1713, 2396.456
600.6534, 2393.866
601.1356, 2391.824
601.6177, 2391.994
602.0998, 2393.394
602.5819, 2394.288
603.0640, 2394.675
603.5461, 2395.513
604.0283, 2397.021
604.5104, 2399.124
604.9925, 2402.261
605.4746, 2406.252
605.9567, 2409.013
606.4388, 2409.974
606.9210, 2409.941
607.4031, 2408.721
607.8852, 2406.996
608.3673, 2406.014
608.8494, 2406.156
609.3315, 2406.861
609.8137, 2407.287
610.2958, 2407.250
610.7779, 2408.897
611.2600, 2414.750
611.7421, 2419.186
612.2242, 2420.054
612.7064, 2419.225
613.1885, 2418.586
613.6706, 2418.599
614.1527, 2419.150
614.6348, 2420.512
615.1169, 2422.315
615.5991, 2423.270
616.0812, 2423.192
616.5633, 2423.421
617.0454, 2425.169
617.5275, 2427.328
618.0096, 2427.115
618.4918, 2423.507
618.9739, 2421.204
619.4560, 2422.513
619.9381, 2424.422
620.4202, 2423.958
620.9023, 2421.808
621.3845, 2420.778
621.8666, 2422.436
622.3487, 2425.676
622.8308, 2428.219
623.3129, 2430.258
623.7950, 2430.987
624.2772, 2429.184
624.7593, 2427.208
625.2414, 2426.215
625.7235, 2425.793
626.2056, 2424.974
626.6877, 2423.214
627.1699, 2421.562
627.6520, 2420.689
628.1341, 2420.729
628.6162, 2422.667
629.0983, 2426.911
629.5804, 2430.741
630.0626, 2431.848
630.5447, 2430.596
631.0268, 2429.923
631.5089, 2430.429
631.9910, 2430.609
632.4731, 2429.373
632.9553, 2428.284
633.4374, 2429.341
633.9195, 2432.166
634.4016, 2434.361
634.8837, 2434.030
635.3658, 2432.076
635.8480, 2431.236
636.3301, 2431.737
636.8122, 2432.471
637.2943, 2433.922
637.7764, 2434.769
638.2585, 2433.124
638.7407, 2429.774
639.2228, 2428.245
639.7049, 2431.025
640.1870, 2434.616
640.6691, 2436.726
641.1512, 2437.543
641.6334, 2437.068
642.1155, 2435.333
642.5976, 2433.849
643.0797, 2434.439
643.5618, 2437.098
644.0439, 2438.152
644.5261, 2435.997
645.0082, 2434.168
645.4903, 2432.572
645.9724, 2431.892
646.4545, 2433.121
646.9366, 2436.088
647.4188, 2439.260
647.9009, 2441.460
648.3830, 2443.095
648.8651, 2445.500
649.3472, 2448.721
649.8293, 2449.987
650.3115, 2447.512
650.7936, 2444.075
651.2757, 2443.650
651.7578, 2446.379
652.2399, 2447.829
652.7220, 2444.850
653.2042, 2443.494
653.6863, 2448.520
654.1684, 2456.510
654.6505, 2461.932
655.1326, 2463.369
655.6147, 2463.702
656.0969, 2466.431
656.5790, 2471.281
657.0611, 2472.889
657.5432, 2468.747
658.0253, 2466.689
658.5074, 2471.704
658.9896, 2478.596
659.4717, 2482.898
659.9538, 2484.352
660.4359, 2485.582
660.9180, 2487.492
661.4001, 2489.909
661.8823, 2493.028
662.3644, 2496.542
662.8465, 2499.316
663.3286, 2500.872
663.8107, 2502.171
664.2928, 2504.608
664.7750, 2508.414
665.2571, 2511.807
665.7392, 2515.045
666.2213, 2517.566
666.7034, 2518.089
667.1855, 2518.460
667.6677, 2520.759
668.1498, 2525.332
668.6319, 2530.822
669.1140, 2537.027
669.5961, 2543.147
670.0782, 2547.050
670.5604, 2548.724
671.0425, 2550.360
671.5246, 2552.827
672.0067, 2555.627
672.4888, 2557.739
672.9709, 2558.715
673.4531, 2561.632
673.9352, 2568.788
674.4173, 2575.428
674.8994, 2578.607
675.3815, 2580.249
675.8636, 2583.464
676.3458, 2588.939
676.8279, 2594.499
677.3100, 2597.636
677.7921, 2598.778
678.2742, 2600.866
678.7563, 2604.185
679.2385, 2607.310
679.7206, 2608.837
680.2027, 2610.707
680.6848, 2615.737
681.1669, 2623.993
681.6490, 2631.529
682.1312, 2638.102
682.6133, 2642.950
683.0954, 2644.251
683.5775, 2643.729
684.0596, 2644.717
684.5417, 2648.221
685.0239, 2652.847
685.5060, 2657.178
685.9881, 2661.189
686.4702, 2664.415
686.9523, 2665.766
687.4344, 2668.411
687.9166, 2674.431
688.3987, 2681.287
688.8808, 2687.547
689.3629, 2692.924
689.8450, 2696.292
690.3271, 2695.831
690.8093, 2694.244
691.2914, 2693.500
691.7735, 2693.781
692.2556, 2695.764
692.7377, 2699.656
693.2198, 2704.242
693.7020, 2708.335
694.1841, 2711.914
694.6662, 2714.916
695.1483, 2717.672
695.6304, 2719.293
696.1125, 2718.453
696.5947, 2717.406
697.0768, 2718.391
697.5589, 2721.158
698.0410, 2723.296
698.5231, 2722.772
699.0052, 2721.780
699.4874, 2723.540
699.9695, 2727.327
700.4516, 2729.914
700.9337, 2730.375
701.4158, 2730.703
701.8979, 2733.022
702.3801, 2737.129
702.8622, 2739.627
703.3443, 2740.380
703.8264, 2739.587
704.3085, 2735.528
704.7906, 2731.272
705.2728, 2729.152
705.7549, 2729.041
706.2370, 2729.439
706.7191, 2729.385
707.2012, 2729.766
707.6833, 2732.829
708.1655, 2737.778
708.6476, 2739.971
709.1297, 2738.312
709.6118, 2735.124
710.0939, 2731.809
710.5760, 2728.553
711.0582, 2726.422
711.5403, 2726.239
712.0224, 2725.931
712.5045, 2725.299
712.9866, 2724.549
713.4688, 2724.447
713.9509, 2724.316
714.4330, 2722.170
714.9151, 2716.747
715.3972, 2710.949
715.8793, 2709.165
716.3615, 2710.694
716.8436, 2711.046
717.3257, 2709.618
717.8078, 2707.749
718.2899, 2706.063
718.7720, 2704.632
719.2542, 2703.681
719.7363, 2703.386
720.2184, 2703.083
720.7005, 2703.819
721.1826, 2703.438
721.6647, 2700.040
722.1469, 2694.729
722.6290, 2689.005
723.1111, 2683.495
723.5932, 2679.676
724.0753, 2680.694
724.5574, 2685.210
725.0396, 2685.857
725.5217, 2682.029
726.0038, 2677.377
726.4859, 2673.259
726.9680, 2669.454
727.4501, 2665.591
727.9323, 2661.526
728.4144, 2658.291
728.8965, 2657.000
729.3786, 2655.382
729.8607, 2652.283
730.3428, 2648.355
730.8250, 2644.258
731.3071, 2640.298
731.7892, 2636.948
732.2713, 2634.844
732.7534, 2633.570
733.2355, 2631.736
733.7177, 2629.284
734.1998, 2627.658
734.6819, 2627.566
735.1640, 2627.779
735.6461, 2627.156
736.1282, 2625.667
736.6104, 2623.579
737.0925, 2621.337
737.5746, 2617.912
738.0567, 2611.125
738.5388, 2604.410
739.0209, 2601.385
739.5031, 2601.617
739.9852, 2602.007
740.4673, 2600.812
740.9494, 2598.462
741.4315, 2595.231
741.9136, 2591.256
742.3958, 2588.539
742.8779, 2587.773
743.3600, 2586.532
743.8421, 2582.884
744.3242, 2577.626
744.8063, 2573.483
745.2885, 2570.629
745.7706, 2568.437
746.2527, 2567.665
746.7348, 2566.771
747.2169, 2564.170
747.6990, 2560.957
748.1812, 2559.327
748.6633, 2560.047
749.1454, 2561.473
749.6275, 2562.402
750.1096, 2562.608
750.5917, 2560.884
751.0739, 2557.116
751.5560, 2553.810
752.0381, 2552.091
752.5202, 2551.098
753.0023, 2549.537
753.4844, 2547.258
753.9666, 2545.399
754.4487, 2544.691
754.9308, 2543.451
755.4129, 2540.250
755.8950, 2536.903
756.3771, 2535.918
756.8593, 2537.009
757.3414, 2536.977
757.8235, 2533.077
758.3056, 2527.840
758.7877, 2525.149
759.2698, 2524.517
759.7520, 2523.869
760.2341, 2522.806
760.7162, 2521.168
761.1983, 2518.616
761.6804, 2515.491
762.1625, 2513.391
762.6447, 2512.598
763.1268, 2512.456
763.6089, 2513.815
764.0910, 2514.928
764.5731, 2514.563
765.0552, 2513.352
765.5374, 2512.661
766.0195, 2512.994
766.5016, 2513.188
766.9837, 2512.193
767.4658, 2510.535
767.9479, 2509.043
768.4301, 2507.728
768.9122, 2506.444
769.3943, 2505.145
769.8764, 2503.482
770.3585, 2500.687
770.8406, 2496.432
771.3228, 2494.484
771.8049, 2496.854
772.2870, 2498.357
772.7691, 2495.693
773.2512, 2493.042
773.7333, 2495.610
774.2155, 2502.570
774.6976, 2506.107
775.1797, 2500.160
775.6618, 2493.186
776.1439, 2491.619
776.6260, 2492.797
777.1082, 2492.448
777.5903, 2489.977
778.0724, 2487.078
778.5545, 2484.873
779.0366, 2483.404
779.5187, 2483.017
780.0009, 2483.955
780.4830, 2484.250
780.9651, 2483.230
781.4472, 2482.376
781.9293, 2482.808
782.4114, 2483.890
782.8936, 2484.540
783.3757, 2484.827
783.8578, 2484.229
784.3399, 2481.521
784.8220, 2478.946
785.3041, 2478.219
785.7863, 2478.650
786.2684, 2479.169
786.7505, 2479.353
787.2326, 2478.752
787.7147, 2476.490
788.1968, 2473.296
788.6790, 2471.608
789.1611, 2471.466
789.6432, 2471.503
790.1253, 2471.479
790.6074, 2471.176
791.0895, 2470.274
791.5717, 2468.855
792.0538, 2467.798
792.5359, 2467.422
793.0180, 2466.957
793.5001, 2466.053
793.9822, 2465.301
794.4644, 2464.915
794.9465, 2465.018
795.4286, 2465.906
795.9107, 2467.795
796.3928, 2469.709
796.8749, 2470.865
797.3571, 2471.414
797.8392, 2471.622
798.3213, 2471.495
798.8034, 2471.113
799.2855, 2470.547
799.7676, 2469.212
800.2498, 2465.886
800.7319, 2460.314
801.2140, 2457.819
801.6961, 2460.662
802.1782, 2462.480
802.6603, 2460.768
803.1425, 2458.098
803.6246, 2456.179
804.1067, 2455.023
804.5888, 2454.239
805.0709, 2453.675
805.5530, 2453.587
806.0352, 2454.500
806.5173, 2455.749
806.9994, 2456.357
807.4815, 2456.501
807.9636, 2457.393
808.4457, 2459.757
808.9279, 2462.202
809.4100, 2462.032
809.8921, 2459.500
810.3742, 2458.588
810.8563, 2459.835
811.3384, 2460.557
811.8206, 2459.180
812.3027, 2457.214
812.7848, 2457.131
813.2669, 2459.366
813.7490, 2460.274
814.2311, 2459.275
814.7133, 2457.708
815.1954, 2455.572
815.6775, 2453.295
816.1596, 2450.531
816.6417, 2447.906
817.1238, 2447.641
817.6060, 2451.832
818.0881, 2456.517
818.5702, 2457.520
819.0523, 2455.952
819.5344, 2453.827
820.0165, 2451.513
820.4987, 2449.477
820.9808, 2447.907
821.4629, 2447.196
821.9450, 2448.294
822.4271, 2451.538
822.9092, 2454.250
823.3914, 2457.215
823.8735, 2458.038
824.3556, 2453.325
824.8377, 2447.953
825.3198, 2447.946
825.8019, 2452.860
826.2841, 2455.410
826.7662, 2451.958
827.2483, 2448.601
827.7304, 2447.766
828.2125, 2448.459
828.6946, 2450.212
829.1768, 2452.456
829.6589, 2454.037
830.1410, 2454.322
830.6231, 2453.813
831.1052, 2452.914
831.5873, 2451.778
832.0695, 2451.006
832.5516, 2450.633
833.0337, 2450.577
833.5158, 2450.815
833.9979, 2451.293
834.4800, 2452.032
834.9622, 2453.100
835.4443, 2453.449
835.9264, 2452.626
836.4085, 2451.689
836.8906, 2450.396
837.3727, 2449.409
837.8549, 2449.301
838.3370, 2449.951
838.8191, 2450.887
839.3012, 2452.396
839.7833, 2453.353
840.2654, 2452.588
840.7476, 2451.363
841.2297, 2451.201
841.7118, 2451.877
842.1939, 2452.470
842.6760, 2452.572
843.1581, 2452.012
843.6403, 2450.010
844.1224, 2447.092
844.6045, 2446.302
845.0866, 2447.791
845.5687, 2448.937
846.0508, 2448.866
846.5330, 2448.435
847.0151, 2448.616
847.4972, 2449.273
847.9793, 2448.957
848.4614, 2446.397
848.9435, 2444.788
849.4257, 2444.264
849.9078, 2444.694
850.3899, 2447.162
850.8720, 2450.180
851.3541, 2450.851
851.8362, 2448.280
852.3184, 2445.682
852.8005, 2444.602
853.2826, 2444.466
853.7647, 2444.992
854.2468, 2445.949
854.7289, 2447.223
855.2111, 2448.618
855.6932, 2449.108
856.1753, 2447.390
856.6574, 2444.816
857.1395, 2445.892
857.6216, 2450.576
858.1038, 2451.706
858.5859, 2447.491
859.0680, 2443.001
859.5501, 2441.253
860.0322, 2441.615
860.5143, 2442.868
860.9965, 2446.161
861.4786, 2446.795
861.9607, 2441.470
862.4428, 2437.657
862.9249, 2438.635
863.4070, 2441.398
863.8892, 2443.131
864.3713, 2443.617
864.8534, 2443.673
865.3355, 2443.184
865.8176, 2442.961
866.2997, 2444.258
866.7819, 2445.693
867.2640, 2445.009
867.7461, 2442.634
868.2282, 2440.859
868.7103, 2440.798
869.1924, 2441.500
869.6746, 2441.481
870.1567, 2441.060
870.6388, 2442.608
871.1209, 2446.234
871.6030, 2447.149
872.0851, 2443.042
872.5673, 2438.640
873.0494, 2439.309
873.5315, 2444.375
874.0136, 2447.252
874.4957, 2446.655
874.9778, 2446.265
875.4600, 2446.657
875.9421, 2447.039
876.4242, 2447.574
876.9063, 2447.654
877.3884, 2445.773
877.8705, 2441.266
878.3527, 2438.197
878.8348, 2438.740
879.3169, 2440.366
879.7990, 2442.040
880.2811, 2443.409
880.7632, 2443.878
881.2454, 2443.561
881.7275, 2443.498
882.2096, 2444.614
882.6917, 2445.671
883.1738, 2443.724
883.6559, 2440.258
884.1381, 2441.267
884.6202, 2446.958
885.1023, 2450.644
885.5844, 2448.771
886.0665, 2445.068
886.5486, 2445.485
887.0308, 2450.130
887.5129, 2452.848
887.9950, 2453.003
888.4771, 2452.883
888.9592, 2452.907
889.4413, 2452.940
889.9235, 2452.970
890.4056, 2452.909
890.8877, 2452.377
891.3698, 2450.601
891.8519, 2449.844
892.3340, 2450.736
892.8162, 2452.432
893.2983, 2455.563
893.7804, 2458.701
894.2625, 2459.560
894.7446, 2457.897
895.2267, 2456.013
895.7089, 2455.836
896.1910, 2455.525
896.6731, 2452.279
897.1552, 2448.020
897.6373, 2446.303
898.1194, 2447.373
898.6016, 2449.543
899.0837, 2451.916
899.5658, 2454.117
900.0479, 2455.708
900.5300, 2456.622
901.0121, 2455.950
901.4943, 2453.477
901.9764, 2452.095
902.4585, 2452.956
902.9406, 2454.639
903.4227, 2455.789
903.9048, 2456.406
904.3870, 2456.486
904.8691, 2455.896
905.3512, 2455.016
905.8333, 2452.777
906.3154, 2451.533
906.7975, 2453.580
907.2797, 2456.822
907.7618, 2457.667
908.2439, 2455.492
908.7260, 2454.630
909.2081, 2457.067
909.6902, 2459.954
910.1724, 2462.601
910.6545, 2464.493
911.1366, 2464.615
911.6187, 2463.465
912.1008, 2462.947
912.5829, 2464.036
913.0651, 2465.501
913.5472, 2466.434
914.0293, 2466.863
914.5114, 2466.133
914.9935, 2464.907
915.4756, 2465.887
915.9578, 2469.794
916.4398, 2473.996
916.9219, 2475.992
917.4041, 2476.105
917.8862, 2474.896
918.3683, 2472.343
918.8504, 2471.081
919.3325, 2471.577
919.8146, 2472.974
920.2968, 2475.115
920.7789, 2477.288
921.2610, 2478.059
921.7431, 2477.110
922.2252, 2476.718
922.7073, 2476.771
923.1895, 2477.542
923.6716, 2480.843
924.1537, 2483.340
924.6358, 2481.158
925.1179, 2476.116
925.6000, 2474.520
926.0822, 2479.079
926.5643, 2482.353
927.0464, 2481.668
927.5285, 2480.047
928.0106, 2478.762
928.4927, 2478.023
928.9749, 2478.259
929.4570, 2479.327
929.9391, 2479.965
930.4212, 2479.029
930.9033, 2478.075
931.3854, 2478.491
931.8676, 2479.883
932.3497, 2481.734
932.8318, 2483.956
933.3139, 2486.914
933.7960, 2490.713
934.2781, 2493.514
934.7603, 2492.420
935.2424, 2488.818
935.7245, 2487.318
936.2066, 2487.785
936.6887, 2488.736
937.1708, 2489.898
937.6530, 2490.462
938.1351, 2489.638
938.6172, 2488.309
939.0993, 2488.819
939.5814, 2491.585
940.0635, 2493.962
940.5457, 2496.190
941.0278, 2497.360
941.5099, 2496.354
941.9920, 2495.191
942.4741, 2496.328
942.9562, 2499.427
943.4384, 2501.065
943.9205, 2499.480
944.4026, 2499.186
944.8847, 2502.275
945.3668, 2504.627
945.8489, 2503.686
946.3311, 2501.068
946.8132, 2498.576
947.2953, 2496.540
947.7774, 2496.047
948.2595, 2498.849
948.7416, 2501.614
949.2238, 2502.815
949.7059, 2503.017
950.1880, 2502.123
950.6701, 2500.861
951.1522, 2500.794
951.6343, 2502.494
952.1165, 2504.876
952.5986, 2508.167
953.0807, 2510.814
953.5628, 2509.797
954.0449, 2506.642
954.5270, 2504.624
955.0092, 2504.505
955.4913, 2506.630
955.9734, 2511.498
956.4555, 2516.540
956.9376, 2516.650
957.4197, 2513.035
957.9019, 2512.509
958.3840, 2515.184
958.8661, 2516.630
959.3482, 2515.300
959.8303, 2513.904
960.3124, 2515.112
960.7946, 2518.212
961.2767, 2520.522
961.7588, 2522.126
962.2409, 2522.340
962.7230, 2520.305
963.2051, 2519.133
963.6873, 2520.650
964.1694, 2523.105
964.6515, 2524.250
965.1336, 2524.086
965.6157, 2523.813
966.0978, 2522.391
966.5800, 2522.472
967.0621, 2526.320
967.5442, 2529.419
968.0263, 2528.516
968.5084, 2525.786
968.9905, 2524.663
969.4727, 2525.496
969.9548, 2526.915
970.4369, 2529.786
970.9190, 2531.729
971.4011, 2531.163
971.8832, 2529.889
972.3654, 2529.313
972.8475, 2529.436
973.3296, 2529.998
973.8117, 2531.017
974.2938, 2531.465
974.7759, 2529.866
975.2581, 2528.329
975.7402, 2528.928
976.2223, 2530.660
976.7044, 2532.035
977.1865, 2532.858
977.6686, 2533.552
978.1508, 2534.303
978.6329, 2535.172
979.1150, 2536.528
979.5971, 2537.872
980.0792, 2538.321
980.5613, 2537.953
981.0435, 2536.628
981.5256, 2534.595
982.0077, 2534.026
982.4898, 2536.754
982.9719, 2541.190
983.4540, 2544.667
983.9362, 2547.146
984.4183, 2548.057
984.9004, 2547.423
985.3825, 2546.815
985.8646, 2546.728
986.3467, 2547.629
986.8289, 2550.286
987.3110, 2553.925
987.7931, 2555.232
988.2752, 2553.840
988.7573, 2552.637
989.2394, 2551.387
989.7216, 2552.177
990.2037, 2556.683
990.6858, 2562.137
991.1679, 2565.132
991.6500, 2565.734
992.1321, 2565.167
992.6143, 2562.292
993.0964, 2560.891
993.5785, 2561.992
994.0606, 2563.641
994.5427, 2565.406
995.0248, 2566.823
995.5070, 2566.856
995.9891, 2565.354
996.4712, 2564.949
996.9533, 2566.766
997.4354, 2568.161
997.9175, 2568.049
998.3997, 2568.119
998.8818, 2569.515
999.3639, 2571.734
999.8460, 2573.964
1000.328, 2576.114
1000.810, 2577.958
1001.292, 2579.403
1001.774, 2580.563
1002.257, 2581.240
1002.739, 2581.835
1003.221, 2582.687
1003.703, 2583.720
1004.185, 2584.829
1004.667, 2586.013
1005.149, 2586.591
1005.631, 2585.928
1006.114, 2584.871
1006.596, 2583.237
1007.078, 2582.076
1007.560, 2583.075
1008.042, 2585.682
1008.524, 2587.886
1009.006, 2588.893
1009.488, 2589.864
1009.970, 2592.362
1010.453, 2594.737
1010.935, 2594.465
1011.417, 2592.999
1011.899, 2593.414
1012.381, 2595.587
1012.863, 2596.532
1013.345, 2594.628
1013.827, 2593.159
1014.310, 2597.128
1014.792, 2603.282
1015.274, 2604.877
1015.756, 2603.379
1016.238, 2603.830
1016.720, 2606.875
1017.202, 2609.097
1017.684, 2608.274
1018.166, 2607.319
1018.649, 2612.504
1019.131, 2620.947
1019.613, 2620.511
1020.095, 2612.603
1020.577, 2608.357
1021.059, 2610.256
1021.541, 2612.954
1022.023, 2612.665
1022.505, 2611.436
1022.988, 2614.056
1023.470, 2619.953
1023.952, 2620.847
1024.434, 2616.581
1024.916, 2614.565
1025.398, 2616.869
1025.880, 2620.282
1026.362, 2622.536
1026.845, 2623.731
1027.327, 2623.730
1027.809, 2622.340
1028.291, 2622.484
1028.773, 2624.318
1029.255, 2626.884
1029.737, 2630.258
1030.219, 2632.984
1030.702, 2633.607
1031.184, 2633.011
1031.666, 2633.911
1032.148, 2636.945
1032.630, 2637.540
1033.112, 2634.159
1033.594, 2632.970
1034.076, 2636.843
1034.558, 2641.133
1035.041, 2641.903
1035.523, 2640.234
1036.005, 2639.337
1036.487, 2639.040
1036.969, 2640.298
1037.451, 2644.230
1037.933, 2647.646
1038.415, 2649.706
1038.897, 2650.972
1039.380, 2651.992
1039.862, 2652.549
1040.344, 2651.784
1040.826, 2648.866
1041.308, 2647.056
1041.790, 2646.259
1042.272, 2646.708
1042.754, 2649.450
1043.237, 2652.556
1043.719, 2654.090
1044.201, 2654.827
1044.683, 2657.306
1045.165, 2662.925
1045.647, 2666.156
1046.129, 2665.938
1046.611, 2664.456
1047.094, 2660.344
1047.576, 2656.916
1048.058, 2657.509
1048.540, 2660.737
1049.022, 2662.515
1049.504, 2661.744
1049.986, 2662.627
1050.468, 2667.749
1050.950, 2671.900
1051.432, 2672.182
1051.915, 2671.974
1052.397, 2674.474
1052.879, 2678.564
1053.361, 2681.298
1053.843, 2682.159
1054.325, 2682.260
1054.807, 2680.557
1055.289, 2679.781
1055.772, 2682.232
1056.254, 2684.829
1056.736, 2684.090
1057.218, 2681.782
1057.700, 2682.594
1058.182, 2687.799
1058.664, 2691.315
1059.146, 2690.039
1059.629, 2688.634
1060.111, 2688.755
1060.593, 2689.702
1061.075, 2690.735
1061.557, 2692.146
1062.039, 2695.149
1062.521, 2700.070
1063.003, 2703.172
1063.485, 2701.756
1063.968, 2700.139
1064.450, 2699.602
1064.932, 2700.129
1065.414, 2702.858
1065.896, 2706.161
1066.378, 2706.753
1066.860, 2704.136
1067.342, 2702.253
1067.824, 2702.598
1068.307, 2704.021
1068.789, 2707.497
1069.271, 2710.464
1069.753, 2709.483
1070.235, 2707.112
1070.717, 2708.345
1071.199, 2713.650
1071.681, 2718.015
1072.164, 2719.406
1072.646, 2719.544
1073.128, 2718.342
1073.610, 2717.053
1074.092, 2716.872
1074.574, 2717.156
1075.056, 2716.083
1075.538, 2713.972
1076.021, 2714.625
1076.503, 2721.573
1076.985, 2727.318
1077.467, 2727.993
1077.949, 2726.484
1078.431, 2723.288
1078.913, 2720.262
1079.395, 2720.162
1079.877, 2722.688
1080.359, 2724.808
1080.842, 2725.232
1081.324, 2725.771
1081.806, 2727.175
1082.288, 2729.093
1082.770, 2732.426
1083.252, 2735.365
1083.734, 2734.489
1084.216, 2731.110
1084.698, 2731.009
1085.181, 2736.720
1085.663, 2742.096
1086.145, 2744.105
1086.627, 2745.210
1087.109, 2747.218
1087.591, 2748.855
1088.073, 2747.893
1088.555, 2745.434
1089.038, 2744.969
1089.520, 2747.641
1090.002, 2749.723
1090.484, 2748.836
1090.966, 2748.019
1091.448, 2749.030
1091.930, 2750.652
1092.412, 2751.581
1092.895, 2752.271
1093.377, 2754.133
1093.859, 2757.447
1094.341, 2759.937
1094.823, 2760.811
1095.305, 2760.677
1095.787, 2758.698
1096.269, 2756.879
1096.751, 2756.826
1097.234, 2757.954
1097.716, 2759.605
1098.198, 2761.518
1098.680, 2762.308
1099.162, 2760.764
1099.644, 2759.347
1100.126, 2758.045
1100.608, 2757.957
1101.090, 2760.953
1101.573, 2764.746
1102.055, 2766.044
1102.537, 2765.191
1103.019, 2765.873
1103.501, 2769.812
1103.983, 2773.013
1104.465, 2774.128
1104.947, 2774.817
1105.430, 2776.390
1105.912, 2777.433
1106.394, 2775.830
1106.876, 2772.533
1107.358, 2770.691
1107.840, 2770.817
1108.322, 2772.047
1108.804, 2775.677
1109.286, 2778.520
1109.769, 2779.638
1110.251, 2779.670
1110.733, 2777.714
1111.215, 2775.521
1111.697, 2777.220
1112.179, 2783.833
1112.661, 2787.745
1113.143, 2786.002
1113.625, 2785.081
1114.108, 2786.401
1114.590, 2788.179
1115.072, 2789.226
1115.554, 2790.258
1116.036, 2792.895
1116.518, 2796.991
1117.000, 2798.380
1117.482, 2793.375
1117.965, 2792.337
1118.447, 2799.287
1118.929, 2804.582
1119.411, 2803.425
1119.893, 2800.530
1120.375, 2800.312
1120.857, 2802.418
1121.339, 2805.543
1121.822, 2811.209
1122.304, 2812.938
1122.786, 2808.177
1123.268, 2805.627
1123.750, 2808.480
1124.232, 2812.436
1124.714, 2814.568
1125.196, 2815.357
1125.678, 2815.690
1126.161, 2815.510
1126.643, 2815.807
1127.125, 2816.626
1127.607, 2817.698
1128.089, 2819.044
1128.571, 2820.374
1129.053, 2821.608
1129.535, 2822.378
1130.017, 2821.804
1130.500, 2820.458
1130.982, 2822.751
1131.464, 2829.058
1131.946, 2832.769
1132.428, 2833.033
1132.910, 2834.353
1133.392, 2838.571
1133.874, 2842.449
1134.357, 2842.734
1134.839, 2841.190
1135.321, 2842.331
1135.803, 2845.853
1136.285, 2848.812
1136.767, 2851.130
1137.249, 2852.955
1137.731, 2854.316
1138.214, 2854.727
1138.696, 2853.800
1139.178, 2852.948
1139.660, 2854.523
1140.142, 2857.627
1140.624, 2859.600
1141.106, 2860.713
1141.588, 2861.870
1142.070, 2863.174
1142.552, 2864.299
1143.035, 2865.152
1143.517, 2866.321
1143.999, 2868.621
1144.481, 2870.978
1144.963, 2871.503
1145.445, 2871.087
1145.927, 2871.515
1146.409, 2872.411
1146.892, 2871.921
1147.374, 2870.149
1147.856, 2870.054
1148.338, 2873.561
1148.820, 2877.694
1149.302, 2880.075
1149.784, 2881.535
1150.266, 2882.934
1150.749, 2884.035
1151.231, 2883.786
1151.713, 2882.941
1152.195, 2883.816
1152.677, 2887.139
1153.159, 2891.017
1153.641, 2895.698
1154.123, 2899.045
1154.605, 2898.429
1155.088, 2897.296
1155.570, 2899.047
1156.052, 2902.102
1156.534, 2903.312
1157.016, 2902.645
1157.498, 2903.332
1157.980, 2907.137
1158.462, 2910.361
1158.944, 2911.049
1159.427, 2912.275
1159.909, 2916.082
1160.391, 2920.476
1160.873, 2924.013
1161.355, 2926.504
1161.837, 2927.230
1162.319, 2925.321
1162.801, 2925.321
1163.284, 2928.566
1163.766, 2931.542
1164.248, 2933.435
1164.730, 2935.482
1165.212, 2938.894
1165.694, 2942.138
1166.176, 2942.769
1166.658, 2941.177
1167.141, 2941.157
1167.623, 2943.475
1168.105, 2943.988
1168.587, 2941.799
1169.069, 2940.972
1169.551, 2943.172
1170.033, 2945.543
1170.515, 2945.687
1170.997, 2944.932
1171.479, 2946.724
1171.962, 2950.610
1172.444, 2949.406
1172.926, 2943.496
1173.408, 2941.943
1173.890, 2945.981
1174.372, 2949.743
1174.854, 2950.503
1175.336, 2951.007
1175.819, 2954.485
1176.301, 2958.971
1176.783, 2959.406
1177.265, 2957.988
1177.747, 2961.404
1178.229, 2968.321
1178.711, 2972.865
1179.193, 2973.948
1179.676, 2974.203
1180.158, 2974.981
1180.640, 2976.349
1181.122, 2978.900
1181.604, 2981.554
1182.086, 2983.791
1182.568, 2984.942
1183.050, 2982.847
1183.532, 2979.233
1184.015, 2978.836
1184.497, 2982.515
1184.979, 2984.998
1185.461, 2982.372
1185.943, 2980.532
1186.425, 2983.099
1186.907, 2986.321
1187.389, 2987.828
1187.871, 2988.527
1188.354, 2989.516
1188.836, 2990.815
1189.318, 2991.955
1189.800, 2992.505
1190.282, 2994.285
1190.764, 2998.896
1191.246, 3002.607
1191.728, 3004.062
1192.211, 3005.326
1192.693, 3007.713
1193.175, 3010.285
1193.657, 3011.610
1194.139, 3011.882
1194.621, 3013.141
1195.103, 3016.012
1195.585, 3016.756
1196.068, 3014.421
1196.550, 3014.109
1197.032, 3017.710
1197.514, 3021.588
1197.996, 3023.115
1198.478, 3023.184
1198.960, 3023.348
1199.442, 3023.447
1199.924, 3022.116
1200.406, 3019.783
1200.889, 3018.775
1201.371, 3019.464
1201.853, 3022.580
1202.335, 3028.165
1202.817, 3033.852
1203.299, 3038.302
1203.781, 3040.214
1204.263, 3035.190
1204.746, 3028.573
1205.228, 3029.381
1205.710, 3034.349
1206.192, 3037.115
1206.674, 3037.263
1207.156, 3036.959
1207.638, 3036.939
1208.120, 3038.316
1208.603, 3044.109
1209.085, 3048.285
1209.567, 3045.073
1210.049, 3041.693
1210.531, 3044.607
1211.013, 3050.224
1211.495, 3054.015
1211.977, 3055.563
1212.459, 3055.042
1212.942, 3050.463
1213.424, 3049.686
1213.906, 3057.637
1214.388, 3062.903
1214.870, 3062.726
1215.352, 3060.329
1215.834, 3056.471
1216.316, 3052.703
1216.798, 3050.915
1217.281, 3051.256
1217.763, 3055.925
1218.245, 3066.106
1218.727, 3069.820
1219.209, 3066.021
1219.691, 3061.715
1220.173, 3058.736
1220.655, 3057.908
1221.138, 3059.937
1221.620, 3063.129
1222.102, 3065.086
1222.584, 3066.350
1223.066, 3068.120
1223.548, 3070.475
1224.030, 3074.444
1224.512, 3079.159
1224.995, 3081.271
1225.477, 3080.327
1225.959, 3079.697
1226.441, 3081.443
1226.923, 3083.374
1227.405, 3083.389
1227.887, 3083.169
1228.369, 3084.119
1228.851, 3085.576
1229.333, 3086.346
1229.816, 3087.118
1230.298, 3090.410
1230.780, 3096.342
1231.262, 3098.910
1231.744, 3092.493
1232.226, 3089.485
1232.708, 3094.391
1233.190, 3099.198
1233.673, 3101.305
1234.155, 3102.249
1234.637, 3102.836
1235.119, 3103.428
1235.601, 3104.757
1236.083, 3106.836
1236.565, 3109.711
1237.047, 3113.657
1237.530, 3116.141
1238.012, 3116.826
1238.494, 3117.041
1238.976, 3117.213
1239.458, 3118.050
1239.940, 3120.291
1240.422, 3122.542
1240.904, 3121.458
1241.386, 3119.167
1241.869, 3121.868
1242.351, 3127.300
1242.833, 3129.890
1243.315, 3129.744
1243.797, 3129.662
1244.279, 3130.493
1244.761, 3131.354
1245.243, 3131.500
1245.725, 3132.216
1246.208, 3133.714
1246.690, 3136.809
1247.172, 3143.915
1247.654, 3151.334
1248.136, 3155.681
1248.618, 3157.133
1249.100, 3156.251
1249.582, 3152.929
1250.065, 3150.958
1250.547, 3151.890
1251.029, 3151.428
1251.511, 3147.321
1251.993, 3146.438
1252.475, 3152.446
1252.957, 3158.813
1253.439, 3160.410
1253.922, 3159.318
1254.404, 3159.458
1254.886, 3160.546
1255.368, 3159.863
1255.850, 3157.934
1256.332, 3160.182
1256.814, 3166.459
1257.296, 3172.167
1257.778, 3175.786
1258.260, 3177.607
1258.743, 3177.726
1259.225, 3176.825
1259.707, 3174.453
1260.189, 3172.643
1260.671, 3173.918
1261.153, 3176.892
1261.635, 3179.911
1262.117, 3183.101
1262.600, 3187.729
1263.082, 3193.493
1263.564, 3197.040
1264.046, 3195.906
1264.528, 3196.511
1265.010, 3202.864
1265.492, 3207.125
1265.974, 3205.188
1266.457, 3202.967
1266.939, 3203.822
1267.421, 3206.349
1267.903, 3208.778
1268.385, 3211.094
1268.867, 3213.375
1269.349, 3215.691
1269.831, 3216.024
1270.313, 3214.386
1270.796, 3215.616
1271.278, 3220.557
1271.760, 3225.112
1272.242, 3227.191
1272.724, 3227.909
1273.206, 3227.989
1273.688, 3228.098
1274.170, 3229.122
1274.652, 3230.776
1275.135, 3232.852
1275.617, 3235.177
1276.099, 3237.175
1276.581, 3239.219
1277.063, 3242.956
1277.545, 3248.994
1278.027, 3253.554
1278.509, 3255.095
1278.992, 3255.657
1279.474, 3256.389
1279.956, 3255.228
1280.438, 3248.655
1280.920, 3243.309
1281.402, 3245.644
1281.884, 3252.220
1282.366, 3255.543
1282.849, 3255.681
1283.331, 3255.537
1283.813, 3255.094
1284.295, 3256.848
1284.777, 3260.886
1285.259, 3264.381
1285.741, 3266.447
1286.223, 3267.552
1286.705, 3268.258
1287.188, 3268.659
##END=



