##NAMES=Geikielite
##RRUFFID=R070479
##IDEAL CHEMISTRY=MgTi^4+^O_3_
##LOCALITY=Colombo, Sri Lanka
##OWNER=RRUFF
##SOURCE=Royal Ontario Museum
##DESCRIPTION=Dark red fragment
##STATUS=The identification of this mineral has been confirmed only by single crystal X-ray diffraction.
##URL=rruff.info/R070479
93.74609, 2.110255
94.22821, 2.135147
94.71033, 2.087112
95.19244, 1.997248
95.67456, 1.978744
96.15668, 2.111467
96.63879, 2.352360
97.12091, 2.568124
97.60303, 2.762190
98.08514, 2.924016
98.56726, 3.013711
99.04938, 3.029178
99.53149, 3.066121
100.0136, 3.169642
100.4957, 3.339481
100.9778, 3.546633
101.4600, 3.797054
101.9421, 4.076035
102.4242, 4.341951
102.9063, 4.593463
103.3884, 4.841013
103.8705, 5.083249
104.3527, 5.313715
104.8348, 5.568911
105.3169, 5.864547
105.7990, 6.191646
106.2811, 6.510086
106.7632, 6.832307
107.2454, 7.129962
107.7275, 7.376445
108.2096, 7.556926
108.6917, 7.709909
109.1738, 7.822564
109.6559, 7.885742
110.1381, 8.003511
110.6202, 8.190914
111.1023, 8.428359
111.5844, 8.696487
112.0665, 8.968177
112.5486, 9.299167
113.0308, 9.716872
113.5129, 10.25116
113.9950, 10.77711
114.4771, 11.29501
114.9592, 11.78982
115.4413, 12.24708
115.9235, 12.61590
116.4056, 12.97888
116.8877, 13.37761
117.3698, 13.85958
117.8519, 14.29812
118.3340, 14.65587
118.8162, 14.93874
119.2983, 15.15993
119.7804, 15.26471
120.2625, 15.34425
120.7446, 15.46419
121.2267, 15.62516
121.7089, 15.85129
122.1910, 16.22335
122.6731, 16.70297
123.1552, 17.11099
123.6373, 17.33313
124.1194, 17.42120
124.6016, 17.43390
125.0837, 17.28534
125.5658, 17.14788
126.0479, 17.21627
126.5300, 17.48483
127.0121, 17.82597
127.4943, 18.15943
127.9764, 18.48470
128.4585, 18.81007
128.9406, 19.13528
129.4227, 19.46050
129.9048, 19.79166
130.3869, 20.13187
130.8691, 20.45306
131.3512, 20.74481
131.8333, 20.93173
132.3154, 20.93022
132.7975, 20.71674
133.2796, 20.38781
133.7618, 20.25766
134.2439, 20.34980
134.7260, 20.57675
135.2081, 20.85513
135.6902, 21.19210
136.1723, 21.44650
136.6545, 21.47968
137.1366, 21.29294
137.6187, 21.27082
138.1008, 21.46651
138.5829, 21.79717
139.0650, 22.12180
139.5472, 22.48133
140.0293, 22.69446
140.5114, 22.60076
140.9935, 22.11311
141.4756, 21.72298
141.9577, 21.47534
142.4399, 21.35080
142.9220, 21.26620
143.4041, 21.20794
143.8862, 21.20712
144.3683, 21.29910
144.8504, 21.53633
145.3326, 21.74460
145.8147, 21.89580
146.2968, 21.99463
146.7789, 22.08305
147.2610, 22.18107
147.7431, 22.25392
148.2253, 22.26813
148.7074, 22.15510
149.1895, 22.07904
149.6716, 22.05630
150.1537, 22.08164
150.6358, 22.19256
151.1180, 22.46206
151.6001, 22.78374
152.0822, 23.04291
152.5643, 23.26200
153.0464, 23.39896
153.5285, 23.41674
154.0107, 23.27218
154.4928, 23.18032
154.9749, 23.24868
155.4570, 23.34835
155.9391, 23.31661
156.4212, 22.93121
156.9034, 22.58879
157.3855, 22.43477
157.8676, 22.54581
158.3497, 22.65753
158.8318, 22.74482
159.3139, 22.80120
159.7961, 22.81619
160.2782, 22.72237
160.7603, 22.63590
161.2424, 22.61267
161.7245, 22.67420
162.2066, 22.76842
162.6888, 22.92237
163.1709, 23.09860
163.6530, 23.21421
164.1351, 23.17456
164.6172, 23.10185
165.0993, 23.07334
165.5815, 23.10627
166.0636, 23.18044
166.5457, 23.31234
167.0278, 23.48303
167.5099, 23.63481
167.9921, 23.74954
168.4742, 23.82714
168.9563, 23.85868
169.4384, 23.78616
169.9205, 23.74204
170.4026, 23.89153
170.8848, 24.17867
171.3669, 24.36155
171.8490, 24.19846
172.3311, 23.88153
172.8132, 23.63668
173.2953, 23.53214
173.7775, 23.52004
174.2596, 23.57918
174.7417, 23.70334
175.2238, 23.84690
175.7059, 24.00491
176.1880, 24.15573
176.6702, 24.25928
177.1523, 24.25043
177.6344, 24.22550
178.1165, 24.32868
178.5986, 24.55421
179.0807, 24.77127
179.5629, 24.86347
180.0450, 24.86649
180.5271, 24.86201
181.0092, 24.87182
181.4913, 24.89394
181.9734, 24.90377
182.4556, 24.89871
182.9377, 24.94969
183.4198, 25.18220
183.9019, 25.54403
184.3840, 25.84363
184.8661, 25.93488
185.3483, 25.92775
185.8304, 26.13799
186.3125, 26.59170
186.7946, 27.03561
187.2767, 27.11438
187.7588, 26.89525
188.2409, 26.76700
188.7231, 26.98239
189.2052, 27.42271
189.6873, 27.61106
190.1694, 27.50653
190.6515, 27.35918
191.1336, 27.53640
191.6158, 28.01323
192.0979, 28.43168
192.5800, 28.59924
193.0621, 28.55935
193.5442, 28.60119
194.0263, 28.73211
194.5085, 28.92373
194.9906, 29.13067
195.4727, 29.35208
195.9548, 29.62046
196.4369, 29.99817
196.9190, 30.47140
197.4012, 30.79856
197.8833, 30.95557
198.3654, 31.01952
198.8475, 31.07645
199.3296, 31.11909
199.8117, 31.23003
200.2939, 31.47724
200.7760, 31.86187
201.2581, 32.19488
201.7402, 32.46545
202.2223, 32.69572
202.7044, 32.94050
203.1866, 33.21255
203.6687, 33.41769
204.1508, 33.47266
204.6329, 33.35484
205.1150, 33.34420
205.5971, 33.45367
206.0793, 33.65918
206.5614, 33.93989
207.0435, 34.31812
207.5256, 34.67486
208.0077, 34.96793
208.4898, 35.20197
208.9720, 35.33373
209.4541, 35.33632
209.9362, 35.26050
210.4183, 35.21215
210.9004, 35.20152
211.3825, 35.18769
211.8647, 35.16425
212.3468, 35.14520
212.8289, 35.03643
213.3110, 34.79007
213.7931, 34.48545
214.2752, 34.33049
214.7574, 34.39988
215.2395, 34.43530
215.7216, 34.31422
216.2037, 34.00319
216.6858, 33.65621
217.1679, 33.24003
217.6501, 32.80720
218.1322, 32.50484
218.6143, 32.39768
219.0964, 32.28087
219.5785, 32.05753
220.0606, 31.68202
220.5428, 31.33170
221.0249, 30.99193
221.5070, 30.68715
221.9891, 30.50708
222.4712, 30.53837
222.9533, 30.52862
223.4355, 30.34209
223.9176, 29.86456
224.3997, 29.53572
224.8818, 29.40027
225.3639, 29.39090
225.8460, 29.35371
226.3282, 29.28572
226.8103, 29.19549
227.2924, 29.09142
227.7745, 28.98234
228.2566, 28.82555
228.7387, 28.58798
229.2209, 28.31626
229.7030, 28.13290
230.1851, 28.09155
230.6672, 28.04871
231.1493, 27.93053
231.6314, 27.66835
232.1136, 27.52375
232.5957, 27.54456
233.0778, 27.66199
233.5599, 27.72950
234.0420, 27.73957
234.5241, 27.71157
235.0063, 27.64490
235.4884, 27.51844
235.9705, 27.41456
236.4526, 27.32939
236.9347, 27.26718
237.4168, 27.24134
237.8990, 27.27990
238.3811, 27.30888
238.8632, 27.29525
239.3453, 27.21625
239.8274, 27.16491
240.3095, 27.16131
240.7917, 27.17466
241.2738, 27.13218
241.7559, 26.95007
242.2380, 26.85083
242.7201, 26.93772
243.2022, 27.29087
243.6844, 27.56181
244.1665, 27.73363
244.6486, 27.83616
245.1307, 27.90964
245.6128, 27.90815
246.0949, 27.95580
246.5771, 28.10793
247.0592, 28.40414
247.5413, 28.64312
248.0234, 28.79017
248.5055, 28.90163
248.9876, 29.05980
249.4697, 29.27497
249.9519, 29.51910
250.4340, 29.78731
250.9161, 30.08297
251.3982, 30.39197
251.8803, 30.73852
252.3624, 31.07685
252.8446, 31.32661
253.3267, 31.43310
253.8088, 31.56466
254.2909, 31.77940
254.7730, 32.09493
255.2551, 32.35223
255.7373, 32.49221
256.2194, 32.63374
256.7015, 32.93980
257.1836, 33.51625
257.6657, 34.02211
258.1479, 34.33950
258.6300, 34.44654
259.1121, 34.69681
259.5942, 35.16993
260.0763, 35.69362
260.5584, 36.08489
261.0406, 36.27874
261.5227, 36.49731
262.0048, 36.80610
262.4869, 37.19984
262.9690, 37.53567
263.4511, 37.81226
263.9333, 38.03011
264.4154, 38.17583
264.8975, 38.22125
265.3796, 38.29139
265.8617, 38.43815
266.3438, 38.64436
266.8260, 38.71930
267.3081, 38.61736
267.7902, 38.46742
268.2723, 38.39912
268.7544, 38.45656
269.2365, 38.42035
269.7187, 38.24169
270.2008, 37.94092
270.6829, 37.64138
271.1650, 37.35252
271.6471, 37.04177
272.1292, 36.67085
272.6114, 36.21553
273.0935, 35.83789
273.5756, 35.59399
274.0577, 35.43069
274.5398, 35.14163
275.0219, 34.69344
275.5041, 34.22635
275.9862, 33.82697
276.4683, 33.49980
276.9504, 33.19880
277.4325, 32.91896
277.9146, 32.66360
278.3968, 32.45485
278.8788, 32.30563
279.3610, 32.14298
279.8431, 31.90884
280.3252, 31.60198
280.8073, 31.34086
281.2894, 31.13621
281.7715, 30.97617
282.2537, 30.85854
282.7358, 30.79134
283.2179, 30.69135
283.7000, 30.47698
284.1821, 30.15679
284.6642, 29.96223
285.1464, 29.92110
285.6285, 29.94562
286.1106, 29.88247
286.5927, 29.73032
287.0748, 29.63290
287.5569, 29.67118
288.0391, 29.82703
288.5212, 29.99545
289.0033, 30.18786
289.4854, 30.34617
289.9675, 30.37613
290.4496, 30.28776
290.9318, 30.20039
291.4139, 30.17686
291.8960, 30.18616
292.3781, 30.10896
292.8602, 29.93690
293.3423, 29.75826
293.8245, 29.63587
294.3066, 29.57427
294.7887, 29.59968
295.2708, 29.75045
295.7529, 29.97485
296.2350, 30.18218
296.7172, 30.37110
297.1993, 30.52178
297.6814, 30.58944
298.1635, 30.60397
298.6456, 30.65234
299.1277, 30.77036
299.6099, 30.91658
300.0920, 31.02494
300.5741, 31.10087
301.0562, 31.16954
301.5383, 31.20705
302.0204, 31.25712
302.5026, 31.41959
302.9847, 31.75997
303.4668, 32.12283
303.9489, 32.31926
304.4310, 32.38164
304.9131, 32.44523
305.3953, 32.57396
305.8774, 32.75499
306.3595, 32.98061
306.8416, 33.25875
307.3237, 33.54009
307.8058, 33.77903
308.2880, 33.98518
308.7701, 34.17987
309.2522, 34.38147
309.7343, 34.57400
310.2164, 34.73665
310.6985, 34.86644
311.1807, 34.99823
311.6628, 35.14191
312.1449, 35.30781
312.6270, 35.50652
313.1091, 35.74298
313.5912, 36.01495
314.0734, 36.37144
314.5555, 36.80999
315.0376, 37.15260
315.5197, 37.21207
316.0018, 37.16529
316.4839, 37.19445
316.9661, 37.45190
317.4482, 37.70884
317.9303, 37.84432
318.4124, 37.87834
318.8945, 37.94773
319.3766, 38.16537
319.8588, 38.40193
320.3409, 38.55769
320.8230, 38.52762
321.3051, 38.52645
321.7872, 38.64399
322.2693, 38.84005
322.7515, 38.99187
323.2336, 39.01700
323.7157, 39.03114
324.1978, 39.09087
324.6799, 39.21943
325.1620, 39.36006
325.6442, 39.53792
326.1263, 39.71921
326.6084, 39.84391
327.0905, 39.83995
327.5726, 39.83947
328.0547, 39.87006
328.5369, 39.91632
329.0190, 40.05066
329.5011, 40.39448
329.9832, 40.77347
330.4653, 40.98891
330.9474, 40.92807
331.4296, 40.84260
331.9117, 40.74908
332.3938, 40.64306
332.8759, 40.65424
333.3580, 40.89137
333.8401, 41.14409
334.3223, 41.23774
334.8044, 41.10158
335.2865, 40.94845
335.7686, 40.79652
336.2507, 40.64616
336.7328, 40.51363
337.2150, 40.41296
337.6971, 40.30087
338.1792, 40.14246
338.6613, 39.92212
339.1434, 39.73008
339.6255, 39.60048
340.1077, 39.47814
340.5898, 39.21997
341.0719, 38.80786
341.5540, 38.35567
342.0361, 37.92379
342.5182, 37.51279
343.0004, 37.04515
343.4825, 36.49556
343.9646, 35.95976
344.4467, 35.63945
344.9288, 35.54152
345.4109, 35.33363
345.8931, 34.85084
346.3752, 34.16523
346.8573, 33.58639
347.3394, 33.11294
347.8215, 32.71261
348.3036, 32.38214
348.7858, 32.10551
349.2679, 31.80439
349.7500, 31.45017
350.2321, 31.06911
350.7142, 30.72892
351.1964, 30.42468
351.6785, 30.09204
352.1606, 29.63003
352.6427, 29.11919
353.1248, 28.72342
353.6069, 28.49254
354.0891, 28.30484
354.5712, 28.01254
355.0533, 27.65293
355.5354, 27.32587
356.0175, 27.12600
356.4996, 26.97044
356.9818, 26.75813
357.4639, 26.47391
357.9460, 26.20220
358.4281, 26.02570
358.9102, 25.89413
359.3923, 25.73724
359.8745, 25.45993
360.3566, 25.20098
360.8387, 25.07896
361.3208, 25.08200
361.8029, 25.05031
362.2850, 24.83285
362.7672, 24.58916
363.2493, 24.45411
363.7314, 24.56310
364.2135, 24.66194
364.6956, 24.69425
365.1777, 24.65899
365.6599, 24.55076
366.1420, 24.26768
366.6241, 23.98808
367.1062, 23.79740
367.5883, 23.71432
368.0704, 23.69271
368.5526, 23.72812
369.0347, 23.82206
369.5168, 23.97767
369.9989, 24.34847
370.4810, 24.62066
370.9631, 24.69884
371.4453, 24.55276
371.9274, 24.44601
372.4095, 24.39108
372.8916, 24.36573
373.3737, 24.34349
373.8558, 24.28137
374.3380, 24.31548
374.8201, 24.50738
375.3022, 24.81750
375.7843, 25.01228
376.2664, 25.05922
376.7485, 25.06438
377.2307, 24.93228
377.7128, 25.21718
378.1949, 25.41921
378.6770, 25.54241
379.1591, 25.37370
379.6412, 25.56430
380.1234, 25.60015
380.6055, 25.62225
381.0876, 25.84141
381.5697, 25.67558
382.0518, 25.87611
382.5339, 25.91963
383.0161, 26.02380
383.4982, 25.97228
383.9803, 25.95878
384.4624, 26.08562
384.9445, 26.12279
385.4266, 26.02347
385.9088, 26.08580
386.3909, 25.83785
386.8730, 25.84774
387.3551, 25.96450
387.8372, 25.83415
388.3193, 25.86072
388.8015, 25.81689
389.2836, 25.67291
389.7657, 25.51950
390.2478, 25.25198
390.7299, 24.95085
391.2120, 24.62242
391.6942, 24.29871
392.1763, 24.02077
392.6584, 23.79671
393.1405, 23.55612
393.6226, 23.22320
394.1047, 22.86868
394.5869, 22.57250
395.0690, 22.40761
395.5511, 22.25721
396.0332, 22.07301
396.5153, 21.86408
396.9974, 21.68069
397.4796, 21.51441
397.9617, 21.39261
398.4438, 21.34701
398.9259, 21.51348
399.4080, 21.52080
399.8901, 21.21026
400.3723, 20.73727
400.8544, 20.39338
401.3365, 20.23522
401.8186, 20.13951
402.3007, 20.10393
402.7828, 20.14561
403.2649, 20.08548
403.7470, 19.84458
404.2292, 19.58586
404.7113, 19.47073
405.1934, 19.55810
405.6755, 19.60930
406.1576, 19.57134
406.6397, 19.47942
407.1219, 19.47918
407.6040, 19.60096
408.0861, 19.69550
408.5682, 19.64899
409.0503, 19.46509
409.5324, 19.34462
410.0146, 19.30541
410.4967, 19.30247
410.9788, 19.28369
411.4609, 19.24848
411.9430, 19.18652
412.4251, 19.05826
412.9073, 18.91514
413.3894, 18.87772
413.8715, 18.94451
414.3536, 19.04039
414.8357, 19.15218
415.3178, 19.24374
415.8000, 19.22925
416.2821, 19.03918
416.7642, 18.83824
417.2463, 18.80643
417.7284, 18.89215
418.2105, 18.95894
418.6927, 18.91175
419.1748, 18.83600
419.6569, 18.80058
420.1390, 18.81680
420.6211, 18.82728
421.1032, 18.77716
421.5854, 18.71824
422.0675, 18.70626
422.5496, 18.80930
423.0317, 18.90598
423.5138, 18.96224
423.9959, 18.98142
424.4781, 18.99207
424.9602, 19.00778
425.4423, 19.00824
425.9244, 18.97756
426.4065, 18.86738
426.8886, 18.81849
427.3708, 18.86756
427.8529, 18.96184
428.3350, 19.01692
428.8171, 19.00482
429.2992, 19.00602
429.7813, 19.05453
430.2635, 19.14719
430.7456, 19.17158
431.2277, 19.10232
431.7098, 19.01968
432.1919, 18.99208
432.6740, 19.02412
433.1562, 19.05401
433.6383, 19.07210
434.1204, 19.08755
434.6025, 19.13897
435.0846, 19.22445
435.5667, 19.26027
436.0489, 19.16614
436.5310, 18.98759
437.0131, 18.85745
437.4952, 18.77687
437.9773, 18.75185
438.4594, 18.83096
438.9416, 18.96775
439.4237, 19.06004
439.9058, 19.04585
440.3879, 19.01346
440.8700, 19.07144
441.3521, 19.19021
441.8343, 19.26504
442.3164, 19.13782
442.7985, 19.00858
443.2806, 19.07241
443.7627, 19.41334
444.2448, 19.67768
444.7270, 19.64647
445.2091, 19.48068
445.6912, 19.37045
446.1733, 19.38435
446.6554, 19.43454
447.1375, 19.51063
447.6197, 19.60944
448.1018, 19.70206
448.5839, 19.79928
449.0660, 19.87826
449.5481, 19.92069
450.0302, 19.87524
450.5124, 19.90615
450.9945, 20.05675
451.4766, 20.25435
451.9587, 20.37647
452.4408, 20.39888
452.9229, 20.41654
453.4051, 20.46757
453.8872, 20.54144
454.3693, 20.53526
454.8514, 20.42921
455.3335, 20.32940
455.8156, 20.33650
456.2978, 20.43842
456.7799, 20.51319
457.2620, 20.53418
457.7441, 20.55093
458.2262, 20.68111
458.7083, 20.88872
459.1905, 21.01670
459.6726, 20.90085
460.1547, 20.69596
460.6368, 20.61712
461.1189, 20.66385
461.6010, 20.75852
462.0832, 20.90419
462.5653, 21.04356
463.0474, 21.10391
463.5295, 21.03555
464.0116, 20.94308
464.4937, 20.85970
464.9759, 20.79288
465.4580, 20.76074
465.9401, 20.77890
466.4222, 20.82455
466.9043, 20.91738
467.3864, 21.07720
467.8686, 21.13713
468.3507, 20.97520
468.8328, 20.77172
469.3149, 20.65689
469.7970, 20.67987
470.2791, 20.71382
470.7613, 20.77789
471.2434, 20.84033
471.7255, 20.80031
472.2076, 20.60885
472.6897, 20.43853
473.1718, 20.37886
473.6540, 20.43013
474.1361, 20.35845
474.6182, 20.13486
475.1003, 19.89403
475.5824, 19.79093
476.0645, 19.80921
476.5467, 19.80018
477.0288, 19.72421
477.5109, 19.62496
477.9930, 19.58979
478.4751, 19.60178
478.9572, 19.58001
479.4394, 19.44597
479.9215, 19.26687
480.4036, 19.11945
480.8857, 19.00676
481.3678, 18.93459
481.8499, 18.93716
482.3321, 18.97005
482.8142, 18.98431
483.2963, 18.96903
483.7784, 18.92900
484.2605, 18.85114
484.7426, 18.74937
485.2248, 18.65855
485.7069, 18.58148
486.1890, 18.52298
486.6711, 18.49520
487.1532, 18.51202
487.6353, 18.49180
488.1175, 18.41035
488.5996, 18.31371
489.0817, 18.23423
489.5638, 18.16327
490.0459, 18.13987
490.5280, 18.19865
491.0102, 18.28819
491.4923, 18.26289
491.9744, 18.09802
492.4565, 17.94277
492.9386, 17.88058
493.4207, 17.88927
493.9029, 17.80223
494.3850, 17.60852
494.8671, 17.42071
495.3492, 17.36057
495.8313, 17.39010
496.3134, 17.40008
496.7956, 17.36473
497.2777, 17.31023
497.7598, 17.25406
498.2419, 17.20065
498.7240, 17.16244
499.2061, 17.17995
499.6883, 17.18878
500.1704, 17.11586
500.6525, 16.96211
501.1346, 16.86124
501.6167, 16.93274
502.0988, 17.03598
502.5810, 17.06652
503.0631, 16.95686
503.5452, 16.85201
504.0273, 16.76526
504.5094, 16.69519
504.9915, 16.64289
505.4737, 16.61953
505.9558, 16.59577
506.4379, 16.55413
506.9200, 16.49816
507.4021, 16.49720
507.8842, 16.56087
508.3664, 16.65760
508.8485, 16.80808
509.3306, 17.01645
509.8127, 17.05149
510.2948, 16.86903
510.7769, 16.59440
511.2591, 16.36465
511.7412, 16.18821
512.2233, 16.12272
512.7054, 16.25156
513.1875, 16.44888
513.6696, 16.52527
514.1517, 16.49804
514.6339, 16.46225
515.1160, 16.48676
515.5981, 16.52636
516.0802, 16.53799
516.5623, 16.51270
517.0444, 16.47767
517.5266, 16.43743
518.0087, 16.39749
518.4908, 16.36386
518.9729, 16.37133
519.4550, 16.34798
519.9371, 16.22739
520.4193, 16.05115
520.9014, 16.00213
521.3835, 16.19551
521.8656, 16.36710
522.3477, 16.41486
522.8298, 16.32196
523.3120, 16.23844
523.7941, 16.16192
524.2762, 16.10270
524.7583, 16.07397
525.2404, 16.07638
525.7225, 16.09233
526.2047, 16.12429
526.6868, 16.15881
527.1689, 16.17198
527.6510, 16.16543
528.1331, 16.15072
528.6152, 16.11167
529.0974, 16.07778
529.5795, 16.11093
530.0616, 16.20427
530.5437, 16.27434
531.0258, 16.25747
531.5079, 16.19608
531.9901, 16.12031
532.4722, 16.01532
532.9543, 15.95366
533.4364, 16.01364
533.9185, 16.11782
534.4006, 16.16219
534.8828, 16.03088
535.3649, 15.94404
535.8470, 15.98017
536.3291, 16.11000
536.8112, 16.16088
537.2933, 16.07117
537.7755, 15.99910
538.2576, 16.03243
538.7397, 16.19251
539.2218, 16.28180
539.7039, 16.28632
540.1860, 16.25572
540.6682, 16.24507
541.1503, 16.25114
541.6324, 16.23086
542.1145, 16.16245
542.5966, 16.08928
543.0787, 16.09715
543.5609, 16.16426
544.0430, 16.20910
544.5251, 16.13817
545.0072, 16.05768
545.4893, 16.09962
545.9714, 16.25597
546.4536, 16.38655
546.9357, 16.41079
547.4178, 16.38320
547.8999, 16.34027
548.3820, 16.27693
548.8641, 16.22443
549.3463, 16.05484
549.8284, 16.23671
550.3105, 16.34352
550.7926, 16.37932
551.2747, 16.13103
551.7568, 16.24987
552.2390, 16.22176
552.7211, 16.18774
553.2032, 16.35860
553.6853, 16.15228
554.1674, 16.32014
554.6495, 16.33881
555.1317, 16.42594
555.6138, 16.36522
556.0959, 16.35032
556.5780, 16.48358
557.0601, 16.53500
557.5422, 16.45774
558.0244, 16.54996
558.5065, 16.33972
558.9886, 16.39512
559.4707, 16.56522
559.9528, 16.49602
560.4349, 16.59157
560.9171, 16.62455
561.3992, 16.37271
561.8813, 16.61654
562.3634, 16.64618
562.8455, 16.45591
563.3276, 16.68312
563.8098, 16.52344
564.2919, 16.50202
564.7740, 16.58469
565.2561, 16.55910
565.7382, 16.70452
566.2203, 16.68544
566.7025, 16.65178
567.1846, 16.68243
567.6667, 16.53132
568.1488, 16.71777
568.6309, 16.67384
569.1130, 16.74461
569.5952, 16.84148
570.0773, 16.73963
570.5594, 16.84841
571.0415, 16.63087
571.5236, 16.68660
572.0057, 16.71304
572.4879, 16.91421
572.9700, 16.69875
573.4521, 16.74739
573.9342, 16.90856
574.4163, 16.91257
574.8984, 16.98247
575.3806, 16.85783
575.8627, 16.91676
576.3448, 17.01503
576.8269, 17.10578
577.3090, 17.18887
577.7911, 17.25450
578.2733, 17.27717
578.7554, 17.23386
579.2375, 17.19115
579.7196, 17.16360
580.2017, 17.15214
580.6838, 17.18147
581.1660, 17.26122
581.6481, 17.32246
582.1302, 17.29482
582.6123, 17.20233
583.0944, 17.14019
583.5765, 17.11387
584.0587, 17.12619
584.5408, 17.20459
585.0229, 17.31916
585.5050, 17.42310
585.9871, 17.52612
586.4692, 17.57789
586.9514, 17.50866
587.4335, 17.36927
587.9156, 17.26635
588.3977, 17.21414
588.8798, 17.22151
589.3619, 17.31436
589.8441, 17.49174
590.3262, 17.64560
590.8083, 17.78949
591.2904, 17.88982
591.7725, 17.92451
592.2546, 17.88468
592.7368, 17.81527
593.2189, 17.69311
593.7010, 17.60136
594.1831, 17.67653
594.6652, 17.88966
595.1473, 18.01476
595.6295, 17.98703
596.1116, 17.90905
596.5937, 17.91043
597.0758, 17.97209
597.5579, 18.04401
598.0400, 18.14506
598.5222, 18.21136
599.0043, 18.14103
599.4864, 17.97376
599.9685, 17.90523
600.4506, 18.13126
600.9327, 18.37170
601.4149, 18.47616
601.8970, 18.38972
602.3791, 18.34900
602.8612, 18.36882
603.3433, 18.42219
603.8254, 18.50040
604.3076, 18.62598
604.7897, 18.68447
605.2718, 18.65302
605.7539, 18.58158
606.2360, 18.54350
606.7181, 18.53735
607.2003, 18.55447
607.6824, 18.59885
608.1645, 18.65743
608.6466, 18.71513
609.1287, 18.77048
609.6108, 18.81565
610.0930, 18.84093
610.5751, 18.85831
611.0572, 18.88861
611.5393, 18.93044
612.0214, 18.93173
612.5035, 18.75986
612.9857, 18.62499
613.4678, 18.68028
613.9499, 19.08957
614.4320, 19.32113
614.9141, 19.28567
615.3962, 19.15624
615.8784, 19.11860
616.3605, 19.19670
616.8426, 19.25454
617.3247, 19.26688
617.8068, 19.25935
618.2889, 19.29470
618.7711, 19.36488
619.2532, 19.39726
619.7353, 19.32129
620.2174, 19.22162
620.6995, 19.24745
621.1816, 19.37296
621.6638, 19.46949
622.1459, 19.40651
622.6280, 19.33245
623.1101, 19.36872
623.5922, 19.53551
624.0743, 19.68198
624.5565, 19.76882
625.0386, 19.82118
625.5207, 19.85391
626.0028, 19.85584
626.4849, 19.86341
626.9670, 19.87661
627.4492, 19.89534
627.9313, 19.91427
628.4134, 19.93004
628.8955, 19.98215
629.3776, 20.09430
629.8597, 20.22006
630.3419, 20.26301
630.8240, 20.23880
631.3061, 20.22247
631.7882, 20.26733
632.2703, 20.32672
632.7524, 20.36651
633.2346, 20.38153
633.7167, 20.34754
634.1988, 20.14717
634.6809, 19.97963
635.1630, 19.99821
635.6451, 20.26013
636.1273, 20.41457
636.6094, 20.32804
637.0915, 20.20523
637.5736, 20.17325
638.0557, 20.25764
638.5378, 20.36363
639.0200, 20.50948
639.5021, 20.64069
639.9842, 20.65792
640.4663, 20.57105
640.9484, 20.53556
641.4305, 20.59582
641.9127, 20.70535
642.3948, 20.82642
642.8769, 20.94542
643.3590, 21.02829
643.8411, 20.99804
644.3232, 20.97733
644.8054, 21.09009
645.2875, 21.29959
645.7696, 21.43426
646.2517, 21.36781
646.7338, 21.28068
647.2159, 21.24773
647.6981, 21.27243
648.1802, 21.31631
648.6623, 21.38594
649.1444, 21.46614
649.6265, 21.52708
650.1086, 21.56141
650.5908, 21.75401
651.0729, 22.16161
651.5550, 22.52386
652.0371, 22.44045
652.5192, 22.06592
653.0013, 21.88989
653.4835, 22.08693
653.9656, 22.32921
654.4477, 22.29551
654.9298, 22.10917
655.4119, 21.97563
655.8940, 21.98812
656.3762, 22.04813
656.8583, 22.12732
657.3404, 22.22732
657.8225, 22.36294
658.3046, 22.60570
658.7867, 22.77530
659.2689, 22.78919
659.7510, 22.66923
660.2331, 22.63764
660.7152, 22.69995
661.1973, 22.81968
661.6794, 23.01413
662.1616, 23.25037
662.6437, 23.40011
663.1258, 23.45877
663.6079, 23.48075
664.0900, 23.48310
664.5721, 23.48818
665.0543, 23.51696
665.5364, 23.56563
666.0185, 23.66965
666.5006, 23.89643
666.9827, 24.16296
667.4648, 24.38296
667.9470, 24.55889
668.4291, 24.66341
668.9112, 24.66260
669.3933, 24.61089
669.8754, 24.59796
670.3575, 24.62310
670.8397, 24.69173
671.3218, 24.81818
671.8039, 24.97490
672.2860, 25.11177
672.7681, 25.22356
673.2502, 25.29316
673.7324, 25.22096
674.2145, 25.15876
674.6966, 25.33416
675.1787, 25.70192
675.6608, 25.99935
676.1429, 26.01693
676.6251, 25.99296
677.1072, 26.05181
677.5893, 26.21140
678.0714, 26.41681
678.5535, 26.74947
679.0356, 27.03400
679.5178, 27.12945
679.9999, 26.97327
680.4820, 26.97337
680.9641, 27.16327
681.4462, 27.40844
681.9283, 27.57569
682.4105, 27.67778
682.8926, 27.76739
683.3747, 27.86319
683.8568, 27.92143
684.3389, 27.82621
684.8210, 27.68530
685.3032, 27.66764
685.7853, 27.95277
686.2674, 28.22791
686.7495, 28.37744
687.2316, 28.44424
687.7137, 28.52858
688.1959, 28.64401
688.6780, 28.76252
689.1601, 28.87600
689.6422, 28.98879
690.1243, 29.13385
690.6064, 29.32111
691.0886, 29.46952
691.5707, 29.53388
692.0528, 29.53436
692.5349, 29.50624
693.0170, 29.45463
693.4991, 29.42037
693.9813, 29.44336
694.4634, 29.48805
694.9455, 29.51866
695.4276, 29.53138
695.9097, 29.56257
696.3918, 29.61886
696.8740, 29.70160
697.3561, 29.82033
697.8382, 29.99685
698.3203, 30.13797
698.8024, 30.25343
699.2845, 30.31720
699.7667, 30.28238
700.2488, 30.14965
700.7309, 30.05629
701.2130, 30.02780
701.6951, 29.99682
702.1772, 29.82899
702.6594, 29.60110
703.1415, 29.49114
703.6236, 29.58947
704.1057, 29.73637
704.5878, 29.88180
705.0699, 29.99744
705.5521, 30.03734
706.0342, 29.91677
706.5163, 29.80656
706.9984, 29.73013
707.4805, 29.68523
707.9626, 29.68675
708.4448, 29.77902
708.9269, 29.75148
709.4090, 29.47566
709.8911, 29.07288
710.3732, 28.94373
710.8553, 29.06300
711.3374, 29.17188
711.8195, 29.05116
712.3016, 28.88555
712.7838, 28.93775
713.2659, 29.17297
713.7480, 29.31746
714.2301, 29.15383
714.7122, 28.94061
715.1943, 28.83302
715.6765, 28.86643
716.1586, 28.79650
716.6407, 28.54825
717.1228, 28.29916
717.6049, 28.15908
718.0870, 28.13826
718.5692, 28.09132
719.0513, 28.00878
719.5334, 27.95574
720.0155, 28.06787
720.4976, 28.24310
720.9797, 28.22654
721.4619, 27.95606
721.9440, 27.67024
722.4261, 27.54526
722.9082, 27.50012
723.3903, 27.45836
723.8724, 27.45387
724.3546, 27.36462
724.8367, 27.10486
725.3188, 26.79436
725.8009, 26.55275
726.2830, 26.38029
726.7651, 26.29171
727.2473, 26.31280
727.7294, 26.37182
728.2115, 26.33566
728.6936, 26.22134
729.1757, 26.13125
729.6578, 26.12617
730.1400, 26.11332
730.6221, 25.96242
731.1042, 25.73260
731.5863, 25.55006
732.0684, 25.50339
732.5505, 25.46985
733.0327, 25.41627
733.5148, 25.34255
733.9969, 25.25638
734.4790, 25.16400
734.9611, 25.04670
735.4432, 24.88291
735.9254, 24.69416
736.4075, 24.56743
736.8896, 24.50255
737.3717, 24.48401
737.8538, 24.56857
738.3359, 24.66188
738.8181, 24.58133
739.3002, 24.35561
739.7823, 24.16285
740.2644, 24.14205
740.7465, 24.14741
741.2286, 24.09735
741.7108, 23.98428
742.1929, 23.84424
742.6750, 23.64358
743.1571, 23.46559
743.6392, 23.36591
744.1213, 23.34978
744.6035, 23.23869
745.0856, 23.01446
745.5677, 22.81584
746.0498, 22.80891
746.5319, 22.90299
747.0140, 22.89277
747.4962, 22.75849
747.9783, 22.61254
748.4604, 22.51460
748.9425, 22.44942
749.4246, 22.41088
749.9067, 22.41364
750.3889, 22.39349
750.8710, 22.33503
751.3531, 22.25752
751.8352, 22.17274
752.3173, 22.07900
752.7994, 21.98001
753.2816, 21.87102
753.7637, 21.76736
754.2458, 21.68065
754.7279, 21.61143
755.2100, 21.56733
755.6921, 21.55970
756.1743, 21.53581
756.6564, 21.42907
757.1385, 21.29096
757.6206, 21.18697
758.1027, 21.19015
758.5848, 21.14114
759.0670, 20.96283
759.5491, 20.74960
760.0312, 20.61548
760.5133, 20.58718
760.9954, 20.54310
761.4775, 20.46165
761.9597, 20.36946
762.4418, 20.31406
762.9239, 20.28661
763.4060, 20.25032
763.8881, 20.18468
764.3702, 20.12321
764.8524, 20.10088
765.3345, 20.10385
765.8166, 20.10864
766.2987, 20.15444
766.7808, 20.14506
767.2629, 20.00563
767.7451, 19.81124
768.2272, 19.71236
768.7093, 19.73947
769.1914, 19.76945
769.6735, 19.78626
770.1556, 19.77380
770.6378, 19.67887
771.1199, 19.51584
771.6020, 19.35742
772.0841, 19.23686
772.5662, 19.13292
773.0483, 19.00192
773.5305, 18.87181
774.0126, 18.81406
774.4947, 18.97308
774.9768, 19.07345
775.4589, 18.99321
775.9410, 18.79102
776.4232, 18.68583
776.9053, 18.71338
777.3874, 18.70572
777.8695, 18.58368
778.3516, 18.40217
778.8337, 18.31329
779.3159, 18.30633
779.7980, 18.31832
780.2801, 18.33310
780.7622, 18.33726
781.2443, 18.31929
781.7264, 18.28065
782.2086, 18.22781
782.6907, 18.14585
783.1728, 18.06829
783.6549, 18.01525
784.1370, 17.97900
784.6191, 17.89687
785.1013, 17.74999
785.5834, 17.64428
786.0655, 17.65508
786.5476, 17.73184
787.0297, 17.71963
787.5118, 17.62953
787.9940, 17.53684
788.4761, 17.47725
788.9582, 17.43787
789.4403, 17.42836
789.9224, 17.43990
790.4045, 17.40940
790.8867, 17.27826
791.3688, 17.14712
791.8509, 17.04863
792.3330, 16.97985
792.8151, 16.92053
793.2972, 16.86628
793.7794, 16.84433
794.2615, 16.90308
794.7436, 16.99568
795.2257, 16.99835
795.7078, 16.92213
796.1899, 16.83315
796.6721, 16.76845
797.1542, 16.70563
797.6363, 16.60932
798.1184, 16.48240
798.6005, 16.43458
799.0826, 16.57091
799.5648, 16.65804
800.0469, 16.58131
800.5290, 16.36450
801.0111, 16.26974
801.4932, 16.30510
801.9753, 16.35682
802.4575, 16.36454
802.9396, 16.33755
803.4217, 16.26806
803.9038, 16.16689
804.3859, 16.10530
804.8680, 16.15906
805.3502, 16.22812
805.8323, 16.28153
806.3144, 16.31317
806.7965, 16.24043
807.2786, 16.00162
807.7607, 15.77591
808.2429, 15.63900
808.7250, 15.58225
809.2071, 15.56624
809.6892, 15.58958
810.1713, 15.61237
810.6534, 15.59187
811.1356, 15.56815
811.6177, 15.61307
812.0998, 15.71192
812.5819, 15.74952
813.0640, 15.64372
813.5461, 15.50310
814.0283, 15.34838
814.5104, 15.18722
814.9925, 15.13193
815.4746, 15.21464
815.9567, 15.29302
816.4388, 15.28727
816.9210, 15.22804
817.4031, 15.21798
817.8852, 15.25101
818.3673, 15.28439
818.8494, 15.31113
819.3315, 15.31174
819.8137, 15.23676
820.2958, 15.10405
820.7779, 15.04712
821.2600, 15.18351
821.7421, 15.29568
822.2242, 15.31526
822.7064, 15.25737
823.1885, 15.21010
823.6706, 15.17672
824.1527, 15.11542
824.6348, 14.96284
825.1169, 14.79695
825.5991, 14.76994
826.0812, 14.85310
826.5633, 14.93332
827.0454, 14.98438
827.5275, 14.99135
828.0096, 14.90965
828.4918, 14.76534
828.9739, 14.71106
829.4560, 14.81090
829.9381, 14.86038
830.4202, 14.77321
830.9023, 14.61050
831.3845, 14.56786
831.8666, 14.62957
832.3487, 14.67398
832.8308, 14.61429
833.3129, 14.53798
833.7950, 14.54014
834.2772, 14.59185
834.7593, 14.61832
835.2414, 14.57565
835.7235, 14.52992
836.2056, 14.48741
836.6877, 14.45502
837.1699, 14.46596
837.6520, 14.53223
838.1341, 14.54313
838.6162, 14.44244
839.0983, 14.30921
839.5804, 14.29389
840.0626, 14.35665
840.5447, 14.39350
841.0268, 14.34977
841.5089, 14.28466
841.9910, 14.18590
842.4731, 14.09346
842.9553, 14.09418
843.4374, 14.28841
843.9195, 14.36497
844.4016, 14.24436
844.8837, 14.04390
845.3658, 13.97302
845.8480, 14.01367
846.3301, 14.06302
846.8122, 14.10585
847.2943, 14.12115
847.7764, 14.06446
848.2585, 13.97591
848.7407, 13.91111
849.2228, 13.86731
849.7049, 13.87754
850.1870, 14.00453
850.6691, 14.13832
851.1512, 14.14555
851.6334, 14.00640
852.1155, 13.90028
852.5976, 13.84941
853.0797, 13.81990
853.5618, 13.76688
854.0439, 13.70862
854.5261, 13.67638
855.0082, 13.67568
855.4903, 13.70483
855.9724, 13.78731
856.4545, 13.88406
856.9366, 13.96365
857.4188, 14.02971
857.9009, 14.07192
858.3830, 14.09935
858.8651, 14.08038
859.3472, 13.93841
859.8293, 13.72176
860.3115, 13.64399
860.7936, 13.71795
861.2757, 13.79611
861.7578, 13.76325
862.2399, 13.69426
862.7220, 13.64677
863.2042, 13.62892
863.6863, 13.61858
864.1684, 13.60959
864.6505, 13.61396
865.1326, 13.65785
865.6147, 13.73120
866.0969, 13.67778
866.5790, 13.49718
867.0611, 13.33736
867.5432, 13.30570
868.0253, 13.34073
868.5074, 13.38818
868.9896, 13.44134
869.4717, 13.47462
869.9538, 13.46525
870.4359, 13.45012
870.9180, 13.45067
871.4001, 13.45742
871.8823, 13.41312
872.3644, 13.30797
872.8465, 13.22896
873.3286, 13.22769
873.8107, 13.25139
874.2928, 13.18865
874.7750, 13.06983
875.2571, 12.98243
875.7392, 12.97552
876.2213, 12.99289
876.7034, 13.02286
877.1855, 13.05934
877.6677, 13.09524
878.1498, 13.14929
878.6319, 13.14035
879.1140, 13.03024
879.5961, 12.89672
880.0782, 12.89391
880.5604, 12.97686
881.0425, 12.98620
881.5246, 12.84629
882.0067, 12.71882
882.4888, 12.75208
882.9709, 12.84249
883.4531, 12.86821
883.9352, 12.73622
884.4173, 12.68361
884.8994, 12.74811
885.3815, 12.83154
885.8636, 12.82710
886.3458, 12.74807
886.8279, 12.67979
887.3100, 12.62859
887.7921, 12.61229
888.2742, 12.69846
888.7563, 12.79360
889.2385, 12.79489
889.7206, 12.67721
890.2027, 12.57813
890.6848, 12.51128
891.1669, 12.47466
891.6490, 12.47627
892.1312, 12.51248
892.6133, 12.53874
893.0954, 12.55484
893.5775, 12.54675
894.0596, 12.49483
894.5417, 12.42094
895.0239, 12.32918
895.5060, 12.23048
895.9881, 12.17506
896.4702, 12.20924
896.9523, 12.25635
897.4344, 12.30965
897.9166, 12.35606
898.3987, 12.33227
898.8808, 12.23110
899.3629, 12.17926
899.8450, 12.23591
900.3271, 12.33064
900.8093, 12.38490
901.2914, 12.40005
901.7735, 12.37901
902.2556, 12.29355
902.7377, 12.21082
903.2198, 12.15355
903.7020, 12.10627
904.1841, 12.03846
904.6662, 11.93104
905.1483, 11.92432
905.6304, 12.05395
906.1125, 12.20094
906.5947, 12.20443
907.0768, 12.13668
907.5589, 12.14145
908.0410, 12.25665
908.5231, 12.33745
909.0052, 12.31819
909.4874, 12.23664
909.9695, 12.10361
910.4516, 11.90576
910.9337, 11.79525
911.4158, 11.78902
911.8979, 11.79875
912.3801, 11.75109
912.8622, 11.68040
913.3443, 11.66821
913.8264, 11.70755
914.3085, 11.75178
914.7906, 11.76939
915.2728, 11.79330
915.7549, 11.86916
916.2370, 11.96988
916.7191, 11.96732
917.2012, 11.82700
917.6833, 11.71497
918.1655, 11.68925
918.6476, 11.70464
919.1297, 11.66837
919.6118, 11.60175
920.0939, 11.56474
920.5760, 11.59748
921.0582, 11.63577
921.5403, 11.50283
922.0224, 11.66707
922.5045, 11.75614
922.9866, 11.77407
923.4688, 11.50778
923.9509, 11.60850
924.4330, 11.56214
924.9151, 11.50974
925.3972, 11.66211
925.8793, 11.43717
926.3615, 11.58629
926.8436, 11.58609
927.3257, 11.65423
927.8078, 11.57438
928.2899, 11.54025
928.7720, 11.65414
929.2542, 11.68607
929.7363, 11.58919
930.2184, 11.66168
930.7005, 11.43156
931.1826, 11.46698
931.6647, 11.61697
932.1469, 11.52753
932.6290, 11.60272
933.1111, 11.61521
933.5932, 11.34276
934.0753, 11.56585
934.5574, 11.57464
935.0396, 11.36337
935.5217, 11.56949
936.0038, 11.38856
936.4859, 11.34579
936.9680, 11.40697
937.4501, 11.35979
937.9323, 11.48347
938.4144, 11.44253
938.8965, 11.38689
939.3786, 11.39544
939.8607, 11.22210
940.3428, 11.38619
940.8250, 11.31979
941.3071, 11.36796
941.7892, 11.44210
942.2713, 11.31740
942.7534, 11.40320
943.2355, 11.16256
943.7177, 11.19507
944.1998, 11.31717
944.6819, 11.29692
945.1640, 11.26187
945.6461, 11.20226
946.1282, 11.15199
946.6104, 11.12563
947.0925, 11.12151
947.5746, 11.14397
948.0567, 11.20089
948.5388, 11.23559
949.0209, 11.22383
949.5031, 11.19200
949.9852, 11.16797
950.4673, 11.15798
950.9494, 11.17747
951.4315, 11.25755
951.9136, 11.32397
952.3958, 11.37761
952.8779, 11.39111
953.3600, 11.32552
953.8421, 11.16602
954.3242, 11.02528
954.8063, 10.90628
955.2885, 10.83227
955.7706, 10.85119
956.2527, 10.91484
956.7348, 10.95955
957.2169, 10.98003
957.6990, 11.00163
958.1811, 11.04862
958.6632, 11.07925
959.1453, 11.07000
959.6274, 11.03196
960.1096, 11.03352
960.5917, 11.07441
961.0738, 11.09049
961.5559, 11.03438
962.0380, 10.96904
962.5201, 10.97547
963.0023, 11.02058
963.4844, 11.04390
963.9665, 11.01213
964.4486, 10.98027
964.9307, 10.95484
965.4128, 10.92880
965.8950, 10.87987
966.3771, 10.81522
966.8592, 10.82144
967.3413, 10.91138
967.8234, 10.99462
968.3055, 10.98240
968.7877, 10.93838
969.2698, 10.91894
969.7519, 10.93173
970.2340, 10.93583
970.7161, 10.93110
971.1982, 10.91322
971.6804, 10.87320
972.1625, 10.82275
972.6446, 10.80048
973.1267, 10.80163
973.6088, 10.80369
974.0909, 10.78811
974.5731, 10.78044
975.0552, 10.81910
975.5373, 10.86647
976.0194, 10.85260
976.5015, 10.73151
976.9836, 10.67501
977.4658, 10.70378
977.9479, 10.77479
978.4300, 10.87634
978.9121, 10.97354
979.3942, 10.97275
979.8763, 10.85986
980.3585, 10.76585
980.8406, 10.77290
981.3227, 10.80232
981.8048, 10.81213
982.2869, 10.80454
982.7690, 10.81448
983.2512, 10.84524
983.7333, 10.85902
984.2154, 10.83193
984.6975, 10.78821
985.1796, 10.75964
985.6617, 10.74025
986.1439, 10.71837
986.6260, 10.67807
987.1081, 10.65346
987.5902, 10.66448
988.0723, 10.67702
988.5544, 10.63631
989.0366, 10.54711
989.5187, 10.53744
990.0008, 10.62302
990.4829, 10.69664
990.9650, 10.62844
991.4471, 10.53756
991.9293, 10.54511
992.4114, 10.66094
992.8935, 10.73192
993.3756, 10.72599
993.8577, 10.72391
994.3398, 10.76455
994.8220, 10.81798
995.3041, 10.78532
995.7862, 10.69333
996.2683, 10.64123
996.7504, 10.69338
997.2325, 10.75015
997.7147, 10.76602
998.1968, 10.75357
998.6789, 10.72817
999.1610, 10.68408
999.6431, 10.64868
1000.125, 10.62346
1000.607, 10.60586
1001.089, 10.58457
1001.572, 10.57406
1002.054, 10.62196
1002.536, 10.71926
1003.018, 10.76416
1003.500, 10.65814
1003.982, 10.55867
1004.464, 10.51886
1004.946, 10.52117
1005.429, 10.51193
1005.911, 10.49211
1006.393, 10.49569
1006.875, 10.55097
1007.357, 10.58346
1007.839, 10.48669
1008.321, 10.34259
1008.803, 10.24979
1009.285, 10.24472
1009.768, 10.25718
1010.250, 10.29343
1010.732, 10.33298
1011.214, 10.35105
1011.696, 10.36031
1012.178, 10.42924
1012.660, 10.54343
1013.142, 10.61154
1013.625, 10.53974
1014.107, 10.45193
1014.589, 10.39270
1015.071, 10.36661
1015.553, 10.39799
1016.035, 10.50516
1016.517, 10.55141
1016.999, 10.50001
1017.481, 10.42933
1017.964, 10.45226
1018.446, 10.51051
1018.928, 10.50922
1019.410, 10.41615
1019.892, 10.36966
1020.374, 10.44205
1020.856, 10.50830
1021.338, 10.49567
1021.820, 10.42791
1022.303, 10.46475
1022.785, 10.58722
1023.267, 10.65868
1023.749, 10.55353
1024.231, 10.43870
1024.713, 10.44861
1025.195, 10.51593
1025.677, 10.51459
1026.160, 10.39169
1026.642, 10.34769
1027.124, 10.41668
1027.606, 10.49056
1028.088, 10.41395
1028.570, 10.27842
1029.052, 10.28747
1029.534, 10.44601
1030.016, 10.53781
1030.499, 10.38123
1030.981, 10.24850
1031.463, 10.25258
1031.945, 10.34811
1032.427, 10.38287
1032.909, 10.35920
1033.391, 10.32048
1033.873, 10.26940
1034.356, 10.23556
1034.838, 10.26393
1035.320, 10.31518
1035.802, 10.34065
1036.284, 10.32137
1036.766, 10.31513
1037.248, 10.32850
1037.730, 10.33706
1038.213, 10.31380
1038.695, 10.27606
1039.177, 10.28083
1039.659, 10.31503
1040.141, 10.32278
1040.623, 10.22216
1041.105, 10.15978
1041.587, 10.20158
1042.069, 10.29460
1042.552, 10.37433
1043.034, 10.44065
1043.516, 10.43472
1043.998, 10.33910
1044.480, 10.25087
1044.962, 10.27464
1045.444, 10.33373
1045.926, 10.35590
1046.408, 10.33209
1046.891, 10.30757
1047.373, 10.28290
1047.855, 10.26202
1048.337, 10.24878
1048.819, 10.23759
1049.301, 10.19860
1049.783, 10.15352
1050.265, 10.16259
1050.748, 10.29622
1051.230, 10.38794
1051.712, 10.34404
1052.194, 10.26382
1052.676, 10.21957
1053.158, 10.21298
1053.640, 10.20044
1054.122, 10.18172
1054.604, 10.15054
1055.087, 10.07372
1055.569, 10.00805
1056.051, 10.00322
1056.533, 10.04811
1057.015, 10.10805
1057.497, 10.20710
1057.979, 10.24349
1058.461, 10.18759
1058.943, 10.10753
1059.426, 10.10734
1059.908, 10.14281
1060.390, 10.10902
1060.872, 9.985720
1061.354, 9.919282
1061.836, 10.05374
1062.318, 10.15794
1062.800, 10.11784
1063.283, 9.981293
1063.765, 9.955943
1064.247, 10.02900
1064.729, 10.08305
1065.211, 10.05515
1065.693, 10.04166
1066.175, 10.17448
1066.657, 10.32909
1067.140, 10.34570
1067.622, 10.17235
1068.104, 10.06760
1068.586, 10.04379
1069.068, 10.02994
1069.550, 9.962515
1070.032, 9.881853
1070.514, 9.853252
1070.996, 9.866075
1071.479, 9.882809
1071.961, 9.902987
1072.443, 9.907698
1072.925, 9.880686
1073.407, 9.856899
1073.889, 9.909730
1074.371, 10.00896
1074.853, 10.01542
1075.335, 9.913098
1075.818, 9.823184
1076.300, 9.856460
1076.782, 9.889591
1077.264, 9.826140
1077.746, 9.699658
1078.228, 9.673048
1078.710, 9.750770
1079.192, 9.813743
1079.675, 9.824675
1080.157, 9.812873
1080.639, 9.804850
1081.121, 9.794932
1081.603, 9.771070
1082.085, 9.716302
1082.567, 9.709773
1083.049, 9.769928
1083.531, 9.828425
1084.014, 9.847815
1084.496, 9.838072
1084.978, 9.804931
1085.460, 9.762440
1085.942, 9.749405
1086.424, 9.796911
1086.906, 9.857584
1087.388, 9.953701
1087.870, 10.02500
1088.353, 9.982358
1088.835, 9.842195
1089.317, 9.782335
1089.799, 9.807878
1090.281, 9.849703
1090.763, 9.908691
1091.245, 9.923596
1091.727, 9.801022
1092.209, 9.609678
1092.692, 9.557938
1093.174, 9.666104
1093.656, 9.755701
1094.138, 9.794748
1094.620, 9.806049
1095.102, 9.796735
1095.584, 9.784167
1096.066, 9.791470
1096.549, 9.823334
1097.031, 9.846872
1097.513, 9.868209
1097.995, 9.860522
1098.477, 9.806944
1098.959, 9.727469
1099.441, 9.638855
1099.923, 9.561036
1100.406, 9.546908
1100.888, 9.668657
1101.370, 9.711901
1101.852, 9.538645
1102.334, 9.366250
1102.816, 9.345227
1103.298, 9.453311
1103.780, 9.512175
1104.262, 9.526321
1104.745, 9.530164
1105.227, 9.553005
1105.709, 9.558323
1106.191, 9.500397
1106.673, 9.427246
1107.155, 9.410168
1107.637, 9.456681
1108.119, 9.502064
1108.601, 9.544063
1109.084, 9.571620
1109.566, 9.563640
1110.048, 9.547370
1110.530, 9.550784
1111.012, 9.569913
1111.494, 9.582362
1111.976, 9.601648
1112.458, 9.558172
1112.941, 9.413912
1113.423, 9.280835
1113.905, 9.349092
1114.387, 9.506177
1114.869, 9.566367
1115.351, 9.502241
1115.833, 9.432199
1116.315, 9.346450
1116.797, 9.320114
1117.280, 9.404037
1117.762, 9.536686
1118.244, 9.572262
1118.726, 9.530533
1119.208, 9.462916
1119.690, 9.369601
1120.172, 9.298161
1120.654, 9.277863
1121.136, 9.278445
1121.619, 9.282743
1122.101, 9.291459
1122.583, 9.323184
1123.065, 9.372636
1123.547, 9.391445
1124.029, 9.308971
1124.511, 9.251693
1124.993, 9.344893
1125.476, 9.482697
1125.958, 9.525822
1126.440, 9.457203
1126.922, 9.376670
1127.404, 9.282648
1127.886, 9.219632
1128.368, 9.229198
1128.850, 9.277331
1129.333, 9.362093
1129.815, 9.457104
1130.297, 9.489108
1130.779, 9.432634
1131.261, 9.377962
1131.743, 9.329092
1132.225, 9.303391
1132.707, 9.351579
1133.189, 9.416375
1133.672, 9.408459
1134.154, 9.329640
1134.636, 9.262257
1135.118, 9.237686
1135.600, 9.196826
1136.082, 9.117085
1136.564, 9.033785
1137.046, 8.998843
1137.528, 9.005383
1138.011, 9.044148
1138.493, 9.116501
1138.975, 9.185434
1139.457, 9.263624
1139.939, 9.299089
1140.421, 9.253307
1140.903, 9.163302
1141.385, 9.137392
1141.868, 9.163590
1142.350, 9.197859
1142.832, 9.234507
1143.314, 9.252732
1143.796, 9.235456
1144.278, 9.199585
1144.760, 9.150446
1145.242, 9.091000
1145.724, 9.064835
1146.207, 9.069074
1146.689, 9.074205
1147.171, 9.051728
1147.653, 9.049313
1148.135, 9.129764
1148.617, 9.228028
1149.099, 9.271044
1149.581, 9.252774
1150.063, 9.202031
1150.546, 9.117552
1151.028, 9.058378
1151.510, 9.100135
1151.992, 9.151605
1152.474, 9.122615
1152.956, 9.051321
1153.438, 9.019196
1153.920, 9.038123
1154.403, 9.068461
1154.885, 9.111333
1155.367, 9.142379
1155.849, 9.125179
1156.331, 9.094302
1156.813, 8.947733
1157.295, 9.115653
1157.777, 9.208395
1158.260, 9.229990
1158.742, 8.967387
1159.224, 9.071776
1159.706, 9.029092
1160.188, 8.980378
1160.670, 9.136420
1161.152, 8.915154
1161.634, 9.067950
1162.116, 9.071427
1162.599, 9.143236
1163.081, 9.067069
1163.563, 9.036611
1164.045, 9.154181
1164.527, 9.189788
1165.009, 9.096585
1165.491, 9.172747
1165.973, 8.946311
1166.455, 8.985408
1166.938, 9.139062
1167.420, 9.053300
1167.902, 9.132167
1168.384, 9.148334
1168.866, 8.879560
1169.348, 9.106327
1169.830, 9.118789
1170.312, 8.911206
1170.795, 9.120985
1171.277, 8.943739
1171.759, 8.904638
1172.241, 8.969504
1172.723, 8.925990
1173.205, 9.053349
1173.687, 9.016093
1174.169, 8.964131
1174.651, 8.976352
1175.134, 8.806685
1175.616, 8.974451
1176.098, 8.911727
1176.580, 8.963574
1177.062, 9.041390
1177.544, 8.925679
1178.026, 8.812038
1178.508, 8.736315
1178.990, 8.795974
1179.473, 8.866839
1179.955, 8.913674
1180.437, 8.932019
1180.919, 8.903378
1181.401, 8.829373
1181.883, 8.817554
1182.365, 8.862487
1182.847, 8.903308
1183.330, 8.882972
1183.812, 8.873552
1184.294, 8.946824
1184.776, 9.030671
1185.258, 9.027020
1185.740, 8.933246
1186.222, 8.873559
1186.704, 8.852789
1187.187, 8.845536
1187.669, 8.846648
1188.151, 8.843245
1188.633, 8.800976
1189.115, 8.760556
1189.597, 8.811758
1190.079, 8.961440
1190.561, 9.027545
1191.043, 8.992103
1191.526, 8.944540
1192.008, 8.973644
1192.490, 8.997796
1192.972, 8.940335
1193.454, 8.836324
1193.936, 8.776916
1194.418, 8.763062
1194.900, 8.785462
1195.382, 8.845432
1195.865, 8.909622
1196.347, 8.991366
1196.829, 9.029510
1197.311, 8.922797
1197.793, 8.729002
1198.275, 8.689643
1198.757, 8.816846
1199.239, 8.791092
1199.722, 8.958870
1200.204, 9.051478
1200.686, 9.072948
1201.168, 8.810211
1201.650, 8.914468
1202.132, 8.871651
1202.614, 8.822802
1203.096, 8.978711
1203.578, 8.757311
1204.061, 8.909965
1204.543, 8.913308
1205.025, 8.984991
1205.507, 8.908691
1205.989, 8.878098
1206.471, 8.995536
1206.953, 9.031008
1207.435, 8.937672
1207.917, 9.013700
1208.400, 8.787122
1208.882, 8.826085
1209.364, 8.979612
1209.846, 8.893719
1210.328, 8.972450
1210.810, 8.988483
1211.292, 8.719576
1211.774, 8.946209
1212.257, 8.958529
1212.739, 8.750813
1213.221, 8.960466
1213.703, 8.783085
1214.185, 8.743851
1214.667, 8.808583
1215.149, 8.764935
1215.631, 8.892160
1216.114, 8.854762
1216.596, 8.802666
1217.078, 8.814753
1217.560, 8.644960
1218.042, 8.757946
1218.524, 8.712692
1219.006, 8.688264
1219.488, 8.684310
1219.970, 8.710062
1220.453, 8.766159
1220.935, 8.814130
1221.417, 8.824842
1221.899, 8.833926
1222.381, 8.907240
1222.863, 8.970305
1223.345, 8.916974
1223.827, 8.726242
1224.309, 8.653046
1224.792, 8.696811
1225.274, 8.727719
1225.756, 8.642363
1226.238, 8.558928
1226.720, 8.567682
1227.202, 8.623674
1227.684, 8.667211
1228.166, 8.695599
1228.649, 8.740493
1229.131, 8.801405
1229.613, 8.862597
1230.095, 8.945897
1230.577, 8.991637
1231.059, 8.947531
1231.541, 8.852622
1232.023, 8.741430
1232.505, 8.609685
1232.988, 8.571184
1233.470, 8.621426
1233.952, 8.688669
1234.434, 8.728876
1234.916, 8.775393
1235.398, 8.890212
1235.880, 8.988549
1236.362, 8.955020
1236.844, 8.794156
1237.327, 8.708142
1237.809, 8.696364
1238.291, 8.704016
1238.773, 8.707774
1239.255, 8.713404
1239.737, 8.726681
1240.219, 8.740490
1240.701, 8.741671
1241.184, 8.734059
1241.666, 8.764844
1242.148, 8.828381
1242.630, 8.864602
1243.112, 8.805786
1243.594, 8.759426
1244.076, 8.764758
1244.558, 8.791287
1245.041, 8.806920
1245.523, 8.814462
1246.005, 8.840170
1246.487, 8.877092
1246.969, 8.874539
1247.451, 8.733670
1247.933, 8.659643
1248.415, 8.726220
1248.897, 8.824801
1249.380, 8.821341
1249.862, 8.750565
1250.344, 8.719739
1250.826, 8.726745
1251.308, 8.729034
1251.790, 8.705234
1252.272, 8.678881
1252.754, 8.645334
1253.236, 8.627329
1253.719, 8.673982
1254.201, 8.745379
1254.683, 8.736292
1255.165, 8.667354
1255.647, 8.662661
1256.129, 8.834691
1256.611, 8.936710
1257.093, 8.937139
1257.576, 8.881810
1258.058, 8.780054
1258.540, 8.678620
1259.022, 8.662397
1259.504, 8.714742
1259.986, 8.742147
1260.468, 8.723449
1260.950, 8.703818
1261.432, 8.685502
1261.915, 8.680085
1262.397, 8.709544
1262.879, 8.749773
1263.361, 8.776920
1263.843, 8.790952
1264.325, 8.796602
1264.807, 8.790547
1265.289, 8.791625
1265.771, 8.800986
1266.254, 8.823465
1266.736, 8.913808
1267.218, 8.972357
1267.700, 8.863968
1268.182, 8.666000
1268.664, 8.606380
1269.146, 8.697239
1269.628, 8.743731
1270.111, 8.727299
1270.593, 8.694351
1271.075, 8.647755
1271.557, 8.628285
1272.039, 8.704647
1272.521, 8.803263
1273.003, 8.793259
1273.485, 8.685963
1273.968, 8.625000
1274.450, 8.620602
1274.932, 8.630873
1275.414, 8.644235
1275.896, 8.648822
1276.378, 8.626631
1276.860, 8.608904
1277.342, 8.641804
1277.824, 8.716353
1278.307, 8.824831
1278.789, 8.954174
1279.271, 9.011400
1279.753, 8.897357
1280.235, 8.780401
1280.717, 8.678404
1281.199, 8.616033
1281.681, 8.645587
1282.163, 8.726639
1282.646, 8.788402
1283.128, 8.822162
1283.610, 8.810868
1284.092, 8.691115
1284.574, 8.651625
1285.056, 8.736781
1285.538, 8.818586
1286.020, 8.725464
1286.503, 8.581388
1286.985, 8.549459
1287.467, 8.612097
1287.949, 8.685186
1288.431, 8.773996
1288.913, 8.820173
1289.395, 8.816921
1289.877, 8.788795
1290.359, 8.727967
1290.842, 8.678763
1291.324, 8.707314
1291.806, 8.767001
1292.288, 8.744997
1292.770, 8.631442
1293.252, 8.566462
1293.734, 8.558360
1294.216, 8.568819
1294.698, 8.574383
1295.181, 8.588900
1295.663, 8.627208
1296.145, 8.674478
1296.627, 8.721010
1297.109, 8.763432
1297.591, 8.754211
1298.073, 8.703505
1298.555, 8.688887
1299.038, 8.832169
1299.520, 8.893000
1300.002, 8.785381
1300.484, 8.647061
1300.966, 8.620070
1301.448, 8.659426
1301.930, 8.636449
1302.412, 8.575486
1302.895, 8.573152
1303.377, 8.740739
1303.859, 8.835446
1304.341, 8.830942
1304.823, 8.792982
1305.305, 8.748149
##END=



