##NAMES=Geminite
##RRUFFID=R070434
##IDEAL CHEMISTRY=Cu^2+^(As^5+^O_3_OH)&#183;H_2_O
##LOCALITY=Jáchymov (St Joachimsthal), Ostrov, Krusné Hory Mountains (Erzgebirge), Karlovy Vary Region, Bohemia (Böhmen; Boehmen), Czech Republic
##OWNER=RRUFF
##SOURCE=Michael Scott
##DESCRIPTION=Stellate aggregates of pale green bladed crystals
##STATUS=The identification of this mineral has been confirmed by single-crystal X-ray diffraction.
##URL=rruff.info/R070434
156.6724, 1290.843
157.1546, 1315.194
157.6367, 1314.505
158.1188, 1315.020
158.6009, 1327.040
159.0830, 1356.310
159.5652, 1383.816
160.0473, 1405.751
160.5294, 1422.835
161.0115, 1436.154
161.4936, 1443.318
161.9757, 1448.823
162.4579, 1455.580
162.9400, 1466.901
163.4221, 1474.837
163.9042, 1472.837
164.3863, 1463.971
164.8684, 1458.499
165.3506, 1464.804
165.8327, 1474.611
166.3148, 1481.174
166.7969, 1480.655
167.2790, 1478.410
167.7611, 1476.769
168.2433, 1475.743
168.7254, 1475.453
169.2075, 1476.571
169.6896, 1478.285
170.1717, 1479.640
170.6538, 1480.162
171.1360, 1480.270
171.6181, 1479.331
172.1002, 1477.246
172.5823, 1477.325
173.0644, 1482.901
173.5465, 1492.250
174.0287, 1502.376
174.5108, 1513.205
174.9929, 1523.511
175.4750, 1532.251
175.9571, 1539.392
176.4392, 1544.759
176.9214, 1546.559
177.4035, 1546.081
177.8856, 1546.935
178.3677, 1552.987
178.8498, 1561.142
179.3319, 1567.108
179.8141, 1570.807
180.2962, 1571.073
180.7783, 1565.982
181.2604, 1556.008
181.7425, 1543.175
182.2246, 1525.358
182.7068, 1505.721
183.1889, 1491.950
183.6710, 1487.603
184.1531, 1486.847
184.6352, 1480.194
185.1173, 1467.846
185.5995, 1454.607
186.0816, 1444.390
186.5637, 1436.490
187.0458, 1427.659
187.5279, 1415.371
188.0100, 1402.876
188.4922, 1399.666
188.9743, 1406.260
189.4564, 1414.045
189.9385, 1413.782
190.4206, 1406.555
190.9027, 1400.931
191.3849, 1401.506
191.8670, 1405.555
192.3491, 1400.754
192.8312, 1385.341
193.3133, 1369.543
193.7955, 1367.164
194.2776, 1377.917
194.7597, 1387.430
195.2418, 1390.232
195.7239, 1387.001
196.2060, 1382.367
196.6882, 1375.646
197.1703, 1369.335
197.6524, 1367.715
198.1345, 1371.084
198.6166, 1374.825
199.0987, 1375.449
199.5809, 1372.948
200.0630, 1377.656
200.5451, 1392.617
201.0272, 1410.222
201.5093, 1415.600
201.9914, 1406.694
202.4736, 1395.751
202.9557, 1387.117
203.4378, 1380.401
203.9199, 1381.358
204.4020, 1392.073
204.8841, 1409.070
205.3663, 1425.400
205.8484, 1442.574
206.3305, 1453.986
206.8126, 1452.840
207.2947, 1435.985
207.7768, 1426.905
208.2590, 1430.347
208.7411, 1442.019
209.2232, 1445.832
209.7053, 1438.703
210.1874, 1431.095
210.6695, 1430.893
211.1517, 1440.288
211.6338, 1447.798
212.1159, 1452.011
212.5980, 1453.164
213.0801, 1452.575
213.5622, 1450.178
214.0444, 1446.161
214.5265, 1439.991
215.0086, 1430.165
215.4907, 1422.843
215.9728, 1418.939
216.4549, 1418.382
216.9371, 1420.883
217.4192, 1428.248
217.9013, 1435.976
218.3834, 1439.985
218.8655, 1440.079
219.3476, 1436.721
219.8298, 1427.959
220.3119, 1413.758
220.7940, 1407.079
221.2761, 1411.044
221.7582, 1418.958
222.2403, 1423.846
222.7225, 1425.154
223.2046, 1424.046
223.6867, 1417.271
224.1688, 1402.787
224.6509, 1407.881
225.1330, 1443.769
225.6152, 1488.821
226.0973, 1514.527
226.5794, 1514.320
227.0615, 1507.510
227.5436, 1496.853
228.0257, 1480.206
228.5079, 1472.865
228.9900, 1479.561
229.4721, 1491.935
229.9542, 1497.305
230.4363, 1491.236
230.9185, 1486.215
231.4006, 1485.794
231.8827, 1490.403
232.3648, 1498.236
232.8469, 1511.272
233.3290, 1526.446
233.8112, 1539.058
234.2933, 1550.513
234.7754, 1556.948
235.2575, 1555.012
235.7396, 1539.004
236.2217, 1533.681
236.7039, 1544.142
237.1860, 1562.939
237.6681, 1574.862
238.1502, 1575.396
238.6323, 1576.196
239.1144, 1582.622
239.5966, 1599.321
240.0787, 1608.507
240.5608, 1606.509
241.0429, 1598.346
241.5250, 1595.786
242.0071, 1603.373
242.4893, 1609.674
242.9714, 1608.999
243.4535, 1595.662
243.9356, 1589.115
244.4177, 1593.089
244.8998, 1602.919
245.3820, 1605.631
245.8641, 1595.776
246.3462, 1586.811
246.8283, 1585.868
247.3104, 1598.901
247.7925, 1605.566
248.2747, 1603.648
248.7568, 1595.626
249.2389, 1587.886
249.7210, 1578.332
250.2031, 1572.234
250.6852, 1574.082
251.1674, 1592.355
251.6495, 1597.394
252.1316, 1582.612
252.6137, 1555.039
253.0958, 1536.955
253.5779, 1531.036
254.0601, 1530.462
254.5422, 1532.884
255.0243, 1541.384
255.5064, 1544.415
255.9885, 1538.602
256.4706, 1527.463
256.9528, 1523.275
257.4349, 1529.834
257.9170, 1537.085
258.3991, 1539.040
258.8812, 1532.509
259.3633, 1529.651
259.8455, 1532.011
260.3276, 1538.324
260.8097, 1544.098
261.2918, 1549.022
261.7739, 1554.066
262.2560, 1560.617
262.7382, 1570.820
263.2203, 1575.666
263.7024, 1572.708
264.1845, 1564.549
264.6666, 1560.350
265.1487, 1561.539
265.6309, 1563.815
266.1130, 1564.770
266.5951, 1564.201
267.0772, 1562.973
267.5593, 1560.892
268.0414, 1558.269
268.5236, 1555.589
269.0057, 1551.613
269.4878, 1550.507
269.9699, 1556.304
270.4520, 1571.387
270.9341, 1581.958
271.4163, 1585.498
271.8984, 1584.491
272.3805, 1586.564
272.8626, 1592.348
273.3447, 1599.428
273.8268, 1607.152
274.3090, 1616.019
274.7911, 1621.763
275.2732, 1623.282
275.7553, 1621.846
276.2374, 1620.586
276.7195, 1619.381
277.2017, 1618.771
277.6838, 1620.234
278.1659, 1624.261
278.6480, 1622.854
279.1301, 1611.925
279.6122, 1598.395
280.0944, 1601.433
280.5765, 1623.818
281.0586, 1647.080
281.5407, 1658.591
282.0229, 1658.236
282.5050, 1661.671
282.9871, 1671.729
283.4692, 1684.384
283.9513, 1691.998
284.4334, 1694.557
284.9156, 1692.189
285.3977, 1680.784
285.8798, 1661.594
286.3619, 1653.035
286.8440, 1659.622
287.3261, 1672.547
287.8083, 1674.837
288.2904, 1666.408
288.7725, 1656.679
289.2546, 1651.520
289.7367, 1650.096
290.2188, 1646.458
290.7010, 1638.895
291.1831, 1631.760
291.6652, 1633.632
292.1473, 1643.953
292.6294, 1654.623
293.1115, 1662.840
293.5937, 1668.036
294.0758, 1667.266
294.5579, 1659.172
295.0400, 1648.460
295.5221, 1640.846
296.0042, 1636.104
296.4864, 1633.324
296.9685, 1631.201
297.4506, 1630.706
297.9327, 1635.241
298.4148, 1646.003
298.8969, 1657.620
299.3791, 1662.778
299.8612, 1662.992
300.3433, 1663.277
300.8254, 1666.114
301.3075, 1670.698
301.7896, 1676.201
302.2718, 1682.880
302.7539, 1688.758
303.2360, 1688.665
303.7181, 1685.946
304.2002, 1688.776
304.6823, 1708.259
305.1645, 1732.121
305.6466, 1743.729
306.1287, 1741.536
306.6108, 1738.042
307.0929, 1746.030
307.5750, 1759.770
308.0572, 1769.075
308.5393, 1765.937
309.0214, 1758.540
309.5035, 1752.431
309.9856, 1747.811
310.4677, 1747.138
310.9499, 1756.143
311.4320, 1769.161
311.9141, 1778.465
312.3962, 1778.350
312.8783, 1775.786
313.3604, 1774.884
313.8426, 1775.695
314.3247, 1777.099
314.8068, 1775.799
315.2889, 1775.802
315.7710, 1781.247
316.2531, 1803.552
316.7353, 1822.643
317.2174, 1826.223
317.6995, 1815.861
318.1816, 1808.301
318.6637, 1808.851
319.1458, 1815.546
319.6280, 1826.809
320.1101, 1853.219
320.5922, 1872.971
321.0743, 1873.637
321.5564, 1859.424
322.0385, 1853.888
322.5207, 1871.518
323.0028, 1894.475
323.4849, 1911.546
323.9670, 1916.204
324.4491, 1920.782
324.9312, 1926.111
325.4134, 1932.497
325.8955, 1941.086
326.3776, 1957.299
326.8597, 1971.795
327.3418, 1979.979
327.8239, 1972.883
328.3061, 1971.656
328.7882, 1980.359
329.2703, 1995.366
329.7524, 2007.433
330.2345, 2015.093
330.7166, 2021.244
331.1988, 2027.019
331.6809, 2032.933
332.1630, 2036.931
332.6451, 2037.716
333.1272, 2037.057
333.6093, 2038.295
334.0915, 2042.476
334.5736, 2046.934
335.0557, 2050.888
335.5378, 2054.268
336.0199, 2057.607
336.5020, 2061.966
336.9842, 2065.296
337.4663, 2064.412
337.9484, 2057.994
338.4305, 2050.746
338.9126, 2042.711
339.3947, 2033.901
339.8769, 2032.225
340.3590, 2040.785
340.8411, 2050.140
341.3232, 2047.594
341.8053, 2030.969
342.2874, 2019.567
342.7696, 2019.548
343.2517, 2028.866
343.7338, 2037.177
344.2159, 2044.666
344.6980, 2050.808
345.1801, 2055.246
345.6623, 2057.958
346.1444, 2059.107
346.6265, 2058.470
347.1086, 2056.498
347.5907, 2053.729
348.0728, 2050.219
348.5550, 2047.162
349.0371, 2045.457
349.5192, 2044.962
350.0013, 2045.589
350.4834, 2048.036
350.9655, 2050.190
351.4477, 2047.172
351.9298, 2040.255
352.4119, 2035.980
352.8940, 2043.238
353.3762, 2054.461
353.8583, 2056.349
354.3404, 2045.793
354.8225, 2031.552
355.3046, 2017.396
355.7867, 2005.679
356.2689, 2002.045
356.7510, 2017.980
357.2331, 2038.283
357.7152, 2047.819
358.1973, 2044.528
358.6794, 2040.169
359.1616, 2043.370
359.6437, 2049.938
360.1258, 2054.007
360.6079, 2045.696
361.0900, 2040.562
361.5721, 2051.012
362.0543, 2076.999
362.5364, 2097.497
363.0185, 2095.732
363.5006, 2088.398
363.9827, 2090.471
364.4648, 2124.427
364.9470, 2148.948
365.4291, 2147.991
365.9112, 2124.962
366.3933, 2104.909
366.8754, 2089.508
367.3575, 2080.431
367.8397, 2078.819
368.3218, 2093.886
368.8039, 2105.042
369.2860, 2108.339
369.7681, 2106.581
370.2502, 2108.512
370.7324, 2122.976
371.2145, 2132.216
371.6966, 2127.456
372.1787, 2097.848
372.6608, 2081.949
373.1429, 2086.323
373.6251, 2100.856
374.1072, 2108.834
374.5893, 2107.703
375.0714, 2104.966
375.5535, 2101.454
376.0356, 2096.648
376.5178, 2101.209
376.9999, 2120.744
377.4820, 2139.971
377.9641, 2137.008
378.4462, 2107.354
378.9283, 2085.887
379.4105, 2084.528
379.8926, 2098.047
380.3747, 2099.736
380.8568, 2087.260
381.3389, 2077.539
381.8210, 2090.693
382.3032, 2122.968
382.7853, 2143.598
383.2674, 2144.560
383.7495, 2134.193
384.2316, 2124.813
384.7137, 2116.695
385.1959, 2113.928
385.6780, 2123.657
386.1601, 2140.087
386.6422, 2149.967
387.1243, 2150.557
387.6064, 2149.065
388.0886, 2155.169
388.5707, 2165.582
389.0528, 2171.630
389.5349, 2163.439
390.0170, 2152.052
390.4991, 2148.386
390.9813, 2153.463
391.4634, 2160.926
391.9455, 2167.595
392.4276, 2173.949
392.9097, 2180.598
393.3918, 2191.114
393.8740, 2198.934
394.3561, 2198.704
394.8382, 2191.442
395.3203, 2187.006
395.8024, 2191.241
396.2845, 2198.250
396.7667, 2204.049
397.2488, 2208.000
397.7309, 2210.571
398.2130, 2213.177
398.6951, 2214.661
399.1772, 2211.351
399.6594, 2192.079
400.1415, 2177.355
400.6236, 2176.604
401.1057, 2201.229
401.5878, 2212.210
402.0699, 2199.872
402.5521, 2178.604
403.0342, 2169.718
403.5163, 2178.288
403.9984, 2190.704
404.4805, 2207.031
404.9626, 2227.446
405.4448, 2230.458
405.9269, 2208.588
406.4090, 2183.050
406.8911, 2175.887
407.3732, 2190.125
407.8553, 2202.305
408.3375, 2207.649
408.8196, 2208.381
409.3017, 2212.521
409.7838, 2220.668
410.2659, 2225.483
410.7480, 2219.681
411.2302, 2205.378
411.7123, 2192.530
412.1944, 2181.688
412.6765, 2174.402
413.1586, 2173.496
413.6407, 2178.253
414.1229, 2185.438
414.6050, 2198.467
415.0871, 2211.159
415.5692, 2211.738
416.0513, 2199.310
416.5334, 2186.314
417.0156, 2183.220
417.4977, 2185.664
417.9798, 2187.136
418.4619, 2183.822
418.9440, 2180.055
419.4261, 2177.209
419.9083, 2175.739
420.3904, 2177.955
420.8725, 2189.654
421.3546, 2202.528
421.8367, 2210.618
422.3188, 2212.039
422.8010, 2210.143
423.2831, 2202.521
423.7652, 2192.302
424.2473, 2185.994
424.7295, 2190.642
425.2116, 2193.642
425.6937, 2189.703
426.1758, 2175.808
426.6579, 2166.760
427.1400, 2165.705
427.6222, 2167.333
428.1043, 2165.879
428.5864, 2158.524
429.0685, 2154.096
429.5506, 2156.406
430.0327, 2163.694
430.5149, 2161.244
430.9970, 2145.005
431.4791, 2128.713
431.9612, 2122.723
432.4433, 2127.618
432.9254, 2132.500
433.4076, 2136.680
433.8897, 2139.875
434.3718, 2141.046
434.8539, 2140.253
435.3360, 2139.650
435.8181, 2142.892
436.3003, 2147.074
436.7824, 2140.553
437.2645, 2121.920
437.7466, 2106.533
438.2287, 2114.115
438.7108, 2136.169
439.1930, 2154.207
439.6751, 2162.494
440.1572, 2163.358
440.6393, 2153.940
441.1214, 2136.877
441.6035, 2125.189
442.0857, 2132.596
442.5678, 2145.113
443.0499, 2149.535
443.5320, 2137.864
444.0141, 2131.755
444.4962, 2148.149
444.9784, 2174.402
445.4605, 2189.336
445.9426, 2172.065
446.4247, 2157.069
446.9068, 2158.356
447.3889, 2179.485
447.8711, 2194.225
448.3532, 2197.842
448.8353, 2196.688
449.3174, 2195.196
449.7995, 2192.153
450.2816, 2190.789
450.7638, 2191.430
451.2459, 2193.986
451.7280, 2199.261
452.2101, 2210.126
452.6922, 2216.857
453.1743, 2212.736
453.6565, 2196.430
454.1386, 2183.593
454.6207, 2175.073
455.1028, 2168.509
455.5849, 2158.966
456.0670, 2146.909
456.5492, 2140.379
457.0313, 2145.557
457.5134, 2156.733
457.9955, 2159.352
458.4776, 2153.706
458.9597, 2147.102
459.4419, 2147.498
459.9240, 2150.405
460.4061, 2147.179
460.8882, 2133.577
461.3703, 2119.403
461.8524, 2114.954
462.3346, 2116.588
462.8167, 2115.952
463.2988, 2106.855
463.7809, 2095.924
464.2630, 2087.421
464.7451, 2081.942
465.2273, 2076.124
465.7094, 2064.847
466.1915, 2054.724
466.6736, 2051.602
467.1557, 2060.981
467.6378, 2072.538
468.1200, 2089.567
468.6021, 2109.072
469.0842, 2116.684
469.5663, 2105.702
470.0484, 2090.634
470.5305, 2075.794
471.0127, 2058.247
471.4948, 2052.420
471.9769, 2062.919
472.4590, 2079.308
472.9411, 2087.399
473.4232, 2086.364
473.9054, 2082.005
474.3875, 2074.287
474.8696, 2064.803
475.3517, 2060.573
475.8338, 2061.748
476.3159, 2064.647
476.7981, 2066.430
477.2802, 2067.650
477.7623, 2070.508
478.2444, 2076.023
478.7265, 2081.046
479.2086, 2083.270
479.6908, 2082.224
480.1729, 2076.642
480.6550, 2055.402
481.1371, 2036.519
481.6192, 2039.750
482.1013, 2064.745
482.5835, 2086.437
483.0656, 2088.003
483.5477, 2082.819
484.0298, 2082.116
484.5119, 2092.939
484.9940, 2102.360
485.4762, 2110.201
485.9583, 2114.813
486.4404, 2111.953
486.9225, 2092.187
487.4046, 2073.650
487.8867, 2060.516
488.3689, 2052.700
488.8510, 2051.097
489.3331, 2057.354
489.8152, 2067.788
490.2973, 2080.412
490.7794, 2097.049
491.2616, 2107.513
491.7437, 2109.574
492.2258, 2104.990
492.7079, 2096.473
493.1900, 2083.771
493.6722, 2073.529
494.1543, 2074.173
494.6364, 2080.839
495.1185, 2074.580
495.6006, 2053.362
496.0828, 2030.511
496.5649, 2019.414
497.0470, 2016.767
497.5291, 2016.221
498.0112, 2017.428
498.4933, 2017.942
498.9755, 2015.865
499.4576, 2011.387
499.9397, 2005.297
500.4218, 1992.156
500.9039, 1981.624
501.3860, 1981.770
501.8682, 1998.643
502.3503, 2009.735
502.8324, 2006.829
503.3145, 1996.619
503.7966, 1987.069
504.2787, 1979.751
504.7609, 1971.578
505.2430, 1960.605
505.7251, 1947.870
506.2072, 1941.046
506.6893, 1943.835
507.1714, 1946.000
507.6536, 1940.510
508.1357, 1925.791
508.6178, 1917.860
509.0999, 1919.473
509.5820, 1922.572
510.0641, 1912.823
510.5463, 1891.625
511.0284, 1877.372
511.5105, 1878.453
511.9926, 1887.914
512.4747, 1893.635
512.9568, 1895.781
513.4390, 1895.752
513.9211, 1895.295
514.4032, 1892.872
514.8853, 1884.979
515.3674, 1869.050
515.8495, 1856.370
516.3317, 1855.952
516.8138, 1862.433
517.2959, 1868.400
517.7780, 1872.840
518.2601, 1875.074
518.7422, 1873.503
519.2244, 1868.661
519.7065, 1865.693
520.1886, 1867.411
520.6707, 1869.194
521.1528, 1868.771
521.6349, 1864.447
522.1171, 1862.735
522.5992, 1866.037
523.0813, 1869.538
523.5634, 1865.470
524.0455, 1851.937
524.5276, 1840.641
525.0098, 1833.297
525.4919, 1830.875
525.9740, 1840.400
526.4561, 1862.371
526.9382, 1880.122
527.4203, 1876.830
527.9025, 1861.736
528.3846, 1859.562
528.8667, 1874.884
529.3488, 1888.329
529.8309, 1876.121
530.3130, 1850.737
530.7952, 1832.245
531.2773, 1833.145
531.7594, 1838.888
532.2415, 1845.083
532.7236, 1850.595
533.2057, 1850.309
533.6879, 1832.003
534.1700, 1815.998
534.6521, 1813.400
535.1342, 1830.752
535.6163, 1845.970
536.0984, 1862.059
536.5806, 1873.452
537.0627, 1872.447
537.5448, 1851.178
538.0269, 1836.880
538.5090, 1835.792
538.9911, 1843.654
539.4733, 1846.183
539.9554, 1842.561
540.4375, 1839.754
540.9196, 1843.892
541.4017, 1852.623
541.8839, 1852.399
542.3660, 1841.868
542.8481, 1833.370
543.3302, 1842.275
543.8123, 1861.229
544.2944, 1875.921
544.7766, 1882.339
545.2587, 1883.331
545.7408, 1879.111
546.2229, 1871.023
546.7050, 1862.300
547.1871, 1849.106
547.6693, 1840.007
548.1514, 1841.609
548.6335, 1855.622
549.1156, 1865.670
549.5977, 1868.574
550.0798, 1867.141
550.5620, 1862.834
551.0441, 1852.125
551.5262, 1845.816
552.0083, 1846.635
552.4904, 1850.408
552.9725, 1846.716
553.4547, 1832.676
553.9368, 1826.961
554.4189, 1840.832
554.9010, 1867.364
555.3831, 1877.956
555.8652, 1872.380
556.3474, 1862.586
556.8295, 1857.087
557.3116, 1854.240
557.7937, 1850.386
558.2758, 1844.510
558.7579, 1839.705
559.2401, 1839.362
559.7222, 1841.696
560.2043, 1843.960
560.6864, 1842.173
561.1685, 1842.969
561.6506, 1851.938
562.1328, 1867.061
562.6149, 1877.665
563.0970, 1877.938
563.5791, 1876.599
564.0612, 1877.757
564.5433, 1883.106
565.0255, 1883.877
565.5076, 1876.628
565.9897, 1868.880
566.4718, 1870.751
566.9539, 1885.230
567.4360, 1888.755
567.9182, 1873.396
568.4003, 1850.402
568.8824, 1845.705
569.3645, 1857.938
569.8466, 1869.881
570.3287, 1869.604
570.8109, 1864.240
571.2930, 1866.672
571.7751, 1876.747
572.2572, 1886.553
572.7393, 1892.273
573.2214, 1894.169
573.7036, 1891.620
574.1857, 1881.367
574.6678, 1874.023
575.1499, 1878.029
575.6320, 1886.167
576.1141, 1887.904
576.5963, 1870.106
577.0784, 1858.967
577.5605, 1862.398
578.0426, 1877.510
578.5247, 1886.068
579.0068, 1886.298
579.4890, 1883.451
579.9711, 1877.813
580.4532, 1868.793
580.9353, 1871.813
581.4174, 1889.936
581.8995, 1907.410
582.3817, 1902.221
582.8638, 1880.715
583.3459, 1866.586
583.8280, 1866.937
584.3101, 1874.070
584.7922, 1882.531
585.2744, 1891.057
585.7565, 1896.620
586.2386, 1897.451
586.7207, 1895.138
587.2028, 1889.860
587.6849, 1881.771
588.1671, 1873.271
588.6492, 1856.837
589.1313, 1846.191
589.6134, 1851.834
590.0955, 1888.767
590.5776, 1908.107
591.0598, 1901.571
591.5419, 1884.877
592.0240, 1879.222
592.5061, 1887.099
592.9882, 1893.287
593.4703, 1893.501
593.9525, 1890.898
594.4346, 1893.795
594.9167, 1901.823
595.3988, 1909.799
595.8809, 1917.634
596.3630, 1922.440
596.8452, 1916.923
597.3273, 1901.126
597.8094, 1886.389
598.2915, 1880.365
598.7736, 1879.134
599.2557, 1878.870
599.7379, 1878.115
600.2200, 1879.616
600.7021, 1884.766
601.1843, 1892.527
601.6664, 1901.541
602.1485, 1918.755
602.6306, 1927.128
603.1127, 1919.322
603.5948, 1899.896
604.0770, 1893.090
604.5591, 1902.059
605.0412, 1913.442
605.5233, 1920.386
606.0054, 1923.424
606.4875, 1927.882
606.9697, 1934.252
607.4518, 1936.745
607.9339, 1923.592
608.4160, 1903.278
608.8981, 1894.910
609.3802, 1905.903
609.8624, 1919.702
610.3445, 1924.285
610.8266, 1923.135
611.3087, 1922.194
611.7908, 1927.102
612.2729, 1928.897
612.7551, 1919.597
613.2372, 1901.997
613.7193, 1897.141
614.2014, 1918.676
614.6835, 1936.778
615.1656, 1937.900
615.6478, 1919.759
616.1299, 1905.946
616.6120, 1896.138
617.0941, 1891.790
617.5762, 1897.144
618.0583, 1910.736
618.5405, 1919.347
619.0226, 1920.082
619.5047, 1918.104
619.9868, 1919.907
620.4689, 1924.095
620.9510, 1927.316
621.4332, 1925.672
621.9153, 1924.740
622.3974, 1932.292
622.8795, 1944.881
623.3616, 1948.391
623.8438, 1923.842
624.3259, 1901.577
624.8080, 1897.420
625.2901, 1914.840
625.7722, 1930.214
626.2543, 1945.588
626.7365, 1956.370
627.2186, 1957.240
627.7007, 1945.943
628.1828, 1939.673
628.6649, 1940.685
629.1470, 1944.580
629.6292, 1946.236
630.1113, 1945.527
630.5934, 1941.214
631.0755, 1929.374
631.5576, 1917.976
632.0397, 1918.507
632.5219, 1928.062
633.0040, 1937.616
633.4861, 1941.997
633.9682, 1945.446
634.4503, 1951.800
634.9324, 1961.394
635.4146, 1965.814
635.8967, 1960.328
636.3788, 1951.516
636.8609, 1942.267
637.3430, 1930.853
637.8251, 1923.815
638.3073, 1921.604
638.7894, 1923.175
639.2715, 1928.134
639.7536, 1936.498
640.2357, 1945.907
640.7178, 1958.147
641.2000, 1967.138
641.6821, 1955.662
642.1642, 1930.872
642.6463, 1918.372
643.1284, 1946.620
643.6105, 1980.033
644.0927, 1986.929
644.5748, 1970.638
645.0569, 1954.505
645.5390, 1943.217
646.0211, 1937.896
646.5032, 1940.713
646.9854, 1955.382
647.4675, 1964.443
647.9496, 1963.221
648.4317, 1961.655
648.9138, 1969.513
649.3959, 1989.537
649.8781, 2001.845
650.3602, 2003.576
650.8423, 1999.495
651.3244, 1996.296
651.8065, 1993.526
652.2886, 1988.186
652.7708, 1975.414
653.2529, 1964.518
653.7350, 1970.083
654.2171, 1986.884
654.6992, 1999.448
655.1813, 1995.568
655.6635, 1989.806
656.1456, 1992.002
656.6277, 2002.521
657.1098, 2005.140
657.5919, 1988.355
658.0740, 1972.425
658.5562, 1967.707
659.0383, 1977.225
659.5204, 1985.240
660.0025, 1992.507
660.4846, 1996.647
660.9667, 1992.871
661.4489, 1982.331
661.9310, 1975.704
662.4131, 1975.071
662.8952, 1978.128
663.3773, 1983.117
663.8594, 1989.522
664.3416, 1996.216
664.8237, 2006.735
665.3058, 2013.620
665.7879, 2008.339
666.2700, 1995.266
666.7521, 1989.279
667.2343, 2005.286
667.7164, 2017.374
668.1985, 2015.216
668.6806, 1998.914
669.1627, 1988.579
669.6448, 1985.165
670.1270, 1985.548
670.6091, 1988.931
671.0912, 1995.109
671.5733, 1999.685
672.0554, 2002.513
672.5375, 2003.731
673.0197, 2001.540
673.5018, 1998.178
673.9839, 1998.653
674.4660, 2006.080
674.9481, 2012.208
675.4302, 2007.985
675.9124, 2000.160
676.3945, 1998.516
676.8766, 2016.039
677.3587, 2027.829
677.8408, 2023.952
678.3229, 2011.053
678.8051, 2008.946
679.2872, 2023.371
679.7693, 2034.023
680.2514, 2031.982
680.7335, 2020.549
681.2156, 2017.205
681.6978, 2022.033
682.1799, 2028.179
682.6620, 2031.311
683.1441, 2032.551
683.6262, 2033.542
684.1083, 2034.376
684.5905, 2035.340
685.0726, 2037.760
685.5547, 2039.714
686.0368, 2039.448
686.5189, 2036.045
687.0010, 2031.759
687.4832, 2025.431
687.9653, 2019.234
688.4474, 2015.177
688.9295, 2012.839
689.4116, 2014.109
689.8937, 2019.963
690.3759, 2028.573
690.8580, 2037.550
691.3401, 2046.668
691.8222, 2053.300
692.3043, 2056.500
692.7864, 2056.748
693.2686, 2050.833
693.7507, 2041.629
694.2328, 2039.607
694.7149, 2061.758
695.1970, 2082.422
695.6791, 2083.845
696.1613, 2065.548
696.6434, 2052.296
697.1255, 2046.097
697.6076, 2047.132
698.0897, 2058.589
698.5718, 2083.618
699.0540, 2094.645
699.5361, 2088.196
700.0182, 2078.286
700.5003, 2079.384
700.9824, 2088.801
701.4645, 2092.385
701.9467, 2087.237
702.4288, 2082.244
702.9109, 2089.274
703.3930, 2101.232
703.8751, 2107.173
704.3572, 2098.335
704.8394, 2091.110
705.3215, 2094.600
705.8036, 2103.355
706.2857, 2106.830
706.7678, 2101.695
707.2499, 2095.251
707.7321, 2085.165
708.2142, 2075.672
708.6963, 2086.744
709.1784, 2121.690
709.6605, 2144.915
710.1426, 2132.659
710.6248, 2100.867
711.1069, 2084.941
711.5890, 2083.932
712.0711, 2092.263
712.5532, 2115.894
713.0353, 2140.673
713.5175, 2154.074
713.9996, 2154.846
714.4817, 2153.075
714.9638, 2146.143
715.4459, 2141.969
715.9280, 2145.966
716.4102, 2162.240
716.8923, 2172.794
717.3744, 2176.268
717.8565, 2176.757
718.3386, 2177.782
718.8207, 2179.383
719.3029, 2183.201
719.7850, 2190.593
720.2671, 2195.554
720.7492, 2185.032
721.2313, 2168.209
721.7134, 2161.972
722.1956, 2177.031
722.6777, 2195.852
723.1598, 2212.535
723.6419, 2227.185
724.1240, 2240.059
724.6061, 2250.232
725.0883, 2260.278
725.5704, 2271.715
726.0525, 2283.044
726.5346, 2286.971
727.0167, 2281.750
727.4988, 2282.892
727.9810, 2301.403
728.4631, 2328.532
728.9452, 2341.006
729.4273, 2341.135
729.9094, 2343.759
730.3915, 2360.414
730.8737, 2381.571
731.3558, 2401.589
731.8379, 2419.886
732.3200, 2433.124
732.8021, 2431.393
733.2842, 2432.214
733.7664, 2446.164
734.2485, 2477.740
734.7306, 2499.509
735.2127, 2509.431
735.6948, 2514.350
736.1769, 2517.682
736.6591, 2520.362
737.1412, 2530.654
737.6233, 2550.502
738.1054, 2569.613
738.5875, 2574.949
739.0696, 2574.118
739.5518, 2578.576
740.0339, 2594.670
740.5161, 2608.933
740.9982, 2615.133
741.4803, 2617.032
741.9624, 2619.934
742.4445, 2627.030
742.9266, 2629.812
743.4088, 2626.803
743.8909, 2619.640
744.3730, 2609.885
744.8551, 2597.557
745.3372, 2588.852
745.8193, 2585.516
746.3015, 2586.817
746.7836, 2596.568
747.2657, 2610.613
747.7478, 2616.881
748.2299, 2597.867
748.7120, 2580.333
749.1942, 2582.462
749.6763, 2600.292
750.1584, 2611.044
750.6405, 2607.890
751.1226, 2602.555
751.6047, 2597.794
752.0869, 2593.702
752.5690, 2592.748
753.0511, 2595.951
753.5332, 2594.416
754.0153, 2574.825
754.4974, 2548.101
754.9796, 2541.940
755.4617, 2556.018
755.9438, 2573.760
756.4259, 2593.817
756.9080, 2606.363
757.3901, 2597.818
757.8723, 2560.573
758.3544, 2540.160
758.8365, 2557.459
759.3186, 2581.707
759.8007, 2594.817
760.2828, 2593.414
760.7650, 2597.408
761.2471, 2609.118
761.7292, 2618.600
762.2113, 2609.385
762.6934, 2589.128
763.1755, 2583.465
763.6577, 2598.028
764.1398, 2618.942
764.6219, 2641.863
765.1040, 2662.153
765.5861, 2674.474
766.0682, 2676.377
766.5504, 2671.995
767.0325, 2654.144
767.5146, 2634.689
767.9967, 2629.706
768.4788, 2645.799
768.9609, 2647.701
769.4431, 2624.006
769.9252, 2596.077
770.4073, 2605.186
770.8894, 2643.111
771.3715, 2675.021
771.8536, 2689.508
772.3358, 2694.065
772.8179, 2687.166
773.3000, 2675.981
773.7821, 2674.691
774.2642, 2702.838
774.7463, 2723.764
775.2285, 2724.275
775.7106, 2712.200
776.1927, 2708.218
776.6748, 2714.851
777.1569, 2719.653
777.6390, 2715.930
778.1212, 2710.065
778.6033, 2724.283
779.0854, 2754.202
779.5675, 2775.536
780.0496, 2766.594
780.5317, 2750.249
781.0139, 2745.172
781.4960, 2749.835
781.9781, 2755.113
782.4602, 2756.027
782.9423, 2759.510
783.4244, 2768.242
783.9066, 2781.866
784.3887, 2797.082
784.8708, 2814.772
785.3529, 2830.118
785.8350, 2838.780
786.3171, 2843.089
786.7993, 2852.553
787.2814, 2866.618
787.7635, 2879.073
788.2456, 2880.540
788.7277, 2882.486
789.2098, 2897.711
789.6920, 2927.527
790.1741, 2950.669
790.6562, 2952.102
791.1383, 2955.004
791.6204, 2970.179
792.1025, 2998.387
792.5847, 3029.293
793.0668, 3063.940
793.5489, 3095.631
794.0310, 3117.498
794.5131, 3132.118
794.9952, 3145.066
795.4774, 3156.791
795.9595, 3170.839
796.4416, 3188.255
796.9237, 3210.106
797.4058, 3237.242
797.8879, 3270.652
798.3701, 3307.780
798.8522, 3352.958
799.3343, 3397.033
799.8164, 3431.714
800.2985, 3454.959
800.7806, 3486.746
801.2628, 3529.926
801.7449, 3571.155
802.2270, 3588.774
802.7091, 3596.137
803.1912, 3623.331
803.6733, 3678.352
804.1555, 3730.570
804.6376, 3758.743
805.1197, 3776.856
805.6018, 3796.844
806.0839, 3816.024
806.5660, 3847.411
807.0482, 3899.032
807.5303, 3952.837
808.0124, 3988.897
808.4945, 4007.205
808.9766, 4029.360
809.4587, 4058.647
809.9409, 4087.562
810.4230, 4109.959
810.9051, 4126.190
811.3872, 4134.662
811.8693, 4129.125
812.3514, 4131.992
812.8336, 4168.849
813.3157, 4210.584
813.7978, 4223.505
814.2799, 4191.726
814.7620, 4165.916
815.2441, 4149.110
815.7263, 4137.399
816.2084, 4127.426
816.6905, 4118.659
817.1726, 4108.100
817.6547, 4095.708
818.1368, 4079.594
818.6190, 4055.708
819.1011, 4027.670
819.5832, 4000.050
820.0653, 3972.753
820.5474, 3948.544
821.0295, 3931.148
821.5117, 3915.515
821.9938, 3893.806
822.4759, 3861.349
822.9580, 3845.654
823.4401, 3853.968
823.9222, 3869.697
824.4044, 3868.548
824.8865, 3855.643
825.3686, 3844.547
825.8507, 3839.070
826.3328, 3835.765
826.8149, 3828.959
827.2971, 3824.316
827.7792, 3829.144
828.2613, 3855.313
828.7434, 3877.071
829.2255, 3895.533
829.7076, 3907.618
830.1898, 3904.262
830.6719, 3885.540
831.1540, 3881.006
831.6361, 3898.329
832.1182, 3923.916
832.6003, 3944.245
833.0825, 3960.642
833.5646, 3975.329
834.0467, 3987.176
834.5288, 4000.244
835.0109, 4014.241
835.4930, 4031.285
835.9752, 4054.104
836.4573, 4083.779
836.9394, 4115.749
837.4215, 4150.307
837.9036, 4185.134
838.3857, 4218.538
838.8679, 4249.801
839.3500, 4273.158
839.8321, 4283.606
840.3142, 4296.666
840.7963, 4326.989
841.2784, 4366.434
841.7606, 4404.569
842.2427, 4439.817
842.7248, 4471.807
843.2069, 4495.248
843.6890, 4520.483
844.1711, 4565.952
844.6533, 4634.069
845.1354, 4673.258
845.6175, 4670.591
846.0996, 4661.726
846.5817, 4692.218
847.0638, 4745.697
847.5460, 4795.500
848.0281, 4841.247
848.5102, 4867.590
848.9923, 4847.268
849.4744, 4815.916
849.9565, 4813.055
850.4387, 4857.338
850.9208, 4883.206
851.4029, 4885.347
851.8850, 4875.126
852.3671, 4862.233
852.8492, 4847.861
853.3314, 4838.373
853.8135, 4836.406
854.2956, 4829.760
854.7777, 4803.210
855.2598, 4769.966
855.7419, 4743.981
856.2241, 4734.736
856.7062, 4717.190
857.1883, 4685.882
857.6704, 4650.906
858.1525, 4617.441
858.6346, 4585.074
859.1168, 4573.511
859.5989, 4587.204
860.0810, 4594.864
860.5631, 4556.249
861.0452, 4496.993
861.5273, 4451.409
862.0095, 4426.303
862.4916, 4408.033
862.9737, 4398.806
863.4558, 4389.546
863.9379, 4373.987
864.4200, 4350.257
864.9022, 4326.772
865.3843, 4300.702
865.8664, 4284.804
866.3485, 4298.531
866.8306, 4329.008
867.3127, 4344.343
867.7949, 4342.673
868.2770, 4333.561
868.7591, 4310.371
869.2412, 4291.597
869.7233, 4295.065
870.2054, 4328.234
870.6876, 4340.737
871.1697, 4322.158
871.6518, 4302.874
872.1339, 4299.244
872.6160, 4309.926
873.0981, 4328.610
873.5803, 4355.053
874.0624, 4378.972
874.5445, 4386.189
875.0266, 4393.369
875.5087, 4422.644
875.9908, 4472.046
876.4730, 4502.050
876.9551, 4476.048
877.4372, 4460.576
877.9193, 4481.027
878.4014, 4530.677
878.8835, 4567.396
879.3657, 4590.845
879.8478, 4611.311
880.3299, 4634.187
880.8120, 4656.982
881.2941, 4679.106
881.7763, 4698.545
882.2584, 4709.032
882.7405, 4695.026
883.2227, 4685.744
883.7048, 4692.737
884.1869, 4711.861
884.6690, 4735.031
885.1511, 4765.432
885.6332, 4782.584
886.1154, 4776.276
886.5975, 4758.853
887.0796, 4753.950
887.5617, 4756.348
888.0438, 4751.704
888.5259, 4728.530
889.0081, 4703.141
889.4902, 4681.592
889.9723, 4663.080
890.4544, 4645.611
890.9365, 4627.580
891.4186, 4616.407
891.9008, 4616.857
892.3829, 4617.610
892.8650, 4596.734
893.3471, 4560.412
893.8292, 4529.958
894.3113, 4512.304
894.7935, 4497.639
895.2756, 4482.562
895.7577, 4465.212
896.2398, 4443.362
896.7219, 4415.346
897.2040, 4384.474
897.6862, 4348.523
898.1683, 4313.388
898.6504, 4284.217
899.1325, 4261.195
899.6146, 4249.674
900.0967, 4251.320
900.5789, 4250.943
901.0610, 4238.884
901.5431, 4216.831
902.0252, 4183.020
902.5073, 4133.561
902.9894, 4093.530
903.4716, 4069.292
903.9537, 4049.920
904.4358, 4031.055
904.9179, 4012.678
905.4000, 3984.669
905.8821, 3947.055
906.3643, 3912.073
906.8464, 3890.726
907.3285, 3874.541
907.8106, 3855.035
908.2927, 3832.164
908.7748, 3807.634
909.2570, 3774.828
909.7391, 3749.302
910.2212, 3739.827
910.7033, 3741.566
911.1854, 3727.659
911.6675, 3697.636
912.1497, 3669.569
912.6318, 3650.857
913.1139, 3639.388
913.5960, 3636.009
914.0781, 3637.761
914.5602, 3637.413
915.0424, 3637.412
915.5245, 3628.205
916.0066, 3600.695
916.4887, 3566.578
916.9708, 3546.504
917.4529, 3540.953
917.9351, 3547.304
918.4172, 3569.889
918.8993, 3590.193
919.3814, 3573.017
919.8635, 3539.469
920.3456, 3527.164
920.8278, 3558.978
921.3099, 3584.767
921.7920, 3583.740
922.2741, 3574.328
922.7562, 3574.051
923.2383, 3587.331
923.7205, 3582.363
924.2026, 3555.271
924.6847, 3526.807
925.1668, 3519.659
925.6489, 3523.319
926.1310, 3521.254
926.6132, 3511.549
927.0953, 3500.030
927.5774, 3489.706
928.0595, 3477.477
928.5416, 3461.815
929.0237, 3442.656
929.5059, 3421.828
929.9880, 3399.693
930.4701, 3372.623
930.9522, 3332.745
931.4343, 3289.936
931.9164, 3264.097
932.3986, 3251.040
932.8807, 3233.620
933.3628, 3198.455
933.8449, 3164.136
934.3270, 3140.102
934.8091, 3121.531
935.2913, 3095.878
935.7734, 3061.402
936.2555, 3029.763
936.7376, 3003.530
937.2197, 2981.573
937.7018, 2966.520
938.1840, 2953.281
938.6661, 2930.708
939.1482, 2885.199
939.6303, 2847.712
940.1124, 2835.990
940.5945, 2831.742
941.0767, 2815.774
941.5588, 2784.529
942.0409, 2760.228
942.5230, 2744.895
943.0051, 2733.155
943.4872, 2720.510
943.9694, 2707.578
944.4515, 2695.350
944.9336, 2684.019
945.4157, 2672.549
945.8978, 2662.138
946.3799, 2649.999
946.8621, 2632.576
947.3442, 2610.413
947.8263, 2602.388
948.3084, 2609.987
948.7905, 2614.803
949.2726, 2601.393
949.7548, 2582.001
950.2369, 2575.762
950.7190, 2578.865
951.2011, 2578.844
951.6832, 2567.135
952.1653, 2556.328
952.6475, 2549.825
953.1296, 2546.219
953.6117, 2543.417
954.0938, 2541.530
954.5759, 2536.327
955.0580, 2525.503
955.5402, 2515.090
956.0223, 2515.008
956.5044, 2519.015
956.9865, 2517.051
957.4686, 2501.194
957.9507, 2492.143
958.4329, 2501.769
958.9150, 2509.945
959.3971, 2495.125
959.8792, 2456.405
960.3613, 2449.473
960.8434, 2477.197
961.3256, 2498.806
961.8077, 2465.677
962.2898, 2421.433
962.7719, 2414.022
963.2540, 2444.504
963.7361, 2465.510
964.2183, 2462.367
964.7004, 2456.641
965.1825, 2454.671
965.6646, 2455.399
966.1467, 2456.316
966.6288, 2457.031
967.1110, 2454.110
967.5931, 2442.261
968.0752, 2431.261
968.5573, 2431.284
969.0394, 2437.189
969.5215, 2439.852
970.0037, 2435.788
970.4858, 2432.131
970.9679, 2429.834
971.4500, 2427.238
971.9321, 2421.156
972.4142, 2412.862
972.8964, 2407.331
973.3785, 2405.236
973.8606, 2405.847
974.3427, 2415.931
974.8248, 2423.203
975.3069, 2414.363
975.7891, 2386.081
976.2712, 2370.802
976.7533, 2372.528
977.2354, 2374.566
977.7175, 2363.095
978.1996, 2347.545
978.6818, 2357.734
979.1639, 2386.971
979.6460, 2408.551
980.1281, 2407.301
980.6102, 2397.993
981.0923, 2380.318
981.5745, 2360.612
982.0566, 2351.792
982.5387, 2356.184
983.0208, 2359.628
983.5029, 2359.650
983.9850, 2358.027
984.4672, 2354.606
984.9493, 2351.938
985.4314, 2354.680
985.9135, 2365.048
986.3956, 2375.900
986.8777, 2392.475
987.3599, 2401.722
987.8420, 2392.901
988.3241, 2365.900
988.8062, 2350.391
989.2883, 2346.468
989.7704, 2345.056
990.2526, 2338.216
990.7347, 2332.231
991.2168, 2337.214
991.6989, 2349.650
992.1810, 2353.688
992.6631, 2334.783
993.1453, 2324.817
993.6274, 2333.357
994.1095, 2350.101
994.5916, 2352.687
995.0737, 2344.180
995.5558, 2341.389
996.0380, 2351.369
996.5201, 2358.857
997.0022, 2347.917
997.4843, 2331.562
997.9664, 2324.134
998.4485, 2329.640
998.9307, 2333.057
999.4128, 2333.902
999.8949, 2334.075
1000.377, 2334.625
1000.859, 2335.664
1001.341, 2337.814
1001.823, 2340.881
1002.305, 2343.578
1002.788, 2349.896
1003.270, 2350.636
1003.752, 2338.264
1004.234, 2318.379
1004.716, 2304.809
1005.198, 2297.978
1005.680, 2294.587
1006.162, 2295.208
1006.645, 2295.306
1007.127, 2284.520
1007.609, 2271.407
1008.091, 2270.105
1008.573, 2292.199
1009.055, 2304.475
1009.537, 2298.813
1010.019, 2288.571
1010.501, 2283.192
1010.984, 2282.060
1011.466, 2277.481
1011.948, 2269.737
1012.430, 2264.023
1012.912, 2264.988
1013.394, 2268.111
1013.876, 2272.134
1014.358, 2275.839
1014.841, 2274.253
1015.323, 2264.223
1015.805, 2257.194
1016.287, 2255.284
1016.769, 2258.208
1017.251, 2267.322
1017.733, 2280.499
1018.215, 2294.063
1018.697, 2308.664
1019.180, 2318.188
1019.662, 2319.187
1020.144, 2314.633
1020.626, 2305.850
1021.108, 2292.570
1021.590, 2279.710
1022.072, 2267.083
1022.554, 2259.322
1023.037, 2262.173
1023.519, 2269.546
1024.001, 2278.905
1024.483, 2287.749
1024.965, 2287.147
1025.447, 2263.025
1025.929, 2249.250
1026.411, 2253.616
1026.893, 2267.287
1027.376, 2277.374
1027.858, 2283.659
1028.340, 2284.069
1028.822, 2277.253
1029.304, 2269.783
1029.786, 2263.349
1030.268, 2259.852
1030.750, 2261.514
1031.233, 2268.650
1031.715, 2275.350
1032.197, 2281.816
1032.679, 2285.871
1033.161, 2285.727
1033.643, 2282.696
1034.125, 2277.446
1034.607, 2270.909
1035.089, 2265.833
1035.572, 2262.239
1036.054, 2261.506
1036.536, 2263.761
1037.018, 2268.746
1037.500, 2280.641
1037.982, 2296.913
1038.464, 2293.135
1038.946, 2264.231
1039.428, 2238.896
1039.911, 2240.242
1040.393, 2253.093
1040.875, 2269.363
1041.357, 2288.263
1041.839, 2294.530
1042.321, 2283.857
1042.803, 2277.779
1043.285, 2289.376
1043.768, 2306.735
1044.250, 2306.940
1044.732, 2296.052
1045.214, 2287.492
1045.696, 2291.035
1046.178, 2290.062
1046.660, 2276.559
1047.142, 2262.556
1047.625, 2263.106
1048.107, 2276.659
1048.589, 2274.440
1049.071, 2254.864
1049.553, 2236.800
1050.035, 2230.512
1050.517, 2234.470
1050.999, 2255.063
1051.481, 2288.256
1051.964, 2301.416
1052.446, 2287.936
1052.928, 2275.147
1053.410, 2269.719
1053.892, 2269.864
1054.374, 2277.190
1054.856, 2286.909
1055.338, 2288.663
1055.820, 2275.127
1056.303, 2266.993
1056.785, 2273.098
1057.267, 2282.899
1057.749, 2292.292
1058.231, 2300.657
1058.713, 2297.735
1059.195, 2284.221
1059.677, 2269.172
1060.160, 2251.104
1060.642, 2240.277
1061.124, 2249.620
1061.606, 2271.005
1062.088, 2282.396
1062.570, 2281.047
1063.052, 2276.952
1063.534, 2270.568
1064.016, 2264.516
1064.499, 2260.615
1064.981, 2259.611
1065.463, 2263.908
1065.945, 2274.232
1066.427, 2282.975
1066.909, 2292.632
1067.391, 2294.014
1067.873, 2280.408
1068.355, 2257.240
1068.838, 2243.722
1069.320, 2239.276
1069.802, 2239.827
1070.284, 2246.123
1070.766, 2253.049
1071.248, 2259.967
1071.730, 2264.345
1072.212, 2261.966
1072.695, 2247.856
1073.177, 2248.242
1073.659, 2264.971
1074.141, 2283.519
1074.623, 2293.665
1075.105, 2298.334
1075.587, 2301.535
1076.069, 2302.851
1076.552, 2299.356
1077.034, 2285.851
1077.516, 2266.120
1077.998, 2293.961
1078.480, 2309.761
1078.962, 2314.166
1079.444, 2273.048
1079.926, 2290.713
1080.408, 2284.821
1080.891, 2277.963
1081.373, 2303.902
1081.855, 2269.406
1082.337, 2294.825
1082.819, 2296.326
1083.301, 2308.774
1083.783, 2297.519
1084.265, 2293.585
1084.747, 2313.362
1085.230, 2320.011
1085.712, 2306.027
1086.194, 2319.171
1086.676, 2267.982
1087.158, 2266.161
1087.640, 2270.859
1088.122, 2284.703
1088.604, 2296.024
1089.087, 2292.271
1089.569, 2279.968
1090.051, 2267.346
1090.533, 2256.221
1091.015, 2254.328
1091.497, 2276.539
1091.979, 2292.803
1092.461, 2294.412
1092.943, 2288.522
1093.426, 2287.932
1093.908, 2291.868
1094.390, 2297.038
1094.872, 2303.143
1095.354, 2307.690
1095.836, 2311.002
1096.318, 2310.291
1096.800, 2301.113
1097.283, 2284.593
1097.765, 2278.019
1098.247, 2281.836
1098.729, 2288.132
1099.211, 2295.252
1099.693, 2300.404
1100.175, 2301.058
1100.657, 2297.498
1101.140, 2289.545
1101.622, 2269.197
1102.104, 2262.494
1102.586, 2273.175
1103.068, 2286.708
1103.550, 2292.357
1104.032, 2292.014
1104.514, 2287.362
1104.996, 2279.727
1105.479, 2274.950
1105.961, 2275.123
1106.443, 2279.287
1106.925, 2289.771
1107.407, 2300.936
1107.889, 2301.700
1108.371, 2294.493
1108.853, 2292.777
1109.335, 2298.922
1109.818, 2303.363
1110.300, 2297.350
1110.782, 2290.270
1111.264, 2288.746
1111.746, 2291.449
1112.228, 2288.665
1112.710, 2280.059
1113.192, 2279.849
1113.675, 2296.793
1114.157, 2314.370
1114.639, 2316.652
1115.121, 2309.737
1115.603, 2299.336
1116.085, 2282.830
1116.567, 2277.349
1117.049, 2285.315
1117.531, 2294.646
1118.014, 2298.138
1118.496, 2297.748
1118.978, 2294.798
1119.460, 2290.722
1119.942, 2289.174
1120.424, 2293.173
1120.906, 2297.934
1121.388, 2305.504
1121.870, 2309.375
1122.353, 2295.903
1122.835, 2273.630
1123.317, 2272.297
1123.799, 2292.052
1124.281, 2309.154
1124.763, 2307.191
1125.245, 2305.444
1125.727, 2314.204
1126.210, 2325.845
1126.692, 2318.964
1127.174, 2296.407
1127.656, 2285.821
1128.138, 2294.534
1128.620, 2306.042
1129.102, 2308.850
1129.584, 2309.625
1130.067, 2315.201
1130.549, 2324.837
1131.031, 2323.131
1131.513, 2308.875
1131.995, 2302.694
1132.477, 2318.194
1132.959, 2335.495
1133.441, 2330.808
1133.923, 2316.278
1134.406, 2308.905
1134.888, 2312.597
1135.370, 2319.228
1135.852, 2330.894
1136.334, 2336.942
1136.816, 2323.401
1137.298, 2303.728
1137.780, 2299.734
1138.262, 2307.974
1138.745, 2318.426
1139.227, 2337.200
1139.709, 2343.496
1140.191, 2332.665
1140.673, 2315.371
1141.155, 2300.312
1141.637, 2288.856
1142.119, 2286.845
1142.602, 2293.689
1143.084, 2299.538
1143.566, 2294.317
1144.048, 2295.866
1144.530, 2312.481
1145.012, 2334.998
1145.494, 2346.564
1145.976, 2348.298
1146.458, 2344.911
1146.941, 2336.823
1147.423, 2327.579
1147.905, 2312.544
1148.387, 2304.101
1148.869, 2312.772
1149.351, 2333.511
1149.833, 2336.679
1150.315, 2323.553
1150.797, 2312.269
1151.280, 2307.974
1151.762, 2309.044
1152.244, 2317.200
1152.726, 2328.148
1153.208, 2339.007
1153.690, 2350.406
1154.172, 2350.756
1154.654, 2339.416
1155.137, 2331.304
1155.619, 2341.197
1156.101, 2351.351
1156.583, 2340.590
1157.065, 2319.251
1157.547, 2306.666
1158.029, 2307.809
1158.511, 2305.943
1158.994, 2299.871
1159.476, 2295.209
1159.958, 2295.176
1160.440, 2300.237
1160.922, 2316.805
1161.404, 2339.797
1161.886, 2348.824
1162.368, 2329.794
1162.850, 2323.448
1163.333, 2339.301
1163.815, 2355.825
1164.297, 2338.426
1164.779, 2308.722
1165.261, 2307.235
1165.743, 2335.408
1166.225, 2357.280
1166.707, 2363.545
1167.189, 2362.646
1167.672, 2353.999
1168.154, 2343.020
1168.636, 2339.773
1169.118, 2341.836
1169.600, 2343.408
1170.082, 2343.001
1170.564, 2345.692
1171.046, 2357.378
1171.529, 2367.533
1172.011, 2373.917
1172.493, 2374.600
1172.975, 2356.242
1173.457, 2326.947
1173.939, 2314.509
1174.421, 2334.862
1174.903, 2353.539
1175.385, 2357.309
1175.868, 2354.288
1176.350, 2347.408
1176.832, 2337.472
1177.314, 2327.812
1177.796, 2319.519
1178.278, 2319.111
1178.760, 2336.562
1179.242, 2352.725
1179.724, 2358.461
1180.207, 2359.527
1180.689, 2360.281
1181.171, 2360.748
1181.653, 2365.393
1182.135, 2373.274
1182.617, 2371.508
1183.099, 2333.565
1183.581, 2304.398
1184.064, 2318.740
1184.546, 2350.867
1185.028, 2362.546
1185.510, 2353.124
1185.992, 2348.606
1186.474, 2350.909
1186.956, 2351.349
1187.438, 2336.456
1187.921, 2324.439
1188.403, 2333.209
1188.885, 2353.290
1189.367, 2360.166
1189.849, 2353.102
1190.331, 2343.296
1190.813, 2331.752
1191.295, 2324.420
1191.777, 2327.693
1192.260, 2336.209
1192.742, 2348.912
1193.224, 2363.690
1193.706, 2370.013
1194.188, 2367.140
1194.670, 2362.406
1195.152, 2356.516
1195.634, 2353.532
1196.116, 2362.907
1196.599, 2373.238
1197.081, 2369.564
1197.563, 2351.806
1198.045, 2352.401
1198.527, 2373.859
1199.009, 2389.811
1199.491, 2389.452
1199.973, 2383.158
1200.456, 2378.684
1200.938, 2376.362
1201.420, 2377.705
1201.902, 2383.571
1202.384, 2384.306
1202.866, 2379.105
1203.348, 2374.877
1203.830, 2374.592
1204.313, 2377.486
1204.795, 2386.199
1205.277, 2396.063
1205.759, 2400.163
1206.241, 2397.614
1206.723, 2388.906
1207.205, 2372.248
1207.687, 2361.132
1208.169, 2370.056
1208.651, 2383.362
1209.134, 2384.115
1209.616, 2376.119
1210.098, 2365.459
1210.580, 2346.998
1211.062, 2344.866
1211.544, 2361.884
1212.026, 2381.061
1212.508, 2390.286
1212.991, 2393.575
1213.473, 2394.092
1213.955, 2392.145
1214.437, 2387.914
1214.919, 2380.583
1215.401, 2373.908
1215.883, 2367.859
1216.365, 2364.331
1216.848, 2367.132
1217.330, 2371.606
1217.812, 2371.449
1218.294, 2368.237
1218.776, 2369.922
1219.258, 2379.134
1219.740, 2383.408
1220.222, 2379.436
1220.704, 2379.474
1221.187, 2408.034
1221.669, 2438.307
1222.151, 2434.519
1222.633, 2401.474
1223.115, 2389.991
1223.597, 2408.619
1224.079, 2420.004
1224.561, 2416.741
1225.043, 2407.297
1225.526, 2396.351
1226.008, 2387.329
1226.490, 2385.691
1226.972, 2391.248
1227.454, 2390.460
1227.936, 2380.732
1228.418, 2379.765
1228.900, 2394.737
1229.383, 2409.340
1229.865, 2398.764
1230.347, 2382.685
1230.829, 2386.206
1231.311, 2410.813
1231.793, 2414.890
1232.275, 2394.548
1232.757, 2385.233
1233.240, 2401.666
1233.722, 2421.843
1234.204, 2423.784
1234.686, 2415.890
1235.168, 2403.568
1235.650, 2387.303
1236.132, 2388.475
1236.614, 2408.971
1237.096, 2420.968
1237.579, 2409.865
1238.061, 2395.644
1238.543, 2395.659
1239.025, 2403.653
1239.507, 2414.603
1239.989, 2428.324
1240.471, 2435.145
1240.953, 2434.911
1241.436, 2433.175
1241.918, 2433.256
1242.400, 2431.166
1242.882, 2420.492
1243.364, 2408.118
1243.846, 2402.203
1244.328, 2403.151
1244.810, 2399.191
1245.292, 2390.495
1245.775, 2384.081
1246.257, 2383.441
1246.739, 2385.846
1247.221, 2391.437
1247.703, 2397.841
1248.185, 2402.219
1248.667, 2404.521
1249.149, 2408.999
1249.631, 2415.520
1250.114, 2422.962
1250.596, 2434.024
1251.078, 2441.574
1251.560, 2443.644
1252.042, 2438.896
1252.524, 2421.474
1253.006, 2392.977
1253.488, 2385.967
1253.971, 2398.104
1254.453, 2410.450
1254.935, 2411.196
1255.417, 2412.371
1255.899, 2397.100
1256.381, 2426.067
1256.863, 2442.992
1257.345, 2448.523
1257.828, 2408.534
1258.310, 2427.325
1258.792, 2422.558
1259.274, 2416.826
1259.756, 2443.891
1260.238, 2410.520
1260.720, 2437.064
1261.202, 2439.692
1261.684, 2448.509
1262.167, 2452.563
1262.649, 2447.594
1263.131, 2443.075
1263.613, 2445.083
1264.095, 2444.369
1264.577, 2438.623
1265.059, 2431.921
1265.541, 2427.868
1266.023, 2426.436
1266.506, 2429.327
1266.988, 2435.291
1267.470, 2438.273
1267.952, 2431.292
1268.434, 2431.721
1268.916, 2443.678
1269.398, 2455.988
1269.880, 2457.875
1270.363, 2452.058
1270.845, 2435.674
1271.327, 2413.675
1271.809, 2411.883
1272.291, 2440.623
1272.773, 2464.139
1273.255, 2478.834
1273.737, 2484.141
1274.219, 2474.158
1274.702, 2458.492
1275.184, 2443.381
1275.666, 2431.623
1276.148, 2432.444
1276.630, 2450.579
1277.112, 2450.943
1277.594, 2427.011
1278.076, 2406.657
1278.558, 2419.827
1279.041, 2441.167
1279.523, 2451.716
1280.005, 2453.996
1280.487, 2456.303
1280.969, 2458.622
1281.451, 2460.324
1281.933, 2461.233
1282.415, 2464.119
1282.898, 2479.219
1283.380, 2487.556
1283.862, 2470.802
1284.344, 2445.207
1284.826, 2445.265
1285.308, 2466.339
1285.790, 2476.321
1286.272, 2471.767
1286.755, 2463.972
1287.237, 2453.329
1287.719, 2448.396
1288.201, 2453.370
1288.683, 2462.901
1289.165, 2469.660
1289.647, 2473.154
1290.129, 2469.156
1290.611, 2457.945
1291.094, 2453.182
1291.576, 2467.915
1292.058, 2476.487
1292.540, 2472.134
1293.022, 2463.901
1293.504, 2464.951
1293.986, 2470.264
1294.468, 2470.454
1294.950, 2465.490
1295.433, 2467.536
1295.915, 2483.757
1296.397, 2485.989
1296.879, 2465.164
1297.361, 2445.669
1297.843, 2461.229
1298.325, 2488.057
1298.807, 2504.844
1299.290, 2508.436
1299.772, 2495.683
1300.254, 2463.360
1300.736, 2443.050
1301.218, 2440.700
1301.700, 2444.895
1302.182, 2448.760
1302.664, 2452.506
1303.146, 2455.573
1303.629, 2458.843
1304.111, 2466.244
1304.593, 2477.019
1305.075, 2480.942
1305.557, 2476.521
1306.039, 2469.200
1306.521, 2453.046
1307.003, 2447.332
1307.485, 2464.247
##END=



