##NAMES=Geminite
##RRUFFID=R070434
##IDEAL CHEMISTRY=Cu^2+^(As^5+^O_3_OH)&#183;H_2_O
##LOCALITY=Jáchymov (St Joachimsthal), Ostrov, Krusné Hory Mountains (Erzgebirge), Karlovy Vary Region, Bohemia (Böhmen; Boehmen), Czech Republic
##OWNER=RRUFF
##SOURCE=Michael Scott
##DESCRIPTION=Stellate aggregates of pale green bladed crystals
##STATUS=The identification of this mineral has been confirmed by single-crystal X-ray diffraction.
##URL=rruff.info/R070434
160.0806, 1063.606
160.5627, 1095.379
161.0449, 1116.496
161.5270, 1124.350
162.0091, 1128.914
162.4912, 1139.065
162.9733, 1151.050
163.4554, 1157.296
163.9376, 1148.027
164.4197, 1133.341
164.9018, 1134.555
165.3839, 1158.297
165.8660, 1179.247
166.3481, 1176.142
166.8303, 1160.062
167.3124, 1149.660
167.7945, 1157.424
168.2766, 1174.043
168.7587, 1176.924
169.2408, 1158.294
169.7230, 1143.720
170.2051, 1151.283
170.6872, 1170.752
171.1693, 1186.392
171.6514, 1189.805
172.1335, 1185.293
172.6157, 1183.887
173.0978, 1187.703
173.5799, 1190.347
174.0620, 1188.881
174.5441, 1184.642
175.0262, 1179.253
175.5084, 1172.877
175.9905, 1166.223
176.4726, 1161.040
176.9547, 1157.101
177.4368, 1155.316
177.9189, 1156.266
178.4010, 1159.135
178.8832, 1163.423
179.3653, 1170.132
179.8474, 1177.002
180.3295, 1176.340
180.8116, 1161.833
181.2937, 1151.015
181.7759, 1152.695
182.2580, 1159.657
182.7401, 1163.353
183.2222, 1159.850
183.7043, 1150.140
184.1864, 1135.192
184.6686, 1106.277
185.1507, 1088.387
185.6328, 1094.914
186.1149, 1111.763
186.5970, 1122.422
187.0791, 1118.605
187.5613, 1106.013
188.0434, 1099.981
188.5255, 1105.091
189.0076, 1109.209
189.4897, 1111.124
189.9718, 1110.327
190.4540, 1105.294
190.9361, 1094.983
191.4182, 1082.415
191.9003, 1075.005
192.3824, 1074.903
192.8645, 1076.575
193.3467, 1081.925
193.8288, 1086.964
194.3109, 1086.199
194.7930, 1077.308
195.2751, 1066.075
195.7572, 1065.671
196.2394, 1082.918
196.7215, 1098.698
197.2036, 1116.341
197.6857, 1128.766
198.1678, 1126.735
198.6499, 1107.610
199.1321, 1081.540
199.6142, 1067.969
200.0963, 1074.445
200.5784, 1078.869
201.0605, 1078.541
201.5426, 1076.256
202.0248, 1073.067
202.5069, 1069.578
202.9890, 1067.521
203.4711, 1071.137
203.9532, 1087.262
204.4353, 1093.119
204.9175, 1079.116
205.3996, 1062.128
205.8817, 1053.092
206.3638, 1054.327
206.8459, 1061.421
207.3280, 1069.205
207.8102, 1079.008
208.2923, 1085.766
208.7744, 1088.777
209.2565, 1089.730
209.7386, 1090.212
210.2207, 1090.012
210.7029, 1086.965
211.1850, 1076.916
211.6671, 1055.626
212.1492, 1043.421
212.6313, 1046.175
213.1134, 1052.300
213.5956, 1057.359
214.0777, 1060.673
214.5598, 1063.282
215.0419, 1066.326
215.5240, 1070.083
216.0061, 1072.309
216.4883, 1071.012
216.9704, 1070.061
217.4525, 1072.012
217.9346, 1075.801
218.4167, 1078.038
218.8988, 1075.191
219.3810, 1066.997
219.8631, 1063.354
220.3452, 1068.656
220.8273, 1074.508
221.3094, 1080.339
221.7915, 1084.978
222.2737, 1086.350
222.7558, 1082.387
223.2379, 1073.833
223.7200, 1069.035
224.2021, 1071.158
224.6842, 1073.937
225.1664, 1076.676
225.6485, 1079.133
226.1306, 1080.934
226.6127, 1081.719
227.0948, 1081.995
227.5770, 1084.085
228.0591, 1091.181
228.5412, 1095.685
229.0233, 1095.103
229.5054, 1091.869
229.9875, 1088.387
230.4697, 1085.683
230.9518, 1083.996
231.4339, 1084.215
231.9160, 1088.560
232.3981, 1090.914
232.8802, 1090.639
233.3624, 1088.318
233.8445, 1083.366
234.3266, 1075.789
234.8087, 1068.255
235.2908, 1065.986
235.7729, 1072.203
236.2551, 1076.048
236.7372, 1073.544
237.2193, 1070.794
237.7014, 1073.140
238.1835, 1081.028
238.6656, 1089.288
239.1478, 1089.888
239.6299, 1078.771
240.1120, 1075.228
240.5941, 1088.854
241.0762, 1102.875
241.5583, 1108.133
242.0405, 1105.170
242.5226, 1101.384
243.0047, 1105.668
243.4868, 1119.404
243.9689, 1124.404
244.4510, 1111.650
244.9332, 1098.140
245.4153, 1087.825
245.8974, 1081.712
246.3795, 1081.063
246.8616, 1088.369
247.3437, 1102.500
247.8259, 1113.129
248.3080, 1121.231
248.7901, 1123.835
249.2722, 1116.551
249.7543, 1104.274
250.2364, 1095.045
250.7186, 1093.809
251.2007, 1097.638
251.6828, 1097.185
252.1649, 1088.013
252.6470, 1083.831
253.1291, 1091.180
253.6113, 1104.243
254.0934, 1117.389
254.5755, 1128.819
255.0576, 1138.723
255.5397, 1148.811
256.0219, 1161.043
256.5040, 1165.735
256.9861, 1150.206
257.4682, 1131.660
257.9503, 1123.411
258.4324, 1128.484
258.9146, 1137.496
259.3967, 1140.293
259.8788, 1136.521
260.3609, 1135.102
260.8430, 1141.555
261.3251, 1147.330
261.8073, 1145.431
262.2894, 1136.028
262.7715, 1125.848
263.2536, 1117.697
263.7357, 1112.129
264.2178, 1113.156
264.7000, 1124.380
265.1821, 1137.543
265.6642, 1148.000
266.1463, 1155.714
266.6284, 1160.006
267.1105, 1157.667
267.5927, 1152.214
268.0748, 1152.156
268.5569, 1159.621
269.0390, 1166.156
269.5211, 1166.172
270.0032, 1161.232
270.4854, 1152.671
270.9675, 1135.723
271.4496, 1119.472
271.9317, 1115.198
272.4138, 1123.182
272.8959, 1134.130
273.3781, 1145.768
273.8602, 1156.372
274.3423, 1163.186
274.8244, 1165.765
275.3065, 1165.099
275.7886, 1159.791
276.2708, 1151.191
276.7529, 1145.174
277.2350, 1144.757
277.7171, 1146.582
278.1992, 1145.334
278.6813, 1141.124
279.1635, 1134.678
279.6456, 1123.525
280.1277, 1110.910
280.6098, 1101.771
281.0919, 1096.906
281.5740, 1097.300
282.0562, 1107.172
282.5383, 1127.821
283.0204, 1140.565
283.5025, 1136.909
283.9846, 1128.501
284.4667, 1127.577
284.9489, 1134.421
285.4310, 1138.094
285.9131, 1127.814
286.3952, 1104.086
286.8773, 1091.534
287.3594, 1097.319
287.8416, 1106.183
288.3237, 1113.826
288.8058, 1118.857
289.2879, 1117.482
289.7700, 1106.459
290.2521, 1089.350
290.7343, 1081.571
291.2164, 1092.945
291.6985, 1100.819
292.1806, 1099.344
292.6627, 1093.419
293.1448, 1088.300
293.6270, 1085.918
294.1091, 1086.682
294.5912, 1091.904
295.0733, 1108.222
295.5554, 1115.971
296.0375, 1107.150
296.5197, 1096.160
297.0018, 1095.590
297.4839, 1105.212
297.9660, 1113.363
298.4481, 1106.001
298.9302, 1078.660
299.4124, 1067.264
299.8945, 1087.885
300.3766, 1107.882
300.8587, 1117.262
301.3408, 1117.205
301.8229, 1111.387
302.3050, 1100.910
302.7871, 1088.057
303.2693, 1085.795
303.7514, 1108.641
304.2335, 1120.250
304.7156, 1103.078
305.1977, 1076.500
305.6798, 1061.775
306.1620, 1066.942
306.6441, 1082.699
307.1262, 1094.540
307.6083, 1101.611
308.0904, 1107.751
308.5725, 1113.639
309.0547, 1118.708
309.5368, 1122.648
310.0189, 1125.394
310.5010, 1126.746
310.9831, 1126.730
311.4652, 1125.291
311.9474, 1120.823
312.4295, 1108.332
312.9116, 1100.215
313.3937, 1107.075
313.8758, 1124.033
314.3579, 1138.354
314.8401, 1143.162
315.3222, 1142.341
315.8043, 1142.294
316.2864, 1143.081
316.7685, 1144.294
317.2506, 1145.691
317.7328, 1147.415
318.2149, 1149.972
318.6970, 1154.546
319.1791, 1157.950
319.6612, 1156.416
320.1433, 1151.198
320.6255, 1148.185
321.1076, 1150.062
321.5897, 1153.920
322.0718, 1154.902
322.5539, 1152.593
323.0360, 1150.806
323.5182, 1150.997
324.0003, 1152.141
324.4824, 1153.515
324.9645, 1154.983
325.4466, 1154.821
325.9287, 1150.574
326.4109, 1141.686
326.8930, 1136.843
327.3751, 1137.573
327.8572, 1140.723
328.3393, 1145.744
328.8214, 1151.862
329.3036, 1157.285
329.7857, 1160.939
330.2678, 1163.189
330.7499, 1165.581
331.2320, 1165.151
331.7141, 1168.593
332.1963, 1182.224
332.6784, 1197.524
333.1605, 1204.318
333.6426, 1199.851
334.1247, 1190.498
334.6068, 1185.418
335.0890, 1185.350
335.5711, 1187.918
336.0532, 1200.302
336.5353, 1208.742
337.0174, 1203.422
337.4995, 1187.096
337.9817, 1169.747
338.4638, 1158.642
338.9459, 1153.535
339.4280, 1152.696
339.9101, 1159.967
340.3922, 1165.894
340.8744, 1165.905
341.3565, 1163.789
341.8386, 1165.482
342.3207, 1174.139
342.8028, 1182.922
343.2849, 1178.680
343.7671, 1158.505
344.2492, 1146.418
344.7313, 1156.206
345.2134, 1169.799
345.6955, 1171.753
346.1776, 1161.579
346.6598, 1151.293
347.1419, 1147.476
347.6240, 1149.324
348.1061, 1156.283
348.5882, 1170.548
349.0703, 1182.917
349.5525, 1182.566
350.0346, 1174.036
350.5167, 1170.934
350.9988, 1182.133
351.4809, 1194.463
351.9630, 1196.776
352.4452, 1190.403
352.9273, 1181.623
353.4094, 1171.700
353.8915, 1163.132
354.3736, 1164.484
354.8557, 1183.795
355.3379, 1194.268
355.8200, 1179.831
356.3021, 1157.985
356.7842, 1152.126
357.2663, 1166.426
357.7484, 1184.612
358.2306, 1188.222
358.7127, 1174.091
359.1948, 1162.294
359.6769, 1151.011
360.1590, 1143.445
360.6411, 1143.184
361.1233, 1147.693
361.6054, 1151.673
362.0875, 1151.981
362.5696, 1149.600
363.0517, 1147.964
363.5338, 1145.998
364.0160, 1146.765
364.4981, 1154.758
364.9802, 1162.753
365.4623, 1163.612
365.9444, 1156.294
366.4265, 1146.892
366.9087, 1140.392
367.3908, 1136.437
367.8729, 1141.861
368.3550, 1168.829
368.8371, 1190.813
369.3192, 1191.071
369.8014, 1176.462
370.2835, 1163.772
370.7656, 1161.983
371.2477, 1165.652
371.7298, 1165.567
372.2119, 1161.318
372.6941, 1157.149
373.1762, 1153.733
373.6583, 1152.255
374.1404, 1155.906
374.6225, 1167.864
375.1046, 1173.844
375.5868, 1158.550
376.0689, 1133.336
376.5510, 1122.137
377.0331, 1130.704
377.5152, 1146.590
377.9973, 1158.319
378.4795, 1165.362
378.9616, 1170.525
379.4437, 1174.511
379.9258, 1175.989
380.4079, 1170.452
380.8900, 1161.377
381.3722, 1160.300
381.8543, 1174.925
382.3364, 1196.642
382.8185, 1199.099
383.3006, 1157.143
383.7827, 1128.292
384.2649, 1119.107
384.7470, 1119.844
385.2291, 1123.671
385.7112, 1128.906
386.1933, 1136.698
386.6754, 1149.877
387.1576, 1169.119
387.6397, 1179.604
388.1218, 1173.958
388.6039, 1167.661
389.0860, 1166.243
389.5681, 1167.404
390.0503, 1167.316
390.5324, 1164.265
391.0145, 1159.479
391.4966, 1154.800
391.9787, 1150.310
392.4608, 1145.103
392.9430, 1136.802
393.4251, 1129.799
393.9072, 1128.722
394.3893, 1133.542
394.8714, 1138.943
395.3535, 1141.994
395.8357, 1144.073
396.3178, 1148.254
396.7999, 1154.984
397.2820, 1160.297
397.7641, 1161.500
398.2462, 1158.780
398.7284, 1154.547
399.2105, 1148.336
399.6926, 1141.235
400.1747, 1131.602
400.6568, 1121.839
401.1389, 1116.766
401.6211, 1117.974
402.1032, 1121.238
402.5853, 1119.874
403.0674, 1110.562
403.5495, 1107.010
404.0316, 1112.260
404.5138, 1119.554
404.9959, 1127.441
405.4780, 1134.486
405.9601, 1138.270
406.4422, 1137.072
406.9243, 1131.946
407.4065, 1126.296
407.8886, 1119.034
408.3707, 1113.569
408.8528, 1111.943
409.3349, 1111.273
409.8170, 1108.866
410.2992, 1104.462
410.7813, 1100.720
411.2634, 1098.259
411.7455, 1097.917
412.2276, 1106.421
412.7097, 1129.286
413.1919, 1148.689
413.6740, 1147.571
414.1561, 1134.430
414.6382, 1125.538
415.1203, 1126.366
415.6024, 1129.169
416.0846, 1128.341
416.5667, 1124.862
417.0488, 1121.750
417.5309, 1120.050
418.0130, 1118.995
418.4951, 1117.107
418.9773, 1113.260
419.4594, 1112.838
419.9415, 1124.335
420.4236, 1132.470
420.9057, 1121.938
421.3878, 1097.956
421.8700, 1078.799
422.3521, 1076.540
422.8342, 1087.561
423.3163, 1096.333
423.7984, 1102.707
424.2805, 1106.831
424.7627, 1106.075
425.2448, 1105.076
425.7269, 1109.981
426.2090, 1120.400
426.6911, 1127.489
427.1732, 1118.387
427.6554, 1095.267
428.1375, 1086.813
428.6196, 1101.356
429.1017, 1114.601
429.5838, 1111.295
430.0659, 1099.497
430.5481, 1090.793
431.0302, 1088.444
431.5123, 1088.528
431.9944, 1090.312
432.4765, 1092.267
432.9586, 1086.566
433.4408, 1068.602
433.9229, 1051.627
434.4050, 1054.369
434.8871, 1079.682
435.3692, 1093.574
435.8513, 1084.793
436.3335, 1072.591
436.8156, 1067.474
437.2977, 1068.684
437.7798, 1072.959
438.2619, 1078.912
438.7440, 1085.074
439.2262, 1087.213
439.7083, 1079.649
440.1904, 1078.389
440.6725, 1097.110
441.1546, 1110.581
441.6367, 1095.290
442.1189, 1057.345
442.6010, 1024.746
443.0831, 1020.544
443.5652, 1037.443
444.0473, 1047.644
444.5294, 1049.919
445.0116, 1048.889
445.4937, 1041.003
445.9758, 1033.427
446.4579, 1035.949
446.9400, 1051.576
447.4221, 1062.714
447.9043, 1051.418
448.3864, 1029.393
448.8685, 1023.566
449.3506, 1038.496
449.8327, 1055.160
450.3148, 1059.127
450.7970, 1051.215
451.2791, 1043.137
451.7612, 1031.714
452.2433, 1023.798
452.7254, 1024.016
453.2076, 1028.265
453.6897, 1031.503
454.1718, 1032.088
454.6539, 1030.123
455.1360, 1025.017
455.6181, 1015.474
456.1003, 1010.178
456.5824, 1012.935
457.0645, 1016.284
457.5466, 1019.667
458.0287, 1021.768
458.5108, 1019.866
458.9930, 1012.038
459.4751, 1003.606
459.9572, 1004.150
460.4393, 1013.875
460.9214, 1017.372
461.4035, 1006.753
461.8857, 995.9148
462.3678, 999.2990
462.8499, 1014.150
463.3320, 1026.260
463.8141, 1030.253
464.2962, 1031.150
464.7784, 1034.953
465.2605, 1039.956
465.7426, 1037.258
466.2247, 1021.359
466.7068, 1001.685
467.1889, 997.6942
467.6711, 1023.705
468.1532, 1034.989
468.6353, 1016.433
469.1174, 996.5565
469.5995, 998.0525
470.0816, 1014.365
470.5638, 1021.513
471.0459, 1002.396
471.5280, 969.3025
472.0101, 961.0309
472.4922, 990.6393
472.9743, 1009.557
473.4565, 992.7103
473.9386, 972.4279
474.4207, 971.9955
474.9028, 990.7618
475.3849, 1008.234
475.8670, 1010.998
476.3492, 1005.672
476.8313, 1003.690
477.3134, 1005.352
477.7955, 1005.570
478.2776, 1001.057
478.7597, 994.1156
479.2419, 990.6534
479.7240, 992.5553
480.2061, 992.7309
480.6882, 987.1460
481.1703, 981.0663
481.6524, 980.9993
482.1346, 986.0350
482.6167, 988.5179
483.0988, 981.9760
483.5809, 968.9127
484.0630, 963.4995
484.5451, 971.6088
485.0273, 977.8969
485.5094, 981.3349
485.9915, 981.5430
486.4736, 975.3027
486.9557, 963.7753
487.4378, 956.0203
487.9200, 960.8790
488.4021, 974.8578
488.8842, 989.8752
489.3663, 1007.593
489.8484, 1015.361
490.3305, 999.7383
490.8127, 973.5590
491.2948, 964.8786
491.7769, 980.9003
492.2590, 993.2109
492.7411, 989.4689
493.2232, 978.5464
493.7054, 969.6937
494.1875, 964.0881
494.6696, 959.3532
495.1517, 953.8327
495.6338, 947.5482
496.1159, 940.2578
496.5981, 926.5715
497.0802, 919.8865
497.5623, 928.0626
498.0444, 938.8779
498.5265, 942.3821
499.0086, 937.5270
499.4908, 929.3199
499.9729, 919.0586
500.4550, 908.8331
500.9371, 908.7940
501.4192, 922.0681
501.9013, 932.2164
502.3835, 930.4059
502.8656, 922.1844
503.3477, 917.5150
503.8298, 918.4749
504.3119, 914.9055
504.7940, 893.5916
505.2762, 871.1525
505.7583, 871.5773
506.2404, 893.4553
506.7225, 914.0870
507.2046, 918.6455
507.6867, 909.5157
508.1689, 896.6026
508.6510, 866.6621
509.1331, 853.0438
509.6152, 869.0349
510.0973, 892.2031
510.5794, 908.0329
511.0616, 915.0505
511.5437, 918.0591
512.0258, 920.7692
512.5079, 921.7854
512.9901, 916.0578
513.4722, 902.3668
513.9543, 889.3431
514.4364, 878.8734
514.9185, 871.6128
515.4006, 868.9036
515.8828, 871.1409
516.3649, 872.5221
516.8470, 870.4877
517.3291, 867.4282
517.8112, 864.9376
518.2933, 863.3517
518.7755, 862.9091
519.2576, 863.6087
519.7397, 866.1492
520.2218, 873.0839
520.7039, 893.1004
521.1860, 900.5207
521.6682, 885.1797
522.1503, 868.3222
522.6324, 860.6192
523.1145, 860.8907
523.5966, 863.9550
524.0787, 867.7308
524.5609, 871.4776
525.0430, 874.9691
525.5251, 878.1795
526.0072, 876.3605
526.4893, 866.0659
526.9714, 854.1470
527.4536, 846.9756
527.9357, 844.2307
528.4178, 846.0474
528.8999, 860.7114
529.3820, 871.7935
529.8641, 866.8688
530.3463, 851.8666
530.8284, 838.6457
531.3105, 831.1937
531.7926, 825.0701
532.2747, 812.4512
532.7568, 789.9255
533.2390, 782.1130
533.7211, 801.5150
534.2032, 821.8846
534.6853, 837.7513
535.1674, 848.8719
535.6495, 854.8918
536.1317, 855.4594
536.6138, 853.5188
537.0959, 850.3254
537.5780, 846.7764
538.0601, 846.9459
538.5422, 852.0167
539.0244, 854.9899
539.5065, 848.9347
539.9886, 836.8101
540.4707, 833.4277
540.9528, 847.1451
541.4349, 857.0942
541.9171, 858.1273
542.3992, 854.1463
542.8813, 846.2885
543.3634, 836.4427
543.8455, 830.1218
544.3276, 832.4639
544.8098, 841.1190
545.2919, 845.1384
545.7740, 841.7668
546.2561, 841.4208
546.7382, 854.1323
547.2203, 865.1388
547.7024, 859.6982
548.1845, 839.1048
548.6666, 822.6371
549.1487, 822.3898
549.6309, 827.9203
550.1130, 826.9694
550.5951, 821.2740
551.0772, 820.3542
551.5593, 828.7192
552.0414, 839.8885
552.5236, 843.2959
553.0057, 836.5852
553.4878, 829.8834
553.9699, 820.4995
554.4520, 813.9396
554.9341, 814.0218
555.4163, 817.8823
555.8984, 821.0820
556.3805, 821.9990
556.8626, 822.0795
557.3447, 822.0084
557.8268, 822.1927
558.3090, 827.2974
558.7911, 840.1174
559.2732, 850.1903
559.7553, 848.3846
560.2374, 838.7225
560.7195, 834.6981
561.2017, 839.6258
561.6838, 844.5366
562.1659, 845.7781
562.6480, 846.1411
563.1301, 850.5914
563.6122, 858.0661
564.0944, 861.2961
564.5765, 854.6296
565.0586, 840.1897
565.5407, 825.1312
566.0228, 806.0463
566.5049, 794.9937
566.9871, 800.5632
567.4692, 809.7560
567.9513, 815.5944
568.4334, 818.0110
568.9155, 818.9206
569.3976, 819.7563
569.8798, 818.8753
570.3619, 812.4427
570.8440, 802.6249
571.3261, 796.9854
571.8082, 797.9685
572.2903, 802.4084
572.7725, 806.5843
573.2546, 810.3289
573.7367, 815.5804
574.2188, 829.5652
574.7009, 836.4360
575.1830, 823.1238
575.6652, 805.4097
576.1473, 803.8036
576.6294, 821.5277
577.1115, 839.6435
577.5936, 838.6344
578.0757, 824.3089
578.5579, 816.5515
579.0400, 816.3235
579.5221, 816.8355
580.0042, 815.6642
580.4863, 812.8759
580.9684, 807.1340
581.4506, 795.8817
581.9327, 792.1372
582.4148, 806.3060
582.8969, 820.7547
583.3790, 823.3466
583.8611, 816.9100
584.3433, 808.7091
584.8254, 802.0479
585.3075, 797.1734
585.7896, 794.8507
586.2717, 795.3140
586.7538, 795.4765
587.2360, 794.0818
587.7181, 794.2333
588.2002, 801.3086
588.6823, 810.1411
589.1644, 811.4775
589.6465, 801.6570
590.1287, 790.8109
590.6108, 781.6260
591.0929, 775.3255
591.5750, 774.6786
592.0571, 779.0521
592.5392, 784.0726
593.0214, 786.7546
593.5035, 788.2892
593.9856, 793.4512
594.4677, 807.6224
594.9498, 812.5458
595.4319, 798.5858
595.9141, 782.2769
596.3962, 767.9167
596.8783, 757.8778
597.3604, 757.8869
597.8425, 774.9583
598.3246, 793.1238
598.8068, 797.1020
599.2889, 791.0141
599.7710, 784.3505
600.2531, 778.9039
600.7352, 776.2411
601.2173, 777.9807
601.6995, 783.6599
602.1816, 789.5739
602.6637, 800.0744
603.1458, 804.5760
603.6279, 795.8250
604.1100, 785.9873
604.5922, 785.9735
605.0743, 794.0200
605.5564, 799.1714
606.0385, 793.1841
606.5206, 783.5894
607.0027, 782.3046
607.4849, 788.3389
607.9670, 793.7274
608.4491, 796.3823
608.9312, 798.6487
609.4133, 803.7202
609.8954, 811.5986
610.3776, 813.7029
610.8597, 804.7635
611.3418, 797.3058
611.8239, 795.1953
612.3060, 795.3201
612.7881, 793.9968
613.2703, 791.2257
613.7524, 790.5165
614.2345, 796.1160
614.7166, 804.3335
615.1987, 805.2859
615.6808, 798.6469
616.1630, 791.4388
616.6451, 783.9764
617.1272, 779.8594
617.6093, 786.4510
618.0914, 804.0284
618.5735, 810.2609
619.0557, 793.2311
619.5378, 777.5220
620.0199, 772.7599
620.5020, 774.5820
620.9841, 779.7930
621.4662, 786.2076
621.9484, 787.8163
622.4305, 776.4061
622.9126, 757.0563
623.3947, 751.2640
623.8768, 761.4125
624.3589, 771.3433
624.8411, 776.4874
625.3232, 779.0588
625.8053, 783.0261
626.2874, 788.2563
626.7695, 786.3184
627.2516, 762.4122
627.7338, 745.8152
628.2159, 760.8834
628.6980, 788.8231
629.1801, 800.3801
629.6622, 789.8633
630.1443, 774.3345
630.6265, 770.3716
631.1086, 775.7691
631.5907, 778.1280
632.0728, 776.8629
632.5549, 774.7976
633.0370, 772.1995
633.5192, 769.6995
634.0013, 767.2209
634.4834, 764.8577
634.9655, 765.6544
635.4476, 774.6349
635.9297, 782.2808
636.4119, 783.0120
636.8940, 778.9896
637.3761, 772.1445
637.8582, 763.7566
638.3403, 757.6172
638.8224, 757.5294
639.3046, 762.9885
639.7867, 773.1600
640.2688, 792.4448
640.7509, 800.0707
641.2330, 780.5313
641.7151, 756.0433
642.1973, 752.0389
642.6794, 766.5638
643.1615, 775.4368
643.6436, 768.5514
644.1257, 760.2760
644.6078, 757.7808
645.0900, 759.2778
645.5721, 763.5131
646.0542, 769.2874
646.5363, 772.1505
647.0184, 767.0558
647.5005, 756.1366
647.9827, 748.6686
648.4648, 743.9755
648.9469, 746.6583
649.4290, 766.2028
649.9111, 784.4654
650.3932, 778.6050
650.8754, 753.0558
651.3575, 739.6650
651.8396, 756.3863
652.3217, 771.9590
652.8038, 766.7092
653.2859, 754.0336
653.7681, 753.1448
654.2502, 765.9959
654.7323, 780.7914
655.2144, 788.7859
655.6965, 790.4100
656.1786, 785.3910
656.6608, 772.1582
657.1429, 761.8555
657.6250, 756.6470
658.1071, 755.2509
658.5892, 757.9116
659.0714, 763.8068
659.5535, 769.3792
660.0356, 778.0195
660.5177, 781.7081
660.9998, 772.9659
661.4819, 760.9556
661.9641, 755.0447
662.4462, 755.8546
662.9283, 759.7561
663.4104, 765.2120
663.8925, 769.7794
664.3746, 767.1484
664.8568, 757.0605
665.3389, 747.6660
665.8210, 738.7983
666.3031, 734.2529
666.7852, 739.1078
667.2673, 750.7665
667.7495, 757.5906
668.2316, 756.5984
668.7137, 755.6564
669.1958, 753.7816
669.6779, 754.5435
670.1600, 765.1880
670.6422, 780.8714
671.1243, 787.7974
671.6064, 778.4535
672.0885, 763.0095
672.5706, 754.5765
673.0527, 752.6695
673.5349, 754.2891
674.0170, 759.4893
674.4991, 766.6365
674.9812, 776.1240
675.4633, 785.8743
675.9454, 790.2225
676.4276, 786.9090
676.9097, 783.0562
677.3918, 778.5422
677.8739, 773.8170
678.3560, 768.8609
678.8381, 763.9765
679.3203, 758.8477
679.8024, 753.3915
680.2845, 750.7629
680.7666, 758.0821
681.2487, 769.4433
681.7308, 766.9742
682.2130, 751.1096
682.6951, 743.7188
683.1772, 755.7423
683.6593, 775.8257
684.1414, 786.5565
684.6235, 786.3248
685.1057, 785.0458
685.5878, 782.2377
686.0699, 778.9171
686.5520, 772.1871
687.0341, 766.9707
687.5162, 771.5159
687.9984, 785.3558
688.4805, 793.6151
688.9626, 780.4450
689.4447, 763.0718
689.9268, 763.3619
690.4089, 775.8151
690.8911, 784.2056
691.3732, 784.0856
691.8553, 779.7993
692.3374, 775.0292
692.8195, 770.1735
693.3016, 769.6946
693.7838, 778.2118
694.2659, 780.7067
694.7480, 765.7089
695.2301, 751.7245
695.7122, 753.3236
696.1943, 766.9814
696.6765, 778.6809
697.1586, 784.7295
697.6407, 788.4709
698.1228, 791.7845
698.6049, 793.6929
699.0870, 792.2690
699.5692, 787.9772
700.0513, 783.1055
700.5334, 778.8179
701.0155, 776.0140
701.4976, 778.0292
701.9797, 785.3447
702.4619, 787.0948
702.9440, 780.9703
703.4261, 772.3176
703.9082, 760.2593
704.3903, 749.4741
704.8724, 752.7323
705.3546, 777.8294
705.8367, 793.6187
706.3188, 790.4990
706.8009, 782.3570
707.2830, 769.4524
707.7651, 760.0014
708.2473, 772.4550
708.7294, 810.6950
709.2115, 843.1948
709.6936, 832.0521
710.1757, 794.4599
710.6578, 773.3649
711.1400, 768.7254
711.6221, 769.3875
712.1042, 771.8069
712.5863, 776.6842
713.0684, 786.0477
713.5505, 800.4638
714.0327, 807.1309
714.5148, 797.9443
714.9969, 791.9742
715.4790, 794.3100
715.9611, 799.2471
716.4432, 801.1845
716.9254, 801.0692
717.4075, 805.3734
717.8896, 822.3608
718.3717, 836.4554
718.8538, 829.7454
719.3359, 813.8693
719.8181, 811.0929
720.3002, 822.2714
720.7823, 830.2325
721.2644, 822.9177
721.7465, 807.1282
722.2286, 798.5356
722.7108, 797.4274
723.1929, 802.5762
723.6750, 818.2581
724.1571, 831.6176
724.6392, 833.7864
725.1213, 829.3488
725.6035, 828.0081
726.0856, 830.8777
726.5677, 833.0634
727.0498, 835.6419
727.5319, 835.3190
728.0140, 823.4348
728.4962, 809.8253
728.9783, 812.9181
729.4604, 836.1791
729.9425, 860.8822
730.4246, 870.5320
730.9067, 869.3415
731.3889, 864.9467
731.8710, 857.8077
732.3531, 850.8815
732.8352, 844.0858
733.3173, 844.5665
733.7994, 862.2340
734.2816, 894.8686
734.7637, 913.7376
735.2458, 913.6487
735.7279, 908.2902
736.2100, 893.0643
736.6921, 878.9290
737.1743, 872.1283
737.6564, 871.8932
738.1385, 875.9453
738.6206, 886.2139
739.1027, 894.4405
739.5848, 895.1860
740.0670, 891.9547
740.5491, 885.0936
741.0312, 877.8804
741.5133, 881.1097
741.9954, 899.9330
742.4775, 920.8082
742.9597, 922.7985
743.4418, 907.3669
743.9239, 895.1770
744.4060, 886.7928
744.8881, 879.0626
745.3702, 868.5273
745.8524, 861.4796
746.3345, 868.7255
746.8166, 892.8486
747.2987, 906.9170
747.7808, 904.6713
748.2629, 901.2440
748.7451, 899.5786
749.2272, 898.6869
749.7093, 897.4730
750.1914, 896.0255
750.6735, 895.0605
751.1556, 894.3099
751.6378, 895.3267
752.1199, 903.3664
752.6020, 912.8506
753.0841, 909.7634
753.5662, 895.0359
754.0483, 885.7689
754.5305, 892.4636
755.0126, 906.9221
755.4947, 912.9512
755.9768, 909.4838
756.4589, 907.2005
756.9410, 905.8564
757.4232, 906.8116
757.9053, 910.7028
758.3874, 917.2001
758.8695, 928.1046
759.3516, 944.6755
759.8337, 952.3635
760.3159, 943.0438
760.7980, 932.9771
761.2801, 928.9163
761.7622, 926.7575
762.2443, 918.9960
762.7264, 907.4432
763.2086, 904.8391
763.6907, 924.1804
764.1728, 945.2380
764.6549, 939.3800
765.1370, 917.9753
765.6191, 909.6640
766.1013, 917.7625
766.5834, 930.7208
767.0655, 941.8505
767.5476, 951.5118
768.0297, 961.6947
768.5118, 973.9938
768.9940, 975.6936
769.4761, 960.5607
769.9582, 947.8802
770.4403, 948.7239
770.9224, 954.7131
771.4045, 953.0456
771.8867, 943.0175
772.3688, 935.5008
772.8509, 933.7062
773.3330, 932.2905
773.8151, 928.6389
774.2972, 924.7012
774.7794, 921.6579
775.2615, 920.3174
775.7436, 922.9105
776.2257, 932.5583
776.7078, 942.5837
777.1899, 944.3353
777.6721, 941.0300
778.1542, 940.1766
778.6363, 942.4065
779.1184, 944.4733
779.6005, 944.5740
780.0826, 943.3478
780.5648, 940.8079
781.0469, 936.1476
781.5290, 940.3124
782.0111, 959.7073
782.4932, 970.0931
782.9753, 954.2522
783.4575, 932.5720
783.9396, 934.6343
784.4217, 961.1677
784.9038, 975.9371
785.3859, 966.8355
785.8680, 959.4946
786.3502, 959.0424
786.8323, 964.5166
787.3144, 981.4140
787.7965, 1003.502
788.2786, 1011.013
788.7607, 990.6848
789.2429, 970.2972
789.7250, 978.4933
790.2071, 999.0974
790.6892, 1006.208
791.1713, 1000.334
791.6534, 994.4913
792.1356, 994.2598
792.6177, 993.8516
793.0998, 982.8464
793.5819, 963.4526
794.0640, 959.2371
794.5461, 972.4349
795.0283, 987.3173
795.5104, 1000.967
795.9925, 1011.550
796.4746, 1016.779
796.9567, 1017.074
797.4388, 1016.810
797.9210, 1005.827
798.4031, 1009.183
798.8852, 1045.515
799.3673, 1079.081
799.8494, 1085.242
800.3315, 1075.040
800.8137, 1071.950
801.2958, 1082.664
801.7779, 1090.641
802.2600, 1083.749
802.7421, 1073.883
803.2242, 1071.922
803.7064, 1075.123
804.1885, 1076.789
804.6706, 1075.597
805.1527, 1075.746
805.6348, 1080.436
806.1169, 1089.261
806.5991, 1104.250
807.0812, 1123.848
807.5633, 1135.738
808.0454, 1137.731
808.5275, 1132.971
809.0096, 1122.187
809.4918, 1108.888
809.9739, 1101.617
810.4560, 1099.902
810.9381, 1106.721
811.4202, 1130.142
811.9023, 1148.941
812.3845, 1149.885
812.8666, 1145.381
813.3487, 1152.210
813.8308, 1170.363
814.3129, 1178.121
814.7950, 1159.392
815.2772, 1146.238
815.7593, 1157.106
816.2414, 1172.406
816.7235, 1171.862
817.2056, 1159.257
817.6877, 1151.912
818.1699, 1157.741
818.6520, 1167.189
819.1341, 1173.219
819.6162, 1177.083
820.0983, 1180.655
820.5804, 1183.875
821.0626, 1186.006
821.5447, 1186.792
822.0268, 1186.200
822.5089, 1183.539
822.9910, 1179.823
823.4731, 1180.885
823.9553, 1187.225
824.4374, 1186.485
824.9195, 1173.818
825.4016, 1162.788
825.8837, 1163.575
826.3658, 1173.843
826.8480, 1186.069
827.3301, 1202.171
827.8122, 1215.878
828.2943, 1229.923
828.7764, 1238.059
829.2585, 1233.459
829.7407, 1224.598
830.2228, 1221.212
830.7049, 1223.915
831.1870, 1228.571
831.6691, 1232.678
832.1512, 1240.411
832.6334, 1261.028
833.1155, 1280.722
833.5976, 1283.319
834.0797, 1271.849
834.5618, 1258.501
835.0439, 1246.598
835.5261, 1246.017
836.0082, 1276.305
836.4903, 1318.304
836.9724, 1338.888
837.4545, 1341.642
837.9366, 1347.859
838.4188, 1364.393
838.9009, 1379.309
839.3830, 1378.560
839.8651, 1367.313
840.3472, 1363.735
840.8293, 1367.854
841.3115, 1379.915
841.7936, 1401.903
842.2757, 1422.453
842.7578, 1433.999
843.2399, 1438.740
843.7220, 1441.655
844.2042, 1440.425
844.6863, 1445.494
845.1684, 1462.538
845.6505, 1477.406
846.1326, 1484.551
846.6147, 1487.929
847.0969, 1490.703
847.5790, 1493.009
848.0611, 1495.451
848.5432, 1495.940
849.0253, 1499.533
849.5074, 1508.399
849.9896, 1520.163
850.4717, 1537.453
850.9538, 1555.200
851.4359, 1561.427
851.9180, 1551.692
852.4001, 1543.287
852.8823, 1553.137
853.3644, 1565.267
853.8465, 1558.193
854.3286, 1541.634
854.8107, 1536.639
855.2928, 1546.673
855.7750, 1561.632
856.2571, 1575.184
856.7392, 1586.284
857.2213, 1591.873
857.7034, 1593.235
858.1855, 1596.343
858.6677, 1601.703
859.1498, 1606.095
859.6319, 1607.698
860.1140, 1610.422
860.5961, 1622.028
861.0782, 1641.606
861.5604, 1643.549
862.0425, 1622.349
862.5246, 1604.077
863.0067, 1590.990
863.4888, 1589.115
863.9709, 1608.723
864.4531, 1641.871
864.9352, 1659.148
865.4173, 1650.980
865.8994, 1646.970
866.3815, 1652.031
866.8636, 1655.184
867.3458, 1651.755
867.8279, 1644.982
868.3100, 1634.911
868.7921, 1622.918
869.2742, 1623.008
869.7563, 1652.819
870.2385, 1677.049
870.7206, 1678.543
871.2027, 1671.714
871.6848, 1666.015
872.1669, 1663.491
872.6490, 1665.473
873.1312, 1672.508
873.6133, 1681.792
874.0954, 1688.895
874.5775, 1699.211
875.0596, 1726.998
875.5417, 1760.382
876.0239, 1770.985
876.5060, 1756.904
876.9881, 1742.492
877.4702, 1744.281
877.9523, 1753.979
878.4344, 1758.521
878.9166, 1759.565
879.3987, 1763.687
879.8808, 1771.070
880.3629, 1778.902
880.8450, 1786.202
881.3271, 1790.135
881.8093, 1785.960
882.2914, 1775.918
882.7735, 1776.648
883.2556, 1790.955
883.7377, 1793.734
884.2198, 1777.765
884.7020, 1759.850
885.1841, 1749.362
885.6662, 1745.849
886.1483, 1749.413
886.6304, 1763.012
887.1125, 1770.202
887.5947, 1768.603
888.0768, 1764.358
888.5589, 1758.361
889.0410, 1750.930
889.5231, 1740.689
890.0052, 1728.930
890.4874, 1721.613
890.9695, 1721.984
891.4516, 1721.698
891.9337, 1717.090
892.4158, 1714.315
892.8979, 1722.841
893.3801, 1731.829
893.8622, 1723.600
894.3443, 1697.404
894.8264, 1675.214
895.3085, 1664.018
895.7906, 1661.287
896.2728, 1675.623
896.7549, 1690.142
897.2370, 1684.901
897.7191, 1664.607
898.2012, 1643.859
898.6833, 1627.827
899.1655, 1618.083
899.6476, 1625.006
900.1297, 1631.766
900.6118, 1611.586
901.0939, 1576.828
901.5760, 1552.125
902.0582, 1542.413
902.5403, 1545.354
903.0224, 1561.436
903.5045, 1577.329
903.9866, 1571.322
904.4688, 1549.461
904.9509, 1528.034
905.4330, 1508.640
905.9151, 1497.202
906.3972, 1495.575
906.8793, 1496.368
907.3615, 1492.542
907.8436, 1485.591
908.3257, 1482.339
908.8078, 1482.907
909.2899, 1470.397
909.7720, 1440.918
910.2542, 1414.983
910.7363, 1403.083
911.2184, 1398.318
911.7005, 1391.321
912.1826, 1382.083
912.6647, 1369.341
913.1469, 1348.108
913.6290, 1339.909
914.1111, 1353.444
914.5932, 1372.000
915.0753, 1390.753
915.5574, 1403.042
916.0396, 1390.941
916.5217, 1343.792
917.0038, 1312.226
917.4859, 1305.558
917.9680, 1301.357
918.4501, 1295.761
918.9323, 1289.496
919.4144, 1284.737
919.8965, 1279.910
920.3786, 1268.542
920.8607, 1244.046
921.3428, 1226.541
921.8250, 1224.051
922.3071, 1223.184
922.7892, 1219.269
923.2713, 1212.602
923.7534, 1202.362
924.2355, 1189.499
924.7177, 1180.049
925.1998, 1180.755
925.6819, 1176.920
926.1640, 1157.272
926.6461, 1135.735
927.1282, 1121.277
927.6104, 1113.956
928.0925, 1113.113
928.5746, 1118.187
929.0567, 1125.431
929.5388, 1140.557
930.0209, 1148.067
930.5031, 1129.764
930.9852, 1101.646
931.4673, 1082.163
931.9494, 1071.464
932.4315, 1062.748
932.9136, 1053.482
933.3958, 1047.296
933.8779, 1050.314
934.3600, 1055.760
934.8421, 1056.770
935.3242, 1052.835
935.8063, 1039.504
936.2885, 1019.366
936.7706, 1005.872
937.2527, 1006.545
937.7348, 1010.663
938.2169, 1004.430
938.6990, 992.1755
939.1812, 983.2593
939.6633, 977.4127
940.1454, 973.8578
940.6275, 971.8644
941.1096, 966.1506
941.5917, 951.9951
942.0739, 937.3020
942.5560, 940.8809
943.0381, 957.3461
943.5202, 954.3362
944.0023, 932.6615
944.4844, 922.9266
944.9666, 934.8634
945.4487, 948.5252
945.9308, 945.9083
946.4129, 931.9373
946.8950, 918.8591
947.3771, 906.6766
947.8593, 898.9125
948.3414, 895.9409
948.8235, 897.0097
949.3056, 903.2508
949.7877, 905.5826
950.2698, 891.5013
950.7520, 866.3256
951.2341, 860.5811
951.7162, 878.1869
952.1983, 890.4097
952.6804, 895.1411
953.1625, 890.5186
953.6447, 871.0732
954.1268, 851.9271
954.6089, 856.1555
955.0910, 882.0057
955.5731, 889.5457
956.0552, 870.5120
956.5374, 859.3213
957.0195, 865.0515
957.5016, 867.9923
957.9837, 853.2244
958.4658, 834.2235
958.9479, 834.8429
959.4301, 857.1796
959.9122, 869.1761
960.3943, 867.6265
960.8764, 861.9408
961.3585, 851.1531
961.8406, 839.7117
962.3228, 830.4427
962.8049, 822.2704
963.2870, 811.4084
963.7691, 794.9382
964.2512, 791.5096
964.7333, 811.3690
965.2155, 829.3802
965.6976, 844.8704
966.1797, 853.8857
966.6618, 851.2084
967.1439, 840.8429
967.6260, 831.4244
968.1082, 822.8462
968.5903, 816.4985
969.0724, 810.6143
969.5545, 809.3844
970.0366, 820.7508
970.5187, 830.8978
971.0009, 828.0670
971.4830, 815.8441
971.9651, 803.7314
972.4472, 791.3056
972.9293, 783.6371
973.4114, 785.1538
973.8936, 786.6602
974.3757, 782.1187
974.8578, 778.5656
975.3399, 783.5910
975.8220, 794.8961
976.3041, 805.3702
976.7863, 816.2068
977.2684, 818.4141
977.7505, 799.3000
978.2326, 784.1286
978.7147, 790.5189
979.1968, 801.0734
979.6790, 794.0837
980.1611, 775.3501
980.6432, 770.9052
981.1253, 792.8058
981.6074, 808.7209
982.0895, 804.4355
982.5717, 797.2518
983.0538, 795.9163
983.5359, 796.4028
984.0180, 794.7918
984.5001, 790.4846
984.9822, 782.6356
985.4644, 768.1810
985.9465, 758.6855
986.4286, 762.4860
986.9107, 767.6550
987.3928, 768.9629
987.8749, 766.5544
988.3571, 757.9935
988.8392, 745.9465
989.3213, 740.4724
989.8034, 746.0153
990.2855, 754.1134
990.7676, 766.7255
991.2498, 774.8397
991.7319, 770.1602
992.2140, 759.2877
992.6961, 747.9410
993.1782, 738.3110
993.6603, 733.9147
994.1425, 735.8862
994.6246, 743.3395
995.1067, 764.5726
995.5888, 781.8453
996.0709, 781.9745
996.5530, 771.6403
997.0352, 754.9494
997.5173, 736.2212
997.9994, 728.0027
998.4815, 737.8769
998.9636, 748.5916
999.4457, 755.3854
999.9279, 756.8668
1000.410, 746.9100
1000.892, 734.3474
1001.374, 730.9330
1001.856, 736.0592
1002.338, 741.1849
1002.821, 744.5280
1003.303, 743.9334
1003.785, 732.4016
1004.267, 723.0600
1004.749, 729.4481
1005.231, 740.4836
1005.713, 739.0003
1006.195, 727.7073
1006.677, 725.6921
1007.160, 742.9261
1007.642, 757.6479
1008.124, 761.4354
1008.606, 757.8032
1009.088, 743.2015
1009.570, 726.4120
1010.052, 716.1995
1010.534, 713.6110
1011.017, 718.6702
1011.499, 735.0828
1011.981, 745.3274
1012.463, 738.5216
1012.945, 727.1802
1013.427, 714.1151
1013.909, 704.1857
1014.391, 703.9072
1014.873, 711.4205
1015.356, 719.6600
1015.838, 727.6448
1016.320, 732.0433
1016.802, 727.1841
1017.284, 723.5909
1017.766, 729.4200
1018.248, 737.4727
1018.730, 740.4360
1019.213, 738.8584
1019.695, 736.5922
1020.177, 734.4572
1020.659, 732.0002
1021.141, 726.9780
1021.623, 724.1893
1022.105, 729.4327
1022.587, 734.8530
1023.069, 730.9086
1023.552, 721.5493
1024.034, 718.9346
1024.516, 726.9849
1024.998, 730.5261
1025.480, 724.8232
1025.962, 715.0107
1026.444, 695.2336
1026.926, 679.2333
1027.409, 681.0865
1027.891, 694.2629
1028.373, 704.8635
1028.855, 711.3172
1029.337, 713.1318
1029.819, 703.4323
1030.301, 698.4935
1030.783, 709.2315
1031.266, 719.5271
1031.748, 715.1801
1032.230, 704.1006
1032.712, 702.2017
1033.194, 711.6058
1033.676, 715.6284
1034.158, 706.0192
1034.640, 700.5522
1035.122, 703.0069
1035.604, 709.3116
1036.087, 721.1006
1036.569, 733.3201
1037.051, 738.2507
1037.533, 735.6466
1038.015, 731.4754
1038.497, 724.0198
1038.979, 717.9459
1039.461, 715.3494
1039.944, 711.5880
1040.426, 699.9282
1040.908, 690.2745
1041.390, 699.0514
1041.872, 723.2953
1042.354, 728.9796
1042.836, 702.5448
1043.318, 687.4098
1043.800, 688.1500
1044.283, 694.9279
1044.765, 708.4175
1045.247, 720.5760
1045.729, 723.2322
1046.211, 717.6586
1046.693, 709.2233
1047.175, 695.8002
1047.657, 686.1838
1048.140, 679.5547
1048.622, 680.0321
1049.104, 690.9525
1049.586, 703.3566
1050.068, 697.4799
1050.550, 708.9486
1051.032, 715.1838
1051.514, 716.4665
1051.996, 697.9641
1052.479, 705.0092
1052.961, 701.8164
1053.443, 698.2040
1053.925, 711.4857
1054.407, 709.7842
1054.889, 706.6863
1055.371, 719.2479
1055.853, 744.7042
1056.335, 748.3698
1056.818, 730.3464
1057.300, 710.9429
1057.782, 693.5474
1058.264, 680.4404
1058.746, 672.6420
1059.228, 672.1351
1059.710, 684.0392
1060.192, 703.3305
1060.675, 713.4442
1061.157, 715.3226
1061.639, 710.8499
1062.121, 701.9692
1062.603, 703.0795
1063.085, 719.1559
1063.567, 732.3156
1064.049, 723.4710
1064.531, 704.7023
1065.014, 698.5600
1065.496, 699.7525
1065.978, 694.0701
1066.460, 683.4295
1066.942, 679.8610
1067.424, 685.2213
1067.906, 686.5377
1068.388, 672.2531
1068.870, 660.7294
1069.353, 679.4133
1069.835, 708.6062
1070.317, 724.1677
1070.799, 727.2568
1071.281, 720.0123
1071.763, 705.7816
1072.245, 691.7985
1072.727, 680.0146
1073.210, 678.2383
1073.692, 703.9404
1074.174, 729.2730
1074.656, 726.5209
1075.138, 713.0779
1075.620, 711.3135
1076.102, 718.4885
1076.584, 721.2834
1077.067, 716.2457
1077.549, 705.0139
1078.031, 677.5940
1078.513, 658.3139
1078.995, 658.8815
1079.477, 671.1105
1079.959, 701.5104
1080.441, 732.8046
1080.923, 733.4443
1081.406, 701.9359
1081.888, 680.4231
1082.370, 682.2638
1082.852, 685.5236
1083.334, 686.1649
1083.816, 688.4994
1084.298, 695.7379
1084.780, 704.7104
1085.262, 715.0338
1085.745, 724.4913
1086.227, 721.1891
1086.709, 696.3781
1087.191, 682.7224
1087.673, 687.8568
1088.155, 688.1788
1088.637, 673.6106
1089.119, 660.3666
1089.602, 661.5651
1090.084, 670.5302
1090.566, 671.8771
1091.048, 665.0206
1091.530, 669.7114
1092.012, 689.6501
1092.494, 695.0228
1092.976, 678.6046
1093.458, 663.9574
1093.941, 663.2123
1094.423, 668.1752
1094.905, 667.9437
1095.387, 665.3313
1095.869, 671.3295
1096.351, 684.9529
1096.833, 702.7456
1097.315, 722.2872
1097.797, 723.4716
1098.280, 700.9114
1098.762, 674.6567
1099.244, 659.8079
1099.726, 653.5853
1100.208, 652.3478
1100.690, 656.3000
1101.172, 671.3495
1101.654, 690.4824
1102.137, 694.5025
1102.619, 683.1681
1103.101, 670.4974
1103.583, 662.7841
1104.065, 660.6776
1104.547, 664.6827
1105.029, 674.6147
1105.511, 699.8034
1105.994, 723.5921
1106.476, 720.8824
1106.958, 701.5005
1107.440, 690.9503
1107.922, 694.3456
1108.404, 696.5627
1108.886, 685.0159
1109.368, 680.9503
1109.850, 704.3362
1110.333, 724.0474
1110.815, 714.6948
1111.297, 695.2200
1111.779, 691.3215
1112.261, 700.2740
1112.743, 699.0828
1113.225, 676.7664
1113.707, 667.0402
1114.189, 683.9666
1114.672, 692.1826
1115.154, 674.5134
1115.636, 659.7177
1116.118, 670.7300
1116.600, 693.5055
1117.082, 701.8247
1117.564, 695.6165
1118.046, 687.9199
1118.529, 677.0513
1119.011, 675.8564
1119.493, 687.7761
1119.975, 696.8221
1120.457, 696.4045
1120.939, 688.8100
1121.421, 674.3155
1121.903, 659.4678
1122.385, 666.1060
1122.868, 688.4160
1123.350, 695.6606
1123.832, 688.7056
1124.314, 677.1391
1124.796, 664.8884
1125.278, 662.2125
1125.760, 675.5717
1126.242, 689.8408
1126.724, 683.4077
1127.207, 671.6326
1127.689, 679.7792
1128.171, 694.9117
1128.653, 693.8348
1129.135, 681.2175
1129.617, 676.4355
1130.099, 683.6813
1130.581, 688.7402
1131.064, 682.9644
1131.546, 676.0138
1132.028, 670.9138
1132.510, 668.5410
1132.992, 670.9814
1133.474, 675.3804
1133.956, 680.2202
1134.438, 683.9795
1134.921, 681.1723
1135.403, 667.1292
1135.885, 660.3657
1136.367, 667.7042
1136.849, 674.5607
1137.331, 677.7960
1137.813, 681.2563
1138.295, 688.8762
1138.777, 695.8370
1139.260, 694.4948
1139.742, 685.7781
1140.224, 677.4560
1140.706, 668.6369
1141.188, 668.9669
1141.670, 680.3893
1142.152, 685.3680
1142.634, 678.0392
1143.116, 666.8392
1143.599, 657.5671
1144.081, 652.1241
1144.563, 654.2385
1145.045, 662.6696
1145.527, 678.5850
1146.009, 696.6862
1146.491, 697.4554
1146.973, 683.1571
1147.456, 673.7133
1147.938, 676.5253
1148.420, 683.4598
1148.902, 690.5725
1149.384, 695.8340
1149.866, 696.6210
1150.348, 695.3819
1150.830, 693.4595
1151.313, 691.8317
1151.795, 692.4976
1152.277, 694.6490
1152.759, 694.0078
1153.241, 688.4489
1153.723, 684.4786
1154.205, 684.4942
1154.687, 684.9852
1155.169, 691.8455
1155.651, 690.6867
1156.134, 660.0234
1156.616, 626.9683
1157.098, 637.3669
1157.580, 685.4126
1158.062, 698.6522
1158.544, 664.5256
1159.026, 656.0932
1159.508, 682.3687
1159.991, 701.0706
1160.473, 698.9910
1160.955, 691.9841
1161.437, 691.4160
1161.919, 693.4273
1162.401, 690.3383
1162.883, 684.8875
1163.365, 688.2841
1163.848, 696.9533
1164.330, 699.7960
1164.812, 696.0915
1165.294, 686.6111
1165.776, 673.1273
1166.258, 668.3980
1166.740, 686.5668
1167.222, 701.5836
1167.704, 684.5889
1168.187, 662.5585
1168.669, 658.0582
1169.151, 664.1414
1169.633, 675.8639
1170.115, 687.9846
1170.597, 687.9812
1171.079, 671.4660
1171.561, 661.5877
1172.043, 667.0525
1172.526, 672.0200
1173.008, 676.0037
1173.490, 676.1705
1173.972, 669.2927
1174.454, 660.8303
1174.936, 656.5004
1175.418, 655.1656
1175.900, 652.0367
1176.383, 646.4446
1176.865, 650.8422
1177.347, 665.6151
1177.829, 671.6555
1178.311, 665.7240
1178.793, 664.8350
1179.275, 677.3273
1179.757, 688.1028
1180.240, 678.9534
1180.722, 662.6588
1181.204, 657.7329
1181.686, 661.5931
1182.168, 675.9261
1182.650, 693.0052
1183.132, 696.2128
1183.614, 686.3470
1184.096, 678.4588
1184.578, 678.3394
1185.061, 678.0567
1185.543, 668.3737
1186.025, 665.4282
1186.507, 686.2015
1186.989, 705.2102
1187.471, 699.6592
1187.953, 684.8594
1188.435, 684.9896
1188.918, 696.7726
1189.400, 698.6360
1189.882, 686.3018
1190.364, 679.6394
1190.846, 680.2079
1191.328, 678.2849
1191.810, 670.5086
1192.292, 670.4884
1192.775, 687.2676
1193.257, 704.6135
1193.739, 700.1642
1194.221, 684.4891
1194.703, 684.2341
1195.185, 693.4666
1195.667, 698.1825
1196.149, 697.5641
1196.631, 690.2835
1197.114, 678.6389
1197.596, 673.0901
1198.078, 678.8483
1198.560, 684.7196
1199.042, 681.2195
1199.524, 679.0432
1200.006, 687.9432
1200.488, 696.8102
1200.970, 697.1192
1201.453, 691.5978
1201.935, 683.3113
1202.417, 673.2415
1202.899, 665.9211
1203.381, 659.8661
1203.863, 663.0803
1204.345, 681.9734
1204.827, 687.2955
1205.310, 669.3193
1205.792, 655.6998
1206.274, 661.8707
1206.756, 675.0720
1207.238, 680.9271
1207.720, 681.1423
1208.202, 678.2425
1208.684, 673.8364
1209.167, 674.6129
1209.649, 677.6531
1210.131, 670.9964
1210.613, 656.3862
1211.095, 650.4846
1211.577, 660.0458
1212.059, 670.0302
1212.541, 673.0084
1213.023, 671.4825
1213.505, 662.1290
1213.988, 653.8864
1214.470, 651.8865
1214.952, 655.3783
1215.434, 666.4820
1215.916, 681.7346
1216.398, 689.5126
1216.880, 689.6071
1217.362, 681.3857
1217.845, 659.9598
1218.327, 652.8298
1218.809, 666.1986
1219.291, 676.9948
1219.773, 675.6422
1220.255, 669.2517
##END=



