##NAMES=Genthelvite
##RRUFFID=R080134
##IDEAL CHEMISTRY=Be_3_Zn^2+^_4_(SiO_4_)_3_S^2-^
##LOCALITY=Rockport, Essex County, Massachusetts, USA
##OWNER=RRUFF
##SOURCE=James Shigley
##DESCRIPTION=Massive pink, exhibiting greasy luster, associated with albite
##STATUS=The identification of this mineral has been confirmed only by single crystal X-ray diffraction.
##URL=rruff.info/R080134
93.30109, 0.0000000E+00
93.78320, 181.2633
94.26532, 181.7202
94.74744, 182.3470
95.22955, 182.6876
95.71167, 183.1981
96.19379, 183.6272
96.67590, 184.4417
97.15802, 185.0171
97.64014, 185.2326
98.12225, 185.1620
98.60437, 184.9893
99.08649, 184.9142
99.56860, 184.6830
100.0507, 183.8855
100.5328, 182.1375
101.0150, 180.2217
101.4971, 178.5919
101.9792, 177.2247
102.4613, 176.3708
102.9434, 176.6667
103.4255, 177.2191
103.9077, 177.3010
104.3898, 176.5969
104.8719, 175.6112
105.3540, 175.4395
105.8361, 176.7131
106.3182, 177.7007
106.8004, 177.8585
107.2825, 177.5925
107.7646, 177.3814
108.2467, 177.5238
108.7288, 177.9743
109.2109, 178.1683
109.6931, 177.6472
110.1752, 177.3214
110.6573, 177.4996
111.1394, 178.0932
111.6215, 178.8296
112.1036, 179.4844
112.5858, 180.0499
113.0679, 180.5265
113.5500, 180.9089
114.0321, 181.2131
114.5142, 181.2816
114.9964, 181.0920
115.4785, 181.1363
115.9606, 182.2341
116.4427, 184.3154
116.9248, 186.1100
117.4069, 187.1977
117.8891, 187.8037
118.3712, 188.3555
118.8533, 188.8216
119.3354, 189.4369
119.8175, 190.5704
120.2996, 192.1654
120.7818, 193.5320
121.2639, 193.9782
121.7460, 193.4597
122.2281, 193.2330
122.7102, 193.8314
123.1923, 194.5891
123.6745, 195.1155
124.1566, 195.3595
124.6387, 195.6056
125.1208, 196.2987
125.6029, 197.6800
126.0850, 199.0227
126.5672, 200.3453
127.0493, 201.5734
127.5314, 202.7278
128.0135, 203.8117
128.4956, 204.6753
128.9777, 204.9018
129.4599, 203.9697
129.9420, 202.9136
130.4241, 201.8394
130.9062, 200.6784
131.3883, 199.2273
131.8704, 197.2957
132.3526, 195.0767
132.8347, 193.6469
133.3168, 193.2377
133.7989, 193.1677
134.2810, 193.0846
134.7632, 193.0546
135.2453, 193.4686
135.7274, 194.7991
136.2095, 196.7742
136.6916, 198.3248
137.1737, 199.5102
137.6559, 200.1875
138.1380, 200.2275
138.6201, 199.6207
139.1022, 198.3948
139.5843, 196.1220
140.0664, 193.2931
140.5486, 190.5802
141.0307, 188.1551
141.5128, 186.0453
141.9949, 184.3400
142.4770, 182.9165
142.9591, 182.1828
143.4413, 182.3302
143.9234, 183.1726
144.4055, 184.3897
144.8876, 185.7914
145.3697, 187.3747
145.8518, 189.0799
146.3340, 190.9454
146.8161, 192.9074
147.2982, 194.9069
147.7803, 196.9794
148.2624, 199.2194
148.7445, 201.7576
149.2267, 204.6529
149.7088, 207.5437
150.1909, 210.2135
150.6730, 213.0381
151.1551, 216.3229
151.6372, 220.0702
152.1194, 223.9532
152.6015, 227.6217
153.0836, 231.0191
153.5657, 234.1934
154.0478, 237.0159
154.5299, 239.6812
155.0121, 242.3652
155.4942, 245.1087
155.9763, 247.8640
156.4584, 250.6107
156.9405, 253.3956
157.4226, 255.8961
157.9048, 257.7281
158.3869, 259.2243
158.8690, 261.1067
159.3511, 263.6555
159.8332, 266.5422
160.3153, 269.3700
160.7975, 272.1370
161.2796, 274.8958
161.7617, 277.6531
162.2438, 280.4292
162.7259, 283.2813
163.2081, 286.4864
163.6902, 289.5597
164.1723, 292.0407
164.6544, 293.9125
165.1365, 295.6239
165.6186, 297.6880
166.1008, 300.1774
166.5829, 302.6636
167.0650, 305.0313
167.5471, 307.4015
168.0292, 309.8755
168.5113, 312.4703
168.9935, 315.0472
169.4756, 317.3995
169.9577, 319.6100
170.4398, 321.3905
170.9219, 323.1892
171.4040, 324.3978
171.8862, 324.8601
172.3683, 324.4540
172.8504, 322.6485
173.3325, 318.1232
173.8146, 309.4819
174.2967, 299.3624
174.7789, 286.9324
175.2610, 273.3561
175.7431, 259.8339
176.2252, 246.7508
176.7073, 234.2815
177.1894, 223.1474
177.6716, 213.1144
178.1537, 204.4201
178.6358, 197.2475
179.1179, 191.4173
179.6000, 186.5585
180.0821, 182.6178
180.5643, 179.4551
181.0464, 176.6092
181.5285, 174.2816
182.0106, 171.8819
182.4927, 169.0655
182.9748, 165.9097
183.4570, 162.7561
183.9391, 159.7560
184.4212, 156.8737
184.9033, 154.0150
185.3854, 151.1242
185.8675, 148.3469
186.3497, 145.7751
186.8318, 143.4079
187.3139, 141.2635
187.7960, 139.1987
188.2781, 137.4671
188.7602, 136.4543
189.2424, 136.3866
189.7245, 136.7068
190.2066, 136.6383
190.6887, 136.0069
191.1708, 135.6289
191.6530, 136.1627
192.1351, 136.9028
192.6172, 137.1518
193.0993, 136.5906
193.5814, 135.7200
194.0635, 135.5972
194.5457, 136.6392
195.0278, 137.6272
195.5099, 138.4224
195.9920, 138.9916
196.4741, 139.2555
196.9562, 139.1679
197.4384, 138.8465
197.9205, 138.6538
198.4026, 138.9734
198.8847, 138.8614
199.3668, 138.1777
199.8489, 137.0447
200.3311, 135.5498
200.8132, 133.7299
201.2953, 131.6551
201.7774, 129.6247
202.2595, 127.6550
202.7416, 125.7089
203.2238, 123.7221
203.7059, 121.7616
204.1880, 119.8438
204.6701, 117.9672
205.1522, 116.2136
205.6343, 114.9936
206.1165, 114.7596
206.5986, 114.4608
207.0807, 113.7584
207.5628, 112.8437
208.0449, 112.0832
208.5270, 111.6763
209.0092, 111.5522
209.4913, 111.4324
209.9734, 111.4001
210.4555, 111.2780
210.9376, 110.8434
211.4197, 110.2437
211.9019, 109.9227
212.3840, 110.1909
212.8661, 110.8156
213.3482, 111.1216
213.8303, 110.9714
214.3124, 110.7553
214.7946, 110.6906
215.2767, 110.7505
215.7588, 110.7898
216.2409, 110.7433
216.7230, 110.6361
217.2052, 110.4826
217.6873, 110.1794
218.1694, 110.0566
218.6515, 110.4892
219.1336, 111.4554
219.6157, 112.3194
220.0979, 112.7741
220.5800, 113.0479
221.0621, 113.4372
221.5442, 114.0224
222.0263, 114.5194
222.5084, 114.5455
222.9906, 114.0422
223.4727, 113.7079
223.9548, 113.7468
224.4369, 114.0658
224.9190, 114.7014
225.4011, 115.6796
225.8833, 116.7108
226.3654, 117.4172
226.8475, 117.7061
227.3296, 118.1024
227.8117, 118.8727
228.2938, 119.6828
228.7760, 120.2623
229.2581, 120.5720
229.7402, 120.8671
230.2223, 121.5754
230.7044, 122.9471
231.1865, 123.9277
231.6687, 123.8854
232.1508, 123.8111
232.6329, 124.3960
233.1150, 125.7356
233.5971, 127.3429
234.0792, 128.5306
234.5614, 129.1012
235.0435, 129.7268
235.5256, 130.2371
236.0077, 130.9290
236.4898, 132.0910
236.9719, 133.7161
237.4541, 135.4959
237.9362, 137.0392
238.4183, 138.3628
238.9004, 139.3365
239.3825, 139.8488
239.8646, 140.1620
240.3468, 140.5605
240.8289, 141.0199
241.3110, 141.1732
241.7931, 140.5260
242.2752, 138.7615
242.7573, 137.0330
243.2395, 135.1325
243.7216, 133.4138
244.2037, 132.2313
244.6858, 131.5627
245.1679, 130.9860
245.6501, 130.0278
246.1322, 128.5694
246.6143, 127.1628
247.0964, 125.9334
247.5785, 124.6523
248.0606, 123.0663
248.5428, 121.2084
249.0249, 119.4128
249.5070, 118.0443
249.9891, 117.1885
250.4712, 116.0946
250.9533, 114.2919
251.4355, 112.6246
251.9176, 111.8025
252.3997, 111.7884
252.8818, 111.8604
253.3639, 111.4039
253.8460, 110.3985
254.3282, 109.5891
254.8103, 109.0609
255.2924, 108.6536
255.7745, 108.2544
256.2566, 107.8670
256.7387, 107.5883
257.2209, 107.5294
257.7030, 107.6522
258.1851, 107.6572
258.6672, 107.4468
259.1493, 107.1975
259.6314, 107.0184
260.1136, 106.9069
260.5957, 106.8259
261.0778, 106.7418
261.5599, 106.6816
262.0420, 106.7061
262.5241, 106.8931
263.0063, 107.0729
263.4884, 107.1277
263.9705, 107.0657
264.4526, 106.9420
264.9347, 106.6975
265.4168, 106.4697
265.8990, 106.5149
266.3811, 106.9578
266.8632, 107.4107
267.3453, 107.5640
267.8274, 107.4554
268.3095, 107.3799
268.7917, 107.4502
269.2738, 107.6011
269.7559, 107.7436
270.2380, 107.8795
270.7201, 107.9940
271.2022, 108.0332
271.6844, 108.0195
272.1665, 108.1128
272.6486, 108.3832
273.1307, 108.7535
273.6128, 109.1044
274.0949, 109.4392
274.5771, 109.8806
275.0592, 110.5655
275.5413, 111.4532
276.0234, 112.2963
276.5055, 113.0509
276.9876, 113.7635
277.4698, 114.4219
277.9519, 115.0519
278.4340, 115.7912
278.9161, 116.8199
279.3982, 118.0521
279.8803, 119.0920
280.3625, 119.7555
280.8446, 120.4747
281.3267, 121.5064
281.8088, 122.7762
282.2909, 124.1267
282.7730, 125.4680
283.2552, 126.8206
283.7373, 128.2548
284.2194, 129.7858
284.7015, 131.3748
285.1836, 133.1256
285.6658, 134.9037
286.1479, 136.4920
286.6300, 137.7163
287.1121, 138.7546
287.5942, 140.0263
288.0764, 141.6429
288.5585, 143.2349
289.0406, 144.7929
289.5227, 146.2105
290.0048, 147.3213
290.4869, 148.0502
290.9691, 148.5560
291.4512, 149.1051
291.9333, 149.7142
292.4154, 150.3147
292.8975, 151.1061
293.3796, 151.7597
293.8618, 151.9255
294.3439, 151.5168
294.8260, 150.9140
295.3081, 150.6004
295.7902, 150.6266
296.2723, 150.7026
296.7545, 150.9356
297.2366, 151.0949
297.7187, 150.9744
298.2008, 150.5865
298.6829, 150.1827
299.1650, 150.0789
299.6472, 150.3246
300.1293, 150.3912
300.6114, 150.2390
301.0935, 149.8875
301.5756, 149.1734
302.0577, 148.2239
302.5399, 147.4068
303.0220, 147.0675
303.5041, 147.1831
303.9862, 147.2277
304.4683, 147.1469
304.9504, 147.0545
305.4326, 147.0513
305.9147, 147.0650
306.3968, 146.9709
306.8789, 146.7071
307.3610, 146.2711
307.8431, 145.6524
308.3253, 144.8314
308.8074, 143.8333
309.2895, 142.6677
309.7716, 141.3572
310.2537, 139.9297
310.7358, 138.3851
311.2180, 136.7537
311.7001, 135.0940
312.1822, 133.3112
312.6643, 131.6866
313.1464, 130.3373
313.6285, 129.0998
314.1107, 127.7912
314.5928, 126.3706
315.0749, 125.0255
315.5570, 124.0581
316.0391, 123.5615
316.5212, 123.1076
317.0034, 122.6835
317.4855, 122.2641
317.9676, 121.7862
318.4497, 121.2736
318.9318, 120.8589
319.4139, 120.7092
319.8961, 120.8544
320.3782, 120.9720
320.8603, 121.0390
321.3424, 121.0989
321.8245, 121.1894
322.3066, 121.2890
322.7888, 121.3475
323.2709, 121.3337
323.7530, 121.2474
324.2351, 121.1115
324.7172, 121.1115
325.1993, 120.7649
325.6815, 119.8760
326.1636, 118.6060
326.6457, 117.1326
327.1278, 115.5131
327.6099, 113.8324
328.0920, 112.2620
328.5742, 110.7423
329.0563, 109.4784
329.5384, 108.5899
330.0205, 107.8997
330.5026, 107.3270
330.9847, 106.8431
331.4669, 106.3086
331.9490, 105.4220
332.4311, 104.0144
332.9132, 103.0001
333.3953, 102.9056
333.8774, 102.9608
334.3596, 102.7356
334.8417, 102.2217
335.3238, 101.7157
335.8059, 101.5008
336.2880, 101.5799
336.7701, 101.7056
337.2523, 101.9727
337.7344, 102.1705
338.2165, 102.2265
338.6986, 102.1453
339.1807, 101.9447
339.6628, 101.6141
340.1450, 101.1768
340.6271, 100.6821
341.1092, 99.99720
341.5913, 99.52583
342.0735, 99.64317
342.5556, 99.95736
343.0377, 99.93674
343.5198, 99.30904
344.0019, 98.49961
344.4840, 98.23006
344.9662, 98.61651
345.4483, 99.02139
345.9304, 99.43671
346.4125, 99.68654
346.8946, 99.54386
347.3767, 98.97756
347.8589, 98.34897
348.3410, 97.97434
348.8231, 97.84924
349.3052, 97.88211
349.7873, 98.27396
350.2694, 98.57195
350.7516, 98.35365
351.2337, 97.74065
351.7158, 97.26043
352.1979, 97.36385
352.6800, 97.85133
353.1621, 98.04005
353.6443, 97.81104
354.1264, 97.52871
354.6085, 97.35332
355.0906, 97.27570
355.5727, 97.32014
356.0548, 97.59537
356.5370, 97.87549
357.0191, 97.78735
357.5012, 97.29081
357.9833, 96.88546
358.4654, 96.83485
358.9475, 96.95551
359.4297, 97.00628
359.9118, 96.93678
360.3939, 96.94087
360.8760, 97.30978
361.3581, 97.93006
361.8402, 98.18803
362.3224, 97.80289
362.8045, 97.22768
363.2866, 96.90730
363.7687, 96.82053
364.2508, 96.84004
364.7329, 96.97839
365.2151, 97.17180
365.6972, 97.31345
366.1793, 97.39068
366.6614, 97.44169
367.1435, 97.49471
367.6256, 97.54351
368.1078, 97.56924
368.5899, 97.60066
369.0720, 97.58267
369.5541, 97.47092
370.0362, 97.26952
370.5183, 96.99837
371.0005, 96.65149
371.4826, 96.25232
371.9647, 95.82111
372.4468, 95.25771
372.9289, 94.90820
373.4110, 95.02962
373.8932, 95.43428
374.3753, 95.83910
374.8574, 96.19599
375.3395, 96.37272
375.8216, 96.07262
376.3037, 95.19959
376.7859, 94.74680
377.2680, 95.18813
377.7501, 95.82778
378.2322, 96.10126
378.7143, 95.97736
379.1964, 95.65593
379.6786, 95.22290
380.1607, 94.71230
380.6428, 94.46706
381.1249, 94.71848
381.6070, 94.93999
382.0891, 94.93315
382.5713, 94.76733
383.0534, 94.54965
383.5355, 94.31496
384.0176, 94.12973
384.4997, 94.14721
384.9818, 94.63392
385.4640, 94.88570
385.9461, 94.80195
386.4282, 94.53059
386.9103, 94.10165
387.3924, 93.57053
387.8745, 93.12356
388.3567, 92.97873
388.8388, 93.18269
389.3209, 93.35937
389.8030, 93.60127
390.2851, 93.72981
390.7672, 93.58733
391.2494, 93.28497
391.7315, 93.04470
392.2136, 93.00001
392.6957, 93.10034
393.1778, 93.14834
393.6599, 93.02644
394.1421, 93.02480
394.6242, 93.40224
395.1063, 93.77103
395.5884, 93.64272
396.0706, 92.95528
396.5527, 92.23219
397.0348, 92.23650
397.5169, 93.21217
397.9990, 93.93977
398.4811, 94.33762
398.9633, 94.54362
399.4454, 94.51321
399.9275, 94.32494
400.4096, 94.15060
400.8917, 94.12704
401.3738, 94.19975
401.8560, 94.11486
402.3381, 93.75892
402.8202, 93.46241
403.3023, 93.32565
403.7844, 93.28978
404.2665, 93.30608
404.7487, 93.36248
405.2308, 93.44600
405.7129, 93.55494
406.1950, 93.69365
406.6771, 93.79317
407.1592, 93.81358
407.6414, 93.81839
408.1235, 93.84742
408.6056, 93.90057
409.0877, 93.97059
409.5698, 94.10464
410.0519, 94.24468
410.5341, 94.21392
411.0162, 93.95188
411.4983, 93.73705
411.9804, 93.80736
412.4625, 94.02148
412.9446, 94.14652
413.4268, 94.11977
413.9089, 94.04037
414.3910, 93.92801
414.8731, 93.81071
415.3552, 93.85265
415.8373, 94.16824
416.3195, 94.56123
416.8016, 94.76197
417.2837, 94.78683
417.7658, 94.66070
418.2479, 94.31445
418.7300, 93.86087
419.2122, 93.37626
419.6943, 92.87884
420.1764, 92.49207
420.6585, 92.34383
421.1406, 92.41022
421.6227, 92.38512
422.1049, 92.15869
422.5870, 91.96920
423.0691, 91.95121
423.5512, 92.02818
424.0333, 92.05241
424.5154, 91.96329
424.9976, 91.82169
425.4797, 91.73977
425.9618, 91.73461
426.4439, 91.76619
426.9260, 91.93793
427.4081, 92.06743
427.8903, 91.97959
428.3724, 91.70521
428.8545, 91.42683
429.3366, 91.28770
429.8187, 91.28568
430.3008, 91.37080
430.7830, 91.55373
431.2651, 91.82628
431.7472, 92.27624
432.2293, 92.78220
432.7114, 93.23611
433.1935, 93.59242
433.6757, 93.79161
434.1578, 93.61382
434.6399, 92.79848
435.1220, 92.52807
435.6041, 93.50689
436.0862, 94.53352
436.5684, 95.01260
437.0505, 95.01968
437.5326, 94.96370
438.0147, 95.08874
438.4968, 95.37288
438.9789, 95.76255
439.4611, 96.30868
439.9432, 96.83041
440.4253, 97.30220
440.9074, 97.69265
441.3895, 97.91821
441.8716, 97.93156
442.3538, 97.96257
442.8359, 98.29796
443.3180, 98.86887
443.8001, 99.25883
444.2822, 99.41370
444.7643, 99.32373
445.2465, 98.92928
445.7286, 98.27534
446.2107, 97.50381
446.6928, 96.73385
447.1749, 95.80926
447.6570, 94.38618
448.1392, 92.54499
448.6213, 90.98524
449.1034, 90.08895
449.5855, 89.72047
450.0677, 89.55801
450.5498, 89.81399
451.0319, 89.80197
451.5140, 89.10010
451.9961, 88.14871
452.4782, 87.46425
452.9604, 87.14773
453.4425, 87.05379
453.9246, 87.05932
454.4067, 87.17972
454.8888, 87.23571
455.3709, 87.24515
455.8531, 87.18494
456.3352, 86.95298
456.8173, 86.66541
457.2994, 86.54699
457.7815, 86.70415
458.2636, 86.96445
458.7458, 86.94299
459.2279, 86.43577
459.7100, 86.07126
460.1921, 85.93830
460.6742, 85.87350
461.1563, 85.77485
461.6385, 85.65186
462.1206, 85.57982
462.6027, 85.61577
463.0848, 85.75005
463.5669, 85.97515
464.0490, 86.44719
464.5312, 86.67885
465.0133, 86.31798
465.4954, 85.74654
465.9775, 85.33292
466.4596, 85.16187
466.9417, 85.09858
467.4239, 85.02851
467.9060, 84.95671
468.3881, 84.91148
468.8702, 84.88358
469.3523, 84.91011
469.8344, 85.01647
470.3166, 85.19904
470.7987, 85.46812
471.2808, 85.96835
471.7629, 86.44730
472.2450, 86.68179
472.7271, 86.69351
473.2093, 86.55677
473.6914, 86.24820
474.1735, 85.90691
474.6556, 85.85078
475.1377, 86.20504
475.6198, 86.37656
476.1020, 86.20435
476.5841, 85.86348
477.0662, 85.41824
477.5483, 84.92548
478.0304, 84.55445
478.5125, 84.45249
478.9947, 84.58346
479.4768, 84.63610
479.9589, 84.51185
480.4410, 84.42805
480.9231, 84.55631
481.4052, 84.66277
481.8874, 84.39066
482.3695, 83.70811
482.8516, 83.05647
483.3337, 83.05968
483.8158, 83.84203
484.2979, 84.21265
484.7801, 83.82496
485.2622, 83.39674
485.7443, 83.19295
486.2264, 83.11074
486.7085, 82.94608
487.1906, 82.58457
487.6728, 82.21522
488.1549, 82.17730
488.6370, 82.50051
489.1191, 82.66119
489.6012, 82.47443
490.0833, 82.16164
490.5655, 81.88108
491.0476, 81.64116
491.5297, 81.50465
492.0118, 81.60318
492.4939, 81.75925
492.9760, 81.69078
493.4582, 81.40902
493.9403, 81.23145
494.4224, 81.33685
494.9045, 81.63513
495.3866, 81.91871
495.8687, 82.24582
496.3509, 82.43081
496.8330, 82.23814
497.3151, 81.99165
497.7972, 82.10764
498.2793, 82.59051
498.7614, 83.05612
499.2436, 83.14722
499.7257, 82.89640
500.2078, 82.91603
500.6899, 83.65712
501.1720, 84.12114
501.6541, 83.90771
502.1363, 83.45695
502.6184, 83.26053
503.1005, 83.43966
503.5826, 83.74691
504.0647, 83.84754
504.5468, 83.70219
505.0290, 83.76259
505.5111, 84.25628
505.9932, 84.67641
506.4753, 84.74100
506.9575, 84.62863
507.4396, 84.63847
507.9217, 84.90382
508.4038, 85.24297
508.8859, 85.44572
509.3680, 85.51624
509.8502, 85.52725
510.3323, 85.48964
510.8144, 85.40296
511.2965, 85.22083
511.7786, 84.96940
512.2607, 84.80334
512.7429, 84.87565
513.2250, 84.95757
513.7071, 84.90357
514.1892, 84.69743
514.6713, 84.23481
515.1534, 83.40275
515.6356, 82.48079
516.1177, 82.05210
516.5998, 82.47920
517.0819, 82.58115
517.5640, 81.91279
518.0461, 81.25107
518.5283, 81.28916
519.0104, 81.84689
519.4925, 82.18990
519.9746, 81.80161
520.4567, 80.92805
520.9388, 80.52602
521.4210, 81.03148
521.9031, 81.18787
522.3852, 80.40836
522.8673, 79.60616
523.3494, 79.54813
523.8315, 80.18179
524.3137, 80.80681
524.7958, 80.84762
525.2779, 80.46041
525.7600, 80.16711
526.2421, 79.96349
526.7242, 79.87237
527.2064, 79.97655
527.6885, 80.16467
528.1706, 80.30461
528.6527, 80.38689
529.1348, 80.42332
529.6169, 80.35483
530.0991, 80.26805
530.5812, 80.34357
531.0633, 80.60007
531.5454, 80.83281
532.0275, 80.88412
532.5096, 80.78211
532.9918, 80.71960
533.4739, 80.67539
533.9560, 80.69006
534.4381, 80.80356
534.9202, 80.96312
535.4023, 81.14272
535.8845, 81.32024
536.3666, 81.43263
536.8487, 81.40612
537.3308, 81.24113
537.8129, 81.08992
538.2950, 80.97716
538.7772, 80.84441
539.2593, 80.57716
539.7414, 80.33546
540.2235, 80.34867
540.7056, 80.66557
541.1877, 80.98889
541.6699, 81.00022
542.1520, 80.73962
542.6341, 80.46139
543.1162, 80.13696
543.5983, 79.90819
544.0804, 79.91529
544.5626, 80.07499
545.0447, 80.25037
545.5268, 80.45632
546.0089, 80.61354
546.4910, 80.61834
546.9731, 80.55576
547.4553, 80.64558
547.9374, 80.93730
548.4195, 81.14606
548.9016, 80.95858
549.3837, 80.36129
549.8658, 79.99648
550.3480, 79.98160
550.8301, 80.01260
551.3122, 80.05569
551.7943, 80.07688
552.2764, 79.97955
552.7585, 79.76537
553.2407, 79.64133
553.7228, 79.96241
554.2049, 80.78170
554.6870, 81.02905
555.1691, 80.21923
555.6512, 79.51633
556.1334, 79.34846
556.6155, 79.51442
557.0976, 79.76083
557.5797, 80.02086
558.0618, 80.35875
558.5439, 80.93040
559.0261, 81.64001
559.5082, 82.11543
559.9903, 82.27172
560.4724, 82.33346
560.9545, 82.40494
561.4366, 82.52281
561.9188, 82.82359
562.4009, 83.56124
562.8830, 84.16294
563.3651, 84.26485
563.8472, 84.16766
564.3293, 84.29472
564.8115, 84.72988
565.2936, 85.28863
565.7757, 85.80674
566.2578, 86.28641
566.7399, 86.62759
567.2220, 86.57938
567.7042, 86.69804
568.1863, 87.12556
568.6684, 87.73416
569.1505, 88.43787
569.6326, 89.19624
570.1147, 89.92493
570.5969, 90.59891
571.0790, 91.18948
571.5611, 91.45257
572.0432, 91.26856
572.5253, 91.09396
573.0074, 91.18410
573.4896, 91.41650
573.9717, 91.65770
574.4538, 91.96677
574.9359, 92.03130
575.4180, 91.59807
575.9001, 90.88142
576.3823, 90.20901
576.8644, 89.60013
577.3465, 88.81117
577.8286, 87.62438
578.3107, 86.14884
578.7928, 84.92240
579.2750, 83.99483
579.7571, 83.26616
580.2392, 82.94699
580.7213, 82.67160
581.2034, 82.08335
581.6855, 81.22884
582.1677, 80.44125
582.6498, 79.96883
583.1319, 79.75996
583.6140, 79.71052
584.0961, 79.93626
584.5782, 79.91384
585.0604, 79.24390
585.5425, 78.46626
586.0246, 78.00400
586.5067, 77.86279
586.9889, 77.90411
587.4710, 78.21780
587.9531, 78.58475
588.4352, 78.79582
588.9174, 78.83951
589.3995, 78.64194
589.8816, 78.11682
590.3637, 77.49445
590.8458, 77.17162
591.3279, 77.25069
591.8101, 77.37142
592.2922, 77.64129
592.7743, 77.84641
593.2564, 77.83383
593.7385, 77.67765
594.2206, 77.52401
594.7028, 77.43977
595.1849, 77.39286
595.6670, 77.32463
596.1491, 77.22588
596.6312, 77.17896
597.1133, 77.24541
597.5955, 77.28988
598.0776, 77.21573
598.5597, 77.07566
599.0418, 76.95950
599.5239, 76.86557
600.0060, 76.85884
600.4882, 77.03381
600.9703, 77.33089
601.4524, 77.61972
601.9345, 77.87660
602.4166, 78.09223
602.8987, 78.26702
603.3809, 78.39609
603.8630, 78.39472
604.3451, 78.02489
604.8272, 77.84682
605.3093, 78.15617
605.7914, 78.58545
606.2736, 78.73824
606.7557, 78.59368
607.2378, 78.45486
607.7199, 78.61707
608.2020, 78.98364
608.6841, 79.03461
609.1663, 78.62886
609.6484, 78.31889
610.1305, 78.43595
610.6126, 78.59457
611.0947, 78.40932
611.5768, 77.88616
612.0590, 77.44022
612.5411, 77.24657
613.0232, 77.21813
613.5053, 77.29735
613.9874, 77.46331
614.4695, 77.65069
614.9517, 77.84312
615.4338, 78.00384
615.9159, 78.07703
616.3980, 78.05891
616.8801, 77.95261
617.3622, 77.59895
617.8444, 77.33396
618.3265, 77.35962
618.8086, 77.54844
619.2907, 77.70609
619.7728, 77.76058
620.2549, 77.74783
620.7371, 77.70565
621.2192, 77.63418
621.7013, 77.54784
622.1834, 77.45307
622.6655, 77.32767
623.1476, 77.05647
623.6298, 76.78112
624.1119, 76.80388
624.5940, 77.32153
625.0761, 77.60950
625.5582, 77.13911
626.0403, 76.36489
626.5225, 75.76350
627.0046, 75.41479
627.4867, 75.40179
627.9688, 75.82602
628.4509, 76.50716
628.9330, 76.86588
629.4152, 76.83083
629.8973, 76.58221
630.3794, 75.85026
630.8615, 75.18941
631.3436, 74.95790
631.8257, 75.05336
632.3079, 75.17757
632.7900, 75.20625
633.2721, 75.14938
633.7542, 75.01737
634.2363, 74.81128
634.7184, 74.50935
635.2006, 74.05589
635.6827, 73.66191
636.1648, 73.55968
636.6469, 73.70667
637.1290, 73.73194
637.6111, 73.53434
638.0933, 73.33389
638.5754, 73.16520
639.0575, 73.05110
639.5396, 73.03628
640.0217, 73.11345
640.5038, 73.22359
640.9860, 73.33543
641.4681, 73.42327
641.9502, 73.35729
642.4323, 73.09441
642.9144, 72.78318
643.3965, 72.25544
643.8787, 71.85031
644.3608, 71.94355
644.8429, 72.42112
645.3250, 72.68865
645.8071, 72.32729
646.2892, 71.80453
646.7714, 71.55299
647.2535, 71.53416
647.7356, 71.68705
648.2177, 72.01042
648.6998, 72.27814
649.1819, 72.20736
649.6641, 71.77514
650.1462, 71.48911
650.6283, 71.45503
651.1104, 71.42705
651.5925, 71.33374
652.0746, 71.23805
652.5568, 71.18523
653.0389, 71.19275
653.5210, 71.29688
654.0031, 71.63354
654.4852, 72.04019
654.9673, 71.95652
655.4495, 71.32145
655.9316, 70.89949
656.4137, 71.03548
656.8958, 71.38631
657.3779, 71.48592
657.8600, 71.34241
658.3422, 71.30632
658.8243, 71.61229
659.3064, 71.84241
659.7885, 71.71057
660.2706, 71.36645
660.7527, 71.00070
661.2349, 70.69508
661.7170, 70.56584
662.1991, 70.82312
662.6812, 71.43591
663.1633, 71.60452
663.6454, 71.00343
664.1276, 70.60262
664.6097, 70.97476
665.0918, 71.51319
665.5739, 71.64647
666.0560, 71.35286
666.5381, 71.11523
667.0203, 71.18333
667.5024, 71.38916
667.9845, 71.64633
668.4666, 71.89562
668.9487, 71.90528
669.4308, 71.57402
669.9130, 71.19492
670.3951, 71.17772
670.8772, 71.58324
671.3593, 71.85715
671.8414, 71.75583
672.3235, 71.81335
672.8057, 72.36318
673.2878, 72.99997
673.7699, 73.25111
674.2520, 73.06574
674.7341, 72.84387
675.2162, 72.93154
675.6984, 73.17332
676.1805, 73.21260
676.6626, 73.05898
677.1447, 73.01607
677.6268, 73.23268
678.1089, 73.52255
678.5911, 73.61817
679.0732, 73.47180
679.5553, 73.39368
680.0374, 73.34143
680.5195, 73.40242
681.0016, 73.60681
681.4838, 73.94374
681.9659, 74.51212
682.4480, 75.27145
682.9301, 75.84819
683.4122, 75.75111
683.8943, 75.21095
684.3765, 75.21717
684.8586, 75.86606
685.3407, 76.50121
685.8228, 76.93002
686.3049, 77.21388
686.7870, 77.36626
687.2692, 77.39115
687.7513, 77.54594
688.2334, 78.02358
688.7155, 78.47614
689.1976, 78.72935
689.6797, 78.82883
690.1619, 78.83504
690.6440, 78.77380
691.1261, 78.69167
691.6082, 78.66706
692.0903, 78.66033
692.5724, 78.35989
693.0546, 77.67891
693.5367, 76.95564
694.0188, 76.13237
694.5009, 75.43820
694.9830, 75.17151
695.4651, 75.27119
695.9473, 75.23472
696.4294, 74.79368
696.9116, 74.29260
697.3937, 73.92241
697.8758, 73.67187
698.3579, 73.54650
698.8400, 73.53439
699.3221, 73.53457
699.8043, 73.44258
700.2864, 73.28001
700.7685, 73.21384
701.2506, 73.26138
701.7327, 73.36700
702.2148, 73.72713
702.6970, 73.96782
703.1791, 73.72662
703.6612, 73.12459
704.1433, 72.66171
704.6254, 72.57106
705.1075, 72.61842
705.5897, 72.62357
706.0718, 72.62489
706.5539, 72.73518
707.0360, 72.96568
707.5181, 73.14815
708.0002, 73.12220
708.4824, 72.95950
708.9645, 73.03850
709.4466, 73.57495
709.9287, 73.94200
710.4108, 74.03014
710.8929, 73.99517
711.3751, 73.85421
711.8572, 73.66277
712.3393, 73.54768
712.8214, 73.58411
713.3035, 73.62833
713.7856, 73.44030
714.2678, 73.19660
714.7499, 73.38967
715.2320, 74.04800
715.7141, 74.57059
716.1962, 74.54445
716.6783, 74.12872
717.1605, 73.77615
717.6426, 73.38626
718.1247, 73.26717
718.6068, 73.67700
719.0889, 74.07333
719.5710, 74.18530
720.0532, 74.12513
720.5353, 74.08353
721.0174, 74.10929
721.4995, 74.23290
721.9816, 74.56289
722.4637, 74.98021
722.9459, 75.26744
723.4280, 75.40897
723.9101, 75.40068
724.3922, 75.20689
724.8743, 74.97726
725.3564, 75.01265
725.8386, 75.43082
726.3207, 75.68889
726.8028, 75.77991
727.2849, 75.72495
727.7670, 75.27437
728.2491, 74.81243
728.7313, 74.92889
729.2134, 75.69103
729.6955, 76.30736
730.1776, 76.02351
730.6597, 75.36165
731.1418, 75.16307
731.6240, 75.36593
732.1061, 75.56096
732.5882, 75.61723
733.0703, 75.53503
733.5524, 75.28507
734.0345, 74.85484
734.5167, 74.56338
734.9988, 74.37793
735.4809, 74.38771
735.9630, 74.85992
736.4451, 75.34000
736.9272, 75.38773
737.4094, 75.05406
737.8915, 74.77213
738.3736, 74.78645
738.8557, 74.92233
739.3378, 75.00413
739.8199, 75.04724
740.3021, 75.11610
740.7842, 75.22285
741.2663, 75.27374
741.7484, 75.17899
742.2305, 74.97814
742.7126, 74.86549
743.1948, 74.86974
743.6769, 74.91179
744.1590, 74.93741
744.6411, 75.04508
745.1232, 75.34623
745.6053, 75.75687
746.0875, 76.14729
746.5696, 76.52221
747.0517, 76.66403
747.5338, 76.13837
748.0159, 75.38045
748.4980, 75.20049
748.9802, 75.58701
749.4623, 75.98560
749.9444, 76.11772
750.4265, 76.09937
750.9086, 76.14445
751.3907, 76.27126
751.8729, 76.37997
752.3550, 76.55058
752.8371, 76.59258
753.3192, 76.27367
753.8013, 75.90469
754.2834, 75.87241
754.7656, 76.21217
755.2477, 76.52790
755.7298, 76.60931
756.2119, 76.60432
756.6940, 76.65587
757.1761, 76.73338
757.6583, 76.75603
758.1404, 76.70187
758.6225, 76.59002
759.1046, 76.41649
759.5867, 76.21194
760.0688, 76.20216
760.5510, 76.47733
761.0331, 76.71339
761.5152, 76.91090
761.9973, 76.98777
762.4794, 76.79760
762.9615, 76.43975
763.4437, 76.24556
763.9258, 76.41528
764.4079, 76.52077
764.8900, 76.10275
765.3721, 75.67359
765.8542, 75.98328
766.3364, 76.88949
766.8185, 77.64137
767.3006, 77.83059
767.7827, 77.65878
768.2648, 77.42162
768.7469, 77.11359
769.2291, 76.92314
769.7112, 76.92480
770.1933, 76.84497
770.6754, 76.36930
771.1575, 75.85539
771.6396, 76.02653
772.1218, 77.03305
772.6039, 77.60475
773.0860, 77.17424
773.5681, 76.65504
774.0502, 76.55893
774.5323, 76.66325
775.0145, 76.63657
775.4966, 76.40810
775.9787, 76.10683
776.4608, 75.84046
776.9429, 75.57692
777.4250, 75.14113
777.9072, 74.54661
778.3893, 74.37207
778.8714, 74.86396
779.3535, 75.36851
779.8356, 75.24709
780.3177, 74.62937
780.7999, 74.40433
781.2820, 75.09843
781.7641, 75.41448
782.2462, 74.92824
782.7283, 74.38509
783.2104, 74.25494
783.6926, 74.42936
784.1747, 74.62891
784.6568, 74.76394
785.1389, 74.84277
785.6210, 74.83997
786.1031, 74.79880
786.5853, 74.81847
787.0674, 74.89220
787.5495, 74.91829
788.0316, 74.84585
788.5137, 74.76447
788.9958, 74.81565
789.4780, 75.01566
789.9601, 75.11192
790.4422, 75.00502
790.9243, 74.95555
791.4064, 74.98930
791.8885, 75.13005
792.3707, 75.50956
792.8528, 76.05305
793.3349, 76.36861
793.8170, 76.20921
794.2991, 75.95284
794.7813, 75.86069
795.2634, 75.80025
795.7455, 75.50278
796.2276, 75.01659
796.7097, 74.72793
797.1918, 74.89199
797.6740, 75.22533
798.1561, 75.07500
798.6382, 74.40659
799.1203, 74.23438
799.6024, 74.78699
800.0845, 75.33852
800.5667, 75.53780
801.0488, 75.51904
801.5309, 75.50191
802.0130, 75.48173
802.4951, 75.48482
802.9772, 75.52302
803.4594, 75.57322
803.9415, 75.68089
804.4236, 75.76380
804.9057, 75.70280
805.3878, 75.50061
805.8699, 75.27602
806.3521, 75.07504
806.8342, 74.94485
807.3163, 75.01505
807.7985, 75.23020
808.2806, 75.31664
808.7627, 75.22218
809.2448, 75.21199
809.7269, 75.50243
810.2090, 75.97314
810.6912, 76.24158
811.1733, 76.18737
811.6554, 76.22173
812.1375, 76.47675
812.6196, 76.66837
813.1017, 76.68296
813.5839, 76.57565
814.0660, 76.39619
814.5481, 76.14828
815.0302, 75.92641
815.5123, 75.64407
815.9944, 75.52333
816.4766, 75.86613
816.9587, 76.45844
817.4408, 76.93650
817.9229, 77.20779
818.4050, 77.33707
818.8871, 77.36972
819.3693, 77.31416
819.8514, 77.14108
820.3335, 76.83887
820.8156, 76.74277
821.2977, 76.97243
821.7798, 77.20328
822.2620, 77.21366
822.7441, 77.06870
823.2262, 76.94493
823.7083, 76.76398
824.1904, 76.78709
824.6725, 77.28720
825.1547, 77.69904
825.6368, 77.72489
826.1189, 77.52908
826.6010, 77.28600
827.0831, 77.05112
827.5652, 76.93398
828.0474, 76.99525
828.5295, 77.21939
829.0116, 77.71927
829.4937, 78.35149
829.9758, 78.74894
830.4579, 78.83492
830.9401, 78.71719
831.4222, 78.45098
831.9043, 78.11911
832.3864, 77.98325
832.8685, 78.08526
833.3506, 78.18242
833.8328, 78.27104
834.3149, 78.32215
834.7970, 78.22524
835.2791, 78.12670
835.7612, 78.33237
836.2433, 78.92655
836.7255, 79.34269
837.2076, 79.37682
837.6897, 79.33933
838.1718, 79.39523
838.6539, 79.45574
839.1360, 79.36565
839.6182, 79.13671
840.1003, 78.95518
840.5824, 78.93845
841.0645, 79.03166
841.5466, 79.17886
842.0287, 79.37358
842.5109, 79.63268
842.9930, 79.94843
843.4751, 80.13316
843.9572, 80.05258
844.4393, 79.84755
844.9214, 79.84415
845.4036, 80.12237
845.8857, 80.16520
846.3678, 79.72370
846.8499, 79.48741
847.3320, 79.75097
847.8141, 80.31408
848.2963, 81.13297
848.7784, 82.16549
849.2605, 82.75719
849.7426, 82.45847
850.2247, 82.10134
850.7068, 81.93605
851.1890, 81.92564
851.6711, 82.06486
852.1532, 82.31892
852.6353, 82.60648
853.1174, 82.88577
853.5995, 83.21054
854.0817, 83.69869
854.5638, 84.27163
855.0459, 84.72143
855.5280, 85.04004
856.0101, 85.23507
856.4922, 85.29452
856.9744, 85.37432
857.4565, 85.67461
857.9386, 86.19076
858.4207, 86.77299
858.9028, 87.45045
859.3849, 88.12273
859.8671, 88.80033
860.3492, 89.42995
860.8313, 89.90755
861.3134, 90.31023
861.7955, 90.85415
862.2776, 91.57066
862.7598, 92.40136
863.2419, 93.47401
863.7240, 94.51106
864.2061, 95.15088
864.6882, 95.69090
865.1703, 96.65810
865.6525, 98.17422
866.1346, 99.90857
866.6167, 101.6988
867.0988, 103.4876
867.5809, 105.0302
868.0630, 106.4842
868.5452, 108.3310
869.0273, 110.6808
869.5094, 113.5099
869.9915, 116.8278
870.4736, 120.5358
870.9557, 124.4247
871.4379, 128.5673
871.9200, 132.4852
872.4021, 135.8371
872.8842, 139.6978
873.3663, 144.6960
873.8484, 150.3436
874.3306, 155.9482
874.8127, 161.5196
875.2948, 167.0541
875.7769, 172.2874
876.2590, 177.7971
876.7411, 183.7351
877.2233, 189.9829
877.7054, 196.2342
878.1875, 202.6584
878.6696, 209.8763
879.1517, 218.1535
879.6339, 226.9582
880.1160, 235.9701
880.5981, 245.1560
881.0802, 254.5340
881.5623, 264.1173
882.0444, 274.2569
882.5266, 284.9731
883.0087, 295.5009
883.4908, 305.1075
883.9729, 313.7915
884.4550, 321.6986
884.9371, 328.8962
885.4193, 333.7118
885.9014, 335.9501
886.3835, 335.3314
886.8656, 331.4701
887.3477, 324.7508
887.8298, 316.1094
888.3120, 305.3785
888.7941, 293.2618
889.2762, 278.5019
889.7583, 263.8582
890.2404, 249.8308
890.7225, 236.5443
891.2047, 224.0643
891.6868, 212.3991
892.1689, 201.3544
892.6510, 190.4676
893.1331, 180.7374
893.6152, 172.8739
894.0974, 166.2227
894.5795, 160.0813
895.0616, 154.4807
895.5437, 149.9613
896.0258, 146.7074
896.5079, 143.8507
896.9901, 140.3344
897.4722, 136.5739
897.9543, 133.5883
898.4364, 131.3218
898.9185, 129.3224
899.4006, 127.4787
899.8828, 125.7994
900.3649, 124.2642
900.8470, 122.9300
901.3291, 122.0341
901.8112, 121.6785
902.2933, 121.2804
902.7755, 120.8433
903.2576, 120.2517
903.7397, 119.3404
904.2218, 118.3264
904.7039, 117.5421
905.1860, 117.0021
905.6682, 116.6344
906.1503, 116.6807
906.6324, 116.5844
907.1145, 116.4384
907.5966, 115.9087
908.0787, 114.5027
908.5609, 112.4958
909.0430, 110.6521
909.5251, 109.1823
910.0072, 108.0004
910.4893, 107.3432
910.9714, 106.7111
911.4536, 105.4501
911.9357, 103.8569
912.4178, 102.6267
912.8999, 101.8984
913.3820, 101.2339
913.8641, 100.2444
914.3463, 99.14950
914.8284, 98.35623
915.3105, 97.82469
915.7926, 97.43054
916.2748, 97.15019
916.7569, 96.68736
917.2390, 95.83718
917.7211, 94.95028
918.2032, 94.68517
918.6854, 95.08525
919.1675, 94.91312
919.6496, 93.92448
920.1317, 93.12237
920.6138, 92.78869
921.0959, 92.68468
921.5781, 92.75574
922.0602, 92.89533
922.5423, 92.54956
923.0244, 91.20035
923.5065, 90.34760
923.9886, 90.54177
924.4708, 90.68461
924.9529, 90.16258
925.4350, 89.38888
925.9171, 88.90165
926.3992, 88.75159
926.8813, 88.62700
927.3635, 88.35936
927.8456, 88.14138
928.3277, 88.23968
928.8098, 88.33464
929.2919, 87.88969
929.7740, 87.12863
930.2562, 86.78020
930.7383, 87.14212
931.2204, 87.67111
931.7025, 87.82051
932.1846, 87.77975
932.6667, 87.89453
933.1489, 88.13344
933.6310, 88.35371
934.1131, 88.52592
934.5952, 88.75783
935.0773, 89.15990
935.5594, 89.55337
936.0416, 89.40123
936.5237, 88.69540
937.0058, 88.45720
937.4879, 88.80984
937.9700, 89.14600
938.4521, 89.15284
938.9343, 89.23996
939.4164, 90.00365
939.8985, 91.37286
940.3806, 92.05082
940.8627, 91.47785
941.3448, 91.32265
941.8270, 92.11812
942.3091, 92.91593
942.7912, 93.01930
943.2733, 92.88953
943.7554, 93.38042
944.2375, 94.65686
944.7197, 95.48299
945.2018, 95.48614
945.6839, 95.21723
946.1660, 94.78823
946.6481, 94.25291
947.1302, 93.60149
947.6124, 92.88054
948.0945, 92.25137
948.5766, 91.82973
949.0587, 91.17208
949.5408, 89.69247
950.0229, 88.10625
950.5051, 87.17876
950.9872, 86.65798
951.4693, 85.96886
951.9514, 85.02908
952.4335, 84.22822
952.9156, 83.86203
953.3978, 83.68136
953.8799, 83.32614
954.3620, 82.87099
954.8441, 82.51463
955.3262, 82.26492
955.8083, 82.02731
956.2905, 81.76441
956.7726, 81.57569
957.2547, 81.60603
957.7368, 81.77904
958.2189, 81.69375
958.7010, 81.32557
959.1832, 81.25472
959.6653, 81.62680
960.1474, 81.99227
960.6295, 82.08452
961.1116, 82.03078
961.5938, 82.08730
962.0759, 82.29198
962.5580, 82.19442
963.0401, 81.46642
963.5222, 81.14634
964.0043, 81.75816
964.4865, 82.47822
964.9686, 82.65489
965.4507, 82.44737
965.9328, 82.36572
966.4149, 82.47408
966.8970, 82.53416
967.3792, 82.34709
967.8613, 82.33376
968.3434, 82.88030
968.8255, 83.50169
969.3076, 83.56447
969.7897, 83.20938
970.2719, 83.29177
970.7540, 84.37806
971.2361, 85.19753
971.7182, 85.05232
972.2003, 84.60703
972.6824, 84.26305
973.1646, 84.03601
973.6467, 83.89314
974.1288, 83.82000
974.6109, 83.80064
975.0930, 83.94756
975.5751, 83.94109
976.0573, 83.23794
976.5394, 82.33459
977.0215, 82.04891
977.5036, 82.26218
977.9857, 82.35507
978.4678, 82.10838
978.9500, 81.82034
979.4321, 81.85227
979.9142, 81.96976
980.3963, 81.53837
980.8784, 80.78246
981.3605, 80.63938
981.8427, 81.17478
982.3248, 81.56431
982.8069, 81.35778
983.2890, 80.93716
983.7711, 80.87035
984.2532, 81.09980
984.7354, 81.20674
985.2175, 81.18949
985.6996, 81.06676
986.1817, 80.80542
986.6638, 80.72252
987.1459, 81.11001
987.6281, 81.66734
988.1102, 81.64961
988.5923, 80.92599
989.0744, 80.63196
989.5565, 80.90785
990.0386, 81.20471
990.5208, 81.40688
991.0029, 81.51755
991.4850, 81.50437
991.9671, 81.40792
992.4492, 81.38333
992.9313, 81.42764
993.4135, 81.55698
993.8956, 82.02227
994.3777, 82.23251
994.8598, 81.59881
995.3419, 80.94121
995.8240, 81.18438
996.3062, 82.14837
996.7883, 82.72662
997.2704, 82.59207
997.7525, 82.49854
998.2346, 82.54008
998.7167, 82.65301
999.1989, 82.94276
999.6810, 83.20124
1000.163, 83.08160
1000.645, 82.62592
1001.127, 82.38208
1001.609, 82.60168
1002.092, 82.91628
1002.574, 83.26183
1003.056, 83.56630
1003.538, 83.81546
1004.020, 83.96093
1004.502, 83.83463
1004.984, 83.46160
1005.466, 83.30167
1005.948, 83.80466
1006.431, 84.30729
1006.913, 84.20308
1007.395, 83.91850
1007.877, 83.93526
1008.359, 84.21365
1008.841, 84.60576
1009.323, 85.03442
1009.805, 85.25788
1010.288, 84.92107
1010.770, 84.47907
1011.252, 84.51709
1011.734, 84.83299
1012.216, 85.02876
1012.698, 85.12812
1013.180, 85.47201
1013.662, 86.18298
1014.144, 86.84334
1014.627, 86.92832
1015.109, 86.76009
1015.591, 87.00703
1016.073, 87.55200
1016.555, 88.04046
1017.037, 88.41660
1017.519, 88.70070
1018.001, 88.89951
1018.484, 89.10159
1018.966, 89.41943
1019.448, 89.83363
1019.930, 90.27171
1020.412, 90.73721
1020.894, 91.33767
1021.376, 92.08455
1021.858, 92.69094
1022.340, 92.97697
1022.823, 93.14379
1023.305, 93.56774
1023.787, 94.18826
1024.269, 94.23878
1024.751, 93.65586
1025.233, 93.91206
1025.715, 95.42862
1026.197, 96.91457
1026.680, 97.62501
1027.162, 97.58720
1027.644, 96.69308
1028.126, 94.91014
1028.608, 93.84740
1029.090, 93.69038
1029.572, 93.38583
1030.054, 92.68558
1030.536, 91.85790
1031.019, 91.01547
1031.501, 90.26317
1031.983, 89.86648
1032.465, 89.91477
1032.947, 89.59570
1033.429, 88.72732
1033.911, 87.95187
1034.393, 87.36122
1034.875, 86.97832
1035.358, 86.88821
1035.840, 86.96963
1036.322, 86.93216
1036.804, 86.74545
1037.286, 86.58123
1037.768, 86.42416
1038.250, 86.32034
1038.732, 86.34107
1039.215, 86.34199
1039.697, 86.16853
1040.179, 85.91352
1040.661, 85.83282
1041.143, 86.00977
1041.625, 86.05155
1042.107, 85.78271
1042.589, 85.24236
1043.072, 85.80457
1043.554, 86.11502
1044.036, 86.18719
1044.518, 85.30747
1045.000, 85.65693
1045.482, 85.51379
1045.964, 85.35044
1046.446, 85.87290
1046.928, 85.13163
1047.411, 85.64319
1047.893, 85.65466
1048.375, 85.89502
1048.857, 85.63973
1049.339, 85.53754
1049.821, 85.93114
1050.303, 86.05022
1050.785, 85.73788
1051.267, 85.99279
1051.750, 85.23418
1052.232, 85.36494
1052.714, 85.87943
1053.196, 85.59201
1053.678, 85.85598
1054.160, 85.90995
1054.642, 85.00956
1055.124, 85.76890
1055.607, 85.81043
1056.089, 85.11499
1056.571, 85.44447
1057.053, 86.02856
1057.535, 86.36085
1058.017, 86.45487
1058.499, 85.59699
1058.981, 85.96830
1059.464, 85.84702
1059.946, 85.70553
1060.428, 86.24984
1060.910, 85.53041
1061.392, 86.06384
1061.874, 86.09716
1062.356, 86.35936
1062.838, 86.12592
1063.320, 86.04558
1063.802, 86.46103
1064.285, 86.60197
1064.767, 86.31148
1065.249, 86.58823
1065.731, 85.85149
1066.213, 86.00411
1066.695, 86.54044
1067.177, 86.27487
1067.659, 86.56069
1068.142, 86.63653
1068.624, 85.75799
1069.106, 86.26889
1069.588, 86.84699
1070.070, 87.17329
1070.552, 87.26132
1071.034, 86.39745
1071.516, 86.76277
1071.999, 86.63549
1072.481, 86.48801
1072.963, 87.02633
1073.445, 86.30091
1073.927, 86.82835
1074.409, 86.85567
1074.891, 87.11189
1075.373, 86.87247
1075.855, 86.78613
1076.338, 87.19560
1076.820, 87.33054
1077.302, 87.03405
1077.784, 87.30482
1078.266, 86.56209
1078.748, 86.70872
1079.230, 87.23906
1079.712, 86.96750
1080.194, 87.24733
1080.677, 87.31716
1081.159, 86.43263
1081.641, 87.20783
1082.123, 87.26525
1082.605, 86.58567
1083.087, 87.30400
1083.569, 86.25179
1084.052, 86.88177
1084.534, 87.25984
1085.016, 87.39964
1085.498, 86.58755
1085.980, 87.00462
1086.462, 86.92912
1086.944, 86.83339
1087.426, 87.42348
1087.908, 86.74982
1088.391, 87.32915
1088.873, 87.40826
1089.355, 87.71623
1089.837, 87.52858
1090.319, 87.49400
1090.801, 87.95524
1091.283, 88.14193
1091.765, 87.89722
1092.247, 88.21975
1092.730, 87.52890
1093.212, 87.72730
1093.694, 88.30941
1094.176, 88.08962
1094.658, 88.42120
1095.140, 88.54281
1095.622, 87.71004
1096.104, 88.53700
1096.587, 88.16377
1097.069, 88.25952
1097.551, 88.39662
1098.033, 88.41077
1098.515, 88.26851
1098.997, 88.14999
1099.479, 88.18849
1099.961, 88.14665
1100.443, 87.78477
1100.926, 87.47629
1101.408, 87.50588
1101.890, 87.75957
1102.372, 88.09321
1102.854, 88.47535
1103.336, 88.72179
1103.818, 88.69907
1104.300, 88.67164
1104.782, 88.75388
1105.265, 88.78142
1105.747, 88.58041
1106.229, 88.32881
1106.711, 88.29241
1107.193, 88.44148
1107.675, 88.44324
1108.157, 88.04902
1108.639, 87.90597
1109.122, 88.37460
1109.604, 88.75957
1110.086, 88.64394
1110.568, 88.43975
1111.050, 88.57821
1111.532, 88.97335
1112.014, 89.26153
1112.496, 89.41528
1112.979, 89.49461
1113.461, 89.61887
1113.943, 89.50709
1114.425, 88.57433
1114.907, 89.21136
1115.389, 89.59661
1115.871, 89.74358
1116.353, 88.93866
1116.835, 89.36291
1117.318, 89.29469
1117.800, 89.20616
1118.282, 89.80341
1118.764, 89.13694
1119.246, 89.72332
1119.728, 89.80959
1120.210, 90.12474
1120.692, 89.94426
1121.174, 89.91685
1121.657, 90.38539
1122.139, 90.57927
1122.621, 90.34172
1123.103, 90.67143
1123.585, 90.17129
1124.067, 90.31530
1124.549, 90.34944
1125.031, 90.26453
1125.514, 90.09559
1125.996, 90.01723
1126.478, 90.05215
1126.960, 90.04285
1127.442, 89.96960
1127.924, 89.91273
1128.406, 89.88700
1128.888, 89.93319
1129.370, 90.11208
1129.853, 90.32030
1130.335, 90.25581
1130.817, 89.92002
1131.299, 90.05345
1131.781, 90.69675
1132.263, 90.86672
1132.745, 90.33508
1133.227, 89.90904
1133.709, 90.07432
1134.192, 90.42320
1134.674, 90.31057
1135.156, 89.92087
1135.638, 90.14631
1136.120, 90.86802
1136.602, 91.11309
1137.084, 90.80857
1137.566, 90.44572
1138.049, 90.22195
1138.531, 90.10764
1139.013, 90.06534
1139.495, 90.13639
1139.977, 90.45933
1140.459, 90.94514
1140.941, 91.44412
1141.423, 91.87003
1141.906, 91.86834
1142.388, 91.42802
1142.870, 91.09916
1143.352, 91.24024
1143.834, 91.51843
1144.316, 91.58726
1144.798, 91.50670
1145.280, 91.28239
1145.762, 91.01687
1146.245, 90.90524
1146.727, 90.95123
1147.209, 91.07369
1147.691, 91.24000
1148.173, 91.36153
1148.655, 91.32056
1149.137, 91.26531
1149.619, 91.42677
1150.101, 91.56546
1150.584, 91.27942
1151.066, 90.79267
1151.548, 90.58974
1152.030, 90.75071
1152.512, 91.01421
1152.994, 91.31069
1153.476, 91.59394
1153.958, 91.94376
1154.441, 92.15681
1154.923, 91.92186
1155.405, 91.59607
1155.887, 91.69372
1156.369, 92.10234
1156.851, 92.22507
1157.333, 91.81978
1157.815, 91.64207
1158.297, 92.04353
1158.780, 92.43880
1159.262, 92.75802
1159.744, 92.89365
1160.226, 92.63254
1160.708, 92.19413
1161.190, 91.96716
1161.672, 91.96455
1162.154, 92.10068
1162.636, 92.50064
1163.119, 92.80865
1163.601, 93.02800
1164.083, 93.09594
1164.565, 92.92461
1165.047, 92.67062
1165.529, 92.44308
1166.011, 92.29652
1166.493, 92.49538
1166.976, 93.14948
1167.458, 93.62791
1167.940, 93.95922
1168.422, 93.90862
1168.904, 93.34216
1169.386, 92.80524
1169.868, 92.66484
1170.350, 92.74962
1170.833, 92.77763
1171.315, 92.77712
1171.797, 92.95530
1172.279, 93.28726
1172.761, 93.48196
1173.243, 93.51429
1173.725, 93.53250
1174.207, 93.59348
1174.689, 93.60986
1175.172, 93.46754
1175.654, 93.33934
1176.136, 93.61749
1176.618, 94.09361
1177.100, 94.38144
1177.582, 94.42367
1178.064, 93.95321
1178.546, 93.10014
1179.028, 92.65806
1179.511, 93.02714
1179.993, 93.65423
1180.475, 94.31783
1180.957, 94.75122
1181.439, 94.40522
1181.921, 93.89511
1182.403, 94.16018
1182.885, 94.85465
1183.368, 95.04457
1183.850, 94.57198
1184.332, 94.14031
1184.814, 94.06959
1185.296, 94.03275
1185.778, 93.95246
1186.260, 93.80268
1186.742, 93.40714
1187.224, 93.05938
1187.707, 93.10533
1188.189, 93.47708
1188.671, 93.91921
1189.153, 94.52908
1189.635, 94.73753
1190.117, 94.11511
1190.599, 93.68963
1191.081, 93.70686
1191.564, 93.82043
1192.046, 93.83777
1192.528, 93.86163
1193.010, 94.04546
1193.492, 94.36800
1193.974, 94.68313
1194.456, 95.05119
1194.938, 95.05531
1195.421, 94.61263
1195.903, 94.13821
1196.385, 93.72797
1196.867, 93.52395
1197.349, 93.64567
1197.831, 93.98132
1198.313, 94.39274
1198.795, 94.82734
1199.277, 94.95129
1199.760, 94.84637
1200.242, 95.00539
1200.724, 95.42149
1201.206, 95.61575
1201.688, 95.41910
1202.170, 95.10838
1202.652, 94.86618
1203.134, 94.74065
1203.616, 94.88382
1204.099, 95.11086
1204.581, 95.17892
1205.063, 95.11661
1205.545, 94.91393
1206.027, 94.66589
1206.509, 94.69355
1206.991, 95.14155
1207.473, 95.48911
1207.956, 95.28141
1208.438, 95.13577
1208.920, 95.54542
1209.402, 95.96825
1209.884, 95.85894
1210.366, 95.53808
1210.848, 95.59924
1211.330, 96.02101
1211.813, 96.13543
1212.295, 95.58654
1212.777, 95.31198
1213.259, 95.46000
1213.741, 95.68519
1214.223, 95.98594
1214.705, 96.20425
1215.187, 96.21352
1215.669, 96.08961
1216.151, 95.94353
1216.634, 95.78693
1217.116, 95.86600
1217.598, 96.21241
1218.080, 96.40804
1218.562, 96.41226
1219.044, 96.23652
1219.526, 95.87791
1220.008, 95.56406
1220.491, 95.47784
1220.973, 95.54848
1221.455, 95.70260
1221.937, 95.89712
1222.419, 95.99041
1222.901, 96.03844
1223.383, 96.29663
1223.865, 96.67007
1224.348, 96.63856
1224.830, 96.06326
1225.312, 95.57316
1225.794, 95.58692
1226.276, 95.84365
1226.758, 96.28347
1227.240, 96.73376
1227.722, 97.04665
1228.204, 97.26660
1228.687, 97.56071
1229.169, 97.81933
1229.651, 97.59551
1230.133, 96.68062
1230.615, 96.04418
1231.097, 95.96602
1231.579, 96.02242
1232.061, 96.23363
1232.543, 96.43828
1233.026, 96.59516
1233.508, 96.67128
1233.990, 96.59095
1234.472, 96.41555
1234.954, 96.41203
1235.436, 96.60921
1235.918, 96.78368
1236.400, 96.93303
1236.883, 97.11478
1237.365, 97.34704
1237.847, 97.40569
1238.329, 97.16263
1238.811, 96.87782
1239.293, 96.88512
1239.775, 96.99220
1240.257, 96.67146
1240.740, 96.19352
1241.222, 96.28407
1241.704, 96.75740
1242.186, 97.04539
1242.668, 97.04131
1243.150, 96.86231
1243.632, 96.54308
1244.114, 96.27786
1244.596, 96.21404
1245.078, 96.22186
1245.561, 96.13638
1246.043, 96.16924
1246.525, 96.67802
1247.007, 97.31849
1247.489, 97.52654
1247.971, 97.33207
1248.453, 97.28275
1248.935, 97.59483
1249.418, 97.62649
1249.900, 97.11299
1250.382, 96.83688
1250.864, 97.06760
1251.346, 97.31950
1251.828, 97.31995
1252.310, 97.20605
1252.792, 97.16080
1253.275, 97.15528
1253.757, 97.04945
1254.239, 96.85612
1254.721, 96.72401
1255.203, 96.65964
1255.685, 96.66930
1256.167, 96.74250
1256.649, 96.75555
1257.131, 96.64230
1257.614, 96.66812
1258.096, 97.29513
1258.578, 97.94827
1259.060, 97.90138
1259.542, 97.53441
1260.024, 97.06525
1260.506, 96.76156
1260.988, 97.24785
1261.470, 98.30092
1261.953, 98.70224
1262.435, 97.96714
1262.917, 97.35521
1263.399, 97.30551
1263.881, 97.23890
1264.363, 96.80722
1264.845, 96.57549
1265.327, 97.06451
1265.810, 97.60734
1266.292, 97.32868
1266.774, 96.52816
1267.256, 96.47743
1267.738, 97.27769
1268.220, 97.78149
1268.702, 97.98330
1269.184, 97.90996
1269.667, 97.58303
1270.149, 97.62627
1270.631, 98.32008
1271.113, 98.94556
1271.595, 98.79585
1272.077, 98.25505
1272.559, 97.77869
1273.041, 97.37627
1273.523, 97.01635
1274.005, 96.76611
1274.488, 96.75349
1274.970, 96.95621
1275.452, 97.34483
1275.934, 97.91077
1276.416, 98.17366
1276.898, 97.66637
1277.380, 97.26974
1277.862, 97.13597
1278.345, 97.27020
1278.827, 97.98585
1279.309, 98.65876
1279.791, 98.69711
1280.273, 98.39915
1280.755, 98.44382
1281.237, 98.82504
1281.719, 99.00400
1282.202, 98.96075
1282.684, 98.99992
1283.166, 99.15117
1283.648, 99.14278
1284.130, 98.89306
1284.612, 98.63293
1285.094, 98.51912
1285.576, 98.46813
1286.058, 98.42146
1286.541, 98.32017
1287.023, 98.12382
##END=



