##NAMES=Gerstleyite
##RRUFFID=R060255
##IDEAL CHEMISTRY=Na_2_(Sb,As)_8_S_13_&#183;2H_2_O
##LOCALITY=Western mine, Boron, Kern County, California, USA
##OWNER=RRUFF
##SOURCE=Michael Scott
##DESCRIPTION=Deep red granular or platy aggregates
##STATUS=The identification of this mineral has been confirmed by single-crystal X-ray diffraction.
##URL=rruff.info/R060255
##MEASURED CHEMISTRY=Na_1.13_(Sb_8.23_Fe_0.29_As_0.18_Cu_0.01_)_Σ=8.71_S_13_(OH)·3.75H_2_O
89.60352, 38.14240
90.08563, 32.94632
90.56775, 31.80556
91.04987, 36.58797
91.53198, 43.73162
92.01410, 49.66439
92.49622, 54.37330
92.97833, 56.90173
93.46045, 55.21274
93.94257, 50.30903
94.42468, 45.56517
94.90680, 41.21215
95.38892, 37.94326
95.87103, 38.31131
96.35315, 42.77861
96.83527, 49.04613
97.31738, 55.12901
97.79950, 61.10094
98.28162, 64.86235
98.76373, 64.72334
99.24585, 60.55526
99.72797, 57.02657
100.2101, 54.36851
100.6922, 52.25816
101.1743, 49.45095
101.6564, 45.07862
102.1385, 42.30087
102.6207, 43.93282
103.1028, 52.50249
103.5849, 57.24306
104.0670, 55.42525
104.5491, 48.28669
105.0313, 45.72308
105.5134, 51.26969
105.9955, 57.70460
106.4776, 59.08193
106.9597, 49.13570
107.4418, 43.03826
107.9240, 44.41243
108.4061, 54.49582
108.8882, 62.43079
109.3703, 68.84487
109.8524, 72.87029
110.3345, 73.52792
110.8167, 66.79011
111.2988, 60.36194
111.7809, 55.92780
112.2630, 53.62041
112.7451, 53.21145
113.2272, 57.17598
113.7094, 62.73415
114.1915, 65.33361
114.6736, 58.47704
115.1557, 52.24299
115.6378, 52.11702
116.1199, 63.19318
116.6021, 73.13235
117.0842, 77.11592
117.5663, 76.51179
118.0484, 75.42927
118.5305, 73.67281
119.0126, 73.09465
119.4948, 75.35025
119.9769, 83.02316
120.4590, 91.53329
120.9411, 97.39014
121.4232, 101.0357
121.9053, 105.5896
122.3875, 112.5730
122.8696, 121.7779
123.3517, 132.9151
123.8338, 147.9767
124.3159, 163.9102
124.7980, 175.3696
125.2802, 182.1208
125.7623, 191.9089
126.2444, 210.8227
126.7265, 238.1302
127.2086, 271.8793
127.6907, 316.1315
128.1729, 365.5299
128.6550, 409.7895
129.1371, 448.5168
129.6192, 482.1172
130.1013, 508.6880
130.5834, 529.0770
131.0656, 552.0634
131.5477, 584.8009
132.0298, 625.1510
132.5119, 662.8621
132.9940, 697.8458
133.4761, 728.5621
133.9583, 750.2736
134.4404, 761.9233
134.9225, 776.4651
135.4046, 805.3786
135.8867, 849.1251
136.3688, 888.2453
136.8510, 918.1700
137.3331, 941.8951
137.8152, 973.3231
138.2973, 1013.796
138.7794, 1058.590
139.2615, 1105.067
139.7437, 1153.163
140.2258, 1201.298
140.7079, 1249.235
141.1900, 1296.810
141.6721, 1345.656
142.1542, 1397.494
142.6364, 1448.127
143.1185, 1492.858
143.6006, 1529.784
144.0827, 1563.762
144.5648, 1595.000
145.0469, 1623.407
145.5291, 1651.893
146.0112, 1682.237
146.4933, 1712.009
146.9754, 1738.235
147.4575, 1758.525
147.9396, 1777.764
148.4218, 1796.823
148.9039, 1813.538
149.3860, 1835.114
149.8681, 1865.489
150.3502, 1900.067
150.8323, 1929.824
151.3145, 1946.303
151.7966, 1964.715
152.2787, 1990.762
152.7608, 2032.070
153.2429, 2069.150
153.7250, 2099.642
154.2072, 2124.890
154.6893, 2148.667
155.1714, 2161.179
155.6535, 2161.845
156.1356, 2165.044
156.6177, 2176.499
157.0999, 2186.676
157.5820, 2193.054
158.0641, 2196.561
158.5462, 2200.920
159.0283, 2208.464
159.5104, 2216.375
159.9926, 2222.819
160.4747, 2228.708
160.9568, 2231.851
161.4389, 2229.967
161.9210, 2223.794
162.4031, 2218.815
162.8853, 2218.957
163.3674, 2220.490
163.8495, 2219.998
164.3316, 2214.291
164.8137, 2208.010
165.2958, 2203.668
165.7780, 2201.209
166.2601, 2198.534
166.7422, 2194.162
167.2243, 2188.937
167.7064, 2183.999
168.1885, 2177.762
168.6707, 2173.243
169.1528, 2173.705
169.6349, 2179.575
170.1170, 2185.285
170.5991, 2186.618
171.0812, 2185.284
171.5634, 2184.230
172.0455, 2184.748
172.5276, 2186.181
173.0097, 2188.006
173.4918, 2190.256
173.9739, 2192.576
174.4561, 2197.022
174.9382, 2201.642
175.4203, 2201.685
175.9024, 2188.731
176.3845, 2171.761
176.8666, 2164.110
177.3488, 2168.526
177.8309, 2176.727
178.3130, 2181.073
178.7951, 2181.970
179.2772, 2180.703
179.7593, 2177.329
180.2415, 2172.432
180.7236, 2166.048
181.2057, 2156.801
181.6878, 2149.500
182.1699, 2153.267
182.6520, 2166.414
183.1342, 2178.172
183.6163, 2179.149
184.0984, 2172.936
184.5805, 2170.595
185.0626, 2175.265
185.5447, 2181.892
186.0269, 2181.125
186.5090, 2173.211
186.9911, 2164.564
187.4732, 2158.654
187.9553, 2155.516
188.4374, 2156.425
188.9196, 2163.365
189.4017, 2172.497
189.8838, 2174.750
190.3659, 2169.883
190.8480, 2163.589
191.3301, 2159.833
191.8123, 2158.460
192.2944, 2158.343
192.7765, 2159.750
193.2586, 2162.000
193.7407, 2162.859
194.2228, 2162.198
194.7050, 2161.226
195.1871, 2160.278
195.6692, 2159.372
196.1513, 2161.091
196.6334, 2167.077
197.1155, 2175.779
197.5977, 2181.138
198.0798, 2182.734
198.5619, 2182.494
199.0440, 2181.814
199.5261, 2180.632
200.0082, 2179.627
200.4904, 2178.509
200.9725, 2177.596
201.4546, 2179.555
201.9367, 2185.212
202.4188, 2191.359
202.9009, 2194.672
203.3831, 2194.877
203.8652, 2194.176
204.3473, 2192.688
204.8294, 2190.561
205.3115, 2189.381
205.7936, 2188.955
206.2758, 2189.876
206.7579, 2194.178
207.2400, 2203.564
207.7221, 2208.440
208.2042, 2204.603
208.6863, 2192.336
209.1685, 2185.219
209.6506, 2183.429
210.1327, 2186.338
210.6148, 2195.256
211.0969, 2213.371
211.5790, 2226.187
212.0612, 2227.713
212.5433, 2217.579
213.0254, 2214.952
213.5075, 2222.376
213.9896, 2233.838
214.4717, 2241.616
214.9538, 2243.879
215.4360, 2247.723
215.9181, 2256.219
216.4002, 2269.890
216.8823, 2278.334
217.3644, 2279.817
217.8465, 2278.008
218.3287, 2276.644
218.8108, 2273.893
219.2929, 2276.078
219.7750, 2287.110
220.2571, 2308.930
220.7392, 2321.378
221.2214, 2319.218
221.7035, 2313.101
222.1856, 2317.485
222.6677, 2337.464
223.1498, 2357.241
223.6319, 2372.306
224.1141, 2382.384
224.5962, 2391.202
225.0783, 2398.171
225.5604, 2404.286
226.0425, 2411.147
226.5246, 2419.689
227.0068, 2426.930
227.4889, 2430.673
227.9710, 2429.494
228.4531, 2435.220
228.9352, 2451.764
229.4173, 2471.901
229.8995, 2485.516
230.3816, 2489.761
230.8637, 2492.826
231.3458, 2496.280
231.8279, 2499.834
232.3100, 2506.524
232.7922, 2519.745
233.2743, 2533.337
233.7564, 2538.381
234.2385, 2527.994
234.7206, 2521.300
235.2027, 2524.937
235.6849, 2541.386
236.1670, 2551.982
236.6491, 2555.121
237.1312, 2553.750
237.6133, 2551.314
238.0954, 2546.969
238.5776, 2542.919
239.0597, 2539.146
239.5418, 2535.205
240.0239, 2535.260
240.5060, 2542.182
240.9881, 2550.739
241.4703, 2553.977
241.9524, 2548.374
242.4345, 2543.946
242.9166, 2544.322
243.3987, 2550.828
243.8808, 2551.425
244.3630, 2541.659
244.8451, 2529.875
245.3272, 2526.855
245.8093, 2538.992
246.2914, 2548.092
246.7735, 2548.448
247.2557, 2538.642
247.7378, 2534.976
248.2199, 2540.263
248.7020, 2548.852
249.1841, 2554.359
249.6662, 2554.769
250.1484, 2555.959
250.6305, 2559.591
251.1126, 2565.808
251.5947, 2570.350
252.0768, 2571.590
252.5589, 2572.756
253.0411, 2577.533
253.5232, 2587.644
254.0053, 2597.434
254.4874, 2605.506
254.9695, 2611.853
255.4516, 2619.655
255.9338, 2630.229
256.4159, 2640.699
256.8980, 2647.703
257.3801, 2649.363
257.8622, 2652.541
258.3444, 2659.428
258.8265, 2669.833
259.3086, 2676.154
259.7907, 2675.212
260.2728, 2674.717
260.7549, 2682.756
261.2371, 2704.138
261.7192, 2720.648
262.2013, 2727.854
262.6834, 2726.790
263.1655, 2726.606
263.6476, 2725.187
264.1298, 2728.138
264.6119, 2742.533
265.0940, 2773.971
265.5761, 2796.849
266.0582, 2804.028
266.5403, 2799.063
267.0225, 2803.937
267.5046, 2822.761
267.9867, 2842.703
268.4688, 2853.276
268.9509, 2851.688
269.4330, 2853.175
269.9152, 2860.257
270.3973, 2871.606
270.8794, 2881.061
271.3615, 2887.231
271.8436, 2895.309
272.3257, 2910.166
272.8079, 2933.587
273.2900, 2952.337
273.7721, 2964.544
274.2542, 2971.915
274.7363, 2978.428
275.2184, 2983.128
275.7006, 2990.742
276.1827, 3005.183
276.6648, 3027.190
277.1469, 3047.444
277.6290, 3064.456
278.1111, 3080.358
278.5933, 3100.087
279.0754, 3124.294
279.5575, 3149.511
280.0396, 3174.602
280.5217, 3199.344
281.0038, 3222.037
281.4860, 3242.237
281.9681, 3260.886
282.4502, 3279.677
282.9323, 3298.624
283.4144, 3316.955
283.8965, 3336.705
284.3787, 3356.915
284.8608, 3367.127
285.3429, 3365.789
285.8250, 3358.345
286.3071, 3353.266
286.7892, 3350.443
287.2714, 3343.669
287.7535, 3328.427
288.2356, 3306.197
288.7177, 3285.963
289.1998, 3267.541
289.6819, 3250.974
290.1641, 3237.433
290.6462, 3226.478
291.1283, 3214.365
291.6104, 3199.354
292.0925, 3182.225
292.5746, 3165.641
293.0568, 3149.553
293.5389, 3133.530
294.0210, 3118.313
294.5031, 3103.209
294.9852, 3085.393
295.4673, 3062.357
295.9495, 3037.097
296.4316, 3015.700
296.9137, 2998.177
297.3958, 2982.907
297.8779, 2971.663
298.3600, 2961.841
298.8422, 2945.732
299.3243, 2916.845
299.8064, 2885.729
300.2885, 2868.601
300.7706, 2863.974
301.2527, 2861.187
301.7349, 2852.999
302.2170, 2841.520
302.6991, 2830.583
303.1812, 2821.234
303.6633, 2811.964
304.1454, 2799.790
304.6276, 2785.917
305.1097, 2774.403
305.5918, 2771.627
306.0739, 2771.161
306.5560, 2763.998
307.0381, 2746.125
307.5203, 2729.253
308.0024, 2725.313
308.4845, 2729.961
308.9666, 2733.016
309.4487, 2729.294
309.9308, 2721.800
310.4130, 2711.985
310.8951, 2699.391
311.3772, 2688.587
311.8593, 2684.467
312.3414, 2683.883
312.8235, 2681.774
313.3057, 2675.602
313.7878, 2667.614
314.2699, 2657.905
314.7520, 2646.348
315.2341, 2637.434
315.7162, 2635.169
316.1984, 2636.115
316.6805, 2636.446
317.1626, 2632.725
317.6447, 2630.182
318.1268, 2631.079
318.6089, 2635.329
319.0911, 2640.732
319.5732, 2649.149
320.0553, 2657.083
320.5374, 2661.771
321.0195, 2659.501
321.5016, 2657.382
321.9838, 2657.743
322.4659, 2659.885
322.9480, 2660.335
323.4301, 2655.656
323.9122, 2651.065
324.3943, 2649.508
324.8765, 2654.728
325.3586, 2657.940
325.8407, 2658.050
326.3228, 2655.564
326.8049, 2651.780
327.2870, 2644.004
327.7692, 2637.348
328.2513, 2634.308
328.7334, 2638.913
329.2155, 2637.834
329.6976, 2627.251
330.1797, 2612.211
330.6619, 2600.609
331.1440, 2593.028
331.6261, 2588.026
332.1082, 2585.999
332.5903, 2587.659
333.0724, 2587.659
333.5546, 2586.380
334.0367, 2583.083
334.5188, 2576.442
335.0009, 2564.104
335.4830, 2553.898
335.9651, 2549.039
336.4473, 2548.626
336.9294, 2540.785
337.4115, 2522.379
337.8936, 2502.805
338.3757, 2491.816
338.8578, 2492.774
339.3399, 2484.179
339.8221, 2460.161
340.3042, 2426.348
340.7863, 2402.731
341.2684, 2390.785
341.7505, 2380.103
342.2326, 2363.871
342.7148, 2342.278
343.1969, 2321.344
343.6790, 2301.763
344.1611, 2282.768
344.6432, 2262.741
345.1253, 2241.686
345.6075, 2222.586
346.0896, 2208.396
346.5717, 2197.549
347.0538, 2183.749
347.5359, 2166.421
348.0180, 2148.018
348.5002, 2130.507
348.9823, 2114.063
349.4644, 2099.459
349.9465, 2087.108
350.4286, 2076.777
350.9107, 2068.307
351.3929, 2061.737
351.8750, 2055.942
352.3571, 2051.856
352.8392, 2047.720
353.3213, 2039.837
353.8034, 2025.171
354.2856, 2009.557
354.7677, 1998.448
355.2498, 1991.336
355.7319, 1985.860
356.2140, 1980.818
356.6961, 1976.573
357.1783, 1974.092
357.6604, 1974.741
358.1425, 1973.441
358.6246, 1964.515
359.1067, 1951.406
359.5888, 1940.775
360.0710, 1935.817
360.5531, 1933.890
361.0352, 1934.342
361.5173, 1937.496
361.9994, 1939.418
362.4815, 1937.302
362.9637, 1933.685
363.4458, 1931.286
363.9279, 1932.959
364.4100, 1933.840
364.8921, 1931.903
365.3742, 1927.374
365.8564, 1923.641
366.3385, 1921.651
366.8206, 1920.379
367.3027, 1919.209
367.7848, 1919.942
368.2669, 1918.551
368.7491, 1913.555
369.2312, 1906.235
369.7133, 1900.271
370.1954, 1895.606
370.6775, 1892.428
371.1596, 1891.608
371.6418, 1895.764
372.1239, 1894.526
372.6060, 1885.312
373.0881, 1872.624
373.5702, 1862.229
374.0523, 1853.131
374.5345, 1848.843
375.0166, 1852.069
375.4987, 1862.631
375.9808, 1867.819
376.4629, 1866.788
376.9450, 1862.148
377.4272, 1854.930
377.9093, 1844.479
378.3914, 1837.201
378.8735, 1834.772
379.3556, 1835.673
379.8377, 1836.099
380.3199, 1836.090
380.8020, 1834.954
381.2841, 1832.317
381.7662, 1828.190
382.2483, 1822.047
382.7304, 1813.084
383.2126, 1804.521
383.6947, 1802.359
384.1768, 1805.184
384.6589, 1805.844
385.1410, 1799.344
385.6231, 1789.167
386.1053, 1779.943
386.5874, 1771.747
387.0695, 1766.748
387.5516, 1770.853
388.0337, 1778.736
388.5158, 1780.835
388.9980, 1769.435
389.4801, 1756.358
389.9622, 1751.910
390.4443, 1754.540
390.9264, 1757.789
391.4085, 1757.932
391.8907, 1757.294
392.3728, 1757.992
392.8549, 1761.162
393.3370, 1763.650
393.8191, 1763.916
394.3012, 1762.616
394.7834, 1760.862
395.2655, 1758.783
395.7476, 1756.473
396.2297, 1753.391
396.7118, 1749.175
397.1939, 1747.031
397.6761, 1750.022
398.1582, 1753.949
398.6403, 1755.309
399.1224, 1752.184
399.6045, 1748.374
400.0866, 1742.463
400.5688, 1735.484
401.0509, 1734.029
401.5330, 1743.253
402.0151, 1751.752
402.4972, 1753.588
402.9793, 1745.238
403.4615, 1739.509
403.9436, 1737.412
404.4257, 1737.120
404.9078, 1734.985
405.3899, 1729.876
405.8720, 1727.267
406.3542, 1730.133
406.8363, 1737.844
407.3184, 1741.217
407.8005, 1739.359
408.2826, 1736.850
408.7647, 1739.866
409.2469, 1747.652
409.7290, 1749.961
410.2111, 1742.963
410.6932, 1731.886
411.1753, 1726.188
411.6574, 1725.719
412.1396, 1728.461
412.6217, 1737.241
413.1038, 1747.520
413.5859, 1749.212
414.0680, 1740.220
414.5501, 1729.992
415.0323, 1728.014
415.5144, 1731.255
415.9965, 1733.739
416.4786, 1733.272
416.9607, 1730.751
417.4428, 1725.490
417.9250, 1717.962
418.4071, 1712.104
418.8892, 1710.881
419.3713, 1711.803
419.8534, 1712.641
420.3355, 1711.396
420.8177, 1712.500
421.2998, 1720.639
421.7819, 1732.066
422.2640, 1738.842
422.7461, 1735.327
423.2282, 1730.299
423.7104, 1726.402
424.1925, 1723.651
424.6746, 1722.956
425.1567, 1726.757
425.6388, 1731.170
426.1209, 1732.809
426.6031, 1730.804
427.0852, 1727.120
427.5673, 1720.275
428.0494, 1711.546
428.5315, 1709.019
429.0136, 1715.201
429.4958, 1722.217
429.9779, 1726.170
430.4600, 1727.006
430.9421, 1723.974
431.4242, 1715.291
431.9063, 1706.068
432.3885, 1706.352
432.8706, 1716.290
433.3527, 1722.681
433.8348, 1718.352
434.3169, 1707.825
434.7990, 1705.811
435.2812, 1712.364
435.7633, 1719.790
436.2454, 1720.840
436.7275, 1717.863
437.2096, 1716.552
437.6917, 1718.590
438.1739, 1721.167
438.6560, 1721.938
439.1381, 1720.922
439.6202, 1718.152
440.1023, 1709.919
440.5844, 1702.425
441.0666, 1702.276
441.5487, 1710.194
442.0308, 1716.591
442.5129, 1714.781
442.9950, 1709.967
443.4771, 1707.120
443.9593, 1710.434
444.4414, 1712.784
444.9235, 1710.936
445.4056, 1706.360
445.8877, 1704.247
446.3698, 1707.504
446.8520, 1711.466
447.3341, 1714.536
447.8162, 1716.882
448.2983, 1717.565
448.7804, 1716.045
449.2625, 1713.193
449.7447, 1709.587
450.2268, 1703.590
450.7089, 1700.743
451.1910, 1703.205
451.6731, 1709.715
452.1552, 1713.568
452.6374, 1714.298
453.1195, 1713.938
453.6016, 1714.313
454.0837, 1715.340
454.5658, 1712.402
455.0479, 1703.954
455.5301, 1695.508
456.0122, 1696.450
456.4943, 1705.323
456.9764, 1713.262
457.4585, 1717.414
457.9406, 1718.413
458.4228, 1716.055
458.9049, 1710.730
459.3870, 1706.143
459.8691, 1705.951
460.3512, 1707.705
460.8333, 1707.915
461.3155, 1704.823
461.7976, 1703.132
462.2797, 1708.409
462.7618, 1716.839
463.2439, 1721.677
463.7260, 1715.709
464.2082, 1709.818
464.6903, 1710.299
465.1724, 1717.316
465.6545, 1721.138
466.1366, 1715.337
466.6187, 1708.564
467.1009, 1706.486
467.5830, 1715.279
468.0651, 1720.856
468.5472, 1722.061
469.0293, 1720.336
469.5114, 1718.146
469.9936, 1714.063
470.4757, 1712.507
470.9578, 1716.423
471.4399, 1725.700
471.9220, 1727.877
472.4041, 1721.143
472.8863, 1712.650
473.3684, 1708.761
473.8505, 1709.376
474.3326, 1711.083
474.8147, 1713.953
475.2968, 1716.574
475.7790, 1715.447
476.2611, 1711.237
476.7432, 1708.400
477.2253, 1712.550
477.7074, 1718.217
478.1895, 1714.680
478.6717, 1701.866
479.1538, 1690.297
479.6359, 1689.266
480.1180, 1693.657
480.6001, 1697.049
481.0822, 1696.995
481.5644, 1697.031
482.0465, 1699.503
482.5286, 1703.414
483.0107, 1706.588
483.4928, 1708.004
483.9749, 1708.848
484.4571, 1709.215
484.9392, 1708.898
485.4213, 1709.824
485.9034, 1713.539
486.3855, 1717.605
486.8676, 1720.436
487.3498, 1721.756
487.8319, 1722.280
488.3140, 1722.275
488.7961, 1721.355
489.2782, 1718.031
489.7603, 1711.238
490.2425, 1705.699
490.7246, 1704.167
491.2067, 1706.069
491.6888, 1704.212
492.1709, 1697.905
492.6530, 1692.040
493.1352, 1691.859
493.6173, 1696.177
494.0994, 1699.958
494.5815, 1701.997
495.0636, 1703.854
495.5457, 1709.081
496.0279, 1716.056
496.5100, 1719.902
496.9921, 1715.665
497.4742, 1708.938
497.9563, 1704.230
498.4384, 1701.640
498.9206, 1700.566
499.4027, 1703.119
499.8848, 1705.620
500.3669, 1704.750
500.8490, 1696.330
501.3311, 1690.308
501.8133, 1689.878
502.2954, 1693.073
502.7775, 1696.187
503.2596, 1701.532
503.7417, 1703.730
504.2238, 1699.604
504.7060, 1689.357
505.1881, 1685.828
505.6702, 1692.090
506.1523, 1700.067
506.6344, 1704.611
507.1165, 1705.480
507.5987, 1704.383
508.0808, 1701.008
508.5629, 1696.559
509.0450, 1692.253
509.5271, 1688.210
510.0092, 1685.999
510.4914, 1686.613
510.9735, 1689.150
511.4556, 1692.192
511.9377, 1695.654
512.4199, 1698.977
512.9020, 1702.128
513.3841, 1704.762
513.8662, 1706.446
514.3483, 1707.084
514.8304, 1706.906
515.3126, 1704.906
515.7947, 1702.521
516.2768, 1701.553
516.7589, 1703.684
517.2410, 1706.086
517.7231, 1708.492
518.2053, 1710.630
518.6874, 1711.297
519.1695, 1709.075
519.6516, 1706.514
520.1337, 1704.535
520.6158, 1703.320
521.0980, 1701.775
521.5801, 1699.471
522.0622, 1697.431
522.5443, 1696.744
523.0264, 1697.594
523.5085, 1698.781
523.9907, 1700.107
524.4728, 1701.688
524.9549, 1704.227
525.4370, 1707.667
525.9191, 1710.281
526.4012, 1710.614
526.8834, 1709.656
527.3655, 1710.110
527.8476, 1711.921
528.3297, 1712.431
528.8118, 1706.556
529.2939, 1699.312
529.7761, 1697.669
530.2582, 1705.710
530.7403, 1713.516
531.2224, 1714.891
531.7045, 1712.475
532.1866, 1710.618
532.6688, 1712.579
533.1509, 1713.158
533.6330, 1708.637
534.1151, 1699.451
534.5972, 1696.344
535.0793, 1704.926
535.5615, 1713.852
536.0436, 1717.521
536.5257, 1714.370
537.0078, 1711.499
537.4899, 1708.746
537.9720, 1706.591
538.4542, 1705.966
538.9363, 1706.992
539.4184, 1707.934
539.9005, 1708.795
540.3826, 1708.926
540.8647, 1705.812
541.3469, 1699.994
541.8290, 1695.536
542.3111, 1696.427
542.7932, 1699.362
543.2753, 1698.661
543.7574, 1694.180
544.2396, 1690.799
544.7217, 1693.066
545.2038, 1697.519
545.6859, 1700.549
546.1680, 1700.213
546.6501, 1700.368
547.1323, 1702.903
547.6144, 1706.638
548.0965, 1709.576
548.5786, 1711.138
549.0607, 1712.187
549.5428, 1713.251
550.0250, 1714.169
550.5071, 1712.723
550.9892, 1706.987
551.4713, 1702.400
551.9534, 1703.304
552.4355, 1710.795
552.9177, 1711.196
553.3998, 1702.572
553.8819, 1692.835
554.3640, 1693.072
554.8461, 1701.306
555.3282, 1706.174
555.8104, 1703.841
556.2925, 1698.629
556.7746, 1694.452
557.2567, 1691.899
557.7388, 1692.829
558.2209, 1702.490
558.7031, 1712.905
559.1852, 1717.889
559.6673, 1717.369
560.1494, 1714.555
560.6315, 1707.999
561.1136, 1701.491
561.5958, 1697.449
562.0779, 1696.210
562.5600, 1697.587
563.0421, 1704.543
563.5242, 1712.382
564.0063, 1714.892
564.4885, 1709.592
564.9706, 1704.522
565.4527, 1700.525
565.9348, 1697.938
566.4169, 1698.135
566.8990, 1701.291
567.3812, 1705.584
567.8633, 1711.915
568.3454, 1718.738
568.8275, 1719.003
569.3096, 1712.521
569.7917, 1706.505
570.2739, 1708.709
570.7560, 1715.014
571.2381, 1719.176
571.7202, 1719.705
572.2023, 1718.780
572.6844, 1716.936
573.1666, 1714.779
573.6487, 1713.173
574.1308, 1713.004
574.6129, 1712.831
575.0950, 1712.335
575.5771, 1711.512
576.0593, 1710.347
576.5414, 1708.260
577.0235, 1706.517
577.5056, 1705.108
577.9877, 1703.738
578.4698, 1706.363
578.9520, 1714.479
579.4341, 1722.849
579.9162, 1726.537
580.3983, 1725.785
580.8804, 1724.235
581.3625, 1722.179
581.8447, 1720.052
582.3268, 1719.113
582.8089, 1718.684
583.2910, 1716.610
583.7731, 1708.194
584.2552, 1701.267
584.7373, 1705.669
585.2194, 1718.322
585.7015, 1727.658
586.1837, 1728.600
586.6658, 1724.725
587.1479, 1715.282
587.6300, 1698.315
588.1121, 1689.473
588.5942, 1697.832
589.0764, 1709.627
589.5585, 1716.023
590.0406, 1714.243
590.5227, 1713.459
591.0048, 1713.684
591.4869, 1715.332
591.9691, 1720.475
592.4512, 1729.415
592.9333, 1734.653
593.4154, 1733.502
593.8975, 1728.085
594.3796, 1720.936
594.8618, 1712.781
595.3439, 1707.587
595.8260, 1711.081
596.3081, 1716.837
596.7902, 1716.190
597.2723, 1709.076
597.7545, 1704.802
598.2366, 1712.965
598.7187, 1723.132
599.2008, 1726.733
599.6829, 1717.857
600.1650, 1712.335
600.6472, 1715.457
601.1293, 1721.747
601.6114, 1725.217
602.0935, 1724.789
602.5756, 1723.639
603.0577, 1721.866
603.5399, 1719.871
604.0220, 1719.046
604.5041, 1719.623
604.9862, 1719.135
605.4683, 1715.542
605.9504, 1710.327
606.4326, 1707.872
606.9147, 1708.055
607.3968, 1709.288
607.8789, 1711.001
608.3610, 1712.815
608.8431, 1714.538
609.3253, 1716.322
609.8074, 1716.675
610.2895, 1712.226
610.7716, 1707.219
611.2537, 1705.725
611.7358, 1714.774
612.2180, 1719.552
612.7001, 1713.922
613.1822, 1704.481
613.6643, 1702.973
614.1464, 1714.490
614.6285, 1722.627
615.1107, 1722.361
615.5928, 1716.135
616.0749, 1714.820
616.5570, 1718.794
617.0391, 1722.687
617.5212, 1723.120
618.0034, 1721.090
618.4855, 1718.700
618.9676, 1715.990
619.4497, 1714.415
619.9318, 1716.365
620.4139, 1719.459
620.8961, 1720.839
621.3782, 1719.557
621.8603, 1717.974
622.3424, 1716.619
622.8245, 1715.723
623.3066, 1715.554
623.7888, 1718.047
624.2709, 1718.865
624.7530, 1717.102
625.2351, 1713.582
625.7172, 1709.358
626.1993, 1702.486
626.6815, 1701.331
627.1636, 1711.262
627.6457, 1728.357
628.1278, 1735.131
628.6099, 1731.552
629.0920, 1726.164
629.5742, 1725.153
630.0563, 1725.974
630.5384, 1723.172
631.0205, 1716.452
631.5026, 1710.609
631.9847, 1709.276
632.4669, 1710.385
632.9490, 1712.289
633.4311, 1715.781
633.9132, 1717.387
634.3953, 1714.119
634.8774, 1709.354
635.3596, 1707.319
635.8417, 1710.269
636.3238, 1712.199
636.8059, 1712.073
637.2880, 1710.728
637.7701, 1710.240
638.2523, 1710.709
638.7344, 1711.245
639.2165, 1711.956
639.6986, 1712.271
640.1807, 1709.486
640.6628, 1704.030
641.1450, 1700.243
641.6271, 1702.565
642.1092, 1707.183
642.5913, 1710.263
643.0734, 1711.552
643.5555, 1711.030
644.0377, 1707.165
644.5198, 1702.494
645.0019, 1698.789
645.4840, 1695.906
645.9661, 1694.991
646.4482, 1697.265
646.9304, 1700.567
647.4125, 1702.708
647.8946, 1703.643
648.3767, 1703.416
648.8588, 1701.521
649.3409, 1699.164
649.8231, 1698.717
650.3052, 1700.038
650.7873, 1701.887
651.2694, 1705.006
651.7515, 1707.258
652.2336, 1703.744
652.7158, 1696.212
653.1979, 1690.858
653.6800, 1692.335
654.1621, 1696.065
654.6442, 1700.292
655.1263, 1704.815
655.6085, 1706.654
656.0906, 1702.480
656.5727, 1697.669
657.0548, 1694.576
657.5369, 1692.940
658.0190, 1694.736
658.5012, 1701.798
658.9833, 1708.900
659.4654, 1710.144
659.9475, 1705.787
660.4296, 1703.670
660.9117, 1705.529
661.3939, 1707.144
661.8760, 1701.026
662.3581, 1690.621
662.8402, 1684.119
663.3223, 1685.801
663.8044, 1689.985
664.2866, 1693.748
664.7687, 1697.013
665.2508, 1699.691
665.7329, 1704.297
666.2150, 1705.666
666.6971, 1699.574
667.1793, 1688.041
667.6614, 1681.917
668.1435, 1683.257
668.6256, 1685.782
669.1077, 1686.923
669.5898, 1686.889
670.0720, 1688.544
670.5541, 1692.127
671.0362, 1694.554
671.5183, 1692.435
672.0004, 1687.676
672.4825, 1683.897
672.9647, 1681.320
673.4468, 1680.523
673.9289, 1683.168
674.4110, 1687.114
674.8931, 1690.258
675.3752, 1692.350
675.8574, 1693.288
676.3395, 1692.312
676.8216, 1690.506
677.3037, 1688.945
677.7858, 1686.997
678.2679, 1687.139
678.7501, 1690.920
679.2322, 1695.702
679.7143, 1695.109
680.1964, 1689.255
680.6785, 1685.746
681.1606, 1688.391
681.6428, 1693.557
682.1249, 1695.305
682.6070, 1694.260
683.0891, 1692.638
683.5712, 1691.533
684.0533, 1690.308
684.5355, 1688.458
685.0176, 1686.013
685.4997, 1683.386
685.9818, 1677.422
686.4639, 1674.456
686.9460, 1678.427
687.4282, 1690.672
687.9103, 1697.148
688.3924, 1696.060
688.8745, 1693.522
689.3566, 1695.136
689.8387, 1700.262
690.3209, 1699.318
690.8030, 1691.008
691.2851, 1683.515
691.7672, 1688.895
692.2493, 1699.873
692.7314, 1703.635
693.2136, 1695.189
693.6957, 1686.228
694.1778, 1684.358
694.6599, 1685.521
695.1420, 1684.721
695.6241, 1675.404
696.1063, 1671.598
696.5884, 1678.904
697.0705, 1690.222
697.5526, 1690.638
698.0347, 1676.414
698.5168, 1666.749
698.9990, 1667.507
699.4811, 1674.599
699.9632, 1679.039
700.4453, 1681.055
700.9274, 1681.950
701.4095, 1682.051
701.8917, 1681.584
702.3738, 1680.000
702.8559, 1677.802
703.3380, 1677.275
703.8201, 1682.730
704.3022, 1687.179
704.7844, 1686.710
705.2665, 1680.831
705.7486, 1674.697
706.2307, 1666.139
706.7128, 1660.540
707.1949, 1661.384
707.6771, 1668.822
708.1592, 1677.362
708.6413, 1687.562
709.1234, 1695.129
709.6055, 1694.255
710.0876, 1688.137
710.5698, 1683.554
711.0519, 1681.185
711.5340, 1681.613
712.0161, 1689.888
712.4982, 1698.804
712.9803, 1700.082
713.4625, 1684.714
713.9446, 1675.547
714.4267, 1683.768
714.9088, 1696.442
715.3909, 1700.161
715.8730, 1691.513
716.3552, 1683.936
716.8373, 1679.077
717.3194, 1675.715
717.8015, 1670.924
718.2836, 1665.283
718.7657, 1664.038
719.2479, 1671.399
719.7300, 1679.462
720.2121, 1676.728
720.6942, 1667.703
721.1763, 1662.413
721.6584, 1669.149
722.1406, 1676.419
722.6227, 1679.920
723.1048, 1680.017
723.5869, 1678.334
724.0690, 1673.072
724.5511, 1669.064
725.0333, 1667.689
725.5154, 1668.699
725.9975, 1671.435
726.4796, 1676.171
726.9617, 1679.760
727.4438, 1680.427
727.9260, 1678.801
728.4081, 1675.041
728.8902, 1669.575
729.3723, 1665.699
729.8544, 1666.113
730.3365, 1668.386
730.8187, 1671.738
731.3008, 1676.302
731.7829, 1677.892
732.2650, 1672.649
732.7471, 1667.016
733.2292, 1663.753
733.7114, 1662.969
734.1935, 1664.103
734.6756, 1667.343
735.1577, 1671.810
735.6398, 1678.771
736.1219, 1686.558
736.6041, 1687.426
737.0862, 1680.024
737.5683, 1672.600
738.0504, 1673.019
738.5325, 1677.117
739.0146, 1680.739
739.4968, 1684.114
739.9789, 1684.065
740.4610, 1675.475
740.9431, 1665.424
741.4252, 1661.104
741.9073, 1665.193
742.3895, 1668.286
742.8716, 1669.576
743.3537, 1670.132
743.8358, 1670.970
744.3179, 1672.219
744.8000, 1675.645
745.2822, 1682.800
745.7643, 1689.181
746.2464, 1688.961
746.7285, 1684.516
747.2106, 1679.889
747.6927, 1674.731
748.1749, 1671.787
748.6570, 1673.816
749.1391, 1678.397
749.6212, 1680.336
750.1033, 1677.593
750.5854, 1675.956
751.0676, 1676.607
751.5497, 1678.817
752.0318, 1682.298
752.5139, 1686.911
752.9960, 1686.140
753.4781, 1673.609
753.9603, 1658.769
754.4424, 1656.051
754.9245, 1662.552
755.4066, 1669.863
755.8887, 1677.960
756.3708, 1682.170
756.8530, 1676.764
757.3351, 1664.432
757.8172, 1659.270
758.2993, 1666.629
758.7814, 1673.685
759.2635, 1677.253
759.7457, 1677.448
760.2278, 1673.496
760.7099, 1665.099
761.1920, 1659.178
761.6741, 1661.559
762.1563, 1667.981
762.6384, 1671.398
763.1205, 1672.129
763.6026, 1672.044
764.0847, 1671.232
764.5668, 1670.706
765.0490, 1671.146
765.5311, 1672.599
766.0132, 1674.388
766.4953, 1677.571
766.9774, 1679.580
767.4595, 1679.487
767.9417, 1677.291
768.4238, 1671.466
768.9059, 1661.548
769.3880, 1654.248
769.8701, 1656.715
770.3522, 1664.131
770.8344, 1667.959
771.3165, 1667.938
771.7986, 1667.180
772.2807, 1667.125
772.7628, 1667.230
773.2449, 1666.739
773.7271, 1665.176
774.2092, 1665.869
774.6913, 1670.439
775.1734, 1675.171
775.6555, 1678.483
776.1376, 1680.481
776.6198, 1677.615
777.1019, 1669.235
777.5840, 1662.473
778.0661, 1667.251
778.5482, 1676.547
779.0303, 1676.460
779.5125, 1665.175
779.9946, 1655.615
780.4767, 1656.846
780.9588, 1661.569
781.4409, 1664.373
781.9230, 1663.474
782.4052, 1664.338
782.8873, 1668.869
783.3694, 1672.426
783.8515, 1669.533
784.3336, 1660.138
784.8157, 1659.208
785.2979, 1668.183
785.7800, 1678.105
786.2621, 1678.970
786.7442, 1675.653
787.2263, 1676.917
787.7084, 1685.252
788.1906, 1690.345
788.6727, 1683.091
789.1548, 1673.324
789.6369, 1669.216
790.1190, 1673.004
790.6011, 1678.250
791.0833, 1686.620
791.5654, 1693.627
792.0475, 1693.984
792.5296, 1688.286
793.0117, 1683.243
793.4938, 1679.221
793.9760, 1676.982
794.4581, 1679.736
794.9402, 1683.639
795.4223, 1682.323
795.9044, 1672.607
796.3865, 1666.294
796.8687, 1671.050
797.3508, 1678.726
797.8329, 1682.482
798.3150, 1680.693
798.7971, 1679.112
799.2792, 1677.860
799.7614, 1676.626
800.2435, 1674.363
800.7256, 1671.651
801.2077, 1671.718
801.6898, 1675.193
802.1719, 1679.145
802.6541, 1681.363
803.1362, 1682.394
803.6183, 1682.364
804.1004, 1679.962
804.5825, 1680.432
805.0646, 1689.752
805.5468, 1698.739
806.0289, 1699.777
806.5110, 1690.105
806.9931, 1684.488
807.4752, 1684.002
807.9573, 1685.241
808.4395, 1684.774
808.9216, 1683.214
809.4037, 1681.878
809.8858, 1680.839
810.3679, 1681.098
810.8500, 1685.357
811.3322, 1690.051
811.8143, 1691.697
812.2964, 1688.054
812.7785, 1685.676
813.2606, 1685.115
813.7427, 1685.601
814.2249, 1686.606
814.7070, 1688.151
815.1891, 1690.255
815.6712, 1693.046
816.1533, 1695.525
816.6354, 1696.867
817.1176, 1697.198
817.5997, 1696.493
818.0818, 1694.602
818.5639, 1692.865
819.0460, 1691.724
819.5281, 1691.110
820.0103, 1690.774
820.4924, 1690.135
820.9745, 1692.442
821.4566, 1699.562
821.9387, 1705.578
822.4208, 1703.728
822.9030, 1695.834
823.3851, 1692.684
823.8672, 1694.866
824.3493, 1697.974
824.8314, 1697.970
825.3135, 1697.341
825.7957, 1699.398
826.2778, 1705.246
826.7599, 1707.960
827.2420, 1703.998
827.7241, 1698.287
828.2062, 1692.801
828.6884, 1687.506
829.1705, 1683.320
829.6526, 1680.065
830.1347, 1679.271
830.6168, 1684.954
831.0989, 1693.025
831.5811, 1693.832
832.0632, 1687.436
832.5453, 1682.803
833.0274, 1687.540
833.5095, 1693.897
833.9916, 1696.265
834.4738, 1693.622
834.9559, 1694.987
835.4380, 1703.738
835.9201, 1709.872
836.4022, 1707.130
836.8843, 1697.144
837.3665, 1689.972
837.8486, 1685.580
838.3307, 1683.167
838.8128, 1682.752
839.2949, 1683.690
839.7770, 1685.562
840.2592, 1688.295
840.7413, 1691.426
841.2234, 1697.315
841.7055, 1700.722
842.1876, 1698.654
842.6697, 1692.376
843.1519, 1690.226
843.6340, 1692.684
844.1161, 1695.825
844.5982, 1697.792
845.0803, 1699.328
845.5624, 1702.096
846.0446, 1705.749
846.5267, 1709.077
847.0088, 1712.511
847.4909, 1714.427
847.9730, 1713.424
848.4551, 1710.140
848.9373, 1707.089
849.4194, 1704.415
849.9015, 1701.710
850.3836, 1698.479
850.8657, 1695.645
851.3478, 1695.604
851.8300, 1698.097
852.3121, 1701.722
852.7942, 1707.332
853.2763, 1711.706
853.7584, 1710.906
854.2405, 1707.136
854.7227, 1704.253
855.2048, 1704.825
855.6869, 1704.290
856.1690, 1701.171
856.6511, 1697.411
857.1332, 1696.223
857.6154, 1697.800
858.0975, 1698.320
858.5796, 1696.765
859.0617, 1695.149
859.5438, 1696.264
860.0259, 1699.043
860.5081, 1701.808
860.9902, 1704.591
861.4723, 1706.131
861.9544, 1704.183
862.4365, 1701.798
862.9186, 1702.258
863.4008, 1707.248
863.8829, 1709.787
864.3650, 1709.325
864.8471, 1707.513
865.3292, 1706.069
865.8113, 1704.619
866.2935, 1701.655
866.7756, 1696.845
867.2577, 1692.936
867.7398, 1691.657
868.2219, 1692.087
868.7040, 1693.916
869.1862, 1697.799
869.6683, 1699.790
870.1504, 1699.009
870.6325, 1697.894
871.1146, 1697.682
871.5967, 1698.395
872.0789, 1700.422
872.5610, 1703.734
873.0431, 1707.323
873.5252, 1712.186
874.0073, 1715.743
874.4894, 1714.491
874.9716, 1708.921
875.4537, 1704.944
875.9358, 1703.623
876.4179, 1704.848
876.9000, 1710.196
877.3821, 1718.006
877.8643, 1719.583
878.3464, 1714.874
878.8285, 1710.048
879.3106, 1707.940
879.7927, 1707.307
880.2748, 1706.864
880.7570, 1706.581
881.2391, 1706.389
881.7212, 1705.207
882.2033, 1705.373
882.6854, 1709.169
883.1675, 1714.070
883.6497, 1715.312
884.1318, 1712.072
884.6139, 1710.504
885.0960, 1712.380
885.5781, 1714.817
886.0602, 1711.598
886.5424, 1706.090
887.0245, 1706.218
887.5066, 1717.135
887.9887, 1726.332
888.4708, 1728.623
888.9529, 1726.191
889.4351, 1720.638
889.9172, 1708.768
890.3993, 1704.007
890.8814, 1708.218
891.3635, 1714.484
891.8456, 1716.101
892.3278, 1714.510
892.8099, 1713.423
893.2920, 1713.209
893.7741, 1713.605
894.2562, 1717.063
894.7383, 1719.051
895.2205, 1715.006
895.7026, 1703.782
896.1847, 1697.457
896.6668, 1697.867
897.1489, 1699.046
897.6310, 1697.173
898.1132, 1693.783
898.5953, 1696.059
899.0774, 1703.103
899.5595, 1708.984
900.0416, 1708.088
900.5237, 1706.868
901.0059, 1711.266
901.4880, 1719.264
901.9701, 1722.791
902.4522, 1716.795
902.9343, 1714.370
903.4164, 1719.790
903.8986, 1728.439
904.3807, 1730.344
904.8628, 1726.190
905.3449, 1719.789
905.8270, 1710.164
906.3091, 1703.770
906.7913, 1711.099
907.2734, 1723.095
907.7555, 1727.914
908.2376, 1713.085
908.7197, 1707.318
909.2018, 1715.797
909.6840, 1727.577
910.1661, 1732.402
910.6482, 1730.641
911.1303, 1726.283
911.6124, 1719.422
912.0945, 1713.841
912.5767, 1714.257
913.0588, 1716.559
913.5409, 1715.528
914.0230, 1710.023
914.5051, 1710.120
914.9872, 1722.127
915.4694, 1733.340
915.9515, 1738.126
916.4336, 1737.264
916.9157, 1737.298
917.3978, 1738.026
917.8799, 1735.446
918.3621, 1722.562
918.8442, 1709.045
919.3263, 1705.629
919.8084, 1709.546
920.2905, 1712.608
920.7726, 1710.092
921.2548, 1710.042
921.7369, 1714.871
922.2190, 1721.910
922.7011, 1726.082
923.1832, 1727.458
923.6653, 1728.001
924.1475, 1728.128
924.6296, 1727.625
925.1117, 1725.326
925.5938, 1722.704
926.0759, 1721.929
926.5580, 1725.134
927.0402, 1725.773
927.5223, 1721.036
928.0044, 1716.183
928.4865, 1715.553
928.9686, 1719.087
929.4507, 1721.972
929.9329, 1724.132
930.4150, 1725.093
930.8971, 1722.826
931.3792, 1720.331
931.8613, 1721.307
932.3434, 1725.474
932.8256, 1728.255
933.3077, 1727.076
933.7898, 1726.520
934.2719, 1728.966
934.7540, 1732.490
935.2361, 1727.318
935.7183, 1714.451
936.2004, 1710.213
936.6825, 1725.959
937.1646, 1743.928
937.6467, 1746.635
938.1288, 1739.725
938.6110, 1732.053
939.0931, 1721.379
939.5752, 1716.828
940.0573, 1721.143
940.5394, 1728.574
941.0215, 1733.554
941.5037, 1736.083
941.9858, 1734.916
942.4679, 1729.665
942.9500, 1725.525
943.4321, 1729.195
943.9142, 1734.391
944.3964, 1734.601
944.8785, 1728.567
945.3606, 1726.587
945.8427, 1732.181
946.3248, 1736.733
946.8069, 1735.689
947.2891, 1730.893
947.7712, 1730.378
948.2533, 1733.603
948.7354, 1737.319
949.2175, 1742.529
949.6996, 1744.924
950.1818, 1737.770
950.6639, 1726.138
951.1460, 1721.646
951.6281, 1730.791
952.1102, 1735.322
952.5923, 1732.018
953.0745, 1726.330
953.5566, 1726.474
954.0387, 1730.609
954.5208, 1731.452
955.0029, 1727.471
955.4850, 1723.880
955.9672, 1723.708
956.4493, 1725.717
956.9314, 1730.170
957.4135, 1737.786
957.8956, 1739.460
958.3777, 1733.138
958.8599, 1726.981
959.3420, 1725.404
959.8241, 1727.252
960.3062, 1730.890
960.7883, 1735.659
961.2704, 1738.772
961.7526, 1739.209
962.2347, 1737.364
962.7168, 1730.993
963.1989, 1723.116
963.6810, 1719.638
964.1631, 1721.341
964.6453, 1724.367
965.1274, 1728.661
965.6095, 1732.338
966.0916, 1732.642
966.5737, 1730.776
967.0558, 1728.034
967.5380, 1723.928
968.0201, 1723.237
968.5022, 1731.268
968.9843, 1740.125
969.4664, 1746.021
969.9485, 1748.884
970.4307, 1746.277
970.9128, 1737.917
971.3949, 1730.716
971.8770, 1730.042
972.3591, 1732.032
972.8412, 1732.650
973.3234, 1732.059
973.8055, 1730.768
974.2876, 1726.902
974.7697, 1725.125
975.2518, 1726.418
975.7339, 1729.793
976.2161, 1733.638
976.6982, 1738.044
977.1803, 1745.110
977.6624, 1756.030
978.1445, 1763.407
978.6266, 1756.745
979.1088, 1745.959
979.5909, 1740.881
980.0730, 1743.934
980.5551, 1746.911
981.0372, 1749.179
981.5193, 1752.149
982.0015, 1757.447
982.4836, 1763.745
982.9657, 1766.430
983.4478, 1765.842
983.9299, 1763.555
984.4120, 1758.549
984.8942, 1754.010
985.3763, 1750.679
985.8584, 1749.233
986.3405, 1751.054
986.8226, 1757.661
987.3047, 1762.355
987.7869, 1764.556
988.2690, 1764.175
988.7511, 1757.543
989.2332, 1749.525
989.7153, 1751.438
990.1974, 1765.795
990.6796, 1773.994
991.1617, 1760.269
991.6438, 1746.762
992.1259, 1744.258
992.6080, 1751.641
993.0901, 1761.529
993.5723, 1774.000
994.0544, 1781.774
994.5365, 1778.996
995.0186, 1772.979
995.5007, 1771.942
995.9828, 1773.539
996.4650, 1773.475
996.9471, 1768.175
997.4292, 1764.759
997.9113, 1764.417
998.3934, 1764.747
998.8755, 1762.595
999.3577, 1758.610
999.8398, 1756.979
1000.322, 1757.970
1000.804, 1759.116
1001.286, 1760.395
1001.768, 1759.827
1002.250, 1754.382
1002.732, 1744.757
1003.215, 1739.975
1003.697, 1741.088
1004.179, 1743.432
1004.661, 1745.875
1005.143, 1748.260
1005.625, 1749.766
1006.107, 1751.115
1006.589, 1754.430
1007.072, 1763.514
1007.554, 1767.951
1008.036, 1759.417
1008.518, 1749.140
1009.000, 1745.783
1009.482, 1750.070
1009.964, 1751.764
1010.446, 1750.787
1010.928, 1749.293
1011.411, 1746.680
1011.893, 1745.969
1012.375, 1752.841
1012.857, 1764.945
1013.339, 1770.810
1013.821, 1764.365
1014.303, 1759.717
1014.785, 1760.073
1015.268, 1762.389
1015.750, 1761.906
1016.232, 1759.037
1016.714, 1754.307
1017.196, 1747.009
1017.678, 1742.521
1018.160, 1745.952
1018.642, 1752.021
1019.124, 1757.359
1019.607, 1761.945
1020.089, 1763.703
1020.571, 1762.207
1021.053, 1761.252
1021.535, 1763.693
1022.017, 1767.036
1022.499, 1768.171
1022.981, 1767.362
1023.464, 1765.216
1023.946, 1757.675
1024.428, 1754.943
1024.910, 1759.140
1025.392, 1766.919
1025.874, 1776.965
1026.356, 1787.892
1026.838, 1788.717
1027.320, 1778.594
1027.803, 1770.063
1028.285, 1776.040
1028.767, 1783.515
1029.249, 1782.621
1029.731, 1773.977
1030.213, 1766.855
1030.695, 1761.255
1031.177, 1757.103
1031.660, 1754.062
1032.142, 1753.065
1032.624, 1757.639
1033.106, 1764.829
1033.588, 1768.863
1034.070, 1767.174
1034.552, 1765.502
1035.034, 1765.425
1035.516, 1765.597
1035.999, 1765.032
1036.481, 1763.849
1036.963, 1764.022
1037.445, 1765.408
1037.927, 1766.371
1038.409, 1764.112
1038.891, 1762.777
1039.373, 1766.992
1039.855, 1774.018
1040.338, 1777.106
1040.820, 1774.284
1041.302, 1772.312
1041.784, 1771.753
1042.266, 1772.402
1042.748, 1775.743
1043.230, 1779.486
1043.712, 1778.387
1044.195, 1771.912
1044.677, 1767.713
1045.159, 1771.355
1045.641, 1774.642
1046.123, 1774.228
1046.605, 1771.479
1047.087, 1770.895
1047.569, 1772.357
1048.052, 1774.906
1048.534, 1778.927
1049.016, 1782.198
1049.498, 1782.585
1049.980, 1781.535
1050.462, 1780.618
1050.944, 1779.993
1051.426, 1779.481
1051.908, 1779.306
1052.391, 1778.233
1052.873, 1773.964
1053.355, 1769.005
1053.837, 1768.120
1054.319, 1770.463
1054.801, 1773.247
1055.283, 1775.358
1055.765, 1778.104
1056.247, 1782.356
1056.730, 1786.592
1057.212, 1788.955
1057.694, 1789.490
1058.176, 1787.870
1058.658, 1784.008
1059.140, 1780.781
1059.622, 1781.897
1060.104, 1782.992
1060.587, 1780.280
1061.069, 1774.535
1061.551, 1770.800
1062.033, 1768.917
1062.515, 1770.665
1062.997, 1778.140
1063.479, 1785.615
1063.961, 1783.823
1064.443, 1777.848
1064.926, 1775.627
1065.408, 1780.957
1065.890, 1782.786
1066.372, 1777.840
1066.854, 1773.206
1067.336, 1773.211
1067.818, 1776.751
1068.300, 1781.176
1068.782, 1785.634
1069.265, 1786.426
1069.747, 1776.044
1070.229, 1768.210
1070.711, 1771.716
1071.193, 1779.122
1071.675, 1781.399
1072.157, 1777.833
1072.639, 1777.674
1073.122, 1781.613
1073.604, 1785.582
1074.086, 1785.167
1074.568, 1784.018
1075.050, 1787.431
1075.532, 1793.908
1076.014, 1792.870
1076.496, 1778.707
1076.979, 1770.895
1077.461, 1774.624
1077.943, 1783.278
1078.425, 1787.855
1078.907, 1789.949
1079.389, 1793.096
1079.871, 1798.367
1080.353, 1800.800
1080.835, 1796.360
1081.318, 1791.107
1081.800, 1786.749
1082.282, 1783.714
1082.764, 1785.625
1083.246, 1791.249
1083.728, 1792.987
1084.210, 1786.048
1084.692, 1778.326
1085.174, 1772.349
1085.656, 1769.835
1086.139, 1773.094
1086.621, 1783.715
1087.103, 1789.865
1087.585, 1791.318
1088.067, 1791.224
1088.549, 1791.204
1089.031, 1791.145
1089.513, 1790.354
1089.996, 1789.452
1090.478, 1790.229
1090.960, 1795.685
1091.442, 1796.882
1091.924, 1791.631
1092.406, 1785.656
1092.888, 1785.850
1093.370, 1789.847
1093.853, 1793.100
1094.335, 1795.204
1094.817, 1796.149
1095.299, 1794.596
1095.781, 1793.422
1096.263, 1793.216
1096.745, 1794.133
1097.227, 1798.108
1097.709, 1804.078
1098.192, 1804.160
1098.674, 1795.585
1099.156, 1789.069
1099.638, 1794.967
1100.120, 1803.150
1100.602, 1805.463
1101.084, 1802.525
1101.566, 1803.237
1102.048, 1807.890
1102.531, 1809.854
1103.013, 1805.104
1103.495, 1799.246
1103.977, 1797.927
1104.459, 1799.475
1104.941, 1802.007
1105.423, 1806.303
1105.905, 1807.817
1106.388, 1805.631
1106.870, 1803.660
1107.352, 1804.748
1107.834, 1807.577
1108.316, 1809.787
1108.798, 1811.660
1109.280, 1813.973
1109.762, 1819.724
1110.245, 1821.672
1110.727, 1817.750
1111.209, 1812.043
1111.691, 1807.577
1112.173, 1804.883
1112.655, 1807.747
1113.137, 1815.567
1113.619, 1820.986
1114.101, 1817.892
1114.583, 1813.970
1115.066, 1811.942
1115.548, 1811.393
1116.030, 1811.745
1116.512, 1812.982
1116.994, 1815.044
1117.476, 1818.047
1117.958, 1820.277
1118.440, 1820.116
1118.923, 1818.877
1119.405, 1816.846
1119.887, 1814.439
1120.369, 1813.964
1120.851, 1815.565
1121.333, 1818.510
1121.815, 1823.837
1122.297, 1826.638
1122.780, 1817.096
1123.262, 1804.328
1123.744, 1800.118
1124.226, 1808.555
1124.708, 1812.650
1125.190, 1810.651
1125.672, 1809.184
1126.154, 1811.531
1126.636, 1815.899
1127.119, 1819.790
1127.601, 1823.091
1128.083, 1825.548
1128.565, 1827.005
1129.047, 1827.611
1129.529, 1826.915
1130.011, 1826.336
1130.493, 1828.171
1130.975, 1830.627
1131.458, 1825.870
1131.940, 1815.911
1132.422, 1808.387
1132.904, 1806.927
1133.386, 1808.434
1133.868, 1814.479
1134.350, 1820.496
1134.832, 1820.866
1135.315, 1816.469
1135.797, 1815.466
1136.279, 1817.973
1136.761, 1820.991
1137.243, 1823.795
1137.725, 1825.410
1138.207, 1824.567
1138.689, 1822.529
1139.172, 1820.943
1139.654, 1819.767
1140.136, 1821.274
1140.618, 1825.929
1141.100, 1829.539
1141.582, 1827.553
1142.064, 1824.272
1142.546, 1823.163
1143.028, 1823.735
1143.510, 1822.424
1143.993, 1818.641
1144.475, 1817.202
1144.957, 1819.380
1145.439, 1823.028
1145.921, 1827.880
1146.403, 1831.597
1146.885, 1830.915
1147.367, 1825.237
1147.850, 1821.634
1148.332, 1820.262
1148.814, 1821.047
1149.296, 1824.567
1149.778, 1828.885
1150.260, 1830.803
1150.742, 1831.912
1151.224, 1835.765
1151.707, 1845.101
1152.189, 1845.384
1152.671, 1830.997
1153.153, 1820.043
1153.635, 1822.924
1154.117, 1832.327
1154.599, 1833.726
1155.081, 1829.921
1155.563, 1827.010
1156.046, 1827.609
1156.528, 1826.907
1157.010, 1822.828
1157.492, 1820.161
1157.974, 1823.634
1158.456, 1830.469
1158.938, 1830.693
1159.420, 1826.076
1159.902, 1822.143
1160.385, 1821.957
1160.867, 1821.563
1161.349, 1819.599
1161.831, 1817.797
1162.313, 1817.485
1162.795, 1818.606
1163.277, 1820.790
1163.759, 1824.080
1164.242, 1828.863
1164.724, 1840.729
1165.206, 1847.165
1165.688, 1838.982
1166.170, 1827.391
1166.652, 1826.357
1167.134, 1834.548
1167.616, 1838.400
1168.099, 1837.454
1168.581, 1835.579
1169.063, 1834.447
1169.545, 1833.857
1170.027, 1834.277
1170.509, 1834.908
1170.991, 1834.100
1171.473, 1831.965
1171.955, 1831.610
1172.438, 1833.387
1172.920, 1835.463
1173.402, 1836.722
1173.884, 1837.564
1174.366, 1838.138
1174.848, 1838.469
1175.330, 1838.221
1175.812, 1837.342
1176.294, 1838.000
1176.777, 1840.595
1177.259, 1844.340
1177.741, 1850.939
1178.223, 1856.370
1178.705, 1857.204
1179.187, 1854.044
1179.669, 1848.446
1180.151, 1839.890
1180.634, 1837.825
1181.116, 1845.798
1181.598, 1854.222
1182.080, 1854.108
1182.562, 1850.295
1183.044, 1846.168
1183.526, 1842.183
1184.008, 1840.738
1184.490, 1842.101
1184.973, 1843.003
1185.455, 1841.874
1185.937, 1841.709
1186.419, 1849.342
1186.901, 1857.184
1187.383, 1854.441
1187.865, 1839.578
1188.347, 1836.038
1188.829, 1845.266
1189.312, 1855.007
1189.794, 1861.957
1190.276, 1864.351
1190.758, 1854.710
1191.240, 1842.380
1191.722, 1840.250
1192.204, 1851.965
1192.686, 1856.875
1193.169, 1853.931
1193.651, 1850.566
1194.133, 1849.803
1194.615, 1850.969
1195.097, 1854.744
1195.579, 1859.291
1196.061, 1861.674
1196.543, 1860.854
1197.026, 1861.499
1197.508, 1863.972
1197.990, 1865.864
1198.472, 1865.081
1198.954, 1863.878
1199.436, 1866.590
1199.918, 1870.227
1200.400, 1869.438
1200.882, 1861.529
1201.365, 1855.612
1201.847, 1851.651
1202.329, 1849.778
1202.811, 1850.649
1203.293, 1853.127
1203.775, 1857.508
1204.257, 1862.020
1204.739, 1863.009
1205.221, 1857.550
1205.704, 1855.803
1206.186, 1858.568
1206.668, 1860.784
1207.150, 1856.799
1207.632, 1851.914
1208.114, 1854.309
1208.596, 1860.168
1209.078, 1859.910
1209.561, 1847.817
1210.043, 1844.561
1210.525, 1851.948
1211.007, 1861.392
1211.489, 1868.102
1211.971, 1871.863
1212.453, 1870.931
1212.935, 1866.922
1213.417, 1864.095
1213.900, 1863.495
1214.382, 1861.037
1214.864, 1855.871
1215.346, 1852.947
1215.828, 1859.875
1216.310, 1868.277
1216.792, 1868.007
1217.274, 1861.877
1217.756, 1859.012
1218.239, 1860.740
1218.721, 1862.355
1219.203, 1863.491
1219.685, 1864.839
1220.167, 1868.325
1220.649, 1871.222
1221.131, 1869.223
1221.613, 1864.543
1222.096, 1864.465
1222.578, 1870.607
1223.060, 1874.741
1223.542, 1876.035
1224.024, 1875.953
1224.506, 1875.076
1224.988, 1873.999
1225.470, 1872.863
1225.953, 1872.003
1226.435, 1872.500
1226.917, 1874.719
1227.399, 1875.516
1227.881, 1874.415
1228.363, 1873.273
1228.845, 1874.114
1229.327, 1875.182
1229.809, 1875.318
1230.292, 1874.458
1230.774, 1872.045
1231.256, 1867.634
1231.738, 1867.823
1232.220, 1873.676
1232.702, 1880.152
1233.184, 1885.554
1233.666, 1887.956
1234.148, 1884.117
1234.631, 1876.719
1235.113, 1871.016
1235.595, 1867.010
1236.077, 1870.085
1236.559, 1881.250
1237.041, 1890.522
1237.523, 1888.755
1238.005, 1884.675
1238.488, 1883.464
1238.970, 1883.838
1239.452, 1883.177
1239.934, 1881.552
1240.416, 1879.721
1240.898, 1877.772
1241.380, 1876.972
1241.862, 1878.037
1242.344, 1880.761
1242.827, 1885.880
1243.309, 1891.854
1243.791, 1896.893
1244.273, 1900.457
1244.755, 1897.294
1245.237, 1886.820
1245.719, 1879.401
1246.201, 1883.696
1246.683, 1888.622
1247.166, 1889.893
1247.648, 1889.377
1248.130, 1891.407
1248.612, 1894.420
1249.094, 1890.995
1249.576, 1880.571
1250.058, 1875.246
1250.540, 1887.717
1251.023, 1896.009
1251.505, 1893.069
1251.987, 1885.653
1252.469, 1883.314
1252.951, 1885.168
1253.433, 1890.737
1253.915, 1899.571
1254.397, 1904.417
1254.880, 1899.929
1255.362, 1896.615
1255.844, 1896.544
1256.326, 1898.357
1256.808, 1901.698
1257.290, 1904.908
1257.772, 1904.868
1258.254, 1901.537
1258.736, 1897.306
1259.219, 1890.626
1259.701, 1888.608
1260.183, 1893.566
1260.665, 1899.952
1261.147, 1902.144
1261.629, 1901.265
1262.111, 1897.089
1262.593, 1890.556
1263.075, 1888.198
1263.558, 1891.164
1264.040, 1894.586
1264.522, 1897.926
1265.004, 1899.691
1265.486, 1896.543
1265.968, 1892.690
1266.450, 1892.140
1266.932, 1894.499
1267.415, 1896.775
1267.897, 1898.983
1268.379, 1901.263
1268.861, 1903.662
1269.343, 1905.838
1269.825, 1907.792
1270.307, 1909.225
1270.789, 1909.679
1271.271, 1909.552
1271.754, 1910.206
1272.236, 1911.418
1272.718, 1907.631
1273.200, 1898.365
1273.682, 1892.544
1274.164, 1899.141
1274.646, 1906.670
1275.128, 1911.299
1275.610, 1912.910
1276.093, 1909.300
1276.575, 1902.440
1277.057, 1900.755
1277.539, 1904.696
1278.021, 1909.912
1278.503, 1917.485
1278.985, 1921.596
1279.467, 1920.887
1279.950, 1916.743
1280.432, 1907.659
1280.914, 1897.680
1281.396, 1897.040
1281.878, 1904.800
1282.360, 1911.569
1282.842, 1916.344
1283.324, 1916.423
1283.807, 1910.199
1284.289, 1903.580
1284.771, 1903.897
1285.253, 1906.690
1285.735, 1903.885
1286.217, 1898.081
1286.699, 1901.397
1287.181, 1918.803
1287.663, 1926.848
1288.146, 1922.697
1288.628, 1916.871
1289.110, 1919.711
1289.592, 1923.218
1290.074, 1919.112
1290.556, 1911.118
1291.038, 1906.930
1291.520, 1906.561
1292.002, 1911.317
1292.485, 1921.012
1292.967, 1928.869
1293.449, 1928.535
1293.931, 1927.417
1294.413, 1931.564
1294.895, 1935.130
1295.377, 1929.480
1295.859, 1916.758
1296.342, 1914.515
1296.824, 1921.354
1297.306, 1926.611
1297.788, 1922.490
1298.270, 1919.744
1298.752, 1920.192
1299.234, 1922.882
1299.716, 1927.998
1300.198, 1934.389
1300.681, 1940.416
1301.163, 1945.177
1301.645, 1946.422
1302.127, 1942.527
##END=



