##NAMES=Gersdorffite-P213
##RRUFFID=R070304
##IDEAL CHEMISTRY=Ni^3+^(AsS)^3-^
##LOCALITY=Aït Ahmane, Bou Azzer, Anti-Atlas Mts, Morocco
##OWNER=RRUFF
##SOURCE=Michael Scott
##DESCRIPTION=Steel gray metallic massive, this sample used by Bayliss to create ICDD data. Structure refined to determine space group.
##STATUS=The identification of this mineral is confirmed by single-crystal X-ray diffraction and chemical analysis.
##URL=rruff.info/R070304
##MEASURED CHEMISTRY=(Ni_0.99_Co_0.01_)_Σ=1_As_1.00_S_1.00_ ; trace amounts of Fe
133.2699, 207.2375
133.7520, 218.9599
134.2341, 230.1685
134.7162, 237.4768
135.1983, 240.9051
135.6804, 248.2540
136.1626, 260.6164
136.6447, 275.2810
137.1268, 287.0210
137.6089, 295.2062
138.0910, 302.3639
138.5731, 311.7311
139.0553, 326.3707
139.5374, 328.5363
140.0195, 313.1738
140.5016, 285.1692
140.9837, 264.0543
141.4658, 251.4992
141.9480, 242.8804
142.4301, 235.2331
142.9122, 228.0807
143.3943, 222.8849
143.8764, 219.4851
144.3585, 217.9291
144.8407, 219.7760
145.3228, 226.7408
145.8049, 235.8023
146.2870, 244.5094
146.7691, 256.8902
147.2512, 263.4711
147.7334, 260.3480
148.2155, 244.0888
148.6976, 233.4243
149.1797, 229.3624
149.6618, 230.6296
150.1439, 235.5097
150.6261, 249.1133
151.1082, 261.6868
151.5903, 270.4102
152.0724, 273.3210
152.5545, 276.5989
153.0366, 279.4198
153.5188, 282.9221
154.0009, 289.3144
154.4830, 311.0453
154.9651, 326.7842
155.4472, 326.1323
155.9293, 293.0465
156.4115, 265.3778
156.8936, 251.9401
157.3757, 250.0392
157.8578, 249.9752
158.3399, 251.4022
158.8221, 252.3761
159.3042, 251.6093
159.7863, 242.8072
160.2684, 238.0786
160.7505, 243.4867
161.2326, 257.8765
161.7148, 271.9881
162.1969, 284.7960
162.6790, 294.3952
163.1611, 298.8328
163.6432, 294.7167
164.1253, 287.5717
164.6075, 279.7572
165.0896, 271.3374
165.5717, 262.6100
166.0538, 250.6834
166.5359, 239.0945
167.0180, 232.8144
167.5002, 236.7527
167.9823, 244.9035
168.4644, 254.0394
168.9465, 264.4346
169.4286, 272.2677
169.9107, 273.5001
170.3929, 270.0365
170.8750, 265.9142
171.3571, 263.9404
171.8392, 262.0679
172.3213, 257.2865
172.8034, 248.1770
173.2856, 239.7672
173.7677, 236.8649
174.2498, 238.6550
174.7319, 242.3486
175.2140, 248.6228
175.6961, 255.1947
176.1783, 257.7761
176.6604, 253.6965
177.1425, 248.7678
177.6246, 252.1029
178.1067, 262.3151
178.5888, 270.6098
179.0710, 269.5212
179.5531, 261.7599
180.0352, 252.4100
180.5173, 240.1548
180.9994, 229.5888
181.4815, 230.6048
181.9637, 242.8964
182.4458, 256.5602
182.9279, 263.8925
183.4100, 265.7769
183.8921, 265.6513
184.3742, 264.0860
184.8564, 261.3222
185.3385, 257.0040
185.8206, 250.8531
186.3027, 246.0790
186.7848, 246.6444
187.2669, 251.9827
187.7491, 257.8126
188.2312, 263.7126
188.7133, 268.9783
189.1954, 270.2582
189.6775, 266.8875
190.1596, 262.4567
190.6418, 262.1653
191.1239, 265.8748
191.6060, 267.9473
192.0881, 263.8082
192.5702, 254.7188
193.0524, 253.5392
193.5345, 262.5961
194.0166, 273.5230
194.4987, 270.5747
194.9808, 252.6016
195.4629, 238.0798
195.9451, 237.5997
196.4272, 250.8385
196.9093, 262.1972
197.3914, 271.4510
197.8735, 278.4106
198.3556, 281.4314
198.8378, 279.6609
199.3199, 279.2780
199.8020, 283.8145
200.2841, 293.4648
200.7662, 305.1058
201.2483, 319.9281
201.7305, 335.3951
202.2126, 345.2966
202.6947, 349.1899
203.1768, 349.1668
203.6589, 344.4252
204.1410, 333.5643
204.6232, 328.6225
205.1053, 332.0970
205.5874, 341.5450
206.0695, 348.6626
206.5516, 352.5178
207.0337, 356.4905
207.5159, 363.6442
207.9980, 375.0128
208.4801, 383.7373
208.9622, 387.8268
209.4443, 388.6484
209.9264, 393.1508
210.4086, 402.3576
210.8907, 413.2350
211.3728, 423.0256
211.8549, 430.8617
212.3370, 440.9763
212.8191, 454.6695
213.3013, 471.3774
213.7834, 487.0750
214.2655, 500.6106
214.7476, 515.0622
215.2297, 534.1025
215.7118, 561.3966
216.1940, 583.7615
216.6761, 599.4337
217.1582, 608.4761
217.6403, 609.4003
218.1224, 600.1429
218.6045, 585.5430
219.0867, 569.3086
219.5688, 549.8365
220.0509, 533.0458
220.5330, 522.1771
221.0151, 517.3486
221.4972, 505.3197
221.9794, 481.7879
222.4615, 455.7499
222.9436, 437.0696
223.4257, 429.6526
223.9078, 421.3401
224.3899, 408.8545
224.8721, 391.4844
225.3542, 377.3385
225.8363, 367.7983
226.3184, 360.0533
226.8005, 349.9979
227.2827, 334.5040
227.7648, 323.0420
228.2469, 320.0906
228.7290, 327.8289
229.2111, 326.5834
229.6932, 311.2157
230.1754, 291.0495
230.6575, 278.1613
231.1396, 275.4311
231.6217, 275.1676
232.1038, 275.9849
232.5859, 278.4617
233.0681, 278.6218
233.5502, 274.6928
234.0323, 269.7234
234.5144, 268.5226
234.9965, 274.0830
235.4786, 278.3306
235.9608, 278.2054
236.4429, 272.2162
236.9250, 269.0740
237.4071, 270.8201
237.8892, 274.1683
238.3713, 273.8771
238.8535, 268.7392
239.3356, 261.8782
239.8177, 252.9750
240.2998, 239.5443
240.7819, 234.4288
241.2640, 242.9584
241.7462, 256.6202
242.2283, 259.5515
242.7104, 242.7033
243.1925, 230.1146
243.6746, 231.7539
244.1567, 254.6200
244.6389, 267.3081
245.1210, 265.3372
245.6031, 255.8804
246.0852, 252.0224
246.5673, 258.0068
247.0494, 262.3274
247.5316, 260.1744
248.0137, 248.6523
248.4958, 240.2323
248.9779, 234.5763
249.4600, 232.2793
249.9421, 236.0254
250.4243, 252.2274
250.9064, 262.9976
251.3885, 259.8976
251.8706, 236.5385
252.3527, 220.5983
252.8348, 213.6993
253.3170, 213.1880
253.7991, 214.7488
254.2812, 219.7582
254.7633, 224.1704
255.2454, 226.3730
255.7275, 225.7998
256.2097, 224.9152
256.6918, 223.2741
257.1739, 221.6361
257.6560, 221.7012
258.1381, 224.6123
258.6202, 226.8480
259.1024, 226.4999
259.5845, 222.2511
260.0666, 221.4296
260.5487, 226.4225
261.0308, 233.0251
261.5129, 232.5062
261.9951, 221.0706
262.4772, 211.6279
262.9593, 210.5857
263.4414, 220.7718
263.9235, 225.0482
264.4056, 220.3223
264.8878, 212.6181
265.3699, 214.6229
265.8520, 231.8154
266.3341, 243.0070
266.8162, 235.9262
267.2983, 205.3840
267.7805, 191.8396
268.2626, 201.0481
268.7447, 221.0404
269.2268, 231.2301
269.7089, 229.5167
270.1910, 225.5360
270.6732, 223.2218
271.1553, 223.0518
271.6374, 219.0469
272.1195, 209.3215
272.6016, 198.5165
273.0837, 195.2949
273.5659, 201.0967
274.0480, 206.9864
274.5301, 209.6151
275.0122, 208.8691
275.4943, 207.0208
275.9764, 203.2500
276.4586, 199.9207
276.9407, 201.5153
277.4228, 208.6744
277.9049, 214.9611
278.3870, 216.8374
278.8691, 214.6233
279.3513, 216.3277
279.8334, 222.9585
280.3155, 230.9155
280.7976, 235.5132
281.2798, 236.6333
281.7619, 236.2168
282.2440, 233.8181
282.7261, 230.0234
283.2082, 230.0588
283.6903, 234.7345
284.1725, 240.2587
284.6546, 241.9667
285.1367, 239.9449
285.6188, 236.7223
286.1009, 232.1073
286.5830, 226.9077
287.0652, 224.5122
287.5473, 224.9908
288.0294, 227.9689
288.5115, 234.4767
288.9936, 243.9950
289.4757, 252.1723
289.9579, 259.3800
290.4400, 263.8191
290.9221, 257.6886
291.4042, 240.0962
291.8863, 223.0784
292.3684, 220.2530
292.8506, 228.9713
293.3327, 237.6806
293.8148, 242.9426
294.2969, 245.8945
294.7790, 249.4396
295.2611, 253.5873
295.7433, 255.6710
296.2254, 251.8883
296.7075, 244.0159
297.1896, 237.0213
297.6717, 231.2270
298.1538, 227.8257
298.6360, 230.4924
299.1181, 238.7083
299.6002, 246.0535
300.0823, 246.4236
300.5644, 242.6166
301.0465, 239.8455
301.5287, 239.3150
302.0108, 240.5690
302.4929, 245.2087
302.9750, 252.2936
303.4571, 256.1762
303.9392, 250.0648
304.4214, 239.3928
304.9035, 231.4045
305.3856, 228.6864
305.8677, 227.9838
306.3498, 225.3667
306.8319, 222.0768
307.3141, 222.5098
307.7962, 233.4729
308.2783, 247.4495
308.7604, 256.7535
309.2425, 257.8493
309.7246, 258.0435
310.2068, 264.1260
310.6889, 273.2242
311.1710, 277.9775
311.6531, 268.7288
312.1352, 257.5042
312.6173, 253.9143
313.0995, 261.8171
313.5816, 270.6613
314.0637, 276.4190
314.5458, 279.6647
315.0279, 281.5528
315.5100, 279.7802
315.9922, 278.8338
316.4743, 281.5067
316.9564, 288.9201
317.4385, 296.6303
317.9206, 302.5231
318.4027, 307.9832
318.8849, 314.9457
319.3670, 325.9259
319.8491, 336.7415
320.3312, 347.2076
320.8133, 358.2871
321.2954, 362.9780
321.7776, 352.2652
322.2597, 337.4919
322.7418, 330.7484
323.2239, 341.3029
323.7060, 352.5251
324.1881, 361.6778
324.6703, 368.7928
325.1524, 371.9304
325.6345, 370.5785
326.1166, 365.3400
326.5987, 356.6059
327.0808, 337.6927
327.5630, 323.2040
328.0451, 316.5005
328.5272, 317.1557
329.0093, 315.8926
329.4914, 312.3984
329.9735, 307.3224
330.4557, 301.0132
330.9378, 292.9288
331.4199, 284.2846
331.9020, 273.2724
332.3841, 261.4156
332.8662, 256.8271
333.3484, 263.3652
333.8305, 271.3889
334.3126, 275.6072
334.7947, 274.7009
335.2768, 273.7580
335.7589, 272.4499
336.2411, 271.5632
336.7232, 274.2112
337.2053, 282.5653
337.6874, 288.0354
338.1695, 283.4479
338.6516, 266.3970
339.1338, 262.6445
339.6159, 277.0573
340.0980, 297.8750
340.5801, 304.4530
341.0622, 295.6114
341.5443, 283.7582
342.0265, 272.4261
342.5086, 261.9194
342.9907, 254.2569
343.4728, 249.6430
343.9549, 247.3353
344.4370, 247.6609
344.9192, 250.2535
345.4013, 251.5439
345.8834, 249.5971
346.3655, 245.6274
346.8476, 243.1343
347.3297, 242.1864
347.8119, 241.0258
348.2940, 237.6004
348.7761, 232.5822
349.2582, 228.0529
349.7403, 224.5275
350.2225, 221.7209
350.7046, 218.4854
351.1867, 215.0928
351.6688, 213.8744
352.1509, 221.5141
352.6331, 231.1177
353.1152, 231.0481
353.5973, 214.3187
354.0794, 195.6322
354.5615, 189.8254
355.0436, 193.2278
355.5258, 194.6688
356.0079, 184.9697
356.4900, 172.3100
356.9721, 163.4516
357.4542, 159.4648
357.9363, 159.1686
358.4185, 165.8125
358.9006, 175.2912
359.3827, 180.5024
359.8648, 173.1363
360.3469, 165.1811
360.8290, 163.9572
361.3112, 171.2584
361.7933, 176.6094
362.2754, 175.1752
362.7575, 170.6774
363.2396, 167.1455
363.7217, 165.7003
364.2039, 165.1396
364.6860, 164.2921
365.1681, 163.1362
365.6502, 165.7375
366.1323, 178.5414
366.6144, 191.6414
367.0966, 198.2253
367.5787, 195.8467
368.0608, 189.4718
368.5429, 175.6004
369.0250, 156.7128
369.5071, 146.1616
369.9893, 149.9909
370.4714, 155.1335
370.9535, 154.4794
371.4356, 142.0503
371.9177, 138.1042
372.3998, 147.0544
372.8820, 162.5286
373.3641, 169.6265
373.8462, 165.1945
374.3283, 160.5650
374.8104, 160.6911
375.2925, 166.1515
375.7747, 169.1499
376.2568, 168.7489
376.7389, 167.7934
377.2210, 171.9744
377.7031, 182.0139
378.1852, 186.4673
378.6674, 179.5242
379.1495, 164.3337
379.6316, 153.1097
380.1137, 145.8525
380.5958, 143.4167
381.0779, 149.8343
381.5601, 163.0422
382.0422, 172.3071
382.5243, 174.9034
383.0064, 173.0949
383.4885, 168.9143
383.9706, 162.8286
384.4528, 158.5650
384.9349, 162.0462
385.4170, 168.1220
385.8991, 166.8580
386.3812, 154.4050
386.8633, 142.2389
387.3455, 141.5546
387.8276, 149.3448
388.3097, 158.7839
388.7918, 170.7913
389.2739, 180.1961
389.7560, 181.0457
390.2382, 172.1192
390.7203, 163.9721
391.2024, 162.5461
391.6845, 164.9467
392.1666, 167.8417
392.6487, 173.7547
393.1309, 176.5576
393.6130, 170.9512
394.0951, 157.9675
394.5772, 149.6774
395.0593, 154.4121
395.5414, 161.4700
396.0236, 164.1123
396.5057, 155.1568
396.9878, 149.1747
397.4699, 148.8255
397.9520, 152.6134
398.4341, 155.9551
398.9163, 162.1611
399.3984, 164.4192
399.8805, 158.6837
400.3626, 139.2429
400.8447, 129.2026
401.3268, 132.6154
401.8090, 142.4524
402.2911, 149.3115
402.7732, 152.9511
403.2553, 153.9089
403.7374, 151.1807
404.2195, 145.1302
404.7017, 143.1720
405.1838, 146.7605
405.6659, 150.4999
406.1480, 147.8260
406.6301, 138.5628
407.1122, 133.9865
407.5944, 136.8322
408.0765, 144.8137
408.5586, 154.7561
409.0407, 166.5980
409.5228, 174.0129
410.0049, 169.5347
410.4871, 157.2850
410.9692, 148.6328
411.4513, 144.8715
411.9334, 144.0863
412.4155, 146.0732
412.8976, 149.5324
413.3798, 150.6944
413.8619, 143.8625
414.3440, 136.2000
414.8261, 137.1803
415.3082, 146.9249
415.7903, 154.4877
416.2725, 148.6428
416.7546, 138.2245
417.2367, 133.2730
417.7188, 143.0072
418.2009, 152.2712
418.6830, 152.5484
419.1652, 146.1994
419.6473, 141.8694
420.1294, 144.6374
420.6115, 148.5463
421.0937, 150.1579
421.5758, 147.2640
422.0579, 145.8114
422.5400, 146.8942
423.0221, 149.7979
423.5042, 153.4526
423.9864, 161.1353
424.4685, 165.7615
424.9506, 164.5178
425.4327, 156.7264
425.9148, 151.7832
426.3969, 149.0353
426.8791, 149.8653
427.3612, 157.1360
427.8433, 174.9559
428.3254, 185.7739
428.8075, 184.9538
429.2896, 176.2699
429.7718, 173.1759
430.2539, 176.7863
430.7360, 180.0191
431.2181, 177.1373
431.7002, 168.8224
432.1823, 166.0497
432.6645, 170.5542
433.1466, 176.6290
433.6287, 175.6141
434.1108, 168.8362
434.5929, 162.8896
435.0750, 162.2600
435.5572, 163.4316
436.0393, 158.4714
436.5214, 147.7610
437.0035, 139.3747
437.4856, 142.4703
437.9677, 151.0379
438.4499, 156.3122
438.9320, 153.6609
439.4141, 151.3110
439.8962, 157.0759
440.3783, 167.8804
440.8604, 175.9670
441.3426, 177.8362
441.8247, 175.9679
442.3068, 170.2478
442.7889, 159.1246
443.2710, 151.6724
443.7531, 154.4369
444.2353, 160.5054
444.7174, 162.2809
445.1995, 150.7682
445.6816, 143.5833
446.1637, 147.9089
446.6458, 161.8950
447.1280, 164.9203
447.6101, 145.5856
448.0922, 127.8433
448.5743, 126.9915
449.0564, 154.1584
449.5385, 167.9832
450.0207, 164.0595
450.5028, 149.4166
450.9849, 134.7116
451.4670, 118.5301
451.9491, 110.4014
452.4312, 117.9453
452.9134, 138.2692
453.3955, 147.8643
453.8776, 145.6657
454.3597, 140.2584
454.8418, 139.5830
455.3239, 142.7477
455.8061, 146.5570
456.2882, 151.6104
456.7703, 154.9768
457.2524, 149.4628
457.7345, 137.5682
458.2166, 129.4135
458.6988, 134.8645
459.1809, 145.3595
459.6630, 151.2417
460.1451, 150.9889
460.6272, 150.5398
461.1093, 156.5805
461.5915, 163.7253
462.0736, 165.1243
462.5557, 149.8035
463.0378, 136.9014
463.5199, 134.5712
464.0020, 141.7325
464.4842, 149.5124
464.9663, 160.6490
465.4484, 168.5067
465.9305, 169.0296
466.4126, 154.4405
466.8947, 146.1843
467.3769, 148.4096
467.8590, 155.1558
468.3411, 156.2848
468.8232, 148.2398
469.3053, 141.6359
469.7874, 139.4779
470.2696, 141.5358
470.7517, 143.7269
471.2338, 146.1250
471.7159, 148.4122
472.1980, 150.7132
472.6801, 152.9895
473.1623, 153.1297
473.6444, 150.1902
474.1265, 146.2746
474.6086, 145.2358
475.0907, 146.6890
475.5728, 148.1444
476.0550, 147.2812
476.5371, 145.9338
477.0192, 147.8140
477.5013, 153.0977
477.9834, 157.8881
478.4655, 159.5871
478.9477, 158.8584
479.4298, 156.3972
479.9119, 150.3559
480.3940, 145.2027
480.8761, 143.8649
481.3582, 145.3506
481.8404, 146.8456
482.3225, 146.1855
482.8046, 146.3587
483.2867, 149.1011
483.7688, 155.5470
484.2509, 161.1221
484.7331, 169.8713
485.2152, 175.2210
485.6973, 169.9633
486.1794, 142.7636
486.6615, 124.6634
487.1436, 122.8152
487.6258, 133.4251
488.1079, 138.2932
488.5900, 135.7056
489.0721, 132.0079
489.5542, 130.5768
490.0363, 131.4186
490.5185, 132.4634
491.0006, 133.6729
491.4827, 135.0110
491.9648, 135.9305
492.4470, 136.7134
492.9291, 139.0990
493.4112, 144.8223
493.8933, 151.4246
494.3754, 156.1859
494.8575, 158.8477
495.3397, 157.5126
495.8218, 146.4775
496.3039, 132.9115
496.7860, 124.5188
497.2681, 122.5814
497.7502, 124.6749
498.2324, 131.7289
498.7145, 141.3794
499.1966, 150.5513
499.6787, 162.8577
500.1608, 169.8946
500.6429, 165.1425
501.1251, 149.7265
501.6072, 141.8046
502.0893, 150.4633
502.5714, 159.8382
503.0535, 162.1942
503.5356, 153.4953
504.0178, 147.3374
504.4999, 143.9250
504.9820, 142.9470
505.4641, 144.6319
505.9462, 149.7357
506.4283, 153.5300
506.9105, 154.4860
507.3926, 153.1115
507.8747, 151.1684
508.3568, 148.6228
508.8389, 145.9773
509.3210, 143.9178
509.8032, 142.0086
510.2853, 138.1564
510.7674, 131.2395
511.2495, 126.0827
511.7316, 129.2448
512.2137, 137.7637
512.6959, 145.5388
513.1780, 150.9476
513.6601, 154.0655
514.1422, 154.2757
514.6243, 151.8953
515.1064, 149.0282
515.5886, 145.9522
516.0707, 143.0141
516.5528, 140.4302
517.0349, 138.1300
517.5170, 136.3257
517.9991, 132.1597
518.4813, 129.6391
518.9634, 135.0308
519.4455, 157.8406
519.9276, 171.8736
520.4097, 168.8932
520.8918, 152.0422
521.3740, 141.4836
521.8561, 137.9606
522.3382, 138.2720
522.8203, 141.7118
523.3024, 147.9861
523.7845, 152.5567
524.2667, 155.1542
524.7488, 156.1699
525.2309, 155.6568
525.7130, 153.9278
526.1951, 152.0437
526.6772, 149.9317
527.1594, 148.2422
527.6415, 148.3203
528.1236, 149.7187
528.6057, 150.4663
529.0878, 147.1733
529.5699, 144.2857
530.0521, 146.3378
530.5342, 155.6879
531.0163, 161.8821
531.4984, 158.0796
531.9805, 150.9802
532.4626, 147.6979
532.9448, 151.1404
533.4269, 156.3066
533.9090, 165.7431
534.3911, 176.8399
534.8732, 177.9855
535.3553, 163.0099
535.8375, 149.6629
536.3196, 146.9653
536.8017, 155.5726
537.2838, 160.3661
537.7659, 161.3682
538.2480, 158.6004
538.7302, 148.9872
539.2123, 134.0898
539.6944, 126.0450
540.1765, 129.5832
540.6586, 137.2244
541.1407, 137.5348
541.6229, 132.6799
542.1050, 130.4426
542.5871, 138.5149
543.0692, 148.7757
543.5513, 154.3081
544.0334, 154.6901
544.5156, 152.2017
544.9977, 143.8059
545.4798, 135.3314
545.9619, 131.7169
546.4440, 138.9477
546.9261, 143.5235
547.4083, 139.9048
547.8904, 133.2399
548.3725, 133.0990
548.8546, 144.0567
549.3367, 154.0830
549.8188, 160.5734
550.3010, 163.6351
550.7831, 164.0204
551.2652, 161.0703
551.7473, 157.6332
552.2294, 155.9203
552.7115, 155.7171
553.1937, 155.3112
553.6758, 154.8491
554.1579, 153.0096
554.6400, 145.5489
555.1221, 135.0872
555.6042, 129.4675
556.0864, 135.1882
556.5685, 143.1115
557.0506, 141.8379
557.5327, 134.5206
558.0148, 132.9575
558.4969, 153.9154
558.9791, 174.1205
559.4612, 175.7979
559.9433, 151.8254
560.4254, 137.1939
560.9075, 147.5086
561.3896, 164.7247
561.8718, 172.9290
562.3539, 166.7775
562.8360, 160.5421
563.3181, 155.0682
563.8002, 150.2832
564.2823, 145.8096
564.7645, 141.5248
565.2466, 138.2059
565.7287, 135.6293
566.2108, 134.2427
566.6929, 137.5258
567.1750, 145.6617
567.6572, 153.7167
568.1393, 157.4851
568.6214, 158.1113
569.1035, 157.5843
569.5856, 156.1091
570.0677, 153.9523
570.5499, 149.8061
571.0320, 145.4201
571.5141, 143.5240
571.9962, 147.4148
572.4783, 151.6942
572.9604, 156.1048
573.4426, 159.7285
573.9247, 158.1418
574.4068, 141.6950
574.8889, 128.1412
575.3710, 125.1230
575.8531, 134.9889
576.3353, 143.5418
576.8174, 151.7272
577.2995, 157.0729
577.7816, 156.1929
578.2637, 148.4104
578.7458, 141.4897
579.2280, 136.4207
579.7101, 132.9283
580.1922, 131.1244
580.6743, 130.7200
581.1564, 130.0842
581.6385, 128.6145
582.1207, 126.4036
582.6028, 121.4953
583.0849, 114.7816
583.5670, 112.8577
584.0491, 124.2486
584.5313, 139.0413
585.0134, 149.8025
585.4955, 154.9917
585.9776, 157.4335
586.4597, 157.0568
586.9418, 154.5443
587.4240, 150.4515
587.9061, 141.0913
588.3882, 136.1301
588.8703, 138.4964
589.3524, 145.4072
589.8345, 148.1628
590.3167, 145.4512
590.7988, 143.7155
591.2809, 146.8882
591.7630, 153.5182
592.2451, 155.9082
592.7272, 153.9779
593.2094, 149.7555
593.6915, 143.2643
594.1736, 136.0174
594.6557, 130.7600
595.1378, 128.0109
595.6199, 127.3807
596.1021, 129.9402
596.5842, 134.1091
597.0663, 137.6476
597.5485, 141.9852
598.0306, 143.2206
598.5127, 135.2971
598.9948, 121.9285
599.4769, 119.4325
599.9590, 141.5228
600.4412, 158.9618
600.9233, 160.2770
601.4054, 144.0706
601.8875, 134.1479
602.3696, 131.5258
602.8517, 132.9056
603.3339, 136.9357
603.8160, 143.3114
604.2981, 147.1436
604.7802, 147.3621
605.2623, 146.6963
605.7444, 148.7509
606.2266, 152.7590
606.7087, 156.5703
607.1908, 159.5466
607.6729, 161.9427
608.1550, 165.8236
608.6371, 169.6467
609.1193, 168.5332
609.6014, 156.1115
610.0835, 142.0338
610.5656, 129.1173
611.0477, 116.6192
611.5298, 113.6049
612.0120, 128.0200
612.4941, 144.1971
612.9762, 151.3829
613.4583, 146.9169
613.9404, 143.1124
614.4225, 140.7999
614.9047, 138.6324
615.3868, 132.0578
615.8689, 121.8846
616.3510, 120.4690
616.8331, 135.5185
617.3152, 155.7436
617.7974, 165.5562
618.2795, 165.7923
618.7616, 160.4018
619.2437, 144.2473
619.7258, 128.7466
620.2079, 123.7703
620.6901, 129.7726
621.1722, 135.4586
621.6543, 134.9952
622.1364, 134.2967
622.6185, 137.7642
623.1006, 149.9465
623.5828, 156.8339
624.0649, 158.2384
624.5470, 154.5180
625.0291, 143.2506
625.5112, 121.1392
625.9933, 110.3754
626.4755, 118.3078
626.9576, 135.2915
627.4397, 140.4595
627.9218, 135.3531
628.4039, 131.7375
628.8860, 137.8966
629.3682, 147.5922
629.8503, 152.2215
630.3324, 152.2923
630.8145, 151.7325
631.2966, 152.0899
631.7787, 153.1499
632.2609, 155.1060
632.7430, 158.5188
633.2251, 160.6805
633.7072, 160.3493
634.1893, 158.9571
634.6714, 157.8556
635.1536, 158.2881
635.6357, 155.9587
636.1178, 149.4504
636.5999, 141.2446
637.0820, 135.5656
637.5641, 132.4669
638.0463, 131.9429
638.5284, 136.4539
639.0105, 141.3801
639.4926, 133.4116
639.9747, 115.3562
640.4568, 103.6238
640.9390, 115.0638
641.4211, 132.7923
641.9032, 139.3009
642.3853, 133.3580
642.8674, 131.5357
643.3495, 152.1582
643.8317, 171.3525
644.3138, 170.9431
644.7959, 128.5859
645.2780, 106.4398
645.7601, 113.5599
646.2422, 132.9222
646.7244, 145.5719
647.2065, 150.7107
647.6886, 152.7441
648.1707, 152.4584
648.6528, 149.3549
649.1349, 140.2596
649.6171, 126.2566
650.0992, 114.7210
650.5813, 108.3314
651.0634, 106.7598
651.5455, 111.6353
652.0276, 121.8660
652.5098, 131.3591
652.9919, 137.0470
653.4740, 140.8595
653.9561, 144.1440
654.4382, 147.2858
654.9203, 148.2932
655.4025, 146.2188
655.8846, 142.5248
656.3667, 137.3497
656.8488, 128.1774
657.3309, 125.8306
657.8130, 132.5428
658.2952, 142.7097
658.7773, 148.7292
659.2594, 150.9061
659.7415, 152.3425
660.2236, 154.0587
660.7057, 155.0638
661.1879, 151.7572
661.6700, 146.3202
662.1521, 144.9097
662.6342, 157.8526
663.1163, 169.4284
663.5984, 167.3764
664.0806, 153.3879
664.5627, 142.9382
665.0448, 141.0139
665.5269, 142.6042
666.0090, 146.6139
666.4911, 153.8813
666.9733, 156.5726
667.4554, 152.8471
667.9375, 148.1946
668.4196, 147.3203
668.9017, 150.1012
669.3839, 152.8055
669.8660, 155.2480
670.3481, 156.8561
670.8302, 158.3943
671.3123, 158.4643
671.7944, 153.2459
672.2766, 136.9047
672.7587, 122.6472
673.2408, 120.5331
673.7229, 126.4767
674.2050, 132.4052
674.6871, 136.4844
675.1693, 139.8875
675.6514, 143.4927
676.1335, 146.8973
676.6156, 147.1633
677.0977, 141.9430
677.5798, 139.0343
678.0620, 143.5302
678.5441, 154.2232
679.0262, 158.1827
679.5083, 155.1050
679.9904, 150.7901
680.4725, 152.0903
680.9547, 154.6862
681.4368, 148.1238
681.9189, 129.7916
682.4010, 116.5063
682.8831, 124.4503
683.3652, 140.9221
683.8474, 153.3072
684.3295, 159.0251
684.8116, 160.1757
685.2937, 153.7746
685.7758, 144.4323
686.2579, 137.6857
686.7401, 133.0057
687.2222, 132.9498
687.7043, 139.9041
688.1864, 149.9448
688.6685, 152.9114
689.1506, 149.2149
689.6328, 145.5068
690.1149, 145.6671
690.5970, 146.9348
691.0791, 142.6908
691.5612, 134.7617
692.0433, 132.4435
692.5255, 149.0747
693.0076, 166.1689
693.4897, 171.0000
693.9718, 161.5631
694.4539, 152.8343
694.9360, 145.3934
695.4182, 140.5601
695.9003, 139.6546
696.3824, 144.0667
696.8645, 146.2727
697.3466, 145.5651
697.8287, 144.5084
698.3109, 146.8414
698.7930, 151.6040
699.2751, 153.3421
699.7572, 150.5669
700.2393, 146.5603
700.7214, 145.2971
701.2036, 145.0346
701.6857, 142.7386
702.1678, 130.8034
702.6499, 124.2743
703.1320, 135.2583
703.6141, 155.6510
704.0963, 164.6298
704.5784, 152.2817
705.0605, 142.2969
705.5426, 139.9875
706.0247, 143.8714
706.5068, 147.8985
706.9890, 152.2234
707.4711, 155.5873
707.9532, 157.0275
708.4353, 157.0812
708.9174, 157.7421
709.3995, 158.7576
709.8817, 157.5146
710.3638, 147.9311
710.8459, 138.0856
711.3280, 136.8880
711.8101, 146.5466
712.2922, 152.6670
712.7744, 146.5476
713.2565, 138.9877
713.7386, 137.5590
714.2207, 145.8526
714.7028, 150.9680
715.1849, 152.3547
715.6671, 151.5956
716.1492, 149.4896
716.6313, 146.3241
717.1134, 145.6442
717.5955, 148.4937
718.0776, 152.5855
718.5598, 155.5374
719.0419, 157.6149
719.5240, 159.3594
720.0061, 161.8542
720.4882, 162.9991
720.9703, 162.1873
721.4525, 159.3076
721.9346, 154.0095
722.4167, 139.3761
722.8988, 131.6224
723.3809, 137.2363
723.8630, 151.6341
724.3452, 154.5205
724.8273, 143.8936
725.3094, 136.1698
725.7915, 141.4415
726.2736, 154.3122
726.7557, 161.4963
727.2379, 163.3363
727.7200, 162.5321
728.2021, 158.9924
728.6842, 154.8670
729.1663, 151.8290
729.6484, 150.0550
730.1306, 148.7469
730.6127, 150.2889
731.0948, 149.9564
731.5769, 144.1424
732.0590, 129.8060
732.5411, 122.9689
733.0233, 125.1945
733.5054, 131.4115
733.9875, 137.9943
734.4696, 144.7695
734.9517, 150.8650
735.4338, 156.6462
735.9160, 159.2051
736.3981, 152.6734
736.8802, 141.9273
737.3623, 134.2020
737.8444, 132.2931
738.3266, 131.9462
738.8087, 132.4525
739.2908, 133.2283
739.7729, 133.1827
740.2551, 129.4342
740.7372, 130.5614
741.2193, 140.5343
741.7014, 153.3909
742.1835, 155.0493
742.6656, 145.3609
743.1478, 137.2119
743.6299, 135.9384
744.1120, 136.8714
744.5941, 130.7024
745.0762, 120.2410
745.5583, 114.0225
746.0405, 117.3272
746.5226, 125.1367
747.0047, 140.0088
747.4868, 159.0179
747.9689, 165.2819
748.4510, 144.2290
748.9332, 126.6323
749.4153, 123.8222
749.8974, 134.1340
750.3795, 135.9151
750.8616, 127.6674
751.3438, 122.4038
751.8259, 133.2375
752.3080, 152.0843
752.7901, 159.0810
753.2722, 154.1830
753.7543, 146.7771
754.2365, 140.5245
754.7186, 136.1430
755.2007, 134.6966
755.6828, 136.7329
756.1649, 138.9362
756.6470, 141.2871
757.1292, 143.2039
757.6113, 145.0166
758.0934, 147.9600
758.5755, 143.6925
759.0576, 129.9322
759.5397, 116.4589
760.0219, 113.8683
760.5040, 119.9138
760.9861, 129.4885
761.4682, 143.1635
761.9503, 152.2098
762.4324, 141.8465
762.9146, 126.3406
763.3967, 123.2251
763.8788, 149.4008
764.3609, 167.4331
764.8430, 165.5012
765.3251, 155.5530
765.8073, 151.1973
766.2894, 154.7290
766.7715, 154.4933
767.2536, 147.9246
767.7357, 138.7729
768.2178, 133.1416
768.7000, 130.3916
769.1821, 127.7641
769.6642, 123.2016
770.1463, 120.2719
770.6284, 124.2715
771.1105, 131.8303
771.5927, 136.4330
772.0748, 131.3446
772.5569, 128.6232
773.0390, 132.3407
773.5211, 140.0941
774.0032, 145.9971
774.4854, 149.7511
774.9675, 152.9894
775.4496, 157.0808
775.9317, 160.1978
776.4138, 155.9093
776.8959, 145.6558
777.3781, 137.0549
777.8602, 133.8856
778.3423, 134.2569
778.8244, 138.7818
779.3065, 146.0304
779.7886, 150.1825
780.2708, 148.7054
780.7529, 144.4002
781.2350, 136.5927
781.7171, 126.1297
782.1992, 121.6080
782.6813, 124.3290
783.1635, 127.9565
783.6456, 128.8191
784.1277, 128.1726
784.6098, 131.3524
785.0919, 137.8054
785.5740, 142.2200
786.0562, 138.8122
786.5383, 133.6553
787.0204, 132.4043
787.5025, 135.3580
787.9846, 136.7449
788.4667, 131.8893
788.9489, 128.4345
789.4310, 130.3842
789.9131, 138.1819
790.3952, 142.6185
790.8773, 143.3253
791.3594, 142.2240
791.8416, 140.1324
792.3237, 137.3991
792.8058, 133.9656
793.2879, 129.8753
793.7700, 128.8588
794.2521, 137.1626
794.7343, 147.1601
795.2164, 152.3198
795.6985, 150.9331
796.1806, 149.2251
796.6627, 150.3599
797.1448, 148.7898
797.6270, 138.3738
798.1091, 116.4858
798.5912, 109.1496
799.0733, 118.6308
799.5554, 131.0396
800.0375, 130.7617
800.5197, 124.2793
801.0018, 126.0868
801.4839, 139.5694
801.9660, 148.7761
802.4481, 137.5177
802.9302, 121.7853
803.4124, 115.6353
803.8945, 127.5663
804.3766, 134.4270
804.8587, 134.4608
805.3408, 131.7313
805.8229, 128.6186
806.3051, 125.1539
806.7872, 127.0505
807.2693, 135.4517
807.7514, 145.2881
808.2335, 153.9615
808.7156, 159.8244
809.1978, 159.5015
809.6799, 150.3877
810.1620, 141.5355
810.6441, 134.7977
811.1262, 131.2252
811.6083, 132.2408
812.0905, 141.0150
812.5726, 147.0244
813.0547, 150.0679
813.5368, 150.2321
814.0189, 146.4595
814.5010, 139.4677
814.9832, 132.8408
815.4653, 126.6725
815.9474, 123.4971
816.4295, 129.5697
816.9116, 138.3286
817.3937, 141.1758
817.8759, 132.0817
818.3580, 124.7147
818.8401, 122.3310
819.3222, 122.6295
819.8043, 123.6994
820.2864, 125.5406
820.7686, 128.5305
821.2507, 133.1907
821.7328, 137.4553
822.2149, 138.3502
822.6970, 136.7073
823.1791, 134.2850
823.6613, 130.9823
824.1434, 128.6916
824.6255, 128.4158
825.1076, 129.9810
825.5897, 133.2072
826.0718, 144.6661
826.5540, 147.3730
827.0361, 136.1147
827.5182, 122.1249
828.0003, 120.6394
828.4824, 131.4676
828.9645, 136.2139
829.4467, 131.0945
829.9288, 123.8870
830.4109, 125.2714
830.8930, 129.8590
831.3751, 127.6720
831.8572, 108.8492
832.3394, 99.96320
832.8215, 121.9643
833.3036, 152.2449
833.7857, 165.1904
834.2678, 153.5739
834.7499, 145.4212
835.2321, 143.0862
835.7142, 142.9510
836.1963, 140.7334
836.6784, 136.8816
837.1605, 132.2899
837.6426, 126.2994
838.1248, 123.5799
838.6069, 131.4890
839.0890, 142.8929
839.5711, 149.8307
840.0532, 149.1040
840.5353, 146.3863
841.0175, 140.4426
841.4996, 134.4471
841.9817, 131.4910
842.4638, 131.5860
842.9459, 135.0677
843.4280, 142.9873
843.9102, 148.9631
844.3923, 142.8192
844.8744, 131.0457
845.3565, 123.9439
845.8386, 123.7771
846.3207, 127.3241
846.8029, 136.2512
847.2850, 146.4650
847.7671, 154.8303
848.2492, 162.8250
848.7313, 163.6776
849.2134, 154.7845
849.6956, 145.3768
850.1777, 147.2231
850.6598, 156.3828
851.1419, 157.7442
851.6240, 148.7456
852.1061, 139.9763
852.5883, 138.2192
853.0704, 141.1665
853.5525, 148.0896
854.0346, 162.5236
854.5167, 168.3659
854.9988, 159.2784
855.4810, 148.7700
855.9631, 147.7713
856.4452, 156.5067
856.9273, 157.5368
857.4094, 149.7327
857.8915, 144.0044
858.3737, 156.2051
858.8558, 173.0057
859.3379, 175.8034
859.8200, 161.4879
860.3021, 147.5015
860.7842, 138.1385
861.2664, 133.3498
861.7485, 134.2697
862.2306, 141.9496
862.7127, 143.7438
863.1948, 138.2486
863.6769, 133.1113
864.1591, 133.3381
864.6412, 138.0523
865.1233, 147.6158
865.6054, 161.3740
866.0875, 170.4972
866.5696, 164.7170
867.0518, 156.9172
867.5339, 156.0797
868.0160, 163.2021
868.4981, 167.1236
868.9802, 168.7907
869.4623, 164.9458
869.9445, 150.3813
870.4266, 129.2651
870.9087, 122.4201
871.3908, 128.7356
871.8729, 137.1076
872.3550, 143.7381
872.8372, 147.1759
873.3193, 143.0697
873.8014, 133.4554
874.2835, 129.7299
874.7656, 143.4054
875.2477, 152.1727
875.7299, 147.2939
876.2120, 133.9636
876.6941, 135.5391
877.1762, 151.9681
877.6583, 161.6527
878.1404, 148.9656
878.6226, 131.0152
879.1047, 133.9895
879.5869, 150.0512
880.0690, 159.0950
880.5511, 144.0592
881.0332, 131.8846
881.5153, 132.8263
881.9974, 140.9238
882.4796, 144.3303
882.9617, 142.3108
883.4438, 139.0020
883.9259, 133.7702
884.4080, 130.9984
884.8901, 142.8491
885.3723, 162.2976
885.8544, 172.2495
886.3365, 159.3487
886.8186, 147.9535
887.3007, 154.4168
887.7828, 166.3320
888.2650, 165.3704
888.7471, 143.6186
889.2292, 129.9043
889.7113, 127.4117
890.1934, 131.5955
890.6755, 139.4779
891.1577, 149.1591
891.6398, 154.4654
892.1219, 153.6032
892.6040, 151.3952
893.0861, 149.1357
893.5682, 148.3133
894.0504, 151.1040
894.5325, 161.6833
895.0146, 165.2688
895.4967, 159.4230
895.9788, 151.1017
896.4609, 144.4212
896.9431, 139.9302
897.4252, 144.1172
897.9073, 157.4621
898.3894, 167.0990
898.8715, 159.0431
899.3536, 146.2630
899.8358, 140.7192
900.3179, 144.4488
900.8000, 143.4335
901.2821, 131.9194
901.7642, 121.9889
902.2463, 119.5103
902.7285, 123.5339
903.2106, 126.6357
903.6927, 128.8661
904.1748, 131.8156
904.6569, 135.8840
905.1390, 141.6230
905.6212, 152.7090
906.1033, 166.7050
906.5854, 173.8504
907.0675, 164.1598
907.5496, 155.7547
908.0317, 153.3250
908.5139, 154.9606
908.9960, 155.1929
909.4781, 154.0135
909.9602, 151.6791
910.4423, 147.9951
910.9244, 143.7036
911.4066, 139.2824
911.8887, 135.0099
912.3708, 131.3383
912.8529, 124.2875
913.3350, 123.6219
913.8171, 136.0549
914.2993, 151.8846
914.7814, 155.7420
915.2635, 145.9927
915.7456, 148.4728
916.2277, 169.6412
916.7098, 191.4664
917.1920, 192.7387
917.6741, 181.1346
918.1562, 165.7692
918.6383, 145.5289
919.1204, 133.1133
919.6025, 138.7829
920.0847, 148.5649
920.5668, 153.5647
921.0489, 153.2590
921.5310, 152.0093
922.0131, 149.9570
922.4952, 145.9268
922.9774, 135.2793
923.4595, 123.8517
923.9416, 121.3664
924.4237, 127.8991
924.9058, 135.2238
925.3879, 143.7906
925.8701, 148.4044
926.3522, 145.2216
926.8343, 135.7499
927.3164, 132.9718
927.7985, 137.5872
928.2806, 142.2484
928.7628, 143.1019
929.2449, 142.4765
929.7270, 146.1774
930.2091, 151.4987
930.6912, 151.2044
931.1733, 128.0023
931.6555, 115.6850
932.1376, 135.0146
932.6197, 166.9309
933.1018, 177.8107
933.5839, 164.0213
934.0660, 158.0860
934.5482, 167.7128
935.0303, 181.1231
935.5124, 183.2961
935.9945, 178.5481
936.4766, 174.4859
936.9587, 173.4072
937.4409, 171.5680
937.9230, 165.5399
938.4051, 159.9928
938.8872, 159.5745
939.3693, 166.2856
939.8514, 164.7469
940.3336, 153.7784
940.8157, 143.2542
941.2978, 143.7367
941.7799, 148.6110
942.2620, 145.9825
942.7441, 135.9439
943.2263, 132.2989
943.7084, 152.8220
944.1905, 167.2807
944.6726, 159.0958
945.1547, 133.8524
945.6368, 129.5246
946.1190, 147.4802
946.6011, 162.5911
947.0832, 162.2450
947.5653, 154.5463
948.0474, 148.1741
948.5295, 143.1630
949.0117, 139.5923
949.4938, 137.1868
949.9759, 136.8096
950.4580, 139.9072
950.9401, 144.0163
951.4222, 144.3552
951.9044, 140.7902
952.3865, 142.8259
952.8686, 153.5729
953.3507, 162.4662
953.8328, 151.0843
954.3149, 134.5465
954.7971, 135.5298
955.2792, 167.1462
955.7613, 181.1201
956.2434, 155.0584
956.7255, 128.0730
957.2076, 125.7059
957.6898, 147.0917
958.1719, 160.6497
958.6540, 166.5331
959.1361, 168.0424
959.6182, 165.1371
960.1003, 160.7964
960.5825, 157.4897
961.0646, 155.1848
961.5467, 153.0779
962.0288, 151.4774
962.5109, 149.2311
962.9930, 145.4225
963.4752, 141.4041
963.9573, 141.1191
964.4394, 144.0365
964.9215, 146.9455
965.4036, 149.0072
965.8857, 150.2868
966.3679, 150.0664
966.8500, 149.4250
967.3321, 149.9322
967.8142, 155.1281
968.2963, 154.4697
968.7784, 144.9554
969.2606, 135.5663
969.7427, 137.0412
970.2248, 146.3586
970.7069, 153.2221
971.1890, 156.8195
971.6711, 157.7245
972.1533, 153.3631
972.6354, 148.8443
973.1175, 148.2283
973.5996, 151.5172
974.0817, 152.5295
974.5638, 149.8605
975.0460, 150.1886
975.5281, 158.3598
976.0102, 169.3825
976.4923, 173.7110
976.9744, 171.9986
977.4565, 166.1662
977.9387, 147.5563
978.4208, 136.0841
978.9029, 146.7806
979.3850, 164.7749
979.8671, 169.0012
980.3492, 156.3463
980.8314, 148.1642
981.3135, 147.2212
981.7956, 148.9080
982.2777, 147.1311
982.7598, 145.1682
983.2419, 148.6596
983.7241, 159.2264
984.2062, 168.3536
984.6883, 176.3261
985.1704, 178.9339
985.6525, 171.5502
986.1346, 155.8768
986.6168, 151.6494
987.0989, 158.5114
987.5810, 165.2735
988.0631, 166.5734
988.5452, 163.9314
989.0273, 154.6228
989.5095, 142.6420
989.9916, 138.5245
990.4737, 151.8827
990.9558, 161.4973
991.4379, 164.9286
991.9200, 163.4995
992.4022, 155.9135
992.8843, 144.6509
993.3664, 140.9930
993.8485, 147.9025
994.3306, 157.0640
994.8127, 168.1217
995.2949, 175.2503
995.7770, 170.0774
996.2591, 149.2040
996.7412, 142.2206
997.2233, 152.5033
997.7054, 164.5800
998.1876, 170.0413
998.6697, 170.3148
999.1518, 166.3287
999.6339, 159.5651
1000.116, 155.8714
1000.598, 159.3726
1001.080, 164.7250
1001.562, 173.3651
1002.044, 181.2065
1002.527, 179.1675
1003.009, 166.3264
1003.491, 157.9325
1003.973, 157.9332
1004.455, 158.4938
1004.937, 149.2967
1005.419, 136.3793
1005.901, 126.5309
1006.384, 119.9785
1006.866, 121.8368
1007.348, 140.1622
1007.830, 154.8436
1008.312, 151.2032
1008.794, 133.7092
1009.276, 129.5779
1009.758, 137.6144
1010.240, 147.5269
1010.723, 156.7155
1011.205, 162.5244
1011.687, 159.1128
1012.169, 151.4174
1012.651, 153.6469
1013.133, 172.4262
1013.615, 181.2012
1014.097, 173.4721
1014.580, 161.3575
1015.062, 162.9553
1015.544, 172.0352
1016.026, 176.3538
1016.508, 172.8087
1016.990, 169.4177
1017.472, 169.8287
1017.954, 170.9199
1018.436, 170.6130
1018.919, 169.0567
1019.401, 170.3883
1019.883, 174.6198
1020.365, 177.1674
1020.847, 173.5117
1021.329, 168.4717
1021.811, 167.1130
1022.293, 168.1331
1022.776, 168.2798
1023.258, 166.6513
1023.740, 164.4918
1024.222, 161.6779
1024.704, 158.7666
1025.186, 156.1607
1025.668, 154.1035
1026.150, 153.4183
1026.632, 154.1900
1027.115, 156.5907
1027.597, 162.1152
1028.079, 168.1498
1028.561, 173.5607
1029.043, 178.2636
1029.525, 180.1001
1030.007, 179.0882
1030.489, 174.5029
1030.972, 162.5513
1031.454, 150.7417
1031.936, 151.3205
1032.418, 159.7833
1032.900, 166.4391
1033.382, 166.6408
1033.864, 167.3400
1034.346, 170.6486
1034.828, 172.9414
1035.311, 168.7234
1035.793, 159.2587
1036.275, 152.8274
1036.757, 150.0479
1037.239, 150.2520
1037.721, 155.9480
1038.203, 161.8738
1038.685, 163.5015
1039.167, 161.3213
1039.650, 161.7832
1040.132, 165.4790
1040.614, 169.4718
1041.096, 173.4516
1041.578, 175.9362
1042.060, 171.2716
1042.542, 164.0464
1043.024, 164.0589
1043.507, 184.8717
1043.989, 190.8358
1044.471, 164.0475
1044.953, 134.1494
1045.435, 126.2737
1045.917, 138.2781
1046.399, 139.2770
1046.881, 129.4124
1047.364, 123.4434
1047.846, 135.0287
1048.328, 150.5253
1048.810, 162.9149
1049.292, 171.2464
1049.774, 173.7191
1050.256, 167.8555
1050.738, 165.2713
1051.220, 169.0194
1051.703, 174.9056
1052.185, 177.0067
1052.667, 176.9335
1053.149, 177.7922
1053.631, 180.9375
1054.113, 181.3147
1054.595, 173.2253
1055.077, 167.2406
1055.559, 171.0884
1056.042, 182.1593
1056.524, 181.1015
1057.006, 169.2127
1057.488, 157.1105
1057.970, 147.9633
1058.452, 143.1301
1058.934, 143.9332
1059.416, 149.6193
1059.899, 159.9433
1060.381, 179.8937
1060.863, 183.7735
1061.345, 165.8134
1061.827, 147.3963
1062.309, 155.6999
1062.791, 175.1132
1063.273, 182.0807
1063.755, 174.7913
1064.238, 166.1646
1064.720, 155.0831
1065.202, 149.5087
1065.684, 153.4233
1066.166, 163.3450
1066.648, 172.4354
1067.130, 179.2976
1067.612, 176.4750
1068.094, 155.3372
1068.577, 139.0719
1069.059, 147.6961
1069.541, 163.8241
1070.023, 169.9317
1070.505, 163.4201
1070.987, 160.7929
1071.469, 162.2530
1071.951, 165.2183
1072.434, 171.4478
1072.916, 175.6353
1073.398, 167.4233
1073.880, 151.3094
1074.362, 143.2609
1074.844, 151.4724
1075.326, 160.0536
1075.808, 168.1323
1076.291, 174.1806
1076.773, 176.1780
1077.255, 174.4486
1077.737, 167.8075
1078.219, 155.6857
1078.701, 148.6495
1079.183, 159.6024
1079.665, 169.4036
1080.147, 167.0120
1080.630, 155.1595
1081.112, 151.3765
1081.594, 155.3027
1082.076, 155.2172
1082.558, 143.4296
1083.040, 132.2913
1083.522, 132.1307
1084.004, 139.6528
1084.486, 151.8375
1084.969, 174.6129
1085.451, 183.5580
1085.933, 176.4469
1086.415, 163.6567
1086.897, 146.4788
1087.379, 132.2290
1087.861, 139.9717
1088.343, 163.8613
1088.826, 178.3862
1089.308, 163.1537
1089.790, 152.6917
1090.272, 155.1871
1090.754, 162.7659
1091.236, 163.0341
1091.718, 157.4514
1092.200, 152.1049
1092.682, 147.7874
1093.165, 145.7629
1093.647, 148.4176
1094.129, 152.2466
1094.611, 155.5851
1095.093, 158.2409
1095.575, 158.1266
1096.057, 155.0447
1096.539, 154.6715
1097.022, 161.3450
1097.504, 167.0957
1097.986, 160.9649
1098.468, 149.9256
1098.950, 143.6584
1099.432, 144.8417
1099.914, 147.6436
1100.396, 152.0742
1100.879, 157.9045
1101.361, 169.8736
1101.843, 180.8493
1102.325, 171.3869
1102.807, 147.6143
1103.289, 132.9283
1103.771, 145.6696
1104.253, 155.3527
1104.735, 156.5845
1105.218, 152.8007
1105.700, 146.5500
1106.182, 139.1081
1106.664, 137.1460
1107.146, 141.4265
1107.628, 148.3714
1108.110, 161.9132
1108.592, 171.2923
1109.074, 167.6390
1109.557, 155.0166
1110.039, 149.9940
1110.521, 152.6441
1111.003, 153.4160
1111.485, 147.7154
1111.967, 144.7562
1112.449, 159.2801
1112.931, 177.8490
1113.414, 185.4946
1113.896, 179.0396
1114.378, 168.3511
1114.860, 151.1909
1115.342, 139.7643
1115.824, 144.8758
1116.306, 156.5467
1116.788, 159.2819
1117.271, 156.0427
1117.753, 153.4560
1118.235, 153.0267
1118.717, 154.5262
1119.199, 158.9972
1119.681, 163.2965
1120.163, 163.6599
1120.645, 161.4461
1121.127, 160.7657
1121.609, 161.6357
1122.092, 162.2632
1122.574, 160.4258
1123.056, 159.8914
1123.538, 162.2763
1124.020, 166.2763
1124.502, 170.8131
1124.984, 175.2476
1125.466, 172.7716
1125.949, 161.3491
1126.431, 150.5314
1126.913, 146.6817
1127.395, 146.2613
1127.877, 147.5627
1128.359, 150.1547
1128.841, 151.0900
1129.323, 150.1439
1129.806, 152.6316
1130.288, 163.5024
1130.770, 172.0792
1131.252, 161.0511
1131.734, 144.2310
1132.216, 141.3636
1132.698, 160.7363
1133.180, 171.0553
1133.662, 171.2881
1134.145, 166.4515
1134.627, 155.2694
1135.109, 143.9250
1135.591, 144.4321
1136.073, 152.6724
1136.555, 158.2030
1137.037, 156.6545
1137.519, 153.9591
1138.001, 149.8583
1138.484, 146.0034
1138.966, 144.8603
1139.448, 145.1315
1139.930, 143.5706
1140.412, 140.1498
1140.894, 136.6187
1141.376, 133.5560
1141.858, 130.3464
1142.341, 125.3460
1142.823, 121.5969
1143.305, 127.0503
1143.787, 139.0817
1144.269, 145.3530
1144.751, 143.3534
1145.233, 140.6896
1145.715, 144.3331
1146.198, 145.4537
1146.680, 136.4218
1147.162, 121.2739
1147.644, 121.6983
1148.126, 136.4378
1148.608, 148.4138
1149.090, 152.3279
1149.572, 152.0939
1150.054, 146.7288
1150.536, 141.4453
1151.019, 142.3264
1151.501, 150.2352
1151.983, 150.1377
1152.465, 141.4582
1152.947, 139.0185
1153.429, 157.6573
1153.911, 178.3957
1154.393, 183.3746
1154.876, 177.6804
1155.358, 169.5467
1155.840, 159.9224
1156.322, 146.4674
1156.804, 127.1976
1157.286, 114.7657
1157.768, 127.3077
1158.250, 146.9859
1158.733, 149.7941
1159.215, 139.6816
1159.697, 134.1900
1160.179, 138.5655
1160.661, 142.0414
1161.143, 143.5026
1161.625, 143.4715
1162.107, 139.2039
1162.589, 135.4308
1163.072, 143.7040
1163.554, 163.5936
1164.036, 174.4546
1164.518, 165.2843
1165.000, 156.6286
1165.482, 153.6194
1165.964, 152.9098
1166.446, 147.7861
1166.928, 140.4556
1167.411, 135.8773
1167.893, 135.1938
1168.375, 135.6060
1168.857, 137.0211
1169.339, 138.2170
1169.821, 137.8954
1170.303, 137.6283
1170.785, 145.0846
1171.268, 156.7337
1171.750, 160.6651
1172.232, 150.6418
1172.714, 138.9070
1173.196, 123.3783
1173.678, 115.0215
1174.160, 124.3534
1174.642, 147.4635
1175.125, 158.6764
1175.607, 159.0197
1176.089, 153.4189
1176.571, 135.8461
1177.053, 123.9432
1177.535, 131.6928
1178.017, 144.1456
1178.499, 146.3222
1178.981, 138.4393
1179.464, 139.7216
1179.946, 149.7515
1180.428, 158.0002
1180.910, 157.2855
1181.392, 153.6369
1181.874, 147.1109
1182.356, 141.2897
1182.838, 142.0473
1183.320, 149.6177
1183.803, 158.1340
1184.285, 167.2747
1184.767, 172.9288
1185.249, 170.4869
1185.731, 165.0671
1186.213, 159.3661
1186.695, 153.5625
1187.177, 146.5670
1187.660, 137.8759
1188.142, 137.9369
1188.624, 149.8654
1189.106, 159.1415
1189.588, 147.7040
1190.070, 132.6269
1190.552, 129.4942
1191.034, 136.6578
1191.516, 135.8231
1191.999, 125.3180
1192.481, 125.1466
1192.963, 143.7757
1193.445, 161.1827
1193.927, 150.6265
1194.409, 133.3021
1194.891, 134.2299
1195.373, 155.4616
1195.855, 157.7335
1196.338, 138.0632
1196.820, 126.3036
1197.302, 138.2472
1197.784, 154.2555
1198.266, 150.0195
1198.748, 138.5829
1199.230, 137.5872
1199.712, 151.1841
1200.195, 158.8201
1200.677, 159.9381
1201.159, 158.9349
1201.641, 157.6676
1202.123, 156.0589
1202.605, 153.3400
1203.087, 150.4773
1203.569, 148.9898
1204.052, 148.9130
1204.534, 150.7199
1205.016, 154.7506
1205.498, 158.7107
1205.980, 162.8093
1206.462, 164.5757
1206.944, 156.8806
1207.426, 145.3502
1207.908, 144.4119
1208.391, 161.9828
1208.873, 168.5325
1209.355, 160.7890
1209.837, 153.3883
1210.319, 163.3577
1210.801, 176.9258
1211.283, 176.3335
1211.765, 165.4937
1212.247, 160.3608
1212.730, 165.8158
1213.212, 164.2150
1213.694, 152.0961
1214.176, 140.7873
1214.658, 140.1633
1215.140, 147.0160
1215.622, 163.9282
1216.104, 186.6604
1216.587, 190.6637
1217.069, 168.1276
1217.551, 150.7811
1218.033, 144.0116
1218.515, 142.4487
1218.997, 140.2995
1219.479, 139.9291
1219.961, 145.1547
1220.443, 155.7702
1220.926, 165.7674
1221.408, 177.3705
1221.890, 175.9427
1222.372, 154.1032
1222.854, 132.1362
1223.336, 138.7309
1223.818, 156.0098
1224.300, 164.7313
1224.782, 162.0164
1225.265, 151.9411
1225.747, 130.5384
1226.229, 123.2480
1226.711, 142.8219
1227.193, 165.9205
1227.675, 162.6531
1228.157, 147.6833
1228.639, 136.4263
1229.122, 130.4554
1229.604, 136.2804
1230.086, 156.4625
1230.568, 171.2683
1231.050, 171.5972
1231.532, 166.4833
1232.014, 166.8289
1232.496, 167.5201
1232.979, 160.0783
1233.461, 142.1419
1233.943, 136.0670
1234.425, 143.2557
1234.907, 148.3084
1235.389, 140.7582
1235.871, 133.2340
1236.353, 140.6059
1236.835, 154.2637
1237.318, 163.0858
1237.800, 166.4591
1238.282, 165.9589
1238.764, 161.3456
1239.246, 157.9275
1239.728, 160.1120
1240.210, 162.8992
1240.692, 162.0193
1241.175, 159.1837
1241.657, 155.6808
1242.139, 150.0226
1242.621, 158.3656
1243.103, 180.9809
1243.585, 192.6721
1244.067, 163.8620
1244.549, 134.3818
1245.031, 133.3468
1245.514, 147.1971
1245.996, 156.7429
1246.478, 161.9928
1246.960, 163.1591
1247.442, 160.4013
1247.924, 156.3197
1248.406, 149.1313
1248.888, 144.9629
1249.370, 151.1370
1249.853, 160.0137
1250.335, 159.5262
1250.817, 150.2658
1251.299, 154.1062
1251.781, 170.8788
1252.263, 184.1136
1252.745, 181.9833
1253.227, 175.8744
1253.710, 168.3070
1254.192, 161.5668
1254.674, 158.6939
1255.156, 159.3425
1255.638, 162.9148
1256.120, 168.7084
1256.602, 169.6227
1257.084, 154.6583
1257.567, 143.3402
1258.049, 142.8802
1258.531, 147.5212
1259.013, 150.5690
1259.495, 151.9378
1259.977, 149.8795
1260.459, 144.8574
1260.941, 142.9678
1261.423, 151.6427
1261.906, 157.5424
1262.388, 157.9836
1262.870, 154.0524
1263.352, 141.8719
1263.834, 128.1741
1264.316, 132.3267
1264.798, 154.2262
1265.280, 170.6689
1265.762, 172.7506
1266.245, 171.3949
1266.727, 167.6348
1267.209, 163.1334
1267.691, 158.9774
1268.173, 156.2181
1268.655, 158.5377
1269.137, 165.5888
1269.619, 165.9451
1270.102, 155.4181
1270.584, 146.7188
1271.066, 142.1796
1271.548, 141.4284
1272.030, 145.7299
1272.512, 152.4686
1272.994, 158.6828
1273.476, 164.1470
1273.958, 171.0004
1274.441, 180.3650
1274.923, 185.8062
1275.405, 185.9518
1275.887, 181.4143
1276.369, 169.0669
1276.851, 155.2749
1277.333, 145.3764
1277.815, 139.7971
1278.297, 139.7616
1278.780, 145.6552
1279.262, 148.4763
1279.744, 145.7349
1280.226, 142.2665
1280.708, 138.6514
1281.190, 139.0704
1281.672, 149.5467
1282.154, 165.8492
1282.637, 172.8431
1283.119, 171.1866
1283.601, 164.9280
1284.083, 153.3022
1284.565, 149.2216
1285.047, 171.7621
1285.529, 190.9567
1286.011, 190.3905
1286.494, 177.7529
1286.976, 174.9970
1287.458, 178.8376
1287.940, 177.3581
1288.422, 167.2035
1288.904, 159.6397
1289.386, 162.8488
1289.868, 163.3113
1290.350, 154.1743
1290.833, 143.3785
1291.315, 150.2106
1291.797, 166.2657
1292.279, 175.8658
1292.761, 176.2172
1293.243, 168.0093
1293.725, 146.7096
1294.207, 130.9881
1294.689, 127.1112
1295.172, 130.9553
1295.654, 140.0312
1296.136, 151.1644
1296.618, 160.7428
1297.100, 168.1813
1297.582, 171.6218
1298.064, 170.5159
1298.546, 169.2469
1299.029, 169.1897
1299.511, 169.4016
1299.993, 169.0465
1300.475, 168.3677
1300.957, 167.2088
1301.439, 165.8309
1301.921, 166.4556
1302.403, 168.9748
1302.885, 170.2495
1303.368, 169.4835
1303.850, 167.0404
1304.332, 161.7617
1304.814, 156.2847
1305.296, 151.9176
1305.778, 148.7548
1306.260, 145.6256
1306.742, 143.7485
1307.224, 150.2414
1307.707, 169.6660
1308.189, 181.0328
1308.671, 170.2349
1309.153, 156.0053
1309.635, 142.2072
1310.117, 132.5059
1310.599, 140.2771
1311.081, 156.5590
1311.564, 161.1071
1312.046, 147.5295
1312.528, 145.6049
1313.010, 164.5113
1313.492, 174.0648
1313.974, 160.1302
1314.456, 142.0883
1314.938, 147.1279
##END=



